"Event.Index","UTC.Timestamp","UTC.Date.and.Time","Local.Timestamp","Local.Timezone","Local.Date.and.Time","Experiment.ID","Experiment.Version","Tree.Node.Key","Repeat.Key","Schedule.ID","Participant.Starting.Group","Participant.Status","Participant.Completion.Code","Participant.Device.Type","Participant.Device","Participant.OS","Participant.Browser","Participant.Monitor.Size","Participant.Viewport.Size","Checkpoint","Room.ID","Room.Order","Task.Name","Task.Version","order.ot79","branch.g31k","branch.5gtn","counterbalance.qny1","Spreadsheet","Current.Spreadsheet","Trial.Number","Display","Screen","Screen.ID","Screen.Counter","Response.Type","Response","Onset.Time","Clock.Time","Reaction.Time","Absolute.Onset.Time","Absolute.Clock.Time","Absolute.Reaction.Time","Correct","Response.Onset","Response.Duration","Proportion","Tag","Component.Name","Object.Name","Object.Number","Object.ID","Spreadsheet..display","Manipulation..Spreadsheet","Random_ID_new"
1,1714567437623,"01/05/2024 12:43:57",1714571037623,1,"01/05/2024 14:43:57",177048,7,"task-xk4o",NA,37380534,NA,"complete",NA,"computer","Desktop or Laptop","Windows 10","Chrome 124.0.0.0","1920x1080","1920x991",NA,NA,0,"Task Introduction and Instructions (re-introduce video and audio) (Clone) (Clone)",3,"ABHCGDFE","Passed AC2",NA,"spreadsheet_4","Spreadsheet1","Spreadsheet1",NA,"","","",NA,"5","BEGIN",NA,NA,NA,NA,NA,NA,0,NA,NA,NA,NA,"","",NA,"","",NA,"SUPSCO24387"
2,1714567442255,"01/05/2024 12:44:02",1714571042255,1,"01/05/2024 14:44:02",177048,7,"task-xk4o",NA,37380534,NA,"complete",NA,"computer","Desktop or Laptop","Windows 10","Chrome 124.0.0.0","1920x1080","1920x991",NA,NA,0,"Task Introduction and Instructions (re-introduce video and audio) (Clone) (Clone)",3,"ABHCGDFE","Passed AC2",NA,"spreadsheet_4","Spreadsheet1","Spreadsheet1",1,"Task Instructions","Screen 1","anr7sn",1,"continue","",4444.70000000019,4442.2,4444.70000000019,4444.70000000019,4442.2,4444.70000000019,1,4444.70000000019,0,0,NA,"Click To Continue","Continue Button",3,"object-60","Task Instructions",NA,"SUPSCO24387"
3,1714567444933,"01/05/2024 12:44:04",1714571044933,1,"01/05/2024 14:44:04",177048,7,"task-xk4o",NA,37380534,NA,"complete",NA,"computer","Desktop or Laptop","Windows 10","Chrome 124.0.0.0","1920x1080","1920x991",NA,NA,0,"Task Introduction and Instructions (re-introduce video and audio) (Clone) (Clone)",3,"ABHCGDFE","Passed AC2",NA,"spreadsheet_4","Spreadsheet1","Spreadsheet1",1,"Task Instructions","Screen 4","spepx9",2,"continue","",2681.40000000009,2678.6,2681.40000000009,2681.40000000009,2678.6,2681.40000000009,1,2681.40000000009,0,0,NA,"Click To Continue","Continue Button",2,"object-9","Task Instructions",NA,"SUPSCO24387"
4,1714567457313,"01/05/2024 12:44:17",1714571057313,1,"01/05/2024 14:44:17",177048,7,"task-xk4o",NA,37380534,NA,"complete",NA,"computer","Desktop or Laptop","Windows 10","Chrome 124.0.0.0","1920x1080","1920x991",NA,NA,0,"Task Introduction and Instructions (re-introduce video and audio) (Clone) (Clone)",3,"ABHCGDFE","Passed AC2",NA,"spreadsheet_4","Spreadsheet1","Spreadsheet1",1,"Task Instructions","Screen 2","ce2tc8",3,"continue","",12382.8000000001,12381.3,12382.8000000001,12382.8000000001,12381.3,12382.8000000001,1,12382.8000000001,0,0,NA,"Click To Continue","Continue Button",3,"object-59","Task Instructions",NA,"SUPSCO24387"
5,1714567468061,"01/05/2024 12:44:28",1714571068061,1,"01/05/2024 14:44:28",177048,7,"task-xk4o",NA,37380534,NA,"complete",NA,"computer","Desktop or Laptop","Windows 10","Chrome 124.0.0.0","1920x1080","1920x991",NA,NA,0,"Task Introduction and Instructions (re-introduce video and audio) (Clone) (Clone)",3,"ABHCGDFE","Passed AC2",NA,"spreadsheet_4","Spreadsheet1","Spreadsheet1",1,"Task Instructions","Screen 3","1qtc8v",4,"continue","",10749.5000000001,10744.9,10749.5000000001,10749.5000000001,10744.9,10749.5000000001,1,10749.5000000001,0,0,NA,"Click To Continue","Continue Button",2,"object-2983","Task Instructions",NA,"SUPSCO24387"
6,1714567479136,"01/05/2024 12:44:39",1714571079136,1,"01/05/2024 14:44:39",177048,7,"task-xk4o",NA,37380534,NA,"complete",NA,"computer","Desktop or Laptop","Windows 10","Chrome 124.0.0.0","1920x1080","1920x991",NA,NA,0,"Task Introduction and Instructions (re-introduce video and audio) (Clone) (Clone)",3,"ABHCGDFE","Passed AC2",NA,"spreadsheet_4","Spreadsheet1","Spreadsheet1",1,"Task Instructions","Screen 12","1a4vu2",5,"continue","",11079.5,11078.2,11079.5,11079.5,11078.2,11079.5,1,11079.5,0,0,NA,"Click To Continue","Continue Button",2,"object-2466","Task Instructions",NA,"SUPSCO24387"
7,1714567483832,"01/05/2024 12:44:43",1714571083832,1,"01/05/2024 14:44:43",177048,7,"task-xk4o",NA,37380534,NA,"complete",NA,"computer","Desktop or Laptop","Windows 10","Chrome 124.0.0.0","1920x1080","1920x991",NA,NA,0,"Task Introduction and Instructions (re-introduce video and audio) (Clone) (Clone)",3,"ABHCGDFE","Passed AC2",NA,"spreadsheet_4","Spreadsheet1","Spreadsheet1",1,"Task Instructions","Screen 13","q9vwda",6,"continue","",4696.7,4690.7,4696.7,4696.7,4690.7,4696.7,1,4696.7,0,0,NA,"Click To Continue","Continue Button",2,"object-2989","Task Instructions",NA,"SUPSCO24387"
8,1714567488152,"01/05/2024 12:44:48",1714571088152,1,"01/05/2024 14:44:48",177048,7,"task-xk4o",NA,37380534,NA,"complete",NA,"computer","Desktop or Laptop","Windows 10","Chrome 124.0.0.0","1920x1080","1920x991",NA,NA,0,"Task Introduction and Instructions (re-introduce video and audio) (Clone) (Clone)",3,"ABHCGDFE","Passed AC2",NA,"spreadsheet_4","Spreadsheet1","Spreadsheet1",1,"Task Instructions","Screen 11","oyulb7",7,"continue","",4326.39999999981,4321.1,4326.39999999981,4326.39999999981,4321.1,4326.39999999981,1,4326.39999999981,0,0,NA,"Click To Continue","Continue Button",2,"object-52","Task Instructions",NA,"SUPSCO24387"
9,1714567514570,"01/05/2024 12:45:14",1714571114570,1,"01/05/2024 14:45:14",177048,7,"task-xk4o",NA,37380534,NA,"complete",NA,"computer","Desktop or Laptop","Windows 10","Chrome 124.0.0.0","1920x1080","1920x991",NA,NA,0,"Task Introduction and Instructions (re-introduce video and audio) (Clone) (Clone)",3,"ABHCGDFE","Passed AC2",NA,"spreadsheet_4","Spreadsheet1","Spreadsheet1",1,"Task Instructions","Screen 5","8nvnao",8,"continue","",26423.6000000001,26422.9,26423.6000000001,26423.6000000001,26422.9,26423.6000000001,1,26423.6000000001,0,0,NA,"Click To Continue","Continue Button",2,"object-44","Task Instructions",NA,"SUPSCO24387"
10,1714567514572,"01/05/2024 12:45:14",1714571114572,1,"01/05/2024 14:45:14",177048,7,"task-xk4o",NA,37380534,NA,"complete",NA,"computer","Desktop or Laptop","Windows 10","Chrome 124.0.0.0","1920x1080","1920x991",NA,NA,0,"Task Introduction and Instructions (re-introduce video and audio) (Clone) (Clone)",3,"ABHCGDFE","Passed AC2",NA,"spreadsheet_4","Spreadsheet1","Spreadsheet1",NA,"","","",NA,"5","END",NA,NA,NA,NA,NA,NA,0,NA,NA,NA,NA,"","",NA,"","",NA,"SUPSCO24387"
1,1714750241124,"03/05/2024 15:30:41",1714753841124,1,"03/05/2024 17:30:41",177048,7,"task-xk4o",NA,37443678,NA,"complete",NA,"computer","Desktop or Laptop","Windows 10","Chrome 124.0.0.0","1366x768","1366x641",NA,NA,0,"Task Introduction and Instructions (re-introduce video and audio) (Clone) (Clone)",3,"BCADHEGF","Passed AC2",NA,"spreadsheet_3","Spreadsheet1","Spreadsheet1",NA,"","","",NA,"5","BEGIN",NA,NA,NA,NA,NA,NA,0,NA,NA,NA,NA,"","",NA,"","",NA,"SUPSCO46030"
2,1714750245477,"03/05/2024 15:30:45",1714753845477,1,"03/05/2024 17:30:45",177048,7,"task-xk4o",NA,37443678,NA,"complete",NA,"computer","Desktop or Laptop","Windows 10","Chrome 124.0.0.0","1366x768","1366x641",NA,NA,0,"Task Introduction and Instructions (re-introduce video and audio) (Clone) (Clone)",3,"BCADHEGF","Passed AC2",NA,"spreadsheet_3","Spreadsheet1","Spreadsheet1",1,"Task Instructions","Screen 1","anr7sn",1,"continue","",4140.49999999995,4126.4,4140.49999999995,4140.49999999995,4126.4,4140.49999999995,1,4140.49999999995,0,0,NA,"Click To Continue","Continue Button",3,"object-60","Task Instructions",NA,"SUPSCO46030"
3,1714750248036,"03/05/2024 15:30:48",1714753848036,1,"03/05/2024 17:30:48",177048,7,"task-xk4o",NA,37443678,NA,"complete",NA,"computer","Desktop or Laptop","Windows 10","Chrome 124.0.0.0","1366x768","1366x641",NA,NA,0,"Task Introduction and Instructions (re-introduce video and audio) (Clone) (Clone)",3,"BCADHEGF","Passed AC2",NA,"spreadsheet_3","Spreadsheet1","Spreadsheet1",1,"Task Instructions","Screen 4","spepx9",2,"continue","",2572.70000000005,2561.2,2572.70000000005,2572.70000000005,2561.2,2572.70000000005,1,2572.70000000005,0,0,NA,"Click To Continue","Continue Button",2,"object-9","Task Instructions",NA,"SUPSCO46030"
4,1714750250657,"03/05/2024 15:30:50",1714753850657,1,"03/05/2024 17:30:50",177048,7,"task-xk4o",NA,37443678,NA,"complete",NA,"computer","Desktop or Laptop","Windows 10","Chrome 124.0.0.0","1366x768","1366x641",NA,NA,0,"Task Introduction and Instructions (re-introduce video and audio) (Clone) (Clone)",3,"BCADHEGF","Passed AC2",NA,"spreadsheet_3","Spreadsheet1","Spreadsheet1",1,"Task Instructions","Screen 2","ce2tc8",3,"continue","",2633.00000000005,2625.3,2633.00000000005,2633.00000000005,2625.3,2633.00000000005,1,2633.00000000005,0,0,NA,"Click To Continue","Continue Button",3,"object-59","Task Instructions",NA,"SUPSCO46030"
5,1714750264182,"03/05/2024 15:31:04",1714753864182,1,"03/05/2024 17:31:04",177048,7,"task-xk4o",NA,37443678,NA,"complete",NA,"computer","Desktop or Laptop","Windows 10","Chrome 124.0.0.0","1366x768","1366x641",NA,NA,0,"Task Introduction and Instructions (re-introduce video and audio) (Clone) (Clone)",3,"BCADHEGF","Passed AC2",NA,"spreadsheet_3","Spreadsheet1","Spreadsheet1",1,"Task Instructions","Screen 3","1qtc8v",4,"continue","",13532.4999999999,13529.4,13532.4999999999,13532.4999999999,13529.4,13532.4999999999,1,13532.4999999999,0,0,NA,"Click To Continue","Continue Button",2,"object-2983","Task Instructions",NA,"SUPSCO46030"
6,1714750267075,"03/05/2024 15:31:07",1714753867075,1,"03/05/2024 17:31:07",177048,7,"task-xk4o",NA,37443678,NA,"complete",NA,"computer","Desktop or Laptop","Windows 10","Chrome 124.0.0.0","1366x768","1366x641",NA,NA,0,"Task Introduction and Instructions (re-introduce video and audio) (Clone) (Clone)",3,"BCADHEGF","Passed AC2",NA,"spreadsheet_3","Spreadsheet1","Spreadsheet1",1,"Task Instructions","Screen 12","1a4vu2",5,"continue","",2896.59999999986,2892.3,2896.59999999986,2896.59999999986,2892.3,2896.59999999986,1,2896.59999999986,0,0,NA,"Click To Continue","Continue Button",2,"object-2466","Task Instructions",NA,"SUPSCO46030"
7,1714750293114,"03/05/2024 15:31:33",1714753893114,1,"03/05/2024 17:31:33",177048,7,"task-xk4o",NA,37443678,NA,"complete",NA,"computer","Desktop or Laptop","Windows 10","Chrome 124.0.0.0","1366x768","1366x641",NA,NA,0,"Task Introduction and Instructions (re-introduce video and audio) (Clone) (Clone)",3,"BCADHEGF","Passed AC2",NA,"spreadsheet_3","Spreadsheet1","Spreadsheet1",1,"Task Instructions","Screen 13","q9vwda",6,"continue","",26041.7,26025.1,26041.7,26041.7,26025.1,26041.7,1,26041.7,0,0,NA,"Click To Continue","Continue Button",2,"object-2989","Task Instructions",NA,"SUPSCO46030"
8,1714750296140,"03/05/2024 15:31:36",1714753896140,1,"03/05/2024 17:31:36",177048,7,"task-xk4o",NA,37443678,NA,"complete",NA,"computer","Desktop or Laptop","Windows 10","Chrome 124.0.0.0","1366x768","1366x641",NA,NA,0,"Task Introduction and Instructions (re-introduce video and audio) (Clone) (Clone)",3,"BCADHEGF","Passed AC2",NA,"spreadsheet_3","Spreadsheet1","Spreadsheet1",1,"Task Instructions","Screen 11","oyulb7",7,"continue","",3043.79999999995,3040.3,3043.79999999995,3043.79999999995,3040.3,3043.79999999995,1,3043.79999999995,0,0,NA,"Click To Continue","Continue Button",2,"object-52","Task Instructions",NA,"SUPSCO46030"
9,1714750299043,"03/05/2024 15:31:39",1714753899043,1,"03/05/2024 17:31:39",177048,7,"task-xk4o",NA,37443678,NA,"complete",NA,"computer","Desktop or Laptop","Windows 10","Chrome 124.0.0.0","1366x768","1366x641",NA,NA,0,"Task Introduction and Instructions (re-introduce video and audio) (Clone) (Clone)",3,"BCADHEGF","Passed AC2",NA,"spreadsheet_3","Spreadsheet1","Spreadsheet1",1,"Task Instructions","Screen 5","8nvnao",8,"continue","",2906.19999999991,2893.9,2906.19999999991,2906.19999999991,2893.9,2906.19999999991,1,2906.19999999991,0,0,NA,"Click To Continue","Continue Button",2,"object-44","Task Instructions",NA,"SUPSCO46030"
10,1714750299047,"03/05/2024 15:31:39",1714753899047,1,"03/05/2024 17:31:39",177048,7,"task-xk4o",NA,37443678,NA,"complete",NA,"computer","Desktop or Laptop","Windows 10","Chrome 124.0.0.0","1366x768","1366x641",NA,NA,0,"Task Introduction and Instructions (re-introduce video and audio) (Clone) (Clone)",3,"BCADHEGF","Passed AC2",NA,"spreadsheet_3","Spreadsheet1","Spreadsheet1",NA,"","","",NA,"5","END",NA,NA,NA,NA,NA,NA,0,NA,NA,NA,NA,"","",NA,"","",NA,"SUPSCO46030"
1,1715175395211,"08/05/2024 13:36:35",1715178995211,1,"08/05/2024 15:36:35",177048,7,"task-xk4o",NA,37553764,NA,"complete",NA,"computer","Desktop or Laptop","Windows 10","Chrome 124.0.0.0","1280x720","1280x585",NA,NA,0,"Task Introduction and Instructions (re-introduce video and audio) (Clone) (Clone)",3,"CDBEAFHG","Passed AC2",NA,"spreadsheet_5","Spreadsheet1","Spreadsheet1",NA,"","","",NA,"5","BEGIN",NA,NA,NA,NA,NA,NA,0,NA,NA,NA,NA,"","",NA,"","",NA,"SUPSCO52921"
2,1715175399020,"08/05/2024 13:36:39",1715178999020,1,"08/05/2024 15:36:39",177048,7,"task-xk4o",NA,37553764,NA,"complete",NA,"computer","Desktop or Laptop","Windows 10","Chrome 124.0.0.0","1280x720","1280x585",NA,NA,0,"Task Introduction and Instructions (re-introduce video and audio) (Clone) (Clone)",3,"CDBEAFHG","Passed AC2",NA,"spreadsheet_5","Spreadsheet1","Spreadsheet1",1,"Task Instructions","Screen 1","anr7sn",1,"continue","",3703.50000000009,3699.3,3703.50000000009,3703.50000000009,3699.3,3703.50000000009,1,3703.50000000009,0,0,NA,"Click To Continue","Continue Button",3,"object-60","Task Instructions",NA,"SUPSCO52921"
3,1715175403480,"08/05/2024 13:36:43",1715179003480,1,"08/05/2024 15:36:43",177048,7,"task-xk4o",NA,37553764,NA,"complete",NA,"computer","Desktop or Laptop","Windows 10","Chrome 124.0.0.0","1280x720","1280x585",NA,NA,0,"Task Introduction and Instructions (re-introduce video and audio) (Clone) (Clone)",3,"CDBEAFHG","Passed AC2",NA,"spreadsheet_5","Spreadsheet1","Spreadsheet1",1,"Task Instructions","Screen 4","spepx9",2,"continue","",4464.40000000028,4448.8,4464.40000000028,4464.40000000028,4448.8,4464.40000000028,1,4464.40000000028,0,0,NA,"Click To Continue","Continue Button",2,"object-9","Task Instructions",NA,"SUPSCO52921"
4,1715175459327,"08/05/2024 13:37:39",1715179059327,1,"08/05/2024 15:37:39",177048,7,"task-xk4o",NA,37553764,NA,"complete",NA,"computer","Desktop or Laptop","Windows 10","Chrome 124.0.0.0","1280x720","1280x585",NA,NA,0,"Task Introduction and Instructions (re-introduce video and audio) (Clone) (Clone)",3,"CDBEAFHG","Passed AC2",NA,"spreadsheet_5","Spreadsheet1","Spreadsheet1",1,"Task Instructions","Screen 2","ce2tc8",3,"continue","",55862.5000000002,55852.9,55862.5000000002,55862.5000000002,55852.9,55862.5000000002,1,55862.5000000002,0,0,NA,"Click To Continue","Continue Button",3,"object-59","Task Instructions",NA,"SUPSCO52921"
5,1715175470425,"08/05/2024 13:37:50",1715179070425,1,"08/05/2024 15:37:50",177048,7,"task-xk4o",NA,37553764,NA,"complete",NA,"computer","Desktop or Laptop","Windows 10","Chrome 124.0.0.0","1280x720","1280x585",NA,NA,0,"Task Introduction and Instructions (re-introduce video and audio) (Clone) (Clone)",3,"CDBEAFHG","Passed AC2",NA,"spreadsheet_5","Spreadsheet1","Spreadsheet1",1,"Task Instructions","Screen 3","1qtc8v",4,"continue","",11107.7000000003,11097.3,11107.7000000003,11107.7000000003,11097.3,11107.7000000003,1,11107.7000000003,0,0,NA,"Click To Continue","Continue Button",2,"object-2983","Task Instructions",NA,"SUPSCO52921"
6,1715175476812,"08/05/2024 13:37:56",1715179076812,1,"08/05/2024 15:37:56",177048,7,"task-xk4o",NA,37553764,NA,"complete",NA,"computer","Desktop or Laptop","Windows 10","Chrome 124.0.0.0","1280x720","1280x585",NA,NA,0,"Task Introduction and Instructions (re-introduce video and audio) (Clone) (Clone)",3,"CDBEAFHG","Passed AC2",NA,"spreadsheet_5","Spreadsheet1","Spreadsheet1",1,"Task Instructions","Screen 12","1a4vu2",5,"continue","",6397.7,6381.3,6397.7,6397.7,6381.3,6397.7,1,6397.7,0,0,NA,"Click To Continue","Continue Button",2,"object-2466","Task Instructions",NA,"SUPSCO52921"
7,1715175483612,"08/05/2024 13:38:03",1715179083612,1,"08/05/2024 15:38:03",177048,7,"task-xk4o",NA,37553764,NA,"complete",NA,"computer","Desktop or Laptop","Windows 10","Chrome 124.0.0.0","1280x720","1280x585",NA,NA,0,"Task Introduction and Instructions (re-introduce video and audio) (Clone) (Clone)",3,"CDBEAFHG","Passed AC2",NA,"spreadsheet_5","Spreadsheet1","Spreadsheet1",1,"Task Instructions","Screen 13","q9vwda",6,"continue","",6816.20000000038,6815.10000000001,6816.20000000038,6816.20000000038,6815.10000000001,6816.20000000038,1,6816.20000000038,0,0,NA,"Click To Continue","Continue Button",2,"object-2989","Task Instructions",NA,"SUPSCO52921"
8,1715175486612,"08/05/2024 13:38:06",1715179086612,1,"08/05/2024 15:38:06",177048,7,"task-xk4o",NA,37553764,NA,"complete",NA,"computer","Desktop or Laptop","Windows 10","Chrome 124.0.0.0","1280x720","1280x585",NA,NA,0,"Task Introduction and Instructions (re-introduce video and audio) (Clone) (Clone)",3,"CDBEAFHG","Passed AC2",NA,"spreadsheet_5","Spreadsheet1","Spreadsheet1",1,"Task Instructions","Screen 11","oyulb7",7,"continue","",3001.10000000037,2999.09999999999,3001.10000000037,3001.10000000037,2999.09999999999,3001.10000000037,1,3001.10000000037,0,0,NA,"Click To Continue","Continue Button",2,"object-52","Task Instructions",NA,"SUPSCO52921"
9,1715175489995,"08/05/2024 13:38:09",1715179089995,1,"08/05/2024 15:38:09",177048,7,"task-xk4o",NA,37553764,NA,"complete",NA,"computer","Desktop or Laptop","Windows 10","Chrome 124.0.0.0","1280x720","1280x585",NA,NA,0,"Task Introduction and Instructions (re-introduce video and audio) (Clone) (Clone)",3,"CDBEAFHG","Passed AC2",NA,"spreadsheet_5","Spreadsheet1","Spreadsheet1",1,"Task Instructions","Screen 5","8nvnao",8,"continue","",3384.30000000019,3382.5,3384.30000000019,3384.30000000019,3382.5,3384.30000000019,1,3384.30000000019,0,0,NA,"Click To Continue","Continue Button",2,"object-44","Task Instructions",NA,"SUPSCO52921"
10,1715175489997,"08/05/2024 13:38:09",1715179089997,1,"08/05/2024 15:38:09",177048,7,"task-xk4o",NA,37553764,NA,"complete",NA,"computer","Desktop or Laptop","Windows 10","Chrome 124.0.0.0","1280x720","1280x585",NA,NA,0,"Task Introduction and Instructions (re-introduce video and audio) (Clone) (Clone)",3,"CDBEAFHG","Passed AC2",NA,"spreadsheet_5","Spreadsheet1","Spreadsheet1",NA,"","","",NA,"5","END",NA,NA,NA,NA,NA,NA,0,NA,NA,NA,NA,"","",NA,"","",NA,"SUPSCO52921"
