"Event.Index","UTC.Timestamp","UTC.Date.and.Time","Local.Timestamp","Local.Timezone","Local.Date.and.Time","Experiment.ID","Experiment.Version","Tree.Node.Key","Repeat.Key","Schedule.ID","Participant.Private.ID","Participant.Starting.Group","Participant.Status","Participant.Completion.Code","Participant.External.Session.ID","Participant.Device.Type","Participant.Device","Participant.OS","Participant.Browser","Participant.Monitor.Size","Participant.Viewport.Size","Checkpoint","Room.ID","Room.Order","Task.Name","Task.Version","order.ot79","branch.g31k","branch.5gtn","Spreadsheet","Current.Spreadsheet","Trial.Number","Display","Screen","Screen.ID","Screen.Counter","Response.Type","Response","Onset.Time","Clock.Time","Reaction.Time","Absolute.Onset.Time","Absolute.Clock.Time","Absolute.Reaction.Time","Correct","Response.Onset","Response.Duration","Proportion","Tag","Component.Name","Object.Name","Object.Number","Object.ID","Spreadsheet..display","Manipulation..Spreadsheet","Random_ID"
"1",1712946266492,"12/04/2024 18:24:26",1712921066492,-7,"12/04/2024 04:24:26",175580,1,"task-kvtv",NA,36976043,10904997,NA,"complete",NA,"661971045da025666c6f5a25","computer","Desktop or Laptop","Windows 10","Chrome 123.0.0.0","1280x720","1280x551",NA,NA,0,"Task Introduction and Instructions (re-introduce video and audio) (Clone) (Clone)",2,"ABKCJDIEHFG","Passed AC2","","Spreadsheet1","Spreadsheet1",NA,"","","",NA,"5","BEGIN",NA,NA,NA,NA,NA,NA,0,NA,NA,NA,NA,"","",NA,"","",NA,"SUPPRF15657"
"2",1712946276011,"12/04/2024 18:24:36",1712921076011,-7,"12/04/2024 04:24:36",175580,1,"task-kvtv",NA,36976043,10904997,NA,"complete",NA,"661971045da025666c6f5a25","computer","Desktop or Laptop","Windows 10","Chrome 123.0.0.0","1280x720","1280x551",NA,NA,0,"Task Introduction and Instructions (re-introduce video and audio) (Clone) (Clone)",2,"ABKCJDIEHFG","Passed AC2","","Spreadsheet1","Spreadsheet1",1,"Task Instructions","Screen 1","anr7sn",1,"continue","",7662.6,7646,7662.6,7662.6,7646,7662.6,1,7662.6,0,0,NA,"Click To Continue","Continue Button",3,"object-60","Task Instructions",NA,"SUPPRF15657"
"3",1712946294947,"12/04/2024 18:24:54",1712921094947,-7,"12/04/2024 04:24:54",175580,1,"task-kvtv",NA,36976043,10904997,NA,"complete",NA,"661971045da025666c6f5a25","computer","Desktop or Laptop","Windows 10","Chrome 123.0.0.0","1280x720","1280x551",NA,NA,0,"Task Introduction and Instructions (re-introduce video and audio) (Clone) (Clone)",2,"ABKCJDIEHFG","Passed AC2","","Spreadsheet1","Spreadsheet1",1,"Task Instructions","Screen 4","spepx9",2,"continue","",18956.4000000119,18939.8,18956.4000000119,18956.4000000119,18939.8,18956.4000000119,1,18956.4000000119,0,0,NA,"Click To Continue","Continue Button",2,"object-9","Task Instructions",NA,"SUPPRF15657"
"4",1712946322483,"12/04/2024 18:25:22",1712921122483,-7,"12/04/2024 04:25:22",175580,1,"task-kvtv",NA,36976043,10904997,NA,"complete",NA,"661971045da025666c6f5a25","computer","Desktop or Laptop","Windows 10","Chrome 123.0.0.0","1280x720","1280x551",NA,NA,0,"Task Introduction and Instructions (re-introduce video and audio) (Clone) (Clone)",2,"ABKCJDIEHFG","Passed AC2","","Spreadsheet1","Spreadsheet1",1,"Task Instructions","Screen 2","ce2tc8",3,"continue","",27551.5,27534.9,27551.5,27551.5,27534.9,27551.5,1,27551.5,0,0,NA,"Click To Continue","Continue Button",3,"object-59","Task Instructions",NA,"SUPPRF15657"
"5",1712946342863,"12/04/2024 18:25:42",1712921142863,-7,"12/04/2024 04:25:42",175580,1,"task-kvtv",NA,36976043,10904997,NA,"complete",NA,"661971045da025666c6f5a25","computer","Desktop or Laptop","Windows 10","Chrome 123.0.0.0","1280x720","1280x551",NA,NA,0,"Task Introduction and Instructions (re-introduce video and audio) (Clone) (Clone)",2,"ABKCJDIEHFG","Passed AC2","","Spreadsheet1","Spreadsheet1",1,"Task Instructions","Screen 3","1qtc8v",4,"continue","",20401.5000000238,20389,20401.5000000238,20401.5000000238,20389,20401.5000000238,1,20401.5000000238,0,0,NA,"Click To Continue","Continue Button",2,"object-2983","Task Instructions",NA,"SUPPRF15657"
"6",1712946363902,"12/04/2024 18:26:03",1712921163902,-7,"12/04/2024 04:26:03",175580,1,"task-kvtv",NA,36976043,10904997,NA,"complete",NA,"661971045da025666c6f5a25","computer","Desktop or Laptop","Windows 10","Chrome 123.0.0.0","1280x720","1280x551",NA,NA,0,"Task Introduction and Instructions (re-introduce video and audio) (Clone) (Clone)",2,"ABKCJDIEHFG","Passed AC2","","Spreadsheet1","Spreadsheet1",1,"Task Instructions","Screen 12","1a4vu2",5,"continue","",21051.7000000119,21038.3,21051.7000000119,21051.7000000119,21038.3,21051.7000000119,1,21051.7000000119,0,0,NA,"Click To Continue","Continue Button",2,"object-2466","Task Instructions",NA,"SUPPRF15657"
"7",1712946375851,"12/04/2024 18:26:15",1712921175851,-7,"12/04/2024 04:26:15",175580,1,"task-kvtv",NA,36976043,10904997,NA,"complete",NA,"661971045da025666c6f5a25","computer","Desktop or Laptop","Windows 10","Chrome 123.0.0.0","1280x720","1280x551",NA,NA,0,"Task Introduction and Instructions (re-introduce video and audio) (Clone) (Clone)",2,"ABKCJDIEHFG","Passed AC2","","Spreadsheet1","Spreadsheet1",1,"Task Instructions","Screen 13","q9vwda",6,"continue","",11962.1,11960,11962.1,11962.1,11960,11962.1,1,11962.1,0,0,NA,"Click To Continue","Continue Button",2,"object-2989","Task Instructions",NA,"SUPPRF15657"
"8",1712946384381,"12/04/2024 18:26:24",1712921184381,-7,"12/04/2024 04:26:24",175580,1,"task-kvtv",NA,36976043,10904997,NA,"complete",NA,"661971045da025666c6f5a25","computer","Desktop or Laptop","Windows 10","Chrome 123.0.0.0","1280x720","1280x551",NA,NA,0,"Task Introduction and Instructions (re-introduce video and audio) (Clone) (Clone)",2,"ABKCJDIEHFG","Passed AC2","","Spreadsheet1","Spreadsheet1",1,"Task Instructions","Screen 11","oyulb7",7,"continue","",8532.80000001789,8528.60000000001,8532.80000001789,8532.80000001789,8528.60000000001,8532.80000001789,1,8532.80000001789,0,0,NA,"Click To Continue","Continue Button",2,"object-52","Task Instructions",NA,"SUPPRF15657"
"9",1712946434875,"12/04/2024 18:27:14",1712921234875,-7,"12/04/2024 04:27:14",175580,1,"task-kvtv",NA,36976043,10904997,NA,"complete",NA,"661971045da025666c6f5a25","computer","Desktop or Laptop","Windows 10","Chrome 123.0.0.0","1280x720","1280x551",NA,NA,0,"Task Introduction and Instructions (re-introduce video and audio) (Clone) (Clone)",2,"ABKCJDIEHFG","Passed AC2","","Spreadsheet1","Spreadsheet1",1,"Task Instructions","Screen 5","8nvnao",8,"continue","",50494.3000000119,50489.4,50494.3000000119,50494.3000000119,50489.4,50494.3000000119,1,50494.3000000119,0,0,NA,"Click To Continue","Continue Button",2,"object-44","Task Instructions",NA,"SUPPRF15657"
"10",1712946434912,"12/04/2024 18:27:14",1712921234912,-7,"12/04/2024 04:27:14",175580,1,"task-kvtv",NA,36976043,10904997,NA,"complete",NA,"661971045da025666c6f5a25","computer","Desktop or Laptop","Windows 10","Chrome 123.0.0.0","1280x720","1280x551",NA,NA,0,"Task Introduction and Instructions (re-introduce video and audio) (Clone) (Clone)",2,"ABKCJDIEHFG","Passed AC2","","Spreadsheet1","Spreadsheet1",NA,"","","",NA,"5","END",NA,NA,NA,NA,NA,NA,0,NA,NA,NA,NA,"","",NA,"","",NA,"SUPPRF15657"
"11",1712946541750,"12/04/2024 18:29:01",1712921341750,-7,"12/04/2024 04:29:01",175580,1,"task-kvtv",NA,36976043,10904997,NA,"complete",NA,"661971045da025666c6f5a25","computer","Desktop or Laptop","Windows 10","Chrome 123.0.0.0","1280x720","1280x551",NA,NA,0,"Task Introduction and Instructions (re-introduce video and audio) (Clone) (Clone)",2,"ABKCJDIEHFG","Passed AC2","","Spreadsheet1","Spreadsheet1",NA,"","","",NA,"5","BEGIN",NA,NA,NA,NA,NA,NA,0,NA,NA,NA,NA,"","",NA,"","",NA,"SUPPRF15657"
"12",1712946541760,"12/04/2024 18:29:01",1712921341760,-7,"12/04/2024 04:29:01",175580,1,"task-kvtv",NA,36976043,10904997,NA,"complete",NA,"661971045da025666c6f5a25","computer","Desktop or Laptop","Windows 10","Chrome 123.0.0.0","1280x720","1280x551",NA,NA,0,"Task Introduction and Instructions (re-introduce video and audio) (Clone) (Clone)",2,"ABKCJDIEHFG","Passed AC2","","Spreadsheet1","Spreadsheet1",NA,"","","",NA,"5","END",NA,NA,NA,NA,NA,NA,0,NA,NA,NA,NA,"","",NA,"","",NA,"SUPPRF15657"
"1",1712945284603,"12/04/2024 18:08:04",1712948884603,1,"12/04/2024 20:08:04",175580,1,"task-kvtv",NA,36975699,10905124,NA,"complete",NA,"6619757d6fae9709c3cbc430","computer","Desktop or Laptop","Mac OS 10.15.7","Chrome 123.0.0.0","1440x900","1440x734",NA,NA,0,"Task Introduction and Instructions (re-introduce video and audio) (Clone) (Clone)",2,"BCADKEJFIGH","Passed AC2","","Spreadsheet1","Spreadsheet1",NA,"","","",NA,"5","BEGIN",NA,NA,NA,NA,NA,NA,0,NA,NA,NA,NA,"","",NA,"","",NA,"SUPPRF69636"
"2",1712945289526,"12/04/2024 18:08:09",1712948889526,1,"12/04/2024 20:08:09",175580,1,"task-kvtv",NA,36975699,10905124,NA,"complete",NA,"6619757d6fae9709c3cbc430","computer","Desktop or Laptop","Mac OS 10.15.7","Chrome 123.0.0.0","1440x900","1440x734",NA,NA,0,"Task Introduction and Instructions (re-introduce video and audio) (Clone) (Clone)",2,"BCADKEJFIGH","Passed AC2","","Spreadsheet1","Spreadsheet1",1,"Task Instructions","Screen 1","anr7sn",1,"continue","",4660.80000001192,4649.8,4660.80000001192,4660.80000001192,4649.8,4660.80000001192,1,4660.80000001192,0,0,NA,"Click To Continue","Continue Button",3,"object-60","Task Instructions",NA,"SUPPRF69636"
"3",1712945292658,"12/04/2024 18:08:12",1712948892658,1,"12/04/2024 20:08:12",175580,1,"task-kvtv",NA,36975699,10905124,NA,"complete",NA,"6619757d6fae9709c3cbc430","computer","Desktop or Laptop","Mac OS 10.15.7","Chrome 123.0.0.0","1440x900","1440x734",NA,NA,0,"Task Introduction and Instructions (re-introduce video and audio) (Clone) (Clone)",2,"BCADKEJFIGH","Passed AC2","","Spreadsheet1","Spreadsheet1",1,"Task Instructions","Screen 4","spepx9",2,"continue","",3143.2,3133.2,3143.2,3143.2,3133.2,3143.2,1,3143.2,0,0,NA,"Click To Continue","Continue Button",2,"object-9","Task Instructions",NA,"SUPPRF69636"
"4",1712945317491,"12/04/2024 18:08:37",1712948917491,1,"12/04/2024 20:08:37",175580,1,"task-kvtv",NA,36975699,10905124,NA,"complete",NA,"6619757d6fae9709c3cbc430","computer","Desktop or Laptop","Mac OS 10.15.7","Chrome 123.0.0.0","1440x900","1440x734",NA,NA,0,"Task Introduction and Instructions (re-introduce video and audio) (Clone) (Clone)",2,"BCADKEJFIGH","Passed AC2","","Spreadsheet1","Spreadsheet1",1,"Task Instructions","Screen 2","ce2tc8",3,"continue","",24844,24832.3,24844,24844,24832.3,24844,1,24844,0,0,NA,"Click To Continue","Continue Button",3,"object-59","Task Instructions",NA,"SUPPRF69636"
"5",1712945330708,"12/04/2024 18:08:50",1712948930708,1,"12/04/2024 20:08:50",175580,1,"task-kvtv",NA,36975699,10905124,NA,"complete",NA,"6619757d6fae9709c3cbc430","computer","Desktop or Laptop","Mac OS 10.15.7","Chrome 123.0.0.0","1440x900","1440x734",NA,NA,0,"Task Introduction and Instructions (re-introduce video and audio) (Clone) (Clone)",2,"BCADKEJFIGH","Passed AC2","","Spreadsheet1","Spreadsheet1",1,"Task Instructions","Screen 3","1qtc8v",4,"continue","",13230.1000000358,13216.2,13230.1000000358,13230.1000000358,13216.2,13230.1000000358,1,13230.1000000358,0,0,NA,"Click To Continue","Continue Button",2,"object-2983","Task Instructions",NA,"SUPPRF69636"
"6",1712945336991,"12/04/2024 18:08:56",1712948936991,1,"12/04/2024 20:08:56",175580,1,"task-kvtv",NA,36975699,10905124,NA,"complete",NA,"6619757d6fae9709c3cbc430","computer","Desktop or Laptop","Mac OS 10.15.7","Chrome 123.0.0.0","1440x900","1440x734",NA,NA,0,"Task Introduction and Instructions (re-introduce video and audio) (Clone) (Clone)",2,"BCADKEJFIGH","Passed AC2","","Spreadsheet1","Spreadsheet1",1,"Task Instructions","Screen 12","1a4vu2",5,"continue","",6296.90000003576,6283,6296.90000003576,6296.90000003576,6283,6296.90000003576,1,6296.90000003576,0,0,NA,"Click To Continue","Continue Button",2,"object-2466","Task Instructions",NA,"SUPPRF69636"
"7",1712945342124,"12/04/2024 18:09:02",1712948942124,1,"12/04/2024 20:09:02",175580,1,"task-kvtv",NA,36975699,10905124,NA,"complete",NA,"6619757d6fae9709c3cbc430","computer","Desktop or Laptop","Mac OS 10.15.7","Chrome 123.0.0.0","1440x900","1440x734",NA,NA,0,"Task Introduction and Instructions (re-introduce video and audio) (Clone) (Clone)",2,"BCADKEJFIGH","Passed AC2","","Spreadsheet1","Spreadsheet1",1,"Task Instructions","Screen 13","q9vwda",6,"continue","",5147.10000002384,5133.2,5147.10000002384,5147.10000002384,5133.2,5147.10000002384,1,5147.10000002384,0,0,NA,"Click To Continue","Continue Button",2,"object-2989","Task Instructions",NA,"SUPPRF69636"
"8",1712945347890,"12/04/2024 18:09:07",1712948947890,1,"12/04/2024 20:09:07",175580,1,"task-kvtv",NA,36975699,10905124,NA,"complete",NA,"6619757d6fae9709c3cbc430","computer","Desktop or Laptop","Mac OS 10.15.7","Chrome 123.0.0.0","1440x900","1440x734",NA,NA,0,"Task Introduction and Instructions (re-introduce video and audio) (Clone) (Clone)",2,"BCADKEJFIGH","Passed AC2","","Spreadsheet1","Spreadsheet1",1,"Task Instructions","Screen 11","oyulb7",7,"continue","",5780.70000003577,5766.4,5780.70000003577,5780.70000003577,5766.4,5780.70000003577,1,5780.70000003577,0,0,NA,"Click To Continue","Continue Button",2,"object-52","Task Instructions",NA,"SUPPRF69636"
"9",1712945350690,"12/04/2024 18:09:10",1712948950690,1,"12/04/2024 20:09:10",175580,1,"task-kvtv",NA,36975699,10905124,NA,"complete",NA,"6619757d6fae9709c3cbc430","computer","Desktop or Laptop","Mac OS 10.15.7","Chrome 123.0.0.0","1440x900","1440x734",NA,NA,0,"Task Introduction and Instructions (re-introduce video and audio) (Clone) (Clone)",2,"BCADKEJFIGH","Passed AC2","","Spreadsheet1","Spreadsheet1",1,"Task Instructions","Screen 5","8nvnao",8,"continue","",2813.60000004769,2799.9,2813.60000004769,2813.60000004769,2799.9,2813.60000004769,1,2813.60000004769,0,0,NA,"Click To Continue","Continue Button",2,"object-44","Task Instructions",NA,"SUPPRF69636"
"10",1712945350692,"12/04/2024 18:09:10",1712948950692,1,"12/04/2024 20:09:10",175580,1,"task-kvtv",NA,36975699,10905124,NA,"complete",NA,"6619757d6fae9709c3cbc430","computer","Desktop or Laptop","Mac OS 10.15.7","Chrome 123.0.0.0","1440x900","1440x734",NA,NA,0,"Task Introduction and Instructions (re-introduce video and audio) (Clone) (Clone)",2,"BCADKEJFIGH","Passed AC2","","Spreadsheet1","Spreadsheet1",NA,"","","",NA,"5","END",NA,NA,NA,NA,NA,NA,0,NA,NA,NA,NA,"","",NA,"","",NA,"SUPPRF69636"
"1",1712946059321,"12/04/2024 18:20:59",1712949659321,1,"12/04/2024 20:20:59",175580,1,"task-kvtv",NA,36975971,10905155,NA,"complete",NA,"6619768c4c1f510a41c28420","computer","Desktop or Laptop","Mac OS 10.15.7","Chrome 123.0.0.0","1440x900","1440x779",NA,NA,0,"Task Introduction and Instructions (re-introduce video and audio) (Clone) (Clone)",2,"CDBEAFKGJHI","Passed AC2","","Spreadsheet1","Spreadsheet1",NA,"","","",NA,"5","BEGIN",NA,NA,NA,NA,NA,NA,0,NA,NA,NA,NA,"","",NA,"","",NA,"SUPPRF05105"
"2",1712946065243,"12/04/2024 18:21:05",1712949665243,1,"12/04/2024 20:21:05",175580,1,"task-kvtv",NA,36975971,10905155,NA,"complete",NA,"6619768c4c1f510a41c28420","computer","Desktop or Laptop","Mac OS 10.15.7","Chrome 123.0.0.0","1440x900","1440x779",NA,NA,0,"Task Introduction and Instructions (re-introduce video and audio) (Clone) (Clone)",2,"CDBEAFKGJHI","Passed AC2","","Spreadsheet1","Spreadsheet1",1,"Task Instructions","Screen 1","anr7sn",1,"continue","",5816.3,5799.7,5816.3,5816.3,5799.7,5816.3,1,5816.3,0,0,NA,"Click To Continue","Continue Button",3,"object-60","Task Instructions",NA,"SUPPRF05105"
"3",1712946068476,"12/04/2024 18:21:08",1712949668476,1,"12/04/2024 20:21:08",175580,1,"task-kvtv",NA,36975971,10905155,NA,"complete",NA,"6619768c4c1f510a41c28420","computer","Desktop or Laptop","Mac OS 10.15.7","Chrome 123.0.0.0","1440x900","1440x779",NA,NA,0,"Task Introduction and Instructions (re-introduce video and audio) (Clone) (Clone)",2,"CDBEAFKGJHI","Passed AC2","","Spreadsheet1","Spreadsheet1",1,"Task Instructions","Screen 4","spepx9",2,"continue","",3259.20000000298,3249.9,3259.20000000298,3259.20000000298,3249.9,3259.20000000298,1,3259.20000000298,0,0,NA,"Click To Continue","Continue Button",2,"object-9","Task Instructions",NA,"SUPPRF05105"
"4",1712946094831,"12/04/2024 18:21:34",1712949694831,1,"12/04/2024 20:21:34",175580,1,"task-kvtv",NA,36975971,10905155,NA,"complete",NA,"6619768c4c1f510a41c28420","computer","Desktop or Laptop","Mac OS 10.15.7","Chrome 123.0.0.0","1440x900","1440x779",NA,NA,0,"Task Introduction and Instructions (re-introduce video and audio) (Clone) (Clone)",2,"CDBEAFKGJHI","Passed AC2","","Spreadsheet1","Spreadsheet1",1,"Task Instructions","Screen 2","ce2tc8",3,"continue","",26364.899999997,26349,26364.899999997,26364.899999997,26349,26364.899999997,1,26364.899999997,0,0,NA,"Click To Continue","Continue Button",3,"object-59","Task Instructions",NA,"SUPPRF05105"
"5",1712946121603,"12/04/2024 18:22:01",1712949721603,1,"12/04/2024 20:22:01",175580,1,"task-kvtv",NA,36975971,10905155,NA,"complete",NA,"6619768c4c1f510a41c28420","computer","Desktop or Laptop","Mac OS 10.15.7","Chrome 123.0.0.0","1440x900","1440x779",NA,NA,0,"Task Introduction and Instructions (re-introduce video and audio) (Clone) (Clone)",2,"CDBEAFKGJHI","Passed AC2","","Spreadsheet1","Spreadsheet1",1,"Task Instructions","Screen 3","1qtc8v",4,"continue","",26788.800000003,26782.3,26788.800000003,26788.800000003,26782.3,26788.800000003,1,26788.800000003,0,0,NA,"Click To Continue","Continue Button",2,"object-2983","Task Instructions",NA,"SUPPRF05105"
"6",1712946180204,"12/04/2024 18:23:00",1712949780204,1,"12/04/2024 20:23:00",175580,1,"task-kvtv",NA,36975971,10905155,NA,"complete",NA,"6619768c4c1f510a41c28420","computer","Desktop or Laptop","Mac OS 10.15.7","Chrome 123.0.0.0","1440x900","1440x779",NA,NA,0,"Task Introduction and Instructions (re-introduce video and audio) (Clone) (Clone)",2,"CDBEAFKGJHI","Passed AC2","","Spreadsheet1","Spreadsheet1",1,"Task Instructions","Screen 12","1a4vu2",5,"continue","",58608.1999999985,58597.7,58608.1999999985,58608.1999999985,58597.7,58608.1999999985,1,58608.1999999985,0,0,NA,"Click To Continue","Continue Button",2,"object-2466","Task Instructions",NA,"SUPPRF05105"
"7",1712946187326,"12/04/2024 18:23:07",1712949787326,1,"12/04/2024 20:23:07",175580,1,"task-kvtv",NA,36975971,10905155,NA,"complete",NA,"6619768c4c1f510a41c28420","computer","Desktop or Laptop","Mac OS 10.15.7","Chrome 123.0.0.0","1440x900","1440x779",NA,NA,0,"Task Introduction and Instructions (re-introduce video and audio) (Clone) (Clone)",2,"CDBEAFKGJHI","Passed AC2","","Spreadsheet1","Spreadsheet1",1,"Task Instructions","Screen 13","q9vwda",6,"continue","",7132.7000000015,7116.3,7132.7000000015,7132.7000000015,7116.3,7132.7000000015,1,7132.7000000015,0,0,NA,"Click To Continue","Continue Button",2,"object-2989","Task Instructions",NA,"SUPPRF05105"
"8",1712946407592,"12/04/2024 18:26:47",1712950007592,1,"12/04/2024 20:26:47",175580,1,"task-kvtv",NA,36975971,10905155,NA,"complete",NA,"6619768c4c1f510a41c28420","computer","Desktop or Laptop","Mac OS 10.15.7","Chrome 123.0.0.0","1440x900","1440x779",NA,NA,0,"Task Introduction and Instructions (re-introduce video and audio) (Clone) (Clone)",2,"CDBEAFKGJHI","Passed AC2","","Spreadsheet1","Spreadsheet1",1,"Task Instructions","Screen 11","oyulb7",7,"continue","",220289.400000001,220274.5,220289.400000001,220289.400000001,220274.5,220289.400000001,1,220289.400000001,0,0,NA,"Click To Continue","Continue Button",2,"object-52","Task Instructions",NA,"SUPPRF05105"
"9",1712946421297,"12/04/2024 18:27:01",1712950021297,1,"12/04/2024 20:27:01",175580,1,"task-kvtv",NA,36975971,10905155,NA,"complete",NA,"6619768c4c1f510a41c28420","computer","Desktop or Laptop","Mac OS 10.15.7","Chrome 123.0.0.0","1440x900","1440x779",NA,NA,0,"Task Introduction and Instructions (re-introduce video and audio) (Clone) (Clone)",2,"CDBEAFKGJHI","Passed AC2","","Spreadsheet1","Spreadsheet1",1,"Task Instructions","Screen 5","8nvnao",8,"continue","",13720.099999997,13716.1,13720.099999997,13720.099999997,13716.1,13720.099999997,1,13720.099999997,0,0,NA,"Click To Continue","Continue Button",2,"object-44","Task Instructions",NA,"SUPPRF05105"
"10",1712946421305,"12/04/2024 18:27:01",1712950021305,1,"12/04/2024 20:27:01",175580,1,"task-kvtv",NA,36975971,10905155,NA,"complete",NA,"6619768c4c1f510a41c28420","computer","Desktop or Laptop","Mac OS 10.15.7","Chrome 123.0.0.0","1440x900","1440x779",NA,NA,0,"Task Introduction and Instructions (re-introduce video and audio) (Clone) (Clone)",2,"CDBEAFKGJHI","Passed AC2","","Spreadsheet1","Spreadsheet1",NA,"","","",NA,"5","END",NA,NA,NA,NA,NA,NA,0,NA,NA,NA,NA,"","",NA,"","",NA,"SUPPRF05105"
"1",1712946708039,"12/04/2024 18:31:48",1712950308039,1,"12/04/2024 20:31:48",175580,1,"task-kvtv",NA,36976201,10905244,NA,"complete",NA,"661978915a0654b8bd0fe5e2","computer","Desktop or Laptop","Windows 10","Chrome 123.0.0.0","1280x720","1280x585",NA,NA,0,"Task Introduction and Instructions (re-introduce video and audio) (Clone) (Clone)",2,"EFDGCHBIAJK","Passed AC2","","Spreadsheet1","Spreadsheet1",NA,"","","",NA,"5","BEGIN",NA,NA,NA,NA,NA,NA,0,NA,NA,NA,NA,"","",NA,"","",NA,"SUPPRF18017"
"2",1712947735592,"12/04/2024 18:48:55",1712951335592,1,"12/04/2024 20:48:55",175580,1,"task-kvtv",NA,36976201,10905244,NA,"complete",NA,"661978915a0654b8bd0fe5e2","computer","Desktop or Laptop","Windows 10","Chrome 123.0.0.0","1280x720","1280x585",NA,NA,0,"Task Introduction and Instructions (re-introduce video and audio) (Clone) (Clone)",2,"EFDGCHBIAJK","Passed AC2","","Spreadsheet1","Spreadsheet1",1,"Task Instructions","Screen 1","anr7sn",1,"continue","",1027548.6,1027531.9,1027548.6,1027548.6,1027531.9,1027548.6,1,1027548.6,0,0,NA,"Click To Continue","Continue Button",3,"object-60","Task Instructions",NA,"SUPPRF18017"
"3",1712947739295,"12/04/2024 18:48:59",1712951339295,1,"12/04/2024 20:48:59",175580,1,"task-kvtv",NA,36976201,10905244,NA,"complete",NA,"661978915a0654b8bd0fe5e2","computer","Desktop or Laptop","Windows 10","Chrome 123.0.0.0","1280x720","1280x585",NA,NA,0,"Task Introduction and Instructions (re-introduce video and audio) (Clone) (Clone)",2,"EFDGCHBIAJK","Passed AC2","","Spreadsheet1","Spreadsheet1",1,"Task Instructions","Screen 4","spepx9",2,"continue","",3725.90000000002,3716.90000000002,3725.90000000002,3725.90000000002,3716.90000000002,3725.90000000002,1,3725.90000000002,0,0,NA,"Click To Continue","Continue Button",2,"object-9","Task Instructions",NA,"SUPPRF18017"
"4",1712947761556,"12/04/2024 18:49:21",1712951361556,1,"12/04/2024 20:49:21",175580,1,"task-kvtv",NA,36976201,10905244,NA,"complete",NA,"661978915a0654b8bd0fe5e2","computer","Desktop or Laptop","Windows 10","Chrome 123.0.0.0","1280x720","1280x585",NA,NA,0,"Task Introduction and Instructions (re-introduce video and audio) (Clone) (Clone)",2,"EFDGCHBIAJK","Passed AC2","","Spreadsheet1","Spreadsheet1",1,"Task Instructions","Screen 2","ce2tc8",3,"continue","",22270.5,22266.8999999999,22270.5,22270.5,22266.8999999999,22270.5,1,22270.5,0,0,NA,"Click To Continue","Continue Button",3,"object-59","Task Instructions",NA,"SUPPRF18017"
"5",1712947772716,"12/04/2024 18:49:32",1712951372716,1,"12/04/2024 20:49:32",175580,1,"task-kvtv",NA,36976201,10905244,NA,"complete",NA,"661978915a0654b8bd0fe5e2","computer","Desktop or Laptop","Windows 10","Chrome 123.0.0.0","1280x720","1280x585",NA,NA,0,"Task Introduction and Instructions (re-introduce video and audio) (Clone) (Clone)",2,"EFDGCHBIAJK","Passed AC2","","Spreadsheet1","Spreadsheet1",1,"Task Instructions","Screen 3","1qtc8v",4,"continue","",11163.9999999763,11150.2000000002,11163.9999999763,11163.9999999763,11150.2000000002,11163.9999999763,1,11163.9999999763,0,0,NA,"Click To Continue","Continue Button",2,"object-2983","Task Instructions",NA,"SUPPRF18017"
"6",1712947784119,"12/04/2024 18:49:44",1712951384119,1,"12/04/2024 20:49:44",175580,1,"task-kvtv",NA,36976201,10905244,NA,"complete",NA,"661978915a0654b8bd0fe5e2","computer","Desktop or Laptop","Windows 10","Chrome 123.0.0.0","1280x720","1280x585",NA,NA,0,"Task Introduction and Instructions (re-introduce video and audio) (Clone) (Clone)",2,"EFDGCHBIAJK","Passed AC2","","Spreadsheet1","Spreadsheet1",1,"Task Instructions","Screen 12","1a4vu2",5,"continue","",11416.699999982,11400.2,11416.699999982,11416.699999982,11400.2,11416.699999982,1,11416.699999982,0,0,NA,"Click To Continue","Continue Button",2,"object-2466","Task Instructions",NA,"SUPPRF18017"
"7",1712947790239,"12/04/2024 18:49:50",1712951390239,1,"12/04/2024 20:49:50",175580,1,"task-kvtv",NA,36976201,10905244,NA,"complete",NA,"661978915a0654b8bd0fe5e2","computer","Desktop or Laptop","Windows 10","Chrome 123.0.0.0","1280x720","1280x585",NA,NA,0,"Task Introduction and Instructions (re-introduce video and audio) (Clone) (Clone)",2,"EFDGCHBIAJK","Passed AC2","","Spreadsheet1","Spreadsheet1",1,"Task Instructions","Screen 13","q9vwda",6,"continue","",6137.09999997611,6133.39999999991,6137.09999997611,6137.09999997611,6133.39999999991,6137.09999997611,1,6137.09999997611,0,0,NA,"Click To Continue","Continue Button",2,"object-2989","Task Instructions",NA,"SUPPRF18017"
"8",1712947796432,"12/04/2024 18:49:56",1712951396432,1,"12/04/2024 20:49:56",175580,1,"task-kvtv",NA,36976201,10905244,NA,"complete",NA,"661978915a0654b8bd0fe5e2","computer","Desktop or Laptop","Windows 10","Chrome 123.0.0.0","1280x720","1280x585",NA,NA,0,"Task Introduction and Instructions (re-introduce video and audio) (Clone) (Clone)",2,"EFDGCHBIAJK","Passed AC2","","Spreadsheet1","Spreadsheet1",1,"Task Instructions","Screen 11","oyulb7",7,"continue","",6195.49999998813,6183.40000000014,6195.49999998813,6195.49999998813,6183.40000000014,6195.49999998813,1,6195.49999998813,0,0,NA,"Click To Continue","Continue Button",2,"object-52","Task Instructions",NA,"SUPPRF18017"
"9",1712947799496,"12/04/2024 18:49:59",1712951399496,1,"12/04/2024 20:49:59",175580,1,"task-kvtv",NA,36976201,10905244,NA,"complete",NA,"661978915a0654b8bd0fe5e2","computer","Desktop or Laptop","Windows 10","Chrome 123.0.0.0","1280x720","1280x585",NA,NA,0,"Task Introduction and Instructions (re-introduce video and audio) (Clone) (Clone)",2,"EFDGCHBIAJK","Passed AC2","","Spreadsheet1","Spreadsheet1",1,"Task Instructions","Screen 5","8nvnao",8,"continue","",3076.19999998203,3066.69999999995,3076.19999998203,3076.19999998203,3066.69999999995,3076.19999998203,1,3076.19999998203,0,0,NA,"Click To Continue","Continue Button",2,"object-44","Task Instructions",NA,"SUPPRF18017"
"10",1712947799503,"12/04/2024 18:49:59",1712951399503,1,"12/04/2024 20:49:59",175580,1,"task-kvtv",NA,36976201,10905244,NA,"complete",NA,"661978915a0654b8bd0fe5e2","computer","Desktop or Laptop","Windows 10","Chrome 123.0.0.0","1280x720","1280x585",NA,NA,0,"Task Introduction and Instructions (re-introduce video and audio) (Clone) (Clone)",2,"EFDGCHBIAJK","Passed AC2","","Spreadsheet1","Spreadsheet1",NA,"","","",NA,"5","END",NA,NA,NA,NA,NA,NA,0,NA,NA,NA,NA,"","",NA,"","",NA,"SUPPRF18017"
"1",1712947254143,"12/04/2024 18:40:54",1712950854143,1,"12/04/2024 20:40:54",175580,1,"task-kvtv",NA,36976423,10905300,NA,"complete",NA,"66197a97d988197f5b742bee","computer","Desktop or Laptop","Mac OS 10.15.7","Chrome 123.0.0.0","1440x900","1440x813",NA,NA,0,"Task Introduction and Instructions (re-introduce video and audio) (Clone) (Clone)",2,"FGEHDICJBKA","Passed AC2","","Spreadsheet1","Spreadsheet1",NA,"","","",NA,"5","BEGIN",NA,NA,NA,NA,NA,NA,0,NA,NA,NA,NA,"","",NA,"","",NA,"SUPPRF05744"
"2",1712947258010,"12/04/2024 18:40:58",1712950858010,1,"12/04/2024 20:40:58",175580,1,"task-kvtv",NA,36976423,10905300,NA,"complete",NA,"66197a97d988197f5b742bee","computer","Desktop or Laptop","Mac OS 10.15.7","Chrome 123.0.0.0","1440x900","1440x813",NA,NA,0,"Task Introduction and Instructions (re-introduce video and audio) (Clone) (Clone)",2,"FGEHDICJBKA","Passed AC2","","Spreadsheet1","Spreadsheet1",1,"Task Instructions","Screen 1","anr7sn",1,"continue","",3749.9,3733.2,3749.9,3749.9,3733.2,3749.9,1,3749.9,0,0,NA,"Click To Continue","Continue Button",3,"object-60","Task Instructions",NA,"SUPPRF05744"
"3",1712947263149,"12/04/2024 18:41:03",1712950863149,1,"12/04/2024 20:41:03",175580,1,"task-kvtv",NA,36976423,10905300,NA,"complete",NA,"66197a97d988197f5b742bee","computer","Desktop or Laptop","Mac OS 10.15.7","Chrome 123.0.0.0","1440x900","1440x813",NA,NA,0,"Task Introduction and Instructions (re-introduce video and audio) (Clone) (Clone)",2,"FGEHDICJBKA","Passed AC2","","Spreadsheet1","Spreadsheet1",1,"Task Instructions","Screen 4","spepx9",2,"continue","",5157.79999999851,5150,5157.79999999851,5157.79999999851,5150,5157.79999999851,1,5157.79999999851,0,0,NA,"Click To Continue","Continue Button",2,"object-9","Task Instructions",NA,"SUPPRF05744"
"4",1712947275820,"12/04/2024 18:41:15",1712950875820,1,"12/04/2024 20:41:15",175580,1,"task-kvtv",NA,36976423,10905300,NA,"complete",NA,"66197a97d988197f5b742bee","computer","Desktop or Laptop","Mac OS 10.15.7","Chrome 123.0.0.0","1440x900","1440x813",NA,NA,0,"Task Introduction and Instructions (re-introduce video and audio) (Clone) (Clone)",2,"FGEHDICJBKA","Passed AC2","","Spreadsheet1","Spreadsheet1",1,"Task Instructions","Screen 2","ce2tc8",3,"continue","",12678.7000000045,12666.2,12678.7000000045,12678.7000000045,12666.2,12678.7000000045,1,12678.7000000045,0,0,NA,"Click To Continue","Continue Button",3,"object-59","Task Instructions",NA,"SUPPRF05744"
"5",1712947286713,"12/04/2024 18:41:26",1712950886713,1,"12/04/2024 20:41:26",175580,1,"task-kvtv",NA,36976423,10905300,NA,"complete",NA,"66197a97d988197f5b742bee","computer","Desktop or Laptop","Mac OS 10.15.7","Chrome 123.0.0.0","1440x900","1440x813",NA,NA,0,"Task Introduction and Instructions (re-introduce video and audio) (Clone) (Clone)",2,"FGEHDICJBKA","Passed AC2","","Spreadsheet1","Spreadsheet1",1,"Task Instructions","Screen 3","1qtc8v",4,"continue","",10906.0999999985,10901.2,10906.0999999985,10906.0999999985,10901.2,10906.0999999985,1,10906.0999999985,0,0,NA,"Click To Continue","Continue Button",2,"object-2983","Task Instructions",NA,"SUPPRF05744"
"6",1712947296700,"12/04/2024 18:41:36",1712950896700,1,"12/04/2024 20:41:36",175580,1,"task-kvtv",NA,36976423,10905300,NA,"complete",NA,"66197a97d988197f5b742bee","computer","Desktop or Laptop","Mac OS 10.15.7","Chrome 123.0.0.0","1440x900","1440x813",NA,NA,0,"Task Introduction and Instructions (re-introduce video and audio) (Clone) (Clone)",2,"FGEHDICJBKA","Passed AC2","","Spreadsheet1","Spreadsheet1",1,"Task Instructions","Screen 12","1a4vu2",5,"continue","",9991.70000000298,9983.6,9991.70000000298,9991.70000000298,9983.6,9991.70000000298,1,9991.70000000298,0,0,NA,"Click To Continue","Continue Button",2,"object-2466","Task Instructions",NA,"SUPPRF05744"
"7",1712947304956,"12/04/2024 18:41:44",1712950904956,1,"12/04/2024 20:41:44",175580,1,"task-kvtv",NA,36976423,10905300,NA,"complete",NA,"66197a97d988197f5b742bee","computer","Desktop or Laptop","Mac OS 10.15.7","Chrome 123.0.0.0","1440x900","1440x813",NA,NA,0,"Task Introduction and Instructions (re-introduce video and audio) (Clone) (Clone)",2,"FGEHDICJBKA","Passed AC2","","Spreadsheet1","Spreadsheet1",1,"Task Instructions","Screen 13","q9vwda",6,"continue","",8263.9,8250.2,8263.9,8263.9,8250.2,8263.9,1,8263.9,0,0,NA,"Click To Continue","Continue Button",2,"object-2989","Task Instructions",NA,"SUPPRF05744"
"8",1712947311425,"12/04/2024 18:41:51",1712950911425,1,"12/04/2024 20:41:51",175580,1,"task-kvtv",NA,36976423,10905300,NA,"complete",NA,"66197a97d988197f5b742bee","computer","Desktop or Laptop","Mac OS 10.15.7","Chrome 123.0.0.0","1440x900","1440x813",NA,NA,0,"Task Introduction and Instructions (re-introduce video and audio) (Clone) (Clone)",2,"FGEHDICJBKA","Passed AC2","","Spreadsheet1","Spreadsheet1",1,"Task Instructions","Screen 11","oyulb7",7,"continue","",6483.2,6466.8,6483.2,6483.2,6466.8,6483.2,1,6483.2,0,0,NA,"Click To Continue","Continue Button",2,"object-52","Task Instructions",NA,"SUPPRF05744"
"9",1712947314636,"12/04/2024 18:41:54",1712950914636,1,"12/04/2024 20:41:54",175580,1,"task-kvtv",NA,36976423,10905300,NA,"complete",NA,"66197a97d988197f5b742bee","computer","Desktop or Laptop","Mac OS 10.15.7","Chrome 123.0.0.0","1440x900","1440x813",NA,NA,0,"Task Introduction and Instructions (re-introduce video and audio) (Clone) (Clone)",2,"FGEHDICJBKA","Passed AC2","","Spreadsheet1","Spreadsheet1",1,"Task Instructions","Screen 5","8nvnao",8,"continue","",3227.29999999851,3216.7,3227.29999999851,3227.29999999851,3216.7,3227.29999999851,1,3227.29999999851,0,0,NA,"Click To Continue","Continue Button",2,"object-44","Task Instructions",NA,"SUPPRF05744"
"10",1712947314640,"12/04/2024 18:41:54",1712950914640,1,"12/04/2024 20:41:54",175580,1,"task-kvtv",NA,36976423,10905300,NA,"complete",NA,"66197a97d988197f5b742bee","computer","Desktop or Laptop","Mac OS 10.15.7","Chrome 123.0.0.0","1440x900","1440x813",NA,NA,0,"Task Introduction and Instructions (re-introduce video and audio) (Clone) (Clone)",2,"FGEHDICJBKA","Passed AC2","","Spreadsheet1","Spreadsheet1",NA,"","","",NA,"5","END",NA,NA,NA,NA,NA,NA,0,NA,NA,NA,NA,"","",NA,"","",NA,"SUPPRF05744"
"1",1712948292206,"12/04/2024 18:58:12",1712951892206,1,"12/04/2024 20:58:12",175580,1,"task-kvtv",NA,36976770,10905171,NA,"complete",NA,"6619773ca218136096b1bc7d","computer","Desktop or Laptop","Windows 10","Chrome 123.0.0.0","1366x768","1366x633",NA,NA,0,"Task Introduction and Instructions (re-introduce video and audio) (Clone) (Clone)",2,"DECFBGAHKIJ","Passed AC2","","Spreadsheet1","Spreadsheet1",NA,"","","",NA,"5","BEGIN",NA,NA,NA,NA,NA,NA,0,NA,NA,NA,NA,"","",NA,"","",NA,"SUPPRF91970"
"2",1712948297267,"12/04/2024 18:58:17",1712951897267,1,"12/04/2024 20:58:17",175580,1,"task-kvtv",NA,36976770,10905171,NA,"complete",NA,"6619773ca218136096b1bc7d","computer","Desktop or Laptop","Windows 10","Chrome 123.0.0.0","1366x768","1366x633",NA,NA,0,"Task Introduction and Instructions (re-introduce video and audio) (Clone) (Clone)",2,"DECFBGAHKIJ","Passed AC2","","Spreadsheet1","Spreadsheet1",1,"Task Instructions","Screen 1","anr7sn",1,"continue","",26585.5,26570.6,26585.5,26585.5,26570.6,26585.5,1,26585.5,0,0,NA,"Click To Continue","Continue Button",3,"object-60","Task Instructions",NA,"SUPPRF91970"
"3",1712948300288,"12/04/2024 18:58:20",1712951900288,1,"12/04/2024 20:58:20",175580,1,"task-kvtv",NA,36976770,10905171,NA,"complete",NA,"6619773ca218136096b1bc7d","computer","Desktop or Laptop","Windows 10","Chrome 123.0.0.0","1366x768","1366x633",NA,NA,0,"Task Introduction and Instructions (re-introduce video and audio) (Clone) (Clone)",2,"DECFBGAHKIJ","Passed AC2","","Spreadsheet1","Spreadsheet1",1,"Task Instructions","Screen 4","spepx9",2,"continue","",3033.4,3016.4,3033.4,3033.4,3016.4,3033.4,1,3033.4,0,0,NA,"Click To Continue","Continue Button",2,"object-9","Task Instructions",NA,"SUPPRF91970"
"4",1712948334937,"12/04/2024 18:58:54",1712951934937,1,"12/04/2024 20:58:54",175580,1,"task-kvtv",NA,36976770,10905171,NA,"complete",NA,"6619773ca218136096b1bc7d","computer","Desktop or Laptop","Windows 10","Chrome 123.0.0.0","1366x768","1366x633",NA,NA,0,"Task Introduction and Instructions (re-introduce video and audio) (Clone) (Clone)",2,"DECFBGAHKIJ","Passed AC2","","Spreadsheet1","Spreadsheet1",1,"Task Instructions","Screen 2","ce2tc8",3,"continue","",34664.3,34647.5,34664.3,34664.3,34647.5,34664.3,1,34664.3,0,0,NA,"Click To Continue","Continue Button",3,"object-59","Task Instructions",NA,"SUPPRF91970"
"5",1712948342142,"12/04/2024 18:59:02",1712951942142,1,"12/04/2024 20:59:02",175580,1,"task-kvtv",NA,36976770,10905171,NA,"complete",NA,"6619773ca218136096b1bc7d","computer","Desktop or Laptop","Windows 10","Chrome 123.0.0.0","1366x768","1366x633",NA,NA,0,"Task Introduction and Instructions (re-introduce video and audio) (Clone) (Clone)",2,"DECFBGAHKIJ","Passed AC2","","Spreadsheet1","Spreadsheet1",1,"Task Instructions","Screen 3","1qtc8v",4,"continue","",7227.60000000894,7216.8,7227.60000000894,7227.60000000894,7216.8,7227.60000000894,1,7227.60000000894,0,0,NA,"Click To Continue","Continue Button",2,"object-2983","Task Instructions",NA,"SUPPRF91970"
"6",1712948355674,"12/04/2024 18:59:15",1712951955674,1,"12/04/2024 20:59:15",175580,1,"task-kvtv",NA,36976770,10905171,NA,"complete",NA,"6619773ca218136096b1bc7d","computer","Desktop or Laptop","Windows 10","Chrome 123.0.0.0","1366x768","1366x633",NA,NA,0,"Task Introduction and Instructions (re-introduce video and audio) (Clone) (Clone)",2,"DECFBGAHKIJ","Passed AC2","","Spreadsheet1","Spreadsheet1",1,"Task Instructions","Screen 12","1a4vu2",5,"continue","",13531.5,13515.4,13531.5,13531.5,13515.4,13531.5,1,13531.5,0,0,NA,"Click To Continue","Continue Button",2,"object-2466","Task Instructions",NA,"SUPPRF91970"
"7",1712948361043,"12/04/2024 18:59:21",1712951961043,1,"12/04/2024 20:59:21",175580,1,"task-kvtv",NA,36976770,10905171,NA,"complete",NA,"6619773ca218136096b1bc7d","computer","Desktop or Laptop","Windows 10","Chrome 123.0.0.0","1366x768","1366x633",NA,NA,0,"Task Introduction and Instructions (re-introduce video and audio) (Clone) (Clone)",2,"DECFBGAHKIJ","Passed AC2","","Spreadsheet1","Spreadsheet1",1,"Task Instructions","Screen 13","q9vwda",6,"continue","",5396.3,5383.2,5396.3,5396.3,5383.2,5396.3,1,5396.3,0,0,NA,"Click To Continue","Continue Button",2,"object-2989","Task Instructions",NA,"SUPPRF91970"
"8",1712948363717,"12/04/2024 18:59:23",1712951963717,1,"12/04/2024 20:59:23",175580,1,"task-kvtv",NA,36976770,10905171,NA,"complete",NA,"6619773ca218136096b1bc7d","computer","Desktop or Laptop","Windows 10","Chrome 123.0.0.0","1366x768","1366x633",NA,NA,0,"Task Introduction and Instructions (re-introduce video and audio) (Clone) (Clone)",2,"DECFBGAHKIJ","Passed AC2","","Spreadsheet1","Spreadsheet1",1,"Task Instructions","Screen 11","oyulb7",7,"continue","",2683.60000000001,2667.10000000001,2683.60000000001,2683.60000000001,2667.10000000001,2683.60000000001,1,2683.60000000001,0,0,NA,"Click To Continue","Continue Button",2,"object-52","Task Instructions",NA,"SUPPRF91970"
"9",1712948366355,"12/04/2024 18:59:26",1712951966355,1,"12/04/2024 20:59:26",175580,1,"task-kvtv",NA,36976770,10905171,NA,"complete",NA,"6619773ca218136096b1bc7d","computer","Desktop or Laptop","Windows 10","Chrome 123.0.0.0","1366x768","1366x633",NA,NA,0,"Task Introduction and Instructions (re-introduce video and audio) (Clone) (Clone)",2,"DECFBGAHKIJ","Passed AC2","","Spreadsheet1","Spreadsheet1",1,"Task Instructions","Screen 5","8nvnao",8,"continue","",2658,2649.60000000001,2658,2658,2649.60000000001,2658,1,2658,0,0,NA,"Click To Continue","Continue Button",2,"object-44","Task Instructions",NA,"SUPPRF91970"
"10",1712948366384,"12/04/2024 18:59:26",1712951966384,1,"12/04/2024 20:59:26",175580,1,"task-kvtv",NA,36976770,10905171,NA,"complete",NA,"6619773ca218136096b1bc7d","computer","Desktop or Laptop","Windows 10","Chrome 123.0.0.0","1366x768","1366x633",NA,NA,0,"Task Introduction and Instructions (re-introduce video and audio) (Clone) (Clone)",2,"DECFBGAHKIJ","Passed AC2","","Spreadsheet1","Spreadsheet1",NA,"","","",NA,"5","END",NA,NA,NA,NA,NA,NA,0,NA,NA,NA,NA,"","",NA,"","",NA,"SUPPRF91970"
"1",1712947720690,"12/04/2024 18:48:40",1712951320690,1,"12/04/2024 20:48:40",175580,1,"task-kvtv",NA,36976616,10905364,NA,"complete",NA,"66197ed5dd93afd98b57ec62","computer","Desktop or Laptop","Mac OS 10.15.7","Chrome 118.0.0.0","1440x900","858x730",NA,NA,0,"Task Introduction and Instructions (re-introduce video and audio) (Clone) (Clone)",2,"GHFIEJDKCAB","Passed AC2","","Spreadsheet1","Spreadsheet1",NA,"","","",NA,"5","BEGIN",NA,NA,NA,NA,NA,NA,0,NA,NA,NA,NA,"","",NA,"","",NA,"SUPPRF49465"
"2",1712947726292,"12/04/2024 18:48:46",1712951326292,1,"12/04/2024 20:48:46",175580,1,"task-kvtv",NA,36976616,10905364,NA,"complete",NA,"66197ed5dd93afd98b57ec62","computer","Desktop or Laptop","Mac OS 10.15.7","Chrome 118.0.0.0","1440x900","858x730",NA,NA,0,"Task Introduction and Instructions (re-introduce video and audio) (Clone) (Clone)",2,"GHFIEJDKCAB","Passed AC2","","Spreadsheet1","Spreadsheet1",1,"Task Instructions","Screen 1","anr7sn",1,"continue","",5377.24200038147,5366.452,5377.24200038147,5377.24200038147,5366.452,5377.24200038147,1,5377.24200038147,0,0,NA,"Click To Continue","Continue Button",3,"object-60","Task Instructions",NA,"SUPPRF49465"
"3",1712947729135,"12/04/2024 18:48:49",1712951329135,1,"12/04/2024 20:48:49",175580,1,"task-kvtv",NA,36976616,10905364,NA,"complete",NA,"66197ed5dd93afd98b57ec62","computer","Desktop or Laptop","Mac OS 10.15.7","Chrome 118.0.0.0","1440x900","858x730",NA,NA,0,"Task Introduction and Instructions (re-introduce video and audio) (Clone) (Clone)",2,"GHFIEJDKCAB","Passed AC2","","Spreadsheet1","Spreadsheet1",1,"Task Instructions","Screen 4","spepx9",2,"continue","",2850.582,2833.916,2850.582,2850.582,2833.916,2850.582,1,2850.582,0,0,NA,"Click To Continue","Continue Button",2,"object-9","Task Instructions",NA,"SUPPRF49465"
"4",1712947732563,"12/04/2024 18:48:52",1712951332563,1,"12/04/2024 20:48:52",175580,1,"task-kvtv",NA,36976616,10905364,NA,"complete",NA,"66197ed5dd93afd98b57ec62","computer","Desktop or Laptop","Mac OS 10.15.7","Chrome 118.0.0.0","1440x900","858x730",NA,NA,0,"Task Introduction and Instructions (re-introduce video and audio) (Clone) (Clone)",2,"GHFIEJDKCAB","Passed AC2","","Spreadsheet1","Spreadsheet1",1,"Task Instructions","Screen 2","ce2tc8",3,"continue","",3447.774,3433.196,3447.774,3447.774,3433.196,3447.774,1,3447.774,0,0,NA,"Click To Continue","Continue Button",3,"object-59","Task Instructions",NA,"SUPPRF49465"
"5",1712947756959,"12/04/2024 18:49:16",1712951356959,1,"12/04/2024 20:49:16",175580,1,"task-kvtv",NA,36976616,10905364,NA,"complete",NA,"66197ed5dd93afd98b57ec62","computer","Desktop or Laptop","Mac OS 10.15.7","Chrome 118.0.0.0","1440x900","1440x815",NA,NA,0,"Task Introduction and Instructions (re-introduce video and audio) (Clone) (Clone)",2,"GHFIEJDKCAB","Passed AC2","","Spreadsheet1","Spreadsheet1",1,"Task Instructions","Screen 3","1qtc8v",4,"continue","",24411.078,24400.344,24411.078,24411.078,24400.344,24411.078,1,24411.078,0,0,NA,"Click To Continue","Continue Button",2,"object-2983","Task Instructions",NA,"SUPPRF49465"
"6",1712947761227,"12/04/2024 18:49:21",1712951361227,1,"12/04/2024 20:49:21",175580,1,"task-kvtv",NA,36976616,10905364,NA,"complete",NA,"66197ed5dd93afd98b57ec62","computer","Desktop or Laptop","Mac OS 10.15.7","Chrome 118.0.0.0","1440x900","1440x815",NA,NA,0,"Task Introduction and Instructions (re-introduce video and audio) (Clone) (Clone)",2,"GHFIEJDKCAB","Passed AC2","","Spreadsheet1","Spreadsheet1",1,"Task Instructions","Screen 12","1a4vu2",5,"continue","",4279.33400038147,4267.21799999999,4279.33400038147,4279.33400038147,4267.21799999999,4279.33400038147,1,4279.33400038147,0,0,NA,"Click To Continue","Continue Button",2,"object-2466","Task Instructions",NA,"SUPPRF49465"
"7",1712947766032,"12/04/2024 18:49:26",1712951366032,1,"12/04/2024 20:49:26",175580,1,"task-kvtv",NA,36976616,10905364,NA,"complete",NA,"66197ed5dd93afd98b57ec62","computer","Desktop or Laptop","Mac OS 10.15.7","Chrome 118.0.0.0","1440x900","1440x815",NA,NA,0,"Task Introduction and Instructions (re-introduce video and audio) (Clone) (Clone)",2,"GHFIEJDKCAB","Passed AC2","","Spreadsheet1","Spreadsheet1",1,"Task Instructions","Screen 13","q9vwda",6,"continue","",4816.47400000001,4799.808,4816.47400000001,4816.47400000001,4799.808,4816.47400000001,1,4816.47400000001,0,0,NA,"Click To Continue","Continue Button",2,"object-2989","Task Instructions",NA,"SUPPRF49465"
"8",1712947769348,"12/04/2024 18:49:29",1712951369348,1,"12/04/2024 20:49:29",175580,1,"task-kvtv",NA,36976616,10905364,NA,"complete",NA,"66197ed5dd93afd98b57ec62","computer","Desktop or Laptop","Mac OS 10.15.7","Chrome 118.0.0.0","1440x900","1440x815",NA,NA,0,"Task Introduction and Instructions (re-introduce video and audio) (Clone) (Clone)",2,"GHFIEJDKCAB","Passed AC2","","Spreadsheet1","Spreadsheet1",1,"Task Instructions","Screen 11","oyulb7",7,"continue","",3333.50800019073,3317.219,3333.50800019073,3333.50800019073,3317.219,3333.50800019073,1,3333.50800019073,0,0,NA,"Click To Continue","Continue Button",2,"object-52","Task Instructions",NA,"SUPPRF49465"
"9",1712947772195,"12/04/2024 18:49:32",1712951372195,1,"12/04/2024 20:49:32",175580,1,"task-kvtv",NA,36976616,10905364,NA,"complete",NA,"66197ed5dd93afd98b57ec62","computer","Desktop or Laptop","Mac OS 10.15.7","Chrome 118.0.0.0","1440x900","1440x815",NA,NA,0,"Task Introduction and Instructions (re-introduce video and audio) (Clone) (Clone)",2,"GHFIEJDKCAB","Passed AC2","","Spreadsheet1","Spreadsheet1",1,"Task Instructions","Screen 5","8nvnao",8,"continue","",2862.78900019074,2849.886,2862.78900019074,2862.78900019074,2849.886,2862.78900019074,1,2862.78900019074,0,0,NA,"Click To Continue","Continue Button",2,"object-44","Task Instructions",NA,"SUPPRF49465"
"10",1712947772196,"12/04/2024 18:49:32",1712951372196,1,"12/04/2024 20:49:32",175580,1,"task-kvtv",NA,36976616,10905364,NA,"complete",NA,"66197ed5dd93afd98b57ec62","computer","Desktop or Laptop","Mac OS 10.15.7","Chrome 118.0.0.0","1440x900","1440x815",NA,NA,0,"Task Introduction and Instructions (re-introduce video and audio) (Clone) (Clone)",2,"GHFIEJDKCAB","Passed AC2","","Spreadsheet1","Spreadsheet1",NA,"","","",NA,"5","END",NA,NA,NA,NA,NA,NA,0,NA,NA,NA,NA,"","",NA,"","",NA,"SUPPRF49465"
"1",1712947724311,"12/04/2024 18:48:44",1712951324311,1,"12/04/2024 20:48:44",175580,1,"task-kvtv",NA,36976617,10905385,NA,"complete",NA,"66197f9ddc20c9fb5159671f","computer","Desktop or Laptop","Mac OS 10.15.7","Chrome 123.0.0.0","1440x900","1440x779",NA,NA,0,"Task Introduction and Instructions (re-introduce video and audio) (Clone) (Clone)",2,"HIGJFKEADBC","Passed AC2","","Spreadsheet1","Spreadsheet1",NA,"","","",NA,"5","BEGIN",NA,NA,NA,NA,NA,NA,0,NA,NA,NA,NA,"","",NA,"","",NA,"SUPPRF11317"
"2",1712947727234,"12/04/2024 18:48:47",1712951327234,1,"12/04/2024 20:48:47",175580,1,"task-kvtv",NA,36976617,10905385,NA,"complete",NA,"66197f9ddc20c9fb5159671f","computer","Desktop or Laptop","Mac OS 10.15.7","Chrome 123.0.0.0","1440x900","1440x779",NA,NA,0,"Task Introduction and Instructions (re-introduce video and audio) (Clone) (Clone)",2,"HIGJFKEADBC","Passed AC2","","Spreadsheet1","Spreadsheet1",1,"Task Instructions","Screen 1","anr7sn",1,"continue","",2847.60000000447,2831.6,2847.60000000447,2847.60000000447,2831.6,2847.60000000447,1,2847.60000000447,0,0,NA,"Click To Continue","Continue Button",3,"object-60","Task Instructions",NA,"SUPPRF11317"
"3",1712947731932,"12/04/2024 18:48:51",1712951331932,1,"12/04/2024 20:48:51",175580,1,"task-kvtv",NA,36976617,10905385,NA,"complete",NA,"66197f9ddc20c9fb5159671f","computer","Desktop or Laptop","Mac OS 10.15.7","Chrome 123.0.0.0","1440x900","1440x779",NA,NA,0,"Task Introduction and Instructions (re-introduce video and audio) (Clone) (Clone)",2,"HIGJFKEADBC","Passed AC2","","Spreadsheet1","Spreadsheet1",1,"Task Instructions","Screen 4","spepx9",2,"continue","",4713.90000000298,4697.5,4713.90000000298,4713.90000000298,4697.5,4713.90000000298,1,4713.90000000298,0,0,NA,"Click To Continue","Continue Button",2,"object-9","Task Instructions",NA,"SUPPRF11317"
"4",1712947763387,"12/04/2024 18:49:23",1712951363387,1,"12/04/2024 20:49:23",175580,1,"task-kvtv",NA,36976617,10905385,NA,"complete",NA,"66197f9ddc20c9fb5159671f","computer","Desktop or Laptop","Mac OS 10.15.7","Chrome 123.0.0.0","1440x900","1440x779",NA,NA,0,"Task Introduction and Instructions (re-introduce video and audio) (Clone) (Clone)",2,"HIGJFKEADBC","Passed AC2","","Spreadsheet1","Spreadsheet1",1,"Task Instructions","Screen 2","ce2tc8",3,"continue","",31472.0999999985,31462.3,31472.0999999985,31472.0999999985,31462.3,31472.0999999985,1,31472.0999999985,0,0,NA,"Click To Continue","Continue Button",3,"object-59","Task Instructions",NA,"SUPPRF11317"
"5",1712947774748,"12/04/2024 18:49:34",1712951374748,1,"12/04/2024 20:49:34",175580,1,"task-kvtv",NA,36976617,10905385,NA,"complete",NA,"66197f9ddc20c9fb5159671f","computer","Desktop or Laptop","Mac OS 10.15.7","Chrome 123.0.0.0","1440x900","1440x779",NA,NA,0,"Task Introduction and Instructions (re-introduce video and audio) (Clone) (Clone)",2,"HIGJFKEADBC","Passed AC2","","Spreadsheet1","Spreadsheet1",1,"Task Instructions","Screen 3","1qtc8v",4,"continue","",11371.7000000045,11359,11371.7000000045,11371.7000000045,11359,11371.7000000045,1,11371.7000000045,0,0,NA,"Click To Continue","Continue Button",2,"object-2983","Task Instructions",NA,"SUPPRF11317"
"6",1712947777866,"12/04/2024 18:49:37",1712951377866,1,"12/04/2024 20:49:37",175580,1,"task-kvtv",NA,36976617,10905385,NA,"complete",NA,"66197f9ddc20c9fb5159671f","computer","Desktop or Laptop","Mac OS 10.15.7","Chrome 123.0.0.0","1440x900","1440x779",NA,NA,0,"Task Introduction and Instructions (re-introduce video and audio) (Clone) (Clone)",2,"HIGJFKEADBC","Passed AC2","","Spreadsheet1","Spreadsheet1",1,"Task Instructions","Screen 12","1a4vu2",5,"continue","",3130.60000000298,3114.4,3130.60000000298,3130.60000000298,3114.4,3130.60000000298,1,3130.60000000298,0,0,NA,"Click To Continue","Continue Button",2,"object-2466","Task Instructions",NA,"SUPPRF11317"
"7",1712947782356,"12/04/2024 18:49:42",1712951382356,1,"12/04/2024 20:49:42",175580,1,"task-kvtv",NA,36976617,10905385,NA,"complete",NA,"66197f9ddc20c9fb5159671f","computer","Desktop or Laptop","Mac OS 10.15.7","Chrome 123.0.0.0","1440x900","1440x779",NA,NA,0,"Task Introduction and Instructions (re-introduce video and audio) (Clone) (Clone)",2,"HIGJFKEADBC","Passed AC2","","Spreadsheet1","Spreadsheet1",1,"Task Instructions","Screen 13","q9vwda",6,"continue","",4506.60000000149,4496.8,4506.60000000149,4506.60000000149,4496.8,4506.60000000149,1,4506.60000000149,0,0,NA,"Click To Continue","Continue Button",2,"object-2989","Task Instructions",NA,"SUPPRF11317"
"8",1712947785512,"12/04/2024 18:49:45",1712951385512,1,"12/04/2024 20:49:45",175580,1,"task-kvtv",NA,36976617,10905385,NA,"complete",NA,"66197f9ddc20c9fb5159671f","computer","Desktop or Laptop","Mac OS 10.15.7","Chrome 123.0.0.0","1440x900","1440x779",NA,NA,0,"Task Introduction and Instructions (re-introduce video and audio) (Clone) (Clone)",2,"HIGJFKEADBC","Passed AC2","","Spreadsheet1","Spreadsheet1",1,"Task Instructions","Screen 11","oyulb7",7,"continue","",3165.3,3148.6,3165.3,3165.3,3148.6,3165.3,1,3165.3,0,0,NA,"Click To Continue","Continue Button",2,"object-52","Task Instructions",NA,"SUPPRF11317"
"9",1712947789826,"12/04/2024 18:49:49",1712951389826,1,"12/04/2024 20:49:49",175580,1,"task-kvtv",NA,36976617,10905385,NA,"complete",NA,"66197f9ddc20c9fb5159671f","computer","Desktop or Laptop","Mac OS 10.15.7","Chrome 123.0.0.0","1440x900","1440x779",NA,NA,0,"Task Introduction and Instructions (re-introduce video and audio) (Clone) (Clone)",2,"HIGJFKEADBC","Passed AC2","","Spreadsheet1","Spreadsheet1",1,"Task Instructions","Screen 5","8nvnao",8,"continue","",4330.69999999999,4313.8,4330.69999999999,4330.69999999999,4313.8,4330.69999999999,1,4330.69999999999,0,0,NA,"Click To Continue","Continue Button",2,"object-44","Task Instructions",NA,"SUPPRF11317"
"10",1712947789829,"12/04/2024 18:49:49",1712951389829,1,"12/04/2024 20:49:49",175580,1,"task-kvtv",NA,36976617,10905385,NA,"complete",NA,"66197f9ddc20c9fb5159671f","computer","Desktop or Laptop","Mac OS 10.15.7","Chrome 123.0.0.0","1440x900","1440x779",NA,NA,0,"Task Introduction and Instructions (re-introduce video and audio) (Clone) (Clone)",2,"HIGJFKEADBC","Passed AC2","","Spreadsheet1","Spreadsheet1",NA,"","","",NA,"5","END",NA,NA,NA,NA,NA,NA,0,NA,NA,NA,NA,"","",NA,"","",NA,"SUPPRF11317"
"1",1712947758221,"12/04/2024 18:49:18",1712951358221,1,"12/04/2024 20:49:18",175580,1,"task-kvtv",NA,36976630,10905412,NA,"complete",NA,"66197f9aa5b6af8abf932544","computer","Desktop or Laptop","Windows 10","Chrome 123.0.0.0","2560x1440","2844x1412",NA,NA,0,"Task Introduction and Instructions (re-introduce video and audio) (Clone) (Clone)",2,"IJHKGAFBECD","Passed AC2","","Spreadsheet1","Spreadsheet1",NA,"","","",NA,"5","BEGIN",NA,NA,NA,NA,NA,NA,0,NA,NA,NA,NA,"","",NA,"","",NA,"SUPPRF83543"
"2",1712947761065,"12/04/2024 18:49:21",1712951361065,1,"12/04/2024 20:49:21",175580,1,"task-kvtv",NA,36976630,10905412,NA,"complete",NA,"66197f9aa5b6af8abf932544","computer","Desktop or Laptop","Windows 10","Chrome 123.0.0.0","2560x1440","2844x1412",NA,NA,0,"Task Introduction and Instructions (re-introduce video and audio) (Clone) (Clone)",2,"IJHKGAFBECD","Passed AC2","","Spreadsheet1","Spreadsheet1",1,"Task Instructions","Screen 1","anr7sn",1,"continue","",2769.59999996424,2768.4,2769.59999996424,2769.59999996424,2768.4,2769.59999996424,1,2769.59999996424,0,0,NA,"Click To Continue","Continue Button",3,"object-60","Task Instructions",NA,"SUPPRF83543"
"3",1712947763901,"12/04/2024 18:49:23",1712951363901,1,"12/04/2024 20:49:23",175580,1,"task-kvtv",NA,36976630,10905412,NA,"complete",NA,"66197f9aa5b6af8abf932544","computer","Desktop or Laptop","Windows 10","Chrome 123.0.0.0","2560x1440","2844x1412",NA,NA,0,"Task Introduction and Instructions (re-introduce video and audio) (Clone) (Clone)",2,"IJHKGAFBECD","Passed AC2","","Spreadsheet1","Spreadsheet1",1,"Task Instructions","Screen 4","spepx9",2,"continue","",2838.19999996424,2835,2838.19999996424,2838.19999996424,2835,2838.19999996424,1,2838.19999996424,0,0,NA,"Click To Continue","Continue Button",2,"object-9","Task Instructions",NA,"SUPPRF83543"
"4",1712947771261,"12/04/2024 18:49:31",1712951371261,1,"12/04/2024 20:49:31",175580,1,"task-kvtv",NA,36976630,10905412,NA,"complete",NA,"66197f9aa5b6af8abf932544","computer","Desktop or Laptop","Windows 10","Chrome 123.0.0.0","2560x1440","2844x1412",NA,NA,0,"Task Introduction and Instructions (re-introduce video and audio) (Clone) (Clone)",2,"IJHKGAFBECD","Passed AC2","","Spreadsheet1","Spreadsheet1",1,"Task Instructions","Screen 2","ce2tc8",3,"continue","",7362.29999998808,7360,7362.29999998808,7362.29999998808,7360,7362.29999998808,1,7362.29999998808,0,0,NA,"Click To Continue","Continue Button",3,"object-59","Task Instructions",NA,"SUPPRF83543"
"5",1712947778570,"12/04/2024 18:49:38",1712951378570,1,"12/04/2024 20:49:38",175580,1,"task-kvtv",NA,36976630,10905412,NA,"complete",NA,"66197f9aa5b6af8abf932544","computer","Desktop or Laptop","Windows 10","Chrome 123.0.0.0","2560x1440","2844x1412",NA,NA,0,"Task Introduction and Instructions (re-introduce video and audio) (Clone) (Clone)",2,"IJHKGAFBECD","Passed AC2","","Spreadsheet1","Spreadsheet1",1,"Task Instructions","Screen 3","1qtc8v",4,"continue","",7311.69999996424,7305.6,7311.69999996424,7311.69999996424,7305.6,7311.69999996424,1,7311.69999996424,0,0,NA,"Click To Continue","Continue Button",2,"object-2983","Task Instructions",NA,"SUPPRF83543"
"6",1712947784727,"12/04/2024 18:49:44",1712951384727,1,"12/04/2024 20:49:44",175580,1,"task-kvtv",NA,36976630,10905412,NA,"complete",NA,"66197f9aa5b6af8abf932544","computer","Desktop or Laptop","Windows 10","Chrome 123.0.0.0","2560x1440","2844x1412",NA,NA,0,"Task Introduction and Instructions (re-introduce video and audio) (Clone) (Clone)",2,"IJHKGAFBECD","Passed AC2","","Spreadsheet1","Spreadsheet1",1,"Task Instructions","Screen 12","1a4vu2",5,"continue","",6163.09999996424,6160.5,6163.09999996424,6163.09999996424,6160.5,6163.09999996424,1,6163.09999996424,0,0,NA,"Click To Continue","Continue Button",2,"object-2466","Task Instructions",NA,"SUPPRF83543"
"7",1712947792474,"12/04/2024 18:49:52",1712951392474,1,"12/04/2024 20:49:52",175580,1,"task-kvtv",NA,36976630,10905412,NA,"complete",NA,"66197f9aa5b6af8abf932544","computer","Desktop or Laptop","Windows 10","Chrome 123.0.0.0","2560x1440","2844x1412",NA,NA,0,"Task Introduction and Instructions (re-introduce video and audio) (Clone) (Clone)",2,"IJHKGAFBECD","Passed AC2","","Spreadsheet1","Spreadsheet1",1,"Task Instructions","Screen 13","q9vwda",6,"continue","",7749.89999997616,7747.8,7749.89999997616,7749.89999997616,7747.8,7749.89999997616,1,7749.89999997616,0,0,NA,"Click To Continue","Continue Button",2,"object-2989","Task Instructions",NA,"SUPPRF83543"
"8",1712947798277,"12/04/2024 18:49:58",1712951398277,1,"12/04/2024 20:49:58",175580,1,"task-kvtv",NA,36976630,10905412,NA,"complete",NA,"66197f9aa5b6af8abf932544","computer","Desktop or Laptop","Windows 10","Chrome 123.0.0.0","2560x1440","2844x1412",NA,NA,0,"Task Introduction and Instructions (re-introduce video and audio) (Clone) (Clone)",2,"IJHKGAFBECD","Passed AC2","","Spreadsheet1","Spreadsheet1",1,"Task Instructions","Screen 11","oyulb7",7,"continue","",5804.39999998808,5803.2,5804.39999998808,5804.39999998808,5803.2,5804.39999998808,1,5804.39999998808,0,0,NA,"Click To Continue","Continue Button",2,"object-52","Task Instructions",NA,"SUPPRF83543"
"9",1712947801105,"12/04/2024 18:50:01",1712951401105,1,"12/04/2024 20:50:01",175580,1,"task-kvtv",NA,36976630,10905412,NA,"complete",NA,"66197f9aa5b6af8abf932544","computer","Desktop or Laptop","Windows 10","Chrome 123.0.0.0","2560x1440","2844x1412",NA,NA,0,"Task Introduction and Instructions (re-introduce video and audio) (Clone) (Clone)",2,"IJHKGAFBECD","Passed AC2","","Spreadsheet1","Spreadsheet1",1,"Task Instructions","Screen 5","8nvnao",8,"continue","",2829.59999996424,2828.9,2829.59999996424,2829.59999996424,2828.9,2829.59999996424,1,2829.59999996424,0,0,NA,"Click To Continue","Continue Button",2,"object-44","Task Instructions",NA,"SUPPRF83543"
"10",1712947801106,"12/04/2024 18:50:01",1712951401106,1,"12/04/2024 20:50:01",175580,1,"task-kvtv",NA,36976630,10905412,NA,"complete",NA,"66197f9aa5b6af8abf932544","computer","Desktop or Laptop","Windows 10","Chrome 123.0.0.0","2560x1440","2844x1412",NA,NA,0,"Task Introduction and Instructions (re-introduce video and audio) (Clone) (Clone)",2,"IJHKGAFBECD","Passed AC2","","Spreadsheet1","Spreadsheet1",NA,"","","",NA,"5","END",NA,NA,NA,NA,NA,NA,0,NA,NA,NA,NA,"","",NA,"","",NA,"SUPPRF83543"
"1",1712948147778,"12/04/2024 18:55:47",1712951747778,1,"12/04/2024 20:55:47",175580,1,"task-kvtv",NA,36976735,10905451,NA,"complete",NA,"66197beab5ff9b737b7659ba","computer","Desktop or Laptop","Windows 10","Chrome 123.0.0.0","1500x1000","1500x831",NA,NA,0,"Task Introduction and Instructions (re-introduce video and audio) (Clone) (Clone)",2,"JKIAHBGCFDE","Passed AC2","","Spreadsheet1","Spreadsheet1",NA,"","","",NA,"5","BEGIN",NA,NA,NA,NA,NA,NA,0,NA,NA,NA,NA,"","",NA,"","",NA,"SUPPRF00852"
"2",1712948154518,"12/04/2024 18:55:54",1712951754518,1,"12/04/2024 20:55:54",175580,1,"task-kvtv",NA,36976735,10905451,NA,"complete",NA,"66197beab5ff9b737b7659ba","computer","Desktop or Laptop","Windows 10","Chrome 123.0.0.0","1500x1000","1500x831",NA,NA,0,"Task Introduction and Instructions (re-introduce video and audio) (Clone) (Clone)",2,"JKIAHBGCFDE","Passed AC2","","Spreadsheet1","Spreadsheet1",1,"Task Instructions","Screen 1","anr7sn",1,"continue","",6535.4,6518.8,6535.4,6535.4,6518.8,6535.4,1,6535.4,0,0,NA,"Click To Continue","Continue Button",3,"object-60","Task Instructions",NA,"SUPPRF00852"
"3",1712948158794,"12/04/2024 18:55:58",1712951758794,1,"12/04/2024 20:55:58",175580,1,"task-kvtv",NA,36976735,10905451,NA,"complete",NA,"66197beab5ff9b737b7659ba","computer","Desktop or Laptop","Windows 10","Chrome 123.0.0.0","1500x1000","1500x831",NA,NA,0,"Task Introduction and Instructions (re-introduce video and audio) (Clone) (Clone)",2,"JKIAHBGCFDE","Passed AC2","","Spreadsheet1","Spreadsheet1",1,"Task Instructions","Screen 4","spepx9",2,"continue","",4297.2,4284.2,4297.2,4297.2,4284.2,4297.2,1,4297.2,0,0,NA,"Click To Continue","Continue Button",2,"object-9","Task Instructions",NA,"SUPPRF00852"
"4",1712948174056,"12/04/2024 18:56:14",1712951774056,1,"12/04/2024 20:56:14",175580,1,"task-kvtv",NA,36976735,10905451,NA,"complete",NA,"66197beab5ff9b737b7659ba","computer","Desktop or Laptop","Windows 10","Chrome 123.0.0.0","1500x1000","1500x831",NA,NA,0,"Task Introduction and Instructions (re-introduce video and audio) (Clone) (Clone)",2,"JKIAHBGCFDE","Passed AC2","","Spreadsheet1","Spreadsheet1",1,"Task Instructions","Screen 2","ce2tc8",3,"continue","",15274.8000000119,15270.2,15274.8000000119,15274.8000000119,15270.2,15274.8000000119,1,15274.8000000119,0,0,NA,"Click To Continue","Continue Button",3,"object-59","Task Instructions",NA,"SUPPRF00852"
"5",1712948183733,"12/04/2024 18:56:23",1712951783733,1,"12/04/2024 20:56:23",175580,1,"task-kvtv",NA,36976735,10905451,NA,"complete",NA,"66197beab5ff9b737b7659ba","computer","Desktop or Laptop","Windows 10","Chrome 123.0.0.0","1500x1000","1500x831",NA,NA,0,"Task Introduction and Instructions (re-introduce video and audio) (Clone) (Clone)",2,"JKIAHBGCFDE","Passed AC2","","Spreadsheet1","Spreadsheet1",1,"Task Instructions","Screen 3","1qtc8v",4,"continue","",9681.70000003576,9669,9681.70000003576,9681.70000003576,9669,9681.70000003576,1,9681.70000003576,0,0,NA,"Click To Continue","Continue Button",2,"object-2983","Task Instructions",NA,"SUPPRF00852"
"6",1712948199028,"12/04/2024 18:56:39",1712951799028,1,"12/04/2024 20:56:39",175580,1,"task-kvtv",NA,36976735,10905451,NA,"complete",NA,"66197beab5ff9b737b7659ba","computer","Desktop or Laptop","Windows 10","Chrome 123.0.0.0","1500x1000","1500x831",NA,NA,0,"Task Introduction and Instructions (re-introduce video and audio) (Clone) (Clone)",2,"JKIAHBGCFDE","Passed AC2","","Spreadsheet1","Spreadsheet1",1,"Task Instructions","Screen 12","1a4vu2",5,"continue","",15306.9000000238,15303.8,15306.9000000238,15306.9000000238,15303.8,15306.9000000238,1,15306.9000000238,0,0,NA,"Click To Continue","Continue Button",2,"object-2466","Task Instructions",NA,"SUPPRF00852"
"7",1712948205053,"12/04/2024 18:56:45",1712951805053,1,"12/04/2024 20:56:45",175580,1,"task-kvtv",NA,36976735,10905451,NA,"complete",NA,"66197beab5ff9b737b7659ba","computer","Desktop or Laptop","Windows 10","Chrome 123.0.0.0","1500x1000","1500x831",NA,NA,0,"Task Introduction and Instructions (re-introduce video and audio) (Clone) (Clone)",2,"JKIAHBGCFDE","Passed AC2","","Spreadsheet1","Spreadsheet1",1,"Task Instructions","Screen 13","q9vwda",6,"continue","",6029.10000002384,6018.2,6029.10000002384,6029.10000002384,6018.2,6029.10000002384,1,6029.10000002384,0,0,NA,"Click To Continue","Continue Button",2,"object-2989","Task Instructions",NA,"SUPPRF00852"
"8",1712948209782,"12/04/2024 18:56:49",1712951809782,1,"12/04/2024 20:56:49",175580,1,"task-kvtv",NA,36976735,10905451,NA,"complete",NA,"66197beab5ff9b737b7659ba","computer","Desktop or Laptop","Windows 10","Chrome 123.0.0.0","1500x1000","1500x831",NA,NA,0,"Task Introduction and Instructions (re-introduce video and audio) (Clone) (Clone)",2,"JKIAHBGCFDE","Passed AC2","","Spreadsheet1","Spreadsheet1",1,"Task Instructions","Screen 11","oyulb7",7,"continue","",4739.3,4734.5,4739.3,4739.3,4734.5,4739.3,1,4739.3,0,0,NA,"Click To Continue","Continue Button",2,"object-52","Task Instructions",NA,"SUPPRF00852"
"9",1712948212828,"12/04/2024 18:56:52",1712951812828,1,"12/04/2024 20:56:52",175580,1,"task-kvtv",NA,36976735,10905451,NA,"complete",NA,"66197beab5ff9b737b7659ba","computer","Desktop or Laptop","Windows 10","Chrome 123.0.0.0","1500x1000","1500x831",NA,NA,0,"Task Introduction and Instructions (re-introduce video and audio) (Clone) (Clone)",2,"JKIAHBGCFDE","Passed AC2","","Spreadsheet1","Spreadsheet1",1,"Task Instructions","Screen 5","8nvnao",8,"continue","",3050.70000003577,3034.2,3050.70000003577,3050.70000003577,3034.2,3050.70000003577,1,3050.70000003577,0,0,NA,"Click To Continue","Continue Button",2,"object-44","Task Instructions",NA,"SUPPRF00852"
"10",1712948212830,"12/04/2024 18:56:52",1712951812830,1,"12/04/2024 20:56:52",175580,1,"task-kvtv",NA,36976735,10905451,NA,"complete",NA,"66197beab5ff9b737b7659ba","computer","Desktop or Laptop","Windows 10","Chrome 123.0.0.0","1500x1000","1500x831",NA,NA,0,"Task Introduction and Instructions (re-introduce video and audio) (Clone) (Clone)",2,"JKIAHBGCFDE","Passed AC2","","Spreadsheet1","Spreadsheet1",NA,"","","",NA,"5","END",NA,NA,NA,NA,NA,NA,0,NA,NA,NA,NA,"","",NA,"","",NA,"SUPPRF00852"
"1",1712949129329,"12/04/2024 19:12:09",1712952729329,1,"12/04/2024 21:12:09",175580,1,"task-kvtv",NA,36977103,10905518,NA,"complete",NA,"661984cd43485e22ba0fe91a","computer","Desktop or Laptop","Mac OS 10.15.7","Chrome 123.0.0.0","1440x900","1440x813",NA,NA,0,"Task Introduction and Instructions (re-introduce video and audio) (Clone) (Clone)",2,"KAJBICHDGEF","Passed AC2","","Spreadsheet1","Spreadsheet1",NA,"","","",NA,"5","BEGIN",NA,NA,NA,NA,NA,NA,0,NA,NA,NA,NA,"","",NA,"","",NA,"SUPPRF83382"
"2",1712949134218,"12/04/2024 19:12:14",1712952734218,1,"12/04/2024 21:12:14",175580,1,"task-kvtv",NA,36977103,10905518,NA,"complete",NA,"661984cd43485e22ba0fe91a","computer","Desktop or Laptop","Mac OS 10.15.7","Chrome 123.0.0.0","1440x900","1440x813",NA,NA,0,"Task Introduction and Instructions (re-introduce video and audio) (Clone) (Clone)",2,"KAJBICHDGEF","Passed AC2","","Spreadsheet1","Spreadsheet1",1,"Task Instructions","Screen 1","anr7sn",1,"continue","",4774.80000001192,4766.4,4774.80000001192,4774.80000001192,4766.4,4774.80000001192,1,4774.80000001192,0,0,NA,"Click To Continue","Continue Button",3,"object-60","Task Instructions",NA,"SUPPRF83382"
"3",1712949136930,"12/04/2024 19:12:16",1712952736930,1,"12/04/2024 21:12:16",175580,1,"task-kvtv",NA,36977103,10905518,NA,"complete",NA,"661984cd43485e22ba0fe91a","computer","Desktop or Laptop","Mac OS 10.15.7","Chrome 123.0.0.0","1440x900","1440x813",NA,NA,0,"Task Introduction and Instructions (re-introduce video and audio) (Clone) (Clone)",2,"KAJBICHDGEF","Passed AC2","","Spreadsheet1","Spreadsheet1",1,"Task Instructions","Screen 4","spepx9",2,"continue","",2716.7,2700,2716.7,2716.7,2700,2716.7,1,2716.7,0,0,NA,"Click To Continue","Continue Button",2,"object-9","Task Instructions",NA,"SUPPRF83382"
"4",1712949149666,"12/04/2024 19:12:29",1712952749666,1,"12/04/2024 21:12:29",175580,1,"task-kvtv",NA,36977103,10905518,NA,"complete",NA,"661984cd43485e22ba0fe91a","computer","Desktop or Laptop","Mac OS 10.15.7","Chrome 123.0.0.0","1440x900","1440x813",NA,NA,0,"Task Introduction and Instructions (re-introduce video and audio) (Clone) (Clone)",2,"KAJBICHDGEF","Passed AC2","","Spreadsheet1","Spreadsheet1",1,"Task Instructions","Screen 2","ce2tc8",3,"continue","",12756.4000000119,12749.5,12756.4000000119,12756.4000000119,12749.5,12756.4000000119,1,12756.4000000119,0,0,NA,"Click To Continue","Continue Button",3,"object-59","Task Instructions",NA,"SUPPRF83382"
"5",1712949219387,"12/04/2024 19:13:39",1712952819387,1,"12/04/2024 21:13:39",175580,1,"task-kvtv",NA,36977103,10905518,NA,"complete",NA,"661984cd43485e22ba0fe91a","computer","Desktop or Laptop","Mac OS 10.15.7","Chrome 123.0.0.0","1440x900","1440x813",NA,NA,0,"Task Introduction and Instructions (re-introduce video and audio) (Clone) (Clone)",2,"KAJBICHDGEF","Passed AC2","","Spreadsheet1","Spreadsheet1",1,"Task Instructions","Screen 3","1qtc8v",4,"continue","",69729.2000000238,69713.8,69729.2000000238,69729.2000000238,69713.8,69729.2000000238,1,69729.2000000238,0,0,NA,"Click To Continue","Continue Button",2,"object-2983","Task Instructions",NA,"SUPPRF83382"
"6",1712949227383,"12/04/2024 19:13:47",1712952827383,1,"12/04/2024 21:13:47",175580,1,"task-kvtv",NA,36977103,10905518,NA,"complete",NA,"661984cd43485e22ba0fe91a","computer","Desktop or Laptop","Mac OS 10.15.7","Chrome 123.0.0.0","1440x900","1440x813",NA,NA,0,"Task Introduction and Instructions (re-introduce video and audio) (Clone) (Clone)",2,"KAJBICHDGEF","Passed AC2","","Spreadsheet1","Spreadsheet1",1,"Task Instructions","Screen 12","1a4vu2",5,"continue","",8011.3,7999.8,8011.3,8011.3,7999.8,8011.3,1,8011.3,0,0,NA,"Click To Continue","Continue Button",2,"object-2466","Task Instructions",NA,"SUPPRF83382"
"7",1712949232959,"12/04/2024 19:13:52",1712952832959,1,"12/04/2024 21:13:52",175580,1,"task-kvtv",NA,36977103,10905518,NA,"complete",NA,"661984cd43485e22ba0fe91a","computer","Desktop or Laptop","Mac OS 10.15.7","Chrome 123.0.0.0","1440x900","1440x813",NA,NA,0,"Task Introduction and Instructions (re-introduce video and audio) (Clone) (Clone)",2,"KAJBICHDGEF","Passed AC2","","Spreadsheet1","Spreadsheet1",1,"Task Instructions","Screen 13","q9vwda",6,"continue","",5587.90000000596,5583,5587.90000000596,5587.90000000596,5583,5587.90000000596,1,5587.90000000596,0,0,NA,"Click To Continue","Continue Button",2,"object-2989","Task Instructions",NA,"SUPPRF83382"
"8",1712949237069,"12/04/2024 19:13:57",1712952837069,1,"12/04/2024 21:13:57",175580,1,"task-kvtv",NA,36977103,10905518,NA,"complete",NA,"661984cd43485e22ba0fe91a","computer","Desktop or Laptop","Mac OS 10.15.7","Chrome 123.0.0.0","1440x900","1440x813",NA,NA,0,"Task Introduction and Instructions (re-introduce video and audio) (Clone) (Clone)",2,"KAJBICHDGEF","Passed AC2","","Spreadsheet1","Spreadsheet1",1,"Task Instructions","Screen 11","oyulb7",7,"continue","",4114.40000000596,4099.89999999999,4114.40000000596,4114.40000000596,4099.89999999999,4114.40000000596,1,4114.40000000596,0,0,NA,"Click To Continue","Continue Button",2,"object-52","Task Instructions",NA,"SUPPRF83382"
"9",1712949241027,"12/04/2024 19:14:01",1712952841027,1,"12/04/2024 21:14:01",175580,1,"task-kvtv",NA,36977103,10905518,NA,"complete",NA,"661984cd43485e22ba0fe91a","computer","Desktop or Laptop","Mac OS 10.15.7","Chrome 123.0.0.0","1440x900","1440x813",NA,NA,0,"Task Introduction and Instructions (re-introduce video and audio) (Clone) (Clone)",2,"KAJBICHDGEF","Passed AC2","","Spreadsheet1","Spreadsheet1",1,"Task Instructions","Screen 5","8nvnao",8,"continue","",3972.80000001789,3966.5,3972.80000001789,3972.80000001789,3966.5,3972.80000001789,1,3972.80000001789,0,0,NA,"Click To Continue","Continue Button",2,"object-44","Task Instructions",NA,"SUPPRF83382"
"10",1712949241030,"12/04/2024 19:14:01",1712952841030,1,"12/04/2024 21:14:01",175580,1,"task-kvtv",NA,36977103,10905518,NA,"complete",NA,"661984cd43485e22ba0fe91a","computer","Desktop or Laptop","Mac OS 10.15.7","Chrome 123.0.0.0","1440x900","1440x813",NA,NA,0,"Task Introduction and Instructions (re-introduce video and audio) (Clone) (Clone)",2,"KAJBICHDGEF","Passed AC2","","Spreadsheet1","Spreadsheet1",NA,"","","",NA,"5","END",NA,NA,NA,NA,NA,NA,0,NA,NA,NA,NA,"","",NA,"","",NA,"SUPPRF83382"
"1",1712950054115,"12/04/2024 19:27:34",1712935654115,-4,"12/04/2024 11:27:34",175580,1,"task-kvtv",NA,36977521,10905623,NA,"complete",NA,"661988030e8d31580629efb6","computer","Desktop or Laptop","Mac OS 10.15.7","Chrome 123.0.0.0","1440x900","1440x695",NA,NA,0,"Task Introduction and Instructions (re-introduce video and audio) (Clone) (Clone)",2,"ABKCJDIEHFG","Passed AC2","","Spreadsheet1","Spreadsheet1",NA,"","","",NA,"5","BEGIN",NA,NA,NA,NA,NA,NA,0,NA,NA,NA,NA,"","",NA,"","",NA,"SUPPRF24108"
"2",1712950059131,"12/04/2024 19:27:39",1712935659131,-4,"12/04/2024 11:27:39",175580,1,"task-kvtv",NA,36977521,10905623,NA,"complete",NA,"661988030e8d31580629efb6","computer","Desktop or Laptop","Mac OS 10.15.7","Chrome 123.0.0.0","1440x900","1440x695",NA,NA,0,"Task Introduction and Instructions (re-introduce video and audio) (Clone) (Clone)",2,"ABKCJDIEHFG","Passed AC2","","Spreadsheet1","Spreadsheet1",1,"Task Instructions","Screen 1","anr7sn",1,"continue","",4510.70000000298,4505.5,4510.70000000298,4510.70000000298,4505.5,4510.70000000298,1,4510.70000000298,0,0,NA,"Click To Continue","Continue Button",3,"object-60","Task Instructions",NA,"SUPPRF24108"
"3",1712950061780,"12/04/2024 19:27:41",1712935661780,-4,"12/04/2024 11:27:41",175580,1,"task-kvtv",NA,36977521,10905623,NA,"complete",NA,"661988030e8d31580629efb6","computer","Desktop or Laptop","Mac OS 10.15.7","Chrome 123.0.0.0","1440x900","1440x695",NA,NA,0,"Task Introduction and Instructions (re-introduce video and audio) (Clone) (Clone)",2,"ABKCJDIEHFG","Passed AC2","","Spreadsheet1","Spreadsheet1",1,"Task Instructions","Screen 4","spepx9",2,"continue","",2655,2645,2655,2655,2645,2655,1,2655,0,0,NA,"Click To Continue","Continue Button",2,"object-9","Task Instructions",NA,"SUPPRF24108"
"4",1712950075482,"12/04/2024 19:27:55",1712935675482,-4,"12/04/2024 11:27:55",175580,1,"task-kvtv",NA,36977521,10905623,NA,"complete",NA,"661988030e8d31580629efb6","computer","Desktop or Laptop","Mac OS 10.15.7","Chrome 123.0.0.0","1440x900","1440x695",NA,NA,0,"Task Introduction and Instructions (re-introduce video and audio) (Clone) (Clone)",2,"ABKCJDIEHFG","Passed AC2","","Spreadsheet1","Spreadsheet1",1,"Task Instructions","Screen 2","ce2tc8",3,"continue","",13711.700000003,13697.7,13711.700000003,13711.700000003,13697.7,13711.700000003,1,13711.700000003,0,0,NA,"Click To Continue","Continue Button",3,"object-59","Task Instructions",NA,"SUPPRF24108"
"5",1712950084557,"12/04/2024 19:28:04",1712935684557,-4,"12/04/2024 11:28:04",175580,1,"task-kvtv",NA,36977521,10905623,NA,"complete",NA,"661988030e8d31580629efb6","computer","Desktop or Laptop","Mac OS 10.15.7","Chrome 123.0.0.0","1440x900","1440x695",NA,NA,0,"Task Introduction and Instructions (re-introduce video and audio) (Clone) (Clone)",2,"ABKCJDIEHFG","Passed AC2","","Spreadsheet1","Spreadsheet1",1,"Task Instructions","Screen 3","1qtc8v",4,"continue","",9088.69999999106,9085.9,9088.69999999106,9088.69999999106,9085.9,9088.69999999106,1,9088.69999999106,0,0,NA,"Click To Continue","Continue Button",2,"object-2983","Task Instructions",NA,"SUPPRF24108"
"6",1712950097259,"12/04/2024 19:28:17",1712935697259,-4,"12/04/2024 11:28:17",175580,1,"task-kvtv",NA,36977521,10905623,NA,"complete",NA,"661988030e8d31580629efb6","computer","Desktop or Laptop","Mac OS 10.15.7","Chrome 123.0.0.0","1440x900","1440x695",NA,NA,0,"Task Introduction and Instructions (re-introduce video and audio) (Clone) (Clone)",2,"ABKCJDIEHFG","Passed AC2","","Spreadsheet1","Spreadsheet1",1,"Task Instructions","Screen 12","1a4vu2",5,"continue","",12705.7999999911,12692.7,12705.7999999911,12705.7999999911,12692.7,12705.7999999911,1,12705.7999999911,0,0,NA,"Click To Continue","Continue Button",2,"object-2466","Task Instructions",NA,"SUPPRF24108"
"7",1712950104140,"12/04/2024 19:28:24",1712935704140,-4,"12/04/2024 11:28:24",175580,1,"task-kvtv",NA,36977521,10905623,NA,"complete",NA,"661988030e8d31580629efb6","computer","Desktop or Laptop","Mac OS 10.15.7","Chrome 123.0.0.0","1440x900","1440x695",NA,NA,0,"Task Introduction and Instructions (re-introduce video and audio) (Clone) (Clone)",2,"ABKCJDIEHFG","Passed AC2","","Spreadsheet1","Spreadsheet1",1,"Task Instructions","Screen 13","q9vwda",6,"continue","",6893.79999999404,6878.6,6893.79999999404,6893.79999999404,6878.6,6893.79999999404,1,6893.79999999404,0,0,NA,"Click To Continue","Continue Button",2,"object-2989","Task Instructions",NA,"SUPPRF24108"
"8",1712950107467,"12/04/2024 19:28:27",1712935707467,-4,"12/04/2024 11:28:27",175580,1,"task-kvtv",NA,36977521,10905623,NA,"complete",NA,"661988030e8d31580629efb6","computer","Desktop or Laptop","Mac OS 10.15.7","Chrome 123.0.0.0","1440x900","1440x695",NA,NA,0,"Task Introduction and Instructions (re-introduce video and audio) (Clone) (Clone)",2,"ABKCJDIEHFG","Passed AC2","","Spreadsheet1","Spreadsheet1",1,"Task Instructions","Screen 11","oyulb7",7,"continue","",3341.99999999106,3335.7,3341.99999999106,3341.99999999106,3335.7,3341.99999999106,1,3341.99999999106,0,0,NA,"Click To Continue","Continue Button",2,"object-52","Task Instructions",NA,"SUPPRF24108"
"9",1712950109843,"12/04/2024 19:28:29",1712935709843,-4,"12/04/2024 11:28:29",175580,1,"task-kvtv",NA,36977521,10905623,NA,"complete",NA,"661988030e8d31580629efb6","computer","Desktop or Laptop","Mac OS 10.15.7","Chrome 123.0.0.0","1440x900","1440x695",NA,NA,0,"Task Introduction and Instructions (re-introduce video and audio) (Clone) (Clone)",2,"ABKCJDIEHFG","Passed AC2","","Spreadsheet1","Spreadsheet1",1,"Task Instructions","Screen 5","8nvnao",8,"continue","",2382.4,2368.6,2382.4,2382.4,2368.6,2382.4,1,2382.4,0,0,NA,"Click To Continue","Continue Button",2,"object-44","Task Instructions",NA,"SUPPRF24108"
"10",1712950109845,"12/04/2024 19:28:29",1712935709845,-4,"12/04/2024 11:28:29",175580,1,"task-kvtv",NA,36977521,10905623,NA,"complete",NA,"661988030e8d31580629efb6","computer","Desktop or Laptop","Mac OS 10.15.7","Chrome 123.0.0.0","1440x900","1440x695",NA,NA,0,"Task Introduction and Instructions (re-introduce video and audio) (Clone) (Clone)",2,"ABKCJDIEHFG","Passed AC2","","Spreadsheet1","Spreadsheet1",NA,"","","",NA,"5","END",NA,NA,NA,NA,NA,NA,0,NA,NA,NA,NA,"","",NA,"","",NA,"SUPPRF24108"
"1",1712952263632,"12/04/2024 20:04:23",1712937863632,-4,"12/04/2024 12:04:23",175580,1,"task-kvtv",NA,36978563,10905800,NA,"complete",NA,"66198c46bc138c5e9f02285b","computer","Desktop or Laptop","Windows 10","Chrome 123.0.0.0","1920x1080","1920x957",NA,NA,0,"Task Introduction and Instructions (re-introduce video and audio) (Clone) (Clone)",2,"BCADKEJFIGH","Passed AC2","","Spreadsheet1","Spreadsheet1",NA,"","","",NA,"5","BEGIN",NA,NA,NA,NA,NA,NA,0,NA,NA,NA,NA,"","",NA,"","",NA,"SUPPRF15838"
"2",1712952285940,"12/04/2024 20:04:45",1712937885940,-4,"12/04/2024 12:04:45",175580,1,"task-kvtv",NA,36978563,10905800,NA,"complete",NA,"66198c46bc138c5e9f02285b","computer","Desktop or Laptop","Windows 10","Chrome 123.0.0.0","1920x1080","1920x957",NA,NA,0,"Task Introduction and Instructions (re-introduce video and audio) (Clone) (Clone)",2,"BCADKEJFIGH","Passed AC2","","Spreadsheet1","Spreadsheet1",1,"Task Instructions","Screen 1","anr7sn",1,"continue","",22096.5,22093.2,22096.5,22096.5,22093.2,22096.5,1,22096.5,0,0,NA,"Click To Continue","Continue Button",3,"object-60","Task Instructions",NA,"SUPPRF15838"
"3",1712952291246,"12/04/2024 20:04:51",1712937891246,-4,"12/04/2024 12:04:51",175580,1,"task-kvtv",NA,36978563,10905800,NA,"complete",NA,"66198c46bc138c5e9f02285b","computer","Desktop or Laptop","Windows 10","Chrome 123.0.0.0","1920x1080","1920x957",NA,NA,0,"Task Introduction and Instructions (re-introduce video and audio) (Clone) (Clone)",2,"BCADKEJFIGH","Passed AC2","","Spreadsheet1","Spreadsheet1",1,"Task Instructions","Screen 4","spepx9",2,"continue","",5314.4,5313.4,5314.4,5314.4,5313.4,5314.4,1,5314.4,0,0,NA,"Click To Continue","Continue Button",2,"object-9","Task Instructions",NA,"SUPPRF15838"
"4",1712952321324,"12/04/2024 20:05:21",1712937921324,-4,"12/04/2024 12:05:21",175580,1,"task-kvtv",NA,36978563,10905800,NA,"complete",NA,"66198c46bc138c5e9f02285b","computer","Desktop or Laptop","Windows 10","Chrome 123.0.0.0","1920x1080","1920x957",NA,NA,0,"Task Introduction and Instructions (re-introduce video and audio) (Clone) (Clone)",2,"BCADKEJFIGH","Passed AC2","","Spreadsheet1","Spreadsheet1",1,"Task Instructions","Screen 2","ce2tc8",3,"continue","",30079.1999999881,30078.2,30079.1999999881,30079.1999999881,30078.2,30079.1999999881,1,30079.1999999881,0,0,NA,"Click To Continue","Continue Button",3,"object-59","Task Instructions",NA,"SUPPRF15838"
"5",1712953173424,"12/04/2024 20:19:33",1712938773424,-4,"12/04/2024 12:19:33",175580,1,"task-kvtv",NA,36978563,10905800,NA,"complete",NA,"66198c46bc138c5e9f02285b","computer","Desktop or Laptop","Windows 10","Chrome 123.0.0.0","1920x1080","1920x957",NA,NA,0,"Task Introduction and Instructions (re-introduce video and audio) (Clone) (Clone)",2,"BCADKEJFIGH","Passed AC2","","Spreadsheet1","Spreadsheet1",1,"Task Instructions","Screen 3","1qtc8v",4,"continue","",852089.6,852086.4,852089.6,852089.6,852086.4,852089.6,1,852089.6,0,0,NA,"Click To Continue","Continue Button",2,"object-2983","Task Instructions",NA,"SUPPRF15838"
"6",1712953424251,"12/04/2024 20:23:44",1712939024251,-4,"12/04/2024 12:23:44",175580,1,"task-kvtv",NA,36978563,10905800,NA,"complete",NA,"66198c46bc138c5e9f02285b","computer","Desktop or Laptop","Windows 10","Chrome 123.0.0.0","1920x1080","1920x957",NA,NA,0,"Task Introduction and Instructions (re-introduce video and audio) (Clone) (Clone)",2,"BCADKEJFIGH","Passed AC2","","Spreadsheet1","Spreadsheet1",1,"Task Instructions","Screen 12","1a4vu2",5,"continue","",250830.1,250826.8,250830.1,250830.1,250826.8,250830.1,1,250830.1,0,0,NA,"Click To Continue","Continue Button",2,"object-2466","Task Instructions",NA,"SUPPRF15838"
"7",1712953437055,"12/04/2024 20:23:57",1712939037055,-4,"12/04/2024 12:23:57",175580,1,"task-kvtv",NA,36978563,10905800,NA,"complete",NA,"66198c46bc138c5e9f02285b","computer","Desktop or Laptop","Windows 10","Chrome 123.0.0.0","1920x1080","1920x957",NA,NA,0,"Task Introduction and Instructions (re-introduce video and audio) (Clone) (Clone)",2,"BCADKEJFIGH","Passed AC2","","Spreadsheet1","Spreadsheet1",1,"Task Instructions","Screen 13","q9vwda",6,"continue","",12819,12815.6000000001,12819,12819,12815.6000000001,12819,1,12819,0,0,NA,"Click To Continue","Continue Button",2,"object-2989","Task Instructions",NA,"SUPPRF15838"
"8",1712953455337,"12/04/2024 20:24:15",1712939055337,-4,"12/04/2024 12:24:15",175580,1,"task-kvtv",NA,36978563,10905800,NA,"complete",NA,"66198c46bc138c5e9f02285b","computer","Desktop or Laptop","Windows 10","Chrome 123.0.0.0","1920x1080","1920x957",NA,NA,0,"Task Introduction and Instructions (re-introduce video and audio) (Clone) (Clone)",2,"BCADKEJFIGH","Passed AC2","","Spreadsheet1","Spreadsheet1",1,"Task Instructions","Screen 11","oyulb7",7,"continue","",18285.1999999881,18282,18285.1999999881,18285.1999999881,18282,18285.1999999881,1,18285.1999999881,0,0,NA,"Click To Continue","Continue Button",2,"object-52","Task Instructions",NA,"SUPPRF15838"
"9",1712953458839,"12/04/2024 20:24:18",1712939058839,-4,"12/04/2024 12:24:18",175580,1,"task-kvtv",NA,36978563,10905800,NA,"complete",NA,"66198c46bc138c5e9f02285b","computer","Desktop or Laptop","Windows 10","Chrome 123.0.0.0","1920x1080","1920x957",NA,NA,0,"Task Introduction and Instructions (re-introduce video and audio) (Clone) (Clone)",2,"BCADKEJFIGH","Passed AC2","","Spreadsheet1","Spreadsheet1",1,"Task Instructions","Screen 5","8nvnao",8,"continue","",3505.40000000596,3504.69999999995,3505.40000000596,3505.40000000596,3504.69999999995,3505.40000000596,1,3505.40000000596,0,0,NA,"Click To Continue","Continue Button",2,"object-44","Task Instructions",NA,"SUPPRF15838"
"10",1712953458842,"12/04/2024 20:24:18",1712939058842,-4,"12/04/2024 12:24:18",175580,1,"task-kvtv",NA,36978563,10905800,NA,"complete",NA,"66198c46bc138c5e9f02285b","computer","Desktop or Laptop","Windows 10","Chrome 123.0.0.0","1920x1080","1920x957",NA,NA,0,"Task Introduction and Instructions (re-introduce video and audio) (Clone) (Clone)",2,"BCADKEJFIGH","Passed AC2","","Spreadsheet1","Spreadsheet1",NA,"","","",NA,"5","END",NA,NA,NA,NA,NA,NA,0,NA,NA,NA,NA,"","",NA,"","",NA,"SUPPRF15838"
"1",1712955649875,"12/04/2024 21:00:49",1712930449875,-7,"12/04/2024 07:00:49",175580,1,"task-kvtv",NA,36980016,10906269,NA,"complete",NA,"66199dbb5b219216dcaf2d71","computer","Desktop or Laptop","Windows 10","Chrome 123.0.0.0","1500x1000","1500x839",NA,NA,0,"Task Introduction and Instructions (re-introduce video and audio) (Clone) (Clone)",2,"CDBEAFKGJHI","Passed AC2","","Spreadsheet1","Spreadsheet1",NA,"","","",NA,"5","BEGIN",NA,NA,NA,NA,NA,NA,0,NA,NA,NA,NA,"","",NA,"","",NA,"SUPPRF02960"
"2",1712955655108,"12/04/2024 21:00:55",1712930455108,-7,"12/04/2024 07:00:55",175580,1,"task-kvtv",NA,36980016,10906269,NA,"complete",NA,"66199dbb5b219216dcaf2d71","computer","Desktop or Laptop","Windows 10","Chrome 123.0.0.0","1500x1000","1500x839",NA,NA,0,"Task Introduction and Instructions (re-introduce video and audio) (Clone) (Clone)",2,"CDBEAFKGJHI","Passed AC2","","Spreadsheet1","Spreadsheet1",1,"Task Instructions","Screen 1","anr7sn",1,"continue","",4225.10000000596,4215.3,4225.10000000596,4225.10000000596,4215.3,4225.10000000596,1,4225.10000000596,0,0,NA,"Click To Continue","Continue Button",3,"object-60","Task Instructions",NA,"SUPPRF02960"
"3",1712955658314,"12/04/2024 21:00:58",1712930458314,-7,"12/04/2024 07:00:58",175580,1,"task-kvtv",NA,36980016,10906269,NA,"complete",NA,"66199dbb5b219216dcaf2d71","computer","Desktop or Laptop","Windows 10","Chrome 123.0.0.0","1500x1000","1500x839",NA,NA,0,"Task Introduction and Instructions (re-introduce video and audio) (Clone) (Clone)",2,"CDBEAFKGJHI","Passed AC2","","Spreadsheet1","Spreadsheet1",1,"Task Instructions","Screen 4","spepx9",2,"continue","",3216.4,3210,3216.4,3216.4,3210,3216.4,1,3216.4,0,0,NA,"Click To Continue","Continue Button",2,"object-9","Task Instructions",NA,"SUPPRF02960"
"4",1712955669717,"12/04/2024 21:01:09",1712930469717,-7,"12/04/2024 07:01:09",175580,1,"task-kvtv",NA,36980016,10906269,NA,"complete",NA,"66199dbb5b219216dcaf2d71","computer","Desktop or Laptop","Windows 10","Chrome 123.0.0.0","1500x1000","1500x839",NA,NA,0,"Task Introduction and Instructions (re-introduce video and audio) (Clone) (Clone)",2,"CDBEAFKGJHI","Passed AC2","","Spreadsheet1","Spreadsheet1",1,"Task Instructions","Screen 2","ce2tc8",3,"continue","",11401.6,11384,11401.6,11401.6,11384,11401.6,1,11401.6,0,0,NA,"Click To Continue","Continue Button",3,"object-59","Task Instructions",NA,"SUPPRF02960"
"5",1712955678215,"12/04/2024 21:01:18",1712930478215,-7,"12/04/2024 07:01:18",175580,1,"task-kvtv",NA,36980016,10906269,NA,"complete",NA,"66199dbb5b219216dcaf2d71","computer","Desktop or Laptop","Windows 10","Chrome 123.0.0.0","1500x1000","1500x839",NA,NA,0,"Task Introduction and Instructions (re-introduce video and audio) (Clone) (Clone)",2,"CDBEAFKGJHI","Passed AC2","","Spreadsheet1","Spreadsheet1",1,"Task Instructions","Screen 3","1qtc8v",4,"continue","",8520.9,8510.6,8520.9,8520.9,8510.6,8520.9,1,8520.9,0,0,NA,"Click To Continue","Continue Button",2,"object-2983","Task Instructions",NA,"SUPPRF02960"
"6",1712955685528,"12/04/2024 21:01:25",1712930485528,-7,"12/04/2024 07:01:25",175580,1,"task-kvtv",NA,36980016,10906269,NA,"complete",NA,"66199dbb5b219216dcaf2d71","computer","Desktop or Laptop","Windows 10","Chrome 123.0.0.0","1500x1000","1500x839",NA,NA,0,"Task Introduction and Instructions (re-introduce video and audio) (Clone) (Clone)",2,"CDBEAFKGJHI","Passed AC2","","Spreadsheet1","Spreadsheet1",1,"Task Instructions","Screen 12","1a4vu2",5,"continue","",7324.20000000596,7321.10000000001,7324.20000000596,7324.20000000596,7321.10000000001,7324.20000000596,1,7324.20000000596,0,0,NA,"Click To Continue","Continue Button",2,"object-2466","Task Instructions",NA,"SUPPRF02960"
"7",1712955715867,"12/04/2024 21:01:55",1712930515867,-7,"12/04/2024 07:01:55",175580,1,"task-kvtv",NA,36980016,10906269,NA,"complete",NA,"66199dbb5b219216dcaf2d71","computer","Desktop or Laptop","Windows 10","Chrome 123.0.0.0","1500x1000","1500x839",NA,NA,0,"Task Introduction and Instructions (re-introduce video and audio) (Clone) (Clone)",2,"CDBEAFKGJHI","Passed AC2","","Spreadsheet1","Spreadsheet1",1,"Task Instructions","Screen 13","q9vwda",6,"continue","",30341.100000006,30324,30341.100000006,30341.100000006,30324,30341.100000006,1,30341.100000006,0,0,NA,"Click To Continue","Continue Button",2,"object-2989","Task Instructions",NA,"SUPPRF02960"
"8",1712955729053,"12/04/2024 21:02:09",1712930529053,-7,"12/04/2024 07:02:09",175580,1,"task-kvtv",NA,36980016,10906269,NA,"complete",NA,"66199dbb5b219216dcaf2d71","computer","Desktop or Laptop","Windows 10","Chrome 123.0.0.0","1500x1000","1500x839",NA,NA,0,"Task Introduction and Instructions (re-introduce video and audio) (Clone) (Clone)",2,"CDBEAFKGJHI","Passed AC2","","Spreadsheet1","Spreadsheet1",1,"Task Instructions","Screen 11","oyulb7",7,"continue","",13202.999999997,13183.8,13202.999999997,13202.999999997,13183.8,13202.999999997,1,13202.999999997,0,0,NA,"Click To Continue","Continue Button",2,"object-52","Task Instructions",NA,"SUPPRF02960"
"9",1712955732171,"12/04/2024 21:02:12",1712930532171,-7,"12/04/2024 07:02:12",175580,1,"task-kvtv",NA,36980016,10906269,NA,"complete",NA,"66199dbb5b219216dcaf2d71","computer","Desktop or Laptop","Windows 10","Chrome 123.0.0.0","1500x1000","1500x839",NA,NA,0,"Task Introduction and Instructions (re-introduce video and audio) (Clone) (Clone)",2,"CDBEAFKGJHI","Passed AC2","","Spreadsheet1","Spreadsheet1",1,"Task Instructions","Screen 5","8nvnao",8,"continue","",3136.80000000595,3131.2,3136.80000000595,3136.80000000595,3131.2,3136.80000000595,1,3136.80000000595,0,0,NA,"Click To Continue","Continue Button",2,"object-44","Task Instructions",NA,"SUPPRF02960"
"10",1712955732177,"12/04/2024 21:02:12",1712930532177,-7,"12/04/2024 07:02:12",175580,1,"task-kvtv",NA,36980016,10906269,NA,"complete",NA,"66199dbb5b219216dcaf2d71","computer","Desktop or Laptop","Windows 10","Chrome 123.0.0.0","1500x1000","1500x839",NA,NA,0,"Task Introduction and Instructions (re-introduce video and audio) (Clone) (Clone)",2,"CDBEAFKGJHI","Passed AC2","","Spreadsheet1","Spreadsheet1",NA,"","","",NA,"5","END",NA,NA,NA,NA,NA,NA,0,NA,NA,NA,NA,"","",NA,"","",NA,"SUPPRF02960"
"1",1712965924670,"12/04/2024 23:52:04",1712969524670,1,"13/04/2024 01:52:04",175580,1,"task-kvtv",NA,36982733,10906959,NA,"complete",NA,"6619c3da4c9028ec3bdac938","computer","Desktop or Laptop","Mac OS 10.15.7","Chrome 123.0.0.0","1440x900","1440x779",NA,NA,0,"Task Introduction and Instructions (re-introduce video and audio) (Clone) (Clone)",2,"FGEHDICJBKA","Passed AC2","","Spreadsheet1","Spreadsheet1",NA,"","","",NA,"5","BEGIN",NA,NA,NA,NA,NA,NA,0,NA,NA,NA,NA,"","",NA,"","",NA,"SUPPRF02345"
"2",1712965931362,"12/04/2024 23:52:11",1712969531362,1,"13/04/2024 01:52:11",175580,1,"task-kvtv",NA,36982733,10906959,NA,"complete",NA,"6619c3da4c9028ec3bdac938","computer","Desktop or Laptop","Mac OS 10.15.7","Chrome 123.0.0.0","1440x900","1440x779",NA,NA,0,"Task Introduction and Instructions (re-introduce video and audio) (Clone) (Clone)",2,"FGEHDICJBKA","Passed AC2","","Spreadsheet1","Spreadsheet1",1,"Task Instructions","Screen 1","anr7sn",1,"continue","",6609.20000001192,6600.3,6609.20000001192,6609.20000001192,6600.3,6609.20000001192,1,6609.20000001192,0,0,NA,"Click To Continue","Continue Button",3,"object-60","Task Instructions",NA,"SUPPRF02345"
"3",1712965935004,"12/04/2024 23:52:15",1712969535004,1,"13/04/2024 01:52:15",175580,1,"task-kvtv",NA,36982733,10906959,NA,"complete",NA,"6619c3da4c9028ec3bdac938","computer","Desktop or Laptop","Mac OS 10.15.7","Chrome 123.0.0.0","1440x900","1440x779",NA,NA,0,"Task Introduction and Instructions (re-introduce video and audio) (Clone) (Clone)",2,"FGEHDICJBKA","Passed AC2","","Spreadsheet1","Spreadsheet1",1,"Task Instructions","Screen 4","spepx9",2,"continue","",3649.3,3633.1,3649.3,3649.3,3633.1,3649.3,1,3649.3,0,0,NA,"Click To Continue","Continue Button",2,"object-9","Task Instructions",NA,"SUPPRF02345"
"4",1712965954184,"12/04/2024 23:52:34",1712969554184,1,"13/04/2024 01:52:34",175580,1,"task-kvtv",NA,36982733,10906959,NA,"complete",NA,"6619c3da4c9028ec3bdac938","computer","Desktop or Laptop","Mac OS 10.15.7","Chrome 123.0.0.0","1440x900","1440x779",NA,NA,0,"Task Introduction and Instructions (re-introduce video and audio) (Clone) (Clone)",2,"FGEHDICJBKA","Passed AC2","","Spreadsheet1","Spreadsheet1",1,"Task Instructions","Screen 2","ce2tc8",3,"continue","",19199.6000000238,19184.5,19199.6000000238,19199.6000000238,19184.5,19199.6000000238,1,19199.6000000238,0,0,NA,"Click To Continue","Continue Button",3,"object-59","Task Instructions",NA,"SUPPRF02345"
"5",1712966005886,"12/04/2024 23:53:25",1712969605886,1,"13/04/2024 01:53:25",175580,1,"task-kvtv",NA,36982733,10906959,NA,"complete",NA,"6619c3da4c9028ec3bdac938","computer","Desktop or Laptop","Mac OS 10.15.7","Chrome 123.0.0.0","1440x900","1440x779",NA,NA,0,"Task Introduction and Instructions (re-introduce video and audio) (Clone) (Clone)",2,"FGEHDICJBKA","Passed AC2","","Spreadsheet1","Spreadsheet1",1,"Task Instructions","Screen 3","1qtc8v",4,"continue","",51718.900000006,51702.3,51718.900000006,51718.900000006,51702.3,51718.900000006,1,51718.900000006,0,0,NA,"Click To Continue","Continue Button",2,"object-2983","Task Instructions",NA,"SUPPRF02345"
"6",1712966018794,"12/04/2024 23:53:38",1712969618794,1,"13/04/2024 01:53:38",175580,1,"task-kvtv",NA,36982733,10906959,NA,"complete",NA,"6619c3da4c9028ec3bdac938","computer","Desktop or Laptop","Mac OS 10.15.7","Chrome 123.0.0.0","1440x900","1440x779",NA,NA,0,"Task Introduction and Instructions (re-introduce video and audio) (Clone) (Clone)",2,"FGEHDICJBKA","Passed AC2","","Spreadsheet1","Spreadsheet1",1,"Task Instructions","Screen 12","1a4vu2",5,"continue","",12925.8000000238,12917,12925.8000000238,12925.8000000238,12917,12925.8000000238,1,12925.8000000238,0,0,NA,"Click To Continue","Continue Button",2,"object-2466","Task Instructions",NA,"SUPPRF02345"
"7",1712966025811,"12/04/2024 23:53:45",1712969625811,1,"13/04/2024 01:53:45",175580,1,"task-kvtv",NA,36982733,10906959,NA,"complete",NA,"6619c3da4c9028ec3bdac938","computer","Desktop or Laptop","Mac OS 10.15.7","Chrome 123.0.0.0","1440x900","1440x779",NA,NA,0,"Task Introduction and Instructions (re-introduce video and audio) (Clone) (Clone)",2,"FGEHDICJBKA","Passed AC2","","Spreadsheet1","Spreadsheet1",1,"Task Instructions","Screen 13","q9vwda",6,"continue","",7026.2,7016.59999999999,7026.2,7026.2,7016.59999999999,7026.2,1,7026.2,0,0,NA,"Click To Continue","Continue Button",2,"object-2989","Task Instructions",NA,"SUPPRF02345"
"8",1712966031702,"12/04/2024 23:53:51",1712969631702,1,"13/04/2024 01:53:51",175580,1,"task-kvtv",NA,36982733,10906959,NA,"complete",NA,"6619c3da4c9028ec3bdac938","computer","Desktop or Laptop","Mac OS 10.15.7","Chrome 123.0.0.0","1440x900","1440x779",NA,NA,0,"Task Introduction and Instructions (re-introduce video and audio) (Clone) (Clone)",2,"FGEHDICJBKA","Passed AC2","","Spreadsheet1","Spreadsheet1",1,"Task Instructions","Screen 11","oyulb7",7,"continue","",5900.8,5884.10000000001,5900.8,5900.8,5884.10000000001,5900.8,1,5900.8,0,0,NA,"Click To Continue","Continue Button",2,"object-52","Task Instructions",NA,"SUPPRF02345"
"9",1712966034563,"12/04/2024 23:53:54",1712969634563,1,"13/04/2024 01:53:54",175580,1,"task-kvtv",NA,36982733,10906959,NA,"complete",NA,"6619c3da4c9028ec3bdac938","computer","Desktop or Laptop","Mac OS 10.15.7","Chrome 123.0.0.0","1440x900","1440x779",NA,NA,0,"Task Introduction and Instructions (re-introduce video and audio) (Clone) (Clone)",2,"FGEHDICJBKA","Passed AC2","","Spreadsheet1","Spreadsheet1",1,"Task Instructions","Screen 5","8nvnao",8,"continue","",2877.40000000596,2866.8,2877.40000000596,2877.40000000596,2866.8,2877.40000000596,1,2877.40000000596,0,0,NA,"Click To Continue","Continue Button",2,"object-44","Task Instructions",NA,"SUPPRF02345"
"10",1712966034566,"12/04/2024 23:53:54",1712969634566,1,"13/04/2024 01:53:54",175580,1,"task-kvtv",NA,36982733,10906959,NA,"complete",NA,"6619c3da4c9028ec3bdac938","computer","Desktop or Laptop","Mac OS 10.15.7","Chrome 123.0.0.0","1440x900","1440x779",NA,NA,0,"Task Introduction and Instructions (re-introduce video and audio) (Clone) (Clone)",2,"FGEHDICJBKA","Passed AC2","","Spreadsheet1","Spreadsheet1",NA,"","","",NA,"5","END",NA,NA,NA,NA,NA,NA,0,NA,NA,NA,NA,"","",NA,"","",NA,"SUPPRF02345"
"1",1712968052256,"13/04/2024 00:27:32",1712942852256,-7,"12/04/2024 10:27:32",175580,1,"task-kvtv",NA,36982954,10907023,NA,"complete",NA,"6619cd0add1bd65b560d88c3","computer","Desktop or Laptop","Windows 10","Chrome 123.0.0.0","1368x912","1368x824",NA,NA,0,"Task Introduction and Instructions (re-introduce video and audio) (Clone) (Clone)",2,"GHFIEJDKCAB","Passed AC2","","Spreadsheet1","Spreadsheet1",NA,"","","",NA,"5","BEGIN",NA,NA,NA,NA,NA,NA,0,NA,NA,NA,NA,"","",NA,"","",NA,"SUPPRF06489"
"2",1712968056350,"13/04/2024 00:27:36",1712942856350,-7,"12/04/2024 10:27:36",175580,1,"task-kvtv",NA,36982954,10907023,NA,"complete",NA,"6619cd0add1bd65b560d88c3","computer","Desktop or Laptop","Windows 10","Chrome 123.0.0.0","1368x912","1368x824",NA,NA,0,"Task Introduction and Instructions (re-introduce video and audio) (Clone) (Clone)",2,"GHFIEJDKCAB","Passed AC2","","Spreadsheet1","Spreadsheet1",1,"Task Instructions","Screen 1","anr7sn",1,"continue","",3234.40000000596,3217.8,3234.40000000596,3234.40000000596,3217.8,3234.40000000596,1,3234.40000000596,0,0,NA,"Click To Continue","Continue Button",3,"object-60","Task Instructions",NA,"SUPPRF06489"
"3",1712968059363,"13/04/2024 00:27:39",1712942859363,-7,"12/04/2024 10:27:39",175580,1,"task-kvtv",NA,36982954,10907023,NA,"complete",NA,"6619cd0add1bd65b560d88c3","computer","Desktop or Laptop","Windows 10","Chrome 123.0.0.0","1368x912","1368x824",NA,NA,0,"Task Introduction and Instructions (re-introduce video and audio) (Clone) (Clone)",2,"GHFIEJDKCAB","Passed AC2","","Spreadsheet1","Spreadsheet1",1,"Task Instructions","Screen 4","spepx9",2,"continue","",3029.40000000298,3017.9,3029.40000000298,3029.40000000298,3017.9,3029.40000000298,1,3029.40000000298,0,0,NA,"Click To Continue","Continue Button",2,"object-9","Task Instructions",NA,"SUPPRF06489"
"4",1712968071055,"13/04/2024 00:27:51",1712942871055,-7,"12/04/2024 10:27:51",175580,1,"task-kvtv",NA,36982954,10907023,NA,"complete",NA,"6619cd0add1bd65b560d88c3","computer","Desktop or Laptop","Windows 10","Chrome 123.0.0.0","1368x912","1368x824",NA,NA,0,"Task Introduction and Instructions (re-introduce video and audio) (Clone) (Clone)",2,"GHFIEJDKCAB","Passed AC2","","Spreadsheet1","Spreadsheet1",1,"Task Instructions","Screen 2","ce2tc8",3,"continue","",11703.4000000089,11690.4,11703.4000000089,11703.4000000089,11690.4,11703.4000000089,1,11703.4000000089,0,0,NA,"Click To Continue","Continue Button",3,"object-59","Task Instructions",NA,"SUPPRF06489"
"5",1712968079640,"13/04/2024 00:27:59",1712942879640,-7,"12/04/2024 10:27:59",175580,1,"task-kvtv",NA,36982954,10907023,NA,"complete",NA,"6619cd0add1bd65b560d88c3","computer","Desktop or Laptop","Windows 10","Chrome 123.0.0.0","1368x912","1368x824",NA,NA,0,"Task Introduction and Instructions (re-introduce video and audio) (Clone) (Clone)",2,"GHFIEJDKCAB","Passed AC2","","Spreadsheet1","Spreadsheet1",1,"Task Instructions","Screen 3","1qtc8v",4,"continue","",8598.69999999702,8590.9,8598.69999999702,8598.69999999702,8590.9,8598.69999999702,1,8598.69999999702,0,0,NA,"Click To Continue","Continue Button",2,"object-2983","Task Instructions",NA,"SUPPRF06489"
"6",1712968086399,"13/04/2024 00:28:06",1712942886399,-7,"12/04/2024 10:28:06",175580,1,"task-kvtv",NA,36982954,10907023,NA,"complete",NA,"6619cd0add1bd65b560d88c3","computer","Desktop or Laptop","Windows 10","Chrome 123.0.0.0","1368x912","1368x824",NA,NA,0,"Task Introduction and Instructions (re-introduce video and audio) (Clone) (Clone)",2,"GHFIEJDKCAB","Passed AC2","","Spreadsheet1","Spreadsheet1",1,"Task Instructions","Screen 12","1a4vu2",5,"continue","",6766.70000000298,6752.8,6766.70000000298,6766.70000000298,6752.8,6766.70000000298,1,6766.70000000298,0,0,NA,"Click To Continue","Continue Button",2,"object-2466","Task Instructions",NA,"SUPPRF06489"
"7",1712968096635,"13/04/2024 00:28:16",1712942896635,-7,"12/04/2024 10:28:16",175580,1,"task-kvtv",NA,36982954,10907023,NA,"complete",NA,"6619cd0add1bd65b560d88c3","computer","Desktop or Laptop","Windows 10","Chrome 123.0.0.0","1368x912","1368x824",NA,NA,0,"Task Introduction and Instructions (re-introduce video and audio) (Clone) (Clone)",2,"GHFIEJDKCAB","Passed AC2","","Spreadsheet1","Spreadsheet1",1,"Task Instructions","Screen 13","q9vwda",6,"continue","",10249.600000006,10244.8,10249.600000006,10249.600000006,10244.8,10249.600000006,1,10249.600000006,0,0,NA,"Click To Continue","Continue Button",2,"object-2989","Task Instructions",NA,"SUPPRF06489"
"8",1712968102227,"13/04/2024 00:28:22",1712942902227,-7,"12/04/2024 10:28:22",175580,1,"task-kvtv",NA,36982954,10907023,NA,"complete",NA,"6619cd0add1bd65b560d88c3","computer","Desktop or Laptop","Windows 10","Chrome 123.0.0.0","1368x912","1368x824",NA,NA,0,"Task Introduction and Instructions (re-introduce video and audio) (Clone) (Clone)",2,"GHFIEJDKCAB","Passed AC2","","Spreadsheet1","Spreadsheet1",1,"Task Instructions","Screen 11","oyulb7",7,"continue","",5596.60000000298,5587.3,5596.60000000298,5596.60000000298,5587.3,5596.60000000298,1,5596.60000000298,0,0,NA,"Click To Continue","Continue Button",2,"object-52","Task Instructions",NA,"SUPPRF06489"
