"Event.Index","UTC.Timestamp","UTC.Date.and.Time","Local.Timestamp","Local.Timezone","Local.Date.and.Time","Experiment.ID","Experiment.Version","Tree.Node.Key","Repeat.Key","Schedule.ID","Participant.Private.ID","Participant.Starting.Group","Participant.Status","Participant.Completion.Code","Participant.External.Session.ID","Participant.Device.Type","Participant.Device","Participant.OS","Participant.Browser","Participant.Monitor.Size","Participant.Viewport.Size","Checkpoint","Room.ID","Room.Order","Task.Name","Task.Version","order.ot79","branch.g31k","branch.5gtn","Spreadsheet","Trial.Number","Display","Screen","Screen.ID","Screen.Counter","Response.Type","Response","Onset.Time","Clock.Time","Reaction.Time","Absolute.Onset.Time","Absolute.Clock.Time","Absolute.Reaction.Time","Correct","Response.Onset","Response.Duration","Proportion","Tag","Component.Name","Object.Name","Object.Number","Object.ID","Spreadsheet..display","Manipulation..Spreadsheet","Random_ID"
"1",1700677102089,"22/11/2023 18:18:22",1700677102089,0,"22/11/2023 18:18:22",151512,7,"task-gjqt",NA,33140335,9813252,NA,"complete",NA,"655e43a8d5167a59c54d7e70","computer","Desktop or Laptop","Mac OS 10.15.7","Chrome 115.0.0.0","1366x768","1366x683",NA,NA,0,"BIQ (Charlotte)",3,"CDBEAFJGIH","Passed AC2","","Spreadsheet1",NA,"","","",NA,"5","BEGIN",NA,NA,NA,NA,NA,NA,0,NA,NA,NA,NA,"","",NA,"","",NA,"SUPPRF61705"
"2",1700677134223,"22/11/2023 18:18:54",1700677134223,0,"22/11/2023 18:18:54",151512,7,"task-gjqt",NA,33140335,9813252,NA,"complete",NA,"655e43a8d5167a59c54d7e70","computer","Desktop or Laptop","Mac OS 10.15.7","Chrome 115.0.0.0","1366x768","1366x683",NA,NA,0,"BIQ (Charlotte)",3,"CDBEAFJGIH","Passed AC2","","Spreadsheet1",1,"BIQ","Screen 1","9dh6eq",1,"continue","",32149.893,32133.227,32149.893,32149.893,32133.227,32149.893,1,32149.893,0,0,NA,"Click To Continue","Continue Button",23,"object-48","BIQ",NA,"SUPPRF61705"
"3",1700677134227,"22/11/2023 18:18:54",1700677134227,0,"22/11/2023 18:18:54",151512,7,"task-gjqt",NA,33140335,9813252,NA,"complete",NA,"655e43a8d5167a59c54d7e70","computer","Desktop or Laptop","Mac OS 10.15.7","Chrome 115.0.0.0","1366x768","1366x683",NA,NA,0,"BIQ (Charlotte)",3,"CDBEAFJGIH","Passed AC2","","Spreadsheet1",1,"BIQ","Screen 1","9dh6eq",1,"response","0",18016.769,32133.227,32149.893,18016.769,32133.227,32149.893,1,18016.769,14133.124,0,NA,"Rating Scale","Rating Scale",3,"object-5","BIQ",NA,"SUPPRF61705"
"4",1700677134227,"22/11/2023 18:18:54",1700677134227,0,"22/11/2023 18:18:54",151512,7,"task-gjqt",NA,33140335,9813252,NA,"complete",NA,"655e43a8d5167a59c54d7e70","computer","Desktop or Laptop","Mac OS 10.15.7","Chrome 115.0.0.0","1366x768","1366x683",NA,NA,0,"BIQ (Charlotte)",3,"CDBEAFJGIH","Passed AC2","","Spreadsheet1",1,"BIQ","Screen 1","9dh6eq",1,"response","3",23633.567,32133.227,32149.893,23633.567,32133.227,32149.893,1,23633.567,8516.326,0,NA,"Rating Scale","Rating Scale",10,"object-18","BIQ",NA,"SUPPRF61705"
"5",1700677134228,"22/11/2023 18:18:54",1700677134228,0,"22/11/2023 18:18:54",151512,7,"task-gjqt",NA,33140335,9813252,NA,"complete",NA,"655e43a8d5167a59c54d7e70","computer","Desktop or Laptop","Mac OS 10.15.7","Chrome 115.0.0.0","1366x768","1366x683",NA,NA,0,"BIQ (Charlotte)",3,"CDBEAFJGIH","Passed AC2","","Spreadsheet1",1,"BIQ","Screen 1","9dh6eq",1,"response","6",29649.993,32133.227,32149.893,29649.993,32133.227,32149.893,1,29649.993,2499.9,0,NA,"Rating Scale","Rating Scale",17,"object-80","BIQ",NA,"SUPPRF61705"
"6",1700677165013,"22/11/2023 18:19:25",1700677165013,0,"22/11/2023 18:19:25",151512,7,"task-gjqt",NA,33140335,9813252,NA,"complete",NA,"655e43a8d5167a59c54d7e70","computer","Desktop or Laptop","Mac OS 10.15.7","Chrome 115.0.0.0","1366x768","1366x683",NA,NA,0,"BIQ (Charlotte)",3,"CDBEAFJGIH","Passed AC2","","Spreadsheet1",1,"BIQ","Screen 2","o21mwi",2,"continue","",30816.2420001431,30800.055,30816.2420001431,30816.2420001431,30800.055,30816.2420001431,1,30816.2420001431,0,0,NA,"Click To Continue","Continue Button",22,"object-50","BIQ",NA,"SUPPRF61705"
"7",1700677165018,"22/11/2023 18:19:25",1700677165018,0,"22/11/2023 18:19:25",151512,7,"task-gjqt",NA,33140335,9813252,NA,"complete",NA,"655e43a8d5167a59c54d7e70","computer","Desktop or Laptop","Mac OS 10.15.7","Chrome 115.0.0.0","1366x768","1366x683",NA,NA,0,"BIQ (Charlotte)",3,"CDBEAFJGIH","Passed AC2","","Spreadsheet1",1,"BIQ","Screen 2","o21mwi",2,"response","3",7300.172,30800.055,30816.721,7300.172,30800.055,30816.721,1,7300.172,23516.549,0,NA,"Rating Scale","Rating Scale",2,"object-259","BIQ",NA,"SUPPRF61705"
"8",1700677165018,"22/11/2023 18:19:25",1700677165018,0,"22/11/2023 18:19:25",151512,7,"task-gjqt",NA,33140335,9813252,NA,"complete",NA,"655e43a8d5167a59c54d7e70","computer","Desktop or Laptop","Mac OS 10.15.7","Chrome 115.0.0.0","1366x768","1366x683",NA,NA,0,"BIQ (Charlotte)",3,"CDBEAFJGIH","Passed AC2","","Spreadsheet1",1,"BIQ","Screen 2","o21mwi",2,"response","7",15400.212,30800.055,30816.721,15400.212,30800.055,30816.721,1,15400.212,15416.509,0,NA,"Rating Scale","Rating Scale",9,"object-36","BIQ",NA,"SUPPRF61705"
"9",1700677165019,"22/11/2023 18:19:25",1700677165019,0,"22/11/2023 18:19:25",151512,7,"task-gjqt",NA,33140335,9813252,NA,"complete",NA,"655e43a8d5167a59c54d7e70","computer","Desktop or Laptop","Mac OS 10.15.7","Chrome 115.0.0.0","1366x768","1366x683",NA,NA,0,"BIQ (Charlotte)",3,"CDBEAFJGIH","Passed AC2","","Spreadsheet1",1,"BIQ","Screen 2","o21mwi",2,"response","6",30033.419,30800.055,30816.721,30033.419,30800.055,30816.721,1,30033.419,783.301999999996,0,NA,"Rating Scale","Rating Scale",16,"object-86","BIQ",NA,"SUPPRF61705"
"10",1700677190885,"22/11/2023 18:19:50",1700677190885,0,"22/11/2023 18:19:50",151512,7,"task-gjqt",NA,33140335,9813252,NA,"complete",NA,"655e43a8d5167a59c54d7e70","computer","Desktop or Laptop","Mac OS 10.15.7","Chrome 115.0.0.0","1366x768","1366x683",NA,NA,0,"BIQ (Charlotte)",3,"CDBEAFJGIH","Passed AC2","","Spreadsheet1",1,"BIQ","Screen 3","iz3the",3,"continue","",25886.8870001907,25883.479,25886.8870001907,25886.8870001907,25883.479,25886.8870001907,1,25886.8870001907,0,0,NA,"Click To Continue","Continue Button",22,"object-73","BIQ",NA,"SUPPRF61705"
"11",1700677190889,"22/11/2023 18:19:50",1700677190889,0,"22/11/2023 18:19:50",151512,7,"task-gjqt",NA,33140335,9813252,NA,"complete",NA,"655e43a8d5167a59c54d7e70","computer","Desktop or Laptop","Mac OS 10.15.7","Chrome 115.0.0.0","1366x768","1366x683",NA,NA,0,"BIQ (Charlotte)",3,"CDBEAFJGIH","Passed AC2","","Spreadsheet1",1,"BIQ","Screen 3","iz3the",3,"response","3",13633.559,25883.479,25890.8870001907,13633.559,25883.479,25890.8870001907,1,13633.559,12257.3280001907,0,NA,"Rating Scale","Rating Scale",2,"object-53","BIQ",NA,"SUPPRF61705"
"12",1700677190890,"22/11/2023 18:19:50",1700677190890,0,"22/11/2023 18:19:50",151512,7,"task-gjqt",NA,33140335,9813252,NA,"complete",NA,"655e43a8d5167a59c54d7e70","computer","Desktop or Laptop","Mac OS 10.15.7","Chrome 115.0.0.0","1366x768","1366x683",NA,NA,0,"BIQ (Charlotte)",3,"CDBEAFJGIH","Passed AC2","","Spreadsheet1",1,"BIQ","Screen 3","iz3the",3,"response","5",18883.349,25883.479,25891.9870000954,18883.349,25883.479,25891.9870000954,1,18883.349,7008.63800009536,0,NA,"Rating Scale","Rating Scale",9,"object-60","BIQ",NA,"SUPPRF61705"
"13",1700677190890,"22/11/2023 18:19:50",1700677190890,0,"22/11/2023 18:19:50",151512,7,"task-gjqt",NA,33140335,9813252,NA,"complete",NA,"655e43a8d5167a59c54d7e70","computer","Desktop or Laptop","Mac OS 10.15.7","Chrome 115.0.0.0","1366x768","1366x683",NA,NA,0,"BIQ (Charlotte)",3,"CDBEAFJGIH","Passed AC2","","Spreadsheet1",1,"BIQ","Screen 3","iz3the",3,"response","6",24716.859,25883.479,25892.7870000477,24716.859,25883.479,25892.7870000477,1,24716.859,1175.92800004769,0,NA,"Rating Scale","Rating Scale",16,"object-67","BIQ",NA,"SUPPRF61705"
"14",1700677190897,"22/11/2023 18:19:50",1700677190897,0,"22/11/2023 18:19:50",151512,7,"task-gjqt",NA,33140335,9813252,NA,"complete",NA,"655e43a8d5167a59c54d7e70","computer","Desktop or Laptop","Mac OS 10.15.7","Chrome 115.0.0.0","1366x768","1366x683",NA,NA,0,"BIQ (Charlotte)",3,"CDBEAFJGIH","Passed AC2","","Spreadsheet1",NA,"","","",NA,"5","END",NA,NA,NA,NA,NA,NA,0,NA,NA,NA,NA,"","",NA,"","",NA,"SUPPRF61705"
"1",1700677440076,"22/11/2023 18:24:00",1700677440076,0,"22/11/2023 18:24:00",151512,7,"task-gjqt",NA,33140585,9813364,NA,"complete",NA,"655e4392238c069fd97b2ec2","computer","Desktop or Laptop","Windows 10","Chrome 119.0.0.0","1536x864","1536x747",NA,NA,0,"BIQ (Charlotte)",3,"EFDGCHBIAJ","Passed AC2","","Spreadsheet1",NA,"","","",NA,"5","BEGIN",NA,NA,NA,NA,NA,NA,0,NA,NA,NA,NA,"","",NA,"","",NA,"SUPPRF88145"
"2",1700677465296,"22/11/2023 18:24:25",1700677465296,0,"22/11/2023 18:24:25",151512,7,"task-gjqt",NA,33140585,9813364,NA,"complete",NA,"655e4392238c069fd97b2ec2","computer","Desktop or Laptop","Windows 10","Chrome 119.0.0.0","1536x864","1536x747",NA,NA,0,"BIQ (Charlotte)",3,"EFDGCHBIAJ","Passed AC2","","Spreadsheet1",1,"BIQ","Screen 1","9dh6eq",1,"continue","",25226.342,25209.714,25226.342,25226.342,25209.714,25226.342,1,25226.342,0,0,NA,"Click To Continue","Continue Button",23,"object-48","BIQ",NA,"SUPPRF88145"
"3",1700677465302,"22/11/2023 18:24:25",1700677465302,0,"22/11/2023 18:24:25",151512,7,"task-gjqt",NA,33140585,9813364,NA,"complete",NA,"655e4392238c069fd97b2ec2","computer","Desktop or Laptop","Windows 10","Chrome 119.0.0.0","1536x864","1536x747",NA,NA,0,"BIQ (Charlotte)",3,"EFDGCHBIAJ","Passed AC2","","Spreadsheet1",1,"BIQ","Screen 1","9dh6eq",1,"response","4",12613.085,25209.714,25226.342,12613.085,25209.714,25226.342,1,12613.085,12613.257,0,NA,"Rating Scale","Rating Scale",3,"object-5","BIQ",NA,"SUPPRF88145"
"4",1700677465303,"22/11/2023 18:24:25",1700677465303,0,"22/11/2023 18:24:25",151512,7,"task-gjqt",NA,33140585,9813364,NA,"complete",NA,"655e4392238c069fd97b2ec2","computer","Desktop or Laptop","Windows 10","Chrome 119.0.0.0","1536x864","1536x747",NA,NA,0,"BIQ (Charlotte)",3,"EFDGCHBIAJ","Passed AC2","","Spreadsheet1",1,"BIQ","Screen 1","9dh6eq",1,"response","0",16507.073,25209.714,25226.342,16507.073,25209.714,25226.342,1,16507.073,8719.269,0,NA,"Rating Scale","Rating Scale",10,"object-18","BIQ",NA,"SUPPRF88145"
"5",1700677465303,"22/11/2023 18:24:25",1700677465303,0,"22/11/2023 18:24:25",151512,7,"task-gjqt",NA,33140585,9813364,NA,"complete",NA,"655e4392238c069fd97b2ec2","computer","Desktop or Laptop","Windows 10","Chrome 119.0.0.0","1536x864","1536x747",NA,NA,0,"BIQ (Charlotte)",3,"EFDGCHBIAJ","Passed AC2","","Spreadsheet1",1,"BIQ","Screen 1","9dh6eq",1,"response","6",21449.202,25209.714,25226.342,21449.202,25209.714,25226.342,1,21449.202,3777.14,0,NA,"Rating Scale","Rating Scale",17,"object-80","BIQ",NA,"SUPPRF88145"
"6",1700677486335,"22/11/2023 18:24:46",1700677486335,0,"22/11/2023 18:24:46",151512,7,"task-gjqt",NA,33140585,9813364,NA,"complete",NA,"655e4392238c069fd97b2ec2","computer","Desktop or Laptop","Windows 10","Chrome 119.0.0.0","1536x864","1536x747",NA,NA,0,"BIQ (Charlotte)",3,"EFDGCHBIAJ","Passed AC2","","Spreadsheet1",1,"BIQ","Screen 2","o21mwi",2,"continue","",21070.432,21066.314,21070.432,21070.432,21066.314,21070.432,1,21070.432,0,0,NA,"Click To Continue","Continue Button",22,"object-50","BIQ",NA,"SUPPRF88145"
"7",1700677486340,"22/11/2023 18:24:46",1700677486340,0,"22/11/2023 18:24:46",151512,7,"task-gjqt",NA,33140585,9813364,NA,"complete",NA,"655e4392238c069fd97b2ec2","computer","Desktop or Laptop","Windows 10","Chrome 119.0.0.0","1536x864","1536x747",NA,NA,0,"BIQ (Charlotte)",3,"EFDGCHBIAJ","Passed AC2","","Spreadsheet1",1,"BIQ","Screen 2","o21mwi",2,"response","2",5224.884,21066.314,21074.1319999881,5224.884,21066.314,21074.1319999881,1,5224.884,15849.2479999881,0,NA,"Rating Scale","Rating Scale",2,"object-259","BIQ",NA,"SUPPRF88145"
"8",1700677486341,"22/11/2023 18:24:46",1700677486341,0,"22/11/2023 18:24:46",151512,7,"task-gjqt",NA,33140585,9813364,NA,"complete",NA,"655e4392238c069fd97b2ec2","computer","Desktop or Laptop","Windows 10","Chrome 119.0.0.0","1536x864","1536x747",NA,NA,0,"BIQ (Charlotte)",3,"EFDGCHBIAJ","Passed AC2","","Spreadsheet1",1,"BIQ","Screen 2","o21mwi",2,"response","2",10782.811,21066.314,21076.031999994,10782.811,21066.314,21076.031999994,1,10782.811,10293.220999994,0,NA,"Rating Scale","Rating Scale",9,"object-36","BIQ",NA,"SUPPRF88145"
"9",1700677486341,"22/11/2023 18:24:46",1700677486341,0,"22/11/2023 18:24:46",151512,7,"task-gjqt",NA,33140585,9813364,NA,"complete",NA,"655e4392238c069fd97b2ec2","computer","Desktop or Laptop","Windows 10","Chrome 119.0.0.0","1536x864","1536x747",NA,NA,0,"BIQ (Charlotte)",3,"EFDGCHBIAJ","Passed AC2","","Spreadsheet1",1,"BIQ","Screen 2","o21mwi",2,"response","4",18636.759,21066.314,21076.8319999762,18636.759,21066.314,21076.8319999762,1,18636.759,2440.07299997616,0,NA,"Rating Scale","Rating Scale",16,"object-86","BIQ",NA,"SUPPRF88145"
"10",1700677504356,"22/11/2023 18:25:04",1700677504356,0,"22/11/2023 18:25:04",151512,7,"task-gjqt",NA,33140585,9813364,NA,"complete",NA,"655e4392238c069fd97b2ec2","computer","Desktop or Laptop","Windows 10","Chrome 119.0.0.0","1536x864","1536x747",NA,NA,0,"BIQ (Charlotte)",3,"EFDGCHBIAJ","Passed AC2","","Spreadsheet1",1,"BIQ","Screen 3","iz3the",3,"continue","",18020.981,18004.462,18020.981,18020.981,18004.462,18020.981,1,18020.981,0,0,NA,"Click To Continue","Continue Button",22,"object-73","BIQ",NA,"SUPPRF88145"
"11",1700677504372,"22/11/2023 18:25:04",1700677504372,0,"22/11/2023 18:25:04",151512,7,"task-gjqt",NA,33140585,9813364,NA,"complete",NA,"655e4392238c069fd97b2ec2","computer","Desktop or Laptop","Windows 10","Chrome 119.0.0.0","1536x864","1536x747",NA,NA,0,"BIQ (Charlotte)",3,"EFDGCHBIAJ","Passed AC2","","Spreadsheet1",1,"BIQ","Screen 3","iz3the",3,"response","8",6240.055,18004.462,18020.981,6240.055,18004.462,18020.981,1,6240.055,11780.926,0,NA,"Rating Scale","Rating Scale",2,"object-53","BIQ",NA,"SUPPRF88145"
"12",1700677504374,"22/11/2023 18:25:04",1700677504374,0,"22/11/2023 18:25:04",151512,7,"task-gjqt",NA,33140585,9813364,NA,"complete",NA,"655e4392238c069fd97b2ec2","computer","Desktop or Laptop","Windows 10","Chrome 119.0.0.0","1536x864","1536x747",NA,NA,0,"BIQ (Charlotte)",3,"EFDGCHBIAJ","Passed AC2","","Spreadsheet1",1,"BIQ","Screen 3","iz3the",3,"response","6",13578.163,18004.462,18020.981,13578.163,18004.462,18020.981,1,13578.163,4442.818,0,NA,"Rating Scale","Rating Scale",9,"object-60","BIQ",NA,"SUPPRF88145"
"13",1700677504376,"22/11/2023 18:25:04",1700677504376,0,"22/11/2023 18:25:04",151512,7,"task-gjqt",NA,33140585,9813364,NA,"complete",NA,"655e4392238c069fd97b2ec2","computer","Desktop or Laptop","Windows 10","Chrome 119.0.0.0","1536x864","1536x747",NA,NA,0,"BIQ (Charlotte)",3,"EFDGCHBIAJ","Passed AC2","","Spreadsheet1",1,"BIQ","Screen 3","iz3the",3,"response","6",16773.184,18004.462,18020.981,16773.184,18004.462,18020.981,1,16773.184,1247.797,0,NA,"Rating Scale","Rating Scale",16,"object-67","BIQ",NA,"SUPPRF88145"
"14",1700677504392,"22/11/2023 18:25:04",1700677504392,0,"22/11/2023 18:25:04",151512,7,"task-gjqt",NA,33140585,9813364,NA,"complete",NA,"655e4392238c069fd97b2ec2","computer","Desktop or Laptop","Windows 10","Chrome 119.0.0.0","1536x864","1536x747",NA,NA,0,"BIQ (Charlotte)",3,"EFDGCHBIAJ","Passed AC2","","Spreadsheet1",NA,"","","",NA,"5","END",NA,NA,NA,NA,NA,NA,0,NA,NA,NA,NA,"","",NA,"","",NA,"SUPPRF88145"
"1",1700677572851,"22/11/2023 18:26:12",1700677572851,0,"22/11/2023 18:26:12",151512,7,"task-gjqt",NA,33140663,9813318,NA,"complete",NA,"655e456d3a127b54be513454","computer","Desktop or Laptop","Mac OS 10.15.7","Chrome 119.0.0.0","1440x900","1440x783",NA,NA,0,"BIQ (Charlotte)",3,"DECFBGAHJI","Passed AC2","","Spreadsheet1",NA,"","","",NA,"5","BEGIN",NA,NA,NA,NA,NA,NA,0,NA,NA,NA,NA,"","",NA,"","",NA,"SUPPRF47953"
"2",1700677633976,"22/11/2023 18:27:13",1700677633976,0,"22/11/2023 18:27:13",151512,7,"task-gjqt",NA,33140663,9813318,NA,"complete",NA,"655e456d3a127b54be513454","computer","Desktop or Laptop","Mac OS 10.15.7","Chrome 119.0.0.0","1440x900","1440x783",NA,NA,0,"BIQ (Charlotte)",3,"DECFBGAHJI","Passed AC2","","Spreadsheet1",1,"BIQ","Screen 1","9dh6eq",1,"continue","",61141.870000006,61132.725,61141.870000006,61141.870000006,61132.725,61141.870000006,1,61141.870000006,0,0,NA,"Click To Continue","Continue Button",23,"object-48","BIQ",NA,"SUPPRF47953"
"3",1700677633978,"22/11/2023 18:27:13",1700677633978,0,"22/11/2023 18:27:13",151512,7,"task-gjqt",NA,33140663,9813318,NA,"complete",NA,"655e456d3a127b54be513454","computer","Desktop or Laptop","Mac OS 10.15.7","Chrome 119.0.0.0","1440x900","1440x783",NA,NA,0,"BIQ (Charlotte)",3,"DECFBGAHJI","Passed AC2","","Spreadsheet1",1,"BIQ","Screen 1","9dh6eq",1,"response","2",46799.441,61132.725,61145.47,46799.441,61132.725,61145.47,1,46799.441,14346.029,0,NA,"Rating Scale","Rating Scale",3,"object-5","BIQ",NA,"SUPPRF47953"
"4",1700677633979,"22/11/2023 18:27:13",1700677633979,0,"22/11/2023 18:27:13",151512,7,"task-gjqt",NA,33140663,9813318,NA,"complete",NA,"655e456d3a127b54be513454","computer","Desktop or Laptop","Mac OS 10.15.7","Chrome 119.0.0.0","1440x900","1440x783",NA,NA,0,"BIQ (Charlotte)",3,"DECFBGAHJI","Passed AC2","","Spreadsheet1",1,"BIQ","Screen 1","9dh6eq",1,"response","2",54516.061,61132.725,61145.870000006,54516.061,61132.725,61145.870000006,1,54516.061,6629.80900000596,0,NA,"Rating Scale","Rating Scale",10,"object-18","BIQ",NA,"SUPPRF47953"
"5",1700677633979,"22/11/2023 18:27:13",1700677633979,0,"22/11/2023 18:27:13",151512,7,"task-gjqt",NA,33140663,9813318,NA,"complete",NA,"655e456d3a127b54be513454","computer","Desktop or Laptop","Mac OS 10.15.7","Chrome 119.0.0.0","1440x900","1440x783",NA,NA,0,"BIQ (Charlotte)",3,"DECFBGAHJI","Passed AC2","","Spreadsheet1",1,"BIQ","Screen 1","9dh6eq",1,"response","4",58549.233,61132.725,61146.269999997,58549.233,61132.725,61146.269999997,1,58549.233,2597.03699999702,0,NA,"Rating Scale","Rating Scale",17,"object-80","BIQ",NA,"SUPPRF47953"
"6",1700677649825,"22/11/2023 18:27:29",1700677649825,0,"22/11/2023 18:27:29",151512,7,"task-gjqt",NA,33140663,9813318,NA,"complete",NA,"655e456d3a127b54be513454","computer","Desktop or Laptop","Mac OS 10.15.7","Chrome 119.0.0.0","1440x900","1440x783",NA,NA,0,"BIQ (Charlotte)",3,"DECFBGAHJI","Passed AC2","","Spreadsheet1",1,"BIQ","Screen 2","o21mwi",2,"continue","",15859.445000003,15849.629,15859.445000003,15859.445000003,15849.629,15859.445000003,1,15859.445000003,0,0,NA,"Click To Continue","Continue Button",22,"object-50","BIQ",NA,"SUPPRF47953"
"7",1700677649830,"22/11/2023 18:27:29",1700677649830,0,"22/11/2023 18:27:29",151512,7,"task-gjqt",NA,33140663,9813318,NA,"complete",NA,"655e456d3a127b54be513454","computer","Desktop or Laptop","Mac OS 10.15.7","Chrome 119.0.0.0","1440x900","1440x783",NA,NA,0,"BIQ (Charlotte)",3,"DECFBGAHJI","Passed AC2","","Spreadsheet1",1,"BIQ","Screen 2","o21mwi",2,"response","3",4116.502,15849.629,15864.044999997,4116.502,15849.629,15864.044999997,1,4116.502,11747.542999997,0,NA,"Rating Scale","Rating Scale",2,"object-259","BIQ",NA,"SUPPRF47953"
"8",1700677649831,"22/11/2023 18:27:29",1700677649831,0,"22/11/2023 18:27:29",151512,7,"task-gjqt",NA,33140663,9813318,NA,"complete",NA,"655e456d3a127b54be513454","computer","Desktop or Laptop","Mac OS 10.15.7","Chrome 119.0.0.0","1440x900","1440x783",NA,NA,0,"BIQ (Charlotte)",3,"DECFBGAHJI","Passed AC2","","Spreadsheet1",1,"BIQ","Screen 2","o21mwi",2,"response","4",7066.384,15849.629,15864.945000003,7066.384,15849.629,15864.945000003,1,7066.384,8798.56100000298,0,NA,"Rating Scale","Rating Scale",9,"object-36","BIQ",NA,"SUPPRF47953"
"9",1700677649832,"22/11/2023 18:27:29",1700677649832,0,"22/11/2023 18:27:29",151512,7,"task-gjqt",NA,33140663,9813318,NA,"complete",NA,"655e456d3a127b54be513454","computer","Desktop or Laptop","Mac OS 10.15.7","Chrome 119.0.0.0","1440x900","1440x783",NA,NA,0,"BIQ (Charlotte)",3,"DECFBGAHJI","Passed AC2","","Spreadsheet1",1,"BIQ","Screen 2","o21mwi",2,"response","6",15032.995,15849.629,15865.8450000089,15032.995,15849.629,15865.8450000089,1,15032.995,832.850000008941,0,NA,"Rating Scale","Rating Scale",16,"object-86","BIQ",NA,"SUPPRF47953"
"10",1700677713070,"22/11/2023 18:28:33",1700677713070,0,"22/11/2023 18:28:33",151512,7,"task-gjqt",NA,33140663,9813318,NA,"complete",NA,"655e456d3a127b54be513454","computer","Desktop or Laptop","Mac OS 10.15.7","Chrome 119.0.0.0","1440x900","1440x783",NA,NA,0,"BIQ (Charlotte)",3,"DECFBGAHJI","Passed AC2","","Spreadsheet1",1,"BIQ","Screen 3","iz3the",3,"continue","",63252.616,63249.045,63252.616,63252.616,63249.045,63252.616,1,63252.616,0,0,NA,"Click To Continue","Continue Button",22,"object-73","BIQ",NA,"SUPPRF47953"
"11",1700677713073,"22/11/2023 18:28:33",1700677713073,0,"22/11/2023 18:28:33",151512,7,"task-gjqt",NA,33140663,9813318,NA,"complete",NA,"655e456d3a127b54be513454","computer","Desktop or Laptop","Mac OS 10.15.7","Chrome 119.0.0.0","1440x900","1440x783",NA,NA,0,"BIQ (Charlotte)",3,"DECFBGAHJI","Passed AC2","","Spreadsheet1",1,"BIQ","Screen 3","iz3the",3,"response","1",44766.188,63249.045,63256.7160000089,44766.188,63249.045,63256.7160000089,1,44766.188,18490.5280000089,0,NA,"Rating Scale","Rating Scale",2,"object-53","BIQ",NA,"SUPPRF47953"
"12",1700677713074,"22/11/2023 18:28:33",1700677713074,0,"22/11/2023 18:28:33",151512,7,"task-gjqt",NA,33140663,9813318,NA,"complete",NA,"655e456d3a127b54be513454","computer","Desktop or Laptop","Mac OS 10.15.7","Chrome 119.0.0.0","1440x900","1440x783",NA,NA,0,"BIQ (Charlotte)",3,"DECFBGAHJI","Passed AC2","","Spreadsheet1",1,"BIQ","Screen 3","iz3the",3,"response","4",59215.873,63249.045,63257.2160000089,59215.873,63249.045,63257.2160000089,1,59215.873,4041.34300000893,0,NA,"Rating Scale","Rating Scale",9,"object-60","BIQ",NA,"SUPPRF47953"
"13",1700677713074,"22/11/2023 18:28:33",1700677713074,0,"22/11/2023 18:28:33",151512,7,"task-gjqt",NA,33140663,9813318,NA,"complete",NA,"655e456d3a127b54be513454","computer","Desktop or Laptop","Mac OS 10.15.7","Chrome 119.0.0.0","1440x900","1440x783",NA,NA,0,"BIQ (Charlotte)",3,"DECFBGAHJI","Passed AC2","","Spreadsheet1",1,"BIQ","Screen 3","iz3the",3,"response","2",61882.433,63249.045,63257.616,61882.433,63249.045,63257.616,1,61882.433,1375.18299999999,0,NA,"Rating Scale","Rating Scale",16,"object-67","BIQ",NA,"SUPPRF47953"
"14",1700677713080,"22/11/2023 18:28:33",1700677713080,0,"22/11/2023 18:28:33",151512,7,"task-gjqt",NA,33140663,9813318,NA,"complete",NA,"655e456d3a127b54be513454","computer","Desktop or Laptop","Mac OS 10.15.7","Chrome 119.0.0.0","1440x900","1440x783",NA,NA,0,"BIQ (Charlotte)",3,"DECFBGAHJI","Passed AC2","","Spreadsheet1",NA,"","","",NA,"5","END",NA,NA,NA,NA,NA,NA,0,NA,NA,NA,NA,"","",NA,"","",NA,"SUPPRF47953"
"1",1700677908971,"22/11/2023 18:31:48",1700677908971,0,"22/11/2023 18:31:48",151512,7,"task-gjqt",NA,33140840,9813418,NA,"complete",NA,"655e487524637b6a6078ed93","computer","Desktop or Laptop","Windows 10","Chrome 119.0.0.0","1280x720","1280x593",NA,NA,0,"BIQ (Charlotte)",3,"FGEHDICJBA","Passed AC2","","Spreadsheet1",NA,"","","",NA,"5","BEGIN",NA,NA,NA,NA,NA,NA,0,NA,NA,NA,NA,"","",NA,"","",NA,"SUPPRF80130"
"2",1700677937746,"22/11/2023 18:32:17",1700677937746,0,"22/11/2023 18:32:17",151512,7,"task-gjqt",NA,33140840,9813418,NA,"complete",NA,"655e487524637b6a6078ed93","computer","Desktop or Laptop","Windows 10","Chrome 119.0.0.0","1280x720","1280x593",NA,NA,0,"BIQ (Charlotte)",3,"FGEHDICJBA","Passed AC2","","Spreadsheet1",1,"BIQ","Screen 1","9dh6eq",1,"continue","",28802.591,28793.091,28802.591,28802.591,28793.091,28802.591,1,28802.591,0,0,NA,"Click To Continue","Continue Button",23,"object-48","BIQ",NA,"SUPPRF80130"
"3",1700677937749,"22/11/2023 18:32:17",1700677937749,0,"22/11/2023 18:32:17",151512,7,"task-gjqt",NA,33140840,9813418,NA,"complete",NA,"655e487524637b6a6078ed93","computer","Desktop or Laptop","Windows 10","Chrome 119.0.0.0","1280x720","1280x593",NA,NA,0,"BIQ (Charlotte)",3,"FGEHDICJBA","Passed AC2","","Spreadsheet1",1,"BIQ","Screen 1","9dh6eq",1,"response","4",6261.502,28793.091,28805.8910000001,6261.502,28793.091,28805.8910000001,1,6261.502,22544.3890000001,0,NA,"Rating Scale","Rating Scale",3,"object-5","BIQ",NA,"SUPPRF80130"
"4",1700677937749,"22/11/2023 18:32:17",1700677937749,0,"22/11/2023 18:32:17",151512,7,"task-gjqt",NA,33140840,9813418,NA,"complete",NA,"655e487524637b6a6078ed93","computer","Desktop or Laptop","Windows 10","Chrome 119.0.0.0","1280x720","1280x593",NA,NA,0,"BIQ (Charlotte)",3,"FGEHDICJBA","Passed AC2","","Spreadsheet1",1,"BIQ","Screen 1","9dh6eq",1,"response","5",15104.236,28793.091,28806.591,15104.236,28793.091,28806.591,1,15104.236,13702.355,0,NA,"Rating Scale","Rating Scale",10,"object-18","BIQ",NA,"SUPPRF80130"
"5",1700677937750,"22/11/2023 18:32:17",1700677937750,0,"22/11/2023 18:32:17",151512,7,"task-gjqt",NA,33140840,9813418,NA,"complete",NA,"655e487524637b6a6078ed93","computer","Desktop or Laptop","Windows 10","Chrome 119.0.0.0","1280x720","1280x593",NA,NA,0,"BIQ (Charlotte)",3,"FGEHDICJBA","Passed AC2","","Spreadsheet1",1,"BIQ","Screen 1","9dh6eq",1,"response","5",27194.324,28793.091,28807.291,27194.324,28793.091,28807.291,1,27194.324,1612.96699999998,0,NA,"Rating Scale","Rating Scale",17,"object-80","BIQ",NA,"SUPPRF80130"
"6",1700677957466,"22/11/2023 18:32:37",1700677957466,0,"22/11/2023 18:32:37",151512,7,"task-gjqt",NA,33140840,9813418,NA,"complete",NA,"655e487524637b6a6078ed93","computer","Desktop or Laptop","Windows 10","Chrome 119.0.0.0","1280x720","1280x593",NA,NA,0,"BIQ (Charlotte)",3,"FGEHDICJBA","Passed AC2","","Spreadsheet1",1,"BIQ","Screen 2","o21mwi",2,"continue","",19729.8000000001,19717.07,19729.8000000001,19729.8000000001,19717.07,19729.8000000001,1,19729.8000000001,0,0,NA,"Click To Continue","Continue Button",22,"object-50","BIQ",NA,"SUPPRF80130"
"7",1700677957471,"22/11/2023 18:32:37",1700677957471,0,"22/11/2023 18:32:37",151512,7,"task-gjqt",NA,33140840,9813418,NA,"complete",NA,"655e487524637b6a6078ed93","computer","Desktop or Laptop","Windows 10","Chrome 119.0.0.0","1280x720","1280x593",NA,NA,0,"BIQ (Charlotte)",3,"FGEHDICJBA","Passed AC2","","Spreadsheet1",1,"BIQ","Screen 2","o21mwi",2,"response","3",4679.411,19717.07,19733.789,4679.411,19717.07,19733.789,1,4679.411,15054.378,0,NA,"Rating Scale","Rating Scale",2,"object-259","BIQ",NA,"SUPPRF80130"
"8",1700677957471,"22/11/2023 18:32:37",1700677957471,0,"22/11/2023 18:32:37",151512,7,"task-gjqt",NA,33140840,9813418,NA,"complete",NA,"655e487524637b6a6078ed93","computer","Desktop or Laptop","Windows 10","Chrome 119.0.0.0","1280x720","1280x593",NA,NA,0,"BIQ (Charlotte)",3,"FGEHDICJBA","Passed AC2","","Spreadsheet1",1,"BIQ","Screen 2","o21mwi",2,"response","5",12323.135,19717.07,19733.789,12323.135,19717.07,19733.789,1,12323.135,7410.654,0,NA,"Rating Scale","Rating Scale",9,"object-36","BIQ",NA,"SUPPRF80130"
"9",1700677957473,"22/11/2023 18:32:37",1700677957473,0,"22/11/2023 18:32:37",151512,7,"task-gjqt",NA,33140840,9813418,NA,"complete",NA,"655e487524637b6a6078ed93","computer","Desktop or Laptop","Windows 10","Chrome 119.0.0.0","1280x720","1280x593",NA,NA,0,"BIQ (Charlotte)",3,"FGEHDICJBA","Passed AC2","","Spreadsheet1",1,"BIQ","Screen 2","o21mwi",2,"response","6",18917.734,19717.07,19733.789,18917.734,19717.07,19733.789,1,18917.734,816.055000000008,0,NA,"Rating Scale","Rating Scale",16,"object-86","BIQ",NA,"SUPPRF80130"
"10",1700677976107,"22/11/2023 18:32:56",1700677976107,0,"22/11/2023 18:32:56",151512,7,"task-gjqt",NA,33140840,9813418,NA,"complete",NA,"655e487524637b6a6078ed93","computer","Desktop or Laptop","Windows 10","Chrome 119.0.0.0","1280x720","1280x593",NA,NA,0,"BIQ (Charlotte)",3,"FGEHDICJBA","Passed AC2","","Spreadsheet1",1,"BIQ","Screen 3","iz3the",3,"continue","",18651.309,18634.642,18651.309,18651.309,18634.642,18651.309,1,18651.309,0,0,NA,"Click To Continue","Continue Button",22,"object-73","BIQ",NA,"SUPPRF80130"
"11",1700677976113,"22/11/2023 18:32:56",1700677976113,0,"22/11/2023 18:32:56",151512,7,"task-gjqt",NA,33140840,9813418,NA,"complete",NA,"655e487524637b6a6078ed93","computer","Desktop or Laptop","Windows 10","Chrome 119.0.0.0","1280x720","1280x593",NA,NA,0,"BIQ (Charlotte)",3,"FGEHDICJBA","Passed AC2","","Spreadsheet1",1,"BIQ","Screen 3","iz3the",3,"response","2",10674.524,18634.642,18651.309,10674.524,18634.642,18651.309,1,10674.524,7976.78499999998,0,NA,"Rating Scale","Rating Scale",2,"object-53","BIQ",NA,"SUPPRF80130"
"12",1700677976115,"22/11/2023 18:32:56",1700677976115,0,"22/11/2023 18:32:56",151512,7,"task-gjqt",NA,33140840,9813418,NA,"complete",NA,"655e487524637b6a6078ed93","computer","Desktop or Laptop","Windows 10","Chrome 119.0.0.0","1280x720","1280x593",NA,NA,0,"BIQ (Charlotte)",3,"FGEHDICJBA","Passed AC2","","Spreadsheet1",1,"BIQ","Screen 3","iz3the",3,"response","5",14121.789,18634.642,18651.309,14121.789,18634.642,18651.309,1,14121.789,4529.51999999998,0,NA,"Rating Scale","Rating Scale",9,"object-60","BIQ",NA,"SUPPRF80130"
"13",1700677976117,"22/11/2023 18:32:56",1700677976117,0,"22/11/2023 18:32:56",151512,7,"task-gjqt",NA,33140840,9813418,NA,"complete",NA,"655e487524637b6a6078ed93","computer","Desktop or Laptop","Windows 10","Chrome 119.0.0.0","1280x720","1280x593",NA,NA,0,"BIQ (Charlotte)",3,"FGEHDICJBA","Passed AC2","","Spreadsheet1",1,"BIQ","Screen 3","iz3the",3,"response","7",16669.577,18634.642,18651.309,16669.577,18634.642,18651.309,1,16669.577,1981.73199999997,0,NA,"Rating Scale","Rating Scale",16,"object-67","BIQ",NA,"SUPPRF80130"
"14",1700677976129,"22/11/2023 18:32:56",1700677976129,0,"22/11/2023 18:32:56",151512,7,"task-gjqt",NA,33140840,9813418,NA,"complete",NA,"655e487524637b6a6078ed93","computer","Desktop or Laptop","Windows 10","Chrome 119.0.0.0","1280x720","1280x593",NA,NA,0,"BIQ (Charlotte)",3,"FGEHDICJBA","Passed AC2","","Spreadsheet1",NA,"","","",NA,"5","END",NA,NA,NA,NA,NA,NA,0,NA,NA,NA,NA,"","",NA,"","",NA,"SUPPRF80130"
"1",1700679987616,"22/11/2023 19:06:27",1700658387616,-6,"22/11/2023 07:06:27",151512,7,"task-gjqt",NA,33141893,9813699,NA,"complete",NA,"655e50c78ab0de64179c7dd9","computer","Desktop or Laptop","Windows 10","Chrome 119.0.0.0","1920x1080","1858x971",NA,NA,0,"BIQ (Charlotte)",3,"GHFIEJDACB","Passed AC2","","Spreadsheet1",NA,"","","",NA,"5","BEGIN",NA,NA,NA,NA,NA,NA,0,NA,NA,NA,NA,"","",NA,"","",NA,"SUPPRF97792"
"2",1700680005282,"22/11/2023 19:06:45",1700658405282,-6,"22/11/2023 07:06:45",151512,7,"task-gjqt",NA,33141893,9813699,NA,"complete",NA,"655e50c78ab0de64179c7dd9","computer","Desktop or Laptop","Windows 10","Chrome 119.0.0.0","1920x1080","1858x971",NA,NA,0,"BIQ (Charlotte)",3,"GHFIEJDACB","Passed AC2","","Spreadsheet1",1,"BIQ","Screen 1","9dh6eq",1,"continue","",17672.7719999993,17666.361,17672.7719999993,17672.7719999993,17666.361,17672.7719999993,1,17672.7719999993,0,0,NA,"Click To Continue","Continue Button",23,"object-48","BIQ",NA,"SUPPRF97792"
"3",1700680005283,"22/11/2023 19:06:45",1700658405283,-6,"22/11/2023 07:06:45",151512,7,"task-gjqt",NA,33141893,9813699,NA,"complete",NA,"655e50c78ab0de64179c7dd9","computer","Desktop or Laptop","Windows 10","Chrome 119.0.0.0","1920x1080","1858x971",NA,NA,0,"BIQ (Charlotte)",3,"GHFIEJDACB","Passed AC2","","Spreadsheet1",1,"BIQ","Screen 1","9dh6eq",1,"response","7",10367.924,17666.361,17673.305,10367.924,17666.361,17673.305,1,10367.924,7305.381,0,NA,"Rating Scale","Rating Scale",3,"object-5","BIQ",NA,"SUPPRF97792"
"4",1700680005283,"22/11/2023 19:06:45",1700658405283,-6,"22/11/2023 07:06:45",151512,7,"task-gjqt",NA,33141893,9813699,NA,"complete",NA,"655e50c78ab0de64179c7dd9","computer","Desktop or Laptop","Windows 10","Chrome 119.0.0.0","1920x1080","1858x971",NA,NA,0,"BIQ (Charlotte)",3,"GHFIEJDACB","Passed AC2","","Spreadsheet1",1,"BIQ","Screen 1","9dh6eq",1,"response","4",14596.952,17666.361,17673.305,14596.952,17666.361,17673.305,1,14596.952,3076.353,0,NA,"Rating Scale","Rating Scale",10,"object-18","BIQ",NA,"SUPPRF97792"
"5",1700680005283,"22/11/2023 19:06:45",1700658405283,-6,"22/11/2023 07:06:45",151512,7,"task-gjqt",NA,33141893,9813699,NA,"complete",NA,"655e50c78ab0de64179c7dd9","computer","Desktop or Laptop","Windows 10","Chrome 119.0.0.0","1920x1080","1858x971",NA,NA,0,"BIQ (Charlotte)",3,"GHFIEJDACB","Passed AC2","","Spreadsheet1",1,"BIQ","Screen 1","9dh6eq",1,"response","5",16492.741,17666.361,17673.305,16492.741,17666.361,17673.305,1,16492.741,1180.564,0,NA,"Rating Scale","Rating Scale",17,"object-80","BIQ",NA,"SUPPRF97792"
"6",1700680024503,"22/11/2023 19:07:04",1700658424503,-6,"22/11/2023 07:07:04",151512,7,"task-gjqt",NA,33141893,9813699,NA,"complete",NA,"655e50c78ab0de64179c7dd9","computer","Desktop or Laptop","Windows 10","Chrome 119.0.0.0","1920x1080","1858x971",NA,NA,0,"BIQ (Charlotte)",3,"GHFIEJDACB","Passed AC2","","Spreadsheet1",1,"BIQ","Screen 2","o21mwi",2,"continue","",19230.711,19229.255,19230.711,19230.711,19229.255,19230.711,1,19230.711,0,0,NA,"Click To Continue","Continue Button",22,"object-50","BIQ",NA,"SUPPRF97792"
"7",1700680024505,"22/11/2023 19:07:04",1700658424505,-6,"22/11/2023 07:07:04",151512,7,"task-gjqt",NA,33141893,9813699,NA,"complete",NA,"655e50c78ab0de64179c7dd9","computer","Desktop or Laptop","Windows 10","Chrome 119.0.0.0","1920x1080","1858x971",NA,NA,0,"BIQ (Charlotte)",3,"GHFIEJDACB","Passed AC2","","Spreadsheet1",1,"BIQ","Screen 2","o21mwi",2,"response","5",4791.575,19229.255,19232.4109999993,4791.575,19229.255,19232.4109999993,1,4791.575,14440.8359999993,0,NA,"Rating Scale","Rating Scale",2,"object-259","BIQ",NA,"SUPPRF97792"
"8",1700680024505,"22/11/2023 19:07:04",1700658424505,-6,"22/11/2023 07:07:04",151512,7,"task-gjqt",NA,33141893,9813699,NA,"complete",NA,"655e50c78ab0de64179c7dd9","computer","Desktop or Laptop","Windows 10","Chrome 119.0.0.0","1920x1080","1858x971",NA,NA,0,"BIQ (Charlotte)",3,"GHFIEJDACB","Passed AC2","","Spreadsheet1",1,"BIQ","Screen 2","o21mwi",2,"response","2",7666.26,19229.255,19232.711,7666.26,19229.255,19232.711,1,7666.26,11566.451,0,NA,"Rating Scale","Rating Scale",9,"object-36","BIQ",NA,"SUPPRF97792"
"9",1700680024505,"22/11/2023 19:07:04",1700658424505,-6,"22/11/2023 07:07:04",151512,7,"task-gjqt",NA,33141893,9813699,NA,"complete",NA,"655e50c78ab0de64179c7dd9","computer","Desktop or Laptop","Windows 10","Chrome 119.0.0.0","1920x1080","1858x971",NA,NA,0,"BIQ (Charlotte)",3,"GHFIEJDACB","Passed AC2","","Spreadsheet1",1,"BIQ","Screen 2","o21mwi",2,"response","4",18555.452,19229.255,19232.9109999993,18555.452,19229.255,19232.9109999993,1,18555.452,677.458999999253,0,NA,"Rating Scale","Rating Scale",16,"object-86","BIQ",NA,"SUPPRF97792"
"10",1700680038042,"22/11/2023 19:07:18",1700658438042,-6,"22/11/2023 07:07:18",151512,7,"task-gjqt",NA,33141893,9813699,NA,"complete",NA,"655e50c78ab0de64179c7dd9","computer","Desktop or Laptop","Windows 10","Chrome 119.0.0.0","1920x1080","1858x971",NA,NA,0,"BIQ (Charlotte)",3,"GHFIEJDACB","Passed AC2","","Spreadsheet1",1,"BIQ","Screen 3","iz3the",3,"continue","",13539.8559999985,13535.239,13539.8559999985,13539.8559999985,13535.239,13539.8559999985,1,13539.8559999985,0,0,NA,"Click To Continue","Continue Button",22,"object-73","BIQ",NA,"SUPPRF97792"
"11",1700680038045,"22/11/2023 19:07:18",1700658438045,-6,"22/11/2023 07:07:18",151512,7,"task-gjqt",NA,33141893,9813699,NA,"complete",NA,"655e50c78ab0de64179c7dd9","computer","Desktop or Laptop","Windows 10","Chrome 119.0.0.0","1920x1080","1858x971",NA,NA,0,"BIQ (Charlotte)",3,"GHFIEJDACB","Passed AC2","","Spreadsheet1",1,"BIQ","Screen 3","iz3the",3,"response","1",7298.333,13535.239,13542.183,7298.333,13535.239,13542.183,1,7298.333,6243.85000000001,0,NA,"Rating Scale","Rating Scale",2,"object-53","BIQ",NA,"SUPPRF97792"
"12",1700680038045,"22/11/2023 19:07:18",1700658438045,-6,"22/11/2023 07:07:18",151512,7,"task-gjqt",NA,33141893,9813699,NA,"complete",NA,"655e50c78ab0de64179c7dd9","computer","Desktop or Laptop","Windows 10","Chrome 119.0.0.0","1920x1080","1858x971",NA,NA,0,"BIQ (Charlotte)",3,"GHFIEJDACB","Passed AC2","","Spreadsheet1",1,"BIQ","Screen 3","iz3the",3,"response","3",9117.708,13535.239,13542.183,9117.708,13535.239,13542.183,1,9117.708,4424.47500000001,0,NA,"Rating Scale","Rating Scale",9,"object-60","BIQ",NA,"SUPPRF97792"
"13",1700680038045,"22/11/2023 19:07:18",1700658438045,-6,"22/11/2023 07:07:18",151512,7,"task-gjqt",NA,33141893,9813699,NA,"complete",NA,"655e50c78ab0de64179c7dd9","computer","Desktop or Laptop","Windows 10","Chrome 119.0.0.0","1920x1080","1858x971",NA,NA,0,"BIQ (Charlotte)",3,"GHFIEJDACB","Passed AC2","","Spreadsheet1",1,"BIQ","Screen 3","iz3the",3,"response","3",12516.666,13535.239,13542.183,12516.666,13535.239,13542.183,1,12516.666,1025.51700000001,0,NA,"Rating Scale","Rating Scale",16,"object-67","BIQ",NA,"SUPPRF97792"
"14",1700680038048,"22/11/2023 19:07:18",1700658438048,-6,"22/11/2023 07:07:18",151512,7,"task-gjqt",NA,33141893,9813699,NA,"complete",NA,"655e50c78ab0de64179c7dd9","computer","Desktop or Laptop","Windows 10","Chrome 119.0.0.0","1920x1080","1858x971",NA,NA,0,"BIQ (Charlotte)",3,"GHFIEJDACB","Passed AC2","","Spreadsheet1",NA,"","","",NA,"5","END",NA,NA,NA,NA,NA,NA,0,NA,NA,NA,NA,"","",NA,"","",NA,"SUPPRF97792"
"1",1700680910200,"22/11/2023 19:21:50",1700680910200,0,"22/11/2023 19:21:50",151512,7,"task-gjqt",NA,33142426,9813796,NA,"complete",NA,"655e5372280f4045afb4fd41","computer","Desktop or Laptop","Mac OS 10.15.7","Chrome 119.0.0.0","1440x900","1440x668",NA,NA,0,"BIQ (Charlotte)",3,"HIGJFAEBDC","Passed AC2","","Spreadsheet1",NA,"","","",NA,"5","BEGIN",NA,NA,NA,NA,NA,NA,0,NA,NA,NA,NA,"","",NA,"","",NA,"SUPPRF09619"
"2",1700680931783,"22/11/2023 19:22:11",1700680931783,0,"22/11/2023 19:22:11",151512,7,"task-gjqt",NA,33142426,9813796,NA,"complete",NA,"655e5372280f4045afb4fd41","computer","Desktop or Laptop","Mac OS 10.15.7","Chrome 119.0.0.0","1440x900","1440x668",NA,NA,0,"BIQ (Charlotte)",3,"HIGJFAEBDC","Passed AC2","","Spreadsheet1",1,"BIQ","Screen 1","9dh6eq",1,"continue","",21601.384,21584.717,21601.384,21601.384,21584.717,21601.384,1,21601.384,0,0,NA,"Click To Continue","Continue Button",23,"object-48","BIQ",NA,"SUPPRF09619"
"3",1700680931786,"22/11/2023 19:22:11",1700680931786,0,"22/11/2023 19:22:11",151512,7,"task-gjqt",NA,33142426,9813796,NA,"complete",NA,"655e5372280f4045afb4fd41","computer","Desktop or Laptop","Mac OS 10.15.7","Chrome 119.0.0.0","1440x900","1440x668",NA,NA,0,"BIQ (Charlotte)",3,"HIGJFAEBDC","Passed AC2","","Spreadsheet1",1,"BIQ","Screen 1","9dh6eq",1,"response","7",8400.644,21584.717,21601.384,8400.644,21584.717,21601.384,1,8400.644,13200.74,0,NA,"Rating Scale","Rating Scale",3,"object-5","BIQ",NA,"SUPPRF09619"
"4",1700680931786,"22/11/2023 19:22:11",1700680931786,0,"22/11/2023 19:22:11",151512,7,"task-gjqt",NA,33142426,9813796,NA,"complete",NA,"655e5372280f4045afb4fd41","computer","Desktop or Laptop","Mac OS 10.15.7","Chrome 119.0.0.0","1440x900","1440x668",NA,NA,0,"BIQ (Charlotte)",3,"HIGJFAEBDC","Passed AC2","","Spreadsheet1",1,"BIQ","Screen 1","9dh6eq",1,"response","0",13917.897,21584.717,21601.384,13917.897,21584.717,21601.384,1,13917.897,7683.487,0,NA,"Rating Scale","Rating Scale",10,"object-18","BIQ",NA,"SUPPRF09619"
"5",1700680931787,"22/11/2023 19:22:11",1700680931787,0,"22/11/2023 19:22:11",151512,7,"task-gjqt",NA,33142426,9813796,NA,"complete",NA,"655e5372280f4045afb4fd41","computer","Desktop or Laptop","Mac OS 10.15.7","Chrome 119.0.0.0","1440x900","1440x668",NA,NA,0,"BIQ (Charlotte)",3,"HIGJFAEBDC","Passed AC2","","Spreadsheet1",1,"BIQ","Screen 1","9dh6eq",1,"response","4",20668.032,21584.717,21601.384,20668.032,21584.717,21601.384,1,20668.032,933.352000000003,0,NA,"Rating Scale","Rating Scale",17,"object-80","BIQ",NA,"SUPPRF09619"
"6",1700680965298,"22/11/2023 19:22:45",1700680965298,0,"22/11/2023 19:22:45",151512,7,"task-gjqt",NA,33142426,9813796,NA,"complete",NA,"655e5372280f4045afb4fd41","computer","Desktop or Laptop","Mac OS 10.15.7","Chrome 119.0.0.0","1440x900","1440x668",NA,NA,0,"BIQ (Charlotte)",3,"HIGJFAEBDC","Passed AC2","","Spreadsheet1",1,"BIQ","Screen 2","o21mwi",2,"continue","",33535.909,33519.242,33535.909,33535.909,33519.242,33535.909,1,33535.909,0,0,NA,"Click To Continue","Continue Button",22,"object-50","BIQ",NA,"SUPPRF09619"
"7",1700680965301,"22/11/2023 19:22:45",1700680965301,0,"22/11/2023 19:22:45",151512,7,"task-gjqt",NA,33142426,9813796,NA,"complete",NA,"655e5372280f4045afb4fd41","computer","Desktop or Laptop","Mac OS 10.15.7","Chrome 119.0.0.0","1440x900","1440x668",NA,NA,0,"BIQ (Charlotte)",3,"HIGJFAEBDC","Passed AC2","","Spreadsheet1",1,"BIQ","Screen 2","o21mwi",2,"response","7",6533.94,33519.242,33535.909,6533.94,33519.242,33535.909,1,6533.94,27001.969,0,NA,"Rating Scale","Rating Scale",2,"object-259","BIQ",NA,"SUPPRF09619"
"8",1700680965301,"22/11/2023 19:22:45",1700680965301,0,"22/11/2023 19:22:45",151512,7,"task-gjqt",NA,33142426,9813796,NA,"complete",NA,"655e5372280f4045afb4fd41","computer","Desktop or Laptop","Mac OS 10.15.7","Chrome 119.0.0.0","1440x900","1440x668",NA,NA,0,"BIQ (Charlotte)",3,"HIGJFAEBDC","Passed AC2","","Spreadsheet1",1,"BIQ","Screen 2","o21mwi",2,"response","3",17867.976,33519.242,33535.909,17867.976,33519.242,33535.909,1,17867.976,15667.933,0,NA,"Rating Scale","Rating Scale",9,"object-36","BIQ",NA,"SUPPRF09619"
"9",1700680965302,"22/11/2023 19:22:45",1700680965302,0,"22/11/2023 19:22:45",151512,7,"task-gjqt",NA,33142426,9813796,NA,"complete",NA,"655e5372280f4045afb4fd41","computer","Desktop or Laptop","Mac OS 10.15.7","Chrome 119.0.0.0","1440x900","1440x668",NA,NA,0,"BIQ (Charlotte)",3,"HIGJFAEBDC","Passed AC2","","Spreadsheet1",1,"BIQ","Screen 2","o21mwi",2,"response","7",30435.37,33519.242,33535.909,30435.37,33519.242,33535.909,1,30435.37,3100.539,0,NA,"Rating Scale","Rating Scale",16,"object-86","BIQ",NA,"SUPPRF09619"
"10",1700680981901,"22/11/2023 19:23:01",1700680981901,0,"22/11/2023 19:23:01",151512,7,"task-gjqt",NA,33142426,9813796,NA,"complete",NA,"655e5372280f4045afb4fd41","computer","Desktop or Laptop","Mac OS 10.15.7","Chrome 119.0.0.0","1440x900","1440x668",NA,NA,0,"BIQ (Charlotte)",3,"HIGJFAEBDC","Passed AC2","","Spreadsheet1",1,"BIQ","Screen 3","iz3the",3,"continue","",16617.475,16600.808,16617.475,16617.475,16600.808,16617.475,1,16617.475,0,0,NA,"Click To Continue","Continue Button",22,"object-73","BIQ",NA,"SUPPRF09619"
"11",1700680981904,"22/11/2023 19:23:01",1700680981904,0,"22/11/2023 19:23:01",151512,7,"task-gjqt",NA,33142426,9813796,NA,"complete",NA,"655e5372280f4045afb4fd41","computer","Desktop or Laptop","Mac OS 10.15.7","Chrome 119.0.0.0","1440x900","1440x668",NA,NA,0,"BIQ (Charlotte)",3,"HIGJFAEBDC","Passed AC2","","Spreadsheet1",1,"BIQ","Screen 3","iz3the",3,"response","1",5233.438,16600.808,16617.475,5233.438,16600.808,16617.475,1,5233.438,11384.037,0,NA,"Rating Scale","Rating Scale",2,"object-53","BIQ",NA,"SUPPRF09619"
"12",1700680981904,"22/11/2023 19:23:01",1700680981904,0,"22/11/2023 19:23:01",151512,7,"task-gjqt",NA,33142426,9813796,NA,"complete",NA,"655e5372280f4045afb4fd41","computer","Desktop or Laptop","Mac OS 10.15.7","Chrome 119.0.0.0","1440x900","1440x668",NA,NA,0,"BIQ (Charlotte)",3,"HIGJFAEBDC","Passed AC2","","Spreadsheet1",1,"BIQ","Screen 3","iz3the",3,"response","1",12084.051,16600.808,16617.475,12084.051,16600.808,16617.475,1,12084.051,4533.424,0,NA,"Rating Scale","Rating Scale",9,"object-60","BIQ",NA,"SUPPRF09619"
"13",1700680981905,"22/11/2023 19:23:01",1700680981905,0,"22/11/2023 19:23:01",151512,7,"task-gjqt",NA,33142426,9813796,NA,"complete",NA,"655e5372280f4045afb4fd41","computer","Desktop or Laptop","Mac OS 10.15.7","Chrome 119.0.0.0","1440x900","1440x668",NA,NA,0,"BIQ (Charlotte)",3,"HIGJFAEBDC","Passed AC2","","Spreadsheet1",1,"BIQ","Screen 3","iz3the",3,"response","7",15517.453,16600.808,16617.475,15517.453,16600.808,16617.475,1,15517.453,1100.02200000001,0,NA,"Rating Scale","Rating Scale",16,"object-67","BIQ",NA,"SUPPRF09619"
"14",1700680981910,"22/11/2023 19:23:01",1700680981910,0,"22/11/2023 19:23:01",151512,7,"task-gjqt",NA,33142426,9813796,NA,"complete",NA,"655e5372280f4045afb4fd41","computer","Desktop or Laptop","Mac OS 10.15.7","Chrome 119.0.0.0","1440x900","1440x668",NA,NA,0,"BIQ (Charlotte)",3,"HIGJFAEBDC","Passed AC2","","Spreadsheet1",NA,"","","",NA,"5","END",NA,NA,NA,NA,NA,NA,0,NA,NA,NA,NA,"","",NA,"","",NA,"SUPPRF09619"
"1",1700682181073,"22/11/2023 19:43:01",1700682181073,0,"22/11/2023 19:43:01",151512,7,"task-gjqt",NA,33143092,9813937,NA,"complete",NA,"655e57bac825fe6ca37d88a1","computer","Desktop or Laptop","Windows 10","Chrome 117.0.0.0","1280x720","1280x563",NA,NA,0,"BIQ (Charlotte)",3,"IJHAGBFCED","Passed AC2","","Spreadsheet1",NA,"","","",NA,"5","BEGIN",NA,NA,NA,NA,NA,NA,0,NA,NA,NA,NA,"","",NA,"","",NA,"SUPPRF96614"
"2",1700682208456,"22/11/2023 19:43:28",1700682208456,0,"22/11/2023 19:43:28",151512,7,"task-gjqt",NA,33143092,9813937,NA,"complete",NA,"655e57bac825fe6ca37d88a1","computer","Desktop or Laptop","Windows 10","Chrome 117.0.0.0","1280x720","1280x563",NA,NA,0,"BIQ (Charlotte)",3,"IJHAGBFCED","Passed AC2","","Spreadsheet1",1,"BIQ","Screen 1","9dh6eq",1,"continue","",27386.855,27370.125,27386.855,27386.855,27370.125,27386.855,1,27386.855,0,0,NA,"Click To Continue","Continue Button",23,"object-48","BIQ",NA,"SUPPRF96614"
"3",1700682208462,"22/11/2023 19:43:28",1700682208462,0,"22/11/2023 19:43:28",151512,7,"task-gjqt",NA,33143092,9813937,NA,"complete",NA,"655e57bac825fe6ca37d88a1","computer","Desktop or Laptop","Windows 10","Chrome 117.0.0.0","1280x720","1280x563",NA,NA,0,"BIQ (Charlotte)",3,"IJHAGBFCED","Passed AC2","","Spreadsheet1",1,"BIQ","Screen 1","9dh6eq",1,"response","2",14567.271,27370.125,27386.855,14567.271,27370.125,27386.855,1,14567.271,12819.584,0,NA,"Rating Scale","Rating Scale",3,"object-5","BIQ",NA,"SUPPRF96614"
"4",1700682208463,"22/11/2023 19:43:28",1700682208463,0,"22/11/2023 19:43:28",151512,7,"task-gjqt",NA,33143092,9813937,NA,"complete",NA,"655e57bac825fe6ca37d88a1","computer","Desktop or Laptop","Windows 10","Chrome 117.0.0.0","1280x720","1280x563",NA,NA,0,"BIQ (Charlotte)",3,"IJHAGBFCED","Passed AC2","","Spreadsheet1",1,"BIQ","Screen 1","9dh6eq",1,"response","0",19745.098,27370.125,27386.855,19745.098,27370.125,27386.855,1,19745.098,7641.757,0,NA,"Rating Scale","Rating Scale",10,"object-18","BIQ",NA,"SUPPRF96614"
"5",1700682208465,"22/11/2023 19:43:28",1700682208465,0,"22/11/2023 19:43:28",151512,7,"task-gjqt",NA,33143092,9813937,NA,"complete",NA,"655e57bac825fe6ca37d88a1","computer","Desktop or Laptop","Windows 10","Chrome 117.0.0.0","1280x720","1280x563",NA,NA,0,"BIQ (Charlotte)",3,"IJHAGBFCED","Passed AC2","","Spreadsheet1",1,"BIQ","Screen 1","9dh6eq",1,"response","2",25422.686,27370.125,27386.855,25422.686,27370.125,27386.855,1,25422.686,1964.169,0,NA,"Rating Scale","Rating Scale",17,"object-80","BIQ",NA,"SUPPRF96614"
"6",1700682231914,"22/11/2023 19:43:51",1700682231914,0,"22/11/2023 19:43:51",151512,7,"task-gjqt",NA,33143092,9813937,NA,"complete",NA,"655e57bac825fe6ca37d88a1","computer","Desktop or Laptop","Windows 10","Chrome 117.0.0.0","1280x720","1280x563",NA,NA,0,"BIQ (Charlotte)",3,"IJHAGBFCED","Passed AC2","","Spreadsheet1",1,"BIQ","Screen 2","o21mwi",2,"continue","",23482.7759984741,23474.274,23482.7759984741,23482.7759984741,23474.274,23482.7759984741,1,23482.7759984741,0,0,NA,"Click To Continue","Continue Button",22,"object-50","BIQ",NA,"SUPPRF96614"
"7",1700682231919,"22/11/2023 19:43:51",1700682231919,0,"22/11/2023 19:43:51",151512,7,"task-gjqt",NA,33143092,9813937,NA,"complete",NA,"655e57bac825fe6ca37d88a1","computer","Desktop or Laptop","Windows 10","Chrome 117.0.0.0","1280x720","1280x563",NA,NA,0,"BIQ (Charlotte)",3,"IJHAGBFCED","Passed AC2","","Spreadsheet1",1,"BIQ","Screen 2","o21mwi",2,"response","4",6909.12,23474.274,23487.5759996185,6909.12,23474.274,23487.5759996185,1,6909.12,16578.4559996185,0,NA,"Rating Scale","Rating Scale",2,"object-259","BIQ",NA,"SUPPRF96614"
"8",1700682231920,"22/11/2023 19:43:51",1700682231920,0,"22/11/2023 19:43:51",151512,7,"task-gjqt",NA,33143092,9813937,NA,"complete",NA,"655e57bac825fe6ca37d88a1","computer","Desktop or Laptop","Windows 10","Chrome 117.0.0.0","1280x720","1280x563",NA,NA,0,"BIQ (Charlotte)",3,"IJHAGBFCED","Passed AC2","","Spreadsheet1",1,"BIQ","Screen 2","o21mwi",2,"response","2",11021.264,23474.274,23488.676,11021.264,23474.274,23488.676,1,11021.264,12467.412,0,NA,"Rating Scale","Rating Scale",9,"object-36","BIQ",NA,"SUPPRF96614"
"9",1700682231924,"22/11/2023 19:43:51",1700682231924,0,"22/11/2023 19:43:51",151512,7,"task-gjqt",NA,33143092,9813937,NA,"complete",NA,"655e57bac825fe6ca37d88a1","computer","Desktop or Laptop","Windows 10","Chrome 117.0.0.0","1280x720","1280x563",NA,NA,0,"BIQ (Charlotte)",3,"IJHAGBFCED","Passed AC2","","Spreadsheet1",1,"BIQ","Screen 2","o21mwi",2,"response","5",22608.132,23474.274,23490.3759988556,22608.132,23474.274,23490.3759988556,1,22608.132,882.243998855593,0,NA,"Rating Scale","Rating Scale",16,"object-86","BIQ",NA,"SUPPRF96614"
"10",1700682457488,"22/11/2023 19:47:37",1700682457488,0,"22/11/2023 19:47:37",151512,7,"task-gjqt",NA,33143092,9813937,NA,"complete",NA,"655e57bac825fe6ca37d88a1","computer","Desktop or Laptop","Windows 10","Chrome 117.0.0.0","1280x720","1280x563",NA,NA,0,"BIQ (Charlotte)",3,"IJHAGBFCED","Passed AC2","","Spreadsheet1",1,"BIQ","Screen 3","iz3the",3,"continue","",225581.601998856,225567.825,225581.601998856,225581.601998856,225567.825,225581.601998856,1,225581.601998856,0,0,NA,"Click To Continue","Continue Button",22,"object-73","BIQ",NA,"SUPPRF96614"
"11",1700682457494,"22/11/2023 19:47:37",1700682457494,0,"22/11/2023 19:47:37",151512,7,"task-gjqt",NA,33143092,9813937,NA,"complete",NA,"655e57bac825fe6ca37d88a1","computer","Desktop or Laptop","Windows 10","Chrome 117.0.0.0","1280x720","1280x563",NA,NA,0,"BIQ (Charlotte)",3,"IJHAGBFCED","Passed AC2","","Spreadsheet1",1,"BIQ","Screen 3","iz3the",3,"response","3",217593.399,225567.825,225584.393,217593.399,225567.825,225584.393,1,217593.399,7990.99400000006,0,NA,"Rating Scale","Rating Scale",2,"object-53","BIQ",NA,"SUPPRF96614"
"12",1700682457496,"22/11/2023 19:47:37",1700682457496,0,"22/11/2023 19:47:37",151512,7,"task-gjqt",NA,33143092,9813937,NA,"complete",NA,"655e57bac825fe6ca37d88a1","computer","Desktop or Laptop","Windows 10","Chrome 117.0.0.0","1280x720","1280x563",NA,NA,0,"BIQ (Charlotte)",3,"IJHAGBFCED","Passed AC2","","Spreadsheet1",1,"BIQ","Screen 3","iz3the",3,"response","4",221255.899,225567.825,225584.393,221255.899,225567.825,225584.393,1,221255.899,4328.49400000006,0,NA,"Rating Scale","Rating Scale",9,"object-60","BIQ",NA,"SUPPRF96614"
"13",1700682457498,"22/11/2023 19:47:37",1700682457498,0,"22/11/2023 19:47:37",151512,7,"task-gjqt",NA,33143092,9813937,NA,"complete",NA,"655e57bac825fe6ca37d88a1","computer","Desktop or Laptop","Windows 10","Chrome 117.0.0.0","1280x720","1280x563",NA,NA,0,"BIQ (Charlotte)",3,"IJHAGBFCED","Passed AC2","","Spreadsheet1",1,"BIQ","Screen 3","iz3the",3,"response","6",224152.994,225567.825,225584.393,224152.994,225567.825,225584.393,1,224152.994,1431.39900000003,0,NA,"Rating Scale","Rating Scale",16,"object-67","BIQ",NA,"SUPPRF96614"
"14",1700682457509,"22/11/2023 19:47:37",1700682457509,0,"22/11/2023 19:47:37",151512,7,"task-gjqt",NA,33143092,9813937,NA,"complete",NA,"655e57bac825fe6ca37d88a1","computer","Desktop or Laptop","Windows 10","Chrome 117.0.0.0","1280x720","1280x563",NA,NA,0,"BIQ (Charlotte)",3,"IJHAGBFCED","Passed AC2","","Spreadsheet1",NA,"","","",NA,"5","END",NA,NA,NA,NA,NA,NA,0,NA,NA,NA,NA,"","",NA,"","",NA,"SUPPRF96614"
"1",1700688647925,"22/11/2023 21:30:47",1700688647925,0,"22/11/2023 21:30:47",151512,7,"task-gjqt",NA,33146145,9814645,NA,"complete",NA,"655e6dc1e9ada5668842e2b1","computer","Desktop or Laptop","Windows 10","Chrome 119.0.0.0","1536x864","1536x739",NA,NA,0,"BIQ (Charlotte)",3,"ABJCIDHEGF","Failed AC2","Passed AC1","Spreadsheet1",NA,"","","",NA,"5","BEGIN",NA,NA,NA,NA,NA,NA,0,NA,NA,NA,NA,"","",NA,"","",NA,"SUPPRF47214"
"2",1700688678917,"22/11/2023 21:31:18",1700688678917,0,"22/11/2023 21:31:18",151512,7,"task-gjqt",NA,33146145,9814645,NA,"complete",NA,"655e6dc1e9ada5668842e2b1","computer","Desktop or Laptop","Windows 10","Chrome 119.0.0.0","1536x864","1536x739",NA,NA,0,"BIQ (Charlotte)",3,"ABJCIDHEGF","Failed AC2","Passed AC1","Spreadsheet1",1,"BIQ","Screen 1","9dh6eq",1,"continue","",31005.2709984741,30993.471,31005.2709984741,31005.2709984741,30993.471,31005.2709984741,1,31005.2709984741,0,0,NA,"Click To Continue","Continue Button",23,"object-48","BIQ",NA,"SUPPRF47214"
"3",1700688678918,"22/11/2023 21:31:18",1700688678918,0,"22/11/2023 21:31:18",151512,7,"task-gjqt",NA,33146145,9814645,NA,"complete",NA,"655e6dc1e9ada5668842e2b1","computer","Desktop or Laptop","Windows 10","Chrome 119.0.0.0","1536x864","1536x739",NA,NA,0,"BIQ (Charlotte)",3,"ABJCIDHEGF","Failed AC2","Passed AC1","Spreadsheet1",1,"BIQ","Screen 1","9dh6eq",1,"response","6",12353.29,30993.471,31007.2709984741,12353.29,30993.471,31007.2709984741,1,12353.29,18653.9809984741,0,NA,"Rating Scale","Rating Scale",3,"object-5","BIQ",NA,"SUPPRF47214"
"4",1700688678918,"22/11/2023 21:31:18",1700688678918,0,"22/11/2023 21:31:18",151512,7,"task-gjqt",NA,33146145,9814645,NA,"complete",NA,"655e6dc1e9ada5668842e2b1","computer","Desktop or Laptop","Windows 10","Chrome 119.0.0.0","1536x864","1536x739",NA,NA,0,"BIQ (Charlotte)",3,"ABJCIDHEGF","Failed AC2","Passed AC1","Spreadsheet1",1,"BIQ","Screen 1","9dh6eq",1,"response","6",21265.125,30993.471,31007.4710030518,21265.125,30993.471,31007.4710030518,1,21265.125,9742.34600305176,0,NA,"Rating Scale","Rating Scale",10,"object-18","BIQ",NA,"SUPPRF47214"
"5",1700688678919,"22/11/2023 21:31:18",1700688678919,0,"22/11/2023 21:31:18",151512,7,"task-gjqt",NA,33146145,9814645,NA,"complete",NA,"655e6dc1e9ada5668842e2b1","computer","Desktop or Laptop","Windows 10","Chrome 119.0.0.0","1536x864","1536x739",NA,NA,0,"BIQ (Charlotte)",3,"ABJCIDHEGF","Failed AC2","Passed AC1","Spreadsheet1",1,"BIQ","Screen 1","9dh6eq",1,"response","2",30460.078,30993.471,31007.7709984741,30460.078,30993.471,31007.7709984741,1,30460.078,547.692998474122,0,NA,"Rating Scale","Rating Scale",17,"object-80","BIQ",NA,"SUPPRF47214"
"6",1700688706877,"22/11/2023 21:31:46",1700688706877,0,"22/11/2023 21:31:46",151512,7,"task-gjqt",NA,33146145,9814645,NA,"complete",NA,"655e6dc1e9ada5668842e2b1","computer","Desktop or Laptop","Windows 10","Chrome 119.0.0.0","1536x864","1536x739",NA,NA,0,"BIQ (Charlotte)",3,"ABJCIDHEGF","Failed AC2","Passed AC1","Spreadsheet1",1,"BIQ","Screen 2","o21mwi",2,"continue","",27972.0000030518,27967.764,27972.0000030518,27972.0000030518,27967.764,27972.0000030518,1,27972.0000030518,0,0,NA,"Click To Continue","Continue Button",22,"object-50","BIQ",NA,"SUPPRF47214"
"7",1700688706882,"22/11/2023 21:31:46",1700688706882,0,"22/11/2023 21:31:46",151512,7,"task-gjqt",NA,33146145,9814645,NA,"complete",NA,"655e6dc1e9ada5668842e2b1","computer","Desktop or Laptop","Windows 10","Chrome 119.0.0.0","1536x864","1536x739",NA,NA,0,"BIQ (Charlotte)",3,"ABJCIDHEGF","Failed AC2","Passed AC1","Spreadsheet1",1,"BIQ","Screen 2","o21mwi",2,"response","7",6846.244,27967.764,27977.5000030518,6846.244,27967.764,27977.5000030518,1,6846.244,21131.2560030518,0,NA,"Rating Scale","Rating Scale",2,"object-259","BIQ",NA,"SUPPRF47214"
"8",1700688706883,"22/11/2023 21:31:46",1700688706883,0,"22/11/2023 21:31:46",151512,7,"task-gjqt",NA,33146145,9814645,NA,"complete",NA,"655e6dc1e9ada5668842e2b1","computer","Desktop or Laptop","Windows 10","Chrome 119.0.0.0","1536x864","1536x739",NA,NA,0,"BIQ (Charlotte)",3,"ABJCIDHEGF","Failed AC2","Passed AC1","Spreadsheet1",1,"BIQ","Screen 2","o21mwi",2,"response","2",15557.795,27967.764,27978.9000045776,15557.795,27967.764,27978.9000045776,1,15557.795,12421.1050045776,0,NA,"Rating Scale","Rating Scale",9,"object-36","BIQ",NA,"SUPPRF47214"
"9",1700688706885,"22/11/2023 21:31:46",1700688706885,0,"22/11/2023 21:31:46",151512,7,"task-gjqt",NA,33146145,9814645,NA,"complete",NA,"655e6dc1e9ada5668842e2b1","computer","Desktop or Laptop","Windows 10","Chrome 119.0.0.0","1536x864","1536x739",NA,NA,0,"BIQ (Charlotte)",3,"ABJCIDHEGF","Failed AC2","Passed AC1","Spreadsheet1",1,"BIQ","Screen 2","o21mwi",2,"response","1",21987.579,27967.764,27980.2999984741,21987.579,27967.764,27980.2999984741,1,21987.579,5992.72099847412,0,NA,"Rating Scale","Rating Scale",16,"object-86","BIQ",NA,"SUPPRF47214"
"10",1700688724318,"22/11/2023 21:32:04",1700688724318,0,"22/11/2023 21:32:04",151512,7,"task-gjqt",NA,33146145,9814645,NA,"complete",NA,"655e6dc1e9ada5668842e2b1","computer","Desktop or Laptop","Windows 10","Chrome 119.0.0.0","1536x864","1536x739",NA,NA,0,"BIQ (Charlotte)",3,"ABJCIDHEGF","Failed AC2","Passed AC1","Spreadsheet1",1,"BIQ","Screen 3","iz3the",3,"continue","",17445.7360030518,17440.595,17445.7360030518,17445.7360030518,17440.595,17445.7360030518,1,17445.7360030518,0,0,NA,"Click To Continue","Continue Button",22,"object-73","BIQ",NA,"SUPPRF47214"
"11",1700688724325,"22/11/2023 21:32:04",1700688724325,0,"22/11/2023 21:32:04",151512,7,"task-gjqt",NA,33146145,9814645,NA,"complete",NA,"655e6dc1e9ada5668842e2b1","computer","Desktop or Laptop","Windows 10","Chrome 119.0.0.0","1536x864","1536x739",NA,NA,0,"BIQ (Charlotte)",3,"ABJCIDHEGF","Failed AC2","Passed AC1","Spreadsheet1",1,"BIQ","Screen 3","iz3the",3,"response","0",4797.467,17440.595,17452.436,4797.467,17440.595,17452.436,1,4797.467,12654.969,0,NA,"Rating Scale","Rating Scale",2,"object-53","BIQ",NA,"SUPPRF47214"
"12",1700688724326,"22/11/2023 21:32:04",1700688724326,0,"22/11/2023 21:32:04",151512,7,"task-gjqt",NA,33146145,9814645,NA,"complete",NA,"655e6dc1e9ada5668842e2b1","computer","Desktop or Laptop","Windows 10","Chrome 119.0.0.0","1536x864","1536x739",NA,NA,0,"BIQ (Charlotte)",3,"ABJCIDHEGF","Failed AC2","Passed AC1","Spreadsheet1",1,"BIQ","Screen 3","iz3the",3,"response","2",7745.855,17440.595,17453.6360045776,7745.855,17440.595,17453.6360045776,1,7745.855,9707.78100457764,0,NA,"Rating Scale","Rating Scale",9,"object-60","BIQ",NA,"SUPPRF47214"
"13",1700688724327,"22/11/2023 21:32:04",1700688724327,0,"22/11/2023 21:32:04",151512,7,"task-gjqt",NA,33146145,9814645,NA,"complete",NA,"655e6dc1e9ada5668842e2b1","computer","Desktop or Laptop","Windows 10","Chrome 119.0.0.0","1536x864","1536x739",NA,NA,0,"BIQ (Charlotte)",3,"ABJCIDHEGF","Failed AC2","Passed AC1","Spreadsheet1",1,"BIQ","Screen 3","iz3the",3,"response","3",16224.285,17440.595,17454.8360015259,16224.285,17440.595,17454.8360015259,1,16224.285,1230.55100152588,0,NA,"Rating Scale","Rating Scale",16,"object-67","BIQ",NA,"SUPPRF47214"
"14",1700688724337,"22/11/2023 21:32:04",1700688724337,0,"22/11/2023 21:32:04",151512,7,"task-gjqt",NA,33146145,9814645,NA,"complete",NA,"655e6dc1e9ada5668842e2b1","computer","Desktop or Laptop","Windows 10","Chrome 119.0.0.0","1536x864","1536x739",NA,NA,0,"BIQ (Charlotte)",3,"ABJCIDHEGF","Failed AC2","Passed AC1","Spreadsheet1",NA,"","","",NA,"5","END",NA,NA,NA,NA,NA,NA,0,NA,NA,NA,NA,"","",NA,"","",NA,"SUPPRF47214"
"1",1700688976734,"22/11/2023 21:36:16",1700688976734,0,"22/11/2023 21:36:16",151512,7,"task-gjqt",NA,33146292,9814708,NA,"complete",NA,"655e724aa578f8d8519f2ae2","computer","Desktop or Laptop","Mac OS 10.15.7","Chrome 116.0.0.0","1440x900","1440x731",NA,NA,0,"BIQ (Charlotte)",3,"BCADJEIFHG","Passed AC2","","Spreadsheet1",NA,"","","",NA,"5","BEGIN",NA,NA,NA,NA,NA,NA,0,NA,NA,NA,NA,"","",NA,"","",NA,"SUPPRF23161"
"2",1700689000832,"22/11/2023 21:36:40",1700689000832,0,"22/11/2023 21:36:40",151512,7,"task-gjqt",NA,33146292,9814708,NA,"complete",NA,"655e724aa578f8d8519f2ae2","computer","Desktop or Laptop","Mac OS 10.15.7","Chrome 116.0.0.0","1440x900","1440x731",NA,NA,0,"BIQ (Charlotte)",3,"BCADJEIFHG","Passed AC2","","Spreadsheet1",1,"BIQ","Screen 1","9dh6eq",1,"continue","",24114.1499999996,24097.744,24114.1499999996,24114.1499999996,24097.744,24114.1499999996,1,24114.1499999996,0,0,NA,"Click To Continue","Continue Button",23,"object-48","BIQ",NA,"SUPPRF23161"
"3",1700689000836,"22/11/2023 21:36:40",1700689000836,0,"22/11/2023 21:36:40",151512,7,"task-gjqt",NA,33146292,9814708,NA,"complete",NA,"655e724aa578f8d8519f2ae2","computer","Desktop or Laptop","Mac OS 10.15.7","Chrome 116.0.0.0","1440x900","1440x731",NA,NA,0,"BIQ (Charlotte)",3,"BCADJEIFHG","Passed AC2","","Spreadsheet1",1,"BIQ","Screen 1","9dh6eq",1,"response","3",7252.761,24097.744,24120.3499999998,7252.761,24097.744,24120.3499999998,1,7252.761,16867.5889999998,0,NA,"Rating Scale","Rating Scale",3,"object-5","BIQ",NA,"SUPPRF23161"
"4",1700689000837,"22/11/2023 21:36:40",1700689000837,0,"22/11/2023 21:36:40",151512,7,"task-gjqt",NA,33146292,9814708,NA,"complete",NA,"655e724aa578f8d8519f2ae2","computer","Desktop or Laptop","Mac OS 10.15.7","Chrome 116.0.0.0","1440x900","1440x731",NA,NA,0,"BIQ (Charlotte)",3,"BCADJEIFHG","Passed AC2","","Spreadsheet1",1,"BIQ","Screen 1","9dh6eq",1,"response","6",12165.795,24097.744,24120.9499999994,12165.795,24097.744,24120.9499999994,1,12165.795,11955.1549999994,0,NA,"Rating Scale","Rating Scale",10,"object-18","BIQ",NA,"SUPPRF23161"
"5",1700689000837,"22/11/2023 21:36:40",1700689000837,0,"22/11/2023 21:36:40",151512,7,"task-gjqt",NA,33146292,9814708,NA,"complete",NA,"655e724aa578f8d8519f2ae2","computer","Desktop or Laptop","Mac OS 10.15.7","Chrome 116.0.0.0","1440x900","1440x731",NA,NA,0,"BIQ (Charlotte)",3,"BCADJEIFHG","Passed AC2","","Spreadsheet1",1,"BIQ","Screen 1","9dh6eq",1,"response","8",22326.378,24097.744,24121.55,22326.378,24097.744,24121.55,1,22326.378,1795.172,0,NA,"Rating Scale","Rating Scale",17,"object-80","BIQ",NA,"SUPPRF23161"
"6",1700689017581,"22/11/2023 21:36:57",1700689017581,0,"22/11/2023 21:36:57",151512,7,"task-gjqt",NA,33146292,9814708,NA,"complete",NA,"655e724aa578f8d8519f2ae2","computer","Desktop or Laptop","Mac OS 10.15.7","Chrome 116.0.0.0","1440x900","1440x731",NA,NA,0,"BIQ (Charlotte)",3,"BCADJEIFHG","Passed AC2","","Spreadsheet1",1,"BIQ","Screen 2","o21mwi",2,"continue","",16767.306,16744.781,16767.306,16767.306,16744.781,16767.306,1,16767.306,0,0,NA,"Click To Continue","Continue Button",22,"object-50","BIQ",NA,"SUPPRF23161"
"7",1700689017597,"22/11/2023 21:36:57",1700689017597,0,"22/11/2023 21:36:57",151512,7,"task-gjqt",NA,33146292,9814708,NA,"complete",NA,"655e724aa578f8d8519f2ae2","computer","Desktop or Laptop","Mac OS 10.15.7","Chrome 116.0.0.0","1440x900","1440x731",NA,NA,0,"BIQ (Charlotte)",3,"BCADJEIFHG","Passed AC2","","Spreadsheet1",1,"BIQ","Screen 2","o21mwi",2,"response","6",5882.334,16744.781,16778.203,5882.334,16744.781,16778.203,1,5882.334,10895.869,0,NA,"Rating Scale","Rating Scale",2,"object-259","BIQ",NA,"SUPPRF23161"
"8",1700689017598,"22/11/2023 21:36:57",1700689017598,0,"22/11/2023 21:36:57",151512,7,"task-gjqt",NA,33146292,9814708,NA,"complete",NA,"655e724aa578f8d8519f2ae2","computer","Desktop or Laptop","Mac OS 10.15.7","Chrome 116.0.0.0","1440x900","1440x731",NA,NA,0,"BIQ (Charlotte)",3,"BCADJEIFHG","Passed AC2","","Spreadsheet1",1,"BIQ","Screen 2","o21mwi",2,"response","6",6951.838,16744.781,16778.203,6951.838,16744.781,16778.203,1,6951.838,9826.365,0,NA,"Rating Scale","Rating Scale",9,"object-36","BIQ",NA,"SUPPRF23161"
"9",1700689017598,"22/11/2023 21:36:57",1700689017598,0,"22/11/2023 21:36:57",151512,7,"task-gjqt",NA,33146292,9814708,NA,"complete",NA,"655e724aa578f8d8519f2ae2","computer","Desktop or Laptop","Mac OS 10.15.7","Chrome 116.0.0.0","1440x900","1440x731",NA,NA,0,"BIQ (Charlotte)",3,"BCADJEIFHG","Passed AC2","","Spreadsheet1",1,"BIQ","Screen 2","o21mwi",2,"response","0",14706.039,16744.781,16778.203,14706.039,16744.781,16778.203,1,14706.039,2072.164,0,NA,"Rating Scale","Rating Scale",16,"object-86","BIQ",NA,"SUPPRF23161"
"10",1700689029717,"22/11/2023 21:37:09",1700689029717,0,"22/11/2023 21:37:09",151512,7,"task-gjqt",NA,33146292,9814708,NA,"complete",NA,"655e724aa578f8d8519f2ae2","computer","Desktop or Laptop","Mac OS 10.15.7","Chrome 116.0.0.0","1440x900","1440x731",NA,NA,0,"BIQ (Charlotte)",3,"BCADJEIFHG","Passed AC2","","Spreadsheet1",1,"BIQ","Screen 3","iz3the",3,"continue","",12158.025,12132.25,12158.025,12158.025,12132.25,12158.025,1,12158.025,0,0,NA,"Click To Continue","Continue Button",22,"object-73","BIQ",NA,"SUPPRF23161"
"11",1700689029722,"22/11/2023 21:37:09",1700689029722,0,"22/11/2023 21:37:09",151512,7,"task-gjqt",NA,33146292,9814708,NA,"complete",NA,"655e724aa578f8d8519f2ae2","computer","Desktop or Laptop","Mac OS 10.15.7","Chrome 116.0.0.0","1440x900","1440x731",NA,NA,0,"BIQ (Charlotte)",3,"BCADJEIFHG","Passed AC2","","Spreadsheet1",1,"BIQ","Screen 3","iz3the",3,"response","0",4411.768,12132.25,12162.1249999996,4411.768,12132.25,12162.1249999996,1,4411.768,7750.35699999963,0,NA,"Rating Scale","Rating Scale",2,"object-53","BIQ",NA,"SUPPRF23161"
"12",1700689029724,"22/11/2023 21:37:09",1700689029724,0,"22/11/2023 21:37:09",151512,7,"task-gjqt",NA,33146292,9814708,NA,"complete",NA,"655e724aa578f8d8519f2ae2","computer","Desktop or Laptop","Mac OS 10.15.7","Chrome 116.0.0.0","1440x900","1440x731",NA,NA,0,"BIQ (Charlotte)",3,"BCADJEIFHG","Passed AC2","","Spreadsheet1",1,"BIQ","Screen 3","iz3the",3,"response","7",6149.712,12132.25,12164.4249999994,6149.712,12132.25,12164.4249999994,1,6149.712,6014.71299999944,0,NA,"Rating Scale","Rating Scale",9,"object-60","BIQ",NA,"SUPPRF23161"
"13",1700689029724,"22/11/2023 21:37:09",1700689029724,0,"22/11/2023 21:37:09",151512,7,"task-gjqt",NA,33146292,9814708,NA,"complete",NA,"655e724aa578f8d8519f2ae2","computer","Desktop or Laptop","Mac OS 10.15.7","Chrome 116.0.0.0","1440x900","1440x731",NA,NA,0,"BIQ (Charlotte)",3,"BCADJEIFHG","Passed AC2","","Spreadsheet1",1,"BIQ","Screen 3","iz3the",3,"response","6",11497.232,12132.25,12165.2250000002,11497.232,12132.25,12165.2250000002,1,11497.232,667.993000000184,0,NA,"Rating Scale","Rating Scale",16,"object-67","BIQ",NA,"SUPPRF23161"
"14",1700689029727,"22/11/2023 21:37:09",1700689029727,0,"22/11/2023 21:37:09",151512,7,"task-gjqt",NA,33146292,9814708,NA,"complete",NA,"655e724aa578f8d8519f2ae2","computer","Desktop or Laptop","Mac OS 10.15.7","Chrome 116.0.0.0","1440x900","1440x731",NA,NA,0,"BIQ (Charlotte)",3,"BCADJEIFHG","Passed AC2","","Spreadsheet1",NA,"","","",NA,"5","END",NA,NA,NA,NA,NA,NA,0,NA,NA,NA,NA,"","",NA,"","",NA,"SUPPRF23161"
"1",1700696236678,"22/11/2023 23:37:16",1700696236678,0,"22/11/2023 23:37:16",151512,7,"task-gjqt",NA,33148073,9815260,NA,"complete",NA,"655e8f1867c92d8505b1dd65","computer","Desktop or Laptop","Windows 10","Chrome 119.0.0.0","1536x864","1536x739",NA,NA,0,"BIQ (Charlotte)",3,"CDBEAFJGIH","Passed AC2","","Spreadsheet1",NA,"","","",NA,"5","BEGIN",NA,NA,NA,NA,NA,NA,0,NA,NA,NA,NA,"","",NA,"","",NA,"SUPPRF13297"
"2",1700696267059,"22/11/2023 23:37:47",1700696267059,0,"22/11/2023 23:37:47",151512,7,"task-gjqt",NA,33148073,9815260,NA,"complete",NA,"655e8f1867c92d8505b1dd65","computer","Desktop or Laptop","Windows 10","Chrome 119.0.0.0","1536x864","1536x739",NA,NA,0,"BIQ (Charlotte)",3,"CDBEAFJGIH","Passed AC2","","Spreadsheet1",1,"BIQ","Screen 1","9dh6eq",1,"continue","",30381.85,30375.64,30381.85,30381.85,30375.64,30381.85,1,30381.85,0,0,NA,"Click To Continue","Continue Button",23,"object-48","BIQ",NA,"SUPPRF13297"
"3",1700696267061,"22/11/2023 23:37:47",1700696267061,0,"22/11/2023 23:37:47",151512,7,"task-gjqt",NA,33148073,9815260,NA,"complete",NA,"655e8f1867c92d8505b1dd65","computer","Desktop or Laptop","Windows 10","Chrome 119.0.0.0","1536x864","1536x739",NA,NA,0,"BIQ (Charlotte)",3,"CDBEAFJGIH","Passed AC2","","Spreadsheet1",1,"BIQ","Screen 1","9dh6eq",1,"response","3",7368.409,30375.64,30381.85,7368.409,30375.64,30381.85,1,7368.409,23013.441,0,NA,"Rating Scale","Rating Scale",3,"object-5","BIQ",NA,"SUPPRF13297"
"4",1700696267061,"22/11/2023 23:37:47",1700696267061,0,"22/11/2023 23:37:47",151512,7,"task-gjqt",NA,33148073,9815260,NA,"complete",NA,"655e8f1867c92d8505b1dd65","computer","Desktop or Laptop","Windows 10","Chrome 119.0.0.0","1536x864","1536x739",NA,NA,0,"BIQ (Charlotte)",3,"CDBEAFJGIH","Passed AC2","","Spreadsheet1",1,"BIQ","Screen 1","9dh6eq",1,"response","7",17699.482,30375.64,30381.85,17699.482,30375.64,30381.85,1,17699.482,12682.368,0,NA,"Rating Scale","Rating Scale",10,"object-18","BIQ",NA,"SUPPRF13297"
"5",1700696267061,"22/11/2023 23:37:47",1700696267061,0,"22/11/2023 23:37:47",151512,7,"task-gjqt",NA,33148073,9815260,NA,"complete",NA,"655e8f1867c92d8505b1dd65","computer","Desktop or Laptop","Windows 10","Chrome 119.0.0.0","1536x864","1536x739",NA,NA,0,"BIQ (Charlotte)",3,"CDBEAFJGIH","Passed AC2","","Spreadsheet1",1,"BIQ","Screen 1","9dh6eq",1,"response","4",26431.137,30375.64,30381.85,26431.137,30375.64,30381.85,1,26431.137,3950.713,0,NA,"Rating Scale","Rating Scale",17,"object-80","BIQ",NA,"SUPPRF13297"
"6",1700696289948,"22/11/2023 23:38:09",1700696289948,0,"22/11/2023 23:38:09",151512,7,"task-gjqt",NA,33148073,9815260,NA,"complete",NA,"655e8f1867c92d8505b1dd65","computer","Desktop or Laptop","Windows 10","Chrome 119.0.0.0","1536x864","1536x739",NA,NA,0,"BIQ (Charlotte)",3,"CDBEAFJGIH","Passed AC2","","Spreadsheet1",1,"BIQ","Screen 2","o21mwi",2,"continue","",22898.383,22892.281,22898.383,22898.383,22892.281,22898.383,1,22898.383,0,0,NA,"Click To Continue","Continue Button",22,"object-50","BIQ",NA,"SUPPRF13297"
"7",1700696289950,"22/11/2023 23:38:09",1700696289950,0,"22/11/2023 23:38:09",151512,7,"task-gjqt",NA,33148073,9815260,NA,"complete",NA,"655e8f1867c92d8505b1dd65","computer","Desktop or Laptop","Windows 10","Chrome 119.0.0.0","1536x864","1536x739",NA,NA,0,"BIQ (Charlotte)",3,"CDBEAFJGIH","Passed AC2","","Spreadsheet1",1,"BIQ","Screen 2","o21mwi",2,"response","6",6319.842,22892.281,22898.383,6319.842,22892.281,22898.383,1,6319.842,16578.541,0,NA,"Rating Scale","Rating Scale",2,"object-259","BIQ",NA,"SUPPRF13297"
"8",1700696289950,"22/11/2023 23:38:09",1700696289950,0,"22/11/2023 23:38:09",151512,7,"task-gjqt",NA,33148073,9815260,NA,"complete",NA,"655e8f1867c92d8505b1dd65","computer","Desktop or Laptop","Windows 10","Chrome 119.0.0.0","1536x864","1536x739",NA,NA,0,"BIQ (Charlotte)",3,"CDBEAFJGIH","Passed AC2","","Spreadsheet1",1,"BIQ","Screen 2","o21mwi",2,"response","2",14203.284,22892.281,22898.383,14203.284,22892.281,22898.383,1,14203.284,8695.099,0,NA,"Rating Scale","Rating Scale",9,"object-36","BIQ",NA,"SUPPRF13297"
"9",1700696289950,"22/11/2023 23:38:09",1700696289950,0,"22/11/2023 23:38:09",151512,7,"task-gjqt",NA,33148073,9815260,NA,"complete",NA,"655e8f1867c92d8505b1dd65","computer","Desktop or Laptop","Windows 10","Chrome 119.0.0.0","1536x864","1536x739",NA,NA,0,"BIQ (Charlotte)",3,"CDBEAFJGIH","Passed AC2","","Spreadsheet1",1,"BIQ","Screen 2","o21mwi",2,"response","1",20208.163,22892.281,22898.383,20208.163,22892.281,22898.383,1,20208.163,2690.22,0,NA,"Rating Scale","Rating Scale",16,"object-86","BIQ",NA,"SUPPRF13297"
"10",1700696306607,"22/11/2023 23:38:26",1700696306607,0,"22/11/2023 23:38:26",151512,7,"task-gjqt",NA,33148073,9815260,NA,"complete",NA,"655e8f1867c92d8505b1dd65","computer","Desktop or Laptop","Windows 10","Chrome 119.0.0.0","1536x864","1536x739",NA,NA,0,"BIQ (Charlotte)",3,"CDBEAFJGIH","Passed AC2","","Spreadsheet1",1,"BIQ","Screen 3","iz3the",3,"continue","",16663.335,16657.282,16663.335,16663.335,16657.282,16663.335,1,16663.335,0,0,NA,"Click To Continue","Continue Button",22,"object-73","BIQ",NA,"SUPPRF13297"
"11",1700696306611,"22/11/2023 23:38:26",1700696306611,0,"22/11/2023 23:38:26",151512,7,"task-gjqt",NA,33148073,9815260,NA,"complete",NA,"655e8f1867c92d8505b1dd65","computer","Desktop or Laptop","Windows 10","Chrome 119.0.0.0","1536x864","1536x739",NA,NA,0,"BIQ (Charlotte)",3,"CDBEAFJGIH","Passed AC2","","Spreadsheet1",1,"BIQ","Screen 3","iz3the",3,"response","1",6132.031,16657.282,16663.335,6132.031,16657.282,16663.335,1,6132.031,10531.304,0,NA,"Rating Scale","Rating Scale",2,"object-53","BIQ",NA,"SUPPRF13297"
"12",1700696306611,"22/11/2023 23:38:26",1700696306611,0,"22/11/2023 23:38:26",151512,7,"task-gjqt",NA,33148073,9815260,NA,"complete",NA,"655e8f1867c92d8505b1dd65","computer","Desktop or Laptop","Windows 10","Chrome 119.0.0.0","1536x864","1536x739",NA,NA,0,"BIQ (Charlotte)",3,"CDBEAFJGIH","Passed AC2","","Spreadsheet1",1,"BIQ","Screen 3","iz3the",3,"response","3",10058.706,16657.282,16663.335,10058.706,16657.282,16663.335,1,10058.706,6604.62900000001,0,NA,"Rating Scale","Rating Scale",9,"object-60","BIQ",NA,"SUPPRF13297"
"13",1700696306612,"22/11/2023 23:38:26",1700696306612,0,"22/11/2023 23:38:26",151512,7,"task-gjqt",NA,33148073,9815260,NA,"complete",NA,"655e8f1867c92d8505b1dd65","computer","Desktop or Laptop","Windows 10","Chrome 119.0.0.0","1536x864","1536x739",NA,NA,0,"BIQ (Charlotte)",3,"CDBEAFJGIH","Passed AC2","","Spreadsheet1",1,"BIQ","Screen 3","iz3the",3,"response","6",14227.352,16657.282,16663.335,14227.352,16657.282,16663.335,1,14227.352,2435.98300000001,0,NA,"Rating Scale","Rating Scale",16,"object-67","BIQ",NA,"SUPPRF13297"
"14",1700696306614,"22/11/2023 23:38:26",1700696306614,0,"22/11/2023 23:38:26",151512,7,"task-gjqt",NA,33148073,9815260,NA,"complete",NA,"655e8f1867c92d8505b1dd65","computer","Desktop or Laptop","Windows 10","Chrome 119.0.0.0","1536x864","1536x739",NA,NA,0,"BIQ (Charlotte)",3,"CDBEAFJGIH","Passed AC2","","Spreadsheet1",NA,"","","",NA,"5","END",NA,NA,NA,NA,NA,NA,0,NA,NA,NA,NA,"","",NA,"","",NA,"SUPPRF13297"
"1",1700700282060,"23/11/2023 00:44:42",1700703882060,1,"23/11/2023 02:44:42",151512,7,"task-gjqt",NA,33148627,9815398,NA,"complete",NA,"655e6db4d0a6130a864d8405","computer","Desktop or Laptop","Windows 10","Chrome 119.0.0.0","1366x768","1366x651",NA,NA,0,"BIQ (Charlotte)",3,"DECFBGAHJI","Passed AC2","","Spreadsheet1",NA,"","","",NA,"5","BEGIN",NA,NA,NA,NA,NA,NA,0,NA,NA,NA,NA,"","",NA,"","",NA,"SUPPRF71413"
"2",1700700343642,"23/11/2023 00:45:43",1700703943642,1,"23/11/2023 02:45:43",151512,7,"task-gjqt",NA,33148627,9815398,NA,"complete",NA,"655e6db4d0a6130a864d8405","computer","Desktop or Laptop","Windows 10","Chrome 119.0.0.0","1366x768","1366x651",NA,NA,0,"BIQ (Charlotte)",3,"DECFBGAHJI","Passed AC2","","Spreadsheet1",1,"BIQ","Screen 1","9dh6eq",1,"continue","",61588.9080000007,61573.473,61588.9080000007,61588.9080000007,61573.473,61588.9080000007,1,61588.9080000007,0,0,NA,"Click To Continue","Continue Button",23,"object-48","BIQ",NA,"SUPPRF71413"
"3",1700700343646,"23/11/2023 00:45:43",1700703943646,1,"23/11/2023 02:45:43",151512,7,"task-gjqt",NA,33148627,9815398,NA,"complete",NA,"655e6db4d0a6130a864d8405","computer","Desktop or Laptop","Windows 10","Chrome 119.0.0.0","1366x768","1366x651",NA,NA,0,"BIQ (Charlotte)",3,"DECFBGAHJI","Passed AC2","","Spreadsheet1",1,"BIQ","Screen 1","9dh6eq",1,"response","4",32627.92,61573.473,61589.987,32627.92,61573.473,61589.987,1,32627.92,28962.067,0,NA,"Rating Scale","Rating Scale",3,"object-5","BIQ",NA,"SUPPRF71413"
"4",1700700343647,"23/11/2023 00:45:43",1700703943647,1,"23/11/2023 02:45:43",151512,7,"task-gjqt",NA,33148627,9815398,NA,"complete",NA,"655e6db4d0a6130a864d8405","computer","Desktop or Laptop","Windows 10","Chrome 119.0.0.0","1366x768","1366x651",NA,NA,0,"BIQ (Charlotte)",3,"DECFBGAHJI","Passed AC2","","Spreadsheet1",1,"BIQ","Screen 1","9dh6eq",1,"response","6",49492.077,61573.473,61589.987,49492.077,61573.473,61589.987,1,49492.077,12097.91,0,NA,"Rating Scale","Rating Scale",10,"object-18","BIQ",NA,"SUPPRF71413"
"5",1700700343648,"23/11/2023 00:45:43",1700703943648,1,"23/11/2023 02:45:43",151512,7,"task-gjqt",NA,33148627,9815398,NA,"complete",NA,"655e6db4d0a6130a864d8405","computer","Desktop or Laptop","Windows 10","Chrome 119.0.0.0","1366x768","1366x651",NA,NA,0,"BIQ (Charlotte)",3,"DECFBGAHJI","Passed AC2","","Spreadsheet1",1,"BIQ","Screen 1","9dh6eq",1,"response","0",59473.821,61573.473,61589.987,59473.821,61573.473,61589.987,1,59473.821,2116.16600000001,0,NA,"Rating Scale","Rating Scale",17,"object-80","BIQ",NA,"SUPPRF71413"
"6",1700700386869,"23/11/2023 00:46:26",1700703986869,1,"23/11/2023 02:46:26",151512,7,"task-gjqt",NA,33148627,9815398,NA,"complete",NA,"655e6db4d0a6130a864d8405","computer","Desktop or Laptop","Windows 10","Chrome 119.0.0.0","1366x768","1366x651",NA,NA,0,"BIQ (Charlotte)",3,"DECFBGAHJI","Passed AC2","","Spreadsheet1",1,"BIQ","Screen 2","o21mwi",2,"continue","",43266.2349999996,43260.198,43266.2349999996,43266.2349999996,43260.198,43266.2349999996,1,43266.2349999996,0,0,NA,"Click To Continue","Continue Button",22,"object-50","BIQ",NA,"SUPPRF71413"
"7",1700700386874,"23/11/2023 00:46:26",1700703986874,1,"23/11/2023 02:46:26",151512,7,"task-gjqt",NA,33148627,9815398,NA,"complete",NA,"655e6db4d0a6130a864d8405","computer","Desktop or Laptop","Windows 10","Chrome 119.0.0.0","1366x768","1366x651",NA,NA,0,"BIQ (Charlotte)",3,"DECFBGAHJI","Passed AC2","","Spreadsheet1",1,"BIQ","Screen 2","o21mwi",2,"response","8",11881.625,43260.198,43270.9350000007,11881.625,43260.198,43270.9350000007,1,11881.625,31389.3100000007,0,NA,"Rating Scale","Rating Scale",2,"object-259","BIQ",NA,"SUPPRF71413"
"8",1700700386875,"23/11/2023 00:46:26",1700703986875,1,"23/11/2023 02:46:26",151512,7,"task-gjqt",NA,33148627,9815398,NA,"complete",NA,"655e6db4d0a6130a864d8405","computer","Desktop or Laptop","Windows 10","Chrome 119.0.0.0","1366x768","1366x651",NA,NA,0,"BIQ (Charlotte)",3,"DECFBGAHJI","Passed AC2","","Spreadsheet1",1,"BIQ","Screen 2","o21mwi",2,"response","0",21030.248,43260.198,43272.2349999996,21030.248,43260.198,43272.2349999996,1,21030.248,22241.9869999996,0,NA,"Rating Scale","Rating Scale",9,"object-36","BIQ",NA,"SUPPRF71413"
"9",1700700386876,"23/11/2023 00:46:26",1700703986876,1,"23/11/2023 02:46:26",151512,7,"task-gjqt",NA,33148627,9815398,NA,"complete",NA,"655e6db4d0a6130a864d8405","computer","Desktop or Laptop","Windows 10","Chrome 119.0.0.0","1366x768","1366x651",NA,NA,0,"BIQ (Charlotte)",3,"DECFBGAHJI","Passed AC2","","Spreadsheet1",1,"BIQ","Screen 2","o21mwi",2,"response","2",36911.187,43260.198,43273.4350000007,36911.187,43260.198,43273.4350000007,1,36911.187,6362.24800000075,0,NA,"Rating Scale","Rating Scale",16,"object-86","BIQ",NA,"SUPPRF71413"
"10",1700700416671,"23/11/2023 00:46:56",1700704016671,1,"23/11/2023 02:46:56",151512,7,"task-gjqt",NA,33148627,9815398,NA,"complete",NA,"655e6db4d0a6130a864d8405","computer","Desktop or Laptop","Windows 10","Chrome 119.0.0.0","1366x768","1366x651",NA,NA,0,"BIQ (Charlotte)",3,"DECFBGAHJI","Passed AC2","","Spreadsheet1",1,"BIQ","Screen 3","iz3the",3,"continue","",29807.7370000008,29795.445,29807.7370000008,29807.7370000008,29795.445,29807.7370000008,1,29807.7370000008,0,0,NA,"Click To Continue","Continue Button",22,"object-73","BIQ",NA,"SUPPRF71413"
"11",1700700416679,"23/11/2023 00:46:56",1700704016679,1,"23/11/2023 02:46:56",151512,7,"task-gjqt",NA,33148627,9815398,NA,"complete",NA,"655e6db4d0a6130a864d8405","computer","Desktop or Laptop","Windows 10","Chrome 119.0.0.0","1366x768","1366x651",NA,NA,0,"BIQ (Charlotte)",3,"DECFBGAHJI","Passed AC2","","Spreadsheet1",1,"BIQ","Screen 3","iz3the",3,"response","0",9565.27600000001,29795.445,29812.04,9565.27600000001,29795.445,29812.04,1,9565.27600000001,20246.764,0,NA,"Rating Scale","Rating Scale",2,"object-53","BIQ",NA,"SUPPRF71413"
"12",1700700416681,"23/11/2023 00:46:56",1700704016681,1,"23/11/2023 02:46:56",151512,7,"task-gjqt",NA,33148627,9815398,NA,"complete",NA,"655e6db4d0a6130a864d8405","computer","Desktop or Laptop","Windows 10","Chrome 119.0.0.0","1366x768","1366x651",NA,NA,0,"BIQ (Charlotte)",3,"DECFBGAHJI","Passed AC2","","Spreadsheet1",1,"BIQ","Screen 3","iz3the",3,"response","1",19813.77,29795.445,29812.04,19813.77,29795.445,29812.04,1,19813.77,9998.26999999999,0,NA,"Rating Scale","Rating Scale",9,"object-60","BIQ",NA,"SUPPRF71413"
"13",1700700416684,"23/11/2023 00:46:56",1700704016684,1,"23/11/2023 02:46:56",151512,7,"task-gjqt",NA,33148627,9815398,NA,"complete",NA,"655e6db4d0a6130a864d8405","computer","Desktop or Laptop","Windows 10","Chrome 119.0.0.0","1366x768","1366x651",NA,NA,0,"BIQ (Charlotte)",3,"DECFBGAHJI","Passed AC2","","Spreadsheet1",1,"BIQ","Screen 3","iz3the",3,"response","2",27795.845,29795.445,29812.04,27795.845,29795.445,29812.04,1,27795.845,2016.19500000001,0,NA,"Rating Scale","Rating Scale",16,"object-67","BIQ",NA,"SUPPRF71413"
"14",1700700416697,"23/11/2023 00:46:56",1700704016697,1,"23/11/2023 02:46:56",151512,7,"task-gjqt",NA,33148627,9815398,NA,"complete",NA,"655e6db4d0a6130a864d8405","computer","Desktop or Laptop","Windows 10","Chrome 119.0.0.0","1366x768","1366x651",NA,NA,0,"BIQ (Charlotte)",3,"DECFBGAHJI","Passed AC2","","Spreadsheet1",NA,"","","",NA,"5","END",NA,NA,NA,NA,NA,NA,0,NA,NA,NA,NA,"","",NA,"","",NA,"SUPPRF71413"
"1",1700747274409,"23/11/2023 13:47:54",1700747274409,0,"23/11/2023 13:47:54",151512,7,"task-gjqt",NA,33160988,9818675,NA,"complete",NA,"655f56f419524da66a3c2993","computer","Desktop or Laptop","Mac OS 10.15.7","Chrome 119.0.0.0","1440x900","1440x815",NA,NA,0,"BIQ (Charlotte)",3,"FGEHDICJBA","Passed AC2","","Spreadsheet1",NA,"","","",NA,"5","BEGIN",NA,NA,NA,NA,NA,NA,0,NA,NA,NA,NA,"","",NA,"","",NA,"SUPPRF54929"
"2",1700747295971,"23/11/2023 13:48:15",1700747295971,0,"23/11/2023 13:48:15",151512,7,"task-gjqt",NA,33160988,9818675,NA,"complete",NA,"655f56f419524da66a3c2993","computer","Desktop or Laptop","Mac OS 10.15.7","Chrome 119.0.0.0","1440x900","1440x815",NA,NA,0,"BIQ (Charlotte)",3,"FGEHDICJBA","Passed AC2","","Spreadsheet1",1,"BIQ","Screen 1","9dh6eq",1,"continue","",21581.8279999985,21568.978,21581.8279999985,21581.8279999985,21568.978,21581.8279999985,1,21581.8279999985,0,0,NA,"Click To Continue","Continue Button",23,"object-48","BIQ",NA,"SUPPRF54929"
"3",1700747295977,"23/11/2023 13:48:15",1700747295977,0,"23/11/2023 13:48:15",151512,7,"task-gjqt",NA,33160988,9818675,NA,"complete",NA,"655f56f419524da66a3c2993","computer","Desktop or Laptop","Mac OS 10.15.7","Chrome 119.0.0.0","1440x900","1440x815",NA,NA,0,"BIQ (Charlotte)",3,"FGEHDICJBA","Passed AC2","","Spreadsheet1",1,"BIQ","Screen 1","9dh6eq",1,"response","4",14806.671,21568.978,21585.633,14806.671,21568.978,21585.633,1,14806.671,6778.962,0,NA,"Rating Scale","Rating Scale",3,"object-5","BIQ",NA,"SUPPRF54929"
"4",1700747295978,"23/11/2023 13:48:15",1700747295978,0,"23/11/2023 13:48:15",151512,7,"task-gjqt",NA,33160988,9818675,NA,"complete",NA,"655f56f419524da66a3c2993","computer","Desktop or Laptop","Mac OS 10.15.7","Chrome 119.0.0.0","1440x900","1440x815",NA,NA,0,"BIQ (Charlotte)",3,"FGEHDICJBA","Passed AC2","","Spreadsheet1",1,"BIQ","Screen 1","9dh6eq",1,"response","7",17788.293,21568.978,21585.633,17788.293,21568.978,21585.633,1,17788.293,3797.34,0,NA,"Rating Scale","Rating Scale",10,"object-18","BIQ",NA,"SUPPRF54929"
"5",1700747295978,"23/11/2023 13:48:15",1700747295978,0,"23/11/2023 13:48:15",151512,7,"task-gjqt",NA,33160988,9818675,NA,"complete",NA,"655f56f419524da66a3c2993","computer","Desktop or Laptop","Mac OS 10.15.7","Chrome 119.0.0.0","1440x900","1440x815",NA,NA,0,"BIQ (Charlotte)",3,"FGEHDICJBA","Passed AC2","","Spreadsheet1",1,"BIQ","Screen 1","9dh6eq",1,"response","1",20652.953,21568.978,21585.633,20652.953,21568.978,21585.633,1,20652.953,932.679999999997,0,NA,"Rating Scale","Rating Scale",17,"object-80","BIQ",NA,"SUPPRF54929"
"6",1700747318515,"23/11/2023 13:48:38",1700747318515,0,"23/11/2023 13:48:38",151512,7,"task-gjqt",NA,33160988,9818675,NA,"complete",NA,"655f56f419524da66a3c2993","computer","Desktop or Laptop","Mac OS 10.15.7","Chrome 119.0.0.0","1440x900","1440x815",NA,NA,0,"BIQ (Charlotte)",3,"FGEHDICJBA","Passed AC2","","Spreadsheet1",1,"BIQ","Screen 2","o21mwi",2,"continue","",22558.8499999985,22551.623,22558.8499999985,22558.8499999985,22551.623,22558.8499999985,1,22558.8499999985,0,0,NA,"Click To Continue","Continue Button",22,"object-50","BIQ",NA,"SUPPRF54929"
"7",1700747318517,"23/11/2023 13:48:38",1700747318517,0,"23/11/2023 13:48:38",151512,7,"task-gjqt",NA,33160988,9818675,NA,"complete",NA,"655f56f419524da66a3c2993","computer","Desktop or Laptop","Mac OS 10.15.7","Chrome 119.0.0.0","1440x900","1440x815",NA,NA,0,"BIQ (Charlotte)",3,"FGEHDICJBA","Passed AC2","","Spreadsheet1",1,"BIQ","Screen 2","o21mwi",2,"response","7",4880.292,22551.623,22561.0500000015,4880.292,22551.623,22561.0500000015,1,4880.292,17680.7580000015,0,NA,"Rating Scale","Rating Scale",2,"object-259","BIQ",NA,"SUPPRF54929"
"8",1700747318517,"23/11/2023 13:48:38",1700747318517,0,"23/11/2023 13:48:38",151512,7,"task-gjqt",NA,33160988,9818675,NA,"complete",NA,"655f56f419524da66a3c2993","computer","Desktop or Laptop","Mac OS 10.15.7","Chrome 119.0.0.0","1440x900","1440x815",NA,NA,0,"BIQ (Charlotte)",3,"FGEHDICJBA","Passed AC2","","Spreadsheet1",1,"BIQ","Screen 2","o21mwi",2,"response","2",12674.832,22551.623,22561.6499999955,12674.832,22551.623,22561.6499999955,1,12674.832,9886.81799999553,0,NA,"Rating Scale","Rating Scale",9,"object-36","BIQ",NA,"SUPPRF54929"
"9",1700747318518,"23/11/2023 13:48:38",1700747318518,0,"23/11/2023 13:48:38",151512,7,"task-gjqt",NA,33160988,9818675,NA,"complete",NA,"655f56f419524da66a3c2993","computer","Desktop or Laptop","Mac OS 10.15.7","Chrome 119.0.0.0","1440x900","1440x815",NA,NA,0,"BIQ (Charlotte)",3,"FGEHDICJBA","Passed AC2","","Spreadsheet1",1,"BIQ","Screen 2","o21mwi",2,"response","2",21952.043,22551.623,22562.0500000015,21952.043,22551.623,22562.0500000015,1,21952.043,610.007000001489,0,NA,"Rating Scale","Rating Scale",16,"object-86","BIQ",NA,"SUPPRF54929"
"10",1700747330869,"23/11/2023 13:48:50",1700747330869,0,"23/11/2023 13:48:50",151512,7,"task-gjqt",NA,33160988,9818675,NA,"complete",NA,"655f56f419524da66a3c2993","computer","Desktop or Laptop","Mac OS 10.15.7","Chrome 119.0.0.0","1440x900","1440x815",NA,NA,0,"BIQ (Charlotte)",3,"FGEHDICJBA","Passed AC2","","Spreadsheet1",1,"BIQ","Screen 3","iz3the",3,"continue","",12358.762,12342.107,12358.762,12358.762,12342.107,12358.762,1,12358.762,0,0,NA,"Click To Continue","Continue Button",22,"object-73","BIQ",NA,"SUPPRF54929"
"11",1700747330873,"23/11/2023 13:48:50",1700747330873,0,"23/11/2023 13:48:50",151512,7,"task-gjqt",NA,33160988,9818675,NA,"complete",NA,"655f56f419524da66a3c2993","computer","Desktop or Laptop","Mac OS 10.15.7","Chrome 119.0.0.0","1440x900","1440x815",NA,NA,0,"BIQ (Charlotte)",3,"FGEHDICJBA","Passed AC2","","Spreadsheet1",1,"BIQ","Screen 3","iz3the",3,"response","0",5896.246,12342.107,12358.762,5896.246,12342.107,12358.762,1,5896.246,6462.516,0,NA,"Rating Scale","Rating Scale",2,"object-53","BIQ",NA,"SUPPRF54929"
"12",1700747330875,"23/11/2023 13:48:50",1700747330875,0,"23/11/2023 13:48:50",151512,7,"task-gjqt",NA,33160988,9818675,NA,"complete",NA,"655f56f419524da66a3c2993","computer","Desktop or Laptop","Mac OS 10.15.7","Chrome 119.0.0.0","1440x900","1440x815",NA,NA,0,"BIQ (Charlotte)",3,"FGEHDICJBA","Passed AC2","","Spreadsheet1",1,"BIQ","Screen 3","iz3the",3,"response","2",8827.526,12342.107,12358.762,8827.526,12342.107,12358.762,1,8827.526,3531.236,0,NA,"Rating Scale","Rating Scale",9,"object-60","BIQ",NA,"SUPPRF54929"
"13",1700747330876,"23/11/2023 13:48:50",1700747330876,0,"23/11/2023 13:48:50",151512,7,"task-gjqt",NA,33160988,9818675,NA,"complete",NA,"655f56f419524da66a3c2993","computer","Desktop or Laptop","Mac OS 10.15.7","Chrome 119.0.0.0","1440x900","1440x815",NA,NA,0,"BIQ (Charlotte)",3,"FGEHDICJBA","Passed AC2","","Spreadsheet1",1,"BIQ","Screen 3","iz3the",3,"response","0",11592.256,12342.107,12358.762,11592.256,12342.107,12358.762,1,11592.256,766.506000000001,0,NA,"Rating Scale","Rating Scale",16,"object-67","BIQ",NA,"SUPPRF54929"
"14",1700747330883,"23/11/2023 13:48:50",1700747330883,0,"23/11/2023 13:48:50",151512,7,"task-gjqt",NA,33160988,9818675,NA,"complete",NA,"655f56f419524da66a3c2993","computer","Desktop or Laptop","Mac OS 10.15.7","Chrome 119.0.0.0","1440x900","1440x815",NA,NA,0,"BIQ (Charlotte)",3,"FGEHDICJBA","Passed AC2","","Spreadsheet1",NA,"","","",NA,"5","END",NA,NA,NA,NA,NA,NA,0,NA,NA,NA,NA,"","",NA,"","",NA,"SUPPRF54929"
"1",1700753265364,"23/11/2023 15:27:45",1700753265364,0,"23/11/2023 15:27:45",151512,7,"task-gjqt",NA,33165011,9819862,NA,"complete",NA,"655f6e8fc7bc1e677aafb12e","computer","Desktop or Laptop","Windows 10","Chrome 119.0.0.0","1366x768","1366x633",NA,NA,0,"BIQ (Charlotte)",3,"GHFIEJDACB","Passed AC2","","Spreadsheet1",NA,"","","",NA,"5","BEGIN",NA,NA,NA,NA,NA,NA,0,NA,NA,NA,NA,"","",NA,"","",NA,"SUPPRF03254"
"2",1700753303127,"23/11/2023 15:28:23",1700753303127,0,"23/11/2023 15:28:23",151512,7,"task-gjqt",NA,33165011,9819862,NA,"complete",NA,"655f6e8fc7bc1e677aafb12e","computer","Desktop or Laptop","Windows 10","Chrome 119.0.0.0","1366x768","1366x633",NA,NA,0,"BIQ (Charlotte)",3,"GHFIEJDACB","Passed AC2","","Spreadsheet1",1,"BIQ","Screen 1","9dh6eq",1,"continue","",37779.158,37762.49,37779.158,37779.158,37762.49,37779.158,1,37779.158,0,0,NA,"Click To Continue","Continue Button",23,"object-48","BIQ",NA,"SUPPRF03254"
"3",1700753303136,"23/11/2023 15:28:23",1700753303136,0,"23/11/2023 15:28:23",151512,7,"task-gjqt",NA,33165011,9819862,NA,"complete",NA,"655f6e8fc7bc1e677aafb12e","computer","Desktop or Laptop","Windows 10","Chrome 119.0.0.0","1366x768","1366x633",NA,NA,0,"BIQ (Charlotte)",3,"GHFIEJDACB","Passed AC2","","Spreadsheet1",1,"BIQ","Screen 1","9dh6eq",1,"response","4",20114.34,37762.49,37779.158,20114.34,37762.49,37779.158,1,20114.34,17664.818,0,NA,"Rating Scale","Rating Scale",3,"object-5","BIQ",NA,"SUPPRF03254"
"4",1700753303137,"23/11/2023 15:28:23",1700753303137,0,"23/11/2023 15:28:23",151512,7,"task-gjqt",NA,33165011,9819862,NA,"complete",NA,"655f6e8fc7bc1e677aafb12e","computer","Desktop or Laptop","Windows 10","Chrome 119.0.0.0","1366x768","1366x633",NA,NA,0,"BIQ (Charlotte)",3,"GHFIEJDACB","Passed AC2","","Spreadsheet1",1,"BIQ","Screen 1","9dh6eq",1,"response","5",31963.094,37762.49,37779.158,31963.094,37762.49,37779.158,1,31963.094,5816.064,0,NA,"Rating Scale","Rating Scale",10,"object-18","BIQ",NA,"SUPPRF03254"
"5",1700753303137,"23/11/2023 15:28:23",1700753303137,0,"23/11/2023 15:28:23",151512,7,"task-gjqt",NA,33165011,9819862,NA,"complete",NA,"655f6e8fc7bc1e677aafb12e","computer","Desktop or Laptop","Windows 10","Chrome 119.0.0.0","1366x768","1366x633",NA,NA,0,"BIQ (Charlotte)",3,"GHFIEJDACB","Passed AC2","","Spreadsheet1",1,"BIQ","Screen 1","9dh6eq",1,"response","2",37295.87,37762.49,37779.158,37295.87,37762.49,37779.158,1,37295.87,483.288,0,NA,"Rating Scale","Rating Scale",17,"object-80","BIQ",NA,"SUPPRF03254"
"6",1700753331802,"23/11/2023 15:28:51",1700753331802,0,"23/11/2023 15:28:51",151512,7,"task-gjqt",NA,33165011,9819862,NA,"complete",NA,"655f6e8fc7bc1e677aafb12e","computer","Desktop or Laptop","Windows 10","Chrome 119.0.0.0","1366x768","1366x633",NA,NA,0,"BIQ (Charlotte)",3,"GHFIEJDACB","Passed AC2","","Spreadsheet1",1,"BIQ","Screen 2","o21mwi",2,"continue","",28717.3320000001,28713.508,28717.3320000001,28717.3320000001,28713.508,28717.3320000001,1,28717.3320000001,0,0,NA,"Click To Continue","Continue Button",22,"object-50","BIQ",NA,"SUPPRF03254"
"7",1700753331810,"23/11/2023 15:28:51",1700753331810,0,"23/11/2023 15:28:51",151512,7,"task-gjqt",NA,33165011,9819862,NA,"complete",NA,"655f6e8fc7bc1e677aafb12e","computer","Desktop or Laptop","Windows 10","Chrome 119.0.0.0","1366x768","1366x633",NA,NA,0,"BIQ (Charlotte)",3,"GHFIEJDACB","Passed AC2","","Spreadsheet1",1,"BIQ","Screen 2","o21mwi",2,"response","7",7365.778,28713.508,28725.0320000001,7365.778,28713.508,28725.0320000001,1,7365.778,21359.2540000001,0,NA,"Rating Scale","Rating Scale",2,"object-259","BIQ",NA,"SUPPRF03254"
"8",1700753331812,"23/11/2023 15:28:51",1700753331812,0,"23/11/2023 15:28:51",151512,7,"task-gjqt",NA,33165011,9819862,NA,"complete",NA,"655f6e8fc7bc1e677aafb12e","computer","Desktop or Laptop","Windows 10","Chrome 119.0.0.0","1366x768","1366x633",NA,NA,0,"BIQ (Charlotte)",3,"GHFIEJDACB","Passed AC2","","Spreadsheet1",1,"BIQ","Screen 2","o21mwi",2,"response","2",14348.477,28713.508,28727.132,14348.477,28713.508,28727.132,1,14348.477,14378.655,0,NA,"Rating Scale","Rating Scale",9,"object-36","BIQ",NA,"SUPPRF03254"
"9",1700753331814,"23/11/2023 15:28:51",1700753331814,0,"23/11/2023 15:28:51",151512,7,"task-gjqt",NA,33165011,9819862,NA,"complete",NA,"655f6e8fc7bc1e677aafb12e","computer","Desktop or Laptop","Windows 10","Chrome 119.0.0.0","1366x768","1366x633",NA,NA,0,"BIQ (Charlotte)",3,"GHFIEJDACB","Passed AC2","","Spreadsheet1",1,"BIQ","Screen 2","o21mwi",2,"response","2",27680.421,28713.508,28728.932,27680.421,28713.508,28728.932,1,27680.421,1048.511,0,NA,"Rating Scale","Rating Scale",16,"object-86","BIQ",NA,"SUPPRF03254"
"10",1700753348460,"23/11/2023 15:29:08",1700753348460,0,"23/11/2023 15:29:08",151512,7,"task-gjqt",NA,33165011,9819862,NA,"complete",NA,"655f6e8fc7bc1e677aafb12e","computer","Desktop or Laptop","Windows 10","Chrome 119.0.0.0","1366x768","1366x633",NA,NA,0,"BIQ (Charlotte)",3,"GHFIEJDACB","Passed AC2","","Spreadsheet1",1,"BIQ","Screen 3","iz3the",3,"continue","",16661.724,16648.246,16661.724,16661.724,16648.246,16661.724,1,16661.724,0,0,NA,"Click To Continue","Continue Button",22,"object-73","BIQ",NA,"SUPPRF03254"
"11",1700753348470,"23/11/2023 15:29:08",1700753348470,0,"23/11/2023 15:29:08",151512,7,"task-gjqt",NA,33165011,9819862,NA,"complete",NA,"655f6e8fc7bc1e677aafb12e","computer","Desktop or Laptop","Windows 10","Chrome 119.0.0.0","1366x768","1366x633",NA,NA,0,"BIQ (Charlotte)",3,"GHFIEJDACB","Passed AC2","","Spreadsheet1",1,"BIQ","Screen 3","iz3the",3,"response","0",5016.07399999999,16648.246,16664.781,5016.07399999999,16648.246,16664.781,1,5016.07399999999,11648.707,0,NA,"Rating Scale","Rating Scale",2,"object-53","BIQ",NA,"SUPPRF03254"
"12",1700753348472,"23/11/2023 15:29:08",1700753348472,0,"23/11/2023 15:29:08",151512,7,"task-gjqt",NA,33165011,9819862,NA,"complete",NA,"655f6e8fc7bc1e677aafb12e","computer","Desktop or Laptop","Windows 10","Chrome 119.0.0.0","1366x768","1366x633",NA,NA,0,"BIQ (Charlotte)",3,"GHFIEJDACB","Passed AC2","","Spreadsheet1",1,"BIQ","Screen 3","iz3the",3,"response","1",12631.945,16648.246,16664.781,12631.945,16648.246,16664.781,1,12631.945,4032.83600000001,0,NA,"Rating Scale","Rating Scale",9,"object-60","BIQ",NA,"SUPPRF03254"
"13",1700753348474,"23/11/2023 15:29:08",1700753348474,0,"23/11/2023 15:29:08",151512,7,"task-gjqt",NA,33165011,9819862,NA,"complete",NA,"655f6e8fc7bc1e677aafb12e","computer","Desktop or Laptop","Windows 10","Chrome 119.0.0.0","1366x768","1366x633",NA,NA,0,"BIQ (Charlotte)",3,"GHFIEJDACB","Passed AC2","","Spreadsheet1",1,"BIQ","Screen 3","iz3the",3,"response","0",15898.49,16648.246,16664.781,15898.49,16648.246,16664.781,1,15898.49,766.290999999997,0,NA,"Rating Scale","Rating Scale",16,"object-67","BIQ",NA,"SUPPRF03254"
"14",1700753348494,"23/11/2023 15:29:08",1700753348494,0,"23/11/2023 15:29:08",151512,7,"task-gjqt",NA,33165011,9819862,NA,"complete",NA,"655f6e8fc7bc1e677aafb12e","computer","Desktop or Laptop","Windows 10","Chrome 119.0.0.0","1366x768","1366x633",NA,NA,0,"BIQ (Charlotte)",3,"GHFIEJDACB","Passed AC2","","Spreadsheet1",NA,"","","",NA,"5","END",NA,NA,NA,NA,NA,NA,0,NA,NA,NA,NA,"","",NA,"","",NA,"SUPPRF03254"
"1",1700753353115,"23/11/2023 15:29:13",1700753353115,0,"23/11/2023 15:29:13",151512,7,"task-gjqt",NA,33165063,9819886,NA,"complete",NA,"655f6f12c013c805619d27dc","computer","Desktop or Laptop","Mac OS 10.15.7","Chrome 119.0.0.0","1440x900","1440x791",NA,NA,0,"BIQ (Charlotte)",3,"HIGJFAEBDC","Passed AC2","","Spreadsheet1",NA,"","","",NA,"5","BEGIN",NA,NA,NA,NA,NA,NA,0,NA,NA,NA,NA,"","",NA,"","",NA,"SUPPRF74387"
"2",1700753364997,"23/11/2023 15:29:24",1700753364997,0,"23/11/2023 15:29:24",151512,7,"task-gjqt",NA,33165063,9819886,NA,"complete",NA,"655f6f12c013c805619d27dc","computer","Desktop or Laptop","Mac OS 10.15.7","Chrome 119.0.0.0","1440x900","1440x791",NA,NA,0,"BIQ (Charlotte)",3,"HIGJFAEBDC","Passed AC2","","Spreadsheet1",1,"BIQ","Screen 1","9dh6eq",1,"continue","",11893.664000003,11884.527,11893.664000003,11893.664000003,11884.527,11893.664000003,1,11893.664000003,0,0,NA,"Click To Continue","Continue Button",23,"object-48","BIQ",NA,"SUPPRF74387"
"3",1700753365000,"23/11/2023 15:29:25",1700753365000,0,"23/11/2023 15:29:25",151512,7,"task-gjqt",NA,33165063,9819886,NA,"complete",NA,"655f6f12c013c805619d27dc","computer","Desktop or Laptop","Mac OS 10.15.7","Chrome 119.0.0.0","1440x900","1440x791",NA,NA,0,"BIQ (Charlotte)",3,"HIGJFAEBDC","Passed AC2","","Spreadsheet1",1,"BIQ","Screen 1","9dh6eq",1,"response","7",4717.241,11884.527,11896.8640000022,4717.241,11884.527,11896.8640000022,1,4717.241,7179.62300000224,0,NA,"Rating Scale","Rating Scale",3,"object-5","BIQ",NA,"SUPPRF74387"
"4",1700753365001,"23/11/2023 15:29:25",1700753365001,0,"23/11/2023 15:29:25",151512,7,"task-gjqt",NA,33165063,9819886,NA,"complete",NA,"655f6f12c013c805619d27dc","computer","Desktop or Laptop","Mac OS 10.15.7","Chrome 119.0.0.0","1440x900","1440x791",NA,NA,0,"BIQ (Charlotte)",3,"HIGJFAEBDC","Passed AC2","","Spreadsheet1",1,"BIQ","Screen 1","9dh6eq",1,"response","5",8383.981,11884.527,11897.7640000007,8383.981,11884.527,11897.7640000007,1,8383.981,3513.78300000075,0,NA,"Rating Scale","Rating Scale",10,"object-18","BIQ",NA,"SUPPRF74387"
"5",1700753365001,"23/11/2023 15:29:25",1700753365001,0,"23/11/2023 15:29:25",151512,7,"task-gjqt",NA,33165063,9819886,NA,"complete",NA,"655f6f12c013c805619d27dc","computer","Desktop or Laptop","Mac OS 10.15.7","Chrome 119.0.0.0","1440x900","1440x791",NA,NA,0,"BIQ (Charlotte)",3,"HIGJFAEBDC","Passed AC2","","Spreadsheet1",1,"BIQ","Screen 1","9dh6eq",1,"response","4",11167.846,11884.527,11898.464,11167.846,11884.527,11898.464,1,11167.846,730.618,0,NA,"Rating Scale","Rating Scale",17,"object-80","BIQ",NA,"SUPPRF74387"
"6",1700753379599,"23/11/2023 15:29:39",1700753379599,0,"23/11/2023 15:29:39",151512,7,"task-gjqt",NA,33165063,9819886,NA,"complete",NA,"655f6f12c013c805619d27dc","computer","Desktop or Laptop","Mac OS 10.15.7","Chrome 119.0.0.0","1440x900","1440x791",NA,NA,0,"BIQ (Charlotte)",3,"HIGJFAEBDC","Passed AC2","","Spreadsheet1",1,"BIQ","Screen 2","o21mwi",2,"continue","",14609.437,14600.768,14609.437,14609.437,14600.768,14609.437,1,14609.437,0,0,NA,"Click To Continue","Continue Button",22,"object-50","BIQ",NA,"SUPPRF74387"
"7",1700753379601,"23/11/2023 15:29:39",1700753379601,0,"23/11/2023 15:29:39",151512,7,"task-gjqt",NA,33165063,9819886,NA,"complete",NA,"655f6f12c013c805619d27dc","computer","Desktop or Laptop","Mac OS 10.15.7","Chrome 119.0.0.0","1440x900","1440x791",NA,NA,0,"BIQ (Charlotte)",3,"HIGJFAEBDC","Passed AC2","","Spreadsheet1",1,"BIQ","Screen 2","o21mwi",2,"response","7",2566.718,14600.768,14611.8370000022,2566.718,14600.768,14611.8370000022,1,2566.718,12045.1190000022,0,NA,"Rating Scale","Rating Scale",2,"object-259","BIQ",NA,"SUPPRF74387"
"8",1700753379601,"23/11/2023 15:29:39",1700753379601,0,"23/11/2023 15:29:39",151512,7,"task-gjqt",NA,33165063,9819886,NA,"complete",NA,"655f6f12c013c805619d27dc","computer","Desktop or Laptop","Mac OS 10.15.7","Chrome 119.0.0.0","1440x900","1440x791",NA,NA,0,"BIQ (Charlotte)",3,"HIGJFAEBDC","Passed AC2","","Spreadsheet1",1,"BIQ","Screen 2","o21mwi",2,"response","5",6433.462,14600.768,14612.437,6433.462,14600.768,14612.437,1,6433.462,8178.975,0,NA,"Rating Scale","Rating Scale",9,"object-36","BIQ",NA,"SUPPRF74387"
"9",1700753379602,"23/11/2023 15:29:39",1700753379602,0,"23/11/2023 15:29:39",151512,7,"task-gjqt",NA,33165063,9819886,NA,"complete",NA,"655f6f12c013c805619d27dc","computer","Desktop or Laptop","Mac OS 10.15.7","Chrome 119.0.0.0","1440x900","1440x791",NA,NA,0,"BIQ (Charlotte)",3,"HIGJFAEBDC","Passed AC2","","Spreadsheet1",1,"BIQ","Screen 2","o21mwi",2,"response","4",11284.035,14600.768,14612.937,11284.035,14600.768,14612.937,1,11284.035,3328.902,0,NA,"Rating Scale","Rating Scale",16,"object-86","BIQ",NA,"SUPPRF74387"
"10",1700753388317,"23/11/2023 15:29:48",1700753388317,0,"23/11/2023 15:29:48",151512,7,"task-gjqt",NA,33165063,9819886,NA,"complete",NA,"655f6f12c013c805619d27dc","computer","Desktop or Laptop","Mac OS 10.15.7","Chrome 119.0.0.0","1440x900","1440x791",NA,NA,0,"BIQ (Charlotte)",3,"HIGJFAEBDC","Passed AC2","","Spreadsheet1",1,"BIQ","Screen 3","iz3the",3,"continue","",8726.56900000224,8717.317,8726.56900000224,8726.56900000224,8717.317,8726.56900000224,1,8726.56900000224,0,0,NA,"Click To Continue","Continue Button",22,"object-73","BIQ",NA,"SUPPRF74387"
