"Event.Index","UTC.Timestamp","UTC.Date.and.Time","Local.Timestamp","Local.Timezone","Local.Date.and.Time","Experiment.ID","Experiment.Version","Tree.Node.Key","Repeat.Key","Schedule.ID","Participant.Private.ID","Participant.Starting.Group","Participant.Status","Participant.Completion.Code","Participant.External.Session.ID","Participant.Device.Type","Participant.Device","Participant.OS","Participant.Browser","Participant.Monitor.Size","Participant.Viewport.Size","Checkpoint","Room.ID","Room.Order","Task.Name","Task.Version","order.ot79","branch.g31k","branch.5gtn","Spreadsheet","Trial.Number","Display","Screen","Screen.ID","Screen.Counter","Response.Type","Response","Onset.Time","Clock.Time","Reaction.Time","Absolute.Onset.Time","Absolute.Clock.Time","Absolute.Reaction.Time","Correct","Response.Onset","Response.Duration","Proportion","Tag","Component.Name","Object.Name","Object.Number","Object.ID","Spreadsheet..display","Manipulation..Spreadsheet","Random_ID"
"1",1709921481572,"08/03/2024 18:11:21",1709921481572,0,"08/03/2024 18:11:21",170281,5,"task-msu8",NA,35908967,10612565,NA,"complete",NA,"65eb4fa1ce545fd232f32bc7","computer","Desktop or Laptop","Windows 10","Chrome 122.0.0.0","1920x1080","1920x945",NA,NA,0,"Task Introduction and Instructions (re-introduce video and audio) (Clone)",10,"ABJCIDHEGF","Passed AC2",NA,"Spreadsheet1",NA,"","","",NA,"5","BEGIN",NA,NA,NA,NA,NA,NA,0,NA,NA,NA,NA,"","",NA,"","",NA,"SUPPRF56573"
"2",1709921488378,"08/03/2024 18:11:28",1709921488378,0,"08/03/2024 18:11:28",170281,5,"task-msu8",NA,35908967,10612565,NA,"complete",NA,"65eb4fa1ce545fd232f32bc7","computer","Desktop or Laptop","Windows 10","Chrome 122.0.0.0","1920x1080","1920x945",NA,NA,0,"Task Introduction and Instructions (re-introduce video and audio) (Clone)",10,"ABJCIDHEGF","Passed AC2",NA,"Spreadsheet1",1,"Task Instructions","Screen 1","anr7sn",1,"continue","",6795.09999998808,6783.2,6795.09999998808,6795.09999998808,6783.2,6795.09999998808,1,6795.09999998808,0,0,NA,"Click To Continue","Continue Button",3,"object-60","Task Instructions",NA,"SUPPRF56573"
"3",1709921495904,"08/03/2024 18:11:35",1709921495904,0,"08/03/2024 18:11:35",170281,5,"task-msu8",NA,35908967,10612565,NA,"complete",NA,"65eb4fa1ce545fd232f32bc7","computer","Desktop or Laptop","Windows 10","Chrome 122.0.0.0","1920x1080","1920x945",NA,NA,0,"Task Introduction and Instructions (re-introduce video and audio) (Clone)",10,"ABJCIDHEGF","Passed AC2",NA,"Spreadsheet1",1,"Task Instructions","Screen 4","spepx9",2,"continue","",7537.49999998212,7533.1,7537.49999998212,7537.49999998212,7533.1,7537.49999998212,1,7537.49999998212,0,0,NA,"Click To Continue","Continue Button",2,"object-9","Task Instructions",NA,"SUPPRF56573"
"4",1709921521678,"08/03/2024 18:12:01",1709921521678,0,"08/03/2024 18:12:01",170281,5,"task-msu8",NA,35908967,10612565,NA,"complete",NA,"65eb4fa1ce545fd232f32bc7","computer","Desktop or Laptop","Windows 10","Chrome 122.0.0.0","1920x1080","1920x945",NA,NA,0,"Task Introduction and Instructions (re-introduce video and audio) (Clone)",10,"ABJCIDHEGF","Passed AC2",NA,"Spreadsheet1",1,"Task Instructions","Screen 2","ce2tc8",3,"continue","",25778.199999994,25766.2,25778.199999994,25778.199999994,25766.2,25778.199999994,1,25778.199999994,0,0,NA,"Click To Continue","Continue Button",3,"object-59","Task Instructions",NA,"SUPPRF56573"
"5",1709921542379,"08/03/2024 18:12:22",1709921542379,0,"08/03/2024 18:12:22",170281,5,"task-msu8",NA,35908967,10612565,NA,"complete",NA,"65eb4fa1ce545fd232f32bc7","computer","Desktop or Laptop","Windows 10","Chrome 122.0.0.0","1920x1080","1920x945",NA,NA,0,"Task Introduction and Instructions (re-introduce video and audio) (Clone)",10,"ABJCIDHEGF","Passed AC2",NA,"Spreadsheet1",1,"Task Instructions","Screen 3","1qtc8v",4,"continue","",20713.4,20699.5,20713.4,20713.4,20699.5,20713.4,1,20713.4,0,0,NA,"Click To Continue","Continue Button",2,"object-2983","Task Instructions",NA,"SUPPRF56573"
"6",1709921551858,"08/03/2024 18:12:31",1709921551858,0,"08/03/2024 18:12:31",170281,5,"task-msu8",NA,35908967,10612565,NA,"complete",NA,"65eb4fa1ce545fd232f32bc7","computer","Desktop or Laptop","Windows 10","Chrome 122.0.0.0","1920x1080","1920x945",NA,NA,0,"Task Introduction and Instructions (re-introduce video and audio) (Clone)",10,"ABJCIDHEGF","Passed AC2",NA,"Spreadsheet1",1,"Task Instructions","Screen 12","1a4vu2",5,"continue","",9493.59999998808,9483.00000000001,9493.59999998808,9493.59999998808,9483.00000000001,9493.59999998808,1,9493.59999998808,0,0,NA,"Click To Continue","Continue Button",2,"object-2466","Task Instructions",NA,"SUPPRF56573"
"7",1709921557117,"08/03/2024 18:12:37",1709921557117,0,"08/03/2024 18:12:37",170281,5,"task-msu8",NA,35908967,10612565,NA,"complete",NA,"65eb4fa1ce545fd232f32bc7","computer","Desktop or Laptop","Windows 10","Chrome 122.0.0.0","1920x1080","1920x945",NA,NA,0,"Task Introduction and Instructions (re-introduce video and audio) (Clone)",10,"ABJCIDHEGF","Passed AC2",NA,"Spreadsheet1",1,"Task Instructions","Screen 13","q9vwda",6,"continue","",5268.80000000595,5266.7,5268.80000000595,5268.80000000595,5266.7,5268.80000000595,1,5268.80000000595,0,0,NA,"Click To Continue","Continue Button",2,"object-2989","Task Instructions",NA,"SUPPRF56573"
"8",1709921561857,"08/03/2024 18:12:41",1709921561857,0,"08/03/2024 18:12:41",170281,5,"task-msu8",NA,35908967,10612565,NA,"complete",NA,"65eb4fa1ce545fd232f32bc7","computer","Desktop or Laptop","Windows 10","Chrome 122.0.0.0","1920x1080","1920x945",NA,NA,0,"Task Introduction and Instructions (re-introduce video and audio) (Clone)",10,"ABJCIDHEGF","Passed AC2",NA,"Spreadsheet1",1,"Task Instructions","Screen 11","oyulb7",7,"continue","",4742.2,4733.2,4742.2,4742.2,4733.2,4742.2,1,4742.2,0,0,NA,"Click To Continue","Continue Button",2,"object-52","Task Instructions",NA,"SUPPRF56573"
"9",1709921565217,"08/03/2024 18:12:45",1709921565217,0,"08/03/2024 18:12:45",170281,5,"task-msu8",NA,35908967,10612565,NA,"complete",NA,"65eb4fa1ce545fd232f32bc7","computer","Desktop or Laptop","Windows 10","Chrome 122.0.0.0","1920x1080","1920x945",NA,NA,0,"Task Introduction and Instructions (re-introduce video and audio) (Clone)",10,"ABJCIDHEGF","Passed AC2",NA,"Spreadsheet1",1,"Task Instructions","Screen 5","8nvnao",8,"continue","",3369,3366.60000000001,3369,3369,3366.60000000001,3369,1,3369,0,0,NA,"Click To Continue","Continue Button",2,"object-44","Task Instructions",NA,"SUPPRF56573"
"10",1709921565218,"08/03/2024 18:12:45",1709921565218,0,"08/03/2024 18:12:45",170281,5,"task-msu8",NA,35908967,10612565,NA,"complete",NA,"65eb4fa1ce545fd232f32bc7","computer","Desktop or Laptop","Windows 10","Chrome 122.0.0.0","1920x1080","1920x945",NA,NA,0,"Task Introduction and Instructions (re-introduce video and audio) (Clone)",10,"ABJCIDHEGF","Passed AC2",NA,"Spreadsheet1",NA,"","","",NA,"5","END",NA,NA,NA,NA,NA,NA,0,NA,NA,NA,NA,"","",NA,"","",NA,"SUPPRF56573"
"1",1709922212879,"08/03/2024 18:23:32",1709922212879,0,"08/03/2024 18:23:32",170281,5,"task-msu8",NA,35909211,10612676,NA,"complete",NA,"65eb54d246acd454e8d845b7","computer","Desktop or Laptop","Windows 10","Chrome 122.0.0.0","1536x864","1536x730",NA,NA,0,"Task Introduction and Instructions (re-introduce video and audio) (Clone)",10,"BCADJEIFHG","Passed AC2",NA,"Spreadsheet1",NA,"","","",NA,"5","BEGIN",NA,NA,NA,NA,NA,NA,0,NA,NA,NA,NA,"","",NA,"","",NA,"SUPPRF16178"
"2",1709922217406,"08/03/2024 18:23:37",1709922217406,0,"08/03/2024 18:23:37",170281,5,"task-msu8",NA,35909211,10612676,NA,"complete",NA,"65eb54d246acd454e8d845b7","computer","Desktop or Laptop","Windows 10","Chrome 122.0.0.0","1536x864","1536x730",NA,NA,0,"Task Introduction and Instructions (re-introduce video and audio) (Clone)",10,"BCADJEIFHG","Passed AC2",NA,"Spreadsheet1",1,"Task Instructions","Screen 1","anr7sn",1,"continue","",4333.7,4316.8,4333.7,4333.7,4316.8,4333.7,1,4333.7,0,0,NA,"Click To Continue","Continue Button",3,"object-60","Task Instructions",NA,"SUPPRF16178"
"3",1709922221611,"08/03/2024 18:23:41",1709922221611,0,"08/03/2024 18:23:41",170281,5,"task-msu8",NA,35909211,10612676,NA,"complete",NA,"65eb54d246acd454e8d845b7","computer","Desktop or Laptop","Windows 10","Chrome 122.0.0.0","1536x864","1536x730",NA,NA,0,"Task Introduction and Instructions (re-introduce video and audio) (Clone)",10,"BCADJEIFHG","Passed AC2",NA,"Spreadsheet1",1,"Task Instructions","Screen 4","spepx9",2,"continue","",4222.2000002861,4216.4,4222.2000002861,4222.2000002861,4216.4,4222.2000002861,1,4222.2000002861,0,0,NA,"Click To Continue","Continue Button",2,"object-9","Task Instructions",NA,"SUPPRF16178"
"4",1709922231803,"08/03/2024 18:23:51",1709922231803,0,"08/03/2024 18:23:51",170281,5,"task-msu8",NA,35909211,10612676,NA,"complete",NA,"65eb54d246acd454e8d845b7","computer","Desktop or Laptop","Windows 10","Chrome 122.0.0.0","1536x864","1536x730",NA,NA,0,"Task Introduction and Instructions (re-introduce video and audio) (Clone)",10,"BCADJEIFHG","Passed AC2",NA,"Spreadsheet1",1,"Task Instructions","Screen 2","ce2tc8",3,"continue","",10198.6,10183.2,10198.6,10198.6,10183.2,10198.6,1,10198.6,0,0,NA,"Click To Continue","Continue Button",3,"object-59","Task Instructions",NA,"SUPPRF16178"
"5",1709922244035,"08/03/2024 18:24:04",1709922244035,0,"08/03/2024 18:24:04",170281,5,"task-msu8",NA,35909211,10612676,NA,"complete",NA,"65eb54d246acd454e8d845b7","computer","Desktop or Laptop","Windows 10","Chrome 122.0.0.0","1536x864","1536x730",NA,NA,0,"Task Introduction and Instructions (re-introduce video and audio) (Clone)",10,"BCADJEIFHG","Passed AC2",NA,"Spreadsheet1",1,"Task Instructions","Screen 3","1qtc8v",4,"continue","",12246.9,12233.8,12246.9,12246.9,12233.8,12246.9,1,12246.9,0,0,NA,"Click To Continue","Continue Button",2,"object-2983","Task Instructions",NA,"SUPPRF16178"
"6",1709922257191,"08/03/2024 18:24:17",1709922257191,0,"08/03/2024 18:24:17",170281,5,"task-msu8",NA,35909211,10612676,NA,"complete",NA,"65eb54d246acd454e8d845b7","computer","Desktop or Laptop","Windows 10","Chrome 122.0.0.0","1536x864","1536x730",NA,NA,0,"Task Introduction and Instructions (re-introduce video and audio) (Clone)",10,"BCADJEIFHG","Passed AC2",NA,"Spreadsheet1",1,"Task Instructions","Screen 12","1a4vu2",5,"continue","",13169.2000003815,13165.8,13169.2000003815,13169.2000003815,13165.8,13169.2000003815,1,13169.2000003815,0,0,NA,"Click To Continue","Continue Button",2,"object-2466","Task Instructions",NA,"SUPPRF16178"
"7",1709922262013,"08/03/2024 18:24:22",1709922262013,0,"08/03/2024 18:24:22",170281,5,"task-msu8",NA,35909211,10612676,NA,"complete",NA,"65eb54d246acd454e8d845b7","computer","Desktop or Laptop","Windows 10","Chrome 122.0.0.0","1536x864","1536x730",NA,NA,0,"Task Introduction and Instructions (re-introduce video and audio) (Clone)",10,"BCADJEIFHG","Passed AC2",NA,"Spreadsheet1",1,"Task Instructions","Screen 13","q9vwda",6,"continue","",4825.40000038147,4816.7,4825.40000038147,4825.40000038147,4816.7,4825.40000038147,1,4825.40000038147,0,0,NA,"Click To Continue","Continue Button",2,"object-2989","Task Instructions",NA,"SUPPRF16178"
"8",1709922264624,"08/03/2024 18:24:24",1709922264624,0,"08/03/2024 18:24:24",170281,5,"task-msu8",NA,35909211,10612676,NA,"complete",NA,"65eb54d246acd454e8d845b7","computer","Desktop or Laptop","Windows 10","Chrome 122.0.0.0","1536x864","1536x730",NA,NA,0,"Task Introduction and Instructions (re-introduce video and audio) (Clone)",10,"BCADJEIFHG","Passed AC2",NA,"Spreadsheet1",1,"Task Instructions","Screen 11","oyulb7",7,"continue","",2620.1,2616.5,2620.1,2620.1,2616.5,2620.1,1,2620.1,0,0,NA,"Click To Continue","Continue Button",2,"object-52","Task Instructions",NA,"SUPPRF16178"
"9",1709922266960,"08/03/2024 18:24:26",1709922266960,0,"08/03/2024 18:24:26",170281,5,"task-msu8",NA,35909211,10612676,NA,"complete",NA,"65eb54d246acd454e8d845b7","computer","Desktop or Laptop","Windows 10","Chrome 122.0.0.0","1536x864","1536x730",NA,NA,0,"Task Introduction and Instructions (re-introduce video and audio) (Clone)",10,"BCADJEIFHG","Passed AC2",NA,"Spreadsheet1",1,"Task Instructions","Screen 5","8nvnao",8,"continue","",2339.1,2333.4,2339.1,2339.1,2333.4,2339.1,1,2339.1,0,0,NA,"Click To Continue","Continue Button",2,"object-44","Task Instructions",NA,"SUPPRF16178"
"10",1709922266962,"08/03/2024 18:24:26",1709922266962,0,"08/03/2024 18:24:26",170281,5,"task-msu8",NA,35909211,10612676,NA,"complete",NA,"65eb54d246acd454e8d845b7","computer","Desktop or Laptop","Windows 10","Chrome 122.0.0.0","1536x864","1536x730",NA,NA,0,"Task Introduction and Instructions (re-introduce video and audio) (Clone)",10,"BCADJEIFHG","Passed AC2",NA,"Spreadsheet1",NA,"","","",NA,"5","END",NA,NA,NA,NA,NA,NA,0,NA,NA,NA,NA,"","",NA,"","",NA,"SUPPRF16178"
"1",1709924600817,"08/03/2024 19:03:20",1709928200817,1,"08/03/2024 21:03:20",170281,5,"task-msu8",NA,35910224,10612855,NA,"complete",NA,"65eb5c6c46acd454e8d84784","computer","Desktop or Laptop","Windows 10","Chrome 122.0.0.0","1366x768","1034x612",NA,NA,0,"Task Introduction and Instructions (re-introduce video and audio) (Clone)",10,"CDBEAFJGIH","Passed AC2",NA,"Spreadsheet1",NA,"","","",NA,"5","BEGIN",NA,NA,NA,NA,NA,NA,0,NA,NA,NA,NA,"","",NA,"","",NA,"SUPPRF43122"
"2",1709924777111,"08/03/2024 19:06:17",1709928377111,1,"08/03/2024 21:06:17",170281,5,"task-msu8",NA,35910224,10612855,NA,"complete",NA,"65eb5c6c46acd454e8d84784","computer","Desktop or Laptop","Windows 10","Chrome 122.0.0.0","1366x768","1034x612",NA,NA,0,"Task Introduction and Instructions (re-introduce video and audio) (Clone)",10,"CDBEAFJGIH","Passed AC2",NA,"Spreadsheet1",1,"Task Instructions","Screen 1","anr7sn",1,"continue","",175618.5,175602.9,175618.5,175618.5,175602.9,175618.5,1,175618.5,0,0,NA,"Click To Continue","Continue Button",3,"object-60","Task Instructions",NA,"SUPPRF43122"
"3",1709924784331,"08/03/2024 19:06:24",1709928384331,1,"08/03/2024 21:06:24",170281,5,"task-msu8",NA,35910224,10612855,NA,"complete",NA,"65eb5c6c46acd454e8d84784","computer","Desktop or Laptop","Windows 10","Chrome 122.0.0.0","1366x768","1034x612",NA,NA,0,"Task Introduction and Instructions (re-introduce video and audio) (Clone)",10,"CDBEAFJGIH","Passed AC2",NA,"Spreadsheet1",1,"Task Instructions","Screen 4","spepx9",2,"continue","",7235.39999999703,7229.30000000002,7235.39999999703,7235.39999999703,7229.30000000002,7235.39999999703,1,7235.39999999703,0,0,NA,"Click To Continue","Continue Button",2,"object-9","Task Instructions",NA,"SUPPRF43122"
"4",1709924824545,"08/03/2024 19:07:04",1709928424545,1,"08/03/2024 21:07:04",170281,5,"task-msu8",NA,35910224,10612855,NA,"complete",NA,"65eb5c6c46acd454e8d84784","computer","Desktop or Laptop","Windows 10","Chrome 122.0.0.0","1366x768","1034x612",NA,NA,0,"Task Introduction and Instructions (re-introduce video and audio) (Clone)",10,"CDBEAFJGIH","Passed AC2",NA,"Spreadsheet1",1,"Task Instructions","Screen 2","ce2tc8",3,"continue","",40220.699999991,40211.2,40220.699999991,40220.699999991,40211.2,40220.699999991,1,40220.699999991,0,0,NA,"Click To Continue","Continue Button",3,"object-59","Task Instructions",NA,"SUPPRF43122"
"5",1709924830521,"08/03/2024 19:07:10",1709928430521,1,"08/03/2024 21:07:10",170281,5,"task-msu8",NA,35910224,10612855,NA,"complete",NA,"65eb5c6c46acd454e8d84784","computer","Desktop or Laptop","Windows 10","Chrome 122.0.0.0","1366x768","1034x612",NA,NA,0,"Task Introduction and Instructions (re-introduce video and audio) (Clone)",10,"CDBEAFJGIH","Passed AC2",NA,"Spreadsheet1",1,"Task Instructions","Screen 3","1qtc8v",4,"continue","",5985.39999999703,5980,5985.39999999703,5985.39999999703,5980,5985.39999999703,1,5985.39999999703,0,0,NA,"Click To Continue","Continue Button",2,"object-2983","Task Instructions",NA,"SUPPRF43122"
"6",1709924837251,"08/03/2024 19:07:17",1709928437251,1,"08/03/2024 21:07:17",170281,5,"task-msu8",NA,35910224,10612855,NA,"complete",NA,"65eb5c6c46acd454e8d84784","computer","Desktop or Laptop","Windows 10","Chrome 122.0.0.0","1366x768","1034x612",NA,NA,0,"Task Introduction and Instructions (re-introduce video and audio) (Clone)",10,"CDBEAFJGIH","Passed AC2",NA,"Spreadsheet1",1,"Task Instructions","Screen 12","1a4vu2",5,"continue","",6735.30000000299,6729.60000000001,6735.30000000299,6735.30000000299,6729.60000000001,6735.30000000299,1,6735.30000000299,0,0,NA,"Click To Continue","Continue Button",2,"object-2466","Task Instructions",NA,"SUPPRF43122"
"7",1709924843683,"08/03/2024 19:07:23",1709928443683,1,"08/03/2024 21:07:23",170281,5,"task-msu8",NA,35910224,10612855,NA,"complete",NA,"65eb5c6c46acd454e8d84784","computer","Desktop or Laptop","Windows 10","Chrome 122.0.0.0","1366x768","1034x612",NA,NA,0,"Task Introduction and Instructions (re-introduce video and audio) (Clone)",10,"CDBEAFJGIH","Passed AC2",NA,"Spreadsheet1",1,"Task Instructions","Screen 13","q9vwda",6,"continue","",6437.89999999106,6429.79999999999,6437.89999999106,6437.89999999106,6429.79999999999,6437.89999999106,1,6437.89999999106,0,0,NA,"Click To Continue","Continue Button",2,"object-2989","Task Instructions",NA,"SUPPRF43122"
"8",1709924847741,"08/03/2024 19:07:27",1709928447741,1,"08/03/2024 21:07:27",170281,5,"task-msu8",NA,35910224,10612855,NA,"complete",NA,"65eb5c6c46acd454e8d84784","computer","Desktop or Laptop","Windows 10","Chrome 122.0.0.0","1366x768","1034x612",NA,NA,0,"Task Introduction and Instructions (re-introduce video and audio) (Clone)",10,"CDBEAFJGIH","Passed AC2",NA,"Spreadsheet1",1,"Task Instructions","Screen 11","oyulb7",7,"continue","",4064.10000000001,4047.60000000001,4064.10000000001,4064.10000000001,4047.60000000001,4064.10000000001,1,4064.10000000001,0,0,NA,"Click To Continue","Continue Button",2,"object-52","Task Instructions",NA,"SUPPRF43122"
"9",1709924850957,"08/03/2024 19:07:30",1709928450957,1,"08/03/2024 21:07:30",170281,5,"task-msu8",NA,35910224,10612855,NA,"complete",NA,"65eb5c6c46acd454e8d84784","computer","Desktop or Laptop","Windows 10","Chrome 122.0.0.0","1366x768","1034x612",NA,NA,0,"Task Introduction and Instructions (re-introduce video and audio) (Clone)",10,"CDBEAFJGIH","Passed AC2",NA,"Spreadsheet1",1,"Task Instructions","Screen 5","8nvnao",8,"continue","",3231.69999999998,3215,3231.69999999998,3231.69999999998,3215,3231.69999999998,1,3231.69999999998,0,0,NA,"Click To Continue","Continue Button",2,"object-44","Task Instructions",NA,"SUPPRF43122"
"10",1709924850964,"08/03/2024 19:07:30",1709928450964,1,"08/03/2024 21:07:30",170281,5,"task-msu8",NA,35910224,10612855,NA,"complete",NA,"65eb5c6c46acd454e8d84784","computer","Desktop or Laptop","Windows 10","Chrome 122.0.0.0","1366x768","1034x612",NA,NA,0,"Task Introduction and Instructions (re-introduce video and audio) (Clone)",10,"CDBEAFJGIH","Passed AC2",NA,"Spreadsheet1",NA,"","","",NA,"5","END",NA,NA,NA,NA,NA,NA,0,NA,NA,NA,NA,"","",NA,"","",NA,"SUPPRF43122"
"1",1709924695044,"08/03/2024 19:04:55",1709924695044,0,"08/03/2024 19:04:55",170281,5,"task-msu8",NA,35910252,10612882,NA,"complete",NA,"65eb5cdca87a76dad829ae54","computer","Desktop or Laptop","Mac OS 10.15.7","Chrome 122.0.0.0","2560x1440","2560x1353",NA,NA,0,"Task Introduction and Instructions (re-introduce video and audio) (Clone)",10,"DECFBGAHJI","Passed AC2",NA,"Spreadsheet1",NA,"","","",NA,"5","BEGIN",NA,NA,NA,NA,NA,NA,0,NA,NA,NA,NA,"","",NA,"","",NA,"SUPPRF18284"
"2",1709925052124,"08/03/2024 19:10:52",1709925052124,0,"08/03/2024 19:10:52",170281,5,"task-msu8",NA,35910252,10612882,NA,"complete",NA,"65eb5cdca87a76dad829ae54","computer","Desktop or Laptop","Mac OS 10.15.7","Chrome 122.0.0.0","2560x1440","2560x1353",NA,NA,0,"Task Introduction and Instructions (re-introduce video and audio) (Clone)",10,"DECFBGAHJI","Passed AC2",NA,"Spreadsheet1",1,"Task Instructions","Screen 1","anr7sn",1,"continue","",357000.600000004,356987.3,357000.600000004,357000.600000004,356987.3,357000.600000004,1,357000.600000004,0,0,NA,"Click To Continue","Continue Button",3,"object-60","Task Instructions",NA,"SUPPRF18284"
"3",1709925054965,"08/03/2024 19:10:54",1709925054965,0,"08/03/2024 19:10:54",170281,5,"task-msu8",NA,35910252,10612882,NA,"complete",NA,"65eb5cdca87a76dad829ae54","computer","Desktop or Laptop","Mac OS 10.15.7","Chrome 122.0.0.0","2560x1440","2560x1353",NA,NA,0,"Task Introduction and Instructions (re-introduce video and audio) (Clone)",10,"DECFBGAHJI","Passed AC2",NA,"Spreadsheet1",1,"Task Instructions","Screen 4","spepx9",2,"continue","",2854.80000000447,2850,2854.80000000447,2854.80000000447,2850,2854.80000000447,1,2854.80000000447,0,0,NA,"Click To Continue","Continue Button",2,"object-9","Task Instructions",NA,"SUPPRF18284"
"4",1709925064230,"08/03/2024 19:11:04",1709925064230,0,"08/03/2024 19:11:04",170281,5,"task-msu8",NA,35910252,10612882,NA,"complete",NA,"65eb5cdca87a76dad829ae54","computer","Desktop or Laptop","Mac OS 10.15.7","Chrome 122.0.0.0","2560x1440","2560x1353",NA,NA,0,"Task Introduction and Instructions (re-introduce video and audio) (Clone)",10,"DECFBGAHJI","Passed AC2",NA,"Spreadsheet1",1,"Task Instructions","Screen 2","ce2tc8",3,"continue","",9269.90000000596,9253.29999999999,9269.90000000596,9269.90000000596,9253.29999999999,9269.90000000596,1,9269.90000000596,0,0,NA,"Click To Continue","Continue Button",3,"object-59","Task Instructions",NA,"SUPPRF18284"
"5",1709925073204,"08/03/2024 19:11:13",1709925073204,0,"08/03/2024 19:11:13",170281,5,"task-msu8",NA,35910252,10612882,NA,"complete",NA,"65eb5cdca87a76dad829ae54","computer","Desktop or Laptop","Mac OS 10.15.7","Chrome 122.0.0.0","2560x1440","2560x1353",NA,NA,0,"Task Introduction and Instructions (re-introduce video and audio) (Clone)",10,"DECFBGAHJI","Passed AC2",NA,"Spreadsheet1",1,"Task Instructions","Screen 3","1qtc8v",4,"continue","",8991.00000000448,8986.20000000001,8991.00000000448,8991.00000000448,8986.20000000001,8991.00000000448,1,8991.00000000448,0,0,NA,"Click To Continue","Continue Button",2,"object-2983","Task Instructions",NA,"SUPPRF18284"
"6",1709925080553,"08/03/2024 19:11:20",1709925080553,0,"08/03/2024 19:11:20",170281,5,"task-msu8",NA,35910252,10612882,NA,"complete",NA,"65eb5cdca87a76dad829ae54","computer","Desktop or Laptop","Mac OS 10.15.7","Chrome 122.0.0.0","2560x1440","2560x1353",NA,NA,0,"Task Introduction and Instructions (re-introduce video and audio) (Clone)",10,"DECFBGAHJI","Passed AC2",NA,"Spreadsheet1",1,"Task Instructions","Screen 12","1a4vu2",5,"continue","",7353.70000000298,7351.29999999999,7353.70000000298,7353.70000000298,7351.29999999999,7353.70000000298,1,7353.70000000298,0,0,NA,"Click To Continue","Continue Button",2,"object-2466","Task Instructions",NA,"SUPPRF18284"
"7",1709925087159,"08/03/2024 19:11:27",1709925087159,0,"08/03/2024 19:11:27",170281,5,"task-msu8",NA,35910252,10612882,NA,"complete",NA,"65eb5cdca87a76dad829ae54","computer","Desktop or Laptop","Mac OS 10.15.7","Chrome 122.0.0.0","2560x1440","2560x1353",NA,NA,0,"Task Introduction and Instructions (re-introduce video and audio) (Clone)",10,"DECFBGAHJI","Passed AC2",NA,"Spreadsheet1",1,"Task Instructions","Screen 13","q9vwda",6,"continue","",6608.70000000001,6603.5,6608.70000000001,6608.70000000001,6603.5,6608.70000000001,1,6608.70000000001,0,0,NA,"Click To Continue","Continue Button",2,"object-2989","Task Instructions",NA,"SUPPRF18284"
"8",1709925090447,"08/03/2024 19:11:30",1709925090447,0,"08/03/2024 19:11:30",170281,5,"task-msu8",NA,35910252,10612882,NA,"complete",NA,"65eb5cdca87a76dad829ae54","computer","Desktop or Laptop","Mac OS 10.15.7","Chrome 122.0.0.0","2560x1440","2560x1353",NA,NA,0,"Task Introduction and Instructions (re-introduce video and audio) (Clone)",10,"DECFBGAHJI","Passed AC2",NA,"Spreadsheet1",1,"Task Instructions","Screen 11","oyulb7",7,"continue","",3293.40000000299,3282.90000000002,3293.40000000299,3293.40000000299,3282.90000000002,3293.40000000299,1,3293.40000000299,0,0,NA,"Click To Continue","Continue Button",2,"object-52","Task Instructions",NA,"SUPPRF18284"
"9",1709925093354,"08/03/2024 19:11:33",1709925093354,0,"08/03/2024 19:11:33",170281,5,"task-msu8",NA,35910252,10612882,NA,"complete",NA,"65eb5cdca87a76dad829ae54","computer","Desktop or Laptop","Mac OS 10.15.7","Chrome 122.0.0.0","2560x1440","2560x1353",NA,NA,0,"Task Introduction and Instructions (re-introduce video and audio) (Clone)",10,"DECFBGAHJI","Passed AC2",NA,"Spreadsheet1",1,"Task Instructions","Screen 5","8nvnao",8,"continue","",2917.79999999999,2901.59999999998,2917.79999999999,2917.79999999999,2901.59999999998,2917.79999999999,1,2917.79999999999,0,0,NA,"Click To Continue","Continue Button",2,"object-44","Task Instructions",NA,"SUPPRF18284"
"10",1709925093357,"08/03/2024 19:11:33",1709925093357,0,"08/03/2024 19:11:33",170281,5,"task-msu8",NA,35910252,10612882,NA,"complete",NA,"65eb5cdca87a76dad829ae54","computer","Desktop or Laptop","Mac OS 10.15.7","Chrome 122.0.0.0","2560x1440","2560x1353",NA,NA,0,"Task Introduction and Instructions (re-introduce video and audio) (Clone)",10,"DECFBGAHJI","Passed AC2",NA,"Spreadsheet1",NA,"","","",NA,"5","END",NA,NA,NA,NA,NA,NA,0,NA,NA,NA,NA,"","",NA,"","",NA,"SUPPRF18284"
"1",1709925152102,"08/03/2024 19:12:32",1709925152102,0,"08/03/2024 19:12:32",170281,5,"task-msu8",NA,35910412,10612931,NA,"complete",NA,"65eb5f1446acd454e8d8483e","computer","Desktop or Laptop","Windows 10","Chrome 122.0.0.0","1536x864","1536x730",NA,NA,0,"Task Introduction and Instructions (re-introduce video and audio) (Clone)",10,"EFDGCHBIAJ","Passed AC2",NA,"Spreadsheet1",NA,"","","",NA,"5","BEGIN",NA,NA,NA,NA,NA,NA,0,NA,NA,NA,NA,"","",NA,"","",NA,"SUPPRF79823"
"2",1709925155853,"08/03/2024 19:12:35",1709925155853,0,"08/03/2024 19:12:35",170281,5,"task-msu8",NA,35910412,10612931,NA,"complete",NA,"65eb5f1446acd454e8d8483e","computer","Desktop or Laptop","Windows 10","Chrome 122.0.0.0","1536x864","1536x730",NA,NA,0,"Task Introduction and Instructions (re-introduce video and audio) (Clone)",10,"EFDGCHBIAJ","Passed AC2",NA,"Spreadsheet1",1,"Task Instructions","Screen 1","anr7sn",1,"continue","",3660.69999999404,3649.7,3660.69999999404,3660.69999999404,3649.7,3660.69999999404,1,3660.69999999404,0,0,NA,"Click To Continue","Continue Button",3,"object-60","Task Instructions",NA,"SUPPRF79823"
"3",1709925283882,"08/03/2024 19:14:43",1709925283882,0,"08/03/2024 19:14:43",170281,5,"task-msu8",NA,35910412,10612931,NA,"complete",NA,"65eb5f1446acd454e8d8483e","computer","Desktop or Laptop","Windows 10","Chrome 122.0.0.0","1536x864","1536x730",NA,NA,0,"Task Introduction and Instructions (re-introduce video and audio) (Clone)",10,"EFDGCHBIAJ","Passed AC2",NA,"Spreadsheet1",1,"Task Instructions","Screen 4","spepx9",2,"continue","",128039.699999997,128032.2,128039.699999997,128039.699999997,128032.2,128039.699999997,1,128039.699999997,0,0,NA,"Click To Continue","Continue Button",2,"object-9","Task Instructions",NA,"SUPPRF79823"
"4",1709925355735,"08/03/2024 19:15:55",1709925355735,0,"08/03/2024 19:15:55",170281,5,"task-msu8",NA,35910412,10612931,NA,"complete",NA,"65eb5f1446acd454e8d8483e","computer","Desktop or Laptop","Windows 10","Chrome 122.0.0.0","1536x864","1536x730",NA,NA,0,"Task Introduction and Instructions (re-introduce video and audio) (Clone)",10,"EFDGCHBIAJ","Passed AC2",NA,"Spreadsheet1",1,"Task Instructions","Screen 2","ce2tc8",3,"continue","",71860.400000003,71849.5,71860.400000003,71860.400000003,71849.5,71860.400000003,1,71860.400000003,0,0,NA,"Click To Continue","Continue Button",3,"object-59","Task Instructions",NA,"SUPPRF79823"
"5",1709925362049,"08/03/2024 19:16:02",1709925362049,0,"08/03/2024 19:16:02",170281,5,"task-msu8",NA,35910412,10612931,NA,"complete",NA,"65eb5f1446acd454e8d8483e","computer","Desktop or Laptop","Windows 10","Chrome 122.0.0.0","1536x864","1536x730",NA,NA,0,"Task Introduction and Instructions (re-introduce video and audio) (Clone)",10,"EFDGCHBIAJ","Passed AC2",NA,"Spreadsheet1",1,"Task Instructions","Screen 3","1qtc8v",4,"continue","",6325.70000000001,6316.30000000002,6325.70000000001,6325.70000000001,6316.30000000002,6325.70000000001,1,6325.70000000001,0,0,NA,"Click To Continue","Continue Button",2,"object-2983","Task Instructions",NA,"SUPPRF79823"
"6",1709925377800,"08/03/2024 19:16:17",1709925377800,0,"08/03/2024 19:16:17",170281,5,"task-msu8",NA,35910412,10612931,NA,"complete",NA,"65eb5f1446acd454e8d8483e","computer","Desktop or Laptop","Windows 10","Chrome 122.0.0.0","1536x864","1536x730",NA,NA,0,"Task Introduction and Instructions (re-introduce video and audio) (Clone)",10,"EFDGCHBIAJ","Passed AC2",NA,"Spreadsheet1",1,"Task Instructions","Screen 12","1a4vu2",5,"continue","",15759.800000006,15749.8,15759.800000006,15759.800000006,15749.8,15759.800000006,1,15759.800000006,0,0,NA,"Click To Continue","Continue Button",2,"object-2466","Task Instructions",NA,"SUPPRF79823"
"7",1709925382988,"08/03/2024 19:16:22",1709925382988,0,"08/03/2024 19:16:22",170281,5,"task-msu8",NA,35910412,10612931,NA,"complete",NA,"65eb5f1446acd454e8d8483e","computer","Desktop or Laptop","Windows 10","Chrome 122.0.0.0","1536x864","1536x730",NA,NA,0,"Task Introduction and Instructions (re-introduce video and audio) (Clone)",10,"EFDGCHBIAJ","Passed AC2",NA,"Spreadsheet1",1,"Task Instructions","Screen 13","q9vwda",6,"continue","",5198.00000000597,5183.39999999999,5198.00000000597,5198.00000000597,5183.39999999999,5198.00000000597,1,5198.00000000597,0,0,NA,"Click To Continue","Continue Button",2,"object-2989","Task Instructions",NA,"SUPPRF79823"
"8",1709925386025,"08/03/2024 19:16:26",1709925386025,0,"08/03/2024 19:16:26",170281,5,"task-msu8",NA,35910412,10612931,NA,"complete",NA,"65eb5f1446acd454e8d8483e","computer","Desktop or Laptop","Windows 10","Chrome 122.0.0.0","1536x864","1536x730",NA,NA,0,"Task Introduction and Instructions (re-introduce video and audio) (Clone)",10,"EFDGCHBIAJ","Passed AC2",NA,"Spreadsheet1",1,"Task Instructions","Screen 11","oyulb7",7,"continue","",3051.49999999703,3049.90000000002,3051.49999999703,3051.49999999703,3049.90000000002,3051.49999999703,1,3051.49999999703,0,0,NA,"Click To Continue","Continue Button",2,"object-52","Task Instructions",NA,"SUPPRF79823"
"9",1709925390620,"08/03/2024 19:16:30",1709925390620,0,"08/03/2024 19:16:30",170281,5,"task-msu8",NA,35910412,10612931,NA,"complete",NA,"65eb5f1446acd454e8d8483e","computer","Desktop or Laptop","Windows 10","Chrome 122.0.0.0","1536x864","1536x730",NA,NA,0,"Task Introduction and Instructions (re-introduce video and audio) (Clone)",10,"EFDGCHBIAJ","Passed AC2",NA,"Spreadsheet1",1,"Task Instructions","Screen 5","8nvnao",8,"continue","",4597.39999999403,4583.59999999998,4597.39999999403,4597.39999999403,4583.59999999998,4597.39999999403,1,4597.39999999403,0,0,NA,"Click To Continue","Continue Button",2,"object-44","Task Instructions",NA,"SUPPRF79823"
"10",1709925390634,"08/03/2024 19:16:30",1709925390634,0,"08/03/2024 19:16:30",170281,5,"task-msu8",NA,35910412,10612931,NA,"complete",NA,"65eb5f1446acd454e8d8483e","computer","Desktop or Laptop","Windows 10","Chrome 122.0.0.0","1536x864","1536x730",NA,NA,0,"Task Introduction and Instructions (re-introduce video and audio) (Clone)",10,"EFDGCHBIAJ","Passed AC2",NA,"Spreadsheet1",NA,"","","",NA,"5","END",NA,NA,NA,NA,NA,NA,0,NA,NA,NA,NA,"","",NA,"","",NA,"SUPPRF79823"
"1",1709926064291,"08/03/2024 19:27:44",1709929664291,1,"08/03/2024 21:27:44",170281,5,"task-msu8",NA,35910658,10612996,NA,"complete",NA,"65eb56995e6079ddf5fedc25","computer","Desktop or Laptop","Windows 10","Chrome 122.0.0.0","1280x720","1280x598",NA,NA,0,"Task Introduction and Instructions (re-introduce video and audio) (Clone)",10,"FGEHDICJBA","Passed AC2",NA,"Spreadsheet1",NA,"","","",NA,"5","BEGIN",NA,NA,NA,NA,NA,NA,0,NA,NA,NA,NA,"","",NA,"","",NA,"SUPPRF20445"
"2",1709926069114,"08/03/2024 19:27:49",1709929669114,1,"08/03/2024 21:27:49",170281,5,"task-msu8",NA,35910658,10612996,NA,"complete",NA,"65eb56995e6079ddf5fedc25","computer","Desktop or Laptop","Windows 10","Chrome 122.0.0.0","1280x720","1280x598",NA,NA,0,"Task Introduction and Instructions (re-introduce video and audio) (Clone)",10,"FGEHDICJBA","Passed AC2",NA,"Spreadsheet1",1,"Task Instructions","Screen 1","anr7sn",1,"continue","",3625.70000002384,3616.1,3625.70000002384,3625.70000002384,3616.1,3625.70000002384,1,3625.70000002384,0,0,NA,"Click To Continue","Continue Button",3,"object-60","Task Instructions",NA,"SUPPRF20445"
"3",1709926086176,"08/03/2024 19:28:06",1709929686176,1,"08/03/2024 21:28:06",170281,5,"task-msu8",NA,35910658,10612996,NA,"complete",NA,"65eb56995e6079ddf5fedc25","computer","Desktop or Laptop","Windows 10","Chrome 122.0.0.0","1280x720","1280x598",NA,NA,0,"Task Introduction and Instructions (re-introduce video and audio) (Clone)",10,"FGEHDICJBA","Passed AC2",NA,"Spreadsheet1",1,"Task Instructions","Screen 4","spepx9",2,"continue","",17072.5,17063.8,17072.5,17072.5,17063.8,17072.5,1,17072.5,0,0,NA,"Click To Continue","Continue Button",2,"object-9","Task Instructions",NA,"SUPPRF20445"
"4",1709926090175,"08/03/2024 19:28:10",1709929690175,1,"08/03/2024 21:28:10",170281,5,"task-msu8",NA,35910658,10612996,NA,"complete",NA,"65eb56995e6079ddf5fedc25","computer","Desktop or Laptop","Windows 10","Chrome 122.0.0.0","1280x720","1280x598",NA,NA,0,"Task Introduction and Instructions (re-introduce video and audio) (Clone)",10,"FGEHDICJBA","Passed AC2",NA,"Spreadsheet1",1,"Task Instructions","Screen 2","ce2tc8",3,"continue","",4008.30000002384,3999.3,4008.30000002384,4008.30000002384,3999.3,4008.30000002384,1,4008.30000002384,0,0,NA,"Click To Continue","Continue Button",3,"object-59","Task Instructions",NA,"SUPPRF20445"
"5",1709926106578,"08/03/2024 19:28:26",1709929706578,1,"08/03/2024 21:28:26",170281,5,"task-msu8",NA,35910658,10612996,NA,"complete",NA,"65eb56995e6079ddf5fedc25","computer","Desktop or Laptop","Windows 10","Chrome 122.0.0.0","1280x720","1280x598",NA,NA,0,"Task Introduction and Instructions (re-introduce video and audio) (Clone)",10,"FGEHDICJBA","Passed AC2",NA,"Spreadsheet1",1,"Task Instructions","Screen 3","1qtc8v",4,"continue","",16411.6000000477,16397.2,16411.6000000477,16411.6000000477,16397.2,16411.6000000477,1,16411.6000000477,0,0,NA,"Click To Continue","Continue Button",2,"object-2983","Task Instructions",NA,"SUPPRF20445"
"6",1709926127762,"08/03/2024 19:28:47",1709929727762,1,"08/03/2024 21:28:47",170281,5,"task-msu8",NA,35910658,10612996,NA,"complete",NA,"65eb56995e6079ddf5fedc25","computer","Desktop or Laptop","Windows 10","Chrome 122.0.0.0","1280x720","1280x598",NA,NA,0,"Task Introduction and Instructions (re-introduce video and audio) (Clone)",10,"FGEHDICJBA","Passed AC2",NA,"Spreadsheet1",1,"Task Instructions","Screen 12","1a4vu2",5,"continue","",21198.4000000477,21196.4,21198.4000000477,21198.4000000477,21196.4,21198.4000000477,1,21198.4000000477,0,0,NA,"Click To Continue","Continue Button",2,"object-2466","Task Instructions",NA,"SUPPRF20445"
"7",1709926133089,"08/03/2024 19:28:53",1709929733089,1,"08/03/2024 21:28:53",170281,5,"task-msu8",NA,35910658,10612996,NA,"complete",NA,"65eb56995e6079ddf5fedc25","computer","Desktop or Laptop","Windows 10","Chrome 122.0.0.0","1280x720","1280x598",NA,NA,0,"Task Introduction and Instructions (re-introduce video and audio) (Clone)",10,"FGEHDICJBA","Passed AC2",NA,"Spreadsheet1",1,"Task Instructions","Screen 13","q9vwda",6,"continue","",5329.00000004769,5315.8,5329.00000004769,5329.00000004769,5315.8,5329.00000004769,1,5329.00000004769,0,0,NA,"Click To Continue","Continue Button",2,"object-2989","Task Instructions",NA,"SUPPRF20445"
"8",1709926136666,"08/03/2024 19:28:56",1709929736666,1,"08/03/2024 21:28:56",170281,5,"task-msu8",NA,35910658,10612996,NA,"complete",NA,"65eb56995e6079ddf5fedc25","computer","Desktop or Laptop","Windows 10","Chrome 122.0.0.0","1280x720","1280x598",NA,NA,0,"Task Introduction and Instructions (re-introduce video and audio) (Clone)",10,"FGEHDICJBA","Passed AC2",NA,"Spreadsheet1",1,"Task Instructions","Screen 11","oyulb7",7,"continue","",3590.5,3582.8,3590.5,3590.5,3582.8,3590.5,1,3590.5,0,0,NA,"Click To Continue","Continue Button",2,"object-52","Task Instructions",NA,"SUPPRF20445"
"9",1709926139955,"08/03/2024 19:28:59",1709929739955,1,"08/03/2024 21:28:59",170281,5,"task-msu8",NA,35910658,10612996,NA,"complete",NA,"65eb56995e6079ddf5fedc25","computer","Desktop or Laptop","Windows 10","Chrome 122.0.0.0","1280x720","1280x598",NA,NA,0,"Task Introduction and Instructions (re-introduce video and audio) (Clone)",10,"FGEHDICJBA","Passed AC2",NA,"Spreadsheet1",1,"Task Instructions","Screen 5","8nvnao",8,"continue","",3296.40000004768,3282.8,3296.40000004768,3296.40000004768,3282.8,3296.40000004768,1,3296.40000004768,0,0,NA,"Click To Continue","Continue Button",2,"object-44","Task Instructions",NA,"SUPPRF20445"
"10",1709926139966,"08/03/2024 19:28:59",1709929739966,1,"08/03/2024 21:28:59",170281,5,"task-msu8",NA,35910658,10612996,NA,"complete",NA,"65eb56995e6079ddf5fedc25","computer","Desktop or Laptop","Windows 10","Chrome 122.0.0.0","1280x720","1280x598",NA,NA,0,"Task Introduction and Instructions (re-introduce video and audio) (Clone)",10,"FGEHDICJBA","Passed AC2",NA,"Spreadsheet1",NA,"","","",NA,"5","END",NA,NA,NA,NA,NA,NA,0,NA,NA,NA,NA,"","",NA,"","",NA,"SUPPRF20445"
"1",1709927332009,"08/03/2024 19:48:52",1709909332009,-5,"08/03/2024 09:48:52",170281,5,"task-msu8",NA,35911148,10613094,NA,"complete",NA,"65eb687df10847cd0277edfc","computer","Desktop or Laptop","Windows 10","Chrome 122.0.0.0","1280x720","1280x551",NA,NA,0,"Task Introduction and Instructions (re-introduce video and audio) (Clone)",10,"GHFIEJDACB","Passed AC2",NA,"Spreadsheet1",NA,"","","",NA,"5","BEGIN",NA,NA,NA,NA,NA,NA,0,NA,NA,NA,NA,"","",NA,"","",NA,"SUPPRF25498"
"2",1709927335713,"08/03/2024 19:48:55",1709909335713,-5,"08/03/2024 09:48:55",170281,5,"task-msu8",NA,35911148,10613094,NA,"complete",NA,"65eb687df10847cd0277edfc","computer","Desktop or Laptop","Windows 10","Chrome 122.0.0.0","1280x720","1280x551",NA,NA,0,"Task Introduction and Instructions (re-introduce video and audio) (Clone)",10,"GHFIEJDACB","Passed AC2",NA,"Spreadsheet1",1,"Task Instructions","Screen 1","anr7sn",1,"continue","",3565.69999980927,3549.7,3565.69999980927,3565.69999980927,3549.7,3565.69999980927,1,3565.69999980927,0,0,NA,"Click To Continue","Continue Button",3,"object-60","Task Instructions",NA,"SUPPRF25498"
"3",1709927339542,"08/03/2024 19:48:59",1709909339542,-5,"08/03/2024 09:48:59",170281,5,"task-msu8",NA,35911148,10613094,NA,"complete",NA,"65eb687df10847cd0277edfc","computer","Desktop or Laptop","Windows 10","Chrome 122.0.0.0","1280x720","1280x551",NA,NA,0,"Task Introduction and Instructions (re-introduce video and audio) (Clone)",10,"GHFIEJDACB","Passed AC2",NA,"Spreadsheet1",1,"Task Instructions","Screen 4","spepx9",2,"continue","",3844.8,3833.1,3844.8,3844.8,3833.1,3844.8,1,3844.8,0,0,NA,"Click To Continue","Continue Button",2,"object-9","Task Instructions",NA,"SUPPRF25498"
"4",1709927361376,"08/03/2024 19:49:21",1709909361376,-5,"08/03/2024 09:49:21",170281,5,"task-msu8",NA,35911148,10613094,NA,"complete",NA,"65eb687df10847cd0277edfc","computer","Desktop or Laptop","Windows 10","Chrome 122.0.0.0","1280x720","1280x551",NA,NA,0,"Task Introduction and Instructions (re-introduce video and audio) (Clone)",10,"GHFIEJDACB","Passed AC2",NA,"Spreadsheet1",1,"Task Instructions","Screen 2","ce2tc8",3,"continue","",21845.5999998569,21831.9,21845.5999998569,21845.5999998569,21831.9,21845.5999998569,1,21845.5999998569,0,0,NA,"Click To Continue","Continue Button",3,"object-59","Task Instructions",NA,"SUPPRF25498"
"5",1709927367849,"08/03/2024 19:49:27",1709909367849,-5,"08/03/2024 09:49:27",170281,5,"task-msu8",NA,35911148,10613094,NA,"complete",NA,"65eb687df10847cd0277edfc","computer","Desktop or Laptop","Windows 10","Chrome 122.0.0.0","1280x720","1280x551",NA,NA,0,"Task Introduction and Instructions (re-introduce video and audio) (Clone)",10,"GHFIEJDACB","Passed AC2",NA,"Spreadsheet1",1,"Task Instructions","Screen 3","1qtc8v",4,"continue","",6486.59999995232,6483.4,6486.59999995232,6486.59999995232,6483.4,6486.59999995232,1,6486.59999995232,0,0,NA,"Click To Continue","Continue Button",2,"object-2983","Task Instructions",NA,"SUPPRF25498"
"6",1709927371295,"08/03/2024 19:49:31",1709909371295,-5,"08/03/2024 09:49:31",170281,5,"task-msu8",NA,35911148,10613094,NA,"complete",NA,"65eb687df10847cd0277edfc","computer","Desktop or Laptop","Windows 10","Chrome 122.0.0.0","1280x720","1280x551",NA,NA,0,"Task Introduction and Instructions (re-introduce video and audio) (Clone)",10,"GHFIEJDACB","Passed AC2",NA,"Spreadsheet1",1,"Task Instructions","Screen 12","1a4vu2",5,"continue","",3449.19999995232,3432.7,3449.19999995232,3449.19999995232,3432.7,3449.19999995232,1,3449.19999995232,0,0,NA,"Click To Continue","Continue Button",2,"object-2466","Task Instructions",NA,"SUPPRF25498"
"7",1709927376088,"08/03/2024 19:49:36",1709909376088,-5,"08/03/2024 09:49:36",170281,5,"task-msu8",NA,35911148,10613094,NA,"complete",NA,"65eb687df10847cd0277edfc","computer","Desktop or Laptop","Windows 10","Chrome 122.0.0.0","1280x720","1280x551",NA,NA,0,"Task Introduction and Instructions (re-introduce video and audio) (Clone)",10,"GHFIEJDACB","Passed AC2",NA,"Spreadsheet1",1,"Task Instructions","Screen 13","q9vwda",6,"continue","",4810.2,4799.6,4810.2,4810.2,4799.6,4810.2,1,4810.2,0,0,NA,"Click To Continue","Continue Button",2,"object-2989","Task Instructions",NA,"SUPPRF25498"
"8",1709927379504,"08/03/2024 19:49:39",1709909379504,-5,"08/03/2024 09:49:39",170281,5,"task-msu8",NA,35911148,10613094,NA,"complete",NA,"65eb687df10847cd0277edfc","computer","Desktop or Laptop","Windows 10","Chrome 122.0.0.0","1280x720","1280x551",NA,NA,0,"Task Introduction and Instructions (re-introduce video and audio) (Clone)",10,"GHFIEJDACB","Passed AC2",NA,"Spreadsheet1",1,"Task Instructions","Screen 11","oyulb7",7,"continue","",3426.29999980926,3416.8,3426.29999980926,3426.29999980926,3416.8,3426.29999980926,1,3426.29999980926,0,0,NA,"Click To Continue","Continue Button",2,"object-52","Task Instructions",NA,"SUPPRF25498"
"9",1709927382068,"08/03/2024 19:49:42",1709909382068,-5,"08/03/2024 09:49:42",170281,5,"task-msu8",NA,35911148,10613094,NA,"complete",NA,"65eb687df10847cd0277edfc","computer","Desktop or Laptop","Windows 10","Chrome 122.0.0.0","1280x720","1280x551",NA,NA,0,"Task Introduction and Instructions (re-introduce video and audio) (Clone)",10,"GHFIEJDACB","Passed AC2",NA,"Spreadsheet1",1,"Task Instructions","Screen 5","8nvnao",8,"continue","",2573.39999990464,2566.10000000001,2573.39999990464,2573.39999990464,2566.10000000001,2573.39999990464,1,2573.39999990464,0,0,NA,"Click To Continue","Continue Button",2,"object-44","Task Instructions",NA,"SUPPRF25498"
"10",1709927382073,"08/03/2024 19:49:42",1709909382073,-5,"08/03/2024 09:49:42",170281,5,"task-msu8",NA,35911148,10613094,NA,"complete",NA,"65eb687df10847cd0277edfc","computer","Desktop or Laptop","Windows 10","Chrome 122.0.0.0","1280x720","1280x551",NA,NA,0,"Task Introduction and Instructions (re-introduce video and audio) (Clone)",10,"GHFIEJDACB","Passed AC2",NA,"Spreadsheet1",NA,"","","",NA,"5","END",NA,NA,NA,NA,NA,NA,0,NA,NA,NA,NA,"","",NA,"","",NA,"SUPPRF25498"
"1",1709928088360,"08/03/2024 20:01:28",1709910088360,-5,"08/03/2024 10:01:28",170281,5,"task-msu8",NA,35911437,10613150,NA,"complete",NA,"65eb6af1674b59807821cea5","computer","Desktop or Laptop","Mac OS 10.15.7","Chrome 122.0.0.0","2560x1440","2540x1222",NA,NA,0,"Task Introduction and Instructions (re-introduce video and audio) (Clone)",10,"IJHAGBFCED","Passed AC2",NA,"Spreadsheet1",NA,"","","",NA,"5","BEGIN",NA,NA,NA,NA,NA,NA,0,NA,NA,NA,NA,"","",NA,"","",NA,"SUPPRF02691"
"2",1709928092498,"08/03/2024 20:01:32",1709910092498,-5,"08/03/2024 10:01:32",170281,5,"task-msu8",NA,35911437,10613150,NA,"complete",NA,"65eb6af1674b59807821cea5","computer","Desktop or Laptop","Mac OS 10.15.7","Chrome 122.0.0.0","2560x1440","2540x1222",NA,NA,0,"Task Introduction and Instructions (re-introduce video and audio) (Clone)",10,"IJHAGBFCED","Passed AC2",NA,"Spreadsheet1",1,"Task Instructions","Screen 1","anr7sn",1,"continue","",4027.80000019073,4017.9,4027.80000019073,4027.80000019073,4017.9,4027.80000019073,1,4027.80000019073,0,0,NA,"Click To Continue","Continue Button",3,"object-60","Task Instructions",NA,"SUPPRF02691"
"3",1709928095421,"08/03/2024 20:01:35",1709910095421,-5,"08/03/2024 10:01:35",170281,5,"task-msu8",NA,35911437,10613150,NA,"complete",NA,"65eb6af1674b59807821cea5","computer","Desktop or Laptop","Mac OS 10.15.7","Chrome 122.0.0.0","2560x1440","2540x1222",NA,NA,0,"Task Introduction and Instructions (re-introduce video and audio) (Clone)",10,"IJHAGBFCED","Passed AC2",NA,"Spreadsheet1",1,"Task Instructions","Screen 4","spepx9",2,"continue","",2933.1,2917.4,2933.1,2933.1,2917.4,2933.1,1,2933.1,0,0,NA,"Click To Continue","Continue Button",2,"object-9","Task Instructions",NA,"SUPPRF02691"
"4",1709928106993,"08/03/2024 20:01:46",1709910106993,-5,"08/03/2024 10:01:46",170281,5,"task-msu8",NA,35911437,10613150,NA,"complete",NA,"65eb6af1674b59807821cea5","computer","Desktop or Laptop","Mac OS 10.15.7","Chrome 122.0.0.0","2560x1440","2540x1222",NA,NA,0,"Task Introduction and Instructions (re-introduce video and audio) (Clone)",10,"IJHAGBFCED","Passed AC2",NA,"Spreadsheet1",1,"Task Instructions","Screen 2","ce2tc8",3,"continue","",11587.6000000954,11587.3,11587.6000000954,11587.6000000954,11587.3,11587.6000000954,1,11587.6000000954,0,0,NA,"Click To Continue","Continue Button",3,"object-59","Task Instructions",NA,"SUPPRF02691"
"5",1709928115045,"08/03/2024 20:01:55",1709910115045,-5,"08/03/2024 10:01:55",170281,5,"task-msu8",NA,35911437,10613150,NA,"complete",NA,"65eb6af1674b59807821cea5","computer","Desktop or Laptop","Mac OS 10.15.7","Chrome 122.0.0.0","2560x1440","2540x1222",NA,NA,0,"Task Introduction and Instructions (re-introduce video and audio) (Clone)",10,"IJHAGBFCED","Passed AC2",NA,"Spreadsheet1",1,"Task Instructions","Screen 3","1qtc8v",4,"continue","",8052.30000009537,8036.2,8052.30000009537,8052.30000009537,8036.2,8052.30000009537,1,8052.30000009537,0,0,NA,"Click To Continue","Continue Button",2,"object-2983","Task Instructions",NA,"SUPPRF02691"
"6",1709928124067,"08/03/2024 20:02:04",1709910124067,-5,"08/03/2024 10:02:04",170281,5,"task-msu8",NA,35911437,10613150,NA,"complete",NA,"65eb6af1674b59807821cea5","computer","Desktop or Laptop","Mac OS 10.15.7","Chrome 122.0.0.0","2560x1440","2540x1222",NA,NA,0,"Task Introduction and Instructions (re-introduce video and audio) (Clone)",10,"IJHAGBFCED","Passed AC2",NA,"Spreadsheet1",1,"Task Instructions","Screen 12","1a4vu2",5,"continue","",9038.2,9036.7,9038.2,9038.2,9036.7,9038.2,1,9038.2,0,0,NA,"Click To Continue","Continue Button",2,"object-2466","Task Instructions",NA,"SUPPRF02691"
"7",1709928128921,"08/03/2024 20:02:08",1709910128921,-5,"08/03/2024 10:02:08",170281,5,"task-msu8",NA,35911437,10613150,NA,"complete",NA,"65eb6af1674b59807821cea5","computer","Desktop or Laptop","Mac OS 10.15.7","Chrome 122.0.0.0","2560x1440","2540x1222",NA,NA,0,"Task Introduction and Instructions (re-introduce video and audio) (Clone)",10,"IJHAGBFCED","Passed AC2",NA,"Spreadsheet1",1,"Task Instructions","Screen 13","q9vwda",6,"continue","",4855.2000002861,4851.2,4855.2000002861,4855.2000002861,4851.2,4855.2000002861,1,4855.2000002861,0,0,NA,"Click To Continue","Continue Button",2,"object-2989","Task Instructions",NA,"SUPPRF02691"
"8",1709928132973,"08/03/2024 20:02:12",1709910132973,-5,"08/03/2024 10:02:12",170281,5,"task-msu8",NA,35911437,10613150,NA,"complete",NA,"65eb6af1674b59807821cea5","computer","Desktop or Laptop","Mac OS 10.15.7","Chrome 122.0.0.0","2560x1440","2540x1222",NA,NA,0,"Task Introduction and Instructions (re-introduce video and audio) (Clone)",10,"IJHAGBFCED","Passed AC2",NA,"Spreadsheet1",1,"Task Instructions","Screen 11","oyulb7",7,"continue","",4056.20000009537,4052.2,4056.20000009537,4056.20000009537,4052.2,4056.20000009537,1,4056.20000009537,0,0,NA,"Click To Continue","Continue Button",2,"object-52","Task Instructions",NA,"SUPPRF02691"
"9",1709928136325,"08/03/2024 20:02:16",1709910136325,-5,"08/03/2024 10:02:16",170281,5,"task-msu8",NA,35911437,10613150,NA,"complete",NA,"65eb6af1674b59807821cea5","computer","Desktop or Laptop","Mac OS 10.15.7","Chrome 122.0.0.0","2560x1440","2540x1222",NA,NA,0,"Task Introduction and Instructions (re-introduce video and audio) (Clone)",10,"IJHAGBFCED","Passed AC2",NA,"Spreadsheet1",1,"Task Instructions","Screen 5","8nvnao",8,"continue","",3356.1,3350.2,3356.1,3356.1,3350.2,3356.1,1,3356.1,0,0,NA,"Click To Continue","Continue Button",2,"object-44","Task Instructions",NA,"SUPPRF02691"
"10",1709928136327,"08/03/2024 20:02:16",1709910136327,-5,"08/03/2024 10:02:16",170281,5,"task-msu8",NA,35911437,10613150,NA,"complete",NA,"65eb6af1674b59807821cea5","computer","Desktop or Laptop","Mac OS 10.15.7","Chrome 122.0.0.0","2560x1440","2540x1222",NA,NA,0,"Task Introduction and Instructions (re-introduce video and audio) (Clone)",10,"IJHAGBFCED","Passed AC2",NA,"Spreadsheet1",NA,"","","",NA,"5","END",NA,NA,NA,NA,NA,NA,0,NA,NA,NA,NA,"","",NA,"","",NA,"SUPPRF02691"
"1",1709927933683,"08/03/2024 19:58:53",1709927933683,0,"08/03/2024 19:58:53",170281,5,"task-msu8",NA,35911364,10613153,NA,"complete",NA,"65eb6b37bc066fbabecd9723","computer","Desktop or Laptop","Windows 10","Chrome 122.0.0.0","1536x864","850x728",NA,NA,0,"Task Introduction and Instructions (re-introduce video and audio) (Clone)",10,"HIGJFAEBDC","Passed AC2",NA,"Spreadsheet1",NA,"","","",NA,"5","BEGIN",NA,NA,NA,NA,NA,NA,0,NA,NA,NA,NA,"","",NA,"","",NA,"SUPPRF64782"
"2",1709927937622,"08/03/2024 19:58:57",1709927937622,0,"08/03/2024 19:58:57",170281,5,"task-msu8",NA,35911364,10613153,NA,"complete",NA,"65eb6b37bc066fbabecd9723","computer","Desktop or Laptop","Windows 10","Chrome 122.0.0.0","1536x864","850x728",NA,NA,0,"Task Introduction and Instructions (re-introduce video and audio) (Clone)",10,"HIGJFAEBDC","Passed AC2",NA,"Spreadsheet1",1,"Task Instructions","Screen 1","anr7sn",1,"continue","",3692.39999997616,3680.1,3692.39999997616,3692.39999997616,3680.1,3692.39999997616,1,3692.39999997616,0,0,NA,"Click To Continue","Continue Button",3,"object-60","Task Instructions",NA,"SUPPRF64782"
"3",1709927940209,"08/03/2024 19:59:00",1709927940209,0,"08/03/2024 19:59:00",170281,5,"task-msu8",NA,35911364,10613153,NA,"complete",NA,"65eb6b37bc066fbabecd9723","computer","Desktop or Laptop","Windows 10","Chrome 122.0.0.0","1536x864","850x728",NA,NA,0,"Task Introduction and Instructions (re-introduce video and audio) (Clone)",10,"HIGJFAEBDC","Passed AC2",NA,"Spreadsheet1",1,"Task Instructions","Screen 4","spepx9",2,"continue","",2599.99999996424,2597.7,2599.99999996424,2599.99999996424,2597.7,2599.99999996424,1,2599.99999996424,0,0,NA,"Click To Continue","Continue Button",2,"object-9","Task Instructions",NA,"SUPPRF64782"
"4",1709927949435,"08/03/2024 19:59:09",1709927949435,0,"08/03/2024 19:59:09",170281,5,"task-msu8",NA,35911364,10613153,NA,"complete",NA,"65eb6b37bc066fbabecd9723","computer","Desktop or Laptop","Windows 10","Chrome 122.0.0.0","1536x864","850x728",NA,NA,0,"Task Introduction and Instructions (re-introduce video and audio) (Clone)",10,"HIGJFAEBDC","Passed AC2",NA,"Spreadsheet1",1,"Task Instructions","Screen 2","ce2tc8",3,"continue","",9228.2,9225.4,9228.2,9228.2,9225.4,9228.2,1,9228.2,0,0,NA,"Click To Continue","Continue Button",3,"object-59","Task Instructions",NA,"SUPPRF64782"
"5",1709927957596,"08/03/2024 19:59:17",1709927957596,0,"08/03/2024 19:59:17",170281,5,"task-msu8",NA,35911364,10613153,NA,"complete",NA,"65eb6b37bc066fbabecd9723","computer","Desktop or Laptop","Windows 10","Chrome 122.0.0.0","1536x864","850x728",NA,NA,0,"Task Introduction and Instructions (re-introduce video and audio) (Clone)",10,"HIGJFAEBDC","Passed AC2",NA,"Spreadsheet1",1,"Task Instructions","Screen 3","1qtc8v",4,"continue","",8164.89999996424,8159.7,8164.89999996424,8164.89999996424,8159.7,8164.89999996424,1,8164.89999996424,0,0,NA,"Click To Continue","Continue Button",2,"object-2983","Task Instructions",NA,"SUPPRF64782"
"6",1709927962616,"08/03/2024 19:59:22",1709927962616,0,"08/03/2024 19:59:22",170281,5,"task-msu8",NA,35911364,10613153,NA,"complete",NA,"65eb6b37bc066fbabecd9723","computer","Desktop or Laptop","Windows 10","Chrome 122.0.0.0","1536x864","850x728",NA,NA,0,"Task Introduction and Instructions (re-introduce video and audio) (Clone)",10,"HIGJFAEBDC","Passed AC2",NA,"Spreadsheet1",1,"Task Instructions","Screen 12","1a4vu2",5,"continue","",5025.19999996424,5012.2,5025.19999996424,5025.19999996424,5012.2,5025.19999996424,1,5025.19999996424,0,0,NA,"Click To Continue","Continue Button",2,"object-2466","Task Instructions",NA,"SUPPRF64782"
"7",1709927967207,"08/03/2024 19:59:27",1709927967207,0,"08/03/2024 19:59:27",170281,5,"task-msu8",NA,35911364,10613153,NA,"complete",NA,"65eb6b37bc066fbabecd9723","computer","Desktop or Laptop","Windows 10","Chrome 122.0.0.0","1536x864","850x728",NA,NA,0,"Task Introduction and Instructions (re-introduce video and audio) (Clone)",10,"HIGJFAEBDC","Passed AC2",NA,"Spreadsheet1",1,"Task Instructions","Screen 13","q9vwda",6,"continue","",4603.29999997616,4595.8,4603.29999997616,4603.29999997616,4595.8,4603.29999997616,1,4603.29999997616,0,0,NA,"Click To Continue","Continue Button",2,"object-2989","Task Instructions",NA,"SUPPRF64782"
"8",1709927969996,"08/03/2024 19:59:29",1709927969996,0,"08/03/2024 19:59:29",170281,5,"task-msu8",NA,35911364,10613153,NA,"complete",NA,"65eb6b37bc066fbabecd9723","computer","Desktop or Laptop","Windows 10","Chrome 122.0.0.0","1536x864","850x728",NA,NA,0,"Task Introduction and Instructions (re-introduce video and audio) (Clone)",10,"HIGJFAEBDC","Passed AC2",NA,"Spreadsheet1",1,"Task Instructions","Screen 11","oyulb7",7,"continue","",2796.69999996424,2781.1,2796.69999996424,2796.69999996424,2781.1,2796.69999996424,1,2796.69999996424,0,0,NA,"Click To Continue","Continue Button",2,"object-52","Task Instructions",NA,"SUPPRF64782"
"9",1709927972728,"08/03/2024 19:59:32",1709927972728,0,"08/03/2024 19:59:32",170281,5,"task-msu8",NA,35911364,10613153,NA,"complete",NA,"65eb6b37bc066fbabecd9723","computer","Desktop or Laptop","Windows 10","Chrome 122.0.0.0","1536x864","850x728",NA,NA,0,"Task Introduction and Instructions (re-introduce video and audio) (Clone)",10,"HIGJFAEBDC","Passed AC2",NA,"Spreadsheet1",1,"Task Instructions","Screen 5","8nvnao",8,"continue","",2747.5,2730.9,2747.5,2747.5,2730.9,2747.5,1,2747.5,0,0,NA,"Click To Continue","Continue Button",2,"object-44","Task Instructions",NA,"SUPPRF64782"
"10",1709927972732,"08/03/2024 19:59:32",1709927972732,0,"08/03/2024 19:59:32",170281,5,"task-msu8",NA,35911364,10613153,NA,"complete",NA,"65eb6b37bc066fbabecd9723","computer","Desktop or Laptop","Windows 10","Chrome 122.0.0.0","1536x864","850x728",NA,NA,0,"Task Introduction and Instructions (re-introduce video and audio) (Clone)",10,"HIGJFAEBDC","Passed AC2",NA,"Spreadsheet1",NA,"","","",NA,"5","END",NA,NA,NA,NA,NA,NA,0,NA,NA,NA,NA,"","",NA,"","",NA,"SUPPRF64782"
"1",1709928241658,"08/03/2024 20:04:01",1709906641658,-6,"08/03/2024 08:04:01",170281,5,"task-msu8",NA,35911491,10613159,NA,"complete",NA,"65eb6b45b174e94f5eb8edca","computer","Desktop or Laptop","Mac OS 10.15.7","Chrome 121.0.0.0","1440x900","1440x779",NA,NA,0,"Task Introduction and Instructions (re-introduce video and audio) (Clone)",10,"JAIBHCGDFE","Passed AC2",NA,"Spreadsheet1",NA,"","","",NA,"5","BEGIN",NA,NA,NA,NA,NA,NA,0,NA,NA,NA,NA,"","",NA,"","",NA,"SUPPRF76403"
"2",1709928300031,"08/03/2024 20:05:00",1709906700031,-6,"08/03/2024 08:05:00",170281,5,"task-msu8",NA,35911491,10613159,NA,"complete",NA,"65eb6b45b174e94f5eb8edca","computer","Desktop or Laptop","Mac OS 10.15.7","Chrome 121.0.0.0","1440x900","1440x779",NA,NA,0,"Task Introduction and Instructions (re-introduce video and audio) (Clone)",10,"JAIBHCGDFE","Passed AC2",NA,"Spreadsheet1",1,"Task Instructions","Screen 1","anr7sn",1,"continue","",57782.7000000954,57766.7,57782.7000000954,57782.7000000954,57766.7,57782.7000000954,1,57782.7000000954,0,0,NA,"Click To Continue","Continue Button",3,"object-60","Task Instructions",NA,"SUPPRF76403"
"3",1709928303198,"08/03/2024 20:05:03",1709906703198,-6,"08/03/2024 08:05:03",170281,5,"task-msu8",NA,35911491,10613159,NA,"complete",NA,"65eb6b45b174e94f5eb8edca","computer","Desktop or Laptop","Mac OS 10.15.7","Chrome 121.0.0.0","1440x900","1440x779",NA,NA,0,"Task Introduction and Instructions (re-introduce video and audio) (Clone)",10,"JAIBHCGDFE","Passed AC2",NA,"Spreadsheet1",1,"Task Instructions","Screen 4","spepx9",2,"continue","",3183.00000009537,3166.7,3183.00000009537,3183.00000009537,3166.7,3183.00000009537,1,3183.00000009537,0,0,NA,"Click To Continue","Continue Button",2,"object-9","Task Instructions",NA,"SUPPRF76403"
"4",1709928318080,"08/03/2024 20:05:18",1709906718080,-6,"08/03/2024 08:05:18",170281,5,"task-msu8",NA,35911491,10613159,NA,"complete",NA,"65eb6b45b174e94f5eb8edca","computer","Desktop or Laptop","Mac OS 10.15.7","Chrome 121.0.0.0","1440x900","1440x779",NA,NA,0,"Task Introduction and Instructions (re-introduce video and audio) (Clone)",10,"JAIBHCGDFE","Passed AC2",NA,"Spreadsheet1",1,"Task Instructions","Screen 2","ce2tc8",3,"continue","",14898.9,14883.4,14898.9,14898.9,14883.4,14898.9,1,14898.9,0,0,NA,"Click To Continue","Continue Button",3,"object-59","Task Instructions",NA,"SUPPRF76403"
"5",1709928333496,"08/03/2024 20:05:33",1709906733496,-6,"08/03/2024 08:05:33",170281,5,"task-msu8",NA,35911491,10613159,NA,"complete",NA,"65eb6b45b174e94f5eb8edca","computer","Desktop or Laptop","Mac OS 10.15.7","Chrome 121.0.0.0","1440x900","1440x779",NA,NA,0,"Task Introduction and Instructions (re-introduce video and audio) (Clone)",10,"JAIBHCGDFE","Passed AC2",NA,"Spreadsheet1",1,"Task Instructions","Screen 3","1qtc8v",4,"continue","",15431.6000000238,15416.6,15431.6000000238,15431.6000000238,15416.6,15431.6000000238,1,15431.6000000238,0,0,NA,"Click To Continue","Continue Button",2,"object-2983","Task Instructions",NA,"SUPPRF76403"
"6",1709928341213,"08/03/2024 20:05:41",1709906741213,-6,"08/03/2024 08:05:41",170281,5,"task-msu8",NA,35911491,10613159,NA,"complete",NA,"65eb6b45b174e94f5eb8edca","computer","Desktop or Laptop","Mac OS 10.15.7","Chrome 121.0.0.0","1440x900","1440x779",NA,NA,0,"Task Introduction and Instructions (re-introduce video and audio) (Clone)",10,"JAIBHCGDFE","Passed AC2",NA,"Spreadsheet1",1,"Task Instructions","Screen 12","1a4vu2",5,"continue","",7731.60000004768,7716.5,7731.60000004768,7731.60000004768,7716.5,7731.60000004768,1,7731.60000004768,0,0,NA,"Click To Continue","Continue Button",2,"object-2466","Task Instructions",NA,"SUPPRF76403"
"7",1709928347780,"08/03/2024 20:05:47",1709906747780,-6,"08/03/2024 08:05:47",170281,5,"task-msu8",NA,35911491,10613159,NA,"complete",NA,"65eb6b45b174e94f5eb8edca","computer","Desktop or Laptop","Mac OS 10.15.7","Chrome 121.0.0.0","1440x900","1440x779",NA,NA,0,"Task Introduction and Instructions (re-introduce video and audio) (Clone)",10,"JAIBHCGDFE","Passed AC2",NA,"Spreadsheet1",1,"Task Instructions","Screen 13","q9vwda",6,"continue","",6581.60000004768,6566.89999999999,6581.60000004768,6581.60000004768,6566.89999999999,6581.60000004768,1,6581.60000004768,0,0,NA,"Click To Continue","Continue Button",2,"object-2989","Task Instructions",NA,"SUPPRF76403"
"8",1709928352314,"08/03/2024 20:05:52",1709906752314,-6,"08/03/2024 08:05:52",170281,5,"task-msu8",NA,35911491,10613159,NA,"complete",NA,"65eb6b45b174e94f5eb8edca","computer","Desktop or Laptop","Mac OS 10.15.7","Chrome 121.0.0.0","1440x900","1440x779",NA,NA,0,"Task Introduction and Instructions (re-introduce video and audio) (Clone)",10,"JAIBHCGDFE","Passed AC2",NA,"Spreadsheet1",1,"Task Instructions","Screen 11","oyulb7",7,"continue","",4548.60000002384,4533.3,4548.60000002384,4548.60000002384,4533.3,4548.60000002384,1,4548.60000002384,0,0,NA,"Click To Continue","Continue Button",2,"object-52","Task Instructions",NA,"SUPPRF76403"
"9",1709928356447,"08/03/2024 20:05:56",1709906756447,-6,"08/03/2024 08:05:56",170281,5,"task-msu8",NA,35911491,10613159,NA,"complete",NA,"65eb6b45b174e94f5eb8edca","computer","Desktop or Laptop","Mac OS 10.15.7","Chrome 121.0.0.0","1440x900","1440x779",NA,NA,0,"Task Introduction and Instructions (re-introduce video and audio) (Clone)",10,"JAIBHCGDFE","Passed AC2",NA,"Spreadsheet1",1,"Task Instructions","Screen 5","8nvnao",8,"continue","",4148.30000002384,4133.39999999999,4148.30000002384,4148.30000002384,4133.39999999999,4148.30000002384,1,4148.30000002384,0,0,NA,"Click To Continue","Continue Button",2,"object-44","Task Instructions",NA,"SUPPRF76403"
"10",1709928356449,"08/03/2024 20:05:56",1709906756449,-6,"08/03/2024 08:05:56",170281,5,"task-msu8",NA,35911491,10613159,NA,"complete",NA,"65eb6b45b174e94f5eb8edca","computer","Desktop or Laptop","Mac OS 10.15.7","Chrome 121.0.0.0","1440x900","1440x779",NA,NA,0,"Task Introduction and Instructions (re-introduce video and audio) (Clone)",10,"JAIBHCGDFE","Passed AC2",NA,"Spreadsheet1",NA,"","","",NA,"5","END",NA,NA,NA,NA,NA,NA,0,NA,NA,NA,NA,"","",NA,"","",NA,"SUPPRF76403"
"1",1709928177945,"08/03/2024 20:02:57",1709910177945,-5,"08/03/2024 10:02:57",170281,5,"task-msu8",NA,35911470,10613185,NA,"complete",NA,"65eb6ba3d55abbe87ac74158","computer","Desktop or Laptop","Mac OS 10.15.7","Chrome 122.0.0.0","1440x900","1440x783",NA,NA,0,"Task Introduction and Instructions (re-introduce video and audio) (Clone)",10,"ABJCIDHEGF","Passed AC2",NA,"Spreadsheet1",NA,"","","",NA,"5","BEGIN",NA,NA,NA,NA,NA,NA,0,NA,NA,NA,NA,"","",NA,"","",NA,"SUPPRF04400"
"2",1709928186811,"08/03/2024 20:03:06",1709910186811,-5,"08/03/2024 10:03:06",170281,5,"task-msu8",NA,35911470,10613185,NA,"complete",NA,"65eb6ba3d55abbe87ac74158","computer","Desktop or Laptop","Mac OS 10.15.7","Chrome 122.0.0.0","1440x900","1440x783",NA,NA,0,"Task Introduction and Instructions (re-introduce video and audio) (Clone)",10,"ABJCIDHEGF","Passed AC2",NA,"Spreadsheet1",1,"Task Instructions","Screen 1","anr7sn",1,"continue","",8198.2,8183.5,8198.2,8198.2,8183.5,8198.2,1,8198.2,0,0,NA,"Click To Continue","Continue Button",3,"object-60","Task Instructions",NA,"SUPPRF04400"
"3",1709928190410,"08/03/2024 20:03:10",1709910190410,-5,"08/03/2024 10:03:10",170281,5,"task-msu8",NA,35911470,10613185,NA,"complete",NA,"65eb6ba3d55abbe87ac74158","computer","Desktop or Laptop","Mac OS 10.15.7","Chrome 122.0.0.0","1440x900","1440x783",NA,NA,0,"Task Introduction and Instructions (re-introduce video and audio) (Clone)",10,"ABJCIDHEGF","Passed AC2",NA,"Spreadsheet1",1,"Task Instructions","Screen 4","spepx9",2,"continue","",3614.40000004768,3599.2,3614.40000004768,3614.40000004768,3599.2,3614.40000004768,1,3614.40000004768,0,0,NA,"Click To Continue","Continue Button",2,"object-9","Task Instructions",NA,"SUPPRF04400"
"4",1709928202978,"08/03/2024 20:03:22",1709910202978,-5,"08/03/2024 10:03:22",170281,5,"task-msu8",NA,35911470,10613185,NA,"complete",NA,"65eb6ba3d55abbe87ac74158","computer","Desktop or Laptop","Mac OS 10.15.7","Chrome 122.0.0.0","1440x900","1440x783",NA,NA,0,"Task Introduction and Instructions (re-introduce video and audio) (Clone)",10,"ABJCIDHEGF","Passed AC2",NA,"Spreadsheet1",1,"Task Instructions","Screen 2","ce2tc8",3,"continue","",12583,12567.1,12583,12583,12567.1,12583,1,12583,0,0,NA,"Click To Continue","Continue Button",3,"object-59","Task Instructions",NA,"SUPPRF04400"
"5",1709928256777,"08/03/2024 20:04:16",1709910256777,-5,"08/03/2024 10:04:16",170281,5,"task-msu8",NA,35911470,10613185,NA,"complete",NA,"65eb6ba3d55abbe87ac74158","computer","Desktop or Laptop","Mac OS 10.15.7","Chrome 122.0.0.0","1440x900","1440x783",NA,NA,0,"Task Introduction and Instructions (re-introduce video and audio) (Clone)",10,"ABJCIDHEGF","Passed AC2",NA,"Spreadsheet1",1,"Task Instructions","Screen 3","1qtc8v",4,"continue","",53816.6000000477,53801.9,53816.6000000477,53816.6000000477,53801.9,53816.6000000477,1,53816.6000000477,0,0,NA,"Click To Continue","Continue Button",2,"object-2983","Task Instructions",NA,"SUPPRF04400"
"6",1709928264060,"08/03/2024 20:04:24",1709910264060,-5,"08/03/2024 10:04:24",170281,5,"task-msu8",NA,35911470,10613185,NA,"complete",NA,"65eb6ba3d55abbe87ac74158","computer","Desktop or Laptop","Mac OS 10.15.7","Chrome 122.0.0.0","1440x900","1440x783",NA,NA,0,"Task Introduction and Instructions (re-introduce video and audio) (Clone)",10,"ABJCIDHEGF","Passed AC2",NA,"Spreadsheet1",1,"Task Instructions","Screen 12","1a4vu2",5,"continue","",7297.89999997616,7283.5,7297.89999997616,7297.89999997616,7283.5,7297.89999997616,1,7297.89999997616,0,0,NA,"Click To Continue","Continue Button",2,"object-2466","Task Instructions",NA,"SUPPRF04400"
"7",1709928269910,"08/03/2024 20:04:29",1709910269910,-5,"08/03/2024 10:04:29",170281,5,"task-msu8",NA,35911470,10613185,NA,"complete",NA,"65eb6ba3d55abbe87ac74158","computer","Desktop or Laptop","Mac OS 10.15.7","Chrome 122.0.0.0","1440x900","1440x783",NA,NA,0,"Task Introduction and Instructions (re-introduce video and audio) (Clone)",10,"ABJCIDHEGF","Passed AC2",NA,"Spreadsheet1",1,"Task Instructions","Screen 13","q9vwda",6,"continue","",5865.10000002384,5850.10000000001,5865.10000002384,5865.10000002384,5850.10000000001,5865.10000002384,1,5865.10000002384,0,0,NA,"Click To Continue","Continue Button",2,"object-2989","Task Instructions",NA,"SUPPRF04400"
"8",1709928272960,"08/03/2024 20:04:32",1709910272960,-5,"08/03/2024 10:04:32",170281,5,"task-msu8",NA,35911470,10613185,NA,"complete",NA,"65eb6ba3d55abbe87ac74158","computer","Desktop or Laptop","Mac OS 10.15.7","Chrome 122.0.0.0","1440x900","1440x783",NA,NA,0,"Task Introduction and Instructions (re-introduce video and audio) (Clone)",10,"ABJCIDHEGF","Passed AC2",NA,"Spreadsheet1",1,"Task Instructions","Screen 11","oyulb7",7,"continue","",3065.29999997615,3049.29999999999,3065.29999997615,3065.29999997615,3049.29999999999,3065.29999997615,1,3065.29999997615,0,0,NA,"Click To Continue","Continue Button",2,"object-52","Task Instructions",NA,"SUPPRF04400"
"9",1709928276227,"08/03/2024 20:04:36",1709910276227,-5,"08/03/2024 10:04:36",170281,5,"task-msu8",NA,35911470,10613185,NA,"complete",NA,"65eb6ba3d55abbe87ac74158","computer","Desktop or Laptop","Mac OS 10.15.7","Chrome 122.0.0.0","1440x900","1440x783",NA,NA,0,"Task Introduction and Instructions (re-introduce video and audio) (Clone)",10,"ABJCIDHEGF","Passed AC2",NA,"Spreadsheet1",1,"Task Instructions","Screen 5","8nvnao",8,"continue","",3282.40000007153,3267.5,3282.40000007153,3282.40000007153,3267.5,3282.40000007153,1,3282.40000007153,0,0,NA,"Click To Continue","Continue Button",2,"object-44","Task Instructions",NA,"SUPPRF04400"
"10",1709928276229,"08/03/2024 20:04:36",1709910276229,-5,"08/03/2024 10:04:36",170281,5,"task-msu8",NA,35911470,10613185,NA,"complete",NA,"65eb6ba3d55abbe87ac74158","computer","Desktop or Laptop","Mac OS 10.15.7","Chrome 122.0.0.0","1440x900","1440x783",NA,NA,0,"Task Introduction and Instructions (re-introduce video and audio) (Clone)",10,"ABJCIDHEGF","Passed AC2",NA,"Spreadsheet1",NA,"","","",NA,"5","END",NA,NA,NA,NA,NA,NA,0,NA,NA,NA,NA,"","",NA,"","",NA,"SUPPRF04400"
"1",1709929892673,"08/03/2024 20:31:32",1709908292673,-6,"08/03/2024 08:31:32",170281,5,"task-msu8",NA,35911887,10613256,NA,"complete",NA,"65eb6e81466760163e0121c9","computer","Desktop or Laptop","Windows 10","Chrome 100.0.4896.75","1366x768","1366x617",NA,NA,0,"Task Introduction and Instructions (re-introduce video and audio) (Clone)",10,"BCADJEIFHG","Passed AC2",NA,"Spreadsheet1",NA,"","","",NA,"5","BEGIN",NA,NA,NA,NA,NA,NA,0,NA,NA,NA,NA,"","",NA,"","",NA,"SUPPRF05331"
"2",1709929901362,"08/03/2024 20:31:41",1709908301362,-6,"08/03/2024 08:31:41",170281,5,"task-msu8",NA,35911887,10613256,NA,"complete",NA,"65eb6e81466760163e0121c9","computer","Desktop or Laptop","Windows 10","Chrome 100.0.4896.75","1366x768","1366x617",NA,NA,0,"Task Introduction and Instructions (re-introduce video and audio) (Clone)",10,"BCADJEIFHG","Passed AC2",NA,"Spreadsheet1",1,"Task Instructions","Screen 1","anr7sn",1,"continue","",8054.488,8050.17,8054.488,8054.488,8050.17,8054.488,1,8054.488,0,0,NA,"Click To Continue","Continue Button",3,"object-60","Task Instructions",NA,"SUPPRF05331"
"3",1709929903520,"08/03/2024 20:31:43",1709908303520,-6,"08/03/2024 08:31:43",170281,5,"task-msu8",NA,35911887,10613256,NA,"complete",NA,"65eb6e81466760163e0121c9","computer","Desktop or Laptop","Windows 10","Chrome 100.0.4896.75","1366x768","1366x617",NA,NA,0,"Task Introduction and Instructions (re-introduce video and audio) (Clone)",10,"BCADJEIFHG","Passed AC2",NA,"Spreadsheet1",1,"Task Instructions","Screen 4","spepx9",2,"continue","",2162.91799990463,2150.117,2162.91799990463,2162.91799990463,2150.117,2162.91799990463,1,2162.91799990463,0,0,NA,"Click To Continue","Continue Button",2,"object-9","Task Instructions",NA,"SUPPRF05331"
"4",1709929922161,"08/03/2024 20:32:02",1709908322161,-6,"08/03/2024 08:32:02",170281,5,"task-msu8",NA,35911887,10613256,NA,"complete",NA,"65eb6e81466760163e0121c9","computer","Desktop or Laptop","Windows 10","Chrome 100.0.4896.75","1366x768","1366x617",NA,NA,0,"Task Introduction and Instructions (re-introduce video and audio) (Clone)",10,"BCADJEIFHG","Passed AC2",NA,"Spreadsheet1",1,"Task Instructions","Screen 2","ce2tc8",3,"continue","",18654.5009999523,18650.583,18654.5009999523,18654.5009999523,18650.583,18654.5009999523,1,18654.5009999523,0,0,NA,"Click To Continue","Continue Button",3,"object-59","Task Instructions",NA,"SUPPRF05331"
"5",1709929942458,"08/03/2024 20:32:22",1709908342458,-6,"08/03/2024 08:32:22",170281,5,"task-msu8",NA,35911887,10613256,NA,"complete",NA,"65eb6e81466760163e0121c9","computer","Desktop or Laptop","Windows 10","Chrome 100.0.4896.75","1366x768","1366x617",NA,NA,0,"Task Introduction and Instructions (re-introduce video and audio) (Clone)",10,"BCADJEIFHG","Passed AC2",NA,"Spreadsheet1",1,"Task Instructions","Screen 3","1qtc8v",4,"continue","",20300.3180000477,20284.107,20300.3180000477,20300.3180000477,20284.107,20300.3180000477,1,20300.3180000477,0,0,NA,"Click To Continue","Continue Button",2,"object-2983","Task Instructions",NA,"SUPPRF05331"
"6",1709929945455,"08/03/2024 20:32:25",1709908345455,-6,"08/03/2024 08:32:25",170281,5,"task-msu8",NA,35911887,10613256,NA,"complete",NA,"65eb6e81466760163e0121c9","computer","Desktop or Laptop","Windows 10","Chrome 100.0.4896.75","1366x768","1366x617",NA,NA,0,"Task Introduction and Instructions (re-introduce video and audio) (Clone)",10,"BCADJEIFHG","Passed AC2",NA,"Spreadsheet1",1,"Task Instructions","Screen 12","1a4vu2",5,"continue","",3012.41100009537,3000.158,3012.41100009537,3012.41100009537,3000.158,3012.41100009537,1,3012.41100009537,0,0,NA,"Click To Continue","Continue Button",2,"object-2466","Task Instructions",NA,"SUPPRF05331"
"7",1709929949956,"08/03/2024 20:32:29",1709908349956,-6,"08/03/2024 08:32:29",170281,5,"task-msu8",NA,35911887,10613256,NA,"complete",NA,"65eb6e81466760163e0121c9","computer","Desktop or Laptop","Windows 10","Chrome 100.0.4896.75","1366x768","1366x617",NA,NA,0,"Task Introduction and Instructions (re-introduce video and audio) (Clone)",10,"BCADJEIFHG","Passed AC2",NA,"Spreadsheet1",1,"Task Instructions","Screen 13","q9vwda",6,"continue","",4513.55300004769,4500.08300000001,4513.55300004769,4513.55300004769,4500.08300000001,4513.55300004769,1,4513.55300004769,0,0,NA,"Click To Continue","Continue Button",2,"object-2989","Task Instructions",NA,"SUPPRF05331"
"8",1709929953123,"08/03/2024 20:32:33",1709908353123,-6,"08/03/2024 08:32:33",170281,5,"task-msu8",NA,35911887,10613256,NA,"complete",NA,"65eb6e81466760163e0121c9","computer","Desktop or Laptop","Windows 10","Chrome 100.0.4896.75","1366x768","1366x617",NA,NA,0,"Task Introduction and Instructions (re-introduce video and audio) (Clone)",10,"BCADJEIFHG","Passed AC2",NA,"Spreadsheet1",1,"Task Instructions","Screen 11","oyulb7",7,"continue","",3180.86999990463,3166.77,3180.86999990463,3180.86999990463,3166.77,3180.86999990463,1,3180.86999990463,0,0,NA,"Click To Continue","Continue Button",2,"object-52","Task Instructions",NA,"SUPPRF05331"
"9",1709929956391,"08/03/2024 20:32:36",1709908356391,-6,"08/03/2024 08:32:36",170281,5,"task-msu8",NA,35911887,10613256,NA,"complete",NA,"65eb6e81466760163e0121c9","computer","Desktop or Laptop","Windows 10","Chrome 100.0.4896.75","1366x768","1366x617",NA,NA,0,"Task Introduction and Instructions (re-introduce video and audio) (Clone)",10,"BCADJEIFHG","Passed AC2",NA,"Spreadsheet1",1,"Task Instructions","Screen 5","8nvnao",8,"continue","",3281.20000004768,3266.772,3281.20000004768,3281.20000004768,3266.772,3281.20000004768,1,3281.20000004768,0,0,NA,"Click To Continue","Continue Button",2,"object-44","Task Instructions",NA,"SUPPRF05331"
"10",1709929956399,"08/03/2024 20:32:36",1709908356399,-6,"08/03/2024 08:32:36",170281,5,"task-msu8",NA,35911887,10613256,NA,"complete",NA,"65eb6e81466760163e0121c9","computer","Desktop or Laptop","Windows 10","Chrome 100.0.4896.75","1366x768","1366x617",NA,NA,0,"Task Introduction and Instructions (re-introduce video and audio) (Clone)",10,"BCADJEIFHG","Passed AC2",NA,"Spreadsheet1",NA,"","","",NA,"5","END",NA,NA,NA,NA,NA,NA,0,NA,NA,NA,NA,"","",NA,"","",NA,"SUPPRF05331"
"1",1709928946464,"08/03/2024 20:15:46",1709928946464,0,"08/03/2024 20:15:46",170281,5,"task-msu8",NA,35911685,10613288,NA,"complete",NA,"65eb706140566af92843b969","computer","Desktop or Laptop","Mac OS 10.15.7","Chrome 121.0.0.0","1280x800","1280x580",NA,NA,0,"Task Introduction and Instructions (re-introduce video and audio) (Clone)",10,"CDBEAFJGIH","Passed AC2",NA,"Spreadsheet1",NA,"","","",NA,"5","BEGIN",NA,NA,NA,NA,NA,NA,0,NA,NA,NA,NA,"","",NA,"","",NA,"SUPPRF97021"
"2",1709928950014,"08/03/2024 20:15:50",1709928950014,0,"08/03/2024 20:15:50",170281,5,"task-msu8",NA,35911685,10613288,NA,"complete",NA,"65eb706140566af92843b969","computer","Desktop or Laptop","Mac OS 10.15.7","Chrome 121.0.0.0","1280x800","1280x580",NA,NA,0,"Task Introduction and Instructions (re-introduce video and audio) (Clone)",10,"CDBEAFJGIH","Passed AC2",NA,"Spreadsheet1",1,"Task Instructions","Screen 1","anr7sn",1,"continue","",3320.29999980927,3316.6,3320.29999980927,3320.29999980927,3316.6,3320.29999980927,1,3320.29999980927,0,0,NA,"Click To Continue","Continue Button",3,"object-60","Task Instructions",NA,"SUPPRF97021"
"3",1709928952938,"08/03/2024 20:15:52",1709928952938,0,"08/03/2024 20:15:52",170281,5,"task-msu8",NA,35911685,10613288,NA,"complete",NA,"65eb706140566af92843b969","computer","Desktop or Laptop","Mac OS 10.15.7","Chrome 121.0.0.0","1280x800","1280x580",NA,NA,0,"Task Introduction and Instructions (re-introduce video and audio) (Clone)",10,"CDBEAFJGIH","Passed AC2",NA,"Spreadsheet1",1,"Task Instructions","Screen 4","spepx9",2,"continue","",2927.39999961853,2916.5,2927.39999961853,2927.39999961853,2916.5,2927.39999961853,1,2927.39999961853,0,0,NA,"Click To Continue","Continue Button",2,"object-9","Task Instructions",NA,"SUPPRF97021"
"4",1709928956946,"08/03/2024 20:15:56",1709928956946,0,"08/03/2024 20:15:56",170281,5,"task-msu8",NA,35911685,10613288,NA,"complete",NA,"65eb706140566af92843b969","computer","Desktop or Laptop","Mac OS 10.15.7","Chrome 121.0.0.0","1280x800","1280x580",NA,NA,0,"Task Introduction and Instructions (re-introduce video and audio) (Clone)",10,"CDBEAFJGIH","Passed AC2",NA,"Spreadsheet1",1,"Task Instructions","Screen 2","ce2tc8",3,"continue","",4016.9,4000.2,4016.9,4016.9,4000.2,4016.9,1,4016.9,0,0,NA,"Click To Continue","Continue Button",3,"object-59","Task Instructions",NA,"SUPPRF97021"
"5",1709928961057,"08/03/2024 20:16:01",1709928961057,0,"08/03/2024 20:16:01",170281,5,"task-msu8",NA,35911685,10613288,NA,"complete",NA,"65eb706140566af92843b969","computer","Desktop or Laptop","Mac OS 10.15.7","Chrome 121.0.0.0","1280x800","1280x580",NA,NA,0,"Task Introduction and Instructions (re-introduce video and audio) (Clone)",10,"CDBEAFJGIH","Passed AC2",NA,"Spreadsheet1",1,"Task Instructions","Screen 3","1qtc8v",4,"continue","",4130.10000019073,4116.5,4130.10000019073,4130.10000019073,4116.5,4130.10000019073,1,4130.10000019073,0,0,NA,"Click To Continue","Continue Button",2,"object-2983","Task Instructions",NA,"SUPPRF97021"
"6",1709928963964,"08/03/2024 20:16:03",1709928963964,0,"08/03/2024 20:16:03",170281,5,"task-msu8",NA,35911685,10613288,NA,"complete",NA,"65eb706140566af92843b969","computer","Desktop or Laptop","Mac OS 10.15.7","Chrome 121.0.0.0","1280x800","1280x580",NA,NA,0,"Task Introduction and Instructions (re-introduce video and audio) (Clone)",10,"CDBEAFJGIH","Passed AC2",NA,"Spreadsheet1",1,"Task Instructions","Screen 12","1a4vu2",5,"continue","",2921.3,2916.5,2921.3,2921.3,2916.5,2921.3,1,2921.3,0,0,NA,"Click To Continue","Continue Button",2,"object-2466","Task Instructions",NA,"SUPPRF97021"
"7",1709928968847,"08/03/2024 20:16:08",1709928968847,0,"08/03/2024 20:16:08",170281,5,"task-msu8",NA,35911685,10613288,NA,"complete",NA,"65eb706140566af92843b969","computer","Desktop or Laptop","Mac OS 10.15.7","Chrome 121.0.0.0","1280x800","1280x580",NA,NA,0,"Task Introduction and Instructions (re-introduce video and audio) (Clone)",10,"CDBEAFJGIH","Passed AC2",NA,"Spreadsheet1",1,"Task Instructions","Screen 13","q9vwda",6,"continue","",4887.8,4883.4,4887.8,4887.8,4883.4,4887.8,1,4887.8,0,0,NA,"Click To Continue","Continue Button",2,"object-2989","Task Instructions",NA,"SUPPRF97021"
"8",1709928971626,"08/03/2024 20:16:11",1709928971626,0,"08/03/2024 20:16:11",170281,5,"task-msu8",NA,35911685,10613288,NA,"complete",NA,"65eb706140566af92843b969","computer","Desktop or Laptop","Mac OS 10.15.7","Chrome 121.0.0.0","1280x800","1280x580",NA,NA,0,"Task Introduction and Instructions (re-introduce video and audio) (Clone)",10,"CDBEAFJGIH","Passed AC2",NA,"Spreadsheet1",1,"Task Instructions","Screen 11","oyulb7",7,"continue","",2782.79999961853,2766.6,2782.79999961853,2782.79999961853,2766.6,2782.79999961853,1,2782.79999961853,0,0,NA,"Click To Continue","Continue Button",2,"object-52","Task Instructions",NA,"SUPPRF97021"
"9",1709928977018,"08/03/2024 20:16:17",1709928977018,0,"08/03/2024 20:16:17",170281,5,"task-msu8",NA,35911685,10613288,NA,"complete",NA,"65eb706140566af92843b969","computer","Desktop or Laptop","Mac OS 10.15.7","Chrome 121.0.0.0","1280x800","1280x580",NA,NA,0,"Task Introduction and Instructions (re-introduce video and audio) (Clone)",10,"CDBEAFJGIH","Passed AC2",NA,"Spreadsheet1",1,"Task Instructions","Screen 5","8nvnao",8,"continue","",5408.89999942779,5400,5408.89999942779,5408.89999942779,5400,5408.89999942779,1,5408.89999942779,0,0,NA,"Click To Continue","Continue Button",2,"object-44","Task Instructions",NA,"SUPPRF97021"
"10",1709928977026,"08/03/2024 20:16:17",1709928977026,0,"08/03/2024 20:16:17",170281,5,"task-msu8",NA,35911685,10613288,NA,"complete",NA,"65eb706140566af92843b969","computer","Desktop or Laptop","Mac OS 10.15.7","Chrome 121.0.0.0","1280x800","1280x580",NA,NA,0,"Task Introduction and Instructions (re-introduce video and audio) (Clone)",10,"CDBEAFJGIH","Passed AC2",NA,"Spreadsheet1",NA,"","","",NA,"5","END",NA,NA,NA,NA,NA,NA,0,NA,NA,NA,NA,"","",NA,"","",NA,"SUPPRF97021"
"1",1709930405829,"08/03/2024 20:40:05",1709908805829,-6,"08/03/2024 08:40:05",170281,5,"task-msu8",NA,35911975,10613311,NA,"complete",NA,"65eb7032eae2083a56a715b0","computer","Desktop or Laptop","Windows 10","Chrome 122.0.0.0","1536x864","1536x730",NA,NA,0,"Task Introduction and Instructions (re-introduce video and audio) (Clone)",10,"DECFBGAHJI","Passed AC2",NA,"Spreadsheet1",NA,"","","",NA,"5","BEGIN",NA,NA,NA,NA,NA,NA,0,NA,NA,NA,NA,"","",NA,"","",NA,"SUPPRF08502"
"2",1709930411445,"08/03/2024 20:40:11",1709908811445,-6,"08/03/2024 08:40:11",170281,5,"task-msu8",NA,35911975,10613311,NA,"complete",NA,"65eb7032eae2083a56a715b0","computer","Desktop or Laptop","Windows 10","Chrome 122.0.0.0","1536x864","1536x730",NA,NA,0,"Task Introduction and Instructions (re-introduce video and audio) (Clone)",10,"DECFBGAHJI","Passed AC2",NA,"Spreadsheet1",1,"Task Instructions","Screen 1","anr7sn",1,"continue","",4985.9,4978.9,4985.9,4985.9,4978.9,4985.9,1,4985.9,0,0,NA,"Click To Continue","Continue Button",3,"object-60","Task Instructions",NA,"SUPPRF08502"
"3",1709930416072,"08/03/2024 20:40:16",1709908816072,-6,"08/03/2024 08:40:16",170281,5,"task-msu8",NA,35911975,10613311,NA,"complete",NA,"65eb7032eae2083a56a715b0","computer","Desktop or Laptop","Windows 10","Chrome 122.0.0.0","1536x864","1536x730",NA,NA,0,"Task Introduction and Instructions (re-introduce video and audio) (Clone)",10,"DECFBGAHJI","Passed AC2",NA,"Spreadsheet1",1,"Task Instructions","Screen 4","spepx9",2,"continue","",4634.40000000298,4631.8,4634.40000000298,4634.40000000298,4631.8,4634.40000000298,1,4634.40000000298,0,0,NA,"Click To Continue","Continue Button",2,"object-9","Task Instructions",NA,"SUPPRF08502"
"4",1709930439655,"08/03/2024 20:40:39",1709908839655,-6,"08/03/2024 08:40:39",170281,5,"task-msu8",NA,35911975,10613311,NA,"complete",NA,"65eb7032eae2083a56a715b0","computer","Desktop or Laptop","Windows 10","Chrome 122.0.0.0","1536x864","1536x730",NA,NA,0,"Task Introduction and Instructions (re-introduce video and audio) (Clone)",10,"DECFBGAHJI","Passed AC2",NA,"Spreadsheet1",1,"Task Instructions","Screen 2","ce2tc8",3,"continue","",23585.600000003,23582.5,23585.600000003,23585.600000003,23582.5,23585.600000003,1,23585.600000003,0,0,NA,"Click To Continue","Continue Button",3,"object-59","Task Instructions",NA,"SUPPRF08502"
"5",1709930454804,"08/03/2024 20:40:54",1709908854804,-6,"08/03/2024 08:40:54",170281,5,"task-msu8",NA,35911975,10613311,NA,"complete",NA,"65eb7032eae2083a56a715b0","computer","Desktop or Laptop","Windows 10","Chrome 122.0.0.0","1536x864","1536x730",NA,NA,0,"Task Introduction and Instructions (re-introduce video and audio) (Clone)",10,"DECFBGAHJI","Passed AC2",NA,"Spreadsheet1",1,"Task Instructions","Screen 3","1qtc8v",4,"continue","",15151.5000000089,15145.4,15151.5000000089,15151.5000000089,15145.4,15151.5000000089,1,15151.5000000089,0,0,NA,"Click To Continue","Continue Button",2,"object-2983","Task Instructions",NA,"SUPPRF08502"
"6",1709930468068,"08/03/2024 20:41:08",1709908868068,-6,"08/03/2024 08:41:08",170281,5,"task-msu8",NA,35911975,10613311,NA,"complete",NA,"65eb7032eae2083a56a715b0","computer","Desktop or Laptop","Windows 10","Chrome 122.0.0.0","1536x864","1536x730",NA,NA,0,"Task Introduction and Instructions (re-introduce video and audio) (Clone)",10,"DECFBGAHJI","Passed AC2",NA,"Spreadsheet1",1,"Task Instructions","Screen 12","1a4vu2",5,"continue","",13270.1000000089,13263.4,13270.1000000089,13270.1000000089,13263.4,13270.1000000089,1,13270.1000000089,0,0,NA,"Click To Continue","Continue Button",2,"object-2466","Task Instructions",NA,"SUPPRF08502"
"7",1709930473794,"08/03/2024 20:41:13",1709908873794,-6,"08/03/2024 08:41:13",170281,5,"task-msu8",NA,35911975,10613311,NA,"complete",NA,"65eb7032eae2083a56a715b0","computer","Desktop or Laptop","Windows 10","Chrome 122.0.0.0","1536x864","1536x730",NA,NA,0,"Task Introduction and Instructions (re-introduce video and audio) (Clone)",10,"DECFBGAHJI","Passed AC2",NA,"Spreadsheet1",1,"Task Instructions","Screen 13","q9vwda",6,"continue","",5733.10000000001,5729.10000000001,5733.10000000001,5733.10000000001,5729.10000000001,5733.10000000001,1,5733.10000000001,0,0,NA,"Click To Continue","Continue Button",2,"object-2989","Task Instructions",NA,"SUPPRF08502"
"8",1709930477941,"08/03/2024 20:41:17",1709908877941,-6,"08/03/2024 08:41:17",170281,5,"task-msu8",NA,35911975,10613311,NA,"complete",NA,"65eb7032eae2083a56a715b0","computer","Desktop or Laptop","Windows 10","Chrome 122.0.0.0","1536x864","1536x730",NA,NA,0,"Task Introduction and Instructions (re-introduce video and audio) (Clone)",10,"DECFBGAHJI","Passed AC2",NA,"Spreadsheet1",1,"Task Instructions","Screen 11","oyulb7",7,"continue","",4151.10000000894,4145.7,4151.10000000894,4151.10000000894,4145.7,4151.10000000894,1,4151.10000000894,0,0,NA,"Click To Continue","Continue Button",2,"object-52","Task Instructions",NA,"SUPPRF08502"
"9",1709930483513,"08/03/2024 20:41:23",1709908883513,-6,"08/03/2024 08:41:23",170281,5,"task-msu8",NA,35911975,10613311,NA,"complete",NA,"65eb7032eae2083a56a715b0","computer","Desktop or Laptop","Windows 10","Chrome 122.0.0.0","1536x864","1536x730",NA,NA,0,"Task Introduction and Instructions (re-introduce video and audio) (Clone)",10,"DECFBGAHJI","Passed AC2",NA,"Spreadsheet1",1,"Task Instructions","Screen 5","8nvnao",8,"continue","",5577.70000000596,5576.2,5577.70000000596,5577.70000000596,5576.2,5577.70000000596,1,5577.70000000596,0,0,NA,"Click To Continue","Continue Button",2,"object-44","Task Instructions",NA,"SUPPRF08502"
"10",1709930483517,"08/03/2024 20:41:23",1709908883517,-6,"08/03/2024 08:41:23",170281,5,"task-msu8",NA,35911975,10613311,NA,"complete",NA,"65eb7032eae2083a56a715b0","computer","Desktop or Laptop","Windows 10","Chrome 122.0.0.0","1536x864","1536x730",NA,NA,0,"Task Introduction and Instructions (re-introduce video and audio) (Clone)",10,"DECFBGAHJI","Passed AC2",NA,"Spreadsheet1",NA,"","","",NA,"5","END",NA,NA,NA,NA,NA,NA,0,NA,NA,NA,NA,"","",NA,"","",NA,"SUPPRF08502"
"1",1709931894924,"08/03/2024 21:04:54",1709931894924,0,"08/03/2024 21:04:54",170281,5,"task-msu8",NA,35912316,10613439,NA,"complete",NA,"65eb7b191f1d42de5089adcb","computer","Desktop or Laptop","Mac OS 10.15.7","Chrome 122.0.0.0","1440x900","1440x705",NA,NA,0,"Task Introduction and Instructions (re-introduce video and audio) (Clone)",10,"EFDGCHBIAJ","Passed AC2",NA,"Spreadsheet1",NA,"","","",NA,"5","BEGIN",NA,NA,NA,NA,NA,NA,0,NA,NA,NA,NA,"","",NA,"","",NA,"SUPPRF11577"
"2",1709931899809,"08/03/2024 21:04:59",1709931899809,0,"08/03/2024 21:04:59",170281,5,"task-msu8",NA,35912316,10613439,NA,"complete",NA,"65eb7b191f1d42de5089adcb","computer","Desktop or Laptop","Mac OS 10.15.7","Chrome 122.0.0.0","1440x900","1440x705",NA,NA,0,"Task Introduction and Instructions (re-introduce video and audio) (Clone)",10,"EFDGCHBIAJ","Passed AC2",NA,"Spreadsheet1",1,"Task Instructions","Screen 1","anr7sn",1,"continue","",4783.1,4766.5,4783.1,4783.1,4766.5,4783.1,1,4783.1,0,0,NA,"Click To Continue","Continue Button",3,"object-60","Task Instructions",NA,"SUPPRF11577"
"3",1709931906638,"08/03/2024 21:05:06",1709931906638,0,"08/03/2024 21:05:06",170281,5,"task-msu8",NA,35912316,10613439,NA,"complete",NA,"65eb7b191f1d42de5089adcb","computer","Desktop or Laptop","Mac OS 10.15.7","Chrome 122.0.0.0","1440x900","1440x705",NA,NA,0,"Task Introduction and Instructions (re-introduce video and audio) (Clone)",10,"EFDGCHBIAJ","Passed AC2",NA,"Spreadsheet1",1,"Task Instructions","Screen 4","spepx9",2,"continue","",6851.69999996424,6849.1,6851.69999996424,6851.69999996424,6849.1,6851.69999996424,1,6851.69999996424,0,0,NA,"Click To Continue","Continue Button",2,"object-9","Task Instructions",NA,"SUPPRF11577"
"4",1709931916734,"08/03/2024 21:05:16",1709931916734,0,"08/03/2024 21:05:16",170281,5,"task-msu8",NA,35912316,10613439,NA,"complete",NA,"65eb7b191f1d42de5089adcb","computer","Desktop or Laptop","Mac OS 10.15.7","Chrome 122.0.0.0","1440x900","1440x705",NA,NA,0,"Task Introduction and Instructions (re-introduce video and audio) (Clone)",10,"EFDGCHBIAJ","Passed AC2",NA,"Spreadsheet1",1,"Task Instructions","Screen 2","ce2tc8",3,"continue","",10098.5,10084.1,10098.5,10098.5,10084.1,10098.5,1,10098.5,0,0,NA,"Click To Continue","Continue Button",3,"object-59","Task Instructions",NA,"SUPPRF11577"
"5",1709931927875,"08/03/2024 21:05:27",1709931927875,0,"08/03/2024 21:05:27",170281,5,"task-msu8",NA,35912316,10613439,NA,"complete",NA,"65eb7b191f1d42de5089adcb","computer","Desktop or Laptop","Mac OS 10.15.7","Chrome 122.0.0.0","1440x900","1440x705",NA,NA,0,"Task Introduction and Instructions (re-introduce video and audio) (Clone)",10,"EFDGCHBIAJ","Passed AC2",NA,"Spreadsheet1",1,"Task Instructions","Screen 3","1qtc8v",4,"continue","",11156.0999999881,11148.8,11156.0999999881,11156.0999999881,11148.8,11156.0999999881,1,11156.0999999881,0,0,NA,"Click To Continue","Continue Button",2,"object-2983","Task Instructions",NA,"SUPPRF11577"
"6",1709931938241,"08/03/2024 21:05:38",1709931938241,0,"08/03/2024 21:05:38",170281,5,"task-msu8",NA,35912316,10613439,NA,"complete",NA,"65eb7b191f1d42de5089adcb","computer","Desktop or Laptop","Mac OS 10.15.7","Chrome 122.0.0.0","1440x900","1440x705",NA,NA,0,"Task Introduction and Instructions (re-introduce video and audio) (Clone)",10,"EFDGCHBIAJ","Passed AC2",NA,"Spreadsheet1",1,"Task Instructions","Screen 12","1a4vu2",5,"continue","",10373.1999999642,10366.5,10373.1999999642,10373.1999999642,10366.5,10373.1999999642,1,10373.1999999642,0,0,NA,"Click To Continue","Continue Button",2,"object-2466","Task Instructions",NA,"SUPPRF11577"
"7",1709931943774,"08/03/2024 21:05:43",1709931943774,0,"08/03/2024 21:05:43",170281,5,"task-msu8",NA,35912316,10613439,NA,"complete",NA,"65eb7b191f1d42de5089adcb","computer","Desktop or Laptop","Mac OS 10.15.7","Chrome 122.0.0.0","1440x900","1440x705",NA,NA,0,"Task Introduction and Instructions (re-introduce video and audio) (Clone)",10,"EFDGCHBIAJ","Passed AC2",NA,"Spreadsheet1",1,"Task Instructions","Screen 13","q9vwda",6,"continue","",5539.99999997616,5534.3,5539.99999997616,5539.99999997616,5534.3,5539.99999997616,1,5539.99999997616,0,0,NA,"Click To Continue","Continue Button",2,"object-2989","Task Instructions",NA,"SUPPRF11577"
"8",1709931947134,"08/03/2024 21:05:47",1709931947134,0,"08/03/2024 21:05:47",170281,5,"task-msu8",NA,35912316,10613439,NA,"complete",NA,"65eb7b191f1d42de5089adcb","computer","Desktop or Laptop","Mac OS 10.15.7","Chrome 122.0.0.0","1440x900","1440x705",NA,NA,0,"Task Introduction and Instructions (re-introduce video and audio) (Clone)",10,"EFDGCHBIAJ","Passed AC2",NA,"Spreadsheet1",1,"Task Instructions","Screen 11","oyulb7",7,"continue","",3364.7,3348.9,3364.7,3364.7,3348.9,3364.7,1,3364.7,0,0,NA,"Click To Continue","Continue Button",2,"object-52","Task Instructions",NA,"SUPPRF11577"
"9",1709931950656,"08/03/2024 21:05:50",1709931950656,0,"08/03/2024 21:05:50",170281,5,"task-msu8",NA,35912316,10613439,NA,"complete",NA,"65eb7b191f1d42de5089adcb","computer","Desktop or Laptop","Mac OS 10.15.7","Chrome 122.0.0.0","1440x900","1440x705",NA,NA,0,"Task Introduction and Instructions (re-introduce video and audio) (Clone)",10,"EFDGCHBIAJ","Passed AC2",NA,"Spreadsheet1",1,"Task Instructions","Screen 5","8nvnao",8,"continue","",3539.4,3534.3,3539.4,3539.4,3534.3,3539.4,1,3539.4,0,0,NA,"Click To Continue","Continue Button",2,"object-44","Task Instructions",NA,"SUPPRF11577"
"10",1709931950661,"08/03/2024 21:05:50",1709931950661,0,"08/03/2024 21:05:50",170281,5,"task-msu8",NA,35912316,10613439,NA,"complete",NA,"65eb7b191f1d42de5089adcb","computer","Desktop or Laptop","Mac OS 10.15.7","Chrome 122.0.0.0","1440x900","1440x705",NA,NA,0,"Task Introduction and Instructions (re-introduce video and audio) (Clone)",10,"EFDGCHBIAJ","Passed AC2",NA,"Spreadsheet1",NA,"","","",NA,"5","END",NA,NA,NA,NA,NA,NA,0,NA,NA,NA,NA,"","",NA,"","",NA,"SUPPRF11577"
"1",1709934391395,"08/03/2024 21:46:31",1709916391395,-5,"08/03/2024 11:46:31",170281,5,"task-msu8",NA,35913179,10613610,NA,"complete",NA,"65eb83778095cd5a4371345e","computer","Desktop or Laptop","Mac OS 10.15.7","Chrome 122.0.0.0","1440x900","1440x779",NA,NA,0,"Task Introduction and Instructions (re-introduce video and audio) (Clone)",10,"FGEHDICJBA","Passed AC2",NA,"Spreadsheet1",NA,"","","",NA,"5","BEGIN",NA,NA,NA,NA,NA,NA,0,NA,NA,NA,NA,"","",NA,"","",NA,"SUPPRF42280"
"2",1709934396875,"08/03/2024 21:46:36",1709916396875,-5,"08/03/2024 11:46:36",170281,5,"task-msu8",NA,35913179,10613610,NA,"complete",NA,"65eb83778095cd5a4371345e","computer","Desktop or Laptop","Mac OS 10.15.7","Chrome 122.0.0.0","1440x900","1440x779",NA,NA,0,"Task Introduction and Instructions (re-introduce video and audio) (Clone)",10,"FGEHDICJBA","Passed AC2",NA,"Spreadsheet1",1,"Task Instructions","Screen 1","anr7sn",1,"continue","",5262.2,5246.2,5262.2,5262.2,5246.2,5262.2,1,5262.2,0,0,NA,"Click To Continue","Continue Button",3,"object-60","Task Instructions",NA,"SUPPRF42280"
"3",1709934399900,"08/03/2024 21:46:39",1709916399900,-5,"08/03/2024 11:46:39",170281,5,"task-msu8",NA,35913179,10613610,NA,"complete",NA,"65eb83778095cd5a4371345e","computer","Desktop or Laptop","Mac OS 10.15.7","Chrome 122.0.0.0","1440x900","1440x779",NA,NA,0,"Task Introduction and Instructions (re-introduce video and audio) (Clone)",10,"FGEHDICJBA","Passed AC2",NA,"Spreadsheet1",1,"Task Instructions","Screen 4","spepx9",2,"continue","",3043.6,3031.5,3043.6,3043.6,3031.5,3043.6,1,3043.6,0,0,NA,"Click To Continue","Continue Button",2,"object-9","Task Instructions",NA,"SUPPRF42280"
"4",1709934411293,"08/03/2024 21:46:51",1709916411293,-5,"08/03/2024 11:46:51",170281,5,"task-msu8",NA,35913179,10613610,NA,"complete",NA,"65eb83778095cd5a4371345e","computer","Desktop or Laptop","Mac OS 10.15.7","Chrome 122.0.0.0","1440x900","1440x779",NA,NA,0,"Task Introduction and Instructions (re-introduce video and audio) (Clone)",10,"FGEHDICJBA","Passed AC2",NA,"Spreadsheet1",1,"Task Instructions","Screen 2","ce2tc8",3,"continue","",11405.500000006,11392.4,11405.500000006,11405.500000006,11392.4,11405.500000006,1,11405.500000006,0,0,NA,"Click To Continue","Continue Button",3,"object-59","Task Instructions",NA,"SUPPRF42280"
"5",1709934422990,"08/03/2024 21:47:02",1709916422990,-5,"08/03/2024 11:47:02",170281,5,"task-msu8",NA,35913179,10613610,NA,"complete",NA,"65eb83778095cd5a4371345e","computer","Desktop or Laptop","Mac OS 10.15.7","Chrome 122.0.0.0","1440x900","1440x779",NA,NA,0,"Task Introduction and Instructions (re-introduce video and audio) (Clone)",10,"FGEHDICJBA","Passed AC2",NA,"Spreadsheet1",1,"Task Instructions","Screen 3","1qtc8v",4,"continue","",11710.8999999881,11708.9,11710.8999999881,11710.8999999881,11708.9,11710.8999999881,1,11710.8999999881,0,0,NA,"Click To Continue","Continue Button",2,"object-2983","Task Instructions",NA,"SUPPRF42280"
"6",1709934432592,"08/03/2024 21:47:12",1709916432592,-5,"08/03/2024 11:47:12",170281,5,"task-msu8",NA,35913179,10613610,NA,"complete",NA,"65eb83778095cd5a4371345e","computer","Desktop or Laptop","Mac OS 10.15.7","Chrome 122.0.0.0","1440x900","1440x779",NA,NA,0,"Task Introduction and Instructions (re-introduce video and audio) (Clone)",10,"FGEHDICJBA","Passed AC2",NA,"Spreadsheet1",1,"Task Instructions","Screen 12","1a4vu2",5,"continue","",9603.49999998808,9594.5,9603.49999998808,9603.49999998808,9594.5,9603.49999998808,1,9603.49999998808,0,0,NA,"Click To Continue","Continue Button",2,"object-2466","Task Instructions",NA,"SUPPRF42280"
"7",1709934440196,"08/03/2024 21:47:20",1709916440196,-5,"08/03/2024 11:47:20",170281,5,"task-msu8",NA,35913179,10613610,NA,"complete",NA,"65eb83778095cd5a4371345e","computer","Desktop or Laptop","Mac OS 10.15.7","Chrome 122.0.0.0","1440x900","1440x779",NA,NA,0,"Task Introduction and Instructions (re-introduce video and audio) (Clone)",10,"FGEHDICJBA","Passed AC2",NA,"Spreadsheet1",1,"Task Instructions","Screen 13","q9vwda",6,"continue","",7614.09999998212,7611.10000000001,7614.09999998212,7614.09999998212,7611.10000000001,7614.09999998212,1,7614.09999998212,0,0,NA,"Click To Continue","Continue Button",2,"object-2989","Task Instructions",NA,"SUPPRF42280"
"8",1709934444754,"08/03/2024 21:47:24",1709916444754,-5,"08/03/2024 11:47:24",170281,5,"task-msu8",NA,35913179,10613610,NA,"complete",NA,"65eb83778095cd5a4371345e","computer","Desktop or Laptop","Mac OS 10.15.7","Chrome 122.0.0.0","1440x900","1440x779",NA,NA,0,"Task Introduction and Instructions (re-introduce video and audio) (Clone)",10,"FGEHDICJBA","Passed AC2",NA,"Spreadsheet1",1,"Task Instructions","Screen 11","oyulb7",7,"continue","",4560.39999998808,4547.6,4560.39999998808,4560.39999998808,4547.6,4560.39999998808,1,4560.39999998808,0,0,NA,"Click To Continue","Continue Button",2,"object-52","Task Instructions",NA,"SUPPRF42280"
"9",1709934447619,"08/03/2024 21:47:27",1709916447619,-5,"08/03/2024 11:47:27",170281,5,"task-msu8",NA,35913179,10613610,NA,"complete",NA,"65eb83778095cd5a4371345e","computer","Desktop or Laptop","Mac OS 10.15.7","Chrome 122.0.0.0","1440x900","1440x779",NA,NA,0,"Task Introduction and Instructions (re-introduce video and audio) (Clone)",10,"FGEHDICJBA","Passed AC2",NA,"Spreadsheet1",1,"Task Instructions","Screen 5","8nvnao",8,"continue","",2877.79999998808,2864.7,2877.79999998808,2877.79999998808,2864.7,2877.79999998808,1,2877.79999998808,0,0,NA,"Click To Continue","Continue Button",2,"object-44","Task Instructions",NA,"SUPPRF42280"
"10",1709934447621,"08/03/2024 21:47:27",1709916447621,-5,"08/03/2024 11:47:27",170281,5,"task-msu8",NA,35913179,10613610,NA,"complete",NA,"65eb83778095cd5a4371345e","computer","Desktop or Laptop","Mac OS 10.15.7","Chrome 122.0.0.0","1440x900","1440x779",NA,NA,0,"Task Introduction and Instructions (re-introduce video and audio) (Clone)",10,"FGEHDICJBA","Passed AC2",NA,"Spreadsheet1",NA,"","","",NA,"5","END",NA,NA,NA,NA,NA,NA,0,NA,NA,NA,NA,"","",NA,"","",NA,"SUPPRF42280"
"1",1709934535475,"08/03/2024 21:48:55",1709916535475,-5,"08/03/2024 11:48:55",170281,5,"task-msu8",NA,35913199,10613630,NA,"complete",NA,"65eb84d880fac1f9215fc2ce","computer","Desktop or Laptop","Mac OS 10.15.7","Chrome 122.0.0.0","1440x900","1440x813",NA,NA,0,"Task Introduction and Instructions (re-introduce video and audio) (Clone)",10,"GHFIEJDACB","Passed AC2",NA,"Spreadsheet1",NA,"","","",NA,"5","BEGIN",NA,NA,NA,NA,NA,NA,0,NA,NA,NA,NA,"","",NA,"","",NA,"SUPPRF58316"
"2",1709934538986,"08/03/2024 21:48:58",1709916538986,-5,"08/03/2024 11:48:58",170281,5,"task-msu8",NA,35913199,10613630,NA,"complete",NA,"65eb84d880fac1f9215fc2ce","computer","Desktop or Laptop","Mac OS 10.15.7","Chrome 122.0.0.0","1440x900","1440x813",NA,NA,0,"Task Introduction and Instructions (re-introduce video and audio) (Clone)",10,"GHFIEJDACB","Passed AC2",NA,"Spreadsheet1",1,"Task Instructions","Screen 1","anr7sn",1,"continue","",3333.3,3317.1,3333.3,3333.3,3317.1,3333.3,1,3333.3,0,0,NA,"Click To Continue","Continue Button",3,"object-60","Task Instructions",NA,"SUPPRF58316"
"3",1709934541805,"08/03/2024 21:49:01",1709916541805,-5,"08/03/2024 11:49:01",170281,5,"task-msu8",NA,35913199,10613630,NA,"complete",NA,"65eb84d880fac1f9215fc2ce","computer","Desktop or Laptop","Mac OS 10.15.7","Chrome 122.0.0.0","1440x900","1440x813",NA,NA,0,"Task Introduction and Instructions (re-introduce video and audio) (Clone)",10,"GHFIEJDACB","Passed AC2",NA,"Spreadsheet1",1,"Task Instructions","Screen 4","spepx9",2,"continue","",2837.10000000298,2833,2837.10000000298,2837.10000000298,2833,2837.10000000298,1,2837.10000000298,0,0,NA,"Click To Continue","Continue Button",2,"object-9","Task Instructions",NA,"SUPPRF58316"
"4",1709934548642,"08/03/2024 21:49:08",1709916548642,-5,"08/03/2024 11:49:08",170281,5,"task-msu8",NA,35913199,10613630,NA,"complete",NA,"65eb84d880fac1f9215fc2ce","computer","Desktop or Laptop","Mac OS 10.15.7","Chrome 122.0.0.0","1440x900","1440x813",NA,NA,0,"Task Introduction and Instructions (re-introduce video and audio) (Clone)",10,"GHFIEJDACB","Passed AC2",NA,"Spreadsheet1",1,"Task Instructions","Screen 2","ce2tc8",3,"continue","",6840.4,6834.1,6840.4,6840.4,6834.1,6840.4,1,6840.4,0,0,NA,"Click To Continue","Continue Button",3,"object-59","Task Instructions",NA,"SUPPRF58316"
"5",1709934556977,"08/03/2024 21:49:16",1709916556977,-5,"08/03/2024 11:49:16",170281,5,"task-msu8",NA,35913199,10613630,NA,"complete",NA,"65eb84d880fac1f9215fc2ce","computer","Desktop or Laptop","Mac OS 10.15.7","Chrome 122.0.0.0","1440x900","1440x813",NA,NA,0,"Task Introduction and Instructions (re-introduce video and audio) (Clone)",10,"GHFIEJDACB","Passed AC2",NA,"Spreadsheet1",1,"Task Instructions","Screen 3","1qtc8v",4,"continue","",8341.3,8333.2,8341.3,8341.3,8333.2,8341.3,1,8341.3,0,0,NA,"Click To Continue","Continue Button",2,"object-2983","Task Instructions",NA,"SUPPRF58316"
