"Event.Index","UTC.Timestamp","UTC.Date.and.Time","Local.Timestamp","Local.Timezone","Local.Date.and.Time","Experiment.ID","Experiment.Version","Tree.Node.Key","Repeat.Key","Schedule.ID","Participant.Private.ID","Participant.Starting.Group","Participant.Status","Participant.Completion.Code","Participant.External.Session.ID","Participant.Device.Type","Participant.Device","Participant.OS","Participant.Browser","Participant.Monitor.Size","Participant.Viewport.Size","Checkpoint","Room.ID","Room.Order","Task.Name","Task.Version","order.ot79","branch.g31k","branch.5gtn","Spreadsheet","Trial.Number","Display","Screen","Screen.ID","Screen.Counter","Response.Type","Response","Onset.Time","Clock.Time","Reaction.Time","Absolute.Onset.Time","Absolute.Clock.Time","Absolute.Reaction.Time","Correct","Response.Onset","Response.Duration","Proportion","Tag","Component.Name","Object.Name","Object.Number","Object.ID","Spreadsheet..display","Manipulation..Spreadsheet","Random_ID"
"1",1709921339371,"08/03/2024 18:08:59",1709921339371,0,"08/03/2024 18:08:59",170281,5,"task-gjqt",NA,35908905,10612565,NA,"complete",NA,"65eb4fa1ce545fd232f32bc7","computer","Desktop or Laptop","Windows 10","Chrome 122.0.0.0","1920x1080","1920x945",NA,NA,0,"BIQ (Charlotte)",3,"ABJCIDHEGF","Passed AC2",NA,"Spreadsheet1",NA,"","","",NA,"5","BEGIN",NA,NA,NA,NA,NA,NA,0,NA,NA,NA,NA,"","",NA,"","",NA,"SUPPRF56573"
"2",1709921400448,"08/03/2024 18:10:00",1709921400448,0,"08/03/2024 18:10:00",170281,5,"task-gjqt",NA,35908905,10612565,NA,"complete",NA,"65eb4fa1ce545fd232f32bc7","computer","Desktop or Laptop","Windows 10","Chrome 122.0.0.0","1920x1080","1920x945",NA,NA,0,"BIQ (Charlotte)",3,"ABJCIDHEGF","Passed AC2",NA,"Spreadsheet1",1,"BIQ","Screen 1","9dh6eq",1,"continue","",61077.6000000238,61065.3,61077.6000000238,61077.6000000238,61065.3,61077.6000000238,1,61077.6000000238,0,0,NA,"Click To Continue","Continue Button",23,"object-48","BIQ",NA,"SUPPRF56573"
"3",1709921400449,"08/03/2024 18:10:00",1709921400449,0,"08/03/2024 18:10:00",170281,5,"task-gjqt",NA,35908905,10612565,NA,"complete",NA,"65eb4fa1ce545fd232f32bc7","computer","Desktop or Laptop","Windows 10","Chrome 122.0.0.0","1920x1080","1920x945",NA,NA,0,"BIQ (Charlotte)",3,"ABJCIDHEGF","Passed AC2",NA,"Spreadsheet1",1,"BIQ","Screen 1","9dh6eq",1,"response","7",32649.2,61065.3,61079,32649.2,61065.3,61079,1,32649.2,28429.8,0,NA,"Rating Scale","Rating Scale",3,"object-5","BIQ",NA,"SUPPRF56573"
"4",1709921400449,"08/03/2024 18:10:00",1709921400449,0,"08/03/2024 18:10:00",170281,5,"task-gjqt",NA,35908905,10612565,NA,"complete",NA,"65eb4fa1ce545fd232f32bc7","computer","Desktop or Laptop","Windows 10","Chrome 122.0.0.0","1920x1080","1920x945",NA,NA,0,"BIQ (Charlotte)",3,"ABJCIDHEGF","Passed AC2",NA,"Spreadsheet1",1,"BIQ","Screen 1","9dh6eq",1,"response","2",49282.3,61065.3,61079.2000000179,49282.3,61065.3,61079.2000000179,1,49282.3,11796.9000000179,0,NA,"Rating Scale","Rating Scale",10,"object-18","BIQ",NA,"SUPPRF56573"
"5",1709921400449,"08/03/2024 18:10:00",1709921400449,0,"08/03/2024 18:10:00",170281,5,"task-gjqt",NA,35908905,10612565,NA,"complete",NA,"65eb4fa1ce545fd232f32bc7","computer","Desktop or Laptop","Windows 10","Chrome 122.0.0.0","1920x1080","1920x945",NA,NA,0,"BIQ (Charlotte)",3,"ABJCIDHEGF","Passed AC2",NA,"Spreadsheet1",1,"BIQ","Screen 1","9dh6eq",1,"response","7",54498.8,61065.3,61079.3000000119,54498.8,61065.3,61079.3000000119,1,54498.8,6580.50000001192,0,NA,"Rating Scale","Rating Scale",17,"object-80","BIQ",NA,"SUPPRF56573"
"6",1709921432202,"08/03/2024 18:10:32",1709921432202,0,"08/03/2024 18:10:32",170281,5,"task-gjqt",NA,35908905,10612565,NA,"complete",NA,"65eb4fa1ce545fd232f32bc7","computer","Desktop or Laptop","Windows 10","Chrome 122.0.0.0","1920x1080","1920x945",NA,NA,0,"BIQ (Charlotte)",3,"ABJCIDHEGF","Passed AC2",NA,"Spreadsheet1",1,"BIQ","Screen 2","o21mwi",2,"continue","",31766.7,31765.9,31766.7,31766.7,31765.9,31766.7,1,31766.7,0,0,NA,"Click To Continue","Continue Button",22,"object-50","BIQ",NA,"SUPPRF56573"
"7",1709921432204,"08/03/2024 18:10:32",1709921432204,0,"08/03/2024 18:10:32",170281,5,"task-gjqt",NA,35908905,10612565,NA,"complete",NA,"65eb4fa1ce545fd232f32bc7","computer","Desktop or Laptop","Windows 10","Chrome 122.0.0.0","1920x1080","1920x945",NA,NA,0,"BIQ (Charlotte)",3,"ABJCIDHEGF","Passed AC2",NA,"Spreadsheet1",1,"BIQ","Screen 2","o21mwi",2,"response","2",5366.39999999999,31765.9,31768.5000000119,5366.39999999999,31765.9,31768.5000000119,1,5366.39999999999,26402.1000000119,0,NA,"Rating Scale","Rating Scale",2,"object-259","BIQ",NA,"SUPPRF56573"
"8",1709921432204,"08/03/2024 18:10:32",1709921432204,0,"08/03/2024 18:10:32",170281,5,"task-gjqt",NA,35908905,10612565,NA,"complete",NA,"65eb4fa1ce545fd232f32bc7","computer","Desktop or Laptop","Windows 10","Chrome 122.0.0.0","1920x1080","1920x945",NA,NA,0,"BIQ (Charlotte)",3,"ABJCIDHEGF","Passed AC2",NA,"Spreadsheet1",1,"BIQ","Screen 2","o21mwi",2,"response","4",17466.1,31765.9,31768.8000000238,17466.1,31765.9,31768.8000000238,1,17466.1,14302.7000000238,0,NA,"Rating Scale","Rating Scale",9,"object-36","BIQ",NA,"SUPPRF56573"
"9",1709921432204,"08/03/2024 18:10:32",1709921432204,0,"08/03/2024 18:10:32",170281,5,"task-gjqt",NA,35908905,10612565,NA,"complete",NA,"65eb4fa1ce545fd232f32bc7","computer","Desktop or Laptop","Windows 10","Chrome 122.0.0.0","1920x1080","1920x945",NA,NA,0,"BIQ (Charlotte)",3,"ABJCIDHEGF","Passed AC2",NA,"Spreadsheet1",1,"BIQ","Screen 2","o21mwi",2,"response","8",30199.3,31765.9,31769.0000000119,30199.3,31765.9,31769.0000000119,1,30199.3,1569.70000001192,0,NA,"Rating Scale","Rating Scale",16,"object-86","BIQ",NA,"SUPPRF56573"
"10",1709921458370,"08/03/2024 18:10:58",1709921458370,0,"08/03/2024 18:10:58",170281,5,"task-gjqt",NA,35908905,10612565,NA,"complete",NA,"65eb4fa1ce545fd232f32bc7","computer","Desktop or Laptop","Windows 10","Chrome 122.0.0.0","1920x1080","1920x945",NA,NA,0,"BIQ (Charlotte)",3,"ABJCIDHEGF","Passed AC2",NA,"Spreadsheet1",1,"BIQ","Screen 3","iz3the",3,"continue","",26168.8,26166,26168.8,26168.8,26166,26168.8,1,26168.8,0,0,NA,"Click To Continue","Continue Button",22,"object-73","BIQ",NA,"SUPPRF56573"
"11",1709921458372,"08/03/2024 18:10:58",1709921458372,0,"08/03/2024 18:10:58",170281,5,"task-gjqt",NA,35908905,10612565,NA,"complete",NA,"65eb4fa1ce545fd232f32bc7","computer","Desktop or Laptop","Windows 10","Chrome 122.0.0.0","1920x1080","1920x945",NA,NA,0,"BIQ (Charlotte)",3,"ABJCIDHEGF","Passed AC2",NA,"Spreadsheet1",1,"BIQ","Screen 3","iz3the",3,"response","6",8216.40000000001,26166,26170.5000000179,8216.40000000001,26166,26170.5000000179,1,8216.40000000001,17954.1000000179,0,NA,"Rating Scale","Rating Scale",2,"object-53","BIQ",NA,"SUPPRF56573"
"12",1709921458372,"08/03/2024 18:10:58",1709921458372,0,"08/03/2024 18:10:58",170281,5,"task-gjqt",NA,35908905,10612565,NA,"complete",NA,"65eb4fa1ce545fd232f32bc7","computer","Desktop or Laptop","Windows 10","Chrome 122.0.0.0","1920x1080","1920x945",NA,NA,0,"BIQ (Charlotte)",3,"ABJCIDHEGF","Passed AC2",NA,"Spreadsheet1",1,"BIQ","Screen 3","iz3the",3,"response","5",17182.8,26166,26170.700000006,17182.8,26166,26170.700000006,1,17182.8,8987.90000000596,0,NA,"Rating Scale","Rating Scale",9,"object-60","BIQ",NA,"SUPPRF56573"
"13",1709921458372,"08/03/2024 18:10:58",1709921458372,0,"08/03/2024 18:10:58",170281,5,"task-gjqt",NA,35908905,10612565,NA,"complete",NA,"65eb4fa1ce545fd232f32bc7","computer","Desktop or Laptop","Windows 10","Chrome 122.0.0.0","1920x1080","1920x945",NA,NA,0,"BIQ (Charlotte)",3,"ABJCIDHEGF","Passed AC2",NA,"Spreadsheet1",1,"BIQ","Screen 3","iz3the",3,"response","2",25066.1,26166,26170.9000000238,25066.1,26166,26170.9000000238,1,25066.1,1104.80000002384,0,NA,"Rating Scale","Rating Scale",16,"object-67","BIQ",NA,"SUPPRF56573"
"14",1709921458374,"08/03/2024 18:10:58",1709921458374,0,"08/03/2024 18:10:58",170281,5,"task-gjqt",NA,35908905,10612565,NA,"complete",NA,"65eb4fa1ce545fd232f32bc7","computer","Desktop or Laptop","Windows 10","Chrome 122.0.0.0","1920x1080","1920x945",NA,NA,0,"BIQ (Charlotte)",3,"ABJCIDHEGF","Passed AC2",NA,"Spreadsheet1",NA,"","","",NA,"5","END",NA,NA,NA,NA,NA,NA,0,NA,NA,NA,NA,"","",NA,"","",NA,"SUPPRF56573"
"1",1709922034501,"08/03/2024 18:20:34",1709922034501,0,"08/03/2024 18:20:34",170281,5,"task-gjqt",NA,35909130,10612676,NA,"complete",NA,"65eb54d246acd454e8d845b7","computer","Desktop or Laptop","Windows 10","Chrome 122.0.0.0","1536x864","1536x730",NA,NA,0,"BIQ (Charlotte)",3,"BCADJEIFHG","Passed AC2",NA,"Spreadsheet1",NA,"","","",NA,"5","BEGIN",NA,NA,NA,NA,NA,NA,0,NA,NA,NA,NA,"","",NA,"","",NA,"SUPPRF16178"
"2",1709922053282,"08/03/2024 18:20:53",1709922053282,0,"08/03/2024 18:20:53",170281,5,"task-gjqt",NA,35909130,10612676,NA,"complete",NA,"65eb54d246acd454e8d845b7","computer","Desktop or Laptop","Windows 10","Chrome 122.0.0.0","1536x864","1536x730",NA,NA,0,"BIQ (Charlotte)",3,"BCADJEIFHG","Passed AC2",NA,"Spreadsheet1",1,"BIQ","Screen 1","9dh6eq",1,"continue","",20150.8000001907,20144.4,20150.8000001907,20150.8000001907,20144.4,20150.8000001907,1,20150.8000001907,0,0,NA,"Click To Continue","Continue Button",23,"object-48","BIQ",NA,"SUPPRF16178"
"3",1709922053285,"08/03/2024 18:20:53",1709922053285,0,"08/03/2024 18:20:53",170281,5,"task-gjqt",NA,35909130,10612676,NA,"complete",NA,"65eb54d246acd454e8d845b7","computer","Desktop or Laptop","Windows 10","Chrome 122.0.0.0","1536x864","1536x730",NA,NA,0,"BIQ (Charlotte)",3,"BCADJEIFHG","Passed AC2",NA,"Spreadsheet1",1,"BIQ","Screen 1","9dh6eq",1,"response","0",9778.4,20144.4,20154.5,9778.4,20144.4,20154.5,1,9778.4,10376.1,0,NA,"Rating Scale","Rating Scale",3,"object-5","BIQ",NA,"SUPPRF16178"
"4",1709922053285,"08/03/2024 18:20:53",1709922053285,0,"08/03/2024 18:20:53",170281,5,"task-gjqt",NA,35909130,10612676,NA,"complete",NA,"65eb54d246acd454e8d845b7","computer","Desktop or Laptop","Windows 10","Chrome 122.0.0.0","1536x864","1536x730",NA,NA,0,"BIQ (Charlotte)",3,"BCADJEIFHG","Passed AC2",NA,"Spreadsheet1",1,"BIQ","Screen 1","9dh6eq",1,"response","0",13278.3,20144.4,20155,13278.3,20144.4,20155,1,13278.3,6876.7,0,NA,"Rating Scale","Rating Scale",10,"object-18","BIQ",NA,"SUPPRF16178"
"5",1709922053285,"08/03/2024 18:20:53",1709922053285,0,"08/03/2024 18:20:53",170281,5,"task-gjqt",NA,35909130,10612676,NA,"complete",NA,"65eb54d246acd454e8d845b7","computer","Desktop or Laptop","Windows 10","Chrome 122.0.0.0","1536x864","1536x730",NA,NA,0,"BIQ (Charlotte)",3,"BCADJEIFHG","Passed AC2",NA,"Spreadsheet1",1,"BIQ","Screen 1","9dh6eq",1,"response","8",18311.7,20144.4,20155.4000000954,18311.7,20144.4,20155.4000000954,1,18311.7,1843.70000009537,0,NA,"Rating Scale","Rating Scale",17,"object-80","BIQ",NA,"SUPPRF16178"
"6",1709922094817,"08/03/2024 18:21:34",1709922094817,0,"08/03/2024 18:21:34",170281,5,"task-gjqt",NA,35909130,10612676,NA,"complete",NA,"65eb54d246acd454e8d845b7","computer","Desktop or Laptop","Windows 10","Chrome 122.0.0.0","1536x864","1536x730",NA,NA,0,"BIQ (Charlotte)",3,"BCADJEIFHG","Passed AC2",NA,"Spreadsheet1",1,"BIQ","Screen 2","o21mwi",2,"continue","",41542.7999998093,41532.5,41542.7999998093,41542.7999998093,41532.5,41542.7999998093,1,41542.7999998093,0,0,NA,"Click To Continue","Continue Button",22,"object-50","BIQ",NA,"SUPPRF16178"
"7",1709922094821,"08/03/2024 18:21:34",1709922094821,0,"08/03/2024 18:21:34",170281,5,"task-gjqt",NA,35909130,10612676,NA,"complete",NA,"65eb54d246acd454e8d845b7","computer","Desktop or Laptop","Windows 10","Chrome 122.0.0.0","1536x864","1536x730",NA,NA,0,"BIQ (Charlotte)",3,"BCADJEIFHG","Passed AC2",NA,"Spreadsheet1",1,"BIQ","Screen 2","o21mwi",2,"response","4",28482.8,41532.5,41546.5000000954,28482.8,41532.5,41546.5000000954,1,28482.8,13063.7000000954,0,NA,"Rating Scale","Rating Scale",2,"object-259","BIQ",NA,"SUPPRF16178"
"8",1709922094822,"08/03/2024 18:21:34",1709922094822,0,"08/03/2024 18:21:34",170281,5,"task-gjqt",NA,35909130,10612676,NA,"complete",NA,"65eb54d246acd454e8d845b7","computer","Desktop or Laptop","Windows 10","Chrome 122.0.0.0","1536x864","1536x730",NA,NA,0,"BIQ (Charlotte)",3,"BCADJEIFHG","Passed AC2",NA,"Spreadsheet1",1,"BIQ","Screen 2","o21mwi",2,"response","6",31282.9,41532.5,41547.1,31282.9,41532.5,41547.1,1,31282.9,10264.2,0,NA,"Rating Scale","Rating Scale",9,"object-36","BIQ",NA,"SUPPRF16178"
"9",1709922094822,"08/03/2024 18:21:34",1709922094822,0,"08/03/2024 18:21:34",170281,5,"task-gjqt",NA,35909130,10612676,NA,"complete",NA,"65eb54d246acd454e8d845b7","computer","Desktop or Laptop","Windows 10","Chrome 122.0.0.0","1536x864","1536x730",NA,NA,0,"BIQ (Charlotte)",3,"BCADJEIFHG","Passed AC2",NA,"Spreadsheet1",1,"BIQ","Screen 2","o21mwi",2,"response","8",40282.8,41532.5,41547.4000001907,40282.8,41532.5,41547.4000001907,1,40282.8,1264.60000019074,0,NA,"Rating Scale","Rating Scale",16,"object-86","BIQ",NA,"SUPPRF16178"
"10",1709922102749,"08/03/2024 18:21:42",1709922102749,0,"08/03/2024 18:21:42",170281,5,"task-gjqt",NA,35909130,10612676,NA,"complete",NA,"65eb54d246acd454e8d845b7","computer","Desktop or Laptop","Windows 10","Chrome 122.0.0.0","1536x864","1536x730",NA,NA,0,"BIQ (Charlotte)",3,"BCADJEIFHG","Passed AC2",NA,"Spreadsheet1",1,"BIQ","Screen 3","iz3the",3,"continue","",7942.1,7933.4,7942.1,7942.1,7933.4,7942.1,1,7942.1,0,0,NA,"Click To Continue","Continue Button",22,"object-73","BIQ",NA,"SUPPRF16178"
"11",1709922102750,"08/03/2024 18:21:42",1709922102750,0,"08/03/2024 18:21:42",170281,5,"task-gjqt",NA,35909130,10612676,NA,"complete",NA,"65eb54d246acd454e8d845b7","computer","Desktop or Laptop","Windows 10","Chrome 122.0.0.0","1536x864","1536x730",NA,NA,0,"BIQ (Charlotte)",3,"BCADJEIFHG","Passed AC2",NA,"Spreadsheet1",1,"BIQ","Screen 3","iz3the",3,"response","6",3250,7933.4,7942.79999980926,3250,7933.4,7942.79999980926,1,3250,4692.79999980926,0,NA,"Rating Scale","Rating Scale",2,"object-53","BIQ",NA,"SUPPRF16178"
"12",1709922102750,"08/03/2024 18:21:42",1709922102750,0,"08/03/2024 18:21:42",170281,5,"task-gjqt",NA,35909130,10612676,NA,"complete",NA,"65eb54d246acd454e8d845b7","computer","Desktop or Laptop","Windows 10","Chrome 122.0.0.0","1536x864","1536x730",NA,NA,0,"BIQ (Charlotte)",3,"BCADJEIFHG","Passed AC2",NA,"Spreadsheet1",1,"BIQ","Screen 3","iz3the",3,"response","6",5683.4,7933.4,7943.40000019073,5683.4,7933.4,7943.40000019073,1,5683.4,2260.00000019073,0,NA,"Rating Scale","Rating Scale",9,"object-60","BIQ",NA,"SUPPRF16178"
"13",1709922102751,"08/03/2024 18:21:42",1709922102751,0,"08/03/2024 18:21:42",170281,5,"task-gjqt",NA,35909130,10612676,NA,"complete",NA,"65eb54d246acd454e8d845b7","computer","Desktop or Laptop","Windows 10","Chrome 122.0.0.0","1536x864","1536x730",NA,NA,0,"BIQ (Charlotte)",3,"BCADJEIFHG","Passed AC2",NA,"Spreadsheet1",1,"BIQ","Screen 3","iz3the",3,"response","6",6916.8,7933.4,7943.79999980926,6916.8,7933.4,7943.79999980926,1,6916.8,1026.99999980927,0,NA,"Rating Scale","Rating Scale",16,"object-67","BIQ",NA,"SUPPRF16178"
"14",1709922102752,"08/03/2024 18:21:42",1709922102752,0,"08/03/2024 18:21:42",170281,5,"task-gjqt",NA,35909130,10612676,NA,"complete",NA,"65eb54d246acd454e8d845b7","computer","Desktop or Laptop","Windows 10","Chrome 122.0.0.0","1536x864","1536x730",NA,NA,0,"BIQ (Charlotte)",3,"BCADJEIFHG","Passed AC2",NA,"Spreadsheet1",NA,"","","",NA,"5","END",NA,NA,NA,NA,NA,NA,0,NA,NA,NA,NA,"","",NA,"","",NA,"SUPPRF16178"
"1",1709924188228,"08/03/2024 18:56:28",1709927788228,1,"08/03/2024 20:56:28",170281,5,"task-gjqt",NA,35910079,10612855,NA,"complete",NA,"65eb5c6c46acd454e8d84784","computer","Desktop or Laptop","Windows 10","Chrome 122.0.0.0","1366x768","1034x612",NA,NA,0,"BIQ (Charlotte)",3,"CDBEAFJGIH","Passed AC2",NA,"Spreadsheet1",NA,"","","",NA,"5","BEGIN",NA,NA,NA,NA,NA,NA,0,NA,NA,NA,NA,"","",NA,"","",NA,"SUPPRF43122"
"2",1709924271936,"08/03/2024 18:57:51",1709927871936,1,"08/03/2024 20:57:51",170281,5,"task-gjqt",NA,35910079,10612855,NA,"complete",NA,"65eb5c6c46acd454e8d84784","computer","Desktop or Laptop","Windows 10","Chrome 122.0.0.0","1366x768","1034x612",NA,NA,0,"BIQ (Charlotte)",3,"CDBEAFJGIH","Passed AC2",NA,"Spreadsheet1",1,"BIQ","Screen 1","9dh6eq",1,"continue","",83717.98,83701.28,83717.98,83717.98,83701.28,83717.98,1,83717.98,0,0,NA,"Click To Continue","Continue Button",23,"object-48","BIQ",NA,"SUPPRF43122"
"3",1709924271939,"08/03/2024 18:57:51",1709927871939,1,"08/03/2024 20:57:51",170281,5,"task-gjqt",NA,35910079,10612855,NA,"complete",NA,"65eb5c6c46acd454e8d84784","computer","Desktop or Laptop","Windows 10","Chrome 122.0.0.0","1366x768","1034x612",NA,NA,0,"BIQ (Charlotte)",3,"CDBEAFJGIH","Passed AC2",NA,"Spreadsheet1",1,"BIQ","Screen 1","9dh6eq",1,"response","7",69475.88,83701.28,83717.98,69475.88,83701.28,83717.98,1,69475.88,14242.1,0,NA,"Rating Scale","Rating Scale",3,"object-5","BIQ",NA,"SUPPRF43122"
"4",1709924271940,"08/03/2024 18:57:51",1709927871940,1,"08/03/2024 20:57:51",170281,5,"task-gjqt",NA,35910079,10612855,NA,"complete",NA,"65eb5c6c46acd454e8d84784","computer","Desktop or Laptop","Windows 10","Chrome 122.0.0.0","1366x768","1034x612",NA,NA,0,"BIQ (Charlotte)",3,"CDBEAFJGIH","Passed AC2",NA,"Spreadsheet1",1,"BIQ","Screen 1","9dh6eq",1,"response","8",74939.48,83701.28,83717.98,74939.48,83701.28,83717.98,1,74939.48,8778.49999999999,0,NA,"Rating Scale","Rating Scale",10,"object-18","BIQ",NA,"SUPPRF43122"
"5",1709924271942,"08/03/2024 18:57:51",1709927871942,1,"08/03/2024 20:57:51",170281,5,"task-gjqt",NA,35910079,10612855,NA,"complete",NA,"65eb5c6c46acd454e8d84784","computer","Desktop or Laptop","Windows 10","Chrome 122.0.0.0","1366x768","1034x612",NA,NA,0,"BIQ (Charlotte)",3,"CDBEAFJGIH","Passed AC2",NA,"Spreadsheet1",1,"BIQ","Screen 1","9dh6eq",1,"response","8",80852.78,83701.28,83717.98,80852.78,83701.28,83717.98,1,80852.78,2865.2,0,NA,"Rating Scale","Rating Scale",17,"object-80","BIQ",NA,"SUPPRF43122"
"6",1709924291313,"08/03/2024 18:58:11",1709927891313,1,"08/03/2024 20:58:11",170281,5,"task-gjqt",NA,35910079,10612855,NA,"complete",NA,"65eb5c6c46acd454e8d84784","computer","Desktop or Laptop","Windows 10","Chrome 122.0.0.0","1366x768","1034x612",NA,NA,0,"BIQ (Charlotte)",3,"CDBEAFJGIH","Passed AC2",NA,"Spreadsheet1",1,"BIQ","Screen 2","o21mwi",2,"continue","",19405.399999997,19389.2,19405.399999997,19405.399999997,19389.2,19405.399999997,1,19405.399999997,0,0,NA,"Click To Continue","Continue Button",22,"object-50","BIQ",NA,"SUPPRF43122"
"7",1709924291317,"08/03/2024 18:58:11",1709927891317,1,"08/03/2024 20:58:11",170281,5,"task-gjqt",NA,35910079,10612855,NA,"complete",NA,"65eb5c6c46acd454e8d84784","computer","Desktop or Laptop","Windows 10","Chrome 122.0.0.0","1366x768","1034x612",NA,NA,0,"BIQ (Charlotte)",3,"CDBEAFJGIH","Passed AC2",NA,"Spreadsheet1",1,"BIQ","Screen 2","o21mwi",2,"response","8",5247.10000000001,19389.2,19405.8,5247.10000000001,19389.2,19405.8,1,5247.10000000001,14158.7,0,NA,"Rating Scale","Rating Scale",2,"object-259","BIQ",NA,"SUPPRF43122"
"8",1709924291318,"08/03/2024 18:58:11",1709927891318,1,"08/03/2024 20:58:11",170281,5,"task-gjqt",NA,35910079,10612855,NA,"complete",NA,"65eb5c6c46acd454e8d84784","computer","Desktop or Laptop","Windows 10","Chrome 122.0.0.0","1366x768","1034x612",NA,NA,0,"BIQ (Charlotte)",3,"CDBEAFJGIH","Passed AC2",NA,"Spreadsheet1",1,"BIQ","Screen 2","o21mwi",2,"response","0",10510.8,19389.2,19405.8,10510.8,19389.2,19405.8,1,10510.8,8895.00000000001,0,NA,"Rating Scale","Rating Scale",9,"object-36","BIQ",NA,"SUPPRF43122"
"9",1709924291319,"08/03/2024 18:58:11",1709927891319,1,"08/03/2024 20:58:11",170281,5,"task-gjqt",NA,35910079,10612855,NA,"complete",NA,"65eb5c6c46acd454e8d84784","computer","Desktop or Laptop","Windows 10","Chrome 122.0.0.0","1366x768","1034x612",NA,NA,0,"BIQ (Charlotte)",3,"CDBEAFJGIH","Passed AC2",NA,"Spreadsheet1",1,"BIQ","Screen 2","o21mwi",2,"response","0",18090,19389.2,19405.8,18090,19389.2,19405.8,1,18090,1315.80000000002,0,NA,"Rating Scale","Rating Scale",16,"object-86","BIQ",NA,"SUPPRF43122"
"10",1709924304570,"08/03/2024 18:58:24",1709927904570,1,"08/03/2024 20:58:24",170281,5,"task-gjqt",NA,35910079,10612855,NA,"complete",NA,"65eb5c6c46acd454e8d84784","computer","Desktop or Laptop","Windows 10","Chrome 122.0.0.0","1366x768","1034x612",NA,NA,0,"BIQ (Charlotte)",3,"CDBEAFJGIH","Passed AC2",NA,"Spreadsheet1",1,"BIQ","Screen 3","iz3the",3,"continue","",13272.499999994,13259.4,13272.499999994,13272.499999994,13259.4,13272.499999994,1,13272.499999994,0,0,NA,"Click To Continue","Continue Button",22,"object-73","BIQ",NA,"SUPPRF43122"
"11",1709924304574,"08/03/2024 18:58:24",1709927904574,1,"08/03/2024 20:58:24",170281,5,"task-gjqt",NA,35910079,10612855,NA,"complete",NA,"65eb5c6c46acd454e8d84784","computer","Desktop or Laptop","Windows 10","Chrome 122.0.0.0","1366x768","1034x612",NA,NA,0,"BIQ (Charlotte)",3,"CDBEAFJGIH","Passed AC2",NA,"Spreadsheet1",1,"BIQ","Screen 3","iz3the",3,"response","0",4481,13259.4,13276.1,4481,13259.4,13276.1,1,4481,8795.09999999999,0,NA,"Rating Scale","Rating Scale",2,"object-53","BIQ",NA,"SUPPRF43122"
"12",1709924304575,"08/03/2024 18:58:24",1709927904575,1,"08/03/2024 20:58:24",170281,5,"task-gjqt",NA,35910079,10612855,NA,"complete",NA,"65eb5c6c46acd454e8d84784","computer","Desktop or Laptop","Windows 10","Chrome 122.0.0.0","1366x768","1034x612",NA,NA,0,"BIQ (Charlotte)",3,"CDBEAFJGIH","Passed AC2",NA,"Spreadsheet1",1,"BIQ","Screen 3","iz3the",3,"response","0",6329.79999999999,13259.4,13276.1,6329.79999999999,13259.4,13276.1,1,6329.79999999999,6946.3,0,NA,"Rating Scale","Rating Scale",9,"object-60","BIQ",NA,"SUPPRF43122"
"13",1709924304576,"08/03/2024 18:58:24",1709927904576,1,"08/03/2024 20:58:24",170281,5,"task-gjqt",NA,35910079,10612855,NA,"complete",NA,"65eb5c6c46acd454e8d84784","computer","Desktop or Laptop","Windows 10","Chrome 122.0.0.0","1366x768","1034x612",NA,NA,0,"BIQ (Charlotte)",3,"CDBEAFJGIH","Passed AC2",NA,"Spreadsheet1",1,"BIQ","Screen 3","iz3the",3,"response","4",11676.9,13259.4,13276.1,11676.9,13259.4,13276.1,1,11676.9,1599.2,0,NA,"Rating Scale","Rating Scale",16,"object-67","BIQ",NA,"SUPPRF43122"
"14",1709924304583,"08/03/2024 18:58:24",1709927904583,1,"08/03/2024 20:58:24",170281,5,"task-gjqt",NA,35910079,10612855,NA,"complete",NA,"65eb5c6c46acd454e8d84784","computer","Desktop or Laptop","Windows 10","Chrome 122.0.0.0","1366x768","1034x612",NA,NA,0,"BIQ (Charlotte)",3,"CDBEAFJGIH","Passed AC2",NA,"Spreadsheet1",NA,"","","",NA,"5","END",NA,NA,NA,NA,NA,NA,0,NA,NA,NA,NA,"","",NA,"","",NA,"SUPPRF43122"
"1",1709924068384,"08/03/2024 18:54:28",1709924068384,0,"08/03/2024 18:54:28",170281,5,"task-gjqt",NA,35910039,10612882,NA,"complete",NA,"65eb5cdca87a76dad829ae54","computer","Desktop or Laptop","Mac OS 10.15.7","Chrome 122.0.0.0","2560x1440","2560x1353",NA,NA,0,"BIQ (Charlotte)",3,"DECFBGAHJI","Passed AC2",NA,"Spreadsheet1",NA,"","","",NA,"5","BEGIN",NA,NA,NA,NA,NA,NA,0,NA,NA,NA,NA,"","",NA,"","",NA,"SUPPRF18284"
"2",1709924095318,"08/03/2024 18:54:55",1709924095318,0,"08/03/2024 18:54:55",170281,5,"task-gjqt",NA,35910039,10612882,NA,"complete",NA,"65eb5cdca87a76dad829ae54","computer","Desktop or Laptop","Mac OS 10.15.7","Chrome 122.0.0.0","2560x1440","2560x1353",NA,NA,0,"BIQ (Charlotte)",3,"DECFBGAHJI","Passed AC2",NA,"Spreadsheet1",1,"BIQ","Screen 1","9dh6eq",1,"continue","",26945.3000000015,26940.2,26945.3000000015,26945.3000000015,26940.2,26945.3000000015,1,26945.3000000015,0,0,NA,"Click To Continue","Continue Button",23,"object-48","BIQ",NA,"SUPPRF18284"
"3",1709924095320,"08/03/2024 18:54:55",1709924095320,0,"08/03/2024 18:54:55",170281,5,"task-gjqt",NA,35910039,10612882,NA,"complete",NA,"65eb5cdca87a76dad829ae54","computer","Desktop or Laptop","Mac OS 10.15.7","Chrome 122.0.0.0","2560x1440","2560x1353",NA,NA,0,"BIQ (Charlotte)",3,"DECFBGAHJI","Passed AC2",NA,"Spreadsheet1",1,"BIQ","Screen 1","9dh6eq",1,"response","7",12903.5,26940.2,26947.3000000015,12903.5,26940.2,26947.3000000015,1,12903.5,14043.8000000015,0,NA,"Rating Scale","Rating Scale",3,"object-5","BIQ",NA,"SUPPRF18284"
"4",1709924095320,"08/03/2024 18:54:55",1709924095320,0,"08/03/2024 18:54:55",170281,5,"task-gjqt",NA,35910039,10612882,NA,"complete",NA,"65eb5cdca87a76dad829ae54","computer","Desktop or Laptop","Mac OS 10.15.7","Chrome 122.0.0.0","2560x1440","2560x1353",NA,NA,0,"BIQ (Charlotte)",3,"DECFBGAHJI","Passed AC2",NA,"Spreadsheet1",1,"BIQ","Screen 1","9dh6eq",1,"response","4",20556,26940.2,26947.600000006,20556,26940.2,26947.600000006,1,20556,6391.60000000596,0,NA,"Rating Scale","Rating Scale",10,"object-18","BIQ",NA,"SUPPRF18284"
"5",1709924095321,"08/03/2024 18:54:55",1709924095321,0,"08/03/2024 18:54:55",170281,5,"task-gjqt",NA,35910039,10612882,NA,"complete",NA,"65eb5cdca87a76dad829ae54","computer","Desktop or Laptop","Mac OS 10.15.7","Chrome 122.0.0.0","2560x1440","2560x1353",NA,NA,0,"BIQ (Charlotte)",3,"DECFBGAHJI","Passed AC2",NA,"Spreadsheet1",1,"BIQ","Screen 1","9dh6eq",1,"response","0",26273.7,26940.2,26947.8000000015,26273.7,26940.2,26947.8000000015,1,26273.7,674.10000000149,0,NA,"Rating Scale","Rating Scale",17,"object-80","BIQ",NA,"SUPPRF18284"
"6",1709924112950,"08/03/2024 18:55:12",1709924112950,0,"08/03/2024 18:55:12",170281,5,"task-gjqt",NA,35910039,10612882,NA,"complete",NA,"65eb5cdca87a76dad829ae54","computer","Desktop or Laptop","Mac OS 10.15.7","Chrome 122.0.0.0","2560x1440","2560x1353",NA,NA,0,"BIQ (Charlotte)",3,"DECFBGAHJI","Passed AC2",NA,"Spreadsheet1",1,"BIQ","Screen 2","o21mwi",2,"continue","",17637.4,17621.8,17637.4,17637.4,17621.8,17637.4,1,17637.4,0,0,NA,"Click To Continue","Continue Button",22,"object-50","BIQ",NA,"SUPPRF18284"
"7",1709924112952,"08/03/2024 18:55:12",1709924112952,0,"08/03/2024 18:55:12",170281,5,"task-gjqt",NA,35910039,10612882,NA,"complete",NA,"65eb5cdca87a76dad829ae54","computer","Desktop or Laptop","Mac OS 10.15.7","Chrome 122.0.0.0","2560x1440","2560x1353",NA,NA,0,"BIQ (Charlotte)",3,"DECFBGAHJI","Passed AC2",NA,"Spreadsheet1",1,"BIQ","Screen 2","o21mwi",2,"response","7",6602.1,17621.8,17637.4,6602.1,17621.8,17637.4,1,6602.1,11035.3,0,NA,"Rating Scale","Rating Scale",2,"object-259","BIQ",NA,"SUPPRF18284"
"8",1709924112952,"08/03/2024 18:55:12",1709924112952,0,"08/03/2024 18:55:12",170281,5,"task-gjqt",NA,35910039,10612882,NA,"complete",NA,"65eb5cdca87a76dad829ae54","computer","Desktop or Laptop","Mac OS 10.15.7","Chrome 122.0.0.0","2560x1440","2560x1353",NA,NA,0,"BIQ (Charlotte)",3,"DECFBGAHJI","Passed AC2",NA,"Spreadsheet1",1,"BIQ","Screen 2","o21mwi",2,"response","0",11870.7,17621.8,17637.4,11870.7,17621.8,17637.4,1,11870.7,5766.70000000001,0,NA,"Rating Scale","Rating Scale",9,"object-36","BIQ",NA,"SUPPRF18284"
"9",1709924112953,"08/03/2024 18:55:12",1709924112953,0,"08/03/2024 18:55:12",170281,5,"task-gjqt",NA,35910039,10612882,NA,"complete",NA,"65eb5cdca87a76dad829ae54","computer","Desktop or Laptop","Mac OS 10.15.7","Chrome 122.0.0.0","2560x1440","2560x1353",NA,NA,0,"BIQ (Charlotte)",3,"DECFBGAHJI","Passed AC2",NA,"Spreadsheet1",1,"BIQ","Screen 2","o21mwi",2,"response","0",16772,17621.8,17637.4,16772,17621.8,17637.4,1,16772,865.400000000009,0,NA,"Rating Scale","Rating Scale",16,"object-86","BIQ",NA,"SUPPRF18284"
"10",1709924131546,"08/03/2024 18:55:31",1709924131546,0,"08/03/2024 18:55:31",170281,5,"task-gjqt",NA,35910039,10612882,NA,"complete",NA,"65eb5cdca87a76dad829ae54","computer","Desktop or Laptop","Mac OS 10.15.7","Chrome 122.0.0.0","2560x1440","2560x1353",NA,NA,0,"BIQ (Charlotte)",3,"DECFBGAHJI","Passed AC2",NA,"Spreadsheet1",1,"BIQ","Screen 3","iz3the",3,"continue","",18612.7,18606.6,18612.7,18612.7,18606.6,18612.7,1,18612.7,0,0,NA,"Click To Continue","Continue Button",22,"object-73","BIQ",NA,"SUPPRF18284"
"11",1709924131549,"08/03/2024 18:55:31",1709924131549,0,"08/03/2024 18:55:31",170281,5,"task-gjqt",NA,35910039,10612882,NA,"complete",NA,"65eb5cdca87a76dad829ae54","computer","Desktop or Laptop","Mac OS 10.15.7","Chrome 122.0.0.0","2560x1440","2560x1353",NA,NA,0,"BIQ (Charlotte)",3,"DECFBGAHJI","Passed AC2",NA,"Spreadsheet1",1,"BIQ","Screen 3","iz3the",3,"response","0",5669.3,18606.6,18615.0000000045,5669.3,18606.6,18615.0000000045,1,5669.3,12945.7000000045,0,NA,"Rating Scale","Rating Scale",2,"object-53","BIQ",NA,"SUPPRF18284"
"12",1709924131549,"08/03/2024 18:55:31",1709924131549,0,"08/03/2024 18:55:31",170281,5,"task-gjqt",NA,35910039,10612882,NA,"complete",NA,"65eb5cdca87a76dad829ae54","computer","Desktop or Laptop","Mac OS 10.15.7","Chrome 122.0.0.0","2560x1440","2560x1353",NA,NA,0,"BIQ (Charlotte)",3,"DECFBGAHJI","Passed AC2",NA,"Spreadsheet1",1,"BIQ","Screen 3","iz3the",3,"response","2",7151.8,18606.6,18615.400000003,7151.8,18606.6,18615.400000003,1,7151.8,11463.600000003,0,NA,"Rating Scale","Rating Scale",9,"object-60","BIQ",NA,"SUPPRF18284"
"13",1709924131549,"08/03/2024 18:55:31",1709924131549,0,"08/03/2024 18:55:31",170281,5,"task-gjqt",NA,35910039,10612882,NA,"complete",NA,"65eb5cdca87a76dad829ae54","computer","Desktop or Laptop","Mac OS 10.15.7","Chrome 122.0.0.0","2560x1440","2560x1353",NA,NA,0,"BIQ (Charlotte)",3,"DECFBGAHJI","Passed AC2",NA,"Spreadsheet1",1,"BIQ","Screen 3","iz3the",3,"response","0",8353.6,18606.6,18615.600000006,8353.6,18606.6,18615.600000006,1,8353.6,10262.000000006,0,NA,"Rating Scale","Rating Scale",16,"object-67","BIQ",NA,"SUPPRF18284"
"14",1709924131550,"08/03/2024 18:55:31",1709924131550,0,"08/03/2024 18:55:31",170281,5,"task-gjqt",NA,35910039,10612882,NA,"complete",NA,"65eb5cdca87a76dad829ae54","computer","Desktop or Laptop","Mac OS 10.15.7","Chrome 122.0.0.0","2560x1440","2560x1353",NA,NA,0,"BIQ (Charlotte)",3,"DECFBGAHJI","Passed AC2",NA,"Spreadsheet1",NA,"","","",NA,"5","END",NA,NA,NA,NA,NA,NA,0,NA,NA,NA,NA,"","",NA,"","",NA,"SUPPRF18284"
"1",1709924438916,"08/03/2024 19:00:38",1709924438916,0,"08/03/2024 19:00:38",170281,5,"task-gjqt",NA,35910173,10612931,NA,"complete",NA,"65eb5f1446acd454e8d8483e","computer","Desktop or Laptop","Windows 10","Chrome 122.0.0.0","1536x864","1536x730",NA,NA,0,"BIQ (Charlotte)",3,"EFDGCHBIAJ","Passed AC2",NA,"Spreadsheet1",NA,"","","",NA,"5","BEGIN",NA,NA,NA,NA,NA,NA,0,NA,NA,NA,NA,"","",NA,"","",NA,"SUPPRF79823"
"2",1709924459029,"08/03/2024 19:00:59",1709924459029,0,"08/03/2024 19:00:59",170281,5,"task-gjqt",NA,35910173,10612931,NA,"complete",NA,"65eb5f1446acd454e8d8483e","computer","Desktop or Laptop","Windows 10","Chrome 122.0.0.0","1536x864","1536x730",NA,NA,0,"BIQ (Charlotte)",3,"EFDGCHBIAJ","Passed AC2",NA,"Spreadsheet1",1,"BIQ","Screen 1","9dh6eq",1,"continue","",20128.909999994,20116.41,20128.909999994,20128.909999994,20116.41,20128.909999994,1,20128.909999994,0,0,NA,"Click To Continue","Continue Button",23,"object-48","BIQ",NA,"SUPPRF79823"
"3",1709924459032,"08/03/2024 19:00:59",1709924459032,0,"08/03/2024 19:00:59",170281,5,"task-gjqt",NA,35910173,10612931,NA,"complete",NA,"65eb5f1446acd454e8d8483e","computer","Desktop or Laptop","Windows 10","Chrome 122.0.0.0","1536x864","1536x730",NA,NA,0,"BIQ (Charlotte)",3,"EFDGCHBIAJ","Passed AC2",NA,"Spreadsheet1",1,"BIQ","Screen 1","9dh6eq",1,"response","7",11183.21,20116.41,20132.71,11183.21,20116.41,20132.71,1,11183.21,8949.5,0,NA,"Rating Scale","Rating Scale",3,"object-5","BIQ",NA,"SUPPRF79823"
"4",1709924459033,"08/03/2024 19:00:59",1709924459033,0,"08/03/2024 19:00:59",170281,5,"task-gjqt",NA,35910173,10612931,NA,"complete",NA,"65eb5f1446acd454e8d8483e","computer","Desktop or Laptop","Windows 10","Chrome 122.0.0.0","1536x864","1536x730",NA,NA,0,"BIQ (Charlotte)",3,"EFDGCHBIAJ","Passed AC2",NA,"Spreadsheet1",1,"BIQ","Screen 1","9dh6eq",1,"response","4",14366.41,20116.41,20132.71,14366.41,20116.41,20132.71,1,14366.41,5766.3,0,NA,"Rating Scale","Rating Scale",10,"object-18","BIQ",NA,"SUPPRF79823"
"5",1709924459034,"08/03/2024 19:00:59",1709924459034,0,"08/03/2024 19:00:59",170281,5,"task-gjqt",NA,35910173,10612931,NA,"complete",NA,"65eb5f1446acd454e8d8483e","computer","Desktop or Laptop","Windows 10","Chrome 122.0.0.0","1536x864","1536x730",NA,NA,0,"BIQ (Charlotte)",3,"EFDGCHBIAJ","Passed AC2",NA,"Spreadsheet1",1,"BIQ","Screen 1","9dh6eq",1,"response","3",17799.81,20116.41,20132.71,17799.81,20116.41,20132.71,1,17799.81,2332.9,0,NA,"Rating Scale","Rating Scale",17,"object-80","BIQ",NA,"SUPPRF79823"
"6",1709924476763,"08/03/2024 19:01:16",1709924476763,0,"08/03/2024 19:01:16",170281,5,"task-gjqt",NA,35910173,10612931,NA,"complete",NA,"65eb5f1446acd454e8d8483e","computer","Desktop or Laptop","Windows 10","Chrome 122.0.0.0","1536x864","1536x730",NA,NA,0,"BIQ (Charlotte)",3,"EFDGCHBIAJ","Passed AC2",NA,"Spreadsheet1",1,"BIQ","Screen 2","o21mwi",2,"continue","",17747.499999994,17733.3,17747.499999994,17747.499999994,17733.3,17747.499999994,1,17747.499999994,0,0,NA,"Click To Continue","Continue Button",22,"object-50","BIQ",NA,"SUPPRF79823"
"7",1709924480344,"08/03/2024 19:01:20",1709924480344,0,"08/03/2024 19:01:20",170281,5,"task-gjqt",NA,35910173,10612931,NA,"complete",NA,"65eb5f1446acd454e8d8483e","computer","Desktop or Laptop","Windows 10","Chrome 122.0.0.0","1536x864","1536x730",NA,NA,0,"BIQ (Charlotte)",3,"EFDGCHBIAJ","Passed AC2",NA,"Spreadsheet1",1,"BIQ","Screen 2","o21mwi",2,"continue","",21328.499999994,21316.5,21328.499999994,21328.499999994,21316.5,21328.499999994,1,21328.499999994,0,0,NA,"Click To Continue","Continue Button",22,"object-50","BIQ",NA,"SUPPRF79823"
"8",1709924480345,"08/03/2024 19:01:20",1709924480345,0,"08/03/2024 19:01:20",170281,5,"task-gjqt",NA,35910173,10612931,NA,"complete",NA,"65eb5f1446acd454e8d8483e","computer","Desktop or Laptop","Windows 10","Chrome 122.0.0.0","1536x864","1536x730",NA,NA,0,"BIQ (Charlotte)",3,"EFDGCHBIAJ","Passed AC2",NA,"Spreadsheet1",1,"BIQ","Screen 2","o21mwi",2,"response","7",5000.1,21316.5,21329.4,5000.1,21316.5,21329.4,1,5000.1,16329.3,0,NA,"Rating Scale","Rating Scale",2,"object-259","BIQ",NA,"SUPPRF79823"
"9",1709924480345,"08/03/2024 19:01:20",1709924480345,0,"08/03/2024 19:01:20",170281,5,"task-gjqt",NA,35910173,10612931,NA,"complete",NA,"65eb5f1446acd454e8d8483e","computer","Desktop or Laptop","Windows 10","Chrome 122.0.0.0","1536x864","1536x730",NA,NA,0,"BIQ (Charlotte)",3,"EFDGCHBIAJ","Passed AC2",NA,"Spreadsheet1",1,"BIQ","Screen 2","o21mwi",2,"response","1",10116.5,21316.5,21330.0999999881,10116.5,21316.5,21330.0999999881,1,10116.5,11213.5999999881,0,NA,"Rating Scale","Rating Scale",9,"object-36","BIQ",NA,"SUPPRF79823"
"10",1709924480346,"08/03/2024 19:01:20",1709924480346,0,"08/03/2024 19:01:20",170281,5,"task-gjqt",NA,35910173,10612931,NA,"complete",NA,"65eb5f1446acd454e8d8483e","computer","Desktop or Laptop","Windows 10","Chrome 122.0.0.0","1536x864","1536x730",NA,NA,0,"BIQ (Charlotte)",3,"EFDGCHBIAJ","Passed AC2",NA,"Spreadsheet1",1,"BIQ","Screen 2","o21mwi",2,"response","0",20233.2,21316.5,21330.7999999911,20233.2,21316.5,21330.7999999911,1,20233.2,1097.59999999106,0,NA,"Rating Scale","Rating Scale",16,"object-86","BIQ",NA,"SUPPRF79823"
"11",1709924491337,"08/03/2024 19:01:31",1709924491337,0,"08/03/2024 19:01:31",170281,5,"task-gjqt",NA,35910173,10612931,NA,"complete",NA,"65eb5f1446acd454e8d8483e","computer","Desktop or Laptop","Windows 10","Chrome 122.0.0.0","1536x864","1536x730",NA,NA,0,"BIQ (Charlotte)",3,"EFDGCHBIAJ","Passed AC2",NA,"Spreadsheet1",1,"BIQ","Screen 3","iz3the",3,"continue","",11005.5999999881,11000.4,11005.5999999881,11005.5999999881,11000.4,11005.5999999881,1,11005.5999999881,0,0,NA,"Click To Continue","Continue Button",22,"object-73","BIQ",NA,"SUPPRF79823"
"12",1709924491342,"08/03/2024 19:01:31",1709924491342,0,"08/03/2024 19:01:31",170281,5,"task-gjqt",NA,35910173,10612931,NA,"complete",NA,"65eb5f1446acd454e8d8483e","computer","Desktop or Laptop","Windows 10","Chrome 122.0.0.0","1536x864","1536x730",NA,NA,0,"BIQ (Charlotte)",3,"EFDGCHBIAJ","Passed AC2",NA,"Spreadsheet1",1,"BIQ","Screen 3","iz3the",3,"response","1",4850.3,11000.4,11010.499999994,4850.3,11000.4,11010.499999994,1,4850.3,6160.19999999404,0,NA,"Rating Scale","Rating Scale",2,"object-53","BIQ",NA,"SUPPRF79823"
"13",1709924491343,"08/03/2024 19:01:31",1709924491343,0,"08/03/2024 19:01:31",170281,5,"task-gjqt",NA,35910173,10612931,NA,"complete",NA,"65eb5f1446acd454e8d8483e","computer","Desktop or Laptop","Windows 10","Chrome 122.0.0.0","1536x864","1536x730",NA,NA,0,"BIQ (Charlotte)",3,"EFDGCHBIAJ","Passed AC2",NA,"Spreadsheet1",1,"BIQ","Screen 3","iz3the",3,"response","2",6816.5,11000.4,11011.199999997,6816.5,11000.4,11011.199999997,1,6816.5,4194.69999999702,0,NA,"Rating Scale","Rating Scale",9,"object-60","BIQ",NA,"SUPPRF79823"
"14",1709924491343,"08/03/2024 19:01:31",1709924491343,0,"08/03/2024 19:01:31",170281,5,"task-gjqt",NA,35910173,10612931,NA,"complete",NA,"65eb5f1446acd454e8d8483e","computer","Desktop or Laptop","Windows 10","Chrome 122.0.0.0","1536x864","1536x730",NA,NA,0,"BIQ (Charlotte)",3,"EFDGCHBIAJ","Passed AC2",NA,"Spreadsheet1",1,"BIQ","Screen 3","iz3the",3,"response","1",10200.4,11000.4,11011.9,10200.4,11000.4,11011.9,1,10200.4,811.5,0,NA,"Rating Scale","Rating Scale",16,"object-67","BIQ",NA,"SUPPRF79823"
"15",1709924491353,"08/03/2024 19:01:31",1709924491353,0,"08/03/2024 19:01:31",170281,5,"task-gjqt",NA,35910173,10612931,NA,"complete",NA,"65eb5f1446acd454e8d8483e","computer","Desktop or Laptop","Windows 10","Chrome 122.0.0.0","1536x864","1536x730",NA,NA,0,"BIQ (Charlotte)",3,"EFDGCHBIAJ","Passed AC2",NA,"Spreadsheet1",NA,"","","",NA,"5","END",NA,NA,NA,NA,NA,NA,0,NA,NA,NA,NA,"","",NA,"","",NA,"SUPPRF79823"
"1",1709925265581,"08/03/2024 19:14:25",1709928865581,1,"08/03/2024 21:14:25",170281,5,"task-gjqt",NA,35910446,10612996,NA,"complete",NA,"65eb56995e6079ddf5fedc25","computer","Desktop or Laptop","Windows 10","Chrome 122.0.0.0","1280x720","1280x598",NA,NA,0,"BIQ (Charlotte)",3,"FGEHDICJBA","Passed AC2",NA,"Spreadsheet1",NA,"","","",NA,"5","BEGIN",NA,NA,NA,NA,NA,NA,0,NA,NA,NA,NA,"","",NA,"","",NA,"SUPPRF20445"
"2",1709925294575,"08/03/2024 19:14:54",1709928894575,1,"08/03/2024 21:14:54",170281,5,"task-gjqt",NA,35910446,10612996,NA,"complete",NA,"65eb56995e6079ddf5fedc25","computer","Desktop or Laptop","Windows 10","Chrome 122.0.0.0","1280x720","1280x598",NA,NA,0,"BIQ (Charlotte)",3,"FGEHDICJBA","Passed AC2",NA,"Spreadsheet1",1,"BIQ","Screen 1","9dh6eq",1,"continue","",29011.01,28994.51,29011.01,29011.01,28994.51,29011.01,1,29011.01,0,0,NA,"Click To Continue","Continue Button",23,"object-48","BIQ",NA,"SUPPRF20445"
"3",1709925294581,"08/03/2024 19:14:54",1709928894581,1,"08/03/2024 21:14:54",170281,5,"task-gjqt",NA,35910446,10612996,NA,"complete",NA,"65eb56995e6079ddf5fedc25","computer","Desktop or Laptop","Windows 10","Chrome 122.0.0.0","1280x720","1280x598",NA,NA,0,"BIQ (Charlotte)",3,"FGEHDICJBA","Passed AC2",NA,"Spreadsheet1",1,"BIQ","Screen 1","9dh6eq",1,"response","6",17546.41,28994.51,29011.01,17546.41,28994.51,29011.01,1,17546.41,11464.6,0,NA,"Rating Scale","Rating Scale",3,"object-5","BIQ",NA,"SUPPRF20445"
"4",1709925294582,"08/03/2024 19:14:54",1709928894582,1,"08/03/2024 21:14:54",170281,5,"task-gjqt",NA,35910446,10612996,NA,"complete",NA,"65eb56995e6079ddf5fedc25","computer","Desktop or Laptop","Windows 10","Chrome 122.0.0.0","1280x720","1280x598",NA,NA,0,"BIQ (Charlotte)",3,"FGEHDICJBA","Passed AC2",NA,"Spreadsheet1",1,"BIQ","Screen 1","9dh6eq",1,"response","8",24128.91,28994.51,29011.01,24128.91,28994.51,29011.01,1,24128.91,4882.1,0,NA,"Rating Scale","Rating Scale",10,"object-18","BIQ",NA,"SUPPRF20445"
"5",1709925294584,"08/03/2024 19:14:54",1709928894584,1,"08/03/2024 21:14:54",170281,5,"task-gjqt",NA,35910446,10612996,NA,"complete",NA,"65eb56995e6079ddf5fedc25","computer","Desktop or Laptop","Windows 10","Chrome 122.0.0.0","1280x720","1280x598",NA,NA,0,"BIQ (Charlotte)",3,"FGEHDICJBA","Passed AC2",NA,"Spreadsheet1",1,"BIQ","Screen 1","9dh6eq",1,"response","2",28144.61,28994.51,29011.01,28144.61,28994.51,29011.01,1,28144.61,866.399999999994,0,NA,"Rating Scale","Rating Scale",17,"object-80","BIQ",NA,"SUPPRF20445"
"6",1709925307378,"08/03/2024 19:15:07",1709928907378,1,"08/03/2024 21:15:07",170281,5,"task-gjqt",NA,35910446,10612996,NA,"complete",NA,"65eb56995e6079ddf5fedc25","computer","Desktop or Laptop","Windows 10","Chrome 122.0.0.0","1280x720","1280x598",NA,NA,0,"BIQ (Charlotte)",3,"FGEHDICJBA","Passed AC2",NA,"Spreadsheet1",1,"BIQ","Screen 2","o21mwi",2,"continue","",12828.1000000715,12814.3,12828.1000000715,12828.1000000715,12814.3,12828.1000000715,1,12828.1000000715,0,0,NA,"Click To Continue","Continue Button",22,"object-50","BIQ",NA,"SUPPRF20445"
"7",1709925307382,"08/03/2024 19:15:07",1709928907382,1,"08/03/2024 21:15:07",170281,5,"task-gjqt",NA,35910446,10612996,NA,"complete",NA,"65eb56995e6079ddf5fedc25","computer","Desktop or Laptop","Windows 10","Chrome 122.0.0.0","1280x720","1280x598",NA,NA,0,"BIQ (Charlotte)",3,"FGEHDICJBA","Passed AC2",NA,"Spreadsheet1",1,"BIQ","Screen 2","o21mwi",2,"response","4",3966.2,12814.3,12830.9,3966.2,12814.3,12830.9,1,3966.2,8864.7,0,NA,"Rating Scale","Rating Scale",2,"object-259","BIQ",NA,"SUPPRF20445"
"8",1709925307382,"08/03/2024 19:15:07",1709928907382,1,"08/03/2024 21:15:07",170281,5,"task-gjqt",NA,35910446,10612996,NA,"complete",NA,"65eb56995e6079ddf5fedc25","computer","Desktop or Laptop","Windows 10","Chrome 122.0.0.0","1280x720","1280x598",NA,NA,0,"BIQ (Charlotte)",3,"FGEHDICJBA","Passed AC2",NA,"Spreadsheet1",1,"BIQ","Screen 2","o21mwi",2,"response","4",6432.2,12814.3,12830.9,6432.2,12814.3,12830.9,1,6432.2,6398.7,0,NA,"Rating Scale","Rating Scale",9,"object-36","BIQ",NA,"SUPPRF20445"
"9",1709925307383,"08/03/2024 19:15:07",1709928907383,1,"08/03/2024 21:15:07",170281,5,"task-gjqt",NA,35910446,10612996,NA,"complete",NA,"65eb56995e6079ddf5fedc25","computer","Desktop or Laptop","Windows 10","Chrome 122.0.0.0","1280x720","1280x598",NA,NA,0,"BIQ (Charlotte)",3,"FGEHDICJBA","Passed AC2",NA,"Spreadsheet1",1,"BIQ","Screen 2","o21mwi",2,"response","4",9365.10000000001,12814.3,12830.9,9365.10000000001,12814.3,12830.9,1,9365.10000000001,3465.8,0,NA,"Rating Scale","Rating Scale",16,"object-86","BIQ",NA,"SUPPRF20445"
"10",1709925314480,"08/03/2024 19:15:14",1709928914480,1,"08/03/2024 21:15:14",170281,5,"task-gjqt",NA,35910446,10612996,NA,"complete",NA,"65eb56995e6079ddf5fedc25","computer","Desktop or Laptop","Windows 10","Chrome 122.0.0.0","1280x720","1280x598",NA,NA,0,"BIQ (Charlotte)",3,"FGEHDICJBA","Passed AC2",NA,"Spreadsheet1",1,"BIQ","Screen 3","iz3the",3,"continue","",7115.40000009537,7099.2,7115.40000009537,7115.40000009537,7099.2,7115.40000009537,1,7115.40000009537,0,0,NA,"Click To Continue","Continue Button",22,"object-73","BIQ",NA,"SUPPRF20445"
"11",1709925314481,"08/03/2024 19:15:14",1709928914481,1,"08/03/2024 21:15:14",170281,5,"task-gjqt",NA,35910446,10612996,NA,"complete",NA,"65eb56995e6079ddf5fedc25","computer","Desktop or Laptop","Windows 10","Chrome 122.0.0.0","1280x720","1280x598",NA,NA,0,"BIQ (Charlotte)",3,"FGEHDICJBA","Passed AC2",NA,"Spreadsheet1",1,"BIQ","Screen 3","iz3the",3,"response","4",3416.5,7099.2,7115.89999999999,3416.5,7099.2,7115.89999999999,1,3416.5,3699.39999999999,0,NA,"Rating Scale","Rating Scale",2,"object-53","BIQ",NA,"SUPPRF20445"
"12",1709925314482,"08/03/2024 19:15:14",1709928914482,1,"08/03/2024 21:15:14",170281,5,"task-gjqt",NA,35910446,10612996,NA,"complete",NA,"65eb56995e6079ddf5fedc25","computer","Desktop or Laptop","Windows 10","Chrome 122.0.0.0","1280x720","1280x598",NA,NA,0,"BIQ (Charlotte)",3,"FGEHDICJBA","Passed AC2",NA,"Spreadsheet1",1,"BIQ","Screen 3","iz3the",3,"response","4",4349.5,7099.2,7115.89999999999,4349.5,7099.2,7115.89999999999,1,4349.5,2766.39999999999,0,NA,"Rating Scale","Rating Scale",9,"object-60","BIQ",NA,"SUPPRF20445"
"13",1709925314483,"08/03/2024 19:15:14",1709928914483,1,"08/03/2024 21:15:14",170281,5,"task-gjqt",NA,35910446,10612996,NA,"complete",NA,"65eb56995e6079ddf5fedc25","computer","Desktop or Laptop","Windows 10","Chrome 122.0.0.0","1280x720","1280x598",NA,NA,0,"BIQ (Charlotte)",3,"FGEHDICJBA","Passed AC2",NA,"Spreadsheet1",1,"BIQ","Screen 3","iz3the",3,"response","4",5549.2,7099.2,7115.89999999999,5549.2,7099.2,7115.89999999999,1,5549.2,1566.7,0,NA,"Rating Scale","Rating Scale",16,"object-67","BIQ",NA,"SUPPRF20445"
"14",1709925314496,"08/03/2024 19:15:14",1709928914496,1,"08/03/2024 21:15:14",170281,5,"task-gjqt",NA,35910446,10612996,NA,"complete",NA,"65eb56995e6079ddf5fedc25","computer","Desktop or Laptop","Windows 10","Chrome 122.0.0.0","1280x720","1280x598",NA,NA,0,"BIQ (Charlotte)",3,"FGEHDICJBA","Passed AC2",NA,"Spreadsheet1",NA,"","","",NA,"5","END",NA,NA,NA,NA,NA,NA,0,NA,NA,NA,NA,"","",NA,"","",NA,"SUPPRF20445"
"1",1709926791797,"08/03/2024 19:39:51",1709908791797,-5,"08/03/2024 09:39:51",170281,5,"task-gjqt",NA,35910860,10613094,NA,"complete",NA,"65eb687df10847cd0277edfc","computer","Desktop or Laptop","Windows 10","Chrome 122.0.0.0","1280x720","1280x551",NA,NA,0,"BIQ (Charlotte)",3,"GHFIEJDACB","Passed AC2",NA,"Spreadsheet1",NA,"","","",NA,"5","BEGIN",NA,NA,NA,NA,NA,NA,0,NA,NA,NA,NA,"","",NA,"","",NA,"SUPPRF25498"
"2",1709926831180,"08/03/2024 19:40:31",1709908831180,-5,"08/03/2024 09:40:31",170281,5,"task-gjqt",NA,35910860,10613094,NA,"complete",NA,"65eb687df10847cd0277edfc","computer","Desktop or Laptop","Windows 10","Chrome 122.0.0.0","1280x720","1280x551",NA,NA,0,"BIQ (Charlotte)",3,"GHFIEJDACB","Passed AC2",NA,"Spreadsheet1",1,"BIQ","Screen 1","9dh6eq",1,"continue","",39395.7519999523,39380.652,39395.7519999523,39395.7519999523,39380.652,39395.7519999523,1,39395.7519999523,0,0,NA,"Click To Continue","Continue Button",23,"object-48","BIQ",NA,"SUPPRF25498"
"3",1709926831184,"08/03/2024 19:40:31",1709908831184,-5,"08/03/2024 09:40:31",170281,5,"task-gjqt",NA,35910860,10613094,NA,"complete",NA,"65eb687df10847cd0277edfc","computer","Desktop or Laptop","Windows 10","Chrome 122.0.0.0","1280x720","1280x551",NA,NA,0,"BIQ (Charlotte)",3,"GHFIEJDACB","Passed AC2",NA,"Spreadsheet1",1,"BIQ","Screen 1","9dh6eq",1,"response","4",17149.152,39380.652,39396.952,17149.152,39380.652,39396.952,1,17149.152,22247.8,0,NA,"Rating Scale","Rating Scale",3,"object-5","BIQ",NA,"SUPPRF25498"
"4",1709926831184,"08/03/2024 19:40:31",1709908831184,-5,"08/03/2024 09:40:31",170281,5,"task-gjqt",NA,35910860,10613094,NA,"complete",NA,"65eb687df10847cd0277edfc","computer","Desktop or Laptop","Windows 10","Chrome 122.0.0.0","1280x720","1280x551",NA,NA,0,"BIQ (Charlotte)",3,"GHFIEJDACB","Passed AC2",NA,"Spreadsheet1",1,"BIQ","Screen 1","9dh6eq",1,"response","7",29181.552,39380.652,39396.952,29181.552,39380.652,39396.952,1,29181.552,10215.4,0,NA,"Rating Scale","Rating Scale",10,"object-18","BIQ",NA,"SUPPRF25498"
"5",1709926831185,"08/03/2024 19:40:31",1709908831185,-5,"08/03/2024 09:40:31",170281,5,"task-gjqt",NA,35910860,10613094,NA,"complete",NA,"65eb687df10847cd0277edfc","computer","Desktop or Laptop","Windows 10","Chrome 122.0.0.0","1280x720","1280x551",NA,NA,0,"BIQ (Charlotte)",3,"GHFIEJDACB","Passed AC2",NA,"Spreadsheet1",1,"BIQ","Screen 1","9dh6eq",1,"response","2",37047.452,39380.652,39396.952,37047.452,39380.652,39396.952,1,37047.452,2349.49999999999,0,NA,"Rating Scale","Rating Scale",17,"object-80","BIQ",NA,"SUPPRF25498"
"6",1709926852088,"08/03/2024 19:40:52",1709908852088,-5,"08/03/2024 09:40:52",170281,5,"task-gjqt",NA,35910860,10613094,NA,"complete",NA,"65eb687df10847cd0277edfc","computer","Desktop or Laptop","Windows 10","Chrome 122.0.0.0","1280x720","1280x551",NA,NA,0,"BIQ (Charlotte)",3,"GHFIEJDACB","Passed AC2",NA,"Spreadsheet1",1,"BIQ","Screen 2","o21mwi",2,"continue","",20923.2000000954,20915.3,20923.2000000954,20923.2000000954,20915.3,20923.2000000954,1,20923.2000000954,0,0,NA,"Click To Continue","Continue Button",22,"object-50","BIQ",NA,"SUPPRF25498"
"7",1709926852092,"08/03/2024 19:40:52",1709908852092,-5,"08/03/2024 09:40:52",170281,5,"task-gjqt",NA,35910860,10613094,NA,"complete",NA,"65eb687df10847cd0277edfc","computer","Desktop or Laptop","Windows 10","Chrome 122.0.0.0","1280x720","1280x551",NA,NA,0,"BIQ (Charlotte)",3,"GHFIEJDACB","Passed AC2",NA,"Spreadsheet1",1,"BIQ","Screen 2","o21mwi",2,"response","6",5716.3,20915.3,20926.8999999046,5716.3,20915.3,20926.8999999046,1,5716.3,15210.5999999046,0,NA,"Rating Scale","Rating Scale",2,"object-259","BIQ",NA,"SUPPRF25498"
"8",1709926852092,"08/03/2024 19:40:52",1709908852092,-5,"08/03/2024 09:40:52",170281,5,"task-gjqt",NA,35910860,10613094,NA,"complete",NA,"65eb687df10847cd0277edfc","computer","Desktop or Laptop","Windows 10","Chrome 122.0.0.0","1280x720","1280x551",NA,NA,0,"BIQ (Charlotte)",3,"GHFIEJDACB","Passed AC2",NA,"Spreadsheet1",1,"BIQ","Screen 2","o21mwi",2,"response","2",10116.3,20915.3,20927.3999999046,10116.3,20915.3,20927.3999999046,1,10116.3,10811.0999999046,0,NA,"Rating Scale","Rating Scale",9,"object-36","BIQ",NA,"SUPPRF25498"
"9",1709926852093,"08/03/2024 19:40:52",1709908852093,-5,"08/03/2024 09:40:52",170281,5,"task-gjqt",NA,35910860,10613094,NA,"complete",NA,"65eb687df10847cd0277edfc","computer","Desktop or Laptop","Windows 10","Chrome 122.0.0.0","1280x720","1280x551",NA,NA,0,"BIQ (Charlotte)",3,"GHFIEJDACB","Passed AC2",NA,"Spreadsheet1",1,"BIQ","Screen 2","o21mwi",2,"response","2",20015.7,20915.3,20927.8999999046,20015.7,20915.3,20927.8999999046,1,20015.7,912.199999904631,0,NA,"Rating Scale","Rating Scale",16,"object-86","BIQ",NA,"SUPPRF25498"
"10",1709926870273,"08/03/2024 19:41:10",1709908870273,-5,"08/03/2024 09:41:10",170281,5,"task-gjqt",NA,35910860,10613094,NA,"complete",NA,"65eb687df10847cd0277edfc","computer","Desktop or Laptop","Windows 10","Chrome 122.0.0.0","1280x720","1280x551",NA,NA,0,"BIQ (Charlotte)",3,"GHFIEJDACB","Passed AC2",NA,"Spreadsheet1",1,"BIQ","Screen 3","iz3the",3,"continue","",18193.0999999046,18182.3,18193.0999999046,18193.0999999046,18182.3,18193.0999999046,1,18193.0999999046,0,0,NA,"Click To Continue","Continue Button",22,"object-73","BIQ",NA,"SUPPRF25498"
"11",1709926870276,"08/03/2024 19:41:10",1709908870276,-5,"08/03/2024 09:41:10",170281,5,"task-gjqt",NA,35910860,10613094,NA,"complete",NA,"65eb687df10847cd0277edfc","computer","Desktop or Laptop","Windows 10","Chrome 122.0.0.0","1280x720","1280x551",NA,NA,0,"BIQ (Charlotte)",3,"GHFIEJDACB","Passed AC2",NA,"Spreadsheet1",1,"BIQ","Screen 3","iz3the",3,"response","1",4400,18182.3,18196.2000000477,4400,18182.3,18196.2000000477,1,4400,13796.2000000477,0,NA,"Rating Scale","Rating Scale",2,"object-53","BIQ",NA,"SUPPRF25498"
"12",1709926870277,"08/03/2024 19:41:10",1709908870277,-5,"08/03/2024 09:41:10",170281,5,"task-gjqt",NA,35910860,10613094,NA,"complete",NA,"65eb687df10847cd0277edfc","computer","Desktop or Laptop","Windows 10","Chrome 122.0.0.0","1280x720","1280x551",NA,NA,0,"BIQ (Charlotte)",3,"GHFIEJDACB","Passed AC2",NA,"Spreadsheet1",1,"BIQ","Screen 3","iz3the",3,"response","2",11066.2,18182.3,18197.0999999046,11066.2,18182.3,18197.0999999046,1,11066.2,7130.89999990464,0,NA,"Rating Scale","Rating Scale",9,"object-60","BIQ",NA,"SUPPRF25498"
"13",1709926870278,"08/03/2024 19:41:10",1709908870278,-5,"08/03/2024 09:41:10",170281,5,"task-gjqt",NA,35910860,10613094,NA,"complete",NA,"65eb687df10847cd0277edfc","computer","Desktop or Laptop","Windows 10","Chrome 122.0.0.0","1280x720","1280x551",NA,NA,0,"BIQ (Charlotte)",3,"GHFIEJDACB","Passed AC2",NA,"Spreadsheet1",1,"BIQ","Screen 3","iz3the",3,"response","3",13899.4,18182.3,18197.7999999523,13899.4,18182.3,18197.7999999523,1,13899.4,4298.39999995232,0,NA,"Rating Scale","Rating Scale",16,"object-67","BIQ",NA,"SUPPRF25498"
"14",1709926870285,"08/03/2024 19:41:10",1709908870285,-5,"08/03/2024 09:41:10",170281,5,"task-gjqt",NA,35910860,10613094,NA,"complete",NA,"65eb687df10847cd0277edfc","computer","Desktop or Laptop","Windows 10","Chrome 122.0.0.0","1280x720","1280x551",NA,NA,0,"BIQ (Charlotte)",3,"GHFIEJDACB","Passed AC2",NA,"Spreadsheet1",NA,"","","",NA,"5","END",NA,NA,NA,NA,NA,NA,0,NA,NA,NA,NA,"","",NA,"","",NA,"SUPPRF25498"
"1",1709927681907,"08/03/2024 19:54:41",1709909681907,-5,"08/03/2024 09:54:41",170281,5,"task-gjqt",NA,35911277,10613150,NA,"complete",NA,"65eb6af1674b59807821cea5","computer","Desktop or Laptop","Mac OS 10.15.7","Chrome 122.0.0.0","2560x1440","2540x1222",NA,NA,0,"BIQ (Charlotte)",3,"IJHAGBFCED","Passed AC2",NA,"Spreadsheet1",NA,"","","",NA,"5","BEGIN",NA,NA,NA,NA,NA,NA,0,NA,NA,NA,NA,"","",NA,"","",NA,"SUPPRF02691"
"2",1709927720139,"08/03/2024 19:55:20",1709909720139,-5,"08/03/2024 09:55:20",170281,5,"task-gjqt",NA,35911277,10613150,NA,"complete",NA,"65eb6af1674b59807821cea5","computer","Desktop or Laptop","Mac OS 10.15.7","Chrome 122.0.0.0","2560x1440","2540x1222",NA,NA,0,"BIQ (Charlotte)",3,"IJHAGBFCED","Passed AC2",NA,"Spreadsheet1",1,"BIQ","Screen 1","9dh6eq",1,"continue","",38243.3,38229.4,38243.3,38243.3,38229.4,38243.3,1,38243.3,0,0,NA,"Click To Continue","Continue Button",23,"object-48","BIQ",NA,"SUPPRF02691"
"3",1709927720140,"08/03/2024 19:55:20",1709909720140,-5,"08/03/2024 09:55:20",170281,5,"task-gjqt",NA,35911277,10613150,NA,"complete",NA,"65eb6af1674b59807821cea5","computer","Desktop or Laptop","Mac OS 10.15.7","Chrome 122.0.0.0","2560x1440","2540x1222",NA,NA,0,"BIQ (Charlotte)",3,"IJHAGBFCED","Passed AC2",NA,"Spreadsheet1",1,"BIQ","Screen 1","9dh6eq",1,"response","2",9134.7,38229.4,38244.8999999046,9134.7,38229.4,38244.8999999046,1,9134.7,29110.1999999046,0,NA,"Rating Scale","Rating Scale",3,"object-5","BIQ",NA,"SUPPRF02691"
"4",1709927720140,"08/03/2024 19:55:20",1709909720140,-5,"08/03/2024 09:55:20",170281,5,"task-gjqt",NA,35911277,10613150,NA,"complete",NA,"65eb6af1674b59807821cea5","computer","Desktop or Laptop","Mac OS 10.15.7","Chrome 122.0.0.0","2560x1440","2540x1222",NA,NA,0,"BIQ (Charlotte)",3,"IJHAGBFCED","Passed AC2",NA,"Spreadsheet1",1,"BIQ","Screen 1","9dh6eq",1,"response","2",24307.9,38229.4,38245.2000000954,24307.9,38229.4,38245.2000000954,1,24307.9,13937.3000000954,0,NA,"Rating Scale","Rating Scale",10,"object-18","BIQ",NA,"SUPPRF02691"
"5",1709927720141,"08/03/2024 19:55:20",1709909720141,-5,"08/03/2024 09:55:20",170281,5,"task-gjqt",NA,35911277,10613150,NA,"complete",NA,"65eb6af1674b59807821cea5","computer","Desktop or Laptop","Mac OS 10.15.7","Chrome 122.0.0.0","2560x1440","2540x1222",NA,NA,0,"BIQ (Charlotte)",3,"IJHAGBFCED","Passed AC2",NA,"Spreadsheet1",1,"BIQ","Screen 1","9dh6eq",1,"response","6",36028.3,38229.4,38245.3999999046,36028.3,38229.4,38245.3999999046,1,36028.3,2217.09999990463,0,NA,"Rating Scale","Rating Scale",17,"object-80","BIQ",NA,"SUPPRF02691"
"6",1709927739336,"08/03/2024 19:55:39",1709909739336,-5,"08/03/2024 09:55:39",170281,5,"task-gjqt",NA,35911277,10613150,NA,"complete",NA,"65eb6af1674b59807821cea5","computer","Desktop or Laptop","Mac OS 10.15.7","Chrome 122.0.0.0","2560x1440","2540x1222",NA,NA,0,"BIQ (Charlotte)",3,"IJHAGBFCED","Passed AC2",NA,"Spreadsheet1",1,"BIQ","Screen 2","o21mwi",2,"continue","",19211.4,19205.7,19211.4,19211.4,19205.7,19211.4,1,19211.4,0,0,NA,"Click To Continue","Continue Button",22,"object-50","BIQ",NA,"SUPPRF02691"
"7",1709927739338,"08/03/2024 19:55:39",1709909739338,-5,"08/03/2024 09:55:39",170281,5,"task-gjqt",NA,35911277,10613150,NA,"complete",NA,"65eb6af1674b59807821cea5","computer","Desktop or Laptop","Mac OS 10.15.7","Chrome 122.0.0.0","2560x1440","2540x1222",NA,NA,0,"BIQ (Charlotte)",3,"IJHAGBFCED","Passed AC2",NA,"Spreadsheet1",1,"BIQ","Screen 2","o21mwi",2,"response","2",4551.5,19205.7,19213.1999997139,4551.5,19205.7,19213.1999997139,1,4551.5,14661.6999997139,0,NA,"Rating Scale","Rating Scale",2,"object-259","BIQ",NA,"SUPPRF02691"
"8",1709927739338,"08/03/2024 19:55:39",1709909739338,-5,"08/03/2024 09:55:39",170281,5,"task-gjqt",NA,35911277,10613150,NA,"complete",NA,"65eb6af1674b59807821cea5","computer","Desktop or Laptop","Mac OS 10.15.7","Chrome 122.0.0.0","2560x1440","2540x1222",NA,NA,0,"BIQ (Charlotte)",3,"IJHAGBFCED","Passed AC2",NA,"Spreadsheet1",1,"BIQ","Screen 2","o21mwi",2,"response","7",9302.9,19205.7,19213.4,9302.9,19205.7,19213.4,1,9302.9,9910.5,0,NA,"Rating Scale","Rating Scale",9,"object-36","BIQ",NA,"SUPPRF02691"
"9",1709927739338,"08/03/2024 19:55:39",1709909739338,-5,"08/03/2024 09:55:39",170281,5,"task-gjqt",NA,35911277,10613150,NA,"complete",NA,"65eb6af1674b59807821cea5","computer","Desktop or Laptop","Mac OS 10.15.7","Chrome 122.0.0.0","2560x1440","2540x1222",NA,NA,0,"BIQ (Charlotte)",3,"IJHAGBFCED","Passed AC2",NA,"Spreadsheet1",1,"BIQ","Screen 2","o21mwi",2,"response","6",13054.1,19205.7,19213.5999998093,13054.1,19205.7,19213.5999998093,1,13054.1,6159.49999980927,0,NA,"Rating Scale","Rating Scale",16,"object-86","BIQ",NA,"SUPPRF02691"
"10",1709927754748,"08/03/2024 19:55:54",1709909754748,-5,"08/03/2024 09:55:54",170281,5,"task-gjqt",NA,35911277,10613150,NA,"complete",NA,"65eb6af1674b59807821cea5","computer","Desktop or Laptop","Mac OS 10.15.7","Chrome 122.0.0.0","2560x1440","2540x1222",NA,NA,0,"BIQ (Charlotte)",3,"IJHAGBFCED","Passed AC2",NA,"Spreadsheet1",1,"BIQ","Screen 3","iz3the",3,"continue","",15417.7999999046,15405.4,15417.7999999046,15417.7999999046,15405.4,15417.7999999046,1,15417.7999999046,0,0,NA,"Click To Continue","Continue Button",22,"object-73","BIQ",NA,"SUPPRF02691"
"11",1709927754750,"08/03/2024 19:55:54",1709909754750,-5,"08/03/2024 09:55:54",170281,5,"task-gjqt",NA,35911277,10613150,NA,"complete",NA,"65eb6af1674b59807821cea5","computer","Desktop or Laptop","Mac OS 10.15.7","Chrome 122.0.0.0","2560x1440","2540x1222",NA,NA,0,"BIQ (Charlotte)",3,"IJHAGBFCED","Passed AC2",NA,"Spreadsheet1",1,"BIQ","Screen 3","iz3the",3,"response","8",3234.1,15405.4,15419.6000000954,3234.1,15405.4,15419.6000000954,1,3234.1,12185.5000000954,0,NA,"Rating Scale","Rating Scale",2,"object-53","BIQ",NA,"SUPPRF02691"
"12",1709927754750,"08/03/2024 19:55:54",1709909754750,-5,"08/03/2024 09:55:54",170281,5,"task-gjqt",NA,35911277,10613150,NA,"complete",NA,"65eb6af1674b59807821cea5","computer","Desktop or Laptop","Mac OS 10.15.7","Chrome 122.0.0.0","2560x1440","2540x1222",NA,NA,0,"BIQ (Charlotte)",3,"IJHAGBFCED","Passed AC2",NA,"Spreadsheet1",1,"BIQ","Screen 3","iz3the",3,"response","8",8102.89999999999,15405.4,15419.7999999046,8102.89999999999,15405.4,15419.7999999046,1,8102.89999999999,7316.89999990464,0,NA,"Rating Scale","Rating Scale",9,"object-60","BIQ",NA,"SUPPRF02691"
"13",1709927754750,"08/03/2024 19:55:54",1709909754750,-5,"08/03/2024 09:55:54",170281,5,"task-gjqt",NA,35911277,10613150,NA,"complete",NA,"65eb6af1674b59807821cea5","computer","Desktop or Laptop","Mac OS 10.15.7","Chrome 122.0.0.0","2560x1440","2540x1222",NA,NA,0,"BIQ (Charlotte)",3,"IJHAGBFCED","Passed AC2",NA,"Spreadsheet1",1,"BIQ","Screen 3","iz3the",3,"response","7",13671.4,15405.4,15419.9999997139,13671.4,15405.4,15419.9999997139,1,13671.4,1748.5999997139,0,NA,"Rating Scale","Rating Scale",16,"object-67","BIQ",NA,"SUPPRF02691"
"14",1709927754753,"08/03/2024 19:55:54",1709909754753,-5,"08/03/2024 09:55:54",170281,5,"task-gjqt",NA,35911277,10613150,NA,"complete",NA,"65eb6af1674b59807821cea5","computer","Desktop or Laptop","Mac OS 10.15.7","Chrome 122.0.0.0","2560x1440","2540x1222",NA,NA,0,"BIQ (Charlotte)",3,"IJHAGBFCED","Passed AC2",NA,"Spreadsheet1",NA,"","","",NA,"5","END",NA,NA,NA,NA,NA,NA,0,NA,NA,NA,NA,"","",NA,"","",NA,"SUPPRF02691"
"1",1709927546675,"08/03/2024 19:52:26",1709927546675,0,"08/03/2024 19:52:26",170281,5,"task-gjqt",NA,35911237,10613153,NA,"complete",NA,"65eb6b37bc066fbabecd9723","computer","Desktop or Laptop","Windows 10","Chrome 122.0.0.0","1536x864","850x728",NA,NA,0,"BIQ (Charlotte)",3,"HIGJFAEBDC","Passed AC2",NA,"Spreadsheet1",NA,"","","",NA,"5","BEGIN",NA,NA,NA,NA,NA,NA,0,NA,NA,NA,NA,"","",NA,"","",NA,"SUPPRF64782"
"2",1709927584299,"08/03/2024 19:53:04",1709927584299,0,"08/03/2024 19:53:04",170281,5,"task-gjqt",NA,35911237,10613153,NA,"complete",NA,"65eb6b37bc066fbabecd9723","computer","Desktop or Laptop","Windows 10","Chrome 122.0.0.0","1536x864","850x728",NA,NA,0,"BIQ (Charlotte)",3,"HIGJFAEBDC","Passed AC2",NA,"Spreadsheet1",1,"BIQ","Screen 1","9dh6eq",1,"continue","",37631.4200000358,37616.72,37631.4200000358,37631.4200000358,37616.72,37631.4200000358,1,37631.4200000358,0,0,NA,"Click To Continue","Continue Button",23,"object-48","BIQ",NA,"SUPPRF64782"
"3",1709927584301,"08/03/2024 19:53:04",1709927584301,0,"08/03/2024 19:53:04",170281,5,"task-gjqt",NA,35911237,10613153,NA,"complete",NA,"65eb6b37bc066fbabecd9723","computer","Desktop or Laptop","Windows 10","Chrome 122.0.0.0","1536x864","850x728",NA,NA,0,"BIQ (Charlotte)",3,"HIGJFAEBDC","Passed AC2",NA,"Spreadsheet1",1,"BIQ","Screen 1","9dh6eq",1,"response","6",14187.12,37616.72,37633.32,14187.12,37616.72,37633.32,1,14187.12,23446.2,0,NA,"Rating Scale","Rating Scale",3,"object-5","BIQ",NA,"SUPPRF64782"
"4",1709927584301,"08/03/2024 19:53:04",1709927584301,0,"08/03/2024 19:53:04",170281,5,"task-gjqt",NA,35911237,10613153,NA,"complete",NA,"65eb6b37bc066fbabecd9723","computer","Desktop or Laptop","Windows 10","Chrome 122.0.0.0","1536x864","850x728",NA,NA,0,"BIQ (Charlotte)",3,"HIGJFAEBDC","Passed AC2",NA,"Spreadsheet1",1,"BIQ","Screen 1","9dh6eq",1,"response","3",17001.22,37616.72,37633.32,17001.22,37616.72,37633.32,1,17001.22,20632.1,0,NA,"Rating Scale","Rating Scale",10,"object-18","BIQ",NA,"SUPPRF64782"
"5",1709927584301,"08/03/2024 19:53:04",1709927584301,0,"08/03/2024 19:53:04",170281,5,"task-gjqt",NA,35911237,10613153,NA,"complete",NA,"65eb6b37bc066fbabecd9723","computer","Desktop or Laptop","Windows 10","Chrome 122.0.0.0","1536x864","850x728",NA,NA,0,"BIQ (Charlotte)",3,"HIGJFAEBDC","Passed AC2",NA,"Spreadsheet1",1,"BIQ","Screen 1","9dh6eq",1,"response","3",18966.32,37616.72,37633.32,18966.32,37616.72,37633.32,1,18966.32,18667,0,NA,"Rating Scale","Rating Scale",17,"object-80","BIQ",NA,"SUPPRF64782"
"6",1709927608336,"08/03/2024 19:53:28",1709927608336,0,"08/03/2024 19:53:28",170281,5,"task-gjqt",NA,35911237,10613153,NA,"complete",NA,"65eb6b37bc066fbabecd9723","computer","Desktop or Laptop","Windows 10","Chrome 122.0.0.0","1536x864","850x728",NA,NA,0,"BIQ (Charlotte)",3,"HIGJFAEBDC","Passed AC2",NA,"Spreadsheet1",1,"BIQ","Screen 2","o21mwi",2,"continue","",24052.8,24045.6,24052.8,24052.8,24045.6,24052.8,1,24052.8,0,0,NA,"Click To Continue","Continue Button",22,"object-50","BIQ",NA,"SUPPRF64782"
"7",1709927608339,"08/03/2024 19:53:28",1709927608339,0,"08/03/2024 19:53:28",170281,5,"task-gjqt",NA,35911237,10613153,NA,"complete",NA,"65eb6b37bc066fbabecd9723","computer","Desktop or Laptop","Windows 10","Chrome 122.0.0.0","1536x864","850x728",NA,NA,0,"BIQ (Charlotte)",3,"HIGJFAEBDC","Passed AC2",NA,"Spreadsheet1",1,"BIQ","Screen 2","o21mwi",2,"response","7",12822.2,24045.6,24055.8,12822.2,24045.6,24055.8,1,12822.2,11233.6,0,NA,"Rating Scale","Rating Scale",2,"object-259","BIQ",NA,"SUPPRF64782"
"8",1709927608339,"08/03/2024 19:53:28",1709927608339,0,"08/03/2024 19:53:28",170281,5,"task-gjqt",NA,35911237,10613153,NA,"complete",NA,"65eb6b37bc066fbabecd9723","computer","Desktop or Laptop","Windows 10","Chrome 122.0.0.0","1536x864","850x728",NA,NA,0,"BIQ (Charlotte)",3,"HIGJFAEBDC","Passed AC2",NA,"Spreadsheet1",1,"BIQ","Screen 2","o21mwi",2,"response","2",16602.1,24045.6,24056.1000000119,16602.1,24045.6,24056.1000000119,1,16602.1,7454.00000001192,0,NA,"Rating Scale","Rating Scale",9,"object-36","BIQ",NA,"SUPPRF64782"
"9",1709927608339,"08/03/2024 19:53:28",1709927608339,0,"08/03/2024 19:53:28",170281,5,"task-gjqt",NA,35911237,10613153,NA,"complete",NA,"65eb6b37bc066fbabecd9723","computer","Desktop or Laptop","Windows 10","Chrome 122.0.0.0","1536x864","850x728",NA,NA,0,"BIQ (Charlotte)",3,"HIGJFAEBDC","Passed AC2",NA,"Spreadsheet1",1,"BIQ","Screen 2","o21mwi",2,"response","4",23462.9,24045.6,24056.4000000238,23462.9,24045.6,24056.4000000238,1,23462.9,593.500000023843,0,NA,"Rating Scale","Rating Scale",16,"object-86","BIQ",NA,"SUPPRF64782"
"10",1709927622230,"08/03/2024 19:53:42",1709927622230,0,"08/03/2024 19:53:42",170281,5,"task-gjqt",NA,35911237,10613153,NA,"complete",NA,"65eb6b37bc066fbabecd9723","computer","Desktop or Laptop","Windows 10","Chrome 122.0.0.0","1536x864","850x728",NA,NA,0,"BIQ (Charlotte)",3,"HIGJFAEBDC","Passed AC2",NA,"Spreadsheet1",1,"BIQ","Screen 3","iz3the",3,"continue","",13901.3000000238,13888,13901.3000000238,13901.3000000238,13888,13901.3000000238,1,13901.3000000238,0,0,NA,"Click To Continue","Continue Button",22,"object-73","BIQ",NA,"SUPPRF64782"
"11",1709927622232,"08/03/2024 19:53:42",1709927622232,0,"08/03/2024 19:53:42",170281,5,"task-gjqt",NA,35911237,10613153,NA,"complete",NA,"65eb6b37bc066fbabecd9723","computer","Desktop or Laptop","Windows 10","Chrome 122.0.0.0","1536x864","850x728",NA,NA,0,"BIQ (Charlotte)",3,"HIGJFAEBDC","Passed AC2",NA,"Spreadsheet1",1,"BIQ","Screen 3","iz3the",3,"response","1",8775.89999999999,13888,13903.2,8775.89999999999,13888,13903.2,1,8775.89999999999,5127.3,0,NA,"Rating Scale","Rating Scale",2,"object-53","BIQ",NA,"SUPPRF64782"
"12",1709927622232,"08/03/2024 19:53:42",1709927622232,0,"08/03/2024 19:53:42",170281,5,"task-gjqt",NA,35911237,10613153,NA,"complete",NA,"65eb6b37bc066fbabecd9723","computer","Desktop or Laptop","Windows 10","Chrome 122.0.0.0","1536x864","850x728",NA,NA,0,"BIQ (Charlotte)",3,"HIGJFAEBDC","Passed AC2",NA,"Spreadsheet1",1,"BIQ","Screen 3","iz3the",3,"response","1",11956.3,13888,13903.5000000119,11956.3,13888,13903.5000000119,1,11956.3,1947.20000001192,0,NA,"Rating Scale","Rating Scale",9,"object-60","BIQ",NA,"SUPPRF64782"
"13",1709927622232,"08/03/2024 19:53:42",1709927622232,0,"08/03/2024 19:53:42",170281,5,"task-gjqt",NA,35911237,10613153,NA,"complete",NA,"65eb6b37bc066fbabecd9723","computer","Desktop or Laptop","Windows 10","Chrome 122.0.0.0","1536x864","850x728",NA,NA,0,"BIQ (Charlotte)",3,"HIGJFAEBDC","Passed AC2",NA,"Spreadsheet1",1,"BIQ","Screen 3","iz3the",3,"response","4",13288.5,13888,13903.7,13288.5,13888,13903.7,1,13288.5,615.199999999997,0,NA,"Rating Scale","Rating Scale",16,"object-67","BIQ",NA,"SUPPRF64782"
"14",1709927622235,"08/03/2024 19:53:42",1709927622235,0,"08/03/2024 19:53:42",170281,5,"task-gjqt",NA,35911237,10613153,NA,"complete",NA,"65eb6b37bc066fbabecd9723","computer","Desktop or Laptop","Windows 10","Chrome 122.0.0.0","1536x864","850x728",NA,NA,0,"BIQ (Charlotte)",3,"HIGJFAEBDC","Passed AC2",NA,"Spreadsheet1",NA,"","","",NA,"5","END",NA,NA,NA,NA,NA,NA,0,NA,NA,NA,NA,"","",NA,"","",NA,"SUPPRF64782"
"1",1709928123225,"08/03/2024 20:02:03",1709906523225,-6,"08/03/2024 08:02:03",170281,5,"task-gjqt",NA,35911450,10613159,NA,"complete",NA,"65eb6b45b174e94f5eb8edca","computer","Desktop or Laptop","Mac OS 10.15.7","Chrome 121.0.0.0","1440x900","1440x779",NA,NA,0,"BIQ (Charlotte)",3,"JAIBHCGDFE","Passed AC2",NA,"Spreadsheet1",NA,"","","",NA,"5","BEGIN",NA,NA,NA,NA,NA,NA,0,NA,NA,NA,NA,"","",NA,"","",NA,"SUPPRF76403"
"2",1709928152854,"08/03/2024 20:02:32",1709906552854,-6,"08/03/2024 08:02:32",170281,5,"task-gjqt",NA,35911450,10613159,NA,"complete",NA,"65eb6b45b174e94f5eb8edca","computer","Desktop or Laptop","Mac OS 10.15.7","Chrome 121.0.0.0","1440x900","1440x779",NA,NA,0,"BIQ (Charlotte)",3,"JAIBHCGDFE","Passed AC2",NA,"Spreadsheet1",1,"BIQ","Screen 1","9dh6eq",1,"continue","",29633.616,29616.916,29633.616,29633.616,29616.916,29633.616,1,29633.616,0,0,NA,"Click To Continue","Continue Button",23,"object-48","BIQ",NA,"SUPPRF76403"
"3",1709928152856,"08/03/2024 20:02:32",1709906552856,-6,"08/03/2024 08:02:32",170281,5,"task-gjqt",NA,35911450,10613159,NA,"complete",NA,"65eb6b45b174e94f5eb8edca","computer","Desktop or Laptop","Mac OS 10.15.7","Chrome 121.0.0.0","1440x900","1440x779",NA,NA,0,"BIQ (Charlotte)",3,"JAIBHCGDFE","Passed AC2",NA,"Spreadsheet1",1,"BIQ","Screen 1","9dh6eq",1,"response","6",15916.816,29616.916,29633.616,15916.816,29616.916,29633.616,1,15916.816,13716.8,0,NA,"Rating Scale","Rating Scale",3,"object-5","BIQ",NA,"SUPPRF76403"
"4",1709928152857,"08/03/2024 20:02:32",1709906552857,-6,"08/03/2024 08:02:32",170281,5,"task-gjqt",NA,35911450,10613159,NA,"complete",NA,"65eb6b45b174e94f5eb8edca","computer","Desktop or Laptop","Mac OS 10.15.7","Chrome 121.0.0.0","1440x900","1440x779",NA,NA,0,"BIQ (Charlotte)",3,"JAIBHCGDFE","Passed AC2",NA,"Spreadsheet1",1,"BIQ","Screen 1","9dh6eq",1,"response","5",24600.316,29616.916,29633.616,24600.316,29616.916,29633.616,1,24600.316,5033.30000000001,0,NA,"Rating Scale","Rating Scale",10,"object-18","BIQ",NA,"SUPPRF76403"
"5",1709928152857,"08/03/2024 20:02:32",1709906552857,-6,"08/03/2024 08:02:32",170281,5,"task-gjqt",NA,35911450,10613159,NA,"complete",NA,"65eb6b45b174e94f5eb8edca","computer","Desktop or Laptop","Mac OS 10.15.7","Chrome 121.0.0.0","1440x900","1440x779",NA,NA,0,"BIQ (Charlotte)",3,"JAIBHCGDFE","Passed AC2",NA,"Spreadsheet1",1,"BIQ","Screen 1","9dh6eq",1,"response","5",28850.216,29616.916,29633.616,28850.216,29616.916,29633.616,1,28850.216,783.400000000009,0,NA,"Rating Scale","Rating Scale",17,"object-80","BIQ",NA,"SUPPRF76403"
"6",1709928173445,"08/03/2024 20:02:53",1709906573445,-6,"08/03/2024 08:02:53",170281,5,"task-gjqt",NA,35911450,10613159,NA,"complete",NA,"65eb6b45b174e94f5eb8edca","computer","Desktop or Laptop","Mac OS 10.15.7","Chrome 121.0.0.0","1440x900","1440x779",NA,NA,0,"BIQ (Charlotte)",3,"JAIBHCGDFE","Passed AC2",NA,"Spreadsheet1",1,"BIQ","Screen 2","o21mwi",2,"continue","",20613.7000000238,20600,20613.7000000238,20613.7000000238,20600,20613.7000000238,1,20613.7000000238,0,0,NA,"Click To Continue","Continue Button",22,"object-50","BIQ",NA,"SUPPRF76403"
"7",1709928173447,"08/03/2024 20:02:53",1709906573447,-6,"08/03/2024 08:02:53",170281,5,"task-gjqt",NA,35911450,10613159,NA,"complete",NA,"65eb6b45b174e94f5eb8edca","computer","Desktop or Laptop","Mac OS 10.15.7","Chrome 121.0.0.0","1440x900","1440x779",NA,NA,0,"BIQ (Charlotte)",3,"JAIBHCGDFE","Passed AC2",NA,"Spreadsheet1",1,"BIQ","Screen 2","o21mwi",2,"response","8",4300,20600,20615.9000000715,4300,20600,20615.9000000715,1,4300,16315.9000000715,0,NA,"Rating Scale","Rating Scale",2,"object-259","BIQ",NA,"SUPPRF76403"
"8",1709928173447,"08/03/2024 20:02:53",1709906573447,-6,"08/03/2024 08:02:53",170281,5,"task-gjqt",NA,35911450,10613159,NA,"complete",NA,"65eb6b45b174e94f5eb8edca","computer","Desktop or Laptop","Mac OS 10.15.7","Chrome 121.0.0.0","1440x900","1440x779",NA,NA,0,"BIQ (Charlotte)",3,"JAIBHCGDFE","Passed AC2",NA,"Spreadsheet1",1,"BIQ","Screen 2","o21mwi",2,"response","1",10166.6,20600,20616.3000000477,10166.6,20600,20616.3000000477,1,10166.6,10449.7000000477,0,NA,"Rating Scale","Rating Scale",9,"object-36","BIQ",NA,"SUPPRF76403"
"9",1709928173447,"08/03/2024 20:02:53",1709906573447,-6,"08/03/2024 08:02:53",170281,5,"task-gjqt",NA,35911450,10613159,NA,"complete",NA,"65eb6b45b174e94f5eb8edca","computer","Desktop or Laptop","Mac OS 10.15.7","Chrome 121.0.0.0","1440x900","1440x779",NA,NA,0,"BIQ (Charlotte)",3,"JAIBHCGDFE","Passed AC2",NA,"Spreadsheet1",1,"BIQ","Screen 2","o21mwi",2,"response","1",19966.7,20600,20616.4999999762,19966.7,20600,20616.4999999762,1,19966.7,649.79999997616,0,NA,"Rating Scale","Rating Scale",16,"object-86","BIQ",NA,"SUPPRF76403"
"10",1709928185796,"08/03/2024 20:03:05",1709906585796,-6,"08/03/2024 08:03:05",170281,5,"task-gjqt",NA,35911450,10613159,NA,"complete",NA,"65eb6b45b174e94f5eb8edca","computer","Desktop or Laptop","Mac OS 10.15.7","Chrome 121.0.0.0","1440x900","1440x779",NA,NA,0,"BIQ (Charlotte)",3,"JAIBHCGDFE","Passed AC2",NA,"Spreadsheet1",1,"BIQ","Screen 3","iz3the",3,"continue","",12364.8000000477,12350,12364.8000000477,12364.8000000477,12350,12364.8000000477,1,12364.8000000477,0,0,NA,"Click To Continue","Continue Button",22,"object-73","BIQ",NA,"SUPPRF76403"
"11",1709928185799,"08/03/2024 20:03:05",1709906585799,-6,"08/03/2024 08:03:05",170281,5,"task-gjqt",NA,35911450,10613159,NA,"complete",NA,"65eb6b45b174e94f5eb8edca","computer","Desktop or Laptop","Mac OS 10.15.7","Chrome 121.0.0.0","1440x900","1440x779",NA,NA,0,"BIQ (Charlotte)",3,"JAIBHCGDFE","Passed AC2",NA,"Spreadsheet1",1,"BIQ","Screen 3","iz3the",3,"response","0",4300,12350,12366.7,4300,12350,12366.7,1,4300,8066.69999999999,0,NA,"Rating Scale","Rating Scale",2,"object-53","BIQ",NA,"SUPPRF76403"
"12",1709928185799,"08/03/2024 20:03:05",1709906585799,-6,"08/03/2024 08:03:05",170281,5,"task-gjqt",NA,35911450,10613159,NA,"complete",NA,"65eb6b45b174e94f5eb8edca","computer","Desktop or Laptop","Mac OS 10.15.7","Chrome 121.0.0.0","1440x900","1440x779",NA,NA,0,"BIQ (Charlotte)",3,"JAIBHCGDFE","Passed AC2",NA,"Spreadsheet1",1,"BIQ","Screen 3","iz3the",3,"response","0",6500,12350,12366.7,6500,12350,12366.7,1,6500,5866.69999999999,0,NA,"Rating Scale","Rating Scale",9,"object-60","BIQ",NA,"SUPPRF76403"
"13",1709928185800,"08/03/2024 20:03:05",1709906585800,-6,"08/03/2024 08:03:05",170281,5,"task-gjqt",NA,35911450,10613159,NA,"complete",NA,"65eb6b45b174e94f5eb8edca","computer","Desktop or Laptop","Mac OS 10.15.7","Chrome 121.0.0.0","1440x900","1440x779",NA,NA,0,"BIQ (Charlotte)",3,"JAIBHCGDFE","Passed AC2",NA,"Spreadsheet1",1,"BIQ","Screen 3","iz3the",3,"response","2",9866.7,12350,12366.7,9866.7,12350,12366.7,1,9866.7,2499.99999999999,0,NA,"Rating Scale","Rating Scale",16,"object-67","BIQ",NA,"SUPPRF76403"
"14",1709928185804,"08/03/2024 20:03:05",1709906585804,-6,"08/03/2024 08:03:05",170281,5,"task-gjqt",NA,35911450,10613159,NA,"complete",NA,"65eb6b45b174e94f5eb8edca","computer","Desktop or Laptop","Mac OS 10.15.7","Chrome 121.0.0.0","1440x900","1440x779",NA,NA,0,"BIQ (Charlotte)",3,"JAIBHCGDFE","Passed AC2",NA,"Spreadsheet1",NA,"","","",NA,"5","END",NA,NA,NA,NA,NA,NA,0,NA,NA,NA,NA,"","",NA,"","",NA,"SUPPRF76403"
"1",1709928086147,"08/03/2024 20:01:26",1709910086147,-5,"08/03/2024 10:01:26",170281,5,"task-gjqt",NA,35911433,10613185,NA,"complete",NA,"65eb6ba3d55abbe87ac74158","computer","Desktop or Laptop","Mac OS 10.15.7","Chrome 122.0.0.0","1440x900","1440x783",NA,NA,0,"BIQ (Charlotte)",3,"ABJCIDHEGF","Passed AC2",NA,"Spreadsheet1",NA,"","","",NA,"5","BEGIN",NA,NA,NA,NA,NA,NA,0,NA,NA,NA,NA,"","",NA,"","",NA,"SUPPRF04400"
"2",1709928124119,"08/03/2024 20:02:04",1709910124119,-5,"08/03/2024 10:02:04",170281,5,"task-gjqt",NA,35911433,10613185,NA,"complete",NA,"65eb6ba3d55abbe87ac74158","computer","Desktop or Laptop","Mac OS 10.15.7","Chrome 122.0.0.0","1440x900","1440x783",NA,NA,0,"BIQ (Charlotte)",3,"ABJCIDHEGF","Passed AC2",NA,"Spreadsheet1",1,"BIQ","Screen 1","9dh6eq",1,"continue","",37984.738,37967.938,37984.738,37984.738,37967.938,37984.738,1,37984.738,0,0,NA,"Click To Continue","Continue Button",23,"object-48","BIQ",NA,"SUPPRF04400"
"3",1709928124121,"08/03/2024 20:02:04",1709910124121,-5,"08/03/2024 10:02:04",170281,5,"task-gjqt",NA,35911433,10613185,NA,"complete",NA,"65eb6ba3d55abbe87ac74158","computer","Desktop or Laptop","Mac OS 10.15.7","Chrome 122.0.0.0","1440x900","1440x783",NA,NA,0,"BIQ (Charlotte)",3,"ABJCIDHEGF","Passed AC2",NA,"Spreadsheet1",1,"BIQ","Screen 1","9dh6eq",1,"response","6",25851.038,37967.938,37984.738,25851.038,37967.938,37984.738,1,25851.038,12133.7,0,NA,"Rating Scale","Rating Scale",3,"object-5","BIQ",NA,"SUPPRF04400"
"4",1709928124121,"08/03/2024 20:02:04",1709910124121,-5,"08/03/2024 10:02:04",170281,5,"task-gjqt",NA,35911433,10613185,NA,"complete",NA,"65eb6ba3d55abbe87ac74158","computer","Desktop or Laptop","Mac OS 10.15.7","Chrome 122.0.0.0","1440x900","1440x783",NA,NA,0,"BIQ (Charlotte)",3,"ABJCIDHEGF","Passed AC2",NA,"Spreadsheet1",1,"BIQ","Screen 1","9dh6eq",1,"response","6",30317.538,37967.938,37984.738,30317.538,37967.938,37984.738,1,30317.538,7667.2,0,NA,"Rating Scale","Rating Scale",10,"object-18","BIQ",NA,"SUPPRF04400"
"5",1709928124121,"08/03/2024 20:02:04",1709910124121,-5,"08/03/2024 10:02:04",170281,5,"task-gjqt",NA,35911433,10613185,NA,"complete",NA,"65eb6ba3d55abbe87ac74158","computer","Desktop or Laptop","Mac OS 10.15.7","Chrome 122.0.0.0","1440x900","1440x783",NA,NA,0,"BIQ (Charlotte)",3,"ABJCIDHEGF","Passed AC2",NA,"Spreadsheet1",1,"BIQ","Screen 1","9dh6eq",1,"response","1",33834.238,37967.938,37984.738,33834.238,37967.938,37984.738,1,33834.238,4150.50000000001,0,NA,"Rating Scale","Rating Scale",17,"object-80","BIQ",NA,"SUPPRF04400"
"6",1709928149228,"08/03/2024 20:02:29",1709910149228,-5,"08/03/2024 10:02:29",170281,5,"task-gjqt",NA,35911433,10613185,NA,"complete",NA,"65eb6ba3d55abbe87ac74158","computer","Desktop or Laptop","Mac OS 10.15.7","Chrome 122.0.0.0","1440x900","1440x783",NA,NA,0,"BIQ (Charlotte)",3,"ABJCIDHEGF","Passed AC2",NA,"Spreadsheet1",1,"BIQ","Screen 2","o21mwi",2,"continue","",25131.5000000715,25116.9,25131.5000000715,25131.5000000715,25116.9,25131.5000000715,1,25131.5000000715,0,0,NA,"Click To Continue","Continue Button",22,"object-50","BIQ",NA,"SUPPRF04400"
"7",1709928149231,"08/03/2024 20:02:29",1709910149231,-5,"08/03/2024 10:02:29",170281,5,"task-gjqt",NA,35911433,10613185,NA,"complete",NA,"65eb6ba3d55abbe87ac74158","computer","Desktop or Laptop","Mac OS 10.15.7","Chrome 122.0.0.0","1440x900","1440x783",NA,NA,0,"BIQ (Charlotte)",3,"ABJCIDHEGF","Passed AC2",NA,"Spreadsheet1",1,"BIQ","Screen 2","o21mwi",2,"response","6",4699.7,25116.9,25133.6,4699.7,25116.9,25133.6,1,4699.7,20433.9,0,NA,"Rating Scale","Rating Scale",2,"object-259","BIQ",NA,"SUPPRF04400"
"8",1709928149231,"08/03/2024 20:02:29",1709910149231,-5,"08/03/2024 10:02:29",170281,5,"task-gjqt",NA,35911433,10613185,NA,"complete",NA,"65eb6ba3d55abbe87ac74158","computer","Desktop or Laptop","Mac OS 10.15.7","Chrome 122.0.0.0","1440x900","1440x783",NA,NA,0,"BIQ (Charlotte)",3,"ABJCIDHEGF","Passed AC2",NA,"Spreadsheet1",1,"BIQ","Screen 2","o21mwi",2,"response","2",10116.7,25116.9,25133.6,10116.7,25116.9,25133.6,1,10116.7,15016.9,0,NA,"Rating Scale","Rating Scale",9,"object-36","BIQ",NA,"SUPPRF04400"
"9",1709928149232,"08/03/2024 20:02:29",1709910149232,-5,"08/03/2024 10:02:29",170281,5,"task-gjqt",NA,35911433,10613185,NA,"complete",NA,"65eb6ba3d55abbe87ac74158","computer","Desktop or Laptop","Mac OS 10.15.7","Chrome 122.0.0.0","1440x900","1440x783",NA,NA,0,"BIQ (Charlotte)",3,"ABJCIDHEGF","Passed AC2",NA,"Spreadsheet1",1,"BIQ","Screen 2","o21mwi",2,"response","1",24033.5,25116.9,25133.6,24033.5,25116.9,25133.6,1,24033.5,1100.09999999999,0,NA,"Rating Scale","Rating Scale",16,"object-86","BIQ",NA,"SUPPRF04400"
"10",1709928159711,"08/03/2024 20:02:39",1709910159711,-5,"08/03/2024 10:02:39",170281,5,"task-gjqt",NA,35911433,10613185,NA,"complete",NA,"65eb6ba3d55abbe87ac74158","computer","Desktop or Laptop","Mac OS 10.15.7","Chrome 122.0.0.0","1440x900","1440x783",NA,NA,0,"BIQ (Charlotte)",3,"ABJCIDHEGF","Passed AC2",NA,"Spreadsheet1",1,"BIQ","Screen 3","iz3the",3,"continue","",10498.1000000715,10482.6,10498.1000000715,10498.1000000715,10482.6,10498.1000000715,1,10498.1000000715,0,0,NA,"Click To Continue","Continue Button",22,"object-73","BIQ",NA,"SUPPRF04400"
"11",1709928159715,"08/03/2024 20:02:39",1709910159715,-5,"08/03/2024 10:02:39",170281,5,"task-gjqt",NA,35911433,10613185,NA,"complete",NA,"65eb6ba3d55abbe87ac74158","computer","Desktop or Laptop","Mac OS 10.15.7","Chrome 122.0.0.0","1440x900","1440x783",NA,NA,0,"BIQ (Charlotte)",3,"ABJCIDHEGF","Passed AC2",NA,"Spreadsheet1",1,"BIQ","Screen 3","iz3the",3,"response","0",5433.5,10482.6,10498.2,5433.5,10482.6,10498.2,1,5433.5,5064.70000000001,0,NA,"Rating Scale","Rating Scale",2,"object-53","BIQ",NA,"SUPPRF04400"
"12",1709928159715,"08/03/2024 20:02:39",1709910159715,-5,"08/03/2024 10:02:39",170281,5,"task-gjqt",NA,35911433,10613185,NA,"complete",NA,"65eb6ba3d55abbe87ac74158","computer","Desktop or Laptop","Mac OS 10.15.7","Chrome 122.0.0.0","1440x900","1440x783",NA,NA,0,"BIQ (Charlotte)",3,"ABJCIDHEGF","Passed AC2",NA,"Spreadsheet1",1,"BIQ","Screen 3","iz3the",3,"response","0",7599.8,10482.6,10498.2,7599.8,10482.6,10498.2,1,7599.8,2898.40000000001,0,NA,"Rating Scale","Rating Scale",9,"object-60","BIQ",NA,"SUPPRF04400"
"13",1709928159716,"08/03/2024 20:02:39",1709910159716,-5,"08/03/2024 10:02:39",170281,5,"task-gjqt",NA,35911433,10613185,NA,"complete",NA,"65eb6ba3d55abbe87ac74158","computer","Desktop or Laptop","Mac OS 10.15.7","Chrome 122.0.0.0","1440x900","1440x783",NA,NA,0,"BIQ (Charlotte)",3,"ABJCIDHEGF","Passed AC2",NA,"Spreadsheet1",1,"BIQ","Screen 3","iz3the",3,"response","4",9916.2,10482.6,10498.2,9916.2,10482.6,10498.2,1,9916.2,582.000000000015,0,NA,"Rating Scale","Rating Scale",16,"object-67","BIQ",NA,"SUPPRF04400"
"14",1709928159722,"08/03/2024 20:02:39",1709910159722,-5,"08/03/2024 10:02:39",170281,5,"task-gjqt",NA,35911433,10613185,NA,"complete",NA,"65eb6ba3d55abbe87ac74158","computer","Desktop or Laptop","Mac OS 10.15.7","Chrome 122.0.0.0","1440x900","1440x783",NA,NA,0,"BIQ (Charlotte)",3,"ABJCIDHEGF","Passed AC2",NA,"Spreadsheet1",NA,"","","",NA,"5","END",NA,NA,NA,NA,NA,NA,0,NA,NA,NA,NA,"","",NA,"","",NA,"SUPPRF04400"
"1",1709929458072,"08/03/2024 20:24:18",1709907858072,-6,"08/03/2024 08:24:18",170281,5,"task-gjqt",NA,35911798,10613256,NA,"complete",NA,"65eb6e81466760163e0121c9","computer","Desktop or Laptop","Windows 10","Chrome 100.0.4896.75","1366x768","1366x617",NA,NA,0,"BIQ (Charlotte)",3,"BCADJEIFHG","Passed AC2",NA,"Spreadsheet1",NA,"","","",NA,"5","BEGIN",NA,NA,NA,NA,NA,NA,0,NA,NA,NA,NA,"","",NA,"","",NA,"SUPPRF05331"
"2",1709929558378,"08/03/2024 20:25:58",1709907958378,-6,"08/03/2024 08:25:58",170281,5,"task-gjqt",NA,35911798,10613256,NA,"complete",NA,"65eb6e81466760163e0121c9","computer","Desktop or Laptop","Windows 10","Chrome 100.0.4896.75","1366x768","1366x617",NA,NA,0,"BIQ (Charlotte)",3,"BCADJEIFHG","Passed AC2",NA,"Spreadsheet1",1,"BIQ","Screen 1","9dh6eq",1,"continue","",100330.284999952,100319.898,100330.284999952,100330.284999952,100319.898,100330.284999952,1,100330.284999952,0,0,NA,"Click To Continue","Continue Button",23,"object-48","BIQ",NA,"SUPPRF05331"
"3",1709929558381,"08/03/2024 20:25:58",1709907958381,-6,"08/03/2024 08:25:58",170281,5,"task-gjqt",NA,35911798,10613256,NA,"complete",NA,"65eb6e81466760163e0121c9","computer","Desktop or Laptop","Windows 10","Chrome 100.0.4896.75","1366x768","1366x617",NA,NA,0,"BIQ (Charlotte)",3,"BCADJEIFHG","Passed AC2",NA,"Spreadsheet1",1,"BIQ","Screen 1","9dh6eq",1,"response","7",33867.797,100319.898,100336.493,33867.797,100319.898,100336.493,1,33867.797,66468.696,0,NA,"Rating Scale","Rating Scale",3,"object-5","BIQ",NA,"SUPPRF05331"
"4",1709929558382,"08/03/2024 20:25:58",1709907958382,-6,"08/03/2024 08:25:58",170281,5,"task-gjqt",NA,35911798,10613256,NA,"complete",NA,"65eb6e81466760163e0121c9","computer","Desktop or Laptop","Windows 10","Chrome 100.0.4896.75","1366x768","1366x617",NA,NA,0,"BIQ (Charlotte)",3,"BCADJEIFHG","Passed AC2",NA,"Spreadsheet1",1,"BIQ","Screen 1","9dh6eq",1,"response","7",65802.277,100319.898,100336.493,65802.277,100319.898,100336.493,1,65802.277,34534.216,0,NA,"Rating Scale","Rating Scale",10,"object-18","BIQ",NA,"SUPPRF05331"
"5",1709929558383,"08/03/2024 20:25:58",1709907958383,-6,"08/03/2024 08:25:58",170281,5,"task-gjqt",NA,35911798,10613256,NA,"complete",NA,"65eb6e81466760163e0121c9","computer","Desktop or Laptop","Windows 10","Chrome 100.0.4896.75","1366x768","1366x617",NA,NA,0,"BIQ (Charlotte)",3,"BCADJEIFHG","Passed AC2",NA,"Spreadsheet1",1,"BIQ","Screen 1","9dh6eq",1,"response","0",96636.464,100319.898,100336.493,96636.464,100319.898,100336.493,1,96636.464,3700.02899999999,0,NA,"Rating Scale","Rating Scale",17,"object-80","BIQ",NA,"SUPPRF05331"
"6",1709929630034,"08/03/2024 20:27:10",1709908030034,-6,"08/03/2024 08:27:10",170281,5,"task-gjqt",NA,35911798,10613256,NA,"complete",NA,"65eb6e81466760163e0121c9","computer","Desktop or Laptop","Windows 10","Chrome 100.0.4896.75","1366x768","1366x617",NA,NA,0,"BIQ (Charlotte)",3,"BCADJEIFHG","Passed AC2",NA,"Spreadsheet1",1,"BIQ","Screen 2","o21mwi",2,"continue","",71670.6869999046,71669.012,71670.6869999046,71670.6869999046,71669.012,71670.6869999046,1,71670.6869999046,0,0,NA,"Click To Continue","Continue Button",22,"object-50","BIQ",NA,"SUPPRF05331"
"7",1709929630038,"08/03/2024 20:27:10",1709908030038,-6,"08/03/2024 08:27:10",170281,5,"task-gjqt",NA,35911798,10613256,NA,"complete",NA,"65eb6e81466760163e0121c9","computer","Desktop or Laptop","Windows 10","Chrome 100.0.4896.75","1366x768","1366x617",NA,NA,0,"BIQ (Charlotte)",3,"BCADJEIFHG","Passed AC2",NA,"Spreadsheet1",1,"BIQ","Screen 2","o21mwi",2,"response","0",9383.739,71669.012,71674.7870000477,9383.739,71669.012,71674.7870000477,1,9383.739,62291.0480000477,0,NA,"Rating Scale","Rating Scale",2,"object-259","BIQ",NA,"SUPPRF05331"
"8",1709929630039,"08/03/2024 20:27:10",1709908030039,-6,"08/03/2024 08:27:10",170281,5,"task-gjqt",NA,35911798,10613256,NA,"complete",NA,"65eb6e81466760163e0121c9","computer","Desktop or Laptop","Windows 10","Chrome 100.0.4896.75","1366x768","1366x617",NA,NA,0,"BIQ (Charlotte)",3,"BCADJEIFHG","Passed AC2",NA,"Spreadsheet1",1,"BIQ","Screen 2","o21mwi",2,"response","0",25667.662,71669.012,71675.6869999046,25667.662,71669.012,71675.6869999046,1,25667.662,46008.0249999046,0,NA,"Rating Scale","Rating Scale",9,"object-36","BIQ",NA,"SUPPRF05331"
"9",1709929630040,"08/03/2024 20:27:10",1709908030040,-6,"08/03/2024 08:27:10",170281,5,"task-gjqt",NA,35911798,10613256,NA,"complete",NA,"65eb6e81466760163e0121c9","computer","Desktop or Laptop","Windows 10","Chrome 100.0.4896.75","1366x768","1366x617",NA,NA,0,"BIQ (Charlotte)",3,"BCADJEIFHG","Passed AC2",NA,"Spreadsheet1",1,"BIQ","Screen 2","o21mwi",2,"response","0",70252.357,71669.012,71676.7870000477,70252.357,71669.012,71676.7870000477,1,70252.357,1424.43000004769,0,NA,"Rating Scale","Rating Scale",16,"object-86","BIQ",NA,"SUPPRF05331"
"10",1709929688777,"08/03/2024 20:28:08",1709908088777,-6,"08/03/2024 08:28:08",170281,5,"task-gjqt",NA,35911798,10613256,NA,"complete",NA,"65eb6e81466760163e0121c9","computer","Desktop or Laptop","Windows 10","Chrome 100.0.4896.75","1366x768","1366x617",NA,NA,0,"BIQ (Charlotte)",3,"BCADJEIFHG","Passed AC2",NA,"Spreadsheet1",1,"BIQ","Screen 3","iz3the",3,"continue","",58744.974999857,58735.238,58744.974999857,58744.974999857,58735.238,58744.974999857,1,58744.974999857,0,0,NA,"Click To Continue","Continue Button",22,"object-73","BIQ",NA,"SUPPRF05331"
"11",1709929688781,"08/03/2024 20:28:08",1709908088781,-6,"08/03/2024 08:28:08",170281,5,"task-gjqt",NA,35911798,10613256,NA,"complete",NA,"65eb6e81466760163e0121c9","computer","Desktop or Laptop","Windows 10","Chrome 100.0.4896.75","1366x768","1366x617",NA,NA,0,"BIQ (Charlotte)",3,"BCADJEIFHG","Passed AC2",NA,"Spreadsheet1",1,"BIQ","Screen 3","iz3the",3,"response","0",24117.599,58735.238,58749.575,24117.599,58735.238,58749.575,1,24117.599,34631.976,0,NA,"Rating Scale","Rating Scale",2,"object-53","BIQ",NA,"SUPPRF05331"
"12",1709929688782,"08/03/2024 20:28:08",1709908088782,-6,"08/03/2024 08:28:08",170281,5,"task-gjqt",NA,35911798,10613256,NA,"complete",NA,"65eb6e81466760163e0121c9","computer","Desktop or Laptop","Windows 10","Chrome 100.0.4896.75","1366x768","1366x617",NA,NA,0,"BIQ (Charlotte)",3,"BCADJEIFHG","Passed AC2",NA,"Spreadsheet1",1,"BIQ","Screen 3","iz3the",3,"response","0",56368.608,58735.238,58750.3749999523,56368.608,58735.238,58750.3749999523,1,56368.608,2381.76699995232,0,NA,"Rating Scale","Rating Scale",9,"object-60","BIQ",NA,"SUPPRF05331"
"13",1709929688783,"08/03/2024 20:28:08",1709908088783,-6,"08/03/2024 08:28:08",170281,5,"task-gjqt",NA,35911798,10613256,NA,"complete",NA,"65eb6e81466760163e0121c9","computer","Desktop or Laptop","Windows 10","Chrome 100.0.4896.75","1366x768","1366x617",NA,NA,0,"BIQ (Charlotte)",3,"BCADJEIFHG","Passed AC2",NA,"Spreadsheet1",1,"BIQ","Screen 3","iz3the",3,"response","0",57668.567,58735.238,58751.075,57668.567,58735.238,58751.075,1,57668.567,1082.508,0,NA,"Rating Scale","Rating Scale",16,"object-67","BIQ",NA,"SUPPRF05331"
"14",1709929688790,"08/03/2024 20:28:08",1709908088790,-6,"08/03/2024 08:28:08",170281,5,"task-gjqt",NA,35911798,10613256,NA,"complete",NA,"65eb6e81466760163e0121c9","computer","Desktop or Laptop","Windows 10","Chrome 100.0.4896.75","1366x768","1366x617",NA,NA,0,"BIQ (Charlotte)",3,"BCADJEIFHG","Passed AC2",NA,"Spreadsheet1",NA,"","","",NA,"5","END",NA,NA,NA,NA,NA,NA,0,NA,NA,NA,NA,"","",NA,"","",NA,"SUPPRF05331"
"1",1709928800840,"08/03/2024 20:13:20",1709928800840,0,"08/03/2024 20:13:20",170281,5,"task-gjqt",NA,35911649,10613288,NA,"complete",NA,"65eb706140566af92843b969","computer","Desktop or Laptop","Mac OS 10.15.7","Chrome 121.0.0.0","1280x800","1280x580",NA,NA,0,"BIQ (Charlotte)",3,"CDBEAFJGIH","Passed AC2",NA,"Spreadsheet1",NA,"","","",NA,"5","BEGIN",NA,NA,NA,NA,NA,NA,0,NA,NA,NA,NA,"","",NA,"","",NA,"SUPPRF97021"
"2",1709928811814,"08/03/2024 20:13:31",1709928811814,0,"08/03/2024 20:13:31",170281,5,"task-gjqt",NA,35911649,10613288,NA,"complete",NA,"65eb706140566af92843b969","computer","Desktop or Laptop","Mac OS 10.15.7","Chrome 121.0.0.0","1280x800","1280x580",NA,NA,0,"BIQ (Charlotte)",3,"CDBEAFJGIH","Passed AC2",NA,"Spreadsheet1",1,"BIQ","Screen 1","9dh6eq",1,"continue","",10999.64,10983.04,10999.64,10999.64,10983.04,10999.64,1,10999.64,0,0,NA,"Click To Continue","Continue Button",23,"object-48","BIQ",NA,"SUPPRF97021"
"3",1709928811816,"08/03/2024 20:13:31",1709928811816,0,"08/03/2024 20:13:31",170281,5,"task-gjqt",NA,35911649,10613288,NA,"complete",NA,"65eb706140566af92843b969","computer","Desktop or Laptop","Mac OS 10.15.7","Chrome 121.0.0.0","1280x800","1280x580",NA,NA,0,"BIQ (Charlotte)",3,"CDBEAFJGIH","Passed AC2",NA,"Spreadsheet1",1,"BIQ","Screen 1","9dh6eq",1,"response","5",4050.04,10983.04,10999.64,4050.04,10983.04,10999.64,1,4050.04,6949.6,0,NA,"Rating Scale","Rating Scale",3,"object-5","BIQ",NA,"SUPPRF97021"
"4",1709928811816,"08/03/2024 20:13:31",1709928811816,0,"08/03/2024 20:13:31",170281,5,"task-gjqt",NA,35911649,10613288,NA,"complete",NA,"65eb706140566af92843b969","computer","Desktop or Laptop","Mac OS 10.15.7","Chrome 121.0.0.0","1280x800","1280x580",NA,NA,0,"BIQ (Charlotte)",3,"CDBEAFJGIH","Passed AC2",NA,"Spreadsheet1",1,"BIQ","Screen 1","9dh6eq",1,"response","3",5283.34,10983.04,10999.64,5283.34,10983.04,10999.64,1,5283.34,5716.3,0,NA,"Rating Scale","Rating Scale",10,"object-18","BIQ",NA,"SUPPRF97021"
"5",1709928811817,"08/03/2024 20:13:31",1709928811817,0,"08/03/2024 20:13:31",170281,5,"task-gjqt",NA,35911649,10613288,NA,"complete",NA,"65eb706140566af92843b969","computer","Desktop or Laptop","Mac OS 10.15.7","Chrome 121.0.0.0","1280x800","1280x580",NA,NA,0,"BIQ (Charlotte)",3,"CDBEAFJGIH","Passed AC2",NA,"Spreadsheet1",1,"BIQ","Screen 1","9dh6eq",1,"response","4",10399.84,10983.04,10999.64,10399.84,10983.04,10999.64,1,10399.84,599.800000000001,0,NA,"Rating Scale","Rating Scale",17,"object-80","BIQ",NA,"SUPPRF97021"
"6",1709928819581,"08/03/2024 20:13:39",1709928819581,0,"08/03/2024 20:13:39",170281,5,"task-gjqt",NA,35911649,10613288,NA,"complete",NA,"65eb706140566af92843b969","computer","Desktop or Laptop","Mac OS 10.15.7","Chrome 121.0.0.0","1280x800","1280x580",NA,NA,0,"BIQ (Charlotte)",3,"CDBEAFJGIH","Passed AC2",NA,"Spreadsheet1",1,"BIQ","Screen 2","o21mwi",2,"continue","",7783.2,7766.6,7783.2,7783.2,7766.6,7783.2,1,7783.2,0,0,NA,"Click To Continue","Continue Button",22,"object-50","BIQ",NA,"SUPPRF97021"
"7",1709928819581,"08/03/2024 20:13:39",1709928819581,0,"08/03/2024 20:13:39",170281,5,"task-gjqt",NA,35911649,10613288,NA,"complete",NA,"65eb706140566af92843b969","computer","Desktop or Laptop","Mac OS 10.15.7","Chrome 121.0.0.0","1280x800","1280x580",NA,NA,0,"BIQ (Charlotte)",3,"CDBEAFJGIH","Passed AC2",NA,"Spreadsheet1",1,"BIQ","Screen 2","o21mwi",2,"response","5",3283.5,7766.6,7783.2,3283.5,7766.6,7783.2,1,3283.5,4499.7,0,NA,"Rating Scale","Rating Scale",2,"object-259","BIQ",NA,"SUPPRF97021"
"8",1709928819582,"08/03/2024 20:13:39",1709928819582,0,"08/03/2024 20:13:39",170281,5,"task-gjqt",NA,35911649,10613288,NA,"complete",NA,"65eb706140566af92843b969","computer","Desktop or Laptop","Mac OS 10.15.7","Chrome 121.0.0.0","1280x800","1280x580",NA,NA,0,"BIQ (Charlotte)",3,"CDBEAFJGIH","Passed AC2",NA,"Spreadsheet1",1,"BIQ","Screen 2","o21mwi",2,"response","5",4433.5,7766.6,7783.2,4433.5,7766.6,7783.2,1,4433.5,3349.7,0,NA,"Rating Scale","Rating Scale",9,"object-36","BIQ",NA,"SUPPRF97021"
"9",1709928819583,"08/03/2024 20:13:39",1709928819583,0,"08/03/2024 20:13:39",170281,5,"task-gjqt",NA,35911649,10613288,NA,"complete",NA,"65eb706140566af92843b969","computer","Desktop or Laptop","Mac OS 10.15.7","Chrome 121.0.0.0","1280x800","1280x580",NA,NA,0,"BIQ (Charlotte)",3,"CDBEAFJGIH","Passed AC2",NA,"Spreadsheet1",1,"BIQ","Screen 2","o21mwi",2,"response","3",6566.7,7766.6,7783.2,6566.7,7766.6,7783.2,1,6566.7,1216.5,0,NA,"Rating Scale","Rating Scale",16,"object-86","BIQ",NA,"SUPPRF97021"
"10",1709928824987,"08/03/2024 20:13:44",1709928824987,0,"08/03/2024 20:13:44",170281,5,"task-gjqt",NA,35911649,10613288,NA,"complete",NA,"65eb706140566af92843b969","computer","Desktop or Laptop","Mac OS 10.15.7","Chrome 121.0.0.0","1280x800","1280x580",NA,NA,0,"BIQ (Charlotte)",3,"CDBEAFJGIH","Passed AC2",NA,"Spreadsheet1",1,"BIQ","Screen 3","iz3the",3,"continue","",5424.20000019074,5416.7,5424.20000019074,5424.20000019074,5416.7,5424.20000019074,1,5424.20000019074,0,0,NA,"Click To Continue","Continue Button",22,"object-73","BIQ",NA,"SUPPRF97021"
"11",1709928824992,"08/03/2024 20:13:44",1709928824992,0,"08/03/2024 20:13:44",170281,5,"task-gjqt",NA,35911649,10613288,NA,"complete",NA,"65eb706140566af92843b969","computer","Desktop or Laptop","Mac OS 10.15.7","Chrome 121.0.0.0","1280x800","1280x580",NA,NA,0,"BIQ (Charlotte)",3,"CDBEAFJGIH","Passed AC2",NA,"Spreadsheet1",1,"BIQ","Screen 3","iz3the",3,"response","3",2233.3,5416.7,5429.79999961853,2233.3,5416.7,5429.79999961853,1,2233.3,3196.49999961853,0,NA,"Rating Scale","Rating Scale",2,"object-53","BIQ",NA,"SUPPRF97021"
"12",1709928824993,"08/03/2024 20:13:44",1709928824993,0,"08/03/2024 20:13:44",170281,5,"task-gjqt",NA,35911649,10613288,NA,"complete",NA,"65eb706140566af92843b969","computer","Desktop or Laptop","Mac OS 10.15.7","Chrome 121.0.0.0","1280x800","1280x580",NA,NA,0,"BIQ (Charlotte)",3,"CDBEAFJGIH","Passed AC2",NA,"Spreadsheet1",1,"BIQ","Screen 3","iz3the",3,"response","5",3599.9,5416.7,5430.59999980927,3599.9,5416.7,5430.59999980927,1,3599.9,1830.69999980927,0,NA,"Rating Scale","Rating Scale",9,"object-60","BIQ",NA,"SUPPRF97021"
"13",1709928824994,"08/03/2024 20:13:44",1709928824994,0,"08/03/2024 20:13:44",170281,5,"task-gjqt",NA,35911649,10613288,NA,"complete",NA,"65eb706140566af92843b969","computer","Desktop or Laptop","Mac OS 10.15.7","Chrome 121.0.0.0","1280x800","1280x580",NA,NA,0,"BIQ (Charlotte)",3,"CDBEAFJGIH","Passed AC2",NA,"Spreadsheet1",1,"BIQ","Screen 3","iz3the",3,"response","4",4500.2,5416.7,5431.4,4500.2,5416.7,5431.4,1,4500.2,931.200000000001,0,NA,"Rating Scale","Rating Scale",16,"object-67","BIQ",NA,"SUPPRF97021"
"14",1709928824999,"08/03/2024 20:13:44",1709928824999,0,"08/03/2024 20:13:44",170281,5,"task-gjqt",NA,35911649,10613288,NA,"complete",NA,"65eb706140566af92843b969","computer","Desktop or Laptop","Mac OS 10.15.7","Chrome 121.0.0.0","1280x800","1280x580",NA,NA,0,"BIQ (Charlotte)",3,"CDBEAFJGIH","Passed AC2",NA,"Spreadsheet1",NA,"","","",NA,"5","END",NA,NA,NA,NA,NA,NA,0,NA,NA,NA,NA,"","",NA,"","",NA,"SUPPRF97021"
"1",1709929842206,"08/03/2024 20:30:42",1709908242206,-6,"08/03/2024 08:30:42",170281,5,"task-gjqt",NA,35911879,10613311,NA,"complete",NA,"65eb7032eae2083a56a715b0","computer","Desktop or Laptop","Windows 10","Chrome 122.0.0.0","1536x864","1536x730",NA,NA,0,"BIQ (Charlotte)",3,"DECFBGAHJI","Passed AC2",NA,"Spreadsheet1",NA,"","","",NA,"5","BEGIN",NA,NA,NA,NA,NA,NA,0,NA,NA,NA,NA,"","",NA,"","",NA,"SUPPRF08502"
"2",1709929893714,"08/03/2024 20:31:33",1709908293714,-6,"08/03/2024 08:31:33",170281,5,"task-gjqt",NA,35911879,10613311,NA,"complete",NA,"65eb7032eae2083a56a715b0","computer","Desktop or Laptop","Windows 10","Chrome 122.0.0.0","1536x864","1536x730",NA,NA,0,"BIQ (Charlotte)",3,"DECFBGAHJI","Passed AC2",NA,"Spreadsheet1",1,"BIQ","Screen 1","9dh6eq",1,"continue","",51512.2,51505.3,51512.2,51512.2,51505.3,51512.2,1,51512.2,0,0,NA,"Click To Continue","Continue Button",23,"object-48","BIQ",NA,"SUPPRF08502"
"3",1709929893716,"08/03/2024 20:31:33",1709908293716,-6,"08/03/2024 08:31:33",170281,5,"task-gjqt",NA,35911879,10613311,NA,"complete",NA,"65eb7032eae2083a56a715b0","computer","Desktop or Laptop","Windows 10","Chrome 122.0.0.0","1536x864","1536x730",NA,NA,0,"BIQ (Charlotte)",3,"DECFBGAHJI","Passed AC2",NA,"Spreadsheet1",1,"BIQ","Screen 1","9dh6eq",1,"response","7",26790.8,51505.3,51512.2,26790.8,51505.3,51512.2,1,26790.8,24721.4,0,NA,"Rating Scale","Rating Scale",3,"object-5","BIQ",NA,"SUPPRF08502"
"4",1709929893716,"08/03/2024 20:31:33",1709908293716,-6,"08/03/2024 08:31:33",170281,5,"task-gjqt",NA,35911879,10613311,NA,"complete",NA,"65eb7032eae2083a56a715b0","computer","Desktop or Laptop","Windows 10","Chrome 122.0.0.0","1536x864","1536x730",NA,NA,0,"BIQ (Charlotte)",3,"DECFBGAHJI","Passed AC2",NA,"Spreadsheet1",1,"BIQ","Screen 1","9dh6eq",1,"response","6",38922.5,51505.3,51512.2,38922.5,51505.3,51512.2,1,38922.5,12589.7,0,NA,"Rating Scale","Rating Scale",10,"object-18","BIQ",NA,"SUPPRF08502"
"5",1709929893716,"08/03/2024 20:31:33",1709908293716,-6,"08/03/2024 08:31:33",170281,5,"task-gjqt",NA,35911879,10613311,NA,"complete",NA,"65eb7032eae2083a56a715b0","computer","Desktop or Laptop","Windows 10","Chrome 122.0.0.0","1536x864","1536x730",NA,NA,0,"BIQ (Charlotte)",3,"DECFBGAHJI","Passed AC2",NA,"Spreadsheet1",1,"BIQ","Screen 1","9dh6eq",1,"response","0",50054,51505.3,51512.2,50054,51505.3,51512.2,1,50054,1458.2,0,NA,"Rating Scale","Rating Scale",17,"object-80","BIQ",NA,"SUPPRF08502"
"6",1709929930872,"08/03/2024 20:32:10",1709908330872,-6,"08/03/2024 08:32:10",170281,5,"task-gjqt",NA,35911879,10613311,NA,"complete",NA,"65eb7032eae2083a56a715b0","computer","Desktop or Laptop","Windows 10","Chrome 122.0.0.0","1536x864","1536x730",NA,NA,0,"BIQ (Charlotte)",3,"DECFBGAHJI","Passed AC2",NA,"Spreadsheet1",1,"BIQ","Screen 2","o21mwi",2,"continue","",37166.900000006,37165.5,37166.900000006,37166.900000006,37165.5,37166.900000006,1,37166.900000006,0,0,NA,"Click To Continue","Continue Button",22,"object-50","BIQ",NA,"SUPPRF08502"
"7",1709929930874,"08/03/2024 20:32:10",1709908330874,-6,"08/03/2024 08:32:10",170281,5,"task-gjqt",NA,35911879,10613311,NA,"complete",NA,"65eb7032eae2083a56a715b0","computer","Desktop or Laptop","Windows 10","Chrome 122.0.0.0","1536x864","1536x730",NA,NA,0,"BIQ (Charlotte)",3,"DECFBGAHJI","Passed AC2",NA,"Spreadsheet1",1,"BIQ","Screen 2","o21mwi",2,"response","7",10853.8,37165.5,37169.700000003,10853.8,37165.5,37169.700000003,1,10853.8,26315.900000003,0,NA,"Rating Scale","Rating Scale",2,"object-259","BIQ",NA,"SUPPRF08502"
"8",1709929930875,"08/03/2024 20:32:10",1709908330875,-6,"08/03/2024 08:32:10",170281,5,"task-gjqt",NA,35911879,10613311,NA,"complete",NA,"65eb7032eae2083a56a715b0","computer","Desktop or Laptop","Windows 10","Chrome 122.0.0.0","1536x864","1536x730",NA,NA,0,"BIQ (Charlotte)",3,"DECFBGAHJI","Passed AC2",NA,"Spreadsheet1",1,"BIQ","Screen 2","o21mwi",2,"response","0",20680,37165.5,37170.200000003,20680,37165.5,37170.200000003,1,20680,16490.200000003,0,NA,"Rating Scale","Rating Scale",9,"object-36","BIQ",NA,"SUPPRF08502"
"9",1709929930875,"08/03/2024 20:32:10",1709908330875,-6,"08/03/2024 08:32:10",170281,5,"task-gjqt",NA,35911879,10613311,NA,"complete",NA,"65eb7032eae2083a56a715b0","computer","Desktop or Laptop","Windows 10","Chrome 122.0.0.0","1536x864","1536x730",NA,NA,0,"BIQ (Charlotte)",3,"DECFBGAHJI","Passed AC2",NA,"Spreadsheet1",1,"BIQ","Screen 2","o21mwi",2,"response","1",35200.3,37165.5,37170.6000000089,35200.3,37165.5,37170.6000000089,1,35200.3,1970.30000000894,0,NA,"Rating Scale","Rating Scale",16,"object-86","BIQ",NA,"SUPPRF08502"
"10",1709929955693,"08/03/2024 20:32:35",1709908355693,-6,"08/03/2024 08:32:35",170281,5,"task-gjqt",NA,35911879,10613311,NA,"complete",NA,"65eb7032eae2083a56a715b0","computer","Desktop or Laptop","Windows 10","Chrome 122.0.0.0","1536x864","1536x730",NA,NA,0,"BIQ (Charlotte)",3,"DECFBGAHJI","Passed AC2",NA,"Spreadsheet1",1,"BIQ","Screen 3","iz3the",3,"continue","",24822.5,24818.6,24822.5,24822.5,24818.6,24822.5,1,24822.5,0,0,NA,"Click To Continue","Continue Button",22,"object-73","BIQ",NA,"SUPPRF08502"
