"Event.Index","UTC.Timestamp","UTC.Date.and.Time","Local.Timestamp","Local.Timezone","Local.Date.and.Time","Experiment.ID","Experiment.Version","Tree.Node.Key","Repeat.Key","Schedule.ID","Participant.Private.ID","Participant.Starting.Group","Participant.Status","Participant.Completion.Code","Participant.External.Session.ID","Participant.Device.Type","Participant.Device","Participant.OS","Participant.Browser","Participant.Monitor.Size","Participant.Viewport.Size","Checkpoint","Room.ID","Room.Order","Task.Name","Task.Version","order.ot79","branch.g31k","branch.5gtn","Spreadsheet","Trial.Number","Display","Screen","Screen.ID","Screen.Counter","Response.Type","Response","Onset.Time","Clock.Time","Reaction.Time","Absolute.Onset.Time","Absolute.Clock.Time","Absolute.Reaction.Time","Correct","Response.Onset","Response.Duration","Proportion","Tag","Component.Name","Object.Name","Object.Number","Object.ID","Spreadsheet..display","Manipulation..Spreadsheet","Random_ID"
"1",1695668281055,"25/09/2023 18:58:01",1695653881055,-4,"25/09/2023 10:58:01",144247,6,"task-hbx7",NA,31848866,9416665,NA,"complete","idnqyy","34HJIJKLPBVBBWD04V75NV8J4L54VP","computer","Desktop or Laptop","Windows 10","Chrome 116.0.0.0","1600x900","1600x751",NA,NA,0,"Task Introduction and Instructions (Clone)",9,"BCADJEIFHG","Passed AC2","","Spreadsheet1",NA,"","","",NA,"5","BEGIN",NA,NA,NA,NA,NA,NA,0,NA,NA,NA,NA,"","",NA,"","",NA,"SUPAMT33623"
"2",1695668363644,"25/09/2023 18:59:23",1695653963644,-4,"25/09/2023 10:59:23",144247,6,"task-hbx7",NA,31848866,9416665,NA,"complete","idnqyy","34HJIJKLPBVBBWD04V75NV8J4L54VP","computer","Desktop or Laptop","Windows 10","Chrome 116.0.0.0","1600x900","1600x751",NA,NA,0,"Task Introduction and Instructions (Clone)",9,"BCADJEIFHG","Passed AC2","","Spreadsheet1",1,"Task Instructions","Screen 1","anr7sn",1,"continue","",81950.75,81937.5,81950.75,81950.75,81937.5,81950.75,1,81950.75,0,0,NA,"Click To Continue","Continue Button",2,"object-1944","Task Instructions",NA,"SUPAMT33623"
"3",1695668370346,"25/09/2023 18:59:30",1695653970346,-4,"25/09/2023 10:59:30",144247,6,"task-hbx7",NA,31848866,9416665,NA,"complete","idnqyy","34HJIJKLPBVBBWD04V75NV8J4L54VP","computer","Desktop or Laptop","Windows 10","Chrome 116.0.0.0","1600x900","1600x751",NA,NA,0,"Task Introduction and Instructions (Clone)",9,"BCADJEIFHG","Passed AC2","","Spreadsheet1",1,"Task Instructions","Screen 2","ce2tc8",2,"continue","",6715.25,6687.5,6715.25,6715.25,6687.5,6715.25,1,6715.25,0,0,NA,"Click To Continue","Continue Button",2,"object-7","Task Instructions",NA,"SUPAMT33623"
"4",1695668374069,"25/09/2023 18:59:34",1695653974069,-4,"25/09/2023 10:59:34",144247,6,"task-hbx7",NA,31848866,9416665,NA,"complete","idnqyy","34HJIJKLPBVBBWD04V75NV8J4L54VP","computer","Desktop or Laptop","Windows 10","Chrome 116.0.0.0","1600x900","1600x751",NA,NA,0,"Task Introduction and Instructions (Clone)",9,"BCADJEIFHG","Passed AC2","","Spreadsheet1",1,"Task Instructions","Screen 5","spepx9",3,"continue","",3750,3718.75,3750,3750,3718.75,3750,1,3750,0,0,NA,"Click To Continue","Continue Button",2,"object-9","Task Instructions",NA,"SUPAMT33623"
"5",1695668377496,"25/09/2023 18:59:37",1695653977496,-4,"25/09/2023 10:59:37",144247,6,"task-hbx7",NA,31848866,9416665,NA,"complete","idnqyy","34HJIJKLPBVBBWD04V75NV8J4L54VP","computer","Desktop or Laptop","Windows 10","Chrome 116.0.0.0","1600x900","1600x751",NA,NA,0,"Task Introduction and Instructions (Clone)",9,"BCADJEIFHG","Passed AC2","","Spreadsheet1",1,"Task Instructions","Screen 9","8nvnao",4,"continue","",3437.5,3406.25,3437.5,3437.5,3406.25,3437.5,1,3437.5,0,0,NA,"Click To Continue","Continue Button",2,"object-44","Task Instructions",NA,"SUPAMT33623"
"6",1695668377537,"25/09/2023 18:59:37",1695653977537,-4,"25/09/2023 10:59:37",144247,6,"task-hbx7",NA,31848866,9416665,NA,"complete","idnqyy","34HJIJKLPBVBBWD04V75NV8J4L54VP","computer","Desktop or Laptop","Windows 10","Chrome 116.0.0.0","1600x900","1600x751",NA,NA,0,"Task Introduction and Instructions (Clone)",9,"BCADJEIFHG","Passed AC2","","Spreadsheet1",NA,"","","",NA,"5","END",NA,NA,NA,NA,NA,NA,0,NA,NA,NA,NA,"","",NA,"","",NA,"SUPAMT33623"
"1",1695679411978,"25/09/2023 22:03:31",1695654211978,-7,"25/09/2023 08:03:31",144247,6,"task-hbx7",NA,31849495,9416678,NA,"complete","sioyut","3483FV8BEKIGTSJCZ9G9IOVM3EI260","computer","Desktop or Laptop","Windows 10","Chrome 117.0.0.0","1366x768","1366x619",NA,NA,0,"Task Introduction and Instructions (Clone)",9,"DECFBGAHJI","Passed AC2","","Spreadsheet1",NA,"","","",NA,"5","BEGIN",NA,NA,NA,NA,NA,NA,0,NA,NA,NA,NA,"","",NA,"","",NA,"SUPAMT52091"
"2",1695679415375,"25/09/2023 22:03:35",1695654215375,-7,"25/09/2023 08:03:35",144247,6,"task-hbx7",NA,31849495,9416678,NA,"complete","sioyut","3483FV8BEKIGTSJCZ9G9IOVM3EI260","computer","Desktop or Laptop","Windows 10","Chrome 117.0.0.0","1366x768","1366x619",NA,NA,0,"Task Introduction and Instructions (Clone)",9,"DECFBGAHJI","Passed AC2","","Spreadsheet1",1,"Task Instructions","Screen 1","anr7sn",1,"continue","",3185,3156.25,3185,3185,3156.25,3185,1,3185,0,0,NA,"Click To Continue","Continue Button",2,"object-1944","Task Instructions",NA,"SUPAMT52091"
"3",1695679419679,"25/09/2023 22:03:39",1695654219679,-7,"25/09/2023 08:03:39",144247,6,"task-hbx7",NA,31849495,9416678,NA,"complete","sioyut","3483FV8BEKIGTSJCZ9G9IOVM3EI260","computer","Desktop or Laptop","Windows 10","Chrome 117.0.0.0","1366x768","1366x619",NA,NA,0,"Task Introduction and Instructions (Clone)",9,"DECFBGAHJI","Passed AC2","","Spreadsheet1",1,"Task Instructions","Screen 2","ce2tc8",2,"continue","",4332.75,4312.5,4332.75,4332.75,4312.5,4332.75,1,4332.75,0,0,NA,"Click To Continue","Continue Button",2,"object-7","Task Instructions",NA,"SUPAMT52091"
"4",1695679423111,"25/09/2023 22:03:43",1695654223111,-7,"25/09/2023 08:03:43",144247,6,"task-hbx7",NA,31849495,9416678,NA,"complete","sioyut","3483FV8BEKIGTSJCZ9G9IOVM3EI260","computer","Desktop or Laptop","Windows 10","Chrome 117.0.0.0","1366x768","1366x619",NA,NA,0,"Task Introduction and Instructions (Clone)",9,"DECFBGAHJI","Passed AC2","","Spreadsheet1",1,"Task Instructions","Screen 5","spepx9",3,"continue","",3452.25,3437.5,3452.25,3452.25,3437.5,3452.25,1,3452.25,0,0,NA,"Click To Continue","Continue Button",2,"object-9","Task Instructions",NA,"SUPAMT52091"
"5",1695679426831,"25/09/2023 22:03:46",1695654226831,-7,"25/09/2023 08:03:46",144247,6,"task-hbx7",NA,31849495,9416678,NA,"complete","sioyut","3483FV8BEKIGTSJCZ9G9IOVM3EI260","computer","Desktop or Laptop","Windows 10","Chrome 117.0.0.0","1366x768","1366x619",NA,NA,0,"Task Introduction and Instructions (Clone)",9,"DECFBGAHJI","Passed AC2","","Spreadsheet1",1,"Task Instructions","Screen 9","8nvnao",4,"continue","",3734.75,3718.75,3734.75,3734.75,3718.75,3734.75,1,3734.75,0,0,NA,"Click To Continue","Continue Button",2,"object-44","Task Instructions",NA,"SUPAMT52091"
"6",1695679426835,"25/09/2023 22:03:46",1695654226835,-7,"25/09/2023 08:03:46",144247,6,"task-hbx7",NA,31849495,9416678,NA,"complete","sioyut","3483FV8BEKIGTSJCZ9G9IOVM3EI260","computer","Desktop or Laptop","Windows 10","Chrome 117.0.0.0","1366x768","1366x619",NA,NA,0,"Task Introduction and Instructions (Clone)",9,"DECFBGAHJI","Passed AC2","","Spreadsheet1",NA,"","","",NA,"5","END",NA,NA,NA,NA,NA,NA,0,NA,NA,NA,NA,"","",NA,"","",NA,"SUPAMT52091"
"1",1695683422016,"25/09/2023 23:10:22",1695669022016,-4,"25/09/2023 15:10:22",144247,6,"task-hbx7",NA,31850093,9416677,NA,"complete","zcuqxv","33IZTU6J870MH6K6UB459JLAYCGSXN","computer","Desktop or Laptop","Windows 10","Chrome 117.0.0.0","1366x768","1366x619",NA,NA,0,"Task Introduction and Instructions (Clone)",9,"HIGJFAEBDC","Passed AC2","","Spreadsheet1",NA,"","","",NA,"5","BEGIN",NA,NA,NA,NA,NA,NA,0,NA,NA,NA,NA,"","",NA,"","",NA,"SUPAMT58446"
"2",1695683431723,"25/09/2023 23:10:31",1695669031723,-4,"25/09/2023 15:10:31",144247,6,"task-hbx7",NA,31850093,9416677,NA,"complete","zcuqxv","33IZTU6J870MH6K6UB459JLAYCGSXN","computer","Desktop or Laptop","Windows 10","Chrome 117.0.0.0","1366x768","1366x619",NA,NA,0,"Task Introduction and Instructions (Clone)",9,"HIGJFAEBDC","Passed AC2","","Spreadsheet1",1,"Task Instructions","Screen 1","anr7sn",1,"continue","",9694.75,9687.5,9694.75,9694.75,9687.5,9694.75,1,9694.75,0,0,NA,"Click To Continue","Continue Button",2,"object-1944","Task Instructions",NA,"SUPAMT58446"
"3",1695683440139,"25/09/2023 23:10:40",1695669040139,-4,"25/09/2023 15:10:40",144247,6,"task-hbx7",NA,31850093,9416677,NA,"complete","zcuqxv","33IZTU6J870MH6K6UB459JLAYCGSXN","computer","Desktop or Laptop","Windows 10","Chrome 117.0.0.0","1366x768","1366x619",NA,NA,0,"Task Introduction and Instructions (Clone)",9,"HIGJFAEBDC","Passed AC2","","Spreadsheet1",1,"Task Instructions","Screen 2","ce2tc8",2,"continue","",8423.25,8406.25,8423.25,8423.25,8406.25,8423.25,1,8423.25,0,0,NA,"Click To Continue","Continue Button",2,"object-7","Task Instructions",NA,"SUPAMT58446"
"4",1695683455023,"25/09/2023 23:10:55",1695669055023,-4,"25/09/2023 15:10:55",144247,6,"task-hbx7",NA,31850093,9416677,NA,"complete","zcuqxv","33IZTU6J870MH6K6UB459JLAYCGSXN","computer","Desktop or Laptop","Windows 10","Chrome 117.0.0.0","1366x768","1366x619",NA,NA,0,"Task Introduction and Instructions (Clone)",9,"HIGJFAEBDC","Passed AC2","","Spreadsheet1",1,"Task Instructions","Screen 5","spepx9",3,"continue","",14901,14875,14901,14901,14875,14901,1,14901,0,0,NA,"Click To Continue","Continue Button",2,"object-9","Task Instructions",NA,"SUPAMT58446"
"5",1695683458780,"25/09/2023 23:10:58",1695669058780,-4,"25/09/2023 15:10:58",144247,6,"task-hbx7",NA,31850093,9416677,NA,"complete","zcuqxv","33IZTU6J870MH6K6UB459JLAYCGSXN","computer","Desktop or Laptop","Windows 10","Chrome 117.0.0.0","1366x768","1366x619",NA,NA,0,"Task Introduction and Instructions (Clone)",9,"HIGJFAEBDC","Passed AC2","","Spreadsheet1",1,"Task Instructions","Screen 9","8nvnao",4,"continue","",3783,3781.25,3783,3783,3781.25,3783,1,3783,0,0,NA,"Click To Continue","Continue Button",2,"object-44","Task Instructions",NA,"SUPAMT58446"
"6",1695683458787,"25/09/2023 23:10:58",1695669058787,-4,"25/09/2023 15:10:58",144247,6,"task-hbx7",NA,31850093,9416677,NA,"complete","zcuqxv","33IZTU6J870MH6K6UB459JLAYCGSXN","computer","Desktop or Laptop","Windows 10","Chrome 117.0.0.0","1366x768","1366x619",NA,NA,0,"Task Introduction and Instructions (Clone)",9,"HIGJFAEBDC","Passed AC2","","Spreadsheet1",NA,"","","",NA,"5","END",NA,NA,NA,NA,NA,NA,0,NA,NA,NA,NA,"","",NA,"","",NA,"SUPAMT58446"
"1",1695679960662,"25/09/2023 22:12:40",1695654760662,-7,"25/09/2023 08:12:40",144247,6,"task-hbx7",NA,31850290,9416680,NA,"complete","jwvcoa","336KAV9KYWRICCTI5SB11FFF2OBY2W","computer","Desktop or Laptop","Windows 10","Chrome 117.0.0.0","1366x768","1517x687",NA,NA,0,"Task Introduction and Instructions (Clone)",9,"HIGJFAEBDC","Passed AC2","","Spreadsheet1",NA,"","","",NA,"5","BEGIN",NA,NA,NA,NA,NA,NA,0,NA,NA,NA,NA,"","",NA,"","",NA,"SUPAMT25665"
"2",1695679965214,"25/09/2023 22:12:45",1695654765214,-7,"25/09/2023 08:12:45",144247,6,"task-hbx7",NA,31850290,9416680,NA,"complete","jwvcoa","336KAV9KYWRICCTI5SB11FFF2OBY2W","computer","Desktop or Laptop","Windows 10","Chrome 117.0.0.0","1366x768","1517x687",NA,NA,0,"Task Introduction and Instructions (Clone)",9,"HIGJFAEBDC","Passed AC2","","Spreadsheet1",1,"Task Instructions","Screen 1","anr7sn",1,"continue","",4297.75,4281.25,4297.75,4297.75,4281.25,4297.75,1,4297.75,0,0,NA,"Click To Continue","Continue Button",2,"object-1944","Task Instructions",NA,"SUPAMT25665"
"3",1695679976605,"25/09/2023 22:12:56",1695654776605,-7,"25/09/2023 08:12:56",144247,6,"task-hbx7",NA,31850290,9416680,NA,"complete","jwvcoa","336KAV9KYWRICCTI5SB11FFF2OBY2W","computer","Desktop or Laptop","Windows 10","Chrome 117.0.0.0","1366x768","1517x687",NA,NA,0,"Task Introduction and Instructions (Clone)",9,"HIGJFAEBDC","Passed AC2","","Spreadsheet1",1,"Task Instructions","Screen 2","ce2tc8",2,"continue","",11406.25,11375,11406.25,11406.25,11375,11406.25,1,11406.25,0,0,NA,"Click To Continue","Continue Button",2,"object-7","Task Instructions",NA,"SUPAMT25665"
"4",1695679982754,"25/09/2023 22:13:02",1695654782754,-7,"25/09/2023 08:13:02",144247,6,"task-hbx7",NA,31850290,9416680,NA,"complete","jwvcoa","336KAV9KYWRICCTI5SB11FFF2OBY2W","computer","Desktop or Laptop","Windows 10","Chrome 117.0.0.0","1366x768","1517x687",NA,NA,0,"Task Introduction and Instructions (Clone)",9,"HIGJFAEBDC","Passed AC2","","Spreadsheet1",1,"Task Instructions","Screen 5","spepx9",3,"continue","",6181.5,6156.25,6181.5,6181.5,6156.25,6181.5,1,6181.5,0,0,NA,"Click To Continue","Continue Button",2,"object-9","Task Instructions",NA,"SUPAMT25665"
"5",1695679992166,"25/09/2023 22:13:12",1695654792166,-7,"25/09/2023 08:13:12",144247,6,"task-hbx7",NA,31850290,9416680,NA,"complete","jwvcoa","336KAV9KYWRICCTI5SB11FFF2OBY2W","computer","Desktop or Laptop","Windows 10","Chrome 117.0.0.0","1366x768","1517x687",NA,NA,0,"Task Introduction and Instructions (Clone)",9,"HIGJFAEBDC","Passed AC2","","Spreadsheet1",1,"Task Instructions","Screen 9","8nvnao",4,"continue","",9437.25,9406.25,9437.25,9437.25,9406.25,9437.25,1,9437.25,0,0,NA,"Click To Continue","Continue Button",2,"object-44","Task Instructions",NA,"SUPAMT25665"
"6",1695679992173,"25/09/2023 22:13:12",1695654792173,-7,"25/09/2023 08:13:12",144247,6,"task-hbx7",NA,31850290,9416680,NA,"complete","jwvcoa","336KAV9KYWRICCTI5SB11FFF2OBY2W","computer","Desktop or Laptop","Windows 10","Chrome 117.0.0.0","1366x768","1517x687",NA,NA,0,"Task Introduction and Instructions (Clone)",9,"HIGJFAEBDC","Passed AC2","","Spreadsheet1",NA,"","","",NA,"5","END",NA,NA,NA,NA,NA,NA,0,NA,NA,NA,NA,"","",NA,"","",NA,"SUPAMT25665"
"1",1695669218546,"25/09/2023 19:13:38",1695654818546,-4,"25/09/2023 11:13:38",144247,6,"task-hbx7",NA,31850378,9416674,NA,"complete","oimylj","3ZSY5X72N3ANMI61EVH40WPL06SORQ","computer","Desktop or Laptop","Windows 10","Chrome 117.0.0.0","1366x768","1362x598",NA,NA,0,"Task Introduction and Instructions (Clone)",9,"GHFIEJDACB","Failed AC2","Passed AC1","Spreadsheet1",NA,"","","",NA,"5","BEGIN",NA,NA,NA,NA,NA,NA,0,NA,NA,NA,NA,"","",NA,"","",NA,"SUPAMT61059"
"2",1695669257246,"25/09/2023 19:14:17",1695654857246,-4,"25/09/2023 11:14:17",144247,6,"task-hbx7",NA,31850378,9416674,NA,"complete","oimylj","3ZSY5X72N3ANMI61EVH40WPL06SORQ","computer","Desktop or Laptop","Windows 10","Chrome 117.0.0.0","1366x768","1362x598",NA,NA,0,"Task Introduction and Instructions (Clone)",9,"GHFIEJDACB","Failed AC2","Passed AC1","Spreadsheet1",1,"Task Instructions","Screen 1","anr7sn",1,"continue","",38661,38656.25,38661,38661,38656.25,38661,1,38661,0,0,NA,"Click To Continue","Continue Button",2,"object-1944","Task Instructions",NA,"SUPAMT61059"
"3",1695669262266,"25/09/2023 19:14:22",1695654862266,-4,"25/09/2023 11:14:22",144247,6,"task-hbx7",NA,31850378,9416674,NA,"complete","oimylj","3ZSY5X72N3ANMI61EVH40WPL06SORQ","computer","Desktop or Laptop","Windows 10","Chrome 117.0.0.0","1366x768","1362x598",NA,NA,0,"Task Introduction and Instructions (Clone)",9,"GHFIEJDACB","Failed AC2","Passed AC1","Spreadsheet1",1,"Task Instructions","Screen 2","ce2tc8",2,"continue","",5024.75,5000,5024.75,5024.75,5000,5024.75,1,5024.75,0,0,NA,"Click To Continue","Continue Button",2,"object-7","Task Instructions",NA,"SUPAMT61059"
"4",1695669268162,"25/09/2023 19:14:28",1695654868162,-4,"25/09/2023 11:14:28",144247,6,"task-hbx7",NA,31850378,9416674,NA,"complete","oimylj","3ZSY5X72N3ANMI61EVH40WPL06SORQ","computer","Desktop or Laptop","Windows 10","Chrome 117.0.0.0","1366x768","1362x598",NA,NA,0,"Task Introduction and Instructions (Clone)",9,"GHFIEJDACB","Failed AC2","Passed AC1","Spreadsheet1",1,"Task Instructions","Screen 5","spepx9",3,"continue","",5919.75,5906.25,5919.75,5919.75,5906.25,5919.75,1,5919.75,0,0,NA,"Click To Continue","Continue Button",2,"object-9","Task Instructions",NA,"SUPAMT61059"
"5",1695669272411,"25/09/2023 19:14:32",1695654872411,-4,"25/09/2023 11:14:32",144247,6,"task-hbx7",NA,31850378,9416674,NA,"complete","oimylj","3ZSY5X72N3ANMI61EVH40WPL06SORQ","computer","Desktop or Laptop","Windows 10","Chrome 117.0.0.0","1366x768","1362x598",NA,NA,0,"Task Introduction and Instructions (Clone)",9,"GHFIEJDACB","Failed AC2","Passed AC1","Spreadsheet1",1,"Task Instructions","Screen 9","8nvnao",4,"continue","",4263.5,4250,4263.5,4263.5,4250,4263.5,1,4263.5,0,0,NA,"Click To Continue","Continue Button",2,"object-44","Task Instructions",NA,"SUPAMT61059"
"6",1695669272415,"25/09/2023 19:14:32",1695654872415,-4,"25/09/2023 11:14:32",144247,6,"task-hbx7",NA,31850378,9416674,NA,"complete","oimylj","3ZSY5X72N3ANMI61EVH40WPL06SORQ","computer","Desktop or Laptop","Windows 10","Chrome 117.0.0.0","1366x768","1362x598",NA,NA,0,"Task Introduction and Instructions (Clone)",9,"GHFIEJDACB","Failed AC2","Passed AC1","Spreadsheet1",NA,"","","",NA,"5","END",NA,NA,NA,NA,NA,NA,0,NA,NA,NA,NA,"","",NA,"","",NA,"SUPAMT61059"
"1",1695691109868,"26/09/2023 01:18:29",1695673109868,-5,"25/09/2023 15:18:29",144247,6,"task-hbx7",NA,31850763,9416671,NA,"complete","jfajas","3DI28L7YXGDDHMUVMNZTPTDUS6T1E4","computer","Desktop or Laptop","Windows 10","Chrome 116.0.0.0","1366x768","1707x773",NA,NA,0,"Task Introduction and Instructions (Clone)",9,"EFDGCHBIAJ","Failed AC2","Passed AC1","Spreadsheet1",NA,"","","",NA,"5","BEGIN",NA,NA,NA,NA,NA,NA,0,NA,NA,NA,NA,"","",NA,"","",NA,"SUPAMT78856"
"2",1695691160352,"26/09/2023 01:19:20",1695673160352,-5,"25/09/2023 15:19:20",144247,6,"task-hbx7",NA,31850763,9416671,NA,"complete","jfajas","3DI28L7YXGDDHMUVMNZTPTDUS6T1E4","computer","Desktop or Laptop","Windows 10","Chrome 116.0.0.0","1366x768","1707x773",NA,NA,0,"Task Introduction and Instructions (Clone)",9,"EFDGCHBIAJ","Failed AC2","Passed AC1","Spreadsheet1",1,"Task Instructions","Screen 1","anr7sn",1,"continue","",50467.5,50437.5,50467.5,50467.5,50437.5,50467.5,1,50467.5,0,0,NA,"Click To Continue","Continue Button",2,"object-1944","Task Instructions",NA,"SUPAMT78856"
"3",1695691164077,"26/09/2023 01:19:24",1695673164077,-5,"25/09/2023 15:19:24",144247,6,"task-hbx7",NA,31850763,9416671,NA,"complete","jfajas","3DI28L7YXGDDHMUVMNZTPTDUS6T1E4","computer","Desktop or Laptop","Windows 10","Chrome 116.0.0.0","1366x768","1707x773",NA,NA,0,"Task Introduction and Instructions (Clone)",9,"EFDGCHBIAJ","Failed AC2","Passed AC1","Spreadsheet1",1,"Task Instructions","Screen 2","ce2tc8",2,"continue","",3757,3750,3757,3757,3750,3757,1,3757,0,0,NA,"Click To Continue","Continue Button",2,"object-7","Task Instructions",NA,"SUPAMT78856"
"4",1695691169384,"26/09/2023 01:19:29",1695673169384,-5,"25/09/2023 15:19:29",144247,6,"task-hbx7",NA,31850763,9416671,NA,"complete","jfajas","3DI28L7YXGDDHMUVMNZTPTDUS6T1E4","computer","Desktop or Laptop","Windows 10","Chrome 116.0.0.0","1366x768","1707x773",NA,NA,0,"Task Introduction and Instructions (Clone)",9,"EFDGCHBIAJ","Failed AC2","Passed AC1","Spreadsheet1",1,"Task Instructions","Screen 5","spepx9",3,"continue","",5312.5,5281.25,5312.5,5312.5,5281.25,5312.5,1,5312.5,0,0,NA,"Click To Continue","Continue Button",2,"object-9","Task Instructions",NA,"SUPAMT78856"
"5",1695691174550,"26/09/2023 01:19:34",1695673174550,-5,"25/09/2023 15:19:34",144247,6,"task-hbx7",NA,31850763,9416671,NA,"complete","jfajas","3DI28L7YXGDDHMUVMNZTPTDUS6T1E4","computer","Desktop or Laptop","Windows 10","Chrome 116.0.0.0","1366x768","1707x773",NA,NA,0,"Task Introduction and Instructions (Clone)",9,"EFDGCHBIAJ","Failed AC2","Passed AC1","Spreadsheet1",1,"Task Instructions","Screen 9","8nvnao",4,"continue","",5199.75,5187.5,5199.75,5199.75,5187.5,5199.75,1,5199.75,0,0,NA,"Click To Continue","Continue Button",2,"object-44","Task Instructions",NA,"SUPAMT78856"
"6",1695691174556,"26/09/2023 01:19:34",1695673174556,-5,"25/09/2023 15:19:34",144247,6,"task-hbx7",NA,31850763,9416671,NA,"complete","jfajas","3DI28L7YXGDDHMUVMNZTPTDUS6T1E4","computer","Desktop or Laptop","Windows 10","Chrome 116.0.0.0","1366x768","1707x773",NA,NA,0,"Task Introduction and Instructions (Clone)",9,"EFDGCHBIAJ","Failed AC2","Passed AC1","Spreadsheet1",NA,"","","",NA,"5","END",NA,NA,NA,NA,NA,NA,0,NA,NA,NA,NA,"","",NA,"","",NA,"SUPAMT78856"
"1",1695668149079,"25/09/2023 18:55:49",1695653749079,-4,"25/09/2023 10:55:49",144247,6,"task-hbx7",NA,31848761,9416701,NA,"rejected - time limit reached","","3UWN2HHPU44H5C62S5HWBHUCWY6SN3","computer","Desktop or Laptop","Windows 10","Chrome 114.0.0.0","1366x768","1366x598",NA,NA,0,"Task Introduction and Instructions (Clone)",9,"GHFIEJDACB","Passed AC2","","Spreadsheet1",NA,"","","",NA,"5","BEGIN",NA,NA,NA,NA,NA,NA,0,NA,NA,NA,NA,"","",NA,"","",NA,"SUPAMT82878"
"2",1695668153856,"25/09/2023 18:55:53",1695653753856,-4,"25/09/2023 10:55:53",144247,6,"task-hbx7",NA,31848761,9416701,NA,"rejected - time limit reached","","3UWN2HHPU44H5C62S5HWBHUCWY6SN3","computer","Desktop or Laptop","Windows 10","Chrome 114.0.0.0","1366x768","1366x598",NA,NA,0,"Task Introduction and Instructions (Clone)",9,"GHFIEJDACB","Passed AC2","","Spreadsheet1",1,"Task Instructions","Screen 1","anr7sn",1,"continue","",4251.47900019073,4241.113,4251.47900019073,4251.47900019073,4241.113,4251.47900019073,1,4251.47900019073,0,0,NA,"Click To Continue","Continue Button",2,"object-1944","Task Instructions",NA,"SUPAMT82878"
"3",1695668161727,"25/09/2023 18:56:01",1695653761727,-4,"25/09/2023 10:56:01",144247,6,"task-hbx7",NA,31848761,9416701,NA,"rejected - time limit reached","","3UWN2HHPU44H5C62S5HWBHUCWY6SN3","computer","Desktop or Laptop","Windows 10","Chrome 114.0.0.0","1366x768","1366x598",NA,NA,0,"Task Introduction and Instructions (Clone)",9,"GHFIEJDACB","Passed AC2","","Spreadsheet1",1,"Task Instructions","Screen 2","ce2tc8",2,"continue","",7882.066,7868.698,7882.066,7882.066,7868.698,7882.066,1,7882.066,0,0,NA,"Click To Continue","Continue Button",2,"object-7","Task Instructions",NA,"SUPAMT82878"
"4",1695668167552,"25/09/2023 18:56:07",1695653767552,-4,"25/09/2023 10:56:07",144247,6,"task-hbx7",NA,31848761,9416701,NA,"rejected - time limit reached","","3UWN2HHPU44H5C62S5HWBHUCWY6SN3","computer","Desktop or Laptop","Windows 10","Chrome 114.0.0.0","1366x768","1366x598",NA,NA,0,"Task Introduction and Instructions (Clone)",9,"GHFIEJDACB","Passed AC2","","Spreadsheet1",1,"Task Instructions","Screen 5","spepx9",3,"continue","",5838.16800019073,5833.314,5838.16800019073,5838.16800019073,5833.314,5838.16800019073,1,5838.16800019073,0,0,NA,"Click To Continue","Continue Button",2,"object-9","Task Instructions",NA,"SUPAMT82878"
"5",1695668171095,"25/09/2023 18:56:11",1695653771095,-4,"25/09/2023 10:56:11",144247,6,"task-hbx7",NA,31848761,9416701,NA,"rejected - time limit reached","","3UWN2HHPU44H5C62S5HWBHUCWY6SN3","computer","Desktop or Laptop","Windows 10","Chrome 114.0.0.0","1366x768","1366x598",NA,NA,0,"Task Introduction and Instructions (Clone)",9,"GHFIEJDACB","Passed AC2","","Spreadsheet1",1,"Task Instructions","Screen 9","8nvnao",4,"continue","",3548.4540005722,3537.66,3548.4540005722,3548.4540005722,3537.66,3548.4540005722,1,3548.4540005722,0,0,NA,"Click To Continue","Continue Button",2,"object-44","Task Instructions",NA,"SUPAMT82878"
"6",1695668171098,"25/09/2023 18:56:11",1695653771098,-4,"25/09/2023 10:56:11",144247,6,"task-hbx7",NA,31848761,9416701,NA,"rejected - time limit reached","","3UWN2HHPU44H5C62S5HWBHUCWY6SN3","computer","Desktop or Laptop","Windows 10","Chrome 114.0.0.0","1366x768","1366x598",NA,NA,0,"Task Introduction and Instructions (Clone)",9,"GHFIEJDACB","Passed AC2","","Spreadsheet1",NA,"","","",NA,"5","END",NA,NA,NA,NA,NA,NA,0,NA,NA,NA,NA,"","",NA,"","",NA,"SUPAMT82878"
"1",1695668290406,"25/09/2023 18:58:10",1695653890406,-4,"25/09/2023 10:58:10",144247,6,"task-hbx7",NA,31848894,9416698,NA,"complete","badtgi","3B3WTRP3DH13BBLAXGJL2YMOTFR92J","computer","Desktop or Laptop","Windows 10","Chrome 109.0.0.0","1366x768","1366x657",NA,NA,0,"Task Introduction and Instructions (Clone)",9,"FGEHDICJBA","Passed AC2","","Spreadsheet1",NA,"","","",NA,"5","BEGIN",NA,NA,NA,NA,NA,NA,0,NA,NA,NA,NA,"","",NA,"","",NA,"SUPAMT37681"
"2",1695668362689,"25/09/2023 18:59:22",1695653962689,-4,"25/09/2023 10:59:22",144247,6,"task-hbx7",NA,31848894,9416698,NA,"complete","badtgi","3B3WTRP3DH13BBLAXGJL2YMOTFR92J","computer","Desktop or Laptop","Windows 10","Chrome 109.0.0.0","1366x768","1366x657",NA,NA,0,"Task Introduction and Instructions (Clone)",9,"FGEHDICJBA","Passed AC2","","Spreadsheet1",1,"Task Instructions","Screen 1","anr7sn",1,"continue","",72240.4620001907,72221.175,72240.4620001907,72240.4620001907,72221.175,72240.4620001907,1,72240.4620001907,0,0,NA,"Click To Continue","Continue Button",2,"object-1944","Task Instructions",NA,"SUPAMT37681"
"3",1695668366068,"25/09/2023 18:59:26",1695653966068,-4,"25/09/2023 10:59:26",144247,6,"task-hbx7",NA,31848894,9416698,NA,"complete","badtgi","3B3WTRP3DH13BBLAXGJL2YMOTFR92J","computer","Desktop or Laptop","Windows 10","Chrome 109.0.0.0","1366x768","1366x657",NA,NA,0,"Task Introduction and Instructions (Clone)",9,"FGEHDICJBA","Passed AC2","","Spreadsheet1",1,"Task Instructions","Screen 2","ce2tc8",2,"continue","",3398.1870002861,3379.102,3398.1870002861,3398.1870002861,3379.102,3398.1870002861,1,3398.1870002861,0,0,NA,"Click To Continue","Continue Button",2,"object-7","Task Instructions",NA,"SUPAMT37681"
"4",1695668371638,"25/09/2023 18:59:31",1695653971638,-4,"25/09/2023 10:59:31",144247,6,"task-hbx7",NA,31848894,9416698,NA,"complete","badtgi","3B3WTRP3DH13BBLAXGJL2YMOTFR92J","computer","Desktop or Laptop","Windows 10","Chrome 109.0.0.0","1366x768","1366x657",NA,NA,0,"Task Introduction and Instructions (Clone)",9,"FGEHDICJBA","Passed AC2","","Spreadsheet1",1,"Task Instructions","Screen 5","spepx9",3,"continue","",5589.0850002861,5580.35299999999,5589.0850002861,5589.0850002861,5580.35299999999,5589.0850002861,1,5589.0850002861,0,0,NA,"Click To Continue","Continue Button",2,"object-9","Task Instructions",NA,"SUPAMT37681"
"5",1695668374969,"25/09/2023 18:59:34",1695653974969,-4,"25/09/2023 10:59:34",144247,6,"task-hbx7",NA,31848894,9416698,NA,"complete","badtgi","3B3WTRP3DH13BBLAXGJL2YMOTFR92J","computer","Desktop or Laptop","Windows 10","Chrome 109.0.0.0","1366x768","1366x657",NA,NA,0,"Task Introduction and Instructions (Clone)",9,"FGEHDICJBA","Passed AC2","","Spreadsheet1",1,"Task Instructions","Screen 9","8nvnao",4,"continue","",3339.93200009537,3317.29100000001,3339.93200009537,3339.93200009537,3317.29100000001,3339.93200009537,1,3339.93200009537,0,0,NA,"Click To Continue","Continue Button",2,"object-44","Task Instructions",NA,"SUPAMT37681"
"6",1695668374983,"25/09/2023 18:59:34",1695653974983,-4,"25/09/2023 10:59:34",144247,6,"task-hbx7",NA,31848894,9416698,NA,"complete","badtgi","3B3WTRP3DH13BBLAXGJL2YMOTFR92J","computer","Desktop or Laptop","Windows 10","Chrome 109.0.0.0","1366x768","1366x657",NA,NA,0,"Task Introduction and Instructions (Clone)",9,"FGEHDICJBA","Passed AC2","","Spreadsheet1",NA,"","","",NA,"5","END",NA,NA,NA,NA,NA,NA,0,NA,NA,NA,NA,"","",NA,"","",NA,"SUPAMT37681"
"1",1695668352074,"25/09/2023 18:59:12",1695653952074,-4,"25/09/2023 10:59:12",144247,6,"task-hbx7",NA,31849008,9416702,NA,"complete","xlbnvu","3KWTYT08762QBA564WO95EGVDJZ5LD","computer","Desktop or Laptop","Windows 10","Chrome 116.0.0.0","1280x1024","1280x875",NA,NA,0,"Task Introduction and Instructions (Clone)",9,"DECFBGAHJI","Passed AC2","","Spreadsheet1",NA,"","","",NA,"5","BEGIN",NA,NA,NA,NA,NA,NA,0,NA,NA,NA,NA,"","",NA,"","",NA,"SUPAMT02996"
"2",1695668355657,"25/09/2023 18:59:15",1695653955657,-4,"25/09/2023 10:59:15",144247,6,"task-hbx7",NA,31849008,9416702,NA,"complete","xlbnvu","3KWTYT08762QBA564WO95EGVDJZ5LD","computer","Desktop or Laptop","Windows 10","Chrome 116.0.0.0","1280x1024","1280x875",NA,NA,0,"Task Introduction and Instructions (Clone)",9,"DECFBGAHJI","Passed AC2","","Spreadsheet1",1,"Task Instructions","Screen 1","anr7sn",1,"continue","",3449.44600004768,3433.824,3449.44600004768,3449.44600004768,3433.824,3449.44600004768,1,3449.44600004768,0,0,NA,"Click To Continue","Continue Button",2,"object-1944","Task Instructions",NA,"SUPAMT02996"
"3",1695668358816,"25/09/2023 18:59:18",1695653958816,-4,"25/09/2023 10:59:18",144247,6,"task-hbx7",NA,31849008,9416702,NA,"complete","xlbnvu","3KWTYT08762QBA564WO95EGVDJZ5LD","computer","Desktop or Laptop","Windows 10","Chrome 116.0.0.0","1280x1024","1280x875",NA,NA,0,"Task Introduction and Instructions (Clone)",9,"DECFBGAHJI","Passed AC2","","Spreadsheet1",1,"Task Instructions","Screen 2","ce2tc8",2,"continue","",3175.22199995232,3161.432,3175.22199995232,3175.22199995232,3161.432,3175.22199995232,1,3175.22199995232,0,0,NA,"Click To Continue","Continue Button",2,"object-7","Task Instructions",NA,"SUPAMT02996"
"4",1695668362104,"25/09/2023 18:59:22",1695653962104,-4,"25/09/2023 10:59:22",144247,6,"task-hbx7",NA,31849008,9416702,NA,"complete","xlbnvu","3KWTYT08762QBA564WO95EGVDJZ5LD","computer","Desktop or Laptop","Windows 10","Chrome 116.0.0.0","1280x1024","1280x875",NA,NA,0,"Task Introduction and Instructions (Clone)",9,"DECFBGAHJI","Passed AC2","","Spreadsheet1",1,"Task Instructions","Screen 5","spepx9",3,"continue","",3301.38999985695,3297.279,3301.38999985695,3301.38999985695,3297.279,3301.38999985695,1,3301.38999985695,0,0,NA,"Click To Continue","Continue Button",2,"object-9","Task Instructions",NA,"SUPAMT02996"
"5",1695668365381,"25/09/2023 18:59:25",1695653965381,-4,"25/09/2023 10:59:25",144247,6,"task-hbx7",NA,31849008,9416702,NA,"complete","xlbnvu","3KWTYT08762QBA564WO95EGVDJZ5LD","computer","Desktop or Laptop","Windows 10","Chrome 116.0.0.0","1280x1024","1280x875",NA,NA,0,"Task Introduction and Instructions (Clone)",9,"DECFBGAHJI","Passed AC2","","Spreadsheet1",1,"Task Instructions","Screen 9","8nvnao",4,"continue","",3281.41100004768,3276.929,3281.41100004768,3281.41100004768,3276.929,3281.41100004768,1,3281.41100004768,0,0,NA,"Click To Continue","Continue Button",2,"object-44","Task Instructions",NA,"SUPAMT02996"
"6",1695668365384,"25/09/2023 18:59:25",1695653965384,-4,"25/09/2023 10:59:25",144247,6,"task-hbx7",NA,31849008,9416702,NA,"complete","xlbnvu","3KWTYT08762QBA564WO95EGVDJZ5LD","computer","Desktop or Laptop","Windows 10","Chrome 116.0.0.0","1280x1024","1280x875",NA,NA,0,"Task Introduction and Instructions (Clone)",9,"DECFBGAHJI","Passed AC2","","Spreadsheet1",NA,"","","",NA,"5","END",NA,NA,NA,NA,NA,NA,0,NA,NA,NA,NA,"","",NA,"","",NA,"SUPAMT02996"
"1",1695668841875,"25/09/2023 19:07:21",1695654441875,-4,"25/09/2023 11:07:21",144247,6,"task-hbx7",NA,31849844,9416715,NA,"complete","gfqfbt","3AMYWKA6YHLU0Z8HM7E6P1YP4JF6OB","computer","Desktop or Laptop","Windows 10","Chrome 116.0.0.0","1366x768","1517x687",NA,NA,0,"Task Introduction and Instructions (Clone)",9,"FGEHDICJBA","Passed AC2","","Spreadsheet1",NA,"","","",NA,"5","BEGIN",NA,NA,NA,NA,NA,NA,0,NA,NA,NA,NA,"","",NA,"","",NA,"SUPAMT03527"
"2",1695668874230,"25/09/2023 19:07:54",1695654474230,-4,"25/09/2023 11:07:54",144247,6,"task-hbx7",NA,31849844,9416715,NA,"complete","gfqfbt","3AMYWKA6YHLU0Z8HM7E6P1YP4JF6OB","computer","Desktop or Laptop","Windows 10","Chrome 116.0.0.0","1366x768","1517x687",NA,NA,0,"Task Introduction and Instructions (Clone)",9,"FGEHDICJBA","Passed AC2","","Spreadsheet1",1,"Task Instructions","Screen 1","anr7sn",1,"continue","",31876.7379999985,31868.589,31876.7379999985,31876.7379999985,31868.589,31876.7379999985,1,31876.7379999985,0,0,NA,"Click To Continue","Continue Button",2,"object-1944","Task Instructions",NA,"SUPAMT03527"
"3",1695668884106,"25/09/2023 19:08:04",1695654484106,-4,"25/09/2023 11:08:04",144247,6,"task-hbx7",NA,31849844,9416715,NA,"complete","gfqfbt","3AMYWKA6YHLU0Z8HM7E6P1YP4JF6OB","computer","Desktop or Laptop","Windows 10","Chrome 116.0.0.0","1366x768","1517x687",NA,NA,0,"Task Introduction and Instructions (Clone)",9,"FGEHDICJBA","Passed AC2","","Spreadsheet1",1,"Task Instructions","Screen 2","ce2tc8",2,"continue","",9884.64899999851,9876.66,9884.64899999851,9884.64899999851,9876.66,9884.64899999851,1,9884.64899999851,0,0,NA,"Click To Continue","Continue Button",2,"object-7","Task Instructions",NA,"SUPAMT03527"
"4",1695668887840,"25/09/2023 19:08:07",1695654487840,-4,"25/09/2023 11:08:07",144247,6,"task-hbx7",NA,31849844,9416715,NA,"complete","gfqfbt","3AMYWKA6YHLU0Z8HM7E6P1YP4JF6OB","computer","Desktop or Laptop","Windows 10","Chrome 116.0.0.0","1366x768","1517x687",NA,NA,0,"Task Introduction and Instructions (Clone)",9,"FGEHDICJBA","Passed AC2","","Spreadsheet1",1,"Task Instructions","Screen 5","spepx9",3,"continue","",3742.28900000298,3730.578,3742.28900000298,3742.28900000298,3730.578,3742.28900000298,1,3742.28900000298,0,0,NA,"Click To Continue","Continue Button",2,"object-9","Task Instructions",NA,"SUPAMT03527"
"5",1695668890866,"25/09/2023 19:08:10",1695654490866,-4,"25/09/2023 11:08:10",144247,6,"task-hbx7",NA,31849844,9416715,NA,"complete","gfqfbt","3AMYWKA6YHLU0Z8HM7E6P1YP4JF6OB","computer","Desktop or Laptop","Windows 10","Chrome 116.0.0.0","1366x768","1517x687",NA,NA,0,"Task Introduction and Instructions (Clone)",9,"FGEHDICJBA","Passed AC2","","Spreadsheet1",1,"Task Instructions","Screen 9","8nvnao",4,"continue","",3037.71100000298,3033.223,3037.71100000298,3037.71100000298,3033.223,3037.71100000298,1,3037.71100000298,0,0,NA,"Click To Continue","Continue Button",2,"object-44","Task Instructions",NA,"SUPAMT03527"
"6",1695668890868,"25/09/2023 19:08:10",1695654490868,-4,"25/09/2023 11:08:10",144247,6,"task-hbx7",NA,31849844,9416715,NA,"complete","gfqfbt","3AMYWKA6YHLU0Z8HM7E6P1YP4JF6OB","computer","Desktop or Laptop","Windows 10","Chrome 116.0.0.0","1366x768","1517x687",NA,NA,0,"Task Introduction and Instructions (Clone)",9,"FGEHDICJBA","Passed AC2","","Spreadsheet1",NA,"","","",NA,"5","END",NA,NA,NA,NA,NA,NA,0,NA,NA,NA,NA,"","",NA,"","",NA,"SUPAMT03527"
"1",1695669029861,"25/09/2023 19:10:29",1695654629861,-4,"25/09/2023 11:10:29",144247,6,"task-hbx7",NA,31850107,9416694,NA,"complete","nqpqfy","3OS46CRSLLYPQJHENJ0KKTSX0CB6VC","computer","Desktop or Laptop","Windows 10","Chrome 116.0.0.0","1366x691","1366x574",NA,NA,0,"Task Introduction and Instructions (Clone)",9,"ABJCIDHEGF","Passed AC2","","Spreadsheet1",NA,"","","",NA,"5","BEGIN",NA,NA,NA,NA,NA,NA,0,NA,NA,NA,NA,"","",NA,"","",NA,"SUPAMT56870"
"2",1695669033777,"25/09/2023 19:10:33",1695654633777,-4,"25/09/2023 11:10:33",144247,6,"task-hbx7",NA,31850107,9416694,NA,"complete","nqpqfy","3OS46CRSLLYPQJHENJ0KKTSX0CB6VC","computer","Desktop or Laptop","Windows 10","Chrome 116.0.0.0","1366x691","1366x574",NA,NA,0,"Task Introduction and Instructions (Clone)",9,"ABJCIDHEGF","Passed AC2","","Spreadsheet1",1,"Task Instructions","Screen 1","anr7sn",1,"continue","",3769.00799999925,3760.943,3769.00799999925,3769.00799999925,3760.943,3769.00799999925,1,3769.00799999925,0,0,NA,"Click To Continue","Continue Button",2,"object-1944","Task Instructions",NA,"SUPAMT56870"
"3",1695669037125,"25/09/2023 19:10:37",1695654637125,-4,"25/09/2023 11:10:37",144247,6,"task-hbx7",NA,31850107,9416694,NA,"complete","nqpqfy","3OS46CRSLLYPQJHENJ0KKTSX0CB6VC","computer","Desktop or Laptop","Windows 10","Chrome 116.0.0.0","1366x691","1366x574",NA,NA,0,"Task Introduction and Instructions (Clone)",9,"ABJCIDHEGF","Passed AC2","","Spreadsheet1",1,"Task Instructions","Screen 2","ce2tc8",2,"continue","",3357.26499999851,3349.833,3357.26499999851,3357.26499999851,3349.833,3357.26499999851,1,3357.26499999851,0,0,NA,"Click To Continue","Continue Button",2,"object-7","Task Instructions",NA,"SUPAMT56870"
"4",1695669040302,"25/09/2023 19:10:40",1695654640302,-4,"25/09/2023 11:10:40",144247,6,"task-hbx7",NA,31850107,9416694,NA,"complete","nqpqfy","3OS46CRSLLYPQJHENJ0KKTSX0CB6VC","computer","Desktop or Laptop","Windows 10","Chrome 116.0.0.0","1366x691","1366x574",NA,NA,0,"Task Introduction and Instructions (Clone)",9,"ABJCIDHEGF","Passed AC2","","Spreadsheet1",1,"Task Instructions","Screen 5","spepx9",3,"continue","",3182.616,3165.95,3182.616,3182.616,3165.95,3182.616,1,3182.616,0,0,NA,"Click To Continue","Continue Button",2,"object-9","Task Instructions",NA,"SUPAMT56870"
"5",1695669043581,"25/09/2023 19:10:43",1695654643581,-4,"25/09/2023 11:10:43",144247,6,"task-hbx7",NA,31850107,9416694,NA,"complete","nqpqfy","3OS46CRSLLYPQJHENJ0KKTSX0CB6VC","computer","Desktop or Laptop","Windows 10","Chrome 116.0.0.0","1366x691","1366x574",NA,NA,0,"Task Introduction and Instructions (Clone)",9,"ABJCIDHEGF","Passed AC2","","Spreadsheet1",1,"Task Instructions","Screen 9","8nvnao",4,"continue","",3296.78199999926,3291.978,3296.78199999926,3296.78199999926,3291.978,3296.78199999926,1,3296.78199999926,0,0,NA,"Click To Continue","Continue Button",2,"object-44","Task Instructions",NA,"SUPAMT56870"
"6",1695669043582,"25/09/2023 19:10:43",1695654643582,-4,"25/09/2023 11:10:43",144247,6,"task-hbx7",NA,31850107,9416694,NA,"complete","nqpqfy","3OS46CRSLLYPQJHENJ0KKTSX0CB6VC","computer","Desktop or Laptop","Windows 10","Chrome 116.0.0.0","1366x691","1366x574",NA,NA,0,"Task Introduction and Instructions (Clone)",9,"ABJCIDHEGF","Passed AC2","","Spreadsheet1",NA,"","","",NA,"5","END",NA,NA,NA,NA,NA,NA,0,NA,NA,NA,NA,"","",NA,"","",NA,"SUPAMT56870"
"1",1695669428448,"25/09/2023 19:17:08",1695655028448,-4,"25/09/2023 11:17:08",144247,6,"task-hbx7",NA,31850655,9416720,NA,"complete","pntbgu","3VP0C6EFSMV60WN59RZTXX9K9J06MW","computer","Desktop or Laptop","Windows 10","Chrome 116.0.0.0","1366x768","1366x619",NA,NA,0,"Task Introduction and Instructions (Clone)",9,"IJHAGBFCED","Passed AC2","","Spreadsheet1",NA,"","","",NA,"5","BEGIN",NA,NA,NA,NA,NA,NA,0,NA,NA,NA,NA,"","",NA,"","",NA,"SUPAMT43489"
"2",1695669431748,"25/09/2023 19:17:11",1695655031748,-4,"25/09/2023 11:17:11",144247,6,"task-hbx7",NA,31850655,9416720,NA,"complete","pntbgu","3VP0C6EFSMV60WN59RZTXX9K9J06MW","computer","Desktop or Laptop","Windows 10","Chrome 116.0.0.0","1366x768","1366x619",NA,NA,0,"Task Introduction and Instructions (Clone)",9,"IJHAGBFCED","Passed AC2","","Spreadsheet1",1,"Task Instructions","Screen 1","anr7sn",1,"continue","",3237,3218.75,3237,3237,3218.75,3237,1,3237,0,0,NA,"Click To Continue","Continue Button",2,"object-1944","Task Instructions",NA,"SUPAMT43489"
"3",1695669434797,"25/09/2023 19:17:14",1695655034797,-4,"25/09/2023 11:17:14",144247,6,"task-hbx7",NA,31850655,9416720,NA,"complete","pntbgu","3VP0C6EFSMV60WN59RZTXX9K9J06MW","computer","Desktop or Laptop","Windows 10","Chrome 116.0.0.0","1366x768","1366x619",NA,NA,0,"Task Introduction and Instructions (Clone)",9,"IJHAGBFCED","Passed AC2","","Spreadsheet1",1,"Task Instructions","Screen 2","ce2tc8",2,"continue","",3067.25,3062.5,3067.25,3067.25,3062.5,3067.25,1,3067.25,0,0,NA,"Click To Continue","Continue Button",2,"object-7","Task Instructions",NA,"SUPAMT43489"
"4",1695669437998,"25/09/2023 19:17:17",1695655037998,-4,"25/09/2023 11:17:17",144247,6,"task-hbx7",NA,31850655,9416720,NA,"complete","pntbgu","3VP0C6EFSMV60WN59RZTXX9K9J06MW","computer","Desktop or Laptop","Windows 10","Chrome 116.0.0.0","1366x768","1366x619",NA,NA,0,"Task Introduction and Instructions (Clone)",9,"IJHAGBFCED","Passed AC2","","Spreadsheet1",1,"Task Instructions","Screen 5","spepx9",3,"continue","",3205.75,3187.5,3205.75,3205.75,3187.5,3205.75,1,3205.75,0,0,NA,"Click To Continue","Continue Button",2,"object-9","Task Instructions",NA,"SUPAMT43489"
"5",1695669441294,"25/09/2023 19:17:21",1695655041294,-4,"25/09/2023 11:17:21",144247,6,"task-hbx7",NA,31850655,9416720,NA,"complete","pntbgu","3VP0C6EFSMV60WN59RZTXX9K9J06MW","computer","Desktop or Laptop","Windows 10","Chrome 116.0.0.0","1366x768","1366x619",NA,NA,0,"Task Introduction and Instructions (Clone)",9,"IJHAGBFCED","Passed AC2","","Spreadsheet1",1,"Task Instructions","Screen 9","8nvnao",4,"continue","",3312.5,3281.25,3312.5,3312.5,3281.25,3312.5,1,3312.5,0,0,NA,"Click To Continue","Continue Button",2,"object-44","Task Instructions",NA,"SUPAMT43489"
"6",1695669441300,"25/09/2023 19:17:21",1695655041300,-4,"25/09/2023 11:17:21",144247,6,"task-hbx7",NA,31850655,9416720,NA,"complete","pntbgu","3VP0C6EFSMV60WN59RZTXX9K9J06MW","computer","Desktop or Laptop","Windows 10","Chrome 116.0.0.0","1366x768","1366x619",NA,NA,0,"Task Introduction and Instructions (Clone)",9,"IJHAGBFCED","Passed AC2","","Spreadsheet1",NA,"","","",NA,"5","END",NA,NA,NA,NA,NA,NA,0,NA,NA,NA,NA,"","",NA,"","",NA,"SUPAMT43489"
"1",1695669528449,"25/09/2023 19:18:48",1695655128449,-4,"25/09/2023 11:18:48",144247,6,"task-hbx7",NA,31850881,9416699,NA,"complete","sebjfh","3HPZF4IVNSSVAULK2L07DSO1EFOYC5","computer","Desktop or Laptop","Windows 10","Chrome 114.0.0.0","1366x768","1366x625",NA,NA,0,"Task Introduction and Instructions (Clone)",9,"CDBEAFJGIH","Passed AC2","","Spreadsheet1",NA,"","","",NA,"5","BEGIN",NA,NA,NA,NA,NA,NA,0,NA,NA,NA,NA,"","",NA,"","",NA,"SUPAMT46587"
"2",1695669532379,"25/09/2023 19:18:52",1695655132379,-4,"25/09/2023 11:18:52",144247,6,"task-hbx7",NA,31850881,9416699,NA,"complete","sebjfh","3HPZF4IVNSSVAULK2L07DSO1EFOYC5","computer","Desktop or Laptop","Windows 10","Chrome 114.0.0.0","1366x768","1366x625",NA,NA,0,"Task Introduction and Instructions (Clone)",9,"CDBEAFJGIH","Passed AC2","","Spreadsheet1",1,"Task Instructions","Screen 1","anr7sn",1,"continue","",3861.99100038147,3852.267,3861.99100038147,3861.99100038147,3852.267,3861.99100038147,1,3861.99100038147,0,0,NA,"Click To Continue","Continue Button",2,"object-1944","Task Instructions",NA,"SUPAMT46587"
"3",1695669536209,"25/09/2023 19:18:56",1695655136209,-4,"25/09/2023 11:18:56",144247,6,"task-hbx7",NA,31850881,9416699,NA,"complete","sebjfh","3HPZF4IVNSSVAULK2L07DSO1EFOYC5","computer","Desktop or Laptop","Windows 10","Chrome 114.0.0.0","1366x768","1366x625",NA,NA,0,"Task Introduction and Instructions (Clone)",9,"CDBEAFJGIH","Passed AC2","","Spreadsheet1",1,"Task Instructions","Screen 2","ce2tc8",2,"continue","",3840.32399980926,3833.691,3840.32399980926,3840.32399980926,3833.691,3840.32399980926,1,3840.32399980926,0,0,NA,"Click To Continue","Continue Button",2,"object-7","Task Instructions",NA,"SUPAMT46587"
"4",1695669539860,"25/09/2023 19:18:59",1695655139860,-4,"25/09/2023 11:18:59",144247,6,"task-hbx7",NA,31850881,9416699,NA,"complete","sebjfh","3HPZF4IVNSSVAULK2L07DSO1EFOYC5","computer","Desktop or Laptop","Windows 10","Chrome 114.0.0.0","1366x768","1366x625",NA,NA,0,"Task Introduction and Instructions (Clone)",9,"CDBEAFJGIH","Passed AC2","","Spreadsheet1",1,"Task Instructions","Screen 5","spepx9",3,"continue","",3658.13299980927,3649.088,3658.13299980927,3658.13299980927,3649.088,3658.13299980927,1,3658.13299980927,0,0,NA,"Click To Continue","Continue Button",2,"object-9","Task Instructions",NA,"SUPAMT46587"
"5",1695669544959,"25/09/2023 19:19:04",1695655144959,-4,"25/09/2023 11:19:04",144247,6,"task-hbx7",NA,31850881,9416699,NA,"complete","sebjfh","3HPZF4IVNSSVAULK2L07DSO1EFOYC5","computer","Desktop or Laptop","Windows 10","Chrome 114.0.0.0","1366x768","1366x625",NA,NA,0,"Task Introduction and Instructions (Clone)",9,"CDBEAFJGIH","Passed AC2","","Spreadsheet1",1,"Task Instructions","Screen 9","8nvnao",4,"continue","",5107.74499961853,5096.29,5107.74499961853,5107.74499961853,5096.29,5107.74499961853,1,5107.74499961853,0,0,NA,"Click To Continue","Continue Button",2,"object-44","Task Instructions",NA,"SUPAMT46587"
"6",1695669544965,"25/09/2023 19:19:04",1695655144965,-4,"25/09/2023 11:19:04",144247,6,"task-hbx7",NA,31850881,9416699,NA,"complete","sebjfh","3HPZF4IVNSSVAULK2L07DSO1EFOYC5","computer","Desktop or Laptop","Windows 10","Chrome 114.0.0.0","1366x768","1366x625",NA,NA,0,"Task Introduction and Instructions (Clone)",9,"CDBEAFJGIH","Passed AC2","","Spreadsheet1",NA,"","","",NA,"5","END",NA,NA,NA,NA,NA,NA,0,NA,NA,NA,NA,"","",NA,"","",NA,"SUPAMT46587"
"1",1695671810598,"25/09/2023 19:56:50",1695657410598,-4,"25/09/2023 11:56:50",144247,6,"task-hbx7",NA,31853053,9416713,NA,"complete","zondvn","388U7OUMFD02J1EICAFTAVT323CR03","computer","Desktop or Laptop","Windows 10","Chrome 114.0.0.0","1366x768","1366x625",NA,NA,0,"Task Introduction and Instructions (Clone)",9,"FGEHDICJBA","Passed AC2","","Spreadsheet1",NA,"","","",NA,"5","BEGIN",NA,NA,NA,NA,NA,NA,0,NA,NA,NA,NA,"","",NA,"","",NA,"SUPAMT97544"
"2",1695671865988,"25/09/2023 19:57:45",1695657465988,-4,"25/09/2023 11:57:45",144247,6,"task-hbx7",NA,31853053,9416713,NA,"complete","zondvn","388U7OUMFD02J1EICAFTAVT323CR03","computer","Desktop or Laptop","Windows 10","Chrome 114.0.0.0","1366x768","1366x625",NA,NA,0,"Task Introduction and Instructions (Clone)",9,"FGEHDICJBA","Passed AC2","","Spreadsheet1",1,"Task Instructions","Screen 1","anr7sn",1,"continue","",55208.171,55191.505,55208.171,55208.171,55191.505,55208.171,1,55208.171,0,0,NA,"Click To Continue","Continue Button",2,"object-1944","Task Instructions",NA,"SUPAMT97544"
"3",1695671871744,"25/09/2023 19:57:51",1695657471744,-4,"25/09/2023 11:57:51",144247,6,"task-hbx7",NA,31853053,9416713,NA,"complete","zondvn","388U7OUMFD02J1EICAFTAVT323CR03","computer","Desktop or Laptop","Windows 10","Chrome 114.0.0.0","1366x768","1366x625",NA,NA,0,"Task Introduction and Instructions (Clone)",9,"FGEHDICJBA","Passed AC2","","Spreadsheet1",1,"Task Instructions","Screen 2","ce2tc8",2,"continue","",5775.543,5758.877,5775.543,5775.543,5758.877,5775.543,1,5775.543,0,0,NA,"Click To Continue","Continue Button",2,"object-7","Task Instructions",NA,"SUPAMT97544"
"4",1695671876005,"25/09/2023 19:57:56",1695657476005,-4,"25/09/2023 11:57:56",144247,6,"task-hbx7",NA,31853053,9416713,NA,"complete","zondvn","388U7OUMFD02J1EICAFTAVT323CR03","computer","Desktop or Laptop","Windows 10","Chrome 114.0.0.0","1366x768","1366x625",NA,NA,0,"Task Introduction and Instructions (Clone)",9,"FGEHDICJBA","Passed AC2","","Spreadsheet1",1,"Task Instructions","Screen 5","spepx9",3,"continue","",4275.70099999999,4259.035,4275.70099999999,4275.70099999999,4259.035,4275.70099999999,1,4275.70099999999,0,0,NA,"Click To Continue","Continue Button",2,"object-9","Task Instructions",NA,"SUPAMT97544"
"5",1695671879986,"25/09/2023 19:57:59",1695657479986,-4,"25/09/2023 11:57:59",144247,6,"task-hbx7",NA,31853053,9416713,NA,"complete","zondvn","388U7OUMFD02J1EICAFTAVT323CR03","computer","Desktop or Laptop","Windows 10","Chrome 114.0.0.0","1366x768","1366x625",NA,NA,0,"Task Introduction and Instructions (Clone)",9,"FGEHDICJBA","Passed AC2","","Spreadsheet1",1,"Task Instructions","Screen 9","8nvnao",4,"continue","",3999.80299961854,3997.05900000001,3999.80299961854,3999.80299961854,3997.05900000001,3999.80299961854,1,3999.80299961854,0,0,NA,"Click To Continue","Continue Button",2,"object-44","Task Instructions",NA,"SUPAMT97544"
"6",1695671879989,"25/09/2023 19:57:59",1695657479989,-4,"25/09/2023 11:57:59",144247,6,"task-hbx7",NA,31853053,9416713,NA,"complete","zondvn","388U7OUMFD02J1EICAFTAVT323CR03","computer","Desktop or Laptop","Windows 10","Chrome 114.0.0.0","1366x768","1366x625",NA,NA,0,"Task Introduction and Instructions (Clone)",9,"FGEHDICJBA","Passed AC2","","Spreadsheet1",NA,"","","",NA,"5","END",NA,NA,NA,NA,NA,NA,0,NA,NA,NA,NA,"","",NA,"","",NA,"SUPAMT97544"
"1",1695673394827,"25/09/2023 20:23:14",1695658994827,-4,"25/09/2023 12:23:14",144247,6,"task-hbx7",NA,31854259,9416690,NA,"complete","uckwzd","3IQ1VMJRYZJSGEGEAVC08G5M53J9AQ","computer","Desktop or Laptop","Windows 10","Chrome 116.0.0.0","1366x768","1366x619",NA,NA,0,"Task Introduction and Instructions (Clone)",9,"JAIBHCGDFE","Passed AC2","","Spreadsheet1",NA,"","","",NA,"5","BEGIN",NA,NA,NA,NA,NA,NA,0,NA,NA,NA,NA,"","",NA,"","",NA,"SUPAMT94886"
"2",1695673400170,"25/09/2023 20:23:20",1695659000170,-4,"25/09/2023 12:23:20",144247,6,"task-hbx7",NA,31854259,9416690,NA,"complete","uckwzd","3IQ1VMJRYZJSGEGEAVC08G5M53J9AQ","computer","Desktop or Laptop","Windows 10","Chrome 116.0.0.0","1366x768","1366x619",NA,NA,0,"Task Introduction and Instructions (Clone)",9,"JAIBHCGDFE","Passed AC2","","Spreadsheet1",1,"Task Instructions","Screen 1","anr7sn",1,"continue","",5312.5,5281.25,5312.5,5312.5,5281.25,5312.5,1,5312.5,0,0,NA,"Click To Continue","Continue Button",2,"object-1944","Task Instructions",NA,"SUPAMT94886"
"3",1695673403589,"25/09/2023 20:23:23",1695659003589,-4,"25/09/2023 12:23:23",144247,6,"task-hbx7",NA,31854259,9416690,NA,"complete","uckwzd","3IQ1VMJRYZJSGEGEAVC08G5M53J9AQ","computer","Desktop or Laptop","Windows 10","Chrome 116.0.0.0","1366x768","1366x619",NA,NA,0,"Task Introduction and Instructions (Clone)",9,"JAIBHCGDFE","Passed AC2","","Spreadsheet1",1,"Task Instructions","Screen 2","ce2tc8",2,"continue","",3460.25,3437.5,3460.25,3460.25,3437.5,3460.25,1,3460.25,0,0,NA,"Click To Continue","Continue Button",2,"object-7","Task Instructions",NA,"SUPAMT94886"
"4",1695673406812,"25/09/2023 20:23:26",1695659006812,-4,"25/09/2023 12:23:26",144247,6,"task-hbx7",NA,31854259,9416690,NA,"complete","uckwzd","3IQ1VMJRYZJSGEGEAVC08G5M53J9AQ","computer","Desktop or Laptop","Windows 10","Chrome 116.0.0.0","1366x768","1366x619",NA,NA,0,"Task Introduction and Instructions (Clone)",9,"JAIBHCGDFE","Passed AC2","","Spreadsheet1",1,"Task Instructions","Screen 5","spepx9",3,"continue","",3245.75,3218.75,3245.75,3245.75,3218.75,3245.75,1,3245.75,0,0,NA,"Click To Continue","Continue Button",2,"object-9","Task Instructions",NA,"SUPAMT94886"
"5",1695673410514,"25/09/2023 20:23:30",1695659010514,-4,"25/09/2023 12:23:30",144247,6,"task-hbx7",NA,31854259,9416690,NA,"complete","uckwzd","3IQ1VMJRYZJSGEGEAVC08G5M53J9AQ","computer","Desktop or Laptop","Windows 10","Chrome 116.0.0.0","1366x768","1366x619",NA,NA,0,"Task Introduction and Instructions (Clone)",9,"JAIBHCGDFE","Passed AC2","","Spreadsheet1",1,"Task Instructions","Screen 9","8nvnao",4,"continue","",3729,3718.75,3729,3729,3718.75,3729,1,3729,0,0,NA,"Click To Continue","Continue Button",2,"object-44","Task Instructions",NA,"SUPAMT94886"
"6",1695673410516,"25/09/2023 20:23:30",1695659010516,-4,"25/09/2023 12:23:30",144247,6,"task-hbx7",NA,31854259,9416690,NA,"complete","uckwzd","3IQ1VMJRYZJSGEGEAVC08G5M53J9AQ","computer","Desktop or Laptop","Windows 10","Chrome 116.0.0.0","1366x768","1366x619",NA,NA,0,"Task Introduction and Instructions (Clone)",9,"JAIBHCGDFE","Passed AC2","","Spreadsheet1",NA,"","","",NA,"5","END",NA,NA,NA,NA,NA,NA,0,NA,NA,NA,NA,"","",NA,"","",NA,"SUPAMT94886"
"1",1695668290324,"25/09/2023 18:58:10",1695653890324,-4,"25/09/2023 10:58:10",144247,6,"task-hbx7",NA,31848888,9416722,NA,"complete","hxqhfc","3HMVI3QICPRBNRBMMOBNWW5AAIXY1F","computer","Desktop or Laptop","Windows 10","Chrome 116.0.0.0","1366x768","1366x619",NA,NA,0,"Task Introduction and Instructions (Clone)",9,"IJHAGBFCED","Failed AC2","Passed AC1","Spreadsheet1",NA,"","","",NA,"5","BEGIN",NA,NA,NA,NA,NA,NA,0,NA,NA,NA,NA,"","",NA,"","",NA,"SUPAMT23519"
"2",1695668302942,"25/09/2023 18:58:22",1695653902942,-4,"25/09/2023 10:58:22",144247,6,"task-hbx7",NA,31848888,9416722,NA,"complete","hxqhfc","3HMVI3QICPRBNRBMMOBNWW5AAIXY1F","computer","Desktop or Laptop","Windows 10","Chrome 116.0.0.0","1366x768","1366x619",NA,NA,0,"Task Introduction and Instructions (Clone)",9,"IJHAGBFCED","Failed AC2","Passed AC1","Spreadsheet1",1,"Task Instructions","Screen 1","anr7sn",1,"continue","",12589,12562.5,12589,12589,12562.5,12589,1,12589,0,0,NA,"Click To Continue","Continue Button",2,"object-1944","Task Instructions",NA,"SUPAMT23519"
"3",1695668314585,"25/09/2023 18:58:34",1695653914585,-4,"25/09/2023 10:58:34",144247,6,"task-hbx7",NA,31848888,9416722,NA,"complete","hxqhfc","3HMVI3QICPRBNRBMMOBNWW5AAIXY1F","computer","Desktop or Laptop","Windows 10","Chrome 116.0.0.0","1366x768","1366x619",NA,NA,0,"Task Introduction and Instructions (Clone)",9,"IJHAGBFCED","Failed AC2","Passed AC1","Spreadsheet1",1,"Task Instructions","Screen 2","ce2tc8",2,"continue","",11668.5,11656.25,11668.5,11668.5,11656.25,11668.5,1,11668.5,0,0,NA,"Click To Continue","Continue Button",2,"object-7","Task Instructions",NA,"SUPAMT23519"
"4",1695668320165,"25/09/2023 18:58:40",1695653920165,-4,"25/09/2023 10:58:40",144247,6,"task-hbx7",NA,31848888,9416722,NA,"complete","hxqhfc","3HMVI3QICPRBNRBMMOBNWW5AAIXY1F","computer","Desktop or Laptop","Windows 10","Chrome 116.0.0.0","1366x768","1366x619",NA,NA,0,"Task Introduction and Instructions (Clone)",9,"IJHAGBFCED","Failed AC2","Passed AC1","Spreadsheet1",1,"Task Instructions","Screen 5","spepx9",3,"continue","",5593.25,5562.5,5593.25,5593.25,5562.5,5593.25,1,5593.25,0,0,NA,"Click To Continue","Continue Button",2,"object-9","Task Instructions",NA,"SUPAMT23519"
"5",1695668323956,"25/09/2023 18:58:43",1695653923956,-4,"25/09/2023 10:58:43",144247,6,"task-hbx7",NA,31848888,9416722,NA,"complete","hxqhfc","3HMVI3QICPRBNRBMMOBNWW5AAIXY1F","computer","Desktop or Laptop","Windows 10","Chrome 116.0.0.0","1366x768","1366x619",NA,NA,0,"Task Introduction and Instructions (Clone)",9,"IJHAGBFCED","Failed AC2","Passed AC1","Spreadsheet1",1,"Task Instructions","Screen 9","8nvnao",4,"continue","",3821.75,3812.5,3821.75,3821.75,3812.5,3821.75,1,3821.75,0,0,NA,"Click To Continue","Continue Button",2,"object-44","Task Instructions",NA,"SUPAMT23519"
"6",1695668323959,"25/09/2023 18:58:43",1695653923959,-4,"25/09/2023 10:58:43",144247,6,"task-hbx7",NA,31848888,9416722,NA,"complete","hxqhfc","3HMVI3QICPRBNRBMMOBNWW5AAIXY1F","computer","Desktop or Laptop","Windows 10","Chrome 116.0.0.0","1366x768","1366x619",NA,NA,0,"Task Introduction and Instructions (Clone)",9,"IJHAGBFCED","Failed AC2","Passed AC1","Spreadsheet1",NA,"","","",NA,"5","END",NA,NA,NA,NA,NA,NA,0,NA,NA,NA,NA,"","",NA,"","",NA,"SUPAMT23519"
"1",1695675559599,"25/09/2023 20:59:19",1695653959599,-6,"25/09/2023 08:59:19",144247,6,"task-hbx7",NA,31849023,9416752,NA,"complete","xnecqx","34X6J5FLPZX99604L30ZNAYU5QGQJ8","computer","Desktop or Laptop","Windows 10","Chrome 118.0.0.0","1366x768","1366x651",NA,NA,0,"Task Introduction and Instructions (Clone)",9,"JAIBHCGDFE","Passed AC2","","Spreadsheet1",NA,"","","",NA,"5","BEGIN",NA,NA,NA,NA,NA,NA,0,NA,NA,NA,NA,"","",NA,"","",NA,"SUPAMT86350"
"2",1695675563088,"25/09/2023 20:59:23",1695653963088,-6,"25/09/2023 08:59:23",144247,6,"task-hbx7",NA,31849023,9416752,NA,"complete","xnecqx","34X6J5FLPZX99604L30ZNAYU5QGQJ8","computer","Desktop or Laptop","Windows 10","Chrome 118.0.0.0","1366x768","1366x651",NA,NA,0,"Task Introduction and Instructions (Clone)",9,"JAIBHCGDFE","Passed AC2","","Spreadsheet1",1,"Task Instructions","Screen 1","anr7sn",1,"continue","",3468.75,3437.5,3468.75,3468.75,3437.5,3468.75,1,3468.75,0,0,NA,"Click To Continue","Continue Button",2,"object-1944","Task Instructions",NA,"SUPAMT86350"
"3",1695675566926,"25/09/2023 20:59:26",1695653966926,-6,"25/09/2023 08:59:26",144247,6,"task-hbx7",NA,31849023,9416752,NA,"complete","xnecqx","34X6J5FLPZX99604L30ZNAYU5QGQJ8","computer","Desktop or Laptop","Windows 10","Chrome 118.0.0.0","1366x768","1366x651",NA,NA,0,"Task Introduction and Instructions (Clone)",9,"JAIBHCGDFE","Passed AC2","","Spreadsheet1",1,"Task Instructions","Screen 2","ce2tc8",2,"continue","",3873.25,3843.75,3873.25,3873.25,3843.75,3873.25,1,3873.25,0,0,NA,"Click To Continue","Continue Button",2,"object-7","Task Instructions",NA,"SUPAMT86350"
"4",1695675569895,"25/09/2023 20:59:29",1695653969895,-6,"25/09/2023 08:59:29",144247,6,"task-hbx7",NA,31849023,9416752,NA,"complete","xnecqx","34X6J5FLPZX99604L30ZNAYU5QGQJ8","computer","Desktop or Laptop","Windows 10","Chrome 118.0.0.0","1366x768","1366x651",NA,NA,0,"Task Introduction and Instructions (Clone)",9,"JAIBHCGDFE","Passed AC2","","Spreadsheet1",1,"Task Instructions","Screen 5","spepx9",3,"continue","",2998.5,2968.75,2998.5,2998.5,2968.75,2998.5,1,2998.5,0,0,NA,"Click To Continue","Continue Button",2,"object-9","Task Instructions",NA,"SUPAMT86350"
"5",1695675573131,"25/09/2023 20:59:33",1695653973131,-6,"25/09/2023 08:59:33",144247,6,"task-hbx7",NA,31849023,9416752,NA,"complete","xnecqx","34X6J5FLPZX99604L30ZNAYU5QGQJ8","computer","Desktop or Laptop","Windows 10","Chrome 118.0.0.0","1366x768","1366x651",NA,NA,0,"Task Introduction and Instructions (Clone)",9,"JAIBHCGDFE","Passed AC2","","Spreadsheet1",1,"Task Instructions","Screen 9","8nvnao",4,"continue","",3265.75,3250,3265.75,3265.75,3250,3265.75,1,3265.75,0,0,NA,"Click To Continue","Continue Button",2,"object-44","Task Instructions",NA,"SUPAMT86350"
"6",1695675573135,"25/09/2023 20:59:33",1695653973135,-6,"25/09/2023 08:59:33",144247,6,"task-hbx7",NA,31849023,9416752,NA,"complete","xnecqx","34X6J5FLPZX99604L30ZNAYU5QGQJ8","computer","Desktop or Laptop","Windows 10","Chrome 118.0.0.0","1366x768","1366x651",NA,NA,0,"Task Introduction and Instructions (Clone)",9,"JAIBHCGDFE","Passed AC2","","Spreadsheet1",NA,"","","",NA,"5","END",NA,NA,NA,NA,NA,NA,0,NA,NA,NA,NA,"","",NA,"","",NA,"SUPAMT86350"
"1",1695690015811,"26/09/2023 01:00:15",1695675615811,-4,"25/09/2023 17:00:15",144247,6,"task-hbx7",NA,31849060,9416797,NA,"complete","wmioyz","3VJ40NV2QOM02XJTIKMZ0BQ3ORPOT3","computer","Desktop or Laptop","Windows 10","Chrome 116.0.0.0","1366x768","1366x619",NA,NA,0,"Task Introduction and Instructions (Clone)",9,"EFDGCHBIAJ","Passed AC2","","Spreadsheet1",NA,"","","",NA,"5","BEGIN",NA,NA,NA,NA,NA,NA,0,NA,NA,NA,NA,"","",NA,"","",NA,"SUPAMT04349"
"2",1695690020293,"26/09/2023 01:00:20",1695675620293,-4,"25/09/2023 17:00:20",144247,6,"task-hbx7",NA,31849060,9416797,NA,"complete","wmioyz","3VJ40NV2QOM02XJTIKMZ0BQ3ORPOT3","computer","Desktop or Laptop","Windows 10","Chrome 116.0.0.0","1366x768","1366x619",NA,NA,0,"Task Introduction and Instructions (Clone)",9,"EFDGCHBIAJ","Passed AC2","","Spreadsheet1",1,"Task Instructions","Screen 1","anr7sn",1,"continue","",3766.202,3755.053,3766.202,3766.202,3755.053,3766.202,1,3766.202,0,0,NA,"Click To Continue","Continue Button",2,"object-1944","Task Instructions",NA,"SUPAMT04349"
"3",1695690023666,"26/09/2023 01:00:23",1695675623666,-4,"25/09/2023 17:00:23",144247,6,"task-hbx7",NA,31849060,9416797,NA,"complete","wmioyz","3VJ40NV2QOM02XJTIKMZ0BQ3ORPOT3","computer","Desktop or Laptop","Windows 10","Chrome 116.0.0.0","1366x768","1366x619",NA,NA,0,"Task Introduction and Instructions (Clone)",9,"EFDGCHBIAJ","Passed AC2","","Spreadsheet1",1,"Task Instructions","Screen 2","ce2tc8",2,"continue","",3384.74900014305,3363.636,3384.74900014305,3384.74900014305,3363.636,3384.74900014305,1,3384.74900014305,0,0,NA,"Click To Continue","Continue Button",2,"object-7","Task Instructions",NA,"SUPAMT04349"
"4",1695690027027,"26/09/2023 01:00:27",1695675627027,-4,"25/09/2023 17:00:27",144247,6,"task-hbx7",NA,31849060,9416797,NA,"complete","wmioyz","3VJ40NV2QOM02XJTIKMZ0BQ3ORPOT3","computer","Desktop or Laptop","Windows 10","Chrome 116.0.0.0","1366x768","1366x619",NA,NA,0,"Task Introduction and Instructions (Clone)",9,"EFDGCHBIAJ","Passed AC2","","Spreadsheet1",1,"Task Instructions","Screen 5","spepx9",3,"continue","",3381.91300009537,3356.31,3381.91300009537,3381.91300009537,3356.31,3381.91300009537,1,3381.91300009537,0,0,NA,"Click To Continue","Continue Button",2,"object-9","Task Instructions",NA,"SUPAMT04349"
"5",1695690030588,"26/09/2023 01:00:30",1695675630588,-4,"25/09/2023 17:00:30",144247,6,"task-hbx7",NA,31849060,9416797,NA,"complete","wmioyz","3VJ40NV2QOM02XJTIKMZ0BQ3ORPOT3","computer","Desktop or Laptop","Windows 10","Chrome 116.0.0.0","1366x768","1366x619",NA,NA,0,"Task Introduction and Instructions (Clone)",9,"EFDGCHBIAJ","Passed AC2","","Spreadsheet1",1,"Task Instructions","Screen 9","8nvnao",4,"continue","",3586.90300004768,3568.196,3586.90300004768,3586.90300004768,3568.196,3586.90300004768,1,3586.90300004768,0,0,NA,"Click To Continue","Continue Button",2,"object-44","Task Instructions",NA,"SUPAMT04349"
"6",1695690030593,"26/09/2023 01:00:30",1695675630593,-4,"25/09/2023 17:00:30",144247,6,"task-hbx7",NA,31849060,9416797,NA,"complete","wmioyz","3VJ40NV2QOM02XJTIKMZ0BQ3ORPOT3","computer","Desktop or Laptop","Windows 10","Chrome 116.0.0.0","1366x768","1366x619",NA,NA,0,"Task Introduction and Instructions (Clone)",9,"EFDGCHBIAJ","Passed AC2","","Spreadsheet1",NA,"","","",NA,"5","END",NA,NA,NA,NA,NA,NA,0,NA,NA,NA,NA,"","",NA,"","",NA,"SUPAMT04349"
"1",1695668343390,"25/09/2023 18:59:03",1695653943390,-4,"25/09/2023 10:59:03",144247,6,"task-hbx7",NA,31849090,9416745,NA,"complete","nyrmzj","3XM0HYN6NQYGYEDX7PAJQPVSVMZPEW","computer","Desktop or Laptop","Windows 10","Chrome 116.0.0.0","1366x768","1366x619",NA,NA,0,"Task Introduction and Instructions (Clone)",9,"CDBEAFJGIH","Failed AC2","Passed AC1","Spreadsheet1",NA,"","","",NA,"5","BEGIN",NA,NA,NA,NA,NA,NA,0,NA,NA,NA,NA,"","",NA,"","",NA,"SUPAMT36372"
"2",1695668355018,"25/09/2023 18:59:15",1695653955018,-4,"25/09/2023 10:59:15",144247,6,"task-hbx7",NA,31849090,9416745,NA,"complete","nyrmzj","3XM0HYN6NQYGYEDX7PAJQPVSVMZPEW","computer","Desktop or Laptop","Windows 10","Chrome 116.0.0.0","1366x768","1366x619",NA,NA,0,"Task Introduction and Instructions (Clone)",9,"CDBEAFJGIH","Failed AC2","Passed AC1","Spreadsheet1",1,"Task Instructions","Screen 1","anr7sn",1,"continue","",11440.4089999881,11429.927,11440.4089999881,11440.4089999881,11429.927,11440.4089999881,1,11440.4089999881,0,0,NA,"Click To Continue","Continue Button",2,"object-1944","Task Instructions",NA,"SUPAMT36372"
"3",1695668370724,"25/09/2023 18:59:30",1695653970724,-4,"25/09/2023 10:59:30",144247,6,"task-hbx7",NA,31849090,9416745,NA,"complete","nyrmzj","3XM0HYN6NQYGYEDX7PAJQPVSVMZPEW","computer","Desktop or Laptop","Windows 10","Chrome 116.0.0.0","1366x768","1366x619",NA,NA,0,"Task Introduction and Instructions (Clone)",9,"CDBEAFJGIH","Failed AC2","Passed AC1","Spreadsheet1",1,"Task Instructions","Screen 2","ce2tc8",2,"continue","",15715.782,15700.445,15715.782,15715.782,15700.445,15715.782,1,15715.782,0,0,NA,"Click To Continue","Continue Button",2,"object-7","Task Instructions",NA,"SUPAMT36372"
"4",1695668379295,"25/09/2023 18:59:39",1695653979295,-4,"25/09/2023 10:59:39",144247,6,"task-hbx7",NA,31849090,9416745,NA,"complete","nyrmzj","3XM0HYN6NQYGYEDX7PAJQPVSVMZPEW","computer","Desktop or Laptop","Windows 10","Chrome 116.0.0.0","1366x768","1366x619",NA,NA,0,"Task Introduction and Instructions (Clone)",9,"CDBEAFJGIH","Failed AC2","Passed AC1","Spreadsheet1",1,"Task Instructions","Screen 5","spepx9",3,"continue","",8587.337,8580.037,8587.337,8587.337,8580.037,8587.337,1,8587.337,0,0,NA,"Click To Continue","Continue Button",2,"object-9","Task Instructions",NA,"SUPAMT36372"
"5",1695668385120,"25/09/2023 18:59:45",1695653985120,-4,"25/09/2023 10:59:45",144247,6,"task-hbx7",NA,31849090,9416745,NA,"complete","nyrmzj","3XM0HYN6NQYGYEDX7PAJQPVSVMZPEW","computer","Desktop or Laptop","Windows 10","Chrome 116.0.0.0","1366x768","1366x619",NA,NA,0,"Task Introduction and Instructions (Clone)",9,"CDBEAFJGIH","Failed AC2","Passed AC1","Spreadsheet1",1,"Task Instructions","Screen 9","8nvnao",4,"continue","",5832.69999997616,5817.895,5832.69999997616,5832.69999997616,5817.895,5832.69999997616,1,5832.69999997616,0,0,NA,"Click To Continue","Continue Button",2,"object-44","Task Instructions",NA,"SUPAMT36372"
"6",1695668385124,"25/09/2023 18:59:45",1695653985124,-4,"25/09/2023 10:59:45",144247,6,"task-hbx7",NA,31849090,9416745,NA,"complete","nyrmzj","3XM0HYN6NQYGYEDX7PAJQPVSVMZPEW","computer","Desktop or Laptop","Windows 10","Chrome 116.0.0.0","1366x768","1366x619",NA,NA,0,"Task Introduction and Instructions (Clone)",9,"CDBEAFJGIH","Failed AC2","Passed AC1","Spreadsheet1",NA,"","","",NA,"5","END",NA,NA,NA,NA,NA,NA,0,NA,NA,NA,NA,"","",NA,"","",NA,"SUPAMT36372"
"1",1695679378387,"25/09/2023 22:02:58",1695654178387,-7,"25/09/2023 08:02:58",144247,6,"task-hbx7",NA,31849430,9416791,NA,"complete","lqmyhf","38F71OA9GZV2JPGGAK2XR3MX2I2FM7","computer","Desktop or Laptop","Windows 10","Chrome 116.0.0.0","1280x800","1280x683",NA,NA,0,"Task Introduction and Instructions (Clone)",9,"BCADJEIFHG","Failed AC2","Passed AC1","Spreadsheet1",NA,"","","",NA,"5","BEGIN",NA,NA,NA,NA,NA,NA,0,NA,NA,NA,NA,"","",NA,"","",NA,"SUPAMT65725"
"2",1695679383488,"25/09/2023 22:03:03",1695654183488,-7,"25/09/2023 08:03:03",144247,6,"task-hbx7",NA,31849430,9416791,NA,"complete","lqmyhf","38F71OA9GZV2JPGGAK2XR3MX2I2FM7","computer","Desktop or Laptop","Windows 10","Chrome 116.0.0.0","1280x800","1280x683",NA,NA,0,"Task Introduction and Instructions (Clone)",9,"BCADJEIFHG","Failed AC2","Passed AC1","Spreadsheet1",1,"Task Instructions","Screen 1","anr7sn",1,"continue","",4413.033,4406.25,4413.033,4413.033,4406.25,4413.033,1,4413.033,0,0,NA,"Click To Continue","Continue Button",2,"object-1944","Task Instructions",NA,"SUPAMT65725"
"3",1695679386646,"25/09/2023 22:03:06",1695654186646,-7,"25/09/2023 08:03:06",144247,6,"task-hbx7",NA,31849430,9416791,NA,"complete","lqmyhf","38F71OA9GZV2JPGGAK2XR3MX2I2FM7","computer","Desktop or Laptop","Windows 10","Chrome 116.0.0.0","1280x800","1280x683",NA,NA,0,"Task Introduction and Instructions (Clone)",9,"BCADJEIFHG","Failed AC2","Passed AC1","Spreadsheet1",1,"Task Instructions","Screen 2","ce2tc8",2,"continue","",3164.58300007153,3156.25,3164.58300007153,3164.58300007153,3156.25,3164.58300007153,1,3164.58300007153,0,0,NA,"Click To Continue","Continue Button",2,"object-7","Task Instructions",NA,"SUPAMT65725"
"4",1695679390605,"25/09/2023 22:03:10",1695654190605,-7,"25/09/2023 08:03:10",144247,6,"task-hbx7",NA,31849430,9416791,NA,"complete","lqmyhf","38F71OA9GZV2JPGGAK2XR3MX2I2FM7","computer","Desktop or Laptop","Windows 10","Chrome 116.0.0.0","1280x800","1280x683",NA,NA,0,"Task Introduction and Instructions (Clone)",9,"BCADJEIFHG","Failed AC2","Passed AC1","Spreadsheet1",1,"Task Instructions","Screen 5","spepx9",3,"continue","",3967.43300009537,3937.5,3967.43300009537,3967.43300009537,3937.5,3967.43300009537,1,3967.43300009537,0,0,NA,"Click To Continue","Continue Button",2,"object-9","Task Instructions",NA,"SUPAMT65725"
"5",1695679393768,"25/09/2023 22:03:13",1695654193768,-7,"25/09/2023 08:03:13",144247,6,"task-hbx7",NA,31849430,9416791,NA,"complete","lqmyhf","38F71OA9GZV2JPGGAK2XR3MX2I2FM7","computer","Desktop or Laptop","Windows 10","Chrome 116.0.0.0","1280x800","1280x683",NA,NA,0,"Task Introduction and Instructions (Clone)",9,"BCADJEIFHG","Failed AC2","Passed AC1","Spreadsheet1",1,"Task Instructions","Screen 9","8nvnao",4,"continue","",3193.033,3187.5,3193.033,3193.033,3187.5,3193.033,1,3193.033,0,0,NA,"Click To Continue","Continue Button",2,"object-44","Task Instructions",NA,"SUPAMT65725"
"6",1695679393770,"25/09/2023 22:03:13",1695654193770,-7,"25/09/2023 08:03:13",144247,6,"task-hbx7",NA,31849430,9416791,NA,"complete","lqmyhf","38F71OA9GZV2JPGGAK2XR3MX2I2FM7","computer","Desktop or Laptop","Windows 10","Chrome 116.0.0.0","1280x800","1280x683",NA,NA,0,"Task Introduction and Instructions (Clone)",9,"BCADJEIFHG","Failed AC2","Passed AC1","Spreadsheet1",NA,"","","",NA,"5","END",NA,NA,NA,NA,NA,NA,0,NA,NA,NA,NA,"","",NA,"","",NA,"SUPAMT65725"
"1",1695668645603,"25/09/2023 19:04:05",1695654245603,-4,"25/09/2023 11:04:05",144247,6,"task-hbx7",NA,31849551,9416810,NA,"complete","kclxat","3LS2AMNW5LPNAHR11GS4V6FG4KQQOR","computer","Desktop or Laptop","Windows 10","Chrome 116.0.0.0","1366x768","1366x619",NA,NA,0,"Task Introduction and Instructions (Clone)",9,"CDBEAFJGIH","Passed AC2","","Spreadsheet1",NA,"","","",NA,"5","BEGIN",NA,NA,NA,NA,NA,NA,0,NA,NA,NA,NA,"","",NA,"","",NA,"SUPAMT27268"
"2",1695668651387,"25/09/2023 19:04:11",1695654251387,-4,"25/09/2023 11:04:11",144247,6,"task-hbx7",NA,31849551,9416810,NA,"complete","kclxat","3LS2AMNW5LPNAHR11GS4V6FG4KQQOR","computer","Desktop or Laptop","Windows 10","Chrome 116.0.0.0","1366x768","1366x619",NA,NA,0,"Task Introduction and Instructions (Clone)",9,"CDBEAFJGIH","Passed AC2","","Spreadsheet1",1,"Task Instructions","Screen 1","anr7sn",1,"continue","",5694.25100004768,5684.125,5694.25100004768,5694.25100004768,5684.125,5694.25100004768,1,5694.25100004768,0,0,NA,"Click To Continue","Continue Button",2,"object-1944","Task Instructions",NA,"SUPAMT27268"
"3",1695668654467,"25/09/2023 19:04:14",1695654254467,-4,"25/09/2023 11:04:14",144247,6,"task-hbx7",NA,31849551,9416810,NA,"complete","kclxat","3LS2AMNW5LPNAHR11GS4V6FG4KQQOR","computer","Desktop or Laptop","Windows 10","Chrome 116.0.0.0","1366x768","1366x619",NA,NA,0,"Task Introduction and Instructions (Clone)",9,"CDBEAFJGIH","Passed AC2","","Spreadsheet1",1,"Task Instructions","Screen 2","ce2tc8",2,"continue","",3090.12600004768,3081.721,3090.12600004768,3090.12600004768,3081.721,3090.12600004768,1,3090.12600004768,0,0,NA,"Click To Continue","Continue Button",2,"object-7","Task Instructions",NA,"SUPAMT27268"
"4",1695668657530,"25/09/2023 19:04:17",1695654257530,-4,"25/09/2023 11:04:17",144247,6,"task-hbx7",NA,31849551,9416810,NA,"complete","kclxat","3LS2AMNW5LPNAHR11GS4V6FG4KQQOR","computer","Desktop or Laptop","Windows 10","Chrome 116.0.0.0","1366x768","1366x619",NA,NA,0,"Task Introduction and Instructions (Clone)",9,"CDBEAFJGIH","Passed AC2","","Spreadsheet1",1,"Task Instructions","Screen 5","spepx9",3,"continue","",3072.00499995232,3070.015,3072.00499995232,3072.00499995232,3070.015,3072.00499995232,1,3072.00499995232,0,0,NA,"Click To Continue","Continue Button",2,"object-9","Task Instructions",NA,"SUPAMT27268"
"5",1695668660570,"25/09/2023 19:04:20",1695654260570,-4,"25/09/2023 11:04:20",144247,6,"task-hbx7",NA,31849551,9416810,NA,"complete","kclxat","3LS2AMNW5LPNAHR11GS4V6FG4KQQOR","computer","Desktop or Laptop","Windows 10","Chrome 116.0.0.0","1366x768","1366x619",NA,NA,0,"Task Introduction and Instructions (Clone)",9,"CDBEAFJGIH","Passed AC2","","Spreadsheet1",1,"Task Instructions","Screen 9","8nvnao",4,"continue","",3041.98999995232,3035.24,3041.98999995232,3041.98999995232,3035.24,3041.98999995232,1,3041.98999995232,0,0,NA,"Click To Continue","Continue Button",2,"object-44","Task Instructions",NA,"SUPAMT27268"
"6",1695668660573,"25/09/2023 19:04:20",1695654260573,-4,"25/09/2023 11:04:20",144247,6,"task-hbx7",NA,31849551,9416810,NA,"complete","kclxat","3LS2AMNW5LPNAHR11GS4V6FG4KQQOR","computer","Desktop or Laptop","Windows 10","Chrome 116.0.0.0","1366x768","1366x619",NA,NA,0,"Task Introduction and Instructions (Clone)",9,"CDBEAFJGIH","Passed AC2","","Spreadsheet1",NA,"","","",NA,"5","END",NA,NA,NA,NA,NA,NA,0,NA,NA,NA,NA,"","",NA,"","",NA,"SUPAMT27268"
"1",1695668654109,"25/09/2023 19:04:14",1695654254109,-4,"25/09/2023 11:04:14",144247,6,"task-hbx7",NA,31849571,9416814,NA,"complete","fprqnx","373ERPL3YU73ZAB9AC33U6V8ZE9TRH","computer","Desktop or Laptop","Windows 10","Chrome 116.0.0.0","1366x768","1517x687",NA,NA,0,"Task Introduction and Instructions (Clone)",9,"HIGJFAEBDC","Passed AC2","","Spreadsheet1",NA,"","","",NA,"5","BEGIN",NA,NA,NA,NA,NA,NA,0,NA,NA,NA,NA,"","",NA,"","",NA,"SUPAMT23563"
"2",1695668658208,"25/09/2023 19:04:18",1695654258208,-4,"25/09/2023 11:04:18",144247,6,"task-hbx7",NA,31849571,9416814,NA,"complete","fprqnx","373ERPL3YU73ZAB9AC33U6V8ZE9TRH","computer","Desktop or Laptop","Windows 10","Chrome 116.0.0.0","1366x768","1517x687",NA,NA,0,"Task Introduction and Instructions (Clone)",9,"HIGJFAEBDC","Passed AC2","","Spreadsheet1",1,"Task Instructions","Screen 1","anr7sn",1,"continue","",3988.63999990463,3984.996,3988.63999990463,3988.63999990463,3984.996,3988.63999990463,1,3988.63999990463,0,0,NA,"Click To Continue","Continue Button",2,"object-1944","Task Instructions",NA,"SUPAMT23563"
"3",1695668661455,"25/09/2023 19:04:21",1695654261455,-4,"25/09/2023 11:04:21",144247,6,"task-hbx7",NA,31849571,9416814,NA,"complete","fprqnx","373ERPL3YU73ZAB9AC33U6V8ZE9TRH","computer","Desktop or Laptop","Windows 10","Chrome 116.0.0.0","1366x768","1517x687",NA,NA,0,"Task Introduction and Instructions (Clone)",9,"HIGJFAEBDC","Passed AC2","","Spreadsheet1",1,"Task Instructions","Screen 2","ce2tc8",2,"continue","",3251.24400004768,3237.294,3251.24400004768,3251.24400004768,3237.294,3251.24400004768,1,3251.24400004768,0,0,NA,"Click To Continue","Continue Button",2,"object-7","Task Instructions",NA,"SUPAMT23563"
"4",1695668664320,"25/09/2023 19:04:24",1695654264320,-4,"25/09/2023 11:04:24",144247,6,"task-hbx7",NA,31849571,9416814,NA,"complete","fprqnx","373ERPL3YU73ZAB9AC33U6V8ZE9TRH","computer","Desktop or Laptop","Windows 10","Chrome 116.0.0.0","1366x768","1517x687",NA,NA,0,"Task Introduction and Instructions (Clone)",9,"HIGJFAEBDC","Passed AC2","","Spreadsheet1",1,"Task Instructions","Screen 5","spepx9",3,"continue","",2879.45000004768,2869.321,2879.45000004768,2879.45000004768,2869.321,2879.45000004768,1,2879.45000004768,0,0,NA,"Click To Continue","Continue Button",2,"object-9","Task Instructions",NA,"SUPAMT23563"
"5",1695668667272,"25/09/2023 19:04:27",1695654267272,-4,"25/09/2023 11:04:27",144247,6,"task-hbx7",NA,31849571,9416814,NA,"complete","fprqnx","373ERPL3YU73ZAB9AC33U6V8ZE9TRH","computer","Desktop or Laptop","Windows 10","Chrome 116.0.0.0","1366x768","1517x687",NA,NA,0,"Task Introduction and Instructions (Clone)",9,"HIGJFAEBDC","Passed AC2","","Spreadsheet1",1,"Task Instructions","Screen 9","8nvnao",4,"continue","",2961.929,2955.916,2961.929,2961.929,2955.916,2961.929,1,2961.929,0,0,NA,"Click To Continue","Continue Button",2,"object-44","Task Instructions",NA,"SUPAMT23563"
"6",1695668667274,"25/09/2023 19:04:27",1695654267274,-4,"25/09/2023 11:04:27",144247,6,"task-hbx7",NA,31849571,9416814,NA,"complete","fprqnx","373ERPL3YU73ZAB9AC33U6V8ZE9TRH","computer","Desktop or Laptop","Windows 10","Chrome 116.0.0.0","1366x768","1517x687",NA,NA,0,"Task Introduction and Instructions (Clone)",9,"HIGJFAEBDC","Passed AC2","","Spreadsheet1",NA,"","","",NA,"5","END",NA,NA,NA,NA,NA,NA,0,NA,NA,NA,NA,"","",NA,"","",NA,"SUPAMT23563"
"1",1695668658856,"25/09/2023 19:04:18",1695654258856,-4,"25/09/2023 11:04:18",144247,6,"task-hbx7",NA,31849582,9416775,NA,"complete","eusrdv","3DUZQ9U6SSNUDHFBUW3NLYOPI18VSN","computer","Desktop or Laptop","Windows 10","Chrome 116.0.0.0","1366x768","1366x619",NA,NA,0,"Task Introduction and Instructions (Clone)",9,"JAIBHCGDFE","Passed AC2","","Spreadsheet1",NA,"","","",NA,"5","BEGIN",NA,NA,NA,NA,NA,NA,0,NA,NA,NA,NA,"","",NA,"","",NA,"SUPAMT37698"
"2",1695668664200,"25/09/2023 19:04:24",1695654264200,-4,"25/09/2023 11:04:24",144247,6,"task-hbx7",NA,31849582,9416775,NA,"complete","eusrdv","3DUZQ9U6SSNUDHFBUW3NLYOPI18VSN","computer","Desktop or Laptop","Windows 10","Chrome 116.0.0.0","1366x768","1366x619",NA,NA,0,"Task Introduction and Instructions (Clone)",9,"JAIBHCGDFE","Passed AC2","","Spreadsheet1",1,"Task Instructions","Screen 1","anr7sn",1,"continue","",5277.61500002384,5270.393,5277.61500002384,5277.61500002384,5270.393,5277.61500002384,1,5277.61500002384,0,0,NA,"Click To Continue","Continue Button",2,"object-1944","Task Instructions",NA,"SUPAMT37698"
"3",1695668668639,"25/09/2023 19:04:28",1695654268639,-4,"25/09/2023 11:04:28",144247,6,"task-hbx7",NA,31849582,9416775,NA,"complete","eusrdv","3DUZQ9U6SSNUDHFBUW3NLYOPI18VSN","computer","Desktop or Laptop","Windows 10","Chrome 116.0.0.0","1366x768","1366x619",NA,NA,0,"Task Introduction and Instructions (Clone)",9,"JAIBHCGDFE","Passed AC2","","Spreadsheet1",1,"Task Instructions","Screen 2","ce2tc8",2,"continue","",4446.52200003576,4433.27,4446.52200003576,4446.52200003576,4433.27,4446.52200003576,1,4446.52200003576,0,0,NA,"Click To Continue","Continue Button",2,"object-7","Task Instructions",NA,"SUPAMT37698"
"4",1695668672443,"25/09/2023 19:04:32",1695654272443,-4,"25/09/2023 11:04:32",144247,6,"task-hbx7",NA,31849582,9416775,NA,"complete","eusrdv","3DUZQ9U6SSNUDHFBUW3NLYOPI18VSN","computer","Desktop or Laptop","Windows 10","Chrome 116.0.0.0","1366x768","1366x619",NA,NA,0,"Task Introduction and Instructions (Clone)",9,"JAIBHCGDFE","Passed AC2","","Spreadsheet1",1,"Task Instructions","Screen 5","spepx9",3,"continue","",3816.95200002384,3814.422,3816.95200002384,3816.95200002384,3814.422,3816.95200002384,1,3816.95200002384,0,0,NA,"Click To Continue","Continue Button",2,"object-9","Task Instructions",NA,"SUPAMT37698"
"5",1695668675511,"25/09/2023 19:04:35",1695654275511,-4,"25/09/2023 11:04:35",144247,6,"task-hbx7",NA,31849582,9416775,NA,"complete","eusrdv","3DUZQ9U6SSNUDHFBUW3NLYOPI18VSN","computer","Desktop or Laptop","Windows 10","Chrome 116.0.0.0","1366x768","1366x619",NA,NA,0,"Task Introduction and Instructions (Clone)",9,"JAIBHCGDFE","Passed AC2","","Spreadsheet1",1,"Task Instructions","Screen 9","8nvnao",4,"continue","",3070.63000004768,3064.423,3070.63000004768,3070.63000004768,3064.423,3070.63000004768,1,3070.63000004768,0,0,NA,"Click To Continue","Continue Button",2,"object-44","Task Instructions",NA,"SUPAMT37698"
"6",1695668675513,"25/09/2023 19:04:35",1695654275513,-4,"25/09/2023 11:04:35",144247,6,"task-hbx7",NA,31849582,9416775,NA,"complete","eusrdv","3DUZQ9U6SSNUDHFBUW3NLYOPI18VSN","computer","Desktop or Laptop","Windows 10","Chrome 116.0.0.0","1366x768","1366x619",NA,NA,0,"Task Introduction and Instructions (Clone)",9,"JAIBHCGDFE","Passed AC2","","Spreadsheet1",NA,"","","",NA,"5","END",NA,NA,NA,NA,NA,NA,0,NA,NA,NA,NA,"","",NA,"","",NA,"SUPAMT37698"
"1",1695668868777,"25/09/2023 19:07:48",1695654468777,-4,"25/09/2023 11:07:48",144247,6,"task-hbx7",NA,31849892,9416743,NA,"complete","alrrat","3IXQG4FA2ZXXZOL6G9CW3RPSNL49BL","computer","Desktop or Laptop","Windows 10","Chrome 116.0.0.0","1366x768","1366x619",NA,NA,0,"Task Introduction and Instructions (Clone)",9,"BCADJEIFHG","Passed AC2","","Spreadsheet1",NA,"","","",NA,"5","BEGIN",NA,NA,NA,NA,NA,NA,0,NA,NA,NA,NA,"","",NA,"","",NA,"SUPAMT12467"
"2",1695668873013,"25/09/2023 19:07:53",1695654473013,-4,"25/09/2023 11:07:53",144247,6,"task-hbx7",NA,31849892,9416743,NA,"complete","alrrat","3IXQG4FA2ZXXZOL6G9CW3RPSNL49BL","computer","Desktop or Laptop","Windows 10","Chrome 116.0.0.0","1366x768","1366x619",NA,NA,0,"Task Introduction and Instructions (Clone)",9,"BCADJEIFHG","Passed AC2","","Spreadsheet1",1,"Task Instructions","Screen 1","anr7sn",1,"continue","",4207,4187.5,4207,4207,4187.5,4207,1,4207,0,0,NA,"Click To Continue","Continue Button",2,"object-1944","Task Instructions",NA,"SUPAMT12467"
"3",1695668878790,"25/09/2023 19:07:58",1695654478790,-4,"25/09/2023 11:07:58",144247,6,"task-hbx7",NA,31849892,9416743,NA,"complete","alrrat","3IXQG4FA2ZXXZOL6G9CW3RPSNL49BL","computer","Desktop or Laptop","Windows 10","Chrome 116.0.0.0","1366x768","1366x619",NA,NA,0,"Task Introduction and Instructions (Clone)",9,"BCADJEIFHG","Passed AC2","","Spreadsheet1",1,"Task Instructions","Screen 2","ce2tc8",2,"continue","",5796.5,5781.25,5796.5,5796.5,5781.25,5796.5,1,5796.5,0,0,NA,"Click To Continue","Continue Button",2,"object-7","Task Instructions",NA,"SUPAMT12467"
"4",1695668882489,"25/09/2023 19:08:02",1695654482489,-4,"25/09/2023 11:08:02",144247,6,"task-hbx7",NA,31849892,9416743,NA,"complete","alrrat","3IXQG4FA2ZXXZOL6G9CW3RPSNL49BL","computer","Desktop or Laptop","Windows 10","Chrome 116.0.0.0","1366x768","1366x619",NA,NA,0,"Task Introduction and Instructions (Clone)",9,"BCADJEIFHG","Passed AC2","","Spreadsheet1",1,"Task Instructions","Screen 5","spepx9",3,"continue","",3714.25,3687.5,3714.25,3714.25,3687.5,3714.25,1,3714.25,0,0,NA,"Click To Continue","Continue Button",2,"object-9","Task Instructions",NA,"SUPAMT12467"
"5",1695668886305,"25/09/2023 19:08:06",1695654486305,-4,"25/09/2023 11:08:06",144247,6,"task-hbx7",NA,31849892,9416743,NA,"complete","alrrat","3IXQG4FA2ZXXZOL6G9CW3RPSNL49BL","computer","Desktop or Laptop","Windows 10","Chrome 116.0.0.0","1366x768","1366x619",NA,NA,0,"Task Introduction and Instructions (Clone)",9,"BCADJEIFHG","Passed AC2","","Spreadsheet1",1,"Task Instructions","Screen 9","8nvnao",4,"continue","",3842.75,3812.5,3842.75,3842.75,3812.5,3842.75,1,3842.75,0,0,NA,"Click To Continue","Continue Button",2,"object-44","Task Instructions",NA,"SUPAMT12467"
"6",1695668886308,"25/09/2023 19:08:06",1695654486308,-4,"25/09/2023 11:08:06",144247,6,"task-hbx7",NA,31849892,9416743,NA,"complete","alrrat","3IXQG4FA2ZXXZOL6G9CW3RPSNL49BL","computer","Desktop or Laptop","Windows 10","Chrome 116.0.0.0","1366x768","1366x619",NA,NA,0,"Task Introduction and Instructions (Clone)",9,"BCADJEIFHG","Passed AC2","","Spreadsheet1",NA,"","","",NA,"5","END",NA,NA,NA,NA,NA,NA,0,NA,NA,NA,NA,"","",NA,"","",NA,"SUPAMT12467"
"1",1695668934526,"25/09/2023 19:08:54",1695654534526,-4,"25/09/2023 11:08:54",144247,6,"task-hbx7",NA,31849994,9416798,NA,"complete","ipikpo","32SCWG5HIN3CLZKI17RLE13FEOAP6A","computer","Desktop or Laptop","Windows 10","Chrome 117.0.0.0","1366x768","1366x619",NA,NA,0,"Task Introduction and Instructions (Clone)",9,"FGEHDICJBA","Passed AC2","","Spreadsheet1",NA,"","","",NA,"5","BEGIN",NA,NA,NA,NA,NA,NA,0,NA,NA,NA,NA,"","",NA,"","",NA,"SUPAMT81044"
"2",1695668939576,"25/09/2023 19:08:59",1695654539576,-4,"25/09/2023 11:08:59",144247,6,"task-hbx7",NA,31849994,9416798,NA,"complete","ipikpo","32SCWG5HIN3CLZKI17RLE13FEOAP6A","computer","Desktop or Laptop","Windows 10","Chrome 117.0.0.0","1366x768","1366x619",NA,NA,0,"Task Introduction and Instructions (Clone)",9,"FGEHDICJBA","Passed AC2","","Spreadsheet1",1,"Task Instructions","Screen 1","anr7sn",1,"continue","",4895.805,4876.748,4895.805,4895.805,4876.748,4895.805,1,4895.805,0,0,NA,"Click To Continue","Continue Button",2,"object-1944","Task Instructions",NA,"SUPAMT81044"
"3",1695669171164,"25/09/2023 19:12:51",1695654771164,-4,"25/09/2023 11:12:51",144247,6,"task-hbx7",NA,31849994,9416798,NA,"complete","ipikpo","32SCWG5HIN3CLZKI17RLE13FEOAP6A","computer","Desktop or Laptop","Windows 10","Chrome 117.0.0.0","1366x768","1366x619",NA,NA,0,"Task Introduction and Instructions (Clone)",9,"FGEHDICJBA","Passed AC2","","Spreadsheet1",1,"Task Instructions","Screen 2","ce2tc8",2,"continue","",231608.957000006,231605.417,231608.957000006,231608.957000006,231605.417,231608.957000006,1,231608.957000006,0,0,NA,"Click To Continue","Continue Button",2,"object-7","Task Instructions",NA,"SUPAMT81044"
"4",1695669174811,"25/09/2023 19:12:54",1695654774811,-4,"25/09/2023 11:12:54",144247,6,"task-hbx7",NA,31849994,9416798,NA,"complete","ipikpo","32SCWG5HIN3CLZKI17RLE13FEOAP6A","computer","Desktop or Laptop","Windows 10","Chrome 117.0.0.0","1366x768","1366x619",NA,NA,0,"Task Introduction and Instructions (Clone)",9,"FGEHDICJBA","Passed AC2","","Spreadsheet1",1,"Task Instructions","Screen 5","spepx9",3,"continue","",3650.54000000597,3635.04300000001,3650.54000000597,3650.54000000597,3635.04300000001,3650.54000000597,1,3650.54000000597,0,0,NA,"Click To Continue","Continue Button",2,"object-9","Task Instructions",NA,"SUPAMT81044"
"5",1695669181211,"25/09/2023 19:13:01",1695654781211,-4,"25/09/2023 11:13:01",144247,6,"task-hbx7",NA,31849994,9416798,NA,"complete","ipikpo","32SCWG5HIN3CLZKI17RLE13FEOAP6A","computer","Desktop or Laptop","Windows 10","Chrome 117.0.0.0","1366x768","1366x619",NA,NA,0,"Task Introduction and Instructions (Clone)",9,"FGEHDICJBA","Passed AC2","","Spreadsheet1",1,"Task Instructions","Screen 9","8nvnao",4,"continue","",6415.69699999405,6396.37700000001,6415.69699999405,6415.69699999405,6396.37700000001,6415.69699999405,1,6415.69699999405,0,0,NA,"Click To Continue","Continue Button",2,"object-44","Task Instructions",NA,"SUPAMT81044"
"6",1695669181226,"25/09/2023 19:13:01",1695654781226,-4,"25/09/2023 11:13:01",144247,6,"task-hbx7",NA,31849994,9416798,NA,"complete","ipikpo","32SCWG5HIN3CLZKI17RLE13FEOAP6A","computer","Desktop or Laptop","Windows 10","Chrome 117.0.0.0","1366x768","1366x619",NA,NA,0,"Task Introduction and Instructions (Clone)",9,"FGEHDICJBA","Passed AC2","","Spreadsheet1",NA,"","","",NA,"5","END",NA,NA,NA,NA,NA,NA,0,NA,NA,NA,NA,"","",NA,"","",NA,"SUPAMT81044"
"1",1695669053371,"25/09/2023 19:10:53",1695654653371,-4,"25/09/2023 11:10:53",144247,6,"task-hbx7",NA,31850154,9416800,NA,"complete","dfcwvy","3A1PQ49WVNGP1WLXCO7ZAWA7KML1HK","computer","Desktop or Laptop","Windows 10","Chrome 117.0.0.0","1366x768","1366x619",NA,NA,0,"Task Introduction and Instructions (Clone)",9,"DECFBGAHJI","Passed AC2","","Spreadsheet1",NA,"","","",NA,"5","BEGIN",NA,NA,NA,NA,NA,NA,0,NA,NA,NA,NA,"","",NA,"","",NA,"SUPAMT71272"
"2",1695669167181,"25/09/2023 19:12:47",1695654767181,-4,"25/09/2023 11:12:47",144247,6,"task-hbx7",NA,31850154,9416800,NA,"complete","dfcwvy","3A1PQ49WVNGP1WLXCO7ZAWA7KML1HK","computer","Desktop or Laptop","Windows 10","Chrome 117.0.0.0","1366x768","1366x619",NA,NA,0,"Task Introduction and Instructions (Clone)",9,"DECFBGAHJI","Passed AC2","","Spreadsheet1",1,"Task Instructions","Screen 1","anr7sn",1,"continue","",113693.175,113667.942,113693.175,113693.175,113667.942,113693.175,1,113693.175,0,0,NA,"Click To Continue","Continue Button",2,"object-1944","Task Instructions",NA,"SUPAMT71272"
"3",1695669182687,"25/09/2023 19:13:02",1695654782687,-4,"25/09/2023 11:13:02",144247,6,"task-hbx7",NA,31850154,9416800,NA,"complete","dfcwvy","3A1PQ49WVNGP1WLXCO7ZAWA7KML1HK","computer","Desktop or Laptop","Windows 10","Chrome 117.0.0.0","1366x768","1366x619",NA,NA,0,"Task Introduction and Instructions (Clone)",9,"DECFBGAHJI","Passed AC2","","Spreadsheet1",1,"Task Instructions","Screen 2","ce2tc8",2,"continue","",15531.332999994,15518.483,15531.332999994,15531.332999994,15518.483,15531.332999994,1,15531.332999994,0,0,NA,"Click To Continue","Continue Button",2,"object-7","Task Instructions",NA,"SUPAMT71272"
"4",1695669271297,"25/09/2023 19:14:31",1695654871297,-4,"25/09/2023 11:14:31",144247,6,"task-hbx7",NA,31850154,9416800,NA,"complete","dfcwvy","3A1PQ49WVNGP1WLXCO7ZAWA7KML1HK","computer","Desktop or Laptop","Windows 10","Chrome 117.0.0.0","1366x768","1366x619",NA,NA,0,"Task Introduction and Instructions (Clone)",9,"DECFBGAHJI","Passed AC2","","Spreadsheet1",1,"Task Instructions","Screen 5","spepx9",3,"continue","",88623.4499999881,88594.274,88623.4499999881,88623.4499999881,88594.274,88623.4499999881,1,88623.4499999881,0,0,NA,"Click To Continue","Continue Button",2,"object-9","Task Instructions",NA,"SUPAMT71272"
"5",1695669320524,"25/09/2023 19:15:20",1695654920524,-4,"25/09/2023 11:15:20",144247,6,"task-hbx7",NA,31850154,9416800,NA,"complete","dfcwvy","3A1PQ49WVNGP1WLXCO7ZAWA7KML1HK","computer","Desktop or Laptop","Windows 10","Chrome 117.0.0.0","1366x768","1366x619",NA,NA,0,"Task Introduction and Instructions (Clone)",9,"DECFBGAHJI","Passed AC2","","Spreadsheet1",1,"Task Instructions","Screen 9","8nvnao",4,"continue","",49255.7759999821,49250.197,49255.7759999821,49255.7759999821,49250.197,49255.7759999821,1,49255.7759999821,0,0,NA,"Click To Continue","Continue Button",2,"object-44","Task Instructions",NA,"SUPAMT71272"
"6",1695669320533,"25/09/2023 19:15:20",1695654920533,-4,"25/09/2023 11:15:20",144247,6,"task-hbx7",NA,31850154,9416800,NA,"complete","dfcwvy","3A1PQ49WVNGP1WLXCO7ZAWA7KML1HK","computer","Desktop or Laptop","Windows 10","Chrome 117.0.0.0","1366x768","1366x619",NA,NA,0,"Task Introduction and Instructions (Clone)",9,"DECFBGAHJI","Passed AC2","","Spreadsheet1",NA,"","","",NA,"5","END",NA,NA,NA,NA,NA,NA,0,NA,NA,NA,NA,"","",NA,"","",NA,"SUPAMT71272"
"1",1695669280197,"25/09/2023 19:14:40",1695654880197,-4,"25/09/2023 11:14:40",144247,6,"task-hbx7",NA,31850541,9416832,NA,"complete","dvocfj","3SEPORI8WTY7M5YRET6ZL47FK68ZAW","computer","Desktop or Laptop","Windows 10","Chrome 114.0.0.0","1366x768","1366x625",NA,NA,0,"Task Introduction and Instructions (Clone)",9,"ABJCIDHEGF","Failed AC2","Passed AC1","Spreadsheet1",NA,"","","",NA,"5","BEGIN",NA,NA,NA,NA,NA,NA,0,NA,NA,NA,NA,"","",NA,"","",NA,"SUPAMT35426"
"2",1695669284685,"25/09/2023 19:14:44",1695654884685,-4,"25/09/2023 11:14:44",144247,6,"task-hbx7",NA,31850541,9416832,NA,"complete","dvocfj","3SEPORI8WTY7M5YRET6ZL47FK68ZAW","computer","Desktop or Laptop","Windows 10","Chrome 114.0.0.0","1366x768","1366x625",NA,NA,0,"Task Introduction and Instructions (Clone)",9,"ABJCIDHEGF","Failed AC2","Passed AC1","Spreadsheet1",1,"Task Instructions","Screen 1","anr7sn",1,"continue","",4310.05899961853,4300.671,4310.05899961853,4310.05899961853,4300.671,4310.05899961853,1,4310.05899961853,0,0,NA,"Click To Continue","Continue Button",2,"object-1944","Task Instructions",NA,"SUPAMT35426"
"3",1695669287901,"25/09/2023 19:14:47",1695654887901,-4,"25/09/2023 11:14:47",144247,6,"task-hbx7",NA,31850541,9416832,NA,"complete","dvocfj","3SEPORI8WTY7M5YRET6ZL47FK68ZAW","computer","Desktop or Laptop","Windows 10","Chrome 114.0.0.0","1366x768","1366x625",NA,NA,0,"Task Introduction and Instructions (Clone)",9,"ABJCIDHEGF","Failed AC2","Passed AC1","Spreadsheet1",1,"Task Instructions","Screen 2","ce2tc8",2,"continue","",3225.78800019074,3221.812,3225.78800019074,3225.78800019074,3221.812,3225.78800019074,1,3225.78800019074,0,0,NA,"Click To Continue","Continue Button",2,"object-7","Task Instructions",NA,"SUPAMT35426"
"4",1695669291708,"25/09/2023 19:14:51",1695654891708,-4,"25/09/2023 11:14:51",144247,6,"task-hbx7",NA,31850541,9416832,NA,"complete","dvocfj","3SEPORI8WTY7M5YRET6ZL47FK68ZAW","computer","Desktop or Laptop","Windows 10","Chrome 114.0.0.0","1366x768","1366x625",NA,NA,0,"Task Introduction and Instructions (Clone)",9,"ABJCIDHEGF","Failed AC2","Passed AC1","Spreadsheet1",1,"Task Instructions","Screen 5","spepx9",3,"continue","",3811.176,3799.341,3811.176,3811.176,3799.341,3811.176,1,3811.176,0,0,NA,"Click To Continue","Continue Button",2,"object-9","Task Instructions",NA,"SUPAMT35426"
"5",1695669294867,"25/09/2023 19:14:54",1695654894867,-4,"25/09/2023 11:14:54",144247,6,"task-hbx7",NA,31850541,9416832,NA,"complete","dvocfj","3SEPORI8WTY7M5YRET6ZL47FK68ZAW","computer","Desktop or Laptop","Windows 10","Chrome 114.0.0.0","1366x768","1366x625",NA,NA,0,"Task Introduction and Instructions (Clone)",9,"ABJCIDHEGF","Failed AC2","Passed AC1","Spreadsheet1",1,"Task Instructions","Screen 9","8nvnao",4,"continue","",3171.23499961853,3166.877,3171.23499961853,3171.23499961853,3166.877,3171.23499961853,1,3171.23499961853,0,0,NA,"Click To Continue","Continue Button",2,"object-44","Task Instructions",NA,"SUPAMT35426"
"6",1695669294874,"25/09/2023 19:14:54",1695654894874,-4,"25/09/2023 11:14:54",144247,6,"task-hbx7",NA,31850541,9416832,NA,"complete","dvocfj","3SEPORI8WTY7M5YRET6ZL47FK68ZAW","computer","Desktop or Laptop","Windows 10","Chrome 114.0.0.0","1366x768","1366x625",NA,NA,0,"Task Introduction and Instructions (Clone)",9,"ABJCIDHEGF","Failed AC2","Passed AC1","Spreadsheet1",NA,"","","",NA,"5","END",NA,NA,NA,NA,NA,NA,0,NA,NA,NA,NA,"","",NA,"","",NA,"SUPAMT35426"
"1",1695669534071,"25/09/2023 19:18:54",1695655134071,-4,"25/09/2023 11:18:54",144247,6,"task-hbx7",NA,31850801,9416765,NA,"complete","uwhvio","37UEWGM5HZ72QQZ08TJTO0CD7VIR16","computer","Desktop or Laptop","Windows 10","Chrome 117.0.0.0","1366x768","1366x619",NA,NA,0,"Task Introduction and Instructions (Clone)",9,"BCADJEIFHG","Passed AC2","","Spreadsheet1",NA,"","","",NA,"5","BEGIN",NA,NA,NA,NA,NA,NA,0,NA,NA,NA,NA,"","",NA,"","",NA,"SUPAMT73359"
"2",1695669539896,"25/09/2023 19:18:59",1695655139896,-4,"25/09/2023 11:18:59",144247,6,"task-hbx7",NA,31850801,9416765,NA,"complete","uwhvio","37UEWGM5HZ72QQZ08TJTO0CD7VIR16","computer","Desktop or Laptop","Windows 10","Chrome 117.0.0.0","1366x768","1366x619",NA,NA,0,"Task Introduction and Instructions (Clone)",9,"BCADJEIFHG","Passed AC2","","Spreadsheet1",1,"Task Instructions","Screen 1","anr7sn",1,"continue","",5790.25,5781.25,5790.25,5790.25,5781.25,5790.25,1,5790.25,0,0,NA,"Click To Continue","Continue Button",2,"object-1944","Task Instructions",NA,"SUPAMT73359"
"3",1695669544797,"25/09/2023 19:19:04",1695655144797,-4,"25/09/2023 11:19:04",144247,6,"task-hbx7",NA,31850801,9416765,NA,"complete","uwhvio","37UEWGM5HZ72QQZ08TJTO0CD7VIR16","computer","Desktop or Laptop","Windows 10","Chrome 117.0.0.0","1366x768","1366x619",NA,NA,0,"Task Introduction and Instructions (Clone)",9,"BCADJEIFHG","Passed AC2","","Spreadsheet1",1,"Task Instructions","Screen 2","ce2tc8",2,"continue","",4906.25,4875,4906.25,4906.25,4875,4906.25,1,4906.25,0,0,NA,"Click To Continue","Continue Button",2,"object-7","Task Instructions",NA,"SUPAMT73359"
"4",1695669549859,"25/09/2023 19:19:09",1695655149859,-4,"25/09/2023 11:19:09",144247,6,"task-hbx7",NA,31850801,9416765,NA,"complete","uwhvio","37UEWGM5HZ72QQZ08TJTO0CD7VIR16","computer","Desktop or Laptop","Windows 10","Chrome 117.0.0.0","1366x768","1366x619",NA,NA,0,"Task Introduction and Instructions (Clone)",9,"BCADJEIFHG","Passed AC2","","Spreadsheet1",1,"Task Instructions","Screen 5","spepx9",3,"continue","",5093.75,5062.5,5093.75,5093.75,5062.5,5093.75,1,5093.75,0,0,NA,"Click To Continue","Continue Button",2,"object-9","Task Instructions",NA,"SUPAMT73359"
"5",1695669555295,"25/09/2023 19:19:15",1695655155295,-4,"25/09/2023 11:19:15",144247,6,"task-hbx7",NA,31850801,9416765,NA,"complete","uwhvio","37UEWGM5HZ72QQZ08TJTO0CD7VIR16","computer","Desktop or Laptop","Windows 10","Chrome 117.0.0.0","1366x768","1366x619",NA,NA,0,"Task Introduction and Instructions (Clone)",9,"BCADJEIFHG","Passed AC2","","Spreadsheet1",1,"Task Instructions","Screen 9","8nvnao",4,"continue","",5468.75,5437.5,5468.75,5468.75,5437.5,5468.75,1,5468.75,0,0,NA,"Click To Continue","Continue Button",2,"object-44","Task Instructions",NA,"SUPAMT73359"
"6",1695669555300,"25/09/2023 19:19:15",1695655155300,-4,"25/09/2023 11:19:15",144247,6,"task-hbx7",NA,31850801,9416765,NA,"complete","uwhvio","37UEWGM5HZ72QQZ08TJTO0CD7VIR16","computer","Desktop or Laptop","Windows 10","Chrome 117.0.0.0","1366x768","1366x619",NA,NA,0,"Task Introduction and Instructions (Clone)",9,"BCADJEIFHG","Passed AC2","","Spreadsheet1",NA,"","","",NA,"5","END",NA,NA,NA,NA,NA,NA,0,NA,NA,NA,NA,"","",NA,"","",NA,"SUPAMT73359"
"1",1695706362329,"26/09/2023 05:32:42",1695681162329,-7,"25/09/2023 15:32:42",144247,6,"task-hbx7",NA,31851596,9416731,NA,"complete","khcvir","3VSOLARPKH8SWTHT1GXQL8RGZTR93U","computer","Desktop or Laptop","Windows 10","Chrome 117.0.0.0","1366x768","1366x619",NA,NA,0,"Task Introduction and Instructions (Clone)",9,"HIGJFAEBDC","Passed AC2","","Spreadsheet1",NA,"","","",NA,"5","BEGIN",NA,NA,NA,NA,NA,NA,0,NA,NA,NA,NA,"","",NA,"","",NA,"SUPAMT75094"
"2",1695706365897,"26/09/2023 05:32:45",1695681165897,-7,"25/09/2023 15:32:45",144247,6,"task-hbx7",NA,31851596,9416731,NA,"complete","khcvir","3VSOLARPKH8SWTHT1GXQL8RGZTR93U","computer","Desktop or Laptop","Windows 10","Chrome 117.0.0.0","1366x768","1366x619",NA,NA,0,"Task Introduction and Instructions (Clone)",9,"HIGJFAEBDC","Passed AC2","","Spreadsheet1",1,"Task Instructions","Screen 1","anr7sn",1,"continue","",3516.5,3500,3516.5,3516.5,3500,3516.5,1,3516.5,0,0,NA,"Click To Continue","Continue Button",2,"object-1944","Task Instructions",NA,"SUPAMT75094"
"3",1695706369102,"26/09/2023 05:32:49",1695681169102,-7,"25/09/2023 15:32:49",144247,6,"task-hbx7",NA,31851596,9416731,NA,"complete","khcvir","3VSOLARPKH8SWTHT1GXQL8RGZTR93U","computer","Desktop or Laptop","Windows 10","Chrome 117.0.0.0","1366x768","1366x619",NA,NA,0,"Task Introduction and Instructions (Clone)",9,"HIGJFAEBDC","Passed AC2","","Spreadsheet1",1,"Task Instructions","Screen 2","ce2tc8",2,"continue","",3218.75,3187.5,3218.75,3218.75,3187.5,3218.75,1,3218.75,0,0,NA,"Click To Continue","Continue Button",2,"object-7","Task Instructions",NA,"SUPAMT75094"
"4",1695706372248,"26/09/2023 05:32:52",1695681172248,-7,"25/09/2023 15:32:52",144247,6,"task-hbx7",NA,31851596,9416731,NA,"complete","khcvir","3VSOLARPKH8SWTHT1GXQL8RGZTR93U","computer","Desktop or Laptop","Windows 10","Chrome 117.0.0.0","1366x768","1366x619",NA,NA,0,"Task Introduction and Instructions (Clone)",9,"HIGJFAEBDC","Passed AC2","","Spreadsheet1",1,"Task Instructions","Screen 5","spepx9",3,"continue","",3181,3156.25,3181,3181,3156.25,3181,1,3181,0,0,NA,"Click To Continue","Continue Button",2,"object-9","Task Instructions",NA,"SUPAMT75094"
"5",1695706375387,"26/09/2023 05:32:55",1695681175387,-7,"25/09/2023 15:32:55",144247,6,"task-hbx7",NA,31851596,9416731,NA,"complete","khcvir","3VSOLARPKH8SWTHT1GXQL8RGZTR93U","computer","Desktop or Laptop","Windows 10","Chrome 117.0.0.0","1366x768","1366x619",NA,NA,0,"Task Introduction and Instructions (Clone)",9,"HIGJFAEBDC","Passed AC2","","Spreadsheet1",1,"Task Instructions","Screen 9","8nvnao",4,"continue","",3163.75,3156.25,3163.75,3163.75,3156.25,3163.75,1,3163.75,0,0,NA,"Click To Continue","Continue Button",2,"object-44","Task Instructions",NA,"SUPAMT75094"
"6",1695706375393,"26/09/2023 05:32:55",1695681175393,-7,"25/09/2023 15:32:55",144247,6,"task-hbx7",NA,31851596,9416731,NA,"complete","khcvir","3VSOLARPKH8SWTHT1GXQL8RGZTR93U","computer","Desktop or Laptop","Windows 10","Chrome 117.0.0.0","1366x768","1366x619",NA,NA,0,"Task Introduction and Instructions (Clone)",9,"HIGJFAEBDC","Passed AC2","","Spreadsheet1",NA,"","","",NA,"5","END",NA,NA,NA,NA,NA,NA,0,NA,NA,NA,NA,"","",NA,"","",NA,"SUPAMT75094"
"1",1695670490390,"25/09/2023 19:34:50",1695656090390,-4,"25/09/2023 11:34:50",144247,6,"task-hbx7",NA,31851693,9416809,NA,"complete","rhmzpm","3L6L49WXW6WUD2YLY4PSJXEKRX445J","computer","Desktop or Laptop","Windows 10","Chrome 115.0.0.0","1364x768","1364x651",NA,NA,0,"Task Introduction and Instructions (Clone)",9,"BCADJEIFHG","Passed AC2","","Spreadsheet1",NA,"","","",NA,"5","BEGIN",NA,NA,NA,NA,NA,NA,0,NA,NA,NA,NA,"","",NA,"","",NA,"SUPAMT67727"
"2",1695670494516,"25/09/2023 19:34:54",1695656094516,-4,"25/09/2023 11:34:54",144247,6,"task-hbx7",NA,31851693,9416809,NA,"complete","rhmzpm","3L6L49WXW6WUD2YLY4PSJXEKRX445J","computer","Desktop or Laptop","Windows 10","Chrome 115.0.0.0","1364x768","1364x651",NA,NA,0,"Task Introduction and Instructions (Clone)",9,"BCADJEIFHG","Passed AC2","","Spreadsheet1",1,"Task Instructions","Screen 1","anr7sn",1,"continue","",4085.04999980927,4076.94,4085.04999980927,4085.04999980927,4076.94,4085.04999980927,1,4085.04999980927,0,0,NA,"Click To Continue","Continue Button",2,"object-1944","Task Instructions",NA,"SUPAMT67727"
"3",1695670498495,"25/09/2023 19:34:58",1695656098495,-4,"25/09/2023 11:34:58",144247,6,"task-hbx7",NA,31851693,9416809,NA,"complete","rhmzpm","3L6L49WXW6WUD2YLY4PSJXEKRX445J","computer","Desktop or Laptop","Windows 10","Chrome 115.0.0.0","1364x768","1364x651",NA,NA,0,"Task Introduction and Instructions (Clone)",9,"BCADJEIFHG","Passed AC2","","Spreadsheet1",1,"Task Instructions","Screen 2","ce2tc8",2,"continue","",3986.91,3970.991,3986.91,3986.91,3970.991,3986.91,1,3986.91,0,0,NA,"Click To Continue","Continue Button",2,"object-7","Task Instructions",NA,"SUPAMT67727"
"4",1695670505921,"25/09/2023 19:35:05",1695656105921,-4,"25/09/2023 11:35:05",144247,6,"task-hbx7",NA,31851693,9416809,NA,"complete","rhmzpm","3L6L49WXW6WUD2YLY4PSJXEKRX445J","computer","Desktop or Laptop","Windows 10","Chrome 115.0.0.0","1364x768","1364x651",NA,NA,0,"Task Introduction and Instructions (Clone)",9,"BCADJEIFHG","Passed AC2","","Spreadsheet1",1,"Task Instructions","Screen 5","spepx9",3,"continue","",7442.2189997139,7437.723,7442.2189997139,7442.2189997139,7437.723,7442.2189997139,1,7442.2189997139,0,0,NA,"Click To Continue","Continue Button",2,"object-9","Task Instructions",NA,"SUPAMT67727"
"5",1695670606236,"25/09/2023 19:36:46",1695656206236,-4,"25/09/2023 11:36:46",144247,6,"task-hbx7",NA,31851693,9416809,NA,"complete","rhmzpm","3L6L49WXW6WUD2YLY4PSJXEKRX445J","computer","Desktop or Laptop","Windows 10","Chrome 115.0.0.0","1364x768","1364x651",NA,NA,0,"Task Introduction and Instructions (Clone)",9,"BCADJEIFHG","Passed AC2","","Spreadsheet1",1,"Task Instructions","Screen 9","8nvnao",4,"continue","",100317.248,100300.582,100317.248,100317.248,100300.582,100317.248,1,100317.248,0,0,NA,"Click To Continue","Continue Button",2,"object-44","Task Instructions",NA,"SUPAMT67727"
"6",1695670606244,"25/09/2023 19:36:46",1695656206244,-4,"25/09/2023 11:36:46",144247,6,"task-hbx7",NA,31851693,9416809,NA,"complete","rhmzpm","3L6L49WXW6WUD2YLY4PSJXEKRX445J","computer","Desktop or Laptop","Windows 10","Chrome 115.0.0.0","1364x768","1364x651",NA,NA,0,"Task Introduction and Instructions (Clone)",9,"BCADJEIFHG","Passed AC2","","Spreadsheet1",NA,"","","",NA,"5","END",NA,NA,NA,NA,NA,NA,0,NA,NA,NA,NA,"","",NA,"","",NA,"SUPAMT67727"
"1",1695671342161,"25/09/2023 19:49:02",1695656942161,-4,"25/09/2023 11:49:02",144247,6,"task-hbx7",NA,31852538,9416766,NA,"complete","bpvjsg","3K5TEWLKG1A5J3CFPK99HWI2936VIV","computer","Desktop or Laptop","Chromium OS 14541.0.0","Chrome 116.0.0.0","1920x1080","1200x1185",NA,NA,0,"Task Introduction and Instructions (Clone)",9,"GHFIEJDACB","Passed AC2","","Spreadsheet1",NA,"","","",NA,"5","BEGIN",NA,NA,NA,NA,NA,NA,0,NA,NA,NA,NA,"","",NA,"","",NA,"SUPAMT45247"
