"Event.Index","UTC.Timestamp","UTC.Date.and.Time","Local.Timestamp","Local.Timezone","Local.Date.and.Time","Experiment.ID","Experiment.Version","Tree.Node.Key","Repeat.Key","Schedule.ID","Participant.Private.ID","Participant.Starting.Group","Participant.Status","Participant.Completion.Code","Participant.External.Session.ID","Participant.Device.Type","Participant.Device","Participant.OS","Participant.Browser","Participant.Monitor.Size","Participant.Viewport.Size","Checkpoint","Room.ID","Room.Order","Task.Name","Task.Version","order.ot79","branch.g31k","branch.5gtn","Spreadsheet","Trial.Number","Display","Screen","Screen.ID","Screen.Counter","Response.Type","Response","Onset.Time","Clock.Time","Reaction.Time","Absolute.Onset.Time","Absolute.Clock.Time","Absolute.Reaction.Time","Correct","Response.Onset","Response.Duration","Proportion","Tag","Component.Name","Object.Name","Object.Number","Object.ID","Spreadsheet..display","Manipulation..Spreadsheet","Random_ID"
"1",1695668090289,"25/09/2023 18:54:50",1695653690289,-4,"25/09/2023 10:54:50",144247,6,"task-gjqt",NA,31848547,9416665,NA,"complete","idnqyy","34HJIJKLPBVBBWD04V75NV8J4L54VP","computer","Desktop or Laptop","Windows 10","Chrome 116.0.0.0","1600x900","1600x751",NA,NA,0,"BIQ (Charlotte)",3,"BCADJEIFHG","Passed AC2","","Spreadsheet1",NA,"","","",NA,"5","BEGIN",NA,NA,NA,NA,NA,NA,0,NA,NA,NA,NA,"","",NA,"","",NA,"SUPAMT33623"
"2",1695668094370,"25/09/2023 18:54:54",1695653694370,-4,"25/09/2023 10:54:54",144247,6,"task-gjqt",NA,31848547,9416665,NA,"complete","idnqyy","34HJIJKLPBVBBWD04V75NV8J4L54VP","computer","Desktop or Laptop","Windows 10","Chrome 116.0.0.0","1600x900","1600x751",NA,NA,0,"BIQ (Charlotte)",3,"BCADJEIFHG","Passed AC2","","Spreadsheet1",1,"BIQ","Screen 1","9dh6eq",1,"continue","",4122.25,4093.75,4122.25,4122.25,4093.75,4122.25,1,4122.25,0,0,NA,"Click To Continue","Continue Button",23,"object-48","BIQ",NA,"SUPAMT33623"
"3",1695668094372,"25/09/2023 18:54:54",1695653694372,-4,"25/09/2023 10:54:54",144247,6,"task-gjqt",NA,31848547,9416665,NA,"complete","idnqyy","34HJIJKLPBVBBWD04V75NV8J4L54VP","computer","Desktop or Laptop","Windows 10","Chrome 116.0.0.0","1600x900","1600x751",NA,NA,0,"BIQ (Charlotte)",3,"BCADJEIFHG","Passed AC2","","Spreadsheet1",1,"BIQ","Screen 1","9dh6eq",1,"response","4",2093.75,4093.75,4124.25,2093.75,4093.75,4124.25,1,2093.75,2030.5,0,NA,"Rating Scale","Rating Scale",3,"object-5","BIQ",NA,"SUPAMT33623"
"4",1695668094372,"25/09/2023 18:54:54",1695653694372,-4,"25/09/2023 10:54:54",144247,6,"task-gjqt",NA,31848547,9416665,NA,"complete","idnqyy","34HJIJKLPBVBBWD04V75NV8J4L54VP","computer","Desktop or Laptop","Windows 10","Chrome 116.0.0.0","1600x900","1600x751",NA,NA,0,"BIQ (Charlotte)",3,"BCADJEIFHG","Passed AC2","","Spreadsheet1",1,"BIQ","Screen 1","9dh6eq",1,"response","5",2687.5,4093.75,4125,2687.5,4093.75,4125,1,2687.5,1437.5,0,NA,"Rating Scale","Rating Scale",10,"object-18","BIQ",NA,"SUPAMT33623"
"5",1695668094373,"25/09/2023 18:54:54",1695653694373,-4,"25/09/2023 10:54:54",144247,6,"task-gjqt",NA,31848547,9416665,NA,"complete","idnqyy","34HJIJKLPBVBBWD04V75NV8J4L54VP","computer","Desktop or Laptop","Windows 10","Chrome 116.0.0.0","1600x900","1600x751",NA,NA,0,"BIQ (Charlotte)",3,"BCADJEIFHG","Passed AC2","","Spreadsheet1",1,"BIQ","Screen 1","9dh6eq",1,"response","4",3218.75,4093.75,4125,3218.75,4093.75,4125,1,3218.75,906.25,0,NA,"Rating Scale","Rating Scale",17,"object-80","BIQ",NA,"SUPAMT33623"
"6",1695668097382,"25/09/2023 18:54:57",1695653697382,-4,"25/09/2023 10:54:57",144247,6,"task-gjqt",NA,31848547,9416665,NA,"complete","idnqyy","34HJIJKLPBVBBWD04V75NV8J4L54VP","computer","Desktop or Laptop","Windows 10","Chrome 116.0.0.0","1600x900","1600x751",NA,NA,0,"BIQ (Charlotte)",3,"BCADJEIFHG","Passed AC2","","Spreadsheet1",1,"BIQ","Screen 2","o21mwi",2,"continue","",3041.5,3031.25,3041.5,3041.5,3031.25,3041.5,1,3041.5,0,0,NA,"Click To Continue","Continue Button",22,"object-50","BIQ",NA,"SUPAMT33623"
"7",1695668097383,"25/09/2023 18:54:57",1695653697383,-4,"25/09/2023 10:54:57",144247,6,"task-gjqt",NA,31848547,9416665,NA,"complete","idnqyy","34HJIJKLPBVBBWD04V75NV8J4L54VP","computer","Desktop or Laptop","Windows 10","Chrome 116.0.0.0","1600x900","1600x751",NA,NA,0,"BIQ (Charlotte)",3,"BCADJEIFHG","Passed AC2","","Spreadsheet1",1,"BIQ","Screen 2","o21mwi",2,"response","4",1343.75,3031.25,3042.5,1343.75,3031.25,3042.5,1,1343.75,1698.75,0,NA,"Rating Scale","Rating Scale",2,"object-259","BIQ",NA,"SUPAMT33623"
"8",1695668097384,"25/09/2023 18:54:57",1695653697384,-4,"25/09/2023 10:54:57",144247,6,"task-gjqt",NA,31848547,9416665,NA,"complete","idnqyy","34HJIJKLPBVBBWD04V75NV8J4L54VP","computer","Desktop or Laptop","Windows 10","Chrome 116.0.0.0","1600x900","1600x751",NA,NA,0,"BIQ (Charlotte)",3,"BCADJEIFHG","Passed AC2","","Spreadsheet1",1,"BIQ","Screen 2","o21mwi",2,"response","3",1968.75,3031.25,3043.5,1968.75,3031.25,3043.5,1,1968.75,1074.75,0,NA,"Rating Scale","Rating Scale",9,"object-36","BIQ",NA,"SUPAMT33623"
"9",1695668097384,"25/09/2023 18:54:57",1695653697384,-4,"25/09/2023 10:54:57",144247,6,"task-gjqt",NA,31848547,9416665,NA,"complete","idnqyy","34HJIJKLPBVBBWD04V75NV8J4L54VP","computer","Desktop or Laptop","Windows 10","Chrome 116.0.0.0","1600x900","1600x751",NA,NA,0,"BIQ (Charlotte)",3,"BCADJEIFHG","Passed AC2","","Spreadsheet1",1,"BIQ","Screen 2","o21mwi",2,"response","4",2531.25,3031.25,3043.5,2531.25,3031.25,3043.5,1,2531.25,512.25,0,NA,"Rating Scale","Rating Scale",16,"object-86","BIQ",NA,"SUPAMT33623"
"10",1695668100516,"25/09/2023 18:55:00",1695653700516,-4,"25/09/2023 10:55:00",144247,6,"task-gjqt",NA,31848547,9416665,NA,"complete","idnqyy","34HJIJKLPBVBBWD04V75NV8J4L54VP","computer","Desktop or Laptop","Windows 10","Chrome 116.0.0.0","1600x900","1600x751",NA,NA,0,"BIQ (Charlotte)",3,"BCADJEIFHG","Passed AC2","","Spreadsheet1",1,"BIQ","Screen 3","iz3the",3,"continue","",3062.5,3031.25,3062.5,3062.5,3031.25,3062.5,1,3062.5,0,0,NA,"Click To Continue","Continue Button",22,"object-73","BIQ",NA,"SUPAMT33623"
"11",1695668100530,"25/09/2023 18:55:00",1695653700530,-4,"25/09/2023 10:55:00",144247,6,"task-gjqt",NA,31848547,9416665,NA,"complete","idnqyy","34HJIJKLPBVBBWD04V75NV8J4L54VP","computer","Desktop or Laptop","Windows 10","Chrome 116.0.0.0","1600x900","1600x751",NA,NA,0,"BIQ (Charlotte)",3,"BCADJEIFHG","Passed AC2","","Spreadsheet1",1,"BIQ","Screen 3","iz3the",3,"response","4",1250,3031.25,3062.5,1250,3031.25,3062.5,1,1250,1812.5,0,NA,"Rating Scale","Rating Scale",2,"object-53","BIQ",NA,"SUPAMT33623"
"12",1695668100532,"25/09/2023 18:55:00",1695653700532,-4,"25/09/2023 10:55:00",144247,6,"task-gjqt",NA,31848547,9416665,NA,"complete","idnqyy","34HJIJKLPBVBBWD04V75NV8J4L54VP","computer","Desktop or Laptop","Windows 10","Chrome 116.0.0.0","1600x900","1600x751",NA,NA,0,"BIQ (Charlotte)",3,"BCADJEIFHG","Passed AC2","","Spreadsheet1",1,"BIQ","Screen 3","iz3the",3,"response","4",1750,3031.25,3062.5,1750,3031.25,3062.5,1,1750,1312.5,0,NA,"Rating Scale","Rating Scale",9,"object-60","BIQ",NA,"SUPAMT33623"
"13",1695668100533,"25/09/2023 18:55:00",1695653700533,-4,"25/09/2023 10:55:00",144247,6,"task-gjqt",NA,31848547,9416665,NA,"complete","idnqyy","34HJIJKLPBVBBWD04V75NV8J4L54VP","computer","Desktop or Laptop","Windows 10","Chrome 116.0.0.0","1600x900","1600x751",NA,NA,0,"BIQ (Charlotte)",3,"BCADJEIFHG","Passed AC2","","Spreadsheet1",1,"BIQ","Screen 3","iz3the",3,"response","4",2468.75,3031.25,3062.5,2468.75,3031.25,3062.5,1,2468.75,593.75,0,NA,"Rating Scale","Rating Scale",16,"object-67","BIQ",NA,"SUPAMT33623"
"14",1695668100541,"25/09/2023 18:55:00",1695653700541,-4,"25/09/2023 10:55:00",144247,6,"task-gjqt",NA,31848547,9416665,NA,"complete","idnqyy","34HJIJKLPBVBBWD04V75NV8J4L54VP","computer","Desktop or Laptop","Windows 10","Chrome 116.0.0.0","1600x900","1600x751",NA,NA,0,"BIQ (Charlotte)",3,"BCADJEIFHG","Passed AC2","","Spreadsheet1",NA,"","","",NA,"5","END",NA,NA,NA,NA,NA,NA,0,NA,NA,NA,NA,"","",NA,"","",NA,"SUPAMT33623"
"1",1695690290424,"26/09/2023 01:04:50",1695672290424,-5,"25/09/2023 15:04:50",144247,6,"task-gjqt",NA,31849624,9416671,NA,"complete","jfajas","3DI28L7YXGDDHMUVMNZTPTDUS6T1E4","computer","Desktop or Laptop","Windows 10","Chrome 116.0.0.0","1366x768","1707x773",NA,NA,0,"BIQ (Charlotte)",3,"EFDGCHBIAJ","Failed AC2","Passed AC1","Spreadsheet1",NA,"","","",NA,"5","BEGIN",NA,NA,NA,NA,NA,NA,0,NA,NA,NA,NA,"","",NA,"","",NA,"SUPAMT78856"
"2",1695690297078,"26/09/2023 01:04:57",1695672297078,-5,"25/09/2023 15:04:57",144247,6,"task-gjqt",NA,31849624,9416671,NA,"complete","jfajas","3DI28L7YXGDDHMUVMNZTPTDUS6T1E4","computer","Desktop or Laptop","Windows 10","Chrome 116.0.0.0","1366x768","1707x773",NA,NA,0,"BIQ (Charlotte)",3,"EFDGCHBIAJ","Failed AC2","Passed AC1","Spreadsheet1",1,"BIQ","Screen 1","9dh6eq",1,"continue","",6664.25,6656.25,6664.25,6664.25,6656.25,6664.25,1,6664.25,0,0,NA,"Click To Continue","Continue Button",23,"object-48","BIQ",NA,"SUPAMT78856"
"3",1695690297079,"26/09/2023 01:04:57",1695672297079,-5,"25/09/2023 15:04:57",144247,6,"task-gjqt",NA,31849624,9416671,NA,"complete","jfajas","3DI28L7YXGDDHMUVMNZTPTDUS6T1E4","computer","Desktop or Laptop","Windows 10","Chrome 116.0.0.0","1366x768","1707x773",NA,NA,0,"BIQ (Charlotte)",3,"EFDGCHBIAJ","Failed AC2","Passed AC1","Spreadsheet1",1,"BIQ","Screen 1","9dh6eq",1,"response","3",2031.25,6656.25,6665.25,2031.25,6656.25,6665.25,1,2031.25,4634,0,NA,"Rating Scale","Rating Scale",3,"object-5","BIQ",NA,"SUPAMT78856"
"4",1695690297079,"26/09/2023 01:04:57",1695672297079,-5,"25/09/2023 15:04:57",144247,6,"task-gjqt",NA,31849624,9416671,NA,"complete","jfajas","3DI28L7YXGDDHMUVMNZTPTDUS6T1E4","computer","Desktop or Laptop","Windows 10","Chrome 116.0.0.0","1366x768","1707x773",NA,NA,0,"BIQ (Charlotte)",3,"EFDGCHBIAJ","Failed AC2","Passed AC1","Spreadsheet1",1,"BIQ","Screen 1","9dh6eq",1,"response","5",3437.5,6656.25,6666.25,3437.5,6656.25,6666.25,1,3437.5,3228.75,0,NA,"Rating Scale","Rating Scale",10,"object-18","BIQ",NA,"SUPAMT78856"
"5",1695690297079,"26/09/2023 01:04:57",1695672297079,-5,"25/09/2023 15:04:57",144247,6,"task-gjqt",NA,31849624,9416671,NA,"complete","jfajas","3DI28L7YXGDDHMUVMNZTPTDUS6T1E4","computer","Desktop or Laptop","Windows 10","Chrome 116.0.0.0","1366x768","1707x773",NA,NA,0,"BIQ (Charlotte)",3,"EFDGCHBIAJ","Failed AC2","Passed AC1","Spreadsheet1",1,"BIQ","Screen 1","9dh6eq",1,"response","4",5187.5,6656.25,6666.25,5187.5,6656.25,6666.25,1,5187.5,1478.75,0,NA,"Rating Scale","Rating Scale",17,"object-80","BIQ",NA,"SUPAMT78856"
"6",1695690302954,"26/09/2023 01:05:02",1695672302954,-5,"25/09/2023 15:05:02",144247,6,"task-gjqt",NA,31849624,9416671,NA,"complete","jfajas","3DI28L7YXGDDHMUVMNZTPTDUS6T1E4","computer","Desktop or Laptop","Windows 10","Chrome 116.0.0.0","1366x768","1707x773",NA,NA,0,"BIQ (Charlotte)",3,"EFDGCHBIAJ","Failed AC2","Passed AC1","Spreadsheet1",1,"BIQ","Screen 2","o21mwi",2,"continue","",5885,5875,5885,5885,5875,5885,1,5885,0,0,NA,"Click To Continue","Continue Button",22,"object-50","BIQ",NA,"SUPAMT78856"
"7",1695690302958,"26/09/2023 01:05:02",1695672302958,-5,"25/09/2023 15:05:02",144247,6,"task-gjqt",NA,31849624,9416671,NA,"complete","jfajas","3DI28L7YXGDDHMUVMNZTPTDUS6T1E4","computer","Desktop or Laptop","Windows 10","Chrome 116.0.0.0","1366x768","1707x773",NA,NA,0,"BIQ (Charlotte)",3,"EFDGCHBIAJ","Failed AC2","Passed AC1","Spreadsheet1",1,"BIQ","Screen 2","o21mwi",2,"response","3",1687.5,5875,5889,1687.5,5875,5889,1,1687.5,4201.5,0,NA,"Rating Scale","Rating Scale",2,"object-259","BIQ",NA,"SUPAMT78856"
"8",1695690302959,"26/09/2023 01:05:02",1695672302959,-5,"25/09/2023 15:05:02",144247,6,"task-gjqt",NA,31849624,9416671,NA,"complete","jfajas","3DI28L7YXGDDHMUVMNZTPTDUS6T1E4","computer","Desktop or Laptop","Windows 10","Chrome 116.0.0.0","1366x768","1707x773",NA,NA,0,"BIQ (Charlotte)",3,"EFDGCHBIAJ","Failed AC2","Passed AC1","Spreadsheet1",1,"BIQ","Screen 2","o21mwi",2,"response","5",2531.25,5875,5889,2531.25,5875,5889,1,2531.25,3357.75,0,NA,"Rating Scale","Rating Scale",9,"object-36","BIQ",NA,"SUPAMT78856"
"9",1695690302959,"26/09/2023 01:05:02",1695672302959,-5,"25/09/2023 15:05:02",144247,6,"task-gjqt",NA,31849624,9416671,NA,"complete","jfajas","3DI28L7YXGDDHMUVMNZTPTDUS6T1E4","computer","Desktop or Laptop","Windows 10","Chrome 116.0.0.0","1366x768","1707x773",NA,NA,0,"BIQ (Charlotte)",3,"EFDGCHBIAJ","Failed AC2","Passed AC1","Spreadsheet1",1,"BIQ","Screen 2","o21mwi",2,"response","4",3812.5,5875,5890,3812.5,5875,5890,1,3812.5,2077.5,0,NA,"Rating Scale","Rating Scale",16,"object-86","BIQ",NA,"SUPAMT78856"
"10",1695690307567,"26/09/2023 01:05:07",1695672307567,-5,"25/09/2023 15:05:07",144247,6,"task-gjqt",NA,31849624,9416671,NA,"complete","jfajas","3DI28L7YXGDDHMUVMNZTPTDUS6T1E4","computer","Desktop or Laptop","Windows 10","Chrome 116.0.0.0","1366x768","1707x773",NA,NA,0,"BIQ (Charlotte)",3,"EFDGCHBIAJ","Failed AC2","Passed AC1","Spreadsheet1",1,"BIQ","Screen 3","iz3the",3,"continue","",4622,4593.75,4622,4622,4593.75,4622,1,4622,0,0,NA,"Click To Continue","Continue Button",22,"object-73","BIQ",NA,"SUPAMT78856"
"11",1695690307567,"26/09/2023 01:05:07",1695672307567,-5,"25/09/2023 15:05:07",144247,6,"task-gjqt",NA,31849624,9416671,NA,"complete","jfajas","3DI28L7YXGDDHMUVMNZTPTDUS6T1E4","computer","Desktop or Laptop","Windows 10","Chrome 116.0.0.0","1366x768","1707x773",NA,NA,0,"BIQ (Charlotte)",3,"EFDGCHBIAJ","Failed AC2","Passed AC1","Spreadsheet1",1,"BIQ","Screen 3","iz3the",3,"response","3",2000,4593.75,4623,2000,4593.75,4623,1,2000,2623,0,NA,"Rating Scale","Rating Scale",2,"object-53","BIQ",NA,"SUPAMT78856"
"12",1695690307567,"26/09/2023 01:05:07",1695672307567,-5,"25/09/2023 15:05:07",144247,6,"task-gjqt",NA,31849624,9416671,NA,"complete","jfajas","3DI28L7YXGDDHMUVMNZTPTDUS6T1E4","computer","Desktop or Laptop","Windows 10","Chrome 116.0.0.0","1366x768","1707x773",NA,NA,0,"BIQ (Charlotte)",3,"EFDGCHBIAJ","Failed AC2","Passed AC1","Spreadsheet1",1,"BIQ","Screen 3","iz3the",3,"response","5",2843.75,4593.75,4623,2843.75,4593.75,4623,1,2843.75,1779.25,0,NA,"Rating Scale","Rating Scale",9,"object-60","BIQ",NA,"SUPAMT78856"
"13",1695690307568,"26/09/2023 01:05:07",1695672307568,-5,"25/09/2023 15:05:07",144247,6,"task-gjqt",NA,31849624,9416671,NA,"complete","jfajas","3DI28L7YXGDDHMUVMNZTPTDUS6T1E4","computer","Desktop or Laptop","Windows 10","Chrome 116.0.0.0","1366x768","1707x773",NA,NA,0,"BIQ (Charlotte)",3,"EFDGCHBIAJ","Failed AC2","Passed AC1","Spreadsheet1",1,"BIQ","Screen 3","iz3the",3,"response","4",3500,4593.75,4624,3500,4593.75,4624,1,3500,1124,0,NA,"Rating Scale","Rating Scale",16,"object-67","BIQ",NA,"SUPAMT78856"
"14",1695690307569,"26/09/2023 01:05:07",1695672307569,-5,"25/09/2023 15:05:07",144247,6,"task-gjqt",NA,31849624,9416671,NA,"complete","jfajas","3DI28L7YXGDDHMUVMNZTPTDUS6T1E4","computer","Desktop or Laptop","Windows 10","Chrome 116.0.0.0","1366x768","1707x773",NA,NA,0,"BIQ (Charlotte)",3,"EFDGCHBIAJ","Failed AC2","Passed AC1","Spreadsheet1",NA,"","","",NA,"5","END",NA,NA,NA,NA,NA,NA,0,NA,NA,NA,NA,"","",NA,"","",NA,"SUPAMT78856"
"1",1695682604554,"25/09/2023 22:56:44",1695668204554,-4,"25/09/2023 14:56:44",144247,6,"task-gjqt",NA,31848745,9416677,NA,"complete","zcuqxv","33IZTU6J870MH6K6UB459JLAYCGSXN","computer","Desktop or Laptop","Windows 10","Chrome 117.0.0.0","1366x768","1366x619",NA,NA,0,"BIQ (Charlotte)",3,"HIGJFAEBDC","Passed AC2","","Spreadsheet1",NA,"","","",NA,"5","BEGIN",NA,NA,NA,NA,NA,NA,0,NA,NA,NA,NA,"","",NA,"","",NA,"SUPAMT58446"
"2",1695682613852,"25/09/2023 22:56:53",1695668213852,-4,"25/09/2023 14:56:53",144247,6,"task-gjqt",NA,31848745,9416677,NA,"complete","zcuqxv","33IZTU6J870MH6K6UB459JLAYCGSXN","computer","Desktop or Laptop","Windows 10","Chrome 117.0.0.0","1366x768","1366x619",NA,NA,0,"BIQ (Charlotte)",3,"HIGJFAEBDC","Passed AC2","","Spreadsheet1",1,"BIQ","Screen 1","9dh6eq",1,"continue","",10937,10927.75,10937,10937,10927.75,10937,1,10937,0,0,NA,"Click To Continue","Continue Button",23,"object-48","BIQ",NA,"SUPAMT58446"
"3",1695682613852,"25/09/2023 22:56:53",1695668213852,-4,"25/09/2023 14:56:53",144247,6,"task-gjqt",NA,31848745,9416677,NA,"complete","zcuqxv","33IZTU6J870MH6K6UB459JLAYCGSXN","computer","Desktop or Laptop","Windows 10","Chrome 117.0.0.0","1366x768","1366x619",NA,NA,0,"BIQ (Charlotte)",3,"HIGJFAEBDC","Passed AC2","","Spreadsheet1",1,"BIQ","Screen 1","9dh6eq",1,"response","5",4021.5,10927.75,10939,4021.5,10927.75,10939,1,4021.5,6917.5,0,NA,"Rating Scale","Rating Scale",3,"object-5","BIQ",NA,"SUPAMT58446"
"4",1695682613853,"25/09/2023 22:56:53",1695668213853,-4,"25/09/2023 14:56:53",144247,6,"task-gjqt",NA,31848745,9416677,NA,"complete","zcuqxv","33IZTU6J870MH6K6UB459JLAYCGSXN","computer","Desktop or Laptop","Windows 10","Chrome 117.0.0.0","1366x768","1366x619",NA,NA,0,"BIQ (Charlotte)",3,"HIGJFAEBDC","Passed AC2","","Spreadsheet1",1,"BIQ","Screen 1","9dh6eq",1,"response","8",4896.5,10927.75,10940,4896.5,10927.75,10940,1,4896.5,6043.5,0,NA,"Rating Scale","Rating Scale",10,"object-18","BIQ",NA,"SUPAMT58446"
"5",1695682613853,"25/09/2023 22:56:53",1695668213853,-4,"25/09/2023 14:56:53",144247,6,"task-gjqt",NA,31848745,9416677,NA,"complete","zcuqxv","33IZTU6J870MH6K6UB459JLAYCGSXN","computer","Desktop or Laptop","Windows 10","Chrome 117.0.0.0","1366x768","1366x619",NA,NA,0,"BIQ (Charlotte)",3,"HIGJFAEBDC","Passed AC2","","Spreadsheet1",1,"BIQ","Screen 1","9dh6eq",1,"response","6",8115.25,10927.75,10940,8115.25,10927.75,10940,1,8115.25,2824.75,0,NA,"Rating Scale","Rating Scale",17,"object-80","BIQ",NA,"SUPAMT58446"
"6",1695682619185,"25/09/2023 22:56:59",1695668219185,-4,"25/09/2023 14:56:59",144247,6,"task-gjqt",NA,31848745,9416677,NA,"complete","zcuqxv","33IZTU6J870MH6K6UB459JLAYCGSXN","computer","Desktop or Laptop","Windows 10","Chrome 117.0.0.0","1366x768","1366x619",NA,NA,0,"BIQ (Charlotte)",3,"HIGJFAEBDC","Passed AC2","","Spreadsheet1",1,"BIQ","Screen 2","o21mwi",2,"continue","",5343.75,5312.5,5343.75,5343.75,5312.5,5343.75,1,5343.75,0,0,NA,"Click To Continue","Continue Button",22,"object-50","BIQ",NA,"SUPAMT58446"
"7",1695682619190,"25/09/2023 22:56:59",1695668219190,-4,"25/09/2023 14:56:59",144247,6,"task-gjqt",NA,31848745,9416677,NA,"complete","zcuqxv","33IZTU6J870MH6K6UB459JLAYCGSXN","computer","Desktop or Laptop","Windows 10","Chrome 117.0.0.0","1366x768","1366x619",NA,NA,0,"BIQ (Charlotte)",3,"HIGJFAEBDC","Passed AC2","","Spreadsheet1",1,"BIQ","Screen 2","o21mwi",2,"response","5",2375,5312.5,5343.75,2375,5312.5,5343.75,1,2375,2968.75,0,NA,"Rating Scale","Rating Scale",2,"object-259","BIQ",NA,"SUPAMT58446"
"8",1695682619190,"25/09/2023 22:56:59",1695668219190,-4,"25/09/2023 14:56:59",144247,6,"task-gjqt",NA,31848745,9416677,NA,"complete","zcuqxv","33IZTU6J870MH6K6UB459JLAYCGSXN","computer","Desktop or Laptop","Windows 10","Chrome 117.0.0.0","1366x768","1366x619",NA,NA,0,"BIQ (Charlotte)",3,"HIGJFAEBDC","Passed AC2","","Spreadsheet1",1,"BIQ","Screen 2","o21mwi",2,"response","7",3093.75,5312.5,5343.75,3093.75,5312.5,5343.75,1,3093.75,2250,0,NA,"Rating Scale","Rating Scale",9,"object-36","BIQ",NA,"SUPAMT58446"
"9",1695682619191,"25/09/2023 22:56:59",1695668219191,-4,"25/09/2023 14:56:59",144247,6,"task-gjqt",NA,31848745,9416677,NA,"complete","zcuqxv","33IZTU6J870MH6K6UB459JLAYCGSXN","computer","Desktop or Laptop","Windows 10","Chrome 117.0.0.0","1366x768","1366x619",NA,NA,0,"BIQ (Charlotte)",3,"HIGJFAEBDC","Passed AC2","","Spreadsheet1",1,"BIQ","Screen 2","o21mwi",2,"response","8",3906.25,5312.5,5343.75,3906.25,5312.5,5343.75,1,3906.25,1437.5,0,NA,"Rating Scale","Rating Scale",16,"object-86","BIQ",NA,"SUPAMT58446"
"10",1695682624922,"25/09/2023 22:57:04",1695668224922,-4,"25/09/2023 14:57:04",144247,6,"task-gjqt",NA,31848745,9416677,NA,"complete","zcuqxv","33IZTU6J870MH6K6UB459JLAYCGSXN","computer","Desktop or Laptop","Windows 10","Chrome 117.0.0.0","1366x768","1366x619",NA,NA,0,"BIQ (Charlotte)",3,"HIGJFAEBDC","Passed AC2","","Spreadsheet1",1,"BIQ","Screen 3","iz3the",3,"continue","",5768.75,5750,5768.75,5768.75,5750,5768.75,1,5768.75,0,0,NA,"Click To Continue","Continue Button",22,"object-73","BIQ",NA,"SUPAMT58446"
"11",1695682624923,"25/09/2023 22:57:04",1695668224923,-4,"25/09/2023 14:57:04",144247,6,"task-gjqt",NA,31848745,9416677,NA,"complete","zcuqxv","33IZTU6J870MH6K6UB459JLAYCGSXN","computer","Desktop or Laptop","Windows 10","Chrome 117.0.0.0","1366x768","1366x619",NA,NA,0,"BIQ (Charlotte)",3,"HIGJFAEBDC","Passed AC2","","Spreadsheet1",1,"BIQ","Screen 3","iz3the",3,"response","3",2468.75,5750,5769.75,2468.75,5750,5769.75,1,2468.75,3301,0,NA,"Rating Scale","Rating Scale",2,"object-53","BIQ",NA,"SUPAMT58446"
"12",1695682624923,"25/09/2023 22:57:04",1695668224923,-4,"25/09/2023 14:57:04",144247,6,"task-gjqt",NA,31848745,9416677,NA,"complete","zcuqxv","33IZTU6J870MH6K6UB459JLAYCGSXN","computer","Desktop or Laptop","Windows 10","Chrome 117.0.0.0","1366x768","1366x619",NA,NA,0,"BIQ (Charlotte)",3,"HIGJFAEBDC","Passed AC2","","Spreadsheet1",1,"BIQ","Screen 3","iz3the",3,"response","5",2843.75,5750,5769.75,2843.75,5750,5769.75,1,2843.75,2926,0,NA,"Rating Scale","Rating Scale",9,"object-60","BIQ",NA,"SUPAMT58446"
"13",1695682624924,"25/09/2023 22:57:04",1695668224924,-4,"25/09/2023 14:57:04",144247,6,"task-gjqt",NA,31848745,9416677,NA,"complete","zcuqxv","33IZTU6J870MH6K6UB459JLAYCGSXN","computer","Desktop or Laptop","Windows 10","Chrome 117.0.0.0","1366x768","1366x619",NA,NA,0,"BIQ (Charlotte)",3,"HIGJFAEBDC","Passed AC2","","Spreadsheet1",1,"BIQ","Screen 3","iz3the",3,"response","6",4250,5750,5770.75,4250,5750,5770.75,1,4250,1520.75,0,NA,"Rating Scale","Rating Scale",16,"object-67","BIQ",NA,"SUPAMT58446"
"14",1695682624925,"25/09/2023 22:57:04",1695668224925,-4,"25/09/2023 14:57:04",144247,6,"task-gjqt",NA,31848745,9416677,NA,"complete","zcuqxv","33IZTU6J870MH6K6UB459JLAYCGSXN","computer","Desktop or Laptop","Windows 10","Chrome 117.0.0.0","1366x768","1366x619",NA,NA,0,"BIQ (Charlotte)",3,"HIGJFAEBDC","Passed AC2","","Spreadsheet1",NA,"","","",NA,"5","END",NA,NA,NA,NA,NA,NA,0,NA,NA,NA,NA,"","",NA,"","",NA,"SUPAMT58446"
"1",1695679178341,"25/09/2023 21:59:38",1695653978341,-7,"25/09/2023 07:59:38",144247,6,"task-gjqt",NA,31849054,9416678,NA,"complete","sioyut","3483FV8BEKIGTSJCZ9G9IOVM3EI260","computer","Desktop or Laptop","Windows 10","Chrome 117.0.0.0","1366x768","1366x619",NA,NA,0,"BIQ (Charlotte)",3,"DECFBGAHJI","Passed AC2","","Spreadsheet1",NA,"","","",NA,"5","BEGIN",NA,NA,NA,NA,NA,NA,0,NA,NA,NA,NA,"","",NA,"","",NA,"SUPAMT52091"
"2",1695679187341,"25/09/2023 21:59:47",1695653987341,-7,"25/09/2023 07:59:47",144247,6,"task-gjqt",NA,31849054,9416678,NA,"complete","sioyut","3483FV8BEKIGTSJCZ9G9IOVM3EI260","computer","Desktop or Laptop","Windows 10","Chrome 117.0.0.0","1366x768","1366x619",NA,NA,0,"BIQ (Charlotte)",3,"DECFBGAHJI","Passed AC2","","Spreadsheet1",1,"BIQ","Screen 1","9dh6eq",1,"continue","",9026,9000,9026,9026,9000,9026,1,9026,0,0,NA,"Click To Continue","Continue Button",23,"object-48","BIQ",NA,"SUPAMT52091"
"3",1695679187342,"25/09/2023 21:59:47",1695653987342,-7,"25/09/2023 07:59:47",144247,6,"task-gjqt",NA,31849054,9416678,NA,"complete","sioyut","3483FV8BEKIGTSJCZ9G9IOVM3EI260","computer","Desktop or Laptop","Windows 10","Chrome 117.0.0.0","1366x768","1366x619",NA,NA,0,"BIQ (Charlotte)",3,"DECFBGAHJI","Passed AC2","","Spreadsheet1",1,"BIQ","Screen 1","9dh6eq",1,"response","5",4156.25,9000,9027,4156.25,9000,9027,1,4156.25,4870.75,0,NA,"Rating Scale","Rating Scale",3,"object-5","BIQ",NA,"SUPAMT52091"
"4",1695679187342,"25/09/2023 21:59:47",1695653987342,-7,"25/09/2023 07:59:47",144247,6,"task-gjqt",NA,31849054,9416678,NA,"complete","sioyut","3483FV8BEKIGTSJCZ9G9IOVM3EI260","computer","Desktop or Laptop","Windows 10","Chrome 117.0.0.0","1366x768","1366x619",NA,NA,0,"BIQ (Charlotte)",3,"DECFBGAHJI","Passed AC2","","Spreadsheet1",1,"BIQ","Screen 1","9dh6eq",1,"response","4",4843.75,9000,9027,4843.75,9000,9027,1,4843.75,4183.25,0,NA,"Rating Scale","Rating Scale",10,"object-18","BIQ",NA,"SUPAMT52091"
"5",1695679187343,"25/09/2023 21:59:47",1695653987343,-7,"25/09/2023 07:59:47",144247,6,"task-gjqt",NA,31849054,9416678,NA,"complete","sioyut","3483FV8BEKIGTSJCZ9G9IOVM3EI260","computer","Desktop or Laptop","Windows 10","Chrome 117.0.0.0","1366x768","1366x619",NA,NA,0,"BIQ (Charlotte)",3,"DECFBGAHJI","Passed AC2","","Spreadsheet1",1,"BIQ","Screen 1","9dh6eq",1,"response","5",7093.75,9000,9027,7093.75,9000,9027,1,7093.75,1933.25,0,NA,"Rating Scale","Rating Scale",17,"object-80","BIQ",NA,"SUPAMT52091"
"6",1695679194485,"25/09/2023 21:59:54",1695653994485,-7,"25/09/2023 07:59:54",144247,6,"task-gjqt",NA,31849054,9416678,NA,"complete","sioyut","3483FV8BEKIGTSJCZ9G9IOVM3EI260","computer","Desktop or Laptop","Windows 10","Chrome 117.0.0.0","1366x768","1366x619",NA,NA,0,"BIQ (Charlotte)",3,"DECFBGAHJI","Passed AC2","","Spreadsheet1",1,"BIQ","Screen 2","o21mwi",2,"continue","",7169,7156.25,7169,7169,7156.25,7169,1,7169,0,0,NA,"Click To Continue","Continue Button",22,"object-50","BIQ",NA,"SUPAMT52091"
"7",1695679194488,"25/09/2023 21:59:54",1695653994488,-7,"25/09/2023 07:59:54",144247,6,"task-gjqt",NA,31849054,9416678,NA,"complete","sioyut","3483FV8BEKIGTSJCZ9G9IOVM3EI260","computer","Desktop or Laptop","Windows 10","Chrome 117.0.0.0","1366x768","1366x619",NA,NA,0,"BIQ (Charlotte)",3,"DECFBGAHJI","Passed AC2","","Spreadsheet1",1,"BIQ","Screen 2","o21mwi",2,"response","4",1312.5,7156.25,7173,1312.5,7156.25,7173,1,1312.5,5860.5,0,NA,"Rating Scale","Rating Scale",2,"object-259","BIQ",NA,"SUPAMT52091"
"8",1695679194489,"25/09/2023 21:59:54",1695653994489,-7,"25/09/2023 07:59:54",144247,6,"task-gjqt",NA,31849054,9416678,NA,"complete","sioyut","3483FV8BEKIGTSJCZ9G9IOVM3EI260","computer","Desktop or Laptop","Windows 10","Chrome 117.0.0.0","1366x768","1366x619",NA,NA,0,"BIQ (Charlotte)",3,"DECFBGAHJI","Passed AC2","","Spreadsheet1",1,"BIQ","Screen 2","o21mwi",2,"response","6",2406.25,7156.25,7174,2406.25,7156.25,7174,1,2406.25,4767.75,0,NA,"Rating Scale","Rating Scale",9,"object-36","BIQ",NA,"SUPAMT52091"
"9",1695679194490,"25/09/2023 21:59:54",1695653994490,-7,"25/09/2023 07:59:54",144247,6,"task-gjqt",NA,31849054,9416678,NA,"complete","sioyut","3483FV8BEKIGTSJCZ9G9IOVM3EI260","computer","Desktop or Laptop","Windows 10","Chrome 117.0.0.0","1366x768","1366x619",NA,NA,0,"BIQ (Charlotte)",3,"DECFBGAHJI","Passed AC2","","Spreadsheet1",1,"BIQ","Screen 2","o21mwi",2,"response","4",3843.75,7156.25,7175,3843.75,7156.25,7175,1,3843.75,3331.25,0,NA,"Rating Scale","Rating Scale",16,"object-86","BIQ",NA,"SUPAMT52091"
"10",1695679198799,"25/09/2023 21:59:58",1695653998799,-7,"25/09/2023 07:59:58",144247,6,"task-gjqt",NA,31849054,9416678,NA,"complete","sioyut","3483FV8BEKIGTSJCZ9G9IOVM3EI260","computer","Desktop or Laptop","Windows 10","Chrome 117.0.0.0","1366x768","1366x619",NA,NA,0,"BIQ (Charlotte)",3,"DECFBGAHJI","Passed AC2","","Spreadsheet1",1,"BIQ","Screen 3","iz3the",3,"continue","",4327.75,4312.5,4327.75,4327.75,4312.5,4327.75,1,4327.75,0,0,NA,"Click To Continue","Continue Button",22,"object-73","BIQ",NA,"SUPAMT52091"
"11",1695679198799,"25/09/2023 21:59:58",1695653998799,-7,"25/09/2023 07:59:58",144247,6,"task-gjqt",NA,31849054,9416678,NA,"complete","sioyut","3483FV8BEKIGTSJCZ9G9IOVM3EI260","computer","Desktop or Laptop","Windows 10","Chrome 117.0.0.0","1366x768","1366x619",NA,NA,0,"BIQ (Charlotte)",3,"DECFBGAHJI","Passed AC2","","Spreadsheet1",1,"BIQ","Screen 3","iz3the",3,"response","5",2468.75,4312.5,4327.75,2468.75,4312.5,4327.75,1,2468.75,1859,0,NA,"Rating Scale","Rating Scale",2,"object-53","BIQ",NA,"SUPAMT52091"
"12",1695679198800,"25/09/2023 21:59:58",1695653998800,-7,"25/09/2023 07:59:58",144247,6,"task-gjqt",NA,31849054,9416678,NA,"complete","sioyut","3483FV8BEKIGTSJCZ9G9IOVM3EI260","computer","Desktop or Laptop","Windows 10","Chrome 117.0.0.0","1366x768","1366x619",NA,NA,0,"BIQ (Charlotte)",3,"DECFBGAHJI","Passed AC2","","Spreadsheet1",1,"BIQ","Screen 3","iz3the",3,"response","4",2937.5,4312.5,4328.75,2937.5,4312.5,4328.75,1,2937.5,1391.25,0,NA,"Rating Scale","Rating Scale",9,"object-60","BIQ",NA,"SUPAMT52091"
"13",1695679198800,"25/09/2023 21:59:58",1695653998800,-7,"25/09/2023 07:59:58",144247,6,"task-gjqt",NA,31849054,9416678,NA,"complete","sioyut","3483FV8BEKIGTSJCZ9G9IOVM3EI260","computer","Desktop or Laptop","Windows 10","Chrome 117.0.0.0","1366x768","1366x619",NA,NA,0,"BIQ (Charlotte)",3,"DECFBGAHJI","Passed AC2","","Spreadsheet1",1,"BIQ","Screen 3","iz3the",3,"response","4",3468.75,4312.5,4328.75,3468.75,4312.5,4328.75,1,3468.75,860,0,NA,"Rating Scale","Rating Scale",16,"object-67","BIQ",NA,"SUPAMT52091"
"14",1695679198801,"25/09/2023 21:59:58",1695653998801,-7,"25/09/2023 07:59:58",144247,6,"task-gjqt",NA,31849054,9416678,NA,"complete","sioyut","3483FV8BEKIGTSJCZ9G9IOVM3EI260","computer","Desktop or Laptop","Windows 10","Chrome 117.0.0.0","1366x768","1366x619",NA,NA,0,"BIQ (Charlotte)",3,"DECFBGAHJI","Passed AC2","","Spreadsheet1",NA,"","","",NA,"5","END",NA,NA,NA,NA,NA,NA,0,NA,NA,NA,NA,"","",NA,"","",NA,"SUPAMT52091"
"1",1695668382202,"25/09/2023 18:59:42",1695653982202,-4,"25/09/2023 10:59:42",144247,6,"task-gjqt",NA,31849066,9416674,NA,"complete","oimylj","3ZSY5X72N3ANMI61EVH40WPL06SORQ","computer","Desktop or Laptop","Windows 10","Chrome 117.0.0.0","1366x768","1362x598",NA,NA,0,"BIQ (Charlotte)",3,"GHFIEJDACB","Failed AC2","Passed AC1","Spreadsheet1",NA,"","","",NA,"5","BEGIN",NA,NA,NA,NA,NA,NA,0,NA,NA,NA,NA,"","",NA,"","",NA,"SUPAMT61059"
"2",1695668425363,"25/09/2023 19:00:25",1695654025363,-4,"25/09/2023 11:00:25",144247,6,"task-gjqt",NA,31849066,9416674,NA,"complete","oimylj","3ZSY5X72N3ANMI61EVH40WPL06SORQ","computer","Desktop or Laptop","Windows 10","Chrome 117.0.0.0","1366x768","1362x598",NA,NA,0,"BIQ (Charlotte)",3,"GHFIEJDACB","Failed AC2","Passed AC1","Spreadsheet1",1,"BIQ","Screen 1","9dh6eq",1,"continue","",43184.25,43156.25,43184.25,43184.25,43156.25,43184.25,1,43184.25,0,0,NA,"Click To Continue","Continue Button",23,"object-48","BIQ",NA,"SUPAMT61059"
"3",1695668425366,"25/09/2023 19:00:25",1695654025366,-4,"25/09/2023 11:00:25",144247,6,"task-gjqt",NA,31849066,9416674,NA,"complete","oimylj","3ZSY5X72N3ANMI61EVH40WPL06SORQ","computer","Desktop or Laptop","Windows 10","Chrome 117.0.0.0","1366x768","1362x598",NA,NA,0,"BIQ (Charlotte)",3,"GHFIEJDACB","Failed AC2","Passed AC1","Spreadsheet1",1,"BIQ","Screen 1","9dh6eq",1,"response","4",12625,43156.25,43187.25,12625,43156.25,43187.25,1,12625,30562.25,0,NA,"Rating Scale","Rating Scale",3,"object-5","BIQ",NA,"SUPAMT61059"
"4",1695668425367,"25/09/2023 19:00:25",1695654025367,-4,"25/09/2023 11:00:25",144247,6,"task-gjqt",NA,31849066,9416674,NA,"complete","oimylj","3ZSY5X72N3ANMI61EVH40WPL06SORQ","computer","Desktop or Laptop","Windows 10","Chrome 117.0.0.0","1366x768","1362x598",NA,NA,0,"BIQ (Charlotte)",3,"GHFIEJDACB","Failed AC2","Passed AC1","Spreadsheet1",1,"BIQ","Screen 1","9dh6eq",1,"response","1",23937.5,43156.25,43187.25,23937.5,43156.25,43187.25,1,23937.5,19249.75,0,NA,"Rating Scale","Rating Scale",10,"object-18","BIQ",NA,"SUPAMT61059"
"5",1695668425367,"25/09/2023 19:00:25",1695654025367,-4,"25/09/2023 11:00:25",144247,6,"task-gjqt",NA,31849066,9416674,NA,"complete","oimylj","3ZSY5X72N3ANMI61EVH40WPL06SORQ","computer","Desktop or Laptop","Windows 10","Chrome 117.0.0.0","1366x768","1362x598",NA,NA,0,"BIQ (Charlotte)",3,"GHFIEJDACB","Failed AC2","Passed AC1","Spreadsheet1",1,"BIQ","Screen 1","9dh6eq",1,"response","3",40718.75,43156.25,43187.5,40718.75,43156.25,43187.5,1,40718.75,2468.75,0,NA,"Rating Scale","Rating Scale",17,"object-80","BIQ",NA,"SUPAMT61059"
"6",1695668477257,"25/09/2023 19:01:17",1695654077257,-4,"25/09/2023 11:01:17",144247,6,"task-gjqt",NA,31849066,9416674,NA,"complete","oimylj","3ZSY5X72N3ANMI61EVH40WPL06SORQ","computer","Desktop or Laptop","Windows 10","Chrome 117.0.0.0","1366x768","1362x598",NA,NA,0,"BIQ (Charlotte)",3,"GHFIEJDACB","Failed AC2","Passed AC1","Spreadsheet1",1,"BIQ","Screen 2","o21mwi",2,"continue","",51922,51906.25,51922,51922,51906.25,51922,1,51922,0,0,NA,"Click To Continue","Continue Button",22,"object-50","BIQ",NA,"SUPAMT61059"
"7",1695668477260,"25/09/2023 19:01:17",1695654077260,-4,"25/09/2023 11:01:17",144247,6,"task-gjqt",NA,31849066,9416674,NA,"complete","oimylj","3ZSY5X72N3ANMI61EVH40WPL06SORQ","computer","Desktop or Laptop","Windows 10","Chrome 117.0.0.0","1366x768","1362x598",NA,NA,0,"BIQ (Charlotte)",3,"GHFIEJDACB","Failed AC2","Passed AC1","Spreadsheet1",1,"BIQ","Screen 2","o21mwi",2,"response","5",24156.25,51906.25,51924,24156.25,51906.25,51924,1,24156.25,27767.75,0,NA,"Rating Scale","Rating Scale",2,"object-259","BIQ",NA,"SUPAMT61059"
"8",1695668477260,"25/09/2023 19:01:17",1695654077260,-4,"25/09/2023 11:01:17",144247,6,"task-gjqt",NA,31849066,9416674,NA,"complete","oimylj","3ZSY5X72N3ANMI61EVH40WPL06SORQ","computer","Desktop or Laptop","Windows 10","Chrome 117.0.0.0","1366x768","1362x598",NA,NA,0,"BIQ (Charlotte)",3,"GHFIEJDACB","Failed AC2","Passed AC1","Spreadsheet1",1,"BIQ","Screen 2","o21mwi",2,"response","7",38687.5,51906.25,51925,38687.5,51906.25,51925,1,38687.5,13237.5,0,NA,"Rating Scale","Rating Scale",9,"object-36","BIQ",NA,"SUPAMT61059"
"9",1695668477260,"25/09/2023 19:01:17",1695654077260,-4,"25/09/2023 11:01:17",144247,6,"task-gjqt",NA,31849066,9416674,NA,"complete","oimylj","3ZSY5X72N3ANMI61EVH40WPL06SORQ","computer","Desktop or Laptop","Windows 10","Chrome 117.0.0.0","1366x768","1362x598",NA,NA,0,"BIQ (Charlotte)",3,"GHFIEJDACB","Failed AC2","Passed AC1","Spreadsheet1",1,"BIQ","Screen 2","o21mwi",2,"response","4",48406.25,51906.25,51925,48406.25,51906.25,51925,1,48406.25,3518.75,0,NA,"Rating Scale","Rating Scale",16,"object-86","BIQ",NA,"SUPAMT61059"
"10",1695668494517,"25/09/2023 19:01:34",1695654094517,-4,"25/09/2023 11:01:34",144247,6,"task-gjqt",NA,31849066,9416674,NA,"complete","oimylj","3ZSY5X72N3ANMI61EVH40WPL06SORQ","computer","Desktop or Laptop","Windows 10","Chrome 117.0.0.0","1366x768","1362x598",NA,NA,0,"BIQ (Charlotte)",3,"GHFIEJDACB","Failed AC2","Passed AC1","Spreadsheet1",1,"BIQ","Screen 3","iz3the",3,"continue","",17275.75,17250,17275.75,17275.75,17250,17275.75,1,17275.75,0,0,NA,"Click To Continue","Continue Button",22,"object-73","BIQ",NA,"SUPAMT61059"
"11",1695668494520,"25/09/2023 19:01:34",1695654094520,-4,"25/09/2023 11:01:34",144247,6,"task-gjqt",NA,31849066,9416674,NA,"complete","oimylj","3ZSY5X72N3ANMI61EVH40WPL06SORQ","computer","Desktop or Laptop","Windows 10","Chrome 117.0.0.0","1366x768","1362x598",NA,NA,0,"BIQ (Charlotte)",3,"GHFIEJDACB","Failed AC2","Passed AC1","Spreadsheet1",1,"BIQ","Screen 3","iz3the",3,"response","3",7750,17250,17278.75,7750,17250,17278.75,1,7750,9528.75,0,NA,"Rating Scale","Rating Scale",2,"object-53","BIQ",NA,"SUPAMT61059"
"12",1695668494521,"25/09/2023 19:01:34",1695654094521,-4,"25/09/2023 11:01:34",144247,6,"task-gjqt",NA,31849066,9416674,NA,"complete","oimylj","3ZSY5X72N3ANMI61EVH40WPL06SORQ","computer","Desktop or Laptop","Windows 10","Chrome 117.0.0.0","1366x768","1362x598",NA,NA,0,"BIQ (Charlotte)",3,"GHFIEJDACB","Failed AC2","Passed AC1","Spreadsheet1",1,"BIQ","Screen 3","iz3the",3,"response","6",9468.75,17250,17279.75,9468.75,17250,17279.75,1,9468.75,7811,0,NA,"Rating Scale","Rating Scale",9,"object-60","BIQ",NA,"SUPAMT61059"
"13",1695668494521,"25/09/2023 19:01:34",1695654094521,-4,"25/09/2023 11:01:34",144247,6,"task-gjqt",NA,31849066,9416674,NA,"complete","oimylj","3ZSY5X72N3ANMI61EVH40WPL06SORQ","computer","Desktop or Laptop","Windows 10","Chrome 117.0.0.0","1366x768","1362x598",NA,NA,0,"BIQ (Charlotte)",3,"GHFIEJDACB","Failed AC2","Passed AC1","Spreadsheet1",1,"BIQ","Screen 3","iz3the",3,"response","2",13000,17250,17279.75,13000,17250,17279.75,1,13000,4279.75,0,NA,"Rating Scale","Rating Scale",16,"object-67","BIQ",NA,"SUPAMT61059"
"14",1695668494525,"25/09/2023 19:01:34",1695654094525,-4,"25/09/2023 11:01:34",144247,6,"task-gjqt",NA,31849066,9416674,NA,"complete","oimylj","3ZSY5X72N3ANMI61EVH40WPL06SORQ","computer","Desktop or Laptop","Windows 10","Chrome 117.0.0.0","1366x768","1362x598",NA,NA,0,"BIQ (Charlotte)",3,"GHFIEJDACB","Failed AC2","Passed AC1","Spreadsheet1",NA,"","","",NA,"5","END",NA,NA,NA,NA,NA,NA,0,NA,NA,NA,NA,"","",NA,"","",NA,"SUPAMT61059"
"1",1695679659966,"25/09/2023 22:07:39",1695654459966,-7,"25/09/2023 08:07:39",144247,6,"task-gjqt",NA,31849878,9416680,NA,"complete","jwvcoa","336KAV9KYWRICCTI5SB11FFF2OBY2W","computer","Desktop or Laptop","Windows 10","Chrome 117.0.0.0","1366x768","1517x687",NA,NA,0,"BIQ (Charlotte)",3,"HIGJFAEBDC","Passed AC2","","Spreadsheet1",NA,"","","",NA,"5","BEGIN",NA,NA,NA,NA,NA,NA,0,NA,NA,NA,NA,"","",NA,"","",NA,"SUPAMT25665"
"2",1695679664023,"25/09/2023 22:07:44",1695654464023,-7,"25/09/2023 08:07:44",144247,6,"task-gjqt",NA,31849878,9416680,NA,"complete","jwvcoa","336KAV9KYWRICCTI5SB11FFF2OBY2W","computer","Desktop or Laptop","Windows 10","Chrome 117.0.0.0","1366x768","1517x687",NA,NA,0,"BIQ (Charlotte)",3,"HIGJFAEBDC","Passed AC2","","Spreadsheet1",1,"BIQ","Screen 1","9dh6eq",1,"continue","",7819,7807,7819,7819,7807,7819,1,7819,0,0,NA,"Click To Continue","Continue Button",23,"object-48","BIQ",NA,"SUPAMT25665"
"3",1695679664024,"25/09/2023 22:07:44",1695654464024,-7,"25/09/2023 08:07:44",144247,6,"task-gjqt",NA,31849878,9416680,NA,"complete","jwvcoa","336KAV9KYWRICCTI5SB11FFF2OBY2W","computer","Desktop or Laptop","Windows 10","Chrome 117.0.0.0","1366x768","1517x687",NA,NA,0,"BIQ (Charlotte)",3,"HIGJFAEBDC","Passed AC2","","Spreadsheet1",1,"BIQ","Screen 1","9dh6eq",1,"response","5",5244.5,7807,7821,5244.5,7807,7821,1,5244.5,2576.5,0,NA,"Rating Scale","Rating Scale",3,"object-5","BIQ",NA,"SUPAMT25665"
"4",1695679664025,"25/09/2023 22:07:44",1695654464025,-7,"25/09/2023 08:07:44",144247,6,"task-gjqt",NA,31849878,9416680,NA,"complete","jwvcoa","336KAV9KYWRICCTI5SB11FFF2OBY2W","computer","Desktop or Laptop","Windows 10","Chrome 117.0.0.0","1366x768","1517x687",NA,NA,0,"BIQ (Charlotte)",3,"HIGJFAEBDC","Passed AC2","","Spreadsheet1",1,"BIQ","Screen 1","9dh6eq",1,"response","7",5807,7807,7822,5807,7807,7822,1,5807,2015,0,NA,"Rating Scale","Rating Scale",10,"object-18","BIQ",NA,"SUPAMT25665"
"5",1695679664025,"25/09/2023 22:07:44",1695654464025,-7,"25/09/2023 08:07:44",144247,6,"task-gjqt",NA,31849878,9416680,NA,"complete","jwvcoa","336KAV9KYWRICCTI5SB11FFF2OBY2W","computer","Desktop or Laptop","Windows 10","Chrome 117.0.0.0","1366x768","1517x687",NA,NA,0,"BIQ (Charlotte)",3,"HIGJFAEBDC","Passed AC2","","Spreadsheet1",1,"BIQ","Screen 1","9dh6eq",1,"response","6",6619.5,7807,7822,6619.5,7807,7822,1,6619.5,1202.5,0,NA,"Rating Scale","Rating Scale",17,"object-80","BIQ",NA,"SUPAMT25665"
"6",1695679668640,"25/09/2023 22:07:48",1695654468640,-7,"25/09/2023 08:07:48",144247,6,"task-gjqt",NA,31849878,9416680,NA,"complete","jwvcoa","336KAV9KYWRICCTI5SB11FFF2OBY2W","computer","Desktop or Laptop","Windows 10","Chrome 117.0.0.0","1366x768","1517x687",NA,NA,0,"BIQ (Charlotte)",3,"HIGJFAEBDC","Passed AC2","","Spreadsheet1",1,"BIQ","Screen 2","o21mwi",2,"continue","",4630,4625,4630,4630,4625,4630,1,4630,0,0,NA,"Click To Continue","Continue Button",22,"object-50","BIQ",NA,"SUPAMT25665"
"7",1695679668641,"25/09/2023 22:07:48",1695654468641,-7,"25/09/2023 08:07:48",144247,6,"task-gjqt",NA,31849878,9416680,NA,"complete","jwvcoa","336KAV9KYWRICCTI5SB11FFF2OBY2W","computer","Desktop or Laptop","Windows 10","Chrome 117.0.0.0","1366x768","1517x687",NA,NA,0,"BIQ (Charlotte)",3,"HIGJFAEBDC","Passed AC2","","Spreadsheet1",1,"BIQ","Screen 2","o21mwi",2,"response","7",1687.5,4625,4631,1687.5,4625,4631,1,1687.5,2943.5,0,NA,"Rating Scale","Rating Scale",2,"object-259","BIQ",NA,"SUPAMT25665"
"8",1695679668641,"25/09/2023 22:07:48",1695654468641,-7,"25/09/2023 08:07:48",144247,6,"task-gjqt",NA,31849878,9416680,NA,"complete","jwvcoa","336KAV9KYWRICCTI5SB11FFF2OBY2W","computer","Desktop or Laptop","Windows 10","Chrome 117.0.0.0","1366x768","1517x687",NA,NA,0,"BIQ (Charlotte)",3,"HIGJFAEBDC","Passed AC2","","Spreadsheet1",1,"BIQ","Screen 2","o21mwi",2,"response","5",2281.25,4625,4631,2281.25,4625,4631,1,2281.25,2349.75,0,NA,"Rating Scale","Rating Scale",9,"object-36","BIQ",NA,"SUPAMT25665"
"9",1695679668641,"25/09/2023 22:07:48",1695654468641,-7,"25/09/2023 08:07:48",144247,6,"task-gjqt",NA,31849878,9416680,NA,"complete","jwvcoa","336KAV9KYWRICCTI5SB11FFF2OBY2W","computer","Desktop or Laptop","Windows 10","Chrome 117.0.0.0","1366x768","1517x687",NA,NA,0,"BIQ (Charlotte)",3,"HIGJFAEBDC","Passed AC2","","Spreadsheet1",1,"BIQ","Screen 2","o21mwi",2,"response","6",3593.75,4625,4631,3593.75,4625,4631,1,3593.75,1037.25,0,NA,"Rating Scale","Rating Scale",16,"object-86","BIQ",NA,"SUPAMT25665"
"10",1695679672720,"25/09/2023 22:07:52",1695654472720,-7,"25/09/2023 08:07:52",144247,6,"task-gjqt",NA,31849878,9416680,NA,"complete","jwvcoa","336KAV9KYWRICCTI5SB11FFF2OBY2W","computer","Desktop or Laptop","Windows 10","Chrome 117.0.0.0","1366x768","1517x687",NA,NA,0,"BIQ (Charlotte)",3,"HIGJFAEBDC","Passed AC2","","Spreadsheet1",1,"BIQ","Screen 3","iz3the",3,"continue","",4085,4062.5,4085,4085,4062.5,4085,1,4085,0,0,NA,"Click To Continue","Continue Button",22,"object-73","BIQ",NA,"SUPAMT25665"
"11",1695679672725,"25/09/2023 22:07:52",1695654472725,-7,"25/09/2023 08:07:52",144247,6,"task-gjqt",NA,31849878,9416680,NA,"complete","jwvcoa","336KAV9KYWRICCTI5SB11FFF2OBY2W","computer","Desktop or Laptop","Windows 10","Chrome 117.0.0.0","1366x768","1517x687",NA,NA,0,"BIQ (Charlotte)",3,"HIGJFAEBDC","Passed AC2","","Spreadsheet1",1,"BIQ","Screen 3","iz3the",3,"response","7",1375,4062.5,4089,1375,4062.5,4089,1,1375,2714,0,NA,"Rating Scale","Rating Scale",2,"object-53","BIQ",NA,"SUPAMT25665"
"12",1695679672725,"25/09/2023 22:07:52",1695654472725,-7,"25/09/2023 08:07:52",144247,6,"task-gjqt",NA,31849878,9416680,NA,"complete","jwvcoa","336KAV9KYWRICCTI5SB11FFF2OBY2W","computer","Desktop or Laptop","Windows 10","Chrome 117.0.0.0","1366x768","1517x687",NA,NA,0,"BIQ (Charlotte)",3,"HIGJFAEBDC","Passed AC2","","Spreadsheet1",1,"BIQ","Screen 3","iz3the",3,"response","6",2125,4062.5,4090,2125,4062.5,4090,1,2125,1965,0,NA,"Rating Scale","Rating Scale",9,"object-60","BIQ",NA,"SUPAMT25665"
"13",1695679672726,"25/09/2023 22:07:52",1695654472726,-7,"25/09/2023 08:07:52",144247,6,"task-gjqt",NA,31849878,9416680,NA,"complete","jwvcoa","336KAV9KYWRICCTI5SB11FFF2OBY2W","computer","Desktop or Laptop","Windows 10","Chrome 117.0.0.0","1366x768","1517x687",NA,NA,0,"BIQ (Charlotte)",3,"HIGJFAEBDC","Passed AC2","","Spreadsheet1",1,"BIQ","Screen 3","iz3the",3,"response","5",2500,4062.5,4090,2500,4062.5,4090,1,2500,1590,0,NA,"Rating Scale","Rating Scale",16,"object-67","BIQ",NA,"SUPAMT25665"
"14",1695679672732,"25/09/2023 22:07:52",1695654472732,-7,"25/09/2023 08:07:52",144247,6,"task-gjqt",NA,31849878,9416680,NA,"complete","jwvcoa","336KAV9KYWRICCTI5SB11FFF2OBY2W","computer","Desktop or Laptop","Windows 10","Chrome 117.0.0.0","1366x768","1517x687",NA,NA,0,"BIQ (Charlotte)",3,"HIGJFAEBDC","Passed AC2","","Spreadsheet1",NA,"","","",NA,"5","END",NA,NA,NA,NA,NA,NA,0,NA,NA,NA,NA,"","",NA,"","",NA,"SUPAMT25665"
"1",1695667909485,"25/09/2023 18:51:49",1695653509485,-4,"25/09/2023 10:51:49",144247,6,"task-gjqt",NA,31848258,9416698,NA,"complete","badtgi","3B3WTRP3DH13BBLAXGJL2YMOTFR92J","computer","Desktop or Laptop","Windows 10","Chrome 109.0.0.0","1366x768","1366x657",NA,NA,0,"BIQ (Charlotte)",3,"FGEHDICJBA","Passed AC2","","Spreadsheet1",NA,"","","",NA,"5","BEGIN",NA,NA,NA,NA,NA,NA,0,NA,NA,NA,NA,"","",NA,"","",NA,"SUPAMT37681"
"2",1695667915377,"25/09/2023 18:51:55",1695653515377,-4,"25/09/2023 10:51:55",144247,6,"task-gjqt",NA,31848258,9416698,NA,"complete","badtgi","3B3WTRP3DH13BBLAXGJL2YMOTFR92J","computer","Desktop or Laptop","Windows 10","Chrome 109.0.0.0","1366x768","1366x657",NA,NA,0,"BIQ (Charlotte)",3,"FGEHDICJBA","Passed AC2","","Spreadsheet1",1,"BIQ","Screen 1","9dh6eq",1,"continue","",8329.208,8298.211,8329.208,8329.208,8298.211,8329.208,1,8329.208,0,0,NA,"Click To Continue","Continue Button",23,"object-48","BIQ",NA,"SUPAMT37681"
"3",1695667915378,"25/09/2023 18:51:55",1695653515378,-4,"25/09/2023 10:51:55",144247,6,"task-gjqt",NA,31848258,9416698,NA,"complete","badtgi","3B3WTRP3DH13BBLAXGJL2YMOTFR92J","computer","Desktop or Laptop","Windows 10","Chrome 109.0.0.0","1366x768","1366x657",NA,NA,0,"BIQ (Charlotte)",3,"FGEHDICJBA","Passed AC2","","Spreadsheet1",1,"BIQ","Screen 1","9dh6eq",1,"response","4",5787.076,8298.211,8329.208,5787.076,8298.211,8329.208,1,5787.076,2542.132,0,NA,"Rating Scale","Rating Scale",3,"object-5","BIQ",NA,"SUPAMT37681"
"4",1695667915378,"25/09/2023 18:51:55",1695653515378,-4,"25/09/2023 10:51:55",144247,6,"task-gjqt",NA,31848258,9416698,NA,"complete","badtgi","3B3WTRP3DH13BBLAXGJL2YMOTFR92J","computer","Desktop or Laptop","Windows 10","Chrome 109.0.0.0","1366x768","1366x657",NA,NA,0,"BIQ (Charlotte)",3,"FGEHDICJBA","Passed AC2","","Spreadsheet1",1,"BIQ","Screen 1","9dh6eq",1,"response","5",6376.058,8298.211,8329.208,6376.058,8298.211,8329.208,1,6376.058,1953.15,0,NA,"Rating Scale","Rating Scale",10,"object-18","BIQ",NA,"SUPAMT37681"
"5",1695667915379,"25/09/2023 18:51:55",1695653515379,-4,"25/09/2023 10:51:55",144247,6,"task-gjqt",NA,31848258,9416698,NA,"complete","badtgi","3B3WTRP3DH13BBLAXGJL2YMOTFR92J","computer","Desktop or Laptop","Windows 10","Chrome 109.0.0.0","1366x768","1366x657",NA,NA,0,"BIQ (Charlotte)",3,"FGEHDICJBA","Passed AC2","","Spreadsheet1",1,"BIQ","Screen 1","9dh6eq",1,"response","4",6872.107,8298.211,8329.208,6872.107,8298.211,8329.208,1,6872.107,1457.101,0,NA,"Rating Scale","Rating Scale",17,"object-80","BIQ",NA,"SUPAMT37681"
"6",1695667918646,"25/09/2023 18:51:58",1695653518646,-4,"25/09/2023 10:51:58",144247,6,"task-gjqt",NA,31848258,9416698,NA,"complete","badtgi","3B3WTRP3DH13BBLAXGJL2YMOTFR92J","computer","Desktop or Laptop","Windows 10","Chrome 109.0.0.0","1366x768","1366x657",NA,NA,0,"BIQ (Charlotte)",3,"FGEHDICJBA","Passed AC2","","Spreadsheet1",1,"BIQ","Screen 2","o21mwi",2,"continue","",3302.289,3286.113,3302.289,3302.289,3286.113,3302.289,1,3302.289,0,0,NA,"Click To Continue","Continue Button",22,"object-50","BIQ",NA,"SUPAMT37681"
"7",1695667918647,"25/09/2023 18:51:58",1695653518647,-4,"25/09/2023 10:51:58",144247,6,"task-gjqt",NA,31848258,9416698,NA,"complete","badtgi","3B3WTRP3DH13BBLAXGJL2YMOTFR92J","computer","Desktop or Laptop","Windows 10","Chrome 109.0.0.0","1366x768","1366x657",NA,NA,0,"BIQ (Charlotte)",3,"FGEHDICJBA","Passed AC2","","Spreadsheet1",1,"BIQ","Screen 2","o21mwi",2,"response","4",1612.085,3286.113,3302.789,1612.085,3286.113,3302.789,1,1612.085,1690.704,0,NA,"Rating Scale","Rating Scale",2,"object-259","BIQ",NA,"SUPAMT37681"
"8",1695667918647,"25/09/2023 18:51:58",1695653518647,-4,"25/09/2023 10:51:58",144247,6,"task-gjqt",NA,31848258,9416698,NA,"complete","badtgi","3B3WTRP3DH13BBLAXGJL2YMOTFR92J","computer","Desktop or Laptop","Windows 10","Chrome 109.0.0.0","1366x768","1366x657",NA,NA,0,"BIQ (Charlotte)",3,"FGEHDICJBA","Passed AC2","","Spreadsheet1",1,"BIQ","Screen 2","o21mwi",2,"response","5",2201.117,3286.113,3303.4890002861,2201.117,3286.113,3303.4890002861,1,2201.117,1102.3720002861,0,NA,"Rating Scale","Rating Scale",9,"object-36","BIQ",NA,"SUPAMT37681"
"9",1695667918648,"25/09/2023 18:51:58",1695653518648,-4,"25/09/2023 10:51:58",144247,6,"task-gjqt",NA,31848258,9416698,NA,"complete","badtgi","3B3WTRP3DH13BBLAXGJL2YMOTFR92J","computer","Desktop or Laptop","Windows 10","Chrome 109.0.0.0","1366x768","1366x657",NA,NA,0,"BIQ (Charlotte)",3,"FGEHDICJBA","Passed AC2","","Spreadsheet1",1,"BIQ","Screen 2","o21mwi",2,"response","4",3162.104,3286.113,3303.88899990463,3162.104,3286.113,3303.88899990463,1,3162.104,141.784999904632,0,NA,"Rating Scale","Rating Scale",16,"object-86","BIQ",NA,"SUPAMT37681"
"10",1695667922856,"25/09/2023 18:52:02",1695653522856,-4,"25/09/2023 10:52:02",144247,6,"task-gjqt",NA,31848258,9416698,NA,"complete","badtgi","3B3WTRP3DH13BBLAXGJL2YMOTFR92J","computer","Desktop or Laptop","Windows 10","Chrome 109.0.0.0","1366x768","1366x657",NA,NA,0,"BIQ (Charlotte)",3,"FGEHDICJBA","Passed AC2","","Spreadsheet1",1,"BIQ","Screen 3","iz3the",3,"continue","",4225.3760002861,4216.309,4225.3760002861,4225.3760002861,4216.309,4225.3760002861,1,4225.3760002861,0,0,NA,"Click To Continue","Continue Button",22,"object-73","BIQ",NA,"SUPAMT37681"
"11",1695667922861,"25/09/2023 18:52:02",1695653522861,-4,"25/09/2023 10:52:02",144247,6,"task-gjqt",NA,31848258,9416698,NA,"complete","badtgi","3B3WTRP3DH13BBLAXGJL2YMOTFR92J","computer","Desktop or Laptop","Windows 10","Chrome 109.0.0.0","1366x768","1366x657",NA,NA,0,"BIQ (Charlotte)",3,"FGEHDICJBA","Passed AC2","","Spreadsheet1",1,"BIQ","Screen 3","iz3the",3,"response","5",3193.234,4216.309,4230.3760002861,3193.234,4216.309,4230.3760002861,1,3193.234,1037.1420002861,0,NA,"Rating Scale","Rating Scale",2,"object-53","BIQ",NA,"SUPAMT37681"
"12",1695667922861,"25/09/2023 18:52:02",1695653522861,-4,"25/09/2023 10:52:02",144247,6,"task-gjqt",NA,31848258,9416698,NA,"complete","badtgi","3B3WTRP3DH13BBLAXGJL2YMOTFR92J","computer","Desktop or Laptop","Windows 10","Chrome 109.0.0.0","1366x768","1366x657",NA,NA,0,"BIQ (Charlotte)",3,"FGEHDICJBA","Passed AC2","","Spreadsheet1",1,"BIQ","Screen 3","iz3the",3,"response","4",2728.256,4216.309,4230.97600019073,2728.256,4216.309,4230.97600019073,1,2728.256,1502.72000019073,0,NA,"Rating Scale","Rating Scale",9,"object-60","BIQ",NA,"SUPAMT37681"
"13",1695667922862,"25/09/2023 18:52:02",1695653522862,-4,"25/09/2023 10:52:02",144247,6,"task-gjqt",NA,31848258,9416698,NA,"complete","badtgi","3B3WTRP3DH13BBLAXGJL2YMOTFR92J","computer","Desktop or Laptop","Windows 10","Chrome 109.0.0.0","1366x768","1366x657",NA,NA,0,"BIQ (Charlotte)",3,"FGEHDICJBA","Passed AC2","","Spreadsheet1",1,"BIQ","Screen 3","iz3the",3,"response","5",3689.281,4216.309,4231.47600019073,3689.281,4216.309,4231.47600019073,1,3689.281,542.195000190735,0,NA,"Rating Scale","Rating Scale",16,"object-67","BIQ",NA,"SUPAMT37681"
"14",1695667922867,"25/09/2023 18:52:02",1695653522867,-4,"25/09/2023 10:52:02",144247,6,"task-gjqt",NA,31848258,9416698,NA,"complete","badtgi","3B3WTRP3DH13BBLAXGJL2YMOTFR92J","computer","Desktop or Laptop","Windows 10","Chrome 109.0.0.0","1366x768","1366x657",NA,NA,0,"BIQ (Charlotte)",3,"FGEHDICJBA","Passed AC2","","Spreadsheet1",NA,"","","",NA,"5","END",NA,NA,NA,NA,NA,NA,0,NA,NA,NA,NA,"","",NA,"","",NA,"SUPAMT37681"
"1",1695667920217,"25/09/2023 18:52:00",1695653520217,-4,"25/09/2023 10:52:00",144247,6,"task-gjqt",NA,31848377,9416701,NA,"rejected - time limit reached","","3UWN2HHPU44H5C62S5HWBHUCWY6SN3","computer","Desktop or Laptop","Windows 10","Chrome 114.0.0.0","1366x768","1366x598",NA,NA,0,"BIQ (Charlotte)",3,"GHFIEJDACB","Passed AC2","","Spreadsheet1",NA,"","","",NA,"5","BEGIN",NA,NA,NA,NA,NA,NA,0,NA,NA,NA,NA,"","",NA,"","",NA,"SUPAMT82878"
"2",1695667956033,"25/09/2023 18:52:36",1695653556033,-4,"25/09/2023 10:52:36",144247,6,"task-gjqt",NA,31848377,9416701,NA,"rejected - time limit reached","","3UWN2HHPU44H5C62S5HWBHUCWY6SN3","computer","Desktop or Laptop","Windows 10","Chrome 114.0.0.0","1366x768","1366x598",NA,NA,0,"BIQ (Charlotte)",3,"GHFIEJDACB","Passed AC2","","Spreadsheet1",1,"BIQ","Screen 1","9dh6eq",1,"continue","",35840.0180003815,35831.191,35840.0180003815,35840.0180003815,35831.191,35840.0180003815,1,35840.0180003815,0,0,NA,"Click To Continue","Continue Button",23,"object-48","BIQ",NA,"SUPAMT82878"
"3",1695667956036,"25/09/2023 18:52:36",1695653556036,-4,"25/09/2023 10:52:36",144247,6,"task-gjqt",NA,31848377,9416701,NA,"rejected - time limit reached","","3UWN2HHPU44H5C62S5HWBHUCWY6SN3","computer","Desktop or Laptop","Windows 10","Chrome 114.0.0.0","1366x768","1366x598",NA,NA,0,"BIQ (Charlotte)",3,"GHFIEJDACB","Passed AC2","","Spreadsheet1",1,"BIQ","Screen 1","9dh6eq",1,"response","6",4173.963,35831.191,35844.1179998093,4173.963,35831.191,35844.1179998093,1,4173.963,31670.1549998093,0,NA,"Rating Scale","Rating Scale",3,"object-5","BIQ",NA,"SUPAMT82878"
"4",1695667956036,"25/09/2023 18:52:36",1695653556036,-4,"25/09/2023 10:52:36",144247,6,"task-gjqt",NA,31848377,9416701,NA,"rejected - time limit reached","","3UWN2HHPU44H5C62S5HWBHUCWY6SN3","computer","Desktop or Laptop","Windows 10","Chrome 114.0.0.0","1366x768","1366x598",NA,NA,0,"BIQ (Charlotte)",3,"GHFIEJDACB","Passed AC2","","Spreadsheet1",1,"BIQ","Screen 1","9dh6eq",1,"response","7",4836.734,35831.191,35844.6179998093,4836.734,35831.191,35844.6179998093,1,4836.734,31007.8839998093,0,NA,"Rating Scale","Rating Scale",10,"object-18","BIQ",NA,"SUPAMT82878"
"5",1695667956037,"25/09/2023 18:52:36",1695653556037,-4,"25/09/2023 10:52:36",144247,6,"task-gjqt",NA,31848377,9416701,NA,"rejected - time limit reached","","3UWN2HHPU44H5C62S5HWBHUCWY6SN3","computer","Desktop or Laptop","Windows 10","Chrome 114.0.0.0","1366x768","1366x598",NA,NA,0,"BIQ (Charlotte)",3,"GHFIEJDACB","Passed AC2","","Spreadsheet1",1,"BIQ","Screen 1","9dh6eq",1,"response","6",5737.785,35831.191,35845.0180003815,5737.785,35831.191,35845.0180003815,1,5737.785,30107.2330003815,0,NA,"Rating Scale","Rating Scale",17,"object-80","BIQ",NA,"SUPAMT82878"
"6",1695667961867,"25/09/2023 18:52:41",1695653561867,-4,"25/09/2023 10:52:41",144247,6,"task-gjqt",NA,31848377,9416701,NA,"rejected - time limit reached","","3UWN2HHPU44H5C62S5HWBHUCWY6SN3","computer","Desktop or Laptop","Windows 10","Chrome 114.0.0.0","1366x768","1366x598",NA,NA,0,"BIQ (Charlotte)",3,"GHFIEJDACB","Passed AC2","","Spreadsheet1",1,"BIQ","Screen 2","o21mwi",2,"continue","",5844.42699980926,5839.369,5844.42699980926,5844.42699980926,5839.369,5844.42699980926,1,5844.42699980926,0,0,NA,"Click To Continue","Continue Button",22,"object-50","BIQ",NA,"SUPAMT82878"
"7",1695667961868,"25/09/2023 18:52:41",1695653561868,-4,"25/09/2023 10:52:41",144247,6,"task-gjqt",NA,31848377,9416701,NA,"rejected - time limit reached","","3UWN2HHPU44H5C62S5HWBHUCWY6SN3","computer","Desktop or Laptop","Windows 10","Chrome 114.0.0.0","1366x768","1366x598",NA,NA,0,"BIQ (Charlotte)",3,"GHFIEJDACB","Passed AC2","","Spreadsheet1",1,"BIQ","Screen 2","o21mwi",2,"response","5",1974.268,5839.369,5845.02700019073,1974.268,5839.369,5845.02700019073,1,1974.268,3870.75900019074,0,NA,"Rating Scale","Rating Scale",2,"object-259","BIQ",NA,"SUPAMT82878"
"8",1695667961868,"25/09/2023 18:52:41",1695653561868,-4,"25/09/2023 10:52:41",144247,6,"task-gjqt",NA,31848377,9416701,NA,"rejected - time limit reached","","3UWN2HHPU44H5C62S5HWBHUCWY6SN3","computer","Desktop or Laptop","Windows 10","Chrome 114.0.0.0","1366x768","1366x598",NA,NA,0,"BIQ (Charlotte)",3,"GHFIEJDACB","Passed AC2","","Spreadsheet1",1,"BIQ","Screen 2","o21mwi",2,"response","6",2579.749,5839.369,5845.42699980926,2579.749,5839.369,5845.42699980926,1,2579.749,3265.67799980927,0,NA,"Rating Scale","Rating Scale",9,"object-36","BIQ",NA,"SUPAMT82878"
"9",1695667961869,"25/09/2023 18:52:41",1695653561869,-4,"25/09/2023 10:52:41",144247,6,"task-gjqt",NA,31848377,9416701,NA,"rejected - time limit reached","","3UWN2HHPU44H5C62S5HWBHUCWY6SN3","computer","Desktop or Laptop","Windows 10","Chrome 114.0.0.0","1366x768","1366x598",NA,NA,0,"BIQ (Charlotte)",3,"GHFIEJDACB","Passed AC2","","Spreadsheet1",1,"BIQ","Screen 2","o21mwi",2,"response","7",3885.471,5839.369,5845.92699980926,3885.471,5839.369,5845.92699980926,1,3885.471,1960.45599980927,0,NA,"Rating Scale","Rating Scale",16,"object-86","BIQ",NA,"SUPAMT82878"
"10",1695667966970,"25/09/2023 18:52:46",1695653566970,-4,"25/09/2023 10:52:46",144247,6,"task-gjqt",NA,31848377,9416701,NA,"rejected - time limit reached","","3UWN2HHPU44H5C62S5HWBHUCWY6SN3","computer","Desktop or Laptop","Windows 10","Chrome 114.0.0.0","1366x768","1366x598",NA,NA,0,"BIQ (Charlotte)",3,"GHFIEJDACB","Passed AC2","","Spreadsheet1",1,"BIQ","Screen 3","iz3the",3,"continue","",5107.7580005722,5102.738,5107.7580005722,5107.7580005722,5102.738,5107.7580005722,1,5107.7580005722,0,0,NA,"Click To Continue","Continue Button",22,"object-73","BIQ",NA,"SUPAMT82878"
"11",1695667966973,"25/09/2023 18:52:46",1695653566973,-4,"25/09/2023 10:52:46",144247,6,"task-gjqt",NA,31848377,9416701,NA,"rejected - time limit reached","","3UWN2HHPU44H5C62S5HWBHUCWY6SN3","computer","Desktop or Laptop","Windows 10","Chrome 114.0.0.0","1366x768","1366x598",NA,NA,0,"BIQ (Charlotte)",3,"GHFIEJDACB","Passed AC2","","Spreadsheet1",1,"BIQ","Screen 3","iz3the",3,"response","6",3024.065,5102.738,5111.2580005722,3024.065,5102.738,5111.2580005722,1,3024.065,2087.1930005722,0,NA,"Rating Scale","Rating Scale",2,"object-53","BIQ",NA,"SUPAMT82878"
"12",1695667966974,"25/09/2023 18:52:46",1695653566974,-4,"25/09/2023 10:52:46",144247,6,"task-gjqt",NA,31848377,9416701,NA,"rejected - time limit reached","","3UWN2HHPU44H5C62S5HWBHUCWY6SN3","computer","Desktop or Laptop","Windows 10","Chrome 114.0.0.0","1366x768","1366x598",NA,NA,0,"BIQ (Charlotte)",3,"GHFIEJDACB","Passed AC2","","Spreadsheet1",1,"BIQ","Screen 3","iz3the",3,"response","7",3584.493,5102.738,5111.95800038147,3584.493,5102.738,5111.95800038147,1,3584.493,1527.46500038147,0,NA,"Rating Scale","Rating Scale",9,"object-60","BIQ",NA,"SUPAMT82878"
"13",1695667966974,"25/09/2023 18:52:46",1695653566974,-4,"25/09/2023 10:52:46",144247,6,"task-gjqt",NA,31848377,9416701,NA,"rejected - time limit reached","","3UWN2HHPU44H5C62S5HWBHUCWY6SN3","computer","Desktop or Laptop","Windows 10","Chrome 114.0.0.0","1366x768","1366x598",NA,NA,0,"BIQ (Charlotte)",3,"GHFIEJDACB","Passed AC2","","Spreadsheet1",1,"BIQ","Screen 3","iz3the",3,"response","6",4216.284,5102.738,5112.45800038147,4216.284,5102.738,5112.45800038147,1,4216.284,896.17400038147,0,NA,"Rating Scale","Rating Scale",16,"object-67","BIQ",NA,"SUPAMT82878"
"14",1695667966979,"25/09/2023 18:52:46",1695653566979,-4,"25/09/2023 10:52:46",144247,6,"task-gjqt",NA,31848377,9416701,NA,"rejected - time limit reached","","3UWN2HHPU44H5C62S5HWBHUCWY6SN3","computer","Desktop or Laptop","Windows 10","Chrome 114.0.0.0","1366x768","1366x598",NA,NA,0,"BIQ (Charlotte)",3,"GHFIEJDACB","Passed AC2","","Spreadsheet1",NA,"","","",NA,"5","END",NA,NA,NA,NA,NA,NA,0,NA,NA,NA,NA,"","",NA,"","",NA,"SUPAMT82878"
"1",1695668143998,"25/09/2023 18:55:43",1695653743998,-4,"25/09/2023 10:55:43",144247,6,"task-gjqt",NA,31848650,9416715,NA,"complete","gfqfbt","3AMYWKA6YHLU0Z8HM7E6P1YP4JF6OB","computer","Desktop or Laptop","Windows 10","Chrome 116.0.0.0","1366x768","1517x687",NA,NA,0,"BIQ (Charlotte)",3,"FGEHDICJBA","Passed AC2","","Spreadsheet1",NA,"","","",NA,"5","BEGIN",NA,NA,NA,NA,NA,NA,0,NA,NA,NA,NA,"","",NA,"","",NA,"SUPAMT03527"
"2",1695668225921,"25/09/2023 18:57:05",1695653825921,-4,"25/09/2023 10:57:05",144247,6,"task-gjqt",NA,31848650,9416715,NA,"complete","gfqfbt","3AMYWKA6YHLU0Z8HM7E6P1YP4JF6OB","computer","Desktop or Laptop","Windows 10","Chrome 116.0.0.0","1366x768","1517x687",NA,NA,0,"BIQ (Charlotte)",3,"FGEHDICJBA","Passed AC2","","Spreadsheet1",1,"BIQ","Screen 1","9dh6eq",1,"continue","",81941.197,81924.531,81941.197,81941.197,81924.531,81941.197,1,81941.197,0,0,NA,"Click To Continue","Continue Button",23,"object-48","BIQ",NA,"SUPAMT03527"
"3",1695668225924,"25/09/2023 18:57:05",1695653825924,-4,"25/09/2023 10:57:05",144247,6,"task-gjqt",NA,31848650,9416715,NA,"complete","gfqfbt","3AMYWKA6YHLU0Z8HM7E6P1YP4JF6OB","computer","Desktop or Laptop","Windows 10","Chrome 116.0.0.0","1366x768","1517x687",NA,NA,0,"BIQ (Charlotte)",3,"FGEHDICJBA","Passed AC2","","Spreadsheet1",1,"BIQ","Screen 1","9dh6eq",1,"response","2",57022.694,81924.531,81941.197,57022.694,81924.531,81941.197,1,57022.694,24918.503,0,NA,"Rating Scale","Rating Scale",3,"object-5","BIQ",NA,"SUPAMT03527"
"4",1695668225925,"25/09/2023 18:57:05",1695653825925,-4,"25/09/2023 10:57:05",144247,6,"task-gjqt",NA,31848650,9416715,NA,"complete","gfqfbt","3AMYWKA6YHLU0Z8HM7E6P1YP4JF6OB","computer","Desktop or Laptop","Windows 10","Chrome 116.0.0.0","1366x768","1517x687",NA,NA,0,"BIQ (Charlotte)",3,"FGEHDICJBA","Passed AC2","","Spreadsheet1",1,"BIQ","Screen 1","9dh6eq",1,"response","3",55895.721,81924.531,81941.197,55895.721,81924.531,81941.197,1,55895.721,26045.476,0,NA,"Rating Scale","Rating Scale",10,"object-18","BIQ",NA,"SUPAMT03527"
"5",1695668225925,"25/09/2023 18:57:05",1695653825925,-4,"25/09/2023 10:57:05",144247,6,"task-gjqt",NA,31848650,9416715,NA,"complete","gfqfbt","3AMYWKA6YHLU0Z8HM7E6P1YP4JF6OB","computer","Desktop or Laptop","Windows 10","Chrome 116.0.0.0","1366x768","1517x687",NA,NA,0,"BIQ (Charlotte)",3,"FGEHDICJBA","Passed AC2","","Spreadsheet1",1,"BIQ","Screen 1","9dh6eq",1,"response","5",57778.97,81924.531,81941.197,57778.97,81924.531,81941.197,1,57778.97,24162.227,0,NA,"Rating Scale","Rating Scale",17,"object-80","BIQ",NA,"SUPAMT03527"
"6",1695668232629,"25/09/2023 18:57:12",1695653832629,-4,"25/09/2023 10:57:12",144247,6,"task-gjqt",NA,31848650,9416715,NA,"complete","gfqfbt","3AMYWKA6YHLU0Z8HM7E6P1YP4JF6OB","computer","Desktop or Laptop","Windows 10","Chrome 116.0.0.0","1366x768","1517x687",NA,NA,0,"BIQ (Charlotte)",3,"FGEHDICJBA","Passed AC2","","Spreadsheet1",1,"BIQ","Screen 2","o21mwi",2,"continue","",6728.07000000298,6716.51699999999,6728.07000000298,6728.07000000298,6716.51699999999,6728.07000000298,1,6728.07000000298,0,0,NA,"Click To Continue","Continue Button",22,"object-50","BIQ",NA,"SUPAMT03527"
"7",1695668232630,"25/09/2023 18:57:12",1695653832630,-4,"25/09/2023 10:57:12",144247,6,"task-gjqt",NA,31848650,9416715,NA,"complete","gfqfbt","3AMYWKA6YHLU0Z8HM7E6P1YP4JF6OB","computer","Desktop or Laptop","Windows 10","Chrome 116.0.0.0","1366x768","1517x687",NA,NA,0,"BIQ (Charlotte)",3,"FGEHDICJBA","Passed AC2","","Spreadsheet1",1,"BIQ","Screen 2","o21mwi",2,"response","4",4035.512,6716.51699999999,6729.07000000298,4035.512,6716.51699999999,6729.07000000298,1,4035.512,2693.55800000297,0,NA,"Rating Scale","Rating Scale",2,"object-259","BIQ",NA,"SUPAMT03527"
"8",1695668232631,"25/09/2023 18:57:12",1695653832631,-4,"25/09/2023 10:57:12",144247,6,"task-gjqt",NA,31848650,9416715,NA,"complete","gfqfbt","3AMYWKA6YHLU0Z8HM7E6P1YP4JF6OB","computer","Desktop or Laptop","Windows 10","Chrome 116.0.0.0","1366x768","1517x687",NA,NA,0,"BIQ (Charlotte)",3,"FGEHDICJBA","Passed AC2","","Spreadsheet1",1,"BIQ","Screen 2","o21mwi",2,"response","5",2889.48,6716.51699999999,6729.87,2889.48,6716.51699999999,6729.87,1,2889.48,3840.39,0,NA,"Rating Scale","Rating Scale",9,"object-36","BIQ",NA,"SUPAMT03527"
"9",1695668232632,"25/09/2023 18:57:12",1695653832632,-4,"25/09/2023 10:57:12",144247,6,"task-gjqt",NA,31848650,9416715,NA,"complete","gfqfbt","3AMYWKA6YHLU0Z8HM7E6P1YP4JF6OB","computer","Desktop or Laptop","Windows 10","Chrome 116.0.0.0","1366x768","1517x687",NA,NA,0,"BIQ (Charlotte)",3,"FGEHDICJBA","Passed AC2","","Spreadsheet1",1,"BIQ","Screen 2","o21mwi",2,"response","4",4699.98699999999,6716.51699999999,6730.57000000298,4699.98699999999,6716.51699999999,6730.57000000298,1,4699.98699999999,2030.58300000298,0,NA,"Rating Scale","Rating Scale",16,"object-86","BIQ",NA,"SUPAMT03527"
"10",1695668238965,"25/09/2023 18:57:18",1695653838965,-4,"25/09/2023 10:57:18",144247,6,"task-gjqt",NA,31848650,9416715,NA,"complete","gfqfbt","3AMYWKA6YHLU0Z8HM7E6P1YP4JF6OB","computer","Desktop or Laptop","Windows 10","Chrome 116.0.0.0","1366x768","1517x687",NA,NA,0,"BIQ (Charlotte)",3,"FGEHDICJBA","Passed AC2","","Spreadsheet1",1,"BIQ","Screen 3","iz3the",3,"continue","",6346.62,6329.954,6346.62,6346.62,6329.954,6346.62,1,6346.62,0,0,NA,"Click To Continue","Continue Button",22,"object-73","BIQ",NA,"SUPAMT03527"
"11",1695668238969,"25/09/2023 18:57:18",1695653838969,-4,"25/09/2023 10:57:18",144247,6,"task-gjqt",NA,31848650,9416715,NA,"complete","gfqfbt","3AMYWKA6YHLU0Z8HM7E6P1YP4JF6OB","computer","Desktop or Laptop","Windows 10","Chrome 116.0.0.0","1366x768","1517x687",NA,NA,0,"BIQ (Charlotte)",3,"FGEHDICJBA","Passed AC2","","Spreadsheet1",1,"BIQ","Screen 3","iz3the",3,"response","5",2318.41800000001,6329.954,6346.62,2318.41800000001,6329.954,6346.62,1,2318.41800000001,4028.20199999999,0,NA,"Rating Scale","Rating Scale",2,"object-53","BIQ",NA,"SUPAMT03527"
"12",1695668238970,"25/09/2023 18:57:18",1695653838970,-4,"25/09/2023 10:57:18",144247,6,"task-gjqt",NA,31848650,9416715,NA,"complete","gfqfbt","3AMYWKA6YHLU0Z8HM7E6P1YP4JF6OB","computer","Desktop or Laptop","Windows 10","Chrome 116.0.0.0","1366x768","1517x687",NA,NA,0,"BIQ (Charlotte)",3,"FGEHDICJBA","Passed AC2","","Spreadsheet1",1,"BIQ","Screen 3","iz3the",3,"response","7",2790.014,6329.954,6346.62,2790.014,6329.954,6346.62,1,2790.014,3556.606,0,NA,"Rating Scale","Rating Scale",9,"object-60","BIQ",NA,"SUPAMT03527"
"13",1695668238970,"25/09/2023 18:57:18",1695653838970,-4,"25/09/2023 10:57:18",144247,6,"task-gjqt",NA,31848650,9416715,NA,"complete","gfqfbt","3AMYWKA6YHLU0Z8HM7E6P1YP4JF6OB","computer","Desktop or Laptop","Windows 10","Chrome 116.0.0.0","1366x768","1517x687",NA,NA,0,"BIQ (Charlotte)",3,"FGEHDICJBA","Passed AC2","","Spreadsheet1",1,"BIQ","Screen 3","iz3the",3,"response","6",3522.125,6329.954,6346.62,3522.125,6329.954,6346.62,1,3522.125,2824.495,0,NA,"Rating Scale","Rating Scale",16,"object-67","BIQ",NA,"SUPAMT03527"
"14",1695668238972,"25/09/2023 18:57:18",1695653838972,-4,"25/09/2023 10:57:18",144247,6,"task-gjqt",NA,31848650,9416715,NA,"complete","gfqfbt","3AMYWKA6YHLU0Z8HM7E6P1YP4JF6OB","computer","Desktop or Laptop","Windows 10","Chrome 116.0.0.0","1366x768","1517x687",NA,NA,0,"BIQ (Charlotte)",3,"FGEHDICJBA","Passed AC2","","Spreadsheet1",NA,"","","",NA,"5","END",NA,NA,NA,NA,NA,NA,0,NA,NA,NA,NA,"","",NA,"","",NA,"SUPAMT03527"
"1",1695668152368,"25/09/2023 18:55:52",1695653752368,-4,"25/09/2023 10:55:52",144247,6,"task-gjqt",NA,31848663,9416702,NA,"complete","xlbnvu","3KWTYT08762QBA564WO95EGVDJZ5LD","computer","Desktop or Laptop","Windows 10","Chrome 116.0.0.0","1280x1024","1280x875",NA,NA,0,"BIQ (Charlotte)",3,"DECFBGAHJI","Passed AC2","","Spreadsheet1",NA,"","","",NA,"5","BEGIN",NA,NA,NA,NA,NA,NA,0,NA,NA,NA,NA,"","",NA,"","",NA,"SUPAMT02996"
"2",1695668184642,"25/09/2023 18:56:24",1695653784642,-4,"25/09/2023 10:56:24",144247,6,"task-gjqt",NA,31848663,9416702,NA,"complete","xlbnvu","3KWTYT08762QBA564WO95EGVDJZ5LD","computer","Desktop or Laptop","Windows 10","Chrome 116.0.0.0","1280x1024","1280x875",NA,NA,0,"BIQ (Charlotte)",3,"DECFBGAHJI","Passed AC2","","Spreadsheet1",1,"BIQ","Screen 1","9dh6eq",1,"continue","",32284.4030000954,32277.444,32284.4030000954,32284.4030000954,32277.444,32284.4030000954,1,32284.4030000954,0,0,NA,"Click To Continue","Continue Button",23,"object-48","BIQ",NA,"SUPAMT02996"
"3",1695668184643,"25/09/2023 18:56:24",1695653784643,-4,"25/09/2023 10:56:24",144247,6,"task-gjqt",NA,31848663,9416702,NA,"complete","xlbnvu","3KWTYT08762QBA564WO95EGVDJZ5LD","computer","Desktop or Laptop","Windows 10","Chrome 116.0.0.0","1280x1024","1280x875",NA,NA,0,"BIQ (Charlotte)",3,"DECFBGAHJI","Passed AC2","","Spreadsheet1",1,"BIQ","Screen 1","9dh6eq",1,"response","5",3117.529,32277.444,32286.6029999046,3117.529,32277.444,32286.6029999046,1,3117.529,29169.0739999046,0,NA,"Rating Scale","Rating Scale",3,"object-5","BIQ",NA,"SUPAMT02996"
"4",1695668184644,"25/09/2023 18:56:24",1695653784644,-4,"25/09/2023 10:56:24",144247,6,"task-gjqt",NA,31848663,9416702,NA,"complete","xlbnvu","3KWTYT08762QBA564WO95EGVDJZ5LD","computer","Desktop or Laptop","Windows 10","Chrome 116.0.0.0","1280x1024","1280x875",NA,NA,0,"BIQ (Charlotte)",3,"DECFBGAHJI","Passed AC2","","Spreadsheet1",1,"BIQ","Screen 1","9dh6eq",1,"response","5",3709.693,32277.444,32287.003,3709.693,32277.444,32287.003,1,3709.693,28577.31,0,NA,"Rating Scale","Rating Scale",10,"object-18","BIQ",NA,"SUPAMT02996"
"5",1695668184644,"25/09/2023 18:56:24",1695653784644,-4,"25/09/2023 10:56:24",144247,6,"task-gjqt",NA,31848663,9416702,NA,"complete","xlbnvu","3KWTYT08762QBA564WO95EGVDJZ5LD","computer","Desktop or Laptop","Windows 10","Chrome 116.0.0.0","1280x1024","1280x875",NA,NA,0,"BIQ (Charlotte)",3,"DECFBGAHJI","Passed AC2","","Spreadsheet1",1,"BIQ","Screen 1","9dh6eq",1,"response","4",4309.633,32277.444,32287.2030000477,4309.633,32277.444,32287.2030000477,1,4309.633,27977.5700000477,0,NA,"Rating Scale","Rating Scale",17,"object-80","BIQ",NA,"SUPAMT02996"
"6",1695668188093,"25/09/2023 18:56:28",1695653788093,-4,"25/09/2023 10:56:28",144247,6,"task-gjqt",NA,31848663,9416702,NA,"complete","xlbnvu","3KWTYT08762QBA564WO95EGVDJZ5LD","computer","Desktop or Laptop","Windows 10","Chrome 116.0.0.0","1280x1024","1280x875",NA,NA,0,"BIQ (Charlotte)",3,"DECFBGAHJI","Passed AC2","","Spreadsheet1",1,"BIQ","Screen 2","o21mwi",2,"continue","",3458.35899995232,3448.224,3458.35899995232,3458.35899995232,3448.224,3458.35899995232,1,3458.35899995232,0,0,NA,"Click To Continue","Continue Button",22,"object-50","BIQ",NA,"SUPAMT02996"
"7",1695668188093,"25/09/2023 18:56:28",1695653788093,-4,"25/09/2023 10:56:28",144247,6,"task-gjqt",NA,31848663,9416702,NA,"complete","xlbnvu","3KWTYT08762QBA564WO95EGVDJZ5LD","computer","Desktop or Laptop","Windows 10","Chrome 116.0.0.0","1280x1024","1280x875",NA,NA,0,"BIQ (Charlotte)",3,"DECFBGAHJI","Passed AC2","","Spreadsheet1",1,"BIQ","Screen 2","o21mwi",2,"response","4",1691.022,3448.224,3458.85899995232,1691.022,3448.224,3458.85899995232,1,1691.022,1767.83699995231,0,NA,"Rating Scale","Rating Scale",2,"object-259","BIQ",NA,"SUPAMT02996"
"8",1695668188093,"25/09/2023 18:56:28",1695653788093,-4,"25/09/2023 10:56:28",144247,6,"task-gjqt",NA,31848663,9416702,NA,"complete","xlbnvu","3KWTYT08762QBA564WO95EGVDJZ5LD","computer","Desktop or Laptop","Windows 10","Chrome 116.0.0.0","1280x1024","1280x875",NA,NA,0,"BIQ (Charlotte)",3,"DECFBGAHJI","Passed AC2","","Spreadsheet1",1,"BIQ","Screen 2","o21mwi",2,"response","5",2244.873,3448.224,3459.15899990463,2244.873,3448.224,3459.15899990463,1,2244.873,1214.28599990463,0,NA,"Rating Scale","Rating Scale",9,"object-36","BIQ",NA,"SUPAMT02996"
"9",1695668188094,"25/09/2023 18:56:28",1695653788094,-4,"25/09/2023 10:56:28",144247,6,"task-gjqt",NA,31848663,9416702,NA,"complete","xlbnvu","3KWTYT08762QBA564WO95EGVDJZ5LD","computer","Desktop or Laptop","Windows 10","Chrome 116.0.0.0","1280x1024","1280x875",NA,NA,0,"BIQ (Charlotte)",3,"DECFBGAHJI","Passed AC2","","Spreadsheet1",1,"BIQ","Screen 2","o21mwi",2,"response","5",2797.182,3448.224,3459.559,2797.182,3448.224,3459.559,1,2797.182,662.377,0,NA,"Rating Scale","Rating Scale",16,"object-86","BIQ",NA,"SUPAMT02996"
"10",1695668191589,"25/09/2023 18:56:31",1695653791589,-4,"25/09/2023 10:56:31",144247,6,"task-gjqt",NA,31848663,9416702,NA,"complete","xlbnvu","3KWTYT08762QBA564WO95EGVDJZ5LD","computer","Desktop or Laptop","Windows 10","Chrome 116.0.0.0","1280x1024","1280x875",NA,NA,0,"BIQ (Charlotte)",3,"DECFBGAHJI","Passed AC2","","Spreadsheet1",1,"BIQ","Screen 3","iz3the",3,"continue","",3506.03500004768,3501.385,3506.03500004768,3506.03500004768,3501.385,3506.03500004768,1,3506.03500004768,0,0,NA,"Click To Continue","Continue Button",22,"object-73","BIQ",NA,"SUPAMT02996"
"11",1695668191589,"25/09/2023 18:56:31",1695653791589,-4,"25/09/2023 10:56:31",144247,6,"task-gjqt",NA,31848663,9416702,NA,"complete","xlbnvu","3KWTYT08762QBA564WO95EGVDJZ5LD","computer","Desktop or Laptop","Windows 10","Chrome 116.0.0.0","1280x1024","1280x875",NA,NA,0,"BIQ (Charlotte)",3,"DECFBGAHJI","Passed AC2","","Spreadsheet1",1,"BIQ","Screen 3","iz3the",3,"response","4",1713.618,3501.385,3506.63499995232,1713.618,3501.385,3506.63499995232,1,1713.618,1793.01699995231,0,NA,"Rating Scale","Rating Scale",2,"object-53","BIQ",NA,"SUPAMT02996"
"12",1695668191589,"25/09/2023 18:56:31",1695653791589,-4,"25/09/2023 10:56:31",144247,6,"task-gjqt",NA,31848663,9416702,NA,"complete","xlbnvu","3KWTYT08762QBA564WO95EGVDJZ5LD","computer","Desktop or Laptop","Windows 10","Chrome 116.0.0.0","1280x1024","1280x875",NA,NA,0,"BIQ (Charlotte)",3,"DECFBGAHJI","Passed AC2","","Spreadsheet1",1,"BIQ","Screen 3","iz3the",3,"response","3",2165.227,3501.385,3507.13499995232,2165.227,3501.385,3507.13499995232,1,2165.227,1341.90799995232,0,NA,"Rating Scale","Rating Scale",9,"object-60","BIQ",NA,"SUPAMT02996"
"13",1695668191590,"25/09/2023 18:56:31",1695653791590,-4,"25/09/2023 10:56:31",144247,6,"task-gjqt",NA,31848663,9416702,NA,"complete","xlbnvu","3KWTYT08762QBA564WO95EGVDJZ5LD","computer","Desktop or Laptop","Windows 10","Chrome 116.0.0.0","1280x1024","1280x875",NA,NA,0,"BIQ (Charlotte)",3,"DECFBGAHJI","Passed AC2","","Spreadsheet1",1,"BIQ","Screen 3","iz3the",3,"response","5",2620.346,3501.385,3507.53500004768,2620.346,3501.385,3507.53500004768,1,2620.346,887.189000047685,0,NA,"Rating Scale","Rating Scale",16,"object-67","BIQ",NA,"SUPAMT02996"
"14",1695668191591,"25/09/2023 18:56:31",1695653791591,-4,"25/09/2023 10:56:31",144247,6,"task-gjqt",NA,31848663,9416702,NA,"complete","xlbnvu","3KWTYT08762QBA564WO95EGVDJZ5LD","computer","Desktop or Laptop","Windows 10","Chrome 116.0.0.0","1280x1024","1280x875",NA,NA,0,"BIQ (Charlotte)",3,"DECFBGAHJI","Passed AC2","","Spreadsheet1",NA,"","","",NA,"5","END",NA,NA,NA,NA,NA,NA,0,NA,NA,NA,NA,"","",NA,"","",NA,"SUPAMT02996"
"1",1695668961608,"25/09/2023 19:09:21",1695654561608,-4,"25/09/2023 11:09:21",144247,6,"task-gjqt",NA,31849978,9416694,NA,"complete","nqpqfy","3OS46CRSLLYPQJHENJ0KKTSX0CB6VC","computer","Desktop or Laptop","Windows 10","Chrome 116.0.0.0","1366x691","1366x574",NA,NA,0,"BIQ (Charlotte)",3,"ABJCIDHEGF","Passed AC2","","Spreadsheet1",NA,"","","",NA,"5","BEGIN",NA,NA,NA,NA,NA,NA,0,NA,NA,NA,NA,"","",NA,"","",NA,"SUPAMT56870"
"2",1695668994232,"25/09/2023 19:09:54",1695654594232,-4,"25/09/2023 11:09:54",144247,6,"task-gjqt",NA,31849978,9416694,NA,"complete","nqpqfy","3OS46CRSLLYPQJHENJ0KKTSX0CB6VC","computer","Desktop or Laptop","Windows 10","Chrome 116.0.0.0","1366x691","1366x574",NA,NA,0,"BIQ (Charlotte)",3,"ABJCIDHEGF","Passed AC2","","Spreadsheet1",NA,"","","",NA,"5","BEGIN",NA,NA,NA,NA,NA,NA,0,NA,NA,NA,NA,"","",NA,"","",NA,"SUPAMT56870"
"3",1695669005512,"25/09/2023 19:10:05",1695654605512,-4,"25/09/2023 11:10:05",144247,6,"task-gjqt",NA,31849978,9416694,NA,"complete","nqpqfy","3OS46CRSLLYPQJHENJ0KKTSX0CB6VC","computer","Desktop or Laptop","Windows 10","Chrome 116.0.0.0","1366x691","1366x574",NA,NA,0,"BIQ (Charlotte)",3,"ABJCIDHEGF","Passed AC2","","Spreadsheet1",1,"BIQ","Screen 1","9dh6eq",1,"continue","",11297.997000003,11281.907,11297.997000003,11297.997000003,11281.907,11297.997000003,1,11297.997000003,0,0,NA,"Click To Continue","Continue Button",23,"object-48","BIQ",NA,"SUPAMT56870"
"4",1695669005514,"25/09/2023 19:10:05",1695654605514,-4,"25/09/2023 11:10:05",144247,6,"task-gjqt",NA,31849978,9416694,NA,"complete","nqpqfy","3OS46CRSLLYPQJHENJ0KKTSX0CB6VC","computer","Desktop or Laptop","Windows 10","Chrome 116.0.0.0","1366x691","1366x574",NA,NA,0,"BIQ (Charlotte)",3,"ABJCIDHEGF","Passed AC2","","Spreadsheet1",1,"BIQ","Screen 1","9dh6eq",1,"response","3",5416.237,11281.907,11298.573,5416.237,11281.907,11298.573,1,5416.237,5882.336,0,NA,"Rating Scale","Rating Scale",3,"object-5","BIQ",NA,"SUPAMT56870"
"5",1695669005514,"25/09/2023 19:10:05",1695654605514,-4,"25/09/2023 11:10:05",144247,6,"task-gjqt",NA,31849978,9416694,NA,"complete","nqpqfy","3OS46CRSLLYPQJHENJ0KKTSX0CB6VC","computer","Desktop or Laptop","Windows 10","Chrome 116.0.0.0","1366x691","1366x574",NA,NA,0,"BIQ (Charlotte)",3,"ABJCIDHEGF","Passed AC2","","Spreadsheet1",1,"BIQ","Screen 1","9dh6eq",1,"response","4",9230.632,11281.907,11298.573,9230.632,11281.907,11298.573,1,9230.632,2067.941,0,NA,"Rating Scale","Rating Scale",10,"object-18","BIQ",NA,"SUPAMT56870"
"6",1695669005515,"25/09/2023 19:10:05",1695654605515,-4,"25/09/2023 11:10:05",144247,6,"task-gjqt",NA,31849978,9416694,NA,"complete","nqpqfy","3OS46CRSLLYPQJHENJ0KKTSX0CB6VC","computer","Desktop or Laptop","Windows 10","Chrome 116.0.0.0","1366x691","1366x574",NA,NA,0,"BIQ (Charlotte)",3,"ABJCIDHEGF","Passed AC2","","Spreadsheet1",1,"BIQ","Screen 1","9dh6eq",1,"response","5",9736.116,11281.907,11298.573,9736.116,11281.907,11298.573,1,9736.116,1562.457,0,NA,"Rating Scale","Rating Scale",17,"object-80","BIQ",NA,"SUPAMT56870"
"7",1695669009845,"25/09/2023 19:10:09",1695654609845,-4,"25/09/2023 11:10:09",144247,6,"task-gjqt",NA,31849978,9416694,NA,"complete","nqpqfy","3OS46CRSLLYPQJHENJ0KKTSX0CB6VC","computer","Desktop or Laptop","Windows 10","Chrome 116.0.0.0","1366x691","1366x574",NA,NA,0,"BIQ (Charlotte)",3,"ABJCIDHEGF","Passed AC2","","Spreadsheet1",1,"BIQ","Screen 2","o21mwi",2,"continue","",4354.69000000074,4348.263,4354.69000000074,4354.69000000074,4348.263,4354.69000000074,1,4354.69000000074,0,0,NA,"Click To Continue","Continue Button",22,"object-50","BIQ",NA,"SUPAMT56870"
"8",1695669009846,"25/09/2023 19:10:09",1695654609846,-4,"25/09/2023 11:10:09",144247,6,"task-gjqt",NA,31849978,9416694,NA,"complete","nqpqfy","3OS46CRSLLYPQJHENJ0KKTSX0CB6VC","computer","Desktop or Laptop","Windows 10","Chrome 116.0.0.0","1366x691","1366x574",NA,NA,0,"BIQ (Charlotte)",3,"ABJCIDHEGF","Passed AC2","","Spreadsheet1",1,"BIQ","Screen 2","o21mwi",2,"response","5",1626.91,4348.263,4355.39,1626.91,4348.263,4355.39,1,1626.91,2728.48,0,NA,"Rating Scale","Rating Scale",2,"object-259","BIQ",NA,"SUPAMT56870"
"9",1695669009846,"25/09/2023 19:10:09",1695654609846,-4,"25/09/2023 11:10:09",144247,6,"task-gjqt",NA,31849978,9416694,NA,"complete","nqpqfy","3OS46CRSLLYPQJHENJ0KKTSX0CB6VC","computer","Desktop or Laptop","Windows 10","Chrome 116.0.0.0","1366x691","1366x574",NA,NA,0,"BIQ (Charlotte)",3,"ABJCIDHEGF","Passed AC2","","Spreadsheet1",1,"BIQ","Screen 2","o21mwi",2,"response","3",2158.702,4348.263,4355.79000000223,2158.702,4348.263,4355.79000000223,1,2158.702,2197.08800000224,0,NA,"Rating Scale","Rating Scale",9,"object-36","BIQ",NA,"SUPAMT56870"
"10",1695669009847,"25/09/2023 19:10:09",1695654609847,-4,"25/09/2023 11:10:09",144247,6,"task-gjqt",NA,31849978,9416694,NA,"complete","nqpqfy","3OS46CRSLLYPQJHENJ0KKTSX0CB6VC","computer","Desktop or Laptop","Windows 10","Chrome 116.0.0.0","1366x691","1366x574",NA,NA,0,"BIQ (Charlotte)",3,"ABJCIDHEGF","Passed AC2","","Spreadsheet1",1,"BIQ","Screen 2","o21mwi",2,"response","4",2885.525,4348.263,4356.29000000223,2885.525,4348.263,4356.29000000223,1,2885.525,1470.76500000223,0,NA,"Rating Scale","Rating Scale",16,"object-86","BIQ",NA,"SUPAMT56870"
"11",1695669015278,"25/09/2023 19:10:15",1695654615278,-4,"25/09/2023 11:10:15",144247,6,"task-gjqt",NA,31849978,9416694,NA,"complete","nqpqfy","3OS46CRSLLYPQJHENJ0KKTSX0CB6VC","computer","Desktop or Laptop","Windows 10","Chrome 116.0.0.0","1366x691","1366x574",NA,NA,0,"BIQ (Charlotte)",3,"ABJCIDHEGF","Passed AC2","","Spreadsheet1",1,"BIQ","Screen 3","iz3the",3,"continue","",5439.32700000298,5432.684,5439.32700000298,5439.32700000298,5432.684,5439.32700000298,1,5439.32700000298,0,0,NA,"Click To Continue","Continue Button",22,"object-73","BIQ",NA,"SUPAMT56870"
"12",1695669015279,"25/09/2023 19:10:15",1695654615279,-4,"25/09/2023 11:10:15",144247,6,"task-gjqt",NA,31849978,9416694,NA,"complete","nqpqfy","3OS46CRSLLYPQJHENJ0KKTSX0CB6VC","computer","Desktop or Laptop","Windows 10","Chrome 116.0.0.0","1366x691","1366x574",NA,NA,0,"BIQ (Charlotte)",3,"ABJCIDHEGF","Passed AC2","","Spreadsheet1",1,"BIQ","Screen 3","iz3the",3,"response","5",3028.481,5432.684,5440.02700000224,3028.481,5432.684,5440.02700000224,1,3028.481,2411.54600000224,0,NA,"Rating Scale","Rating Scale",2,"object-53","BIQ",NA,"SUPAMT56870"
"13",1695669015279,"25/09/2023 19:10:15",1695654615279,-4,"25/09/2023 11:10:15",144247,6,"task-gjqt",NA,31849978,9416694,NA,"complete","nqpqfy","3OS46CRSLLYPQJHENJ0KKTSX0CB6VC","computer","Desktop or Laptop","Windows 10","Chrome 116.0.0.0","1366x691","1366x574",NA,NA,0,"BIQ (Charlotte)",3,"ABJCIDHEGF","Passed AC2","","Spreadsheet1",1,"BIQ","Screen 3","iz3the",3,"response","4",3676.936,5432.684,5440.52700000224,3676.936,5432.684,5440.52700000224,1,3676.936,1763.59100000223,0,NA,"Rating Scale","Rating Scale",9,"object-60","BIQ",NA,"SUPAMT56870"
"14",1695669015279,"25/09/2023 19:10:15",1695654615279,-4,"25/09/2023 11:10:15",144247,6,"task-gjqt",NA,31849978,9416694,NA,"complete","nqpqfy","3OS46CRSLLYPQJHENJ0KKTSX0CB6VC","computer","Desktop or Laptop","Windows 10","Chrome 116.0.0.0","1366x691","1366x574",NA,NA,0,"BIQ (Charlotte)",3,"ABJCIDHEGF","Passed AC2","","Spreadsheet1",1,"BIQ","Screen 3","iz3the",3,"response","5",4301.199,5432.684,5441.02700000224,4301.199,5432.684,5441.02700000224,1,4301.199,1139.82800000224,0,NA,"Rating Scale","Rating Scale",16,"object-67","BIQ",NA,"SUPAMT56870"
"15",1695669015281,"25/09/2023 19:10:15",1695654615281,-4,"25/09/2023 11:10:15",144247,6,"task-gjqt",NA,31849978,9416694,NA,"complete","nqpqfy","3OS46CRSLLYPQJHENJ0KKTSX0CB6VC","computer","Desktop or Laptop","Windows 10","Chrome 116.0.0.0","1366x691","1366x574",NA,NA,0,"BIQ (Charlotte)",3,"ABJCIDHEGF","Passed AC2","","Spreadsheet1",NA,"","","",NA,"5","END",NA,NA,NA,NA,NA,NA,0,NA,NA,NA,NA,"","",NA,"","",NA,"SUPAMT56870"
"16",1695669356908,"25/09/2023 19:15:56",1695654956908,-4,"25/09/2023 11:15:56",144247,6,"task-gjqt",NA,31849978,9416694,NA,"complete","nqpqfy","3OS46CRSLLYPQJHENJ0KKTSX0CB6VC","computer","Desktop or Laptop","Windows 10","Chrome 116.0.0.0","1366x691","2049x861",NA,NA,0,"BIQ (Charlotte)",3,"ABJCIDHEGF","Passed AC2","","Spreadsheet1",1,"BIQ","Screen 1","9dh6eq",1,"continue","",427638,427625.919,427638,427638,427625.919,427638,1,427638,0,0,NA,"Click To Continue","Continue Button",23,"object-48","BIQ",NA,"SUPAMT56870"
"17",1695669356910,"25/09/2023 19:15:56",1695654956910,-4,"25/09/2023 11:15:56",144247,6,"task-gjqt",NA,31849978,9416694,NA,"complete","nqpqfy","3OS46CRSLLYPQJHENJ0KKTSX0CB6VC","computer","Desktop or Laptop","Windows 10","Chrome 116.0.0.0","1366x691","2049x861",NA,NA,0,"BIQ (Charlotte)",3,"ABJCIDHEGF","Passed AC2","","Spreadsheet1",1,"BIQ","Screen 1","9dh6eq",1,"response","5",39340.268,427625.919,427642.585,39340.268,427625.919,427642.585,1,39340.268,388302.317,0,NA,"Rating Scale","Rating Scale",3,"object-5","BIQ",NA,"SUPAMT56870"
"18",1695669356911,"25/09/2023 19:15:56",1695654956911,-4,"25/09/2023 11:15:56",144247,6,"task-gjqt",NA,31849978,9416694,NA,"complete","nqpqfy","3OS46CRSLLYPQJHENJ0KKTSX0CB6VC","computer","Desktop or Laptop","Windows 10","Chrome 116.0.0.0","1366x691","2049x861",NA,NA,0,"BIQ (Charlotte)",3,"ABJCIDHEGF","Passed AC2","","Spreadsheet1",1,"BIQ","Screen 1","9dh6eq",1,"response","6",41032.74,427625.919,427642.585,41032.74,427625.919,427642.585,1,41032.74,386609.845,0,NA,"Rating Scale","Rating Scale",10,"object-18","BIQ",NA,"SUPAMT56870"
"19",1695669356911,"25/09/2023 19:15:56",1695654956911,-4,"25/09/2023 11:15:56",144247,6,"task-gjqt",NA,31849978,9416694,NA,"complete","nqpqfy","3OS46CRSLLYPQJHENJ0KKTSX0CB6VC","computer","Desktop or Laptop","Windows 10","Chrome 116.0.0.0","1366x691","2049x861",NA,NA,0,"BIQ (Charlotte)",3,"ABJCIDHEGF","Passed AC2","","Spreadsheet1",1,"BIQ","Screen 1","9dh6eq",1,"response","4",42472.631,427625.919,427642.585,42472.631,427625.919,427642.585,1,42472.631,385169.954,0,NA,"Rating Scale","Rating Scale",17,"object-80","BIQ",NA,"SUPAMT56870"
"20",1695669361029,"25/09/2023 19:16:01",1695654961029,-4,"25/09/2023 11:16:01",144247,6,"task-gjqt",NA,31849978,9416694,NA,"complete","nqpqfy","3OS46CRSLLYPQJHENJ0KKTSX0CB6VC","computer","Desktop or Laptop","Windows 10","Chrome 116.0.0.0","1366x691","2049x861",NA,NA,0,"BIQ (Charlotte)",3,"ABJCIDHEGF","Passed AC2","","Spreadsheet1",1,"BIQ","Screen 2","o21mwi",2,"continue","",4136.08199999994,4121.75699999998,4136.08199999994,4136.08199999994,4121.75699999998,4136.08199999994,1,4136.08199999994,0,0,NA,"Click To Continue","Continue Button",22,"object-50","BIQ",NA,"SUPAMT56870"
"21",1695669361030,"25/09/2023 19:16:01",1695654961030,-4,"25/09/2023 11:16:01",144247,6,"task-gjqt",NA,31849978,9416694,NA,"complete","nqpqfy","3OS46CRSLLYPQJHENJ0KKTSX0CB6VC","computer","Desktop or Laptop","Windows 10","Chrome 116.0.0.0","1366x691","2049x861",NA,NA,0,"BIQ (Charlotte)",3,"ABJCIDHEGF","Passed AC2","","Spreadsheet1",1,"BIQ","Screen 2","o21mwi",2,"response","4",2200.33400000003,4121.75699999998,4136.08199999994,2200.33400000003,4121.75699999998,4136.08199999994,1,2200.33400000003,1935.74799999991,0,NA,"Rating Scale","Rating Scale",2,"object-259","BIQ",NA,"SUPAMT56870"
"22",1695669361030,"25/09/2023 19:16:01",1695654961030,-4,"25/09/2023 11:16:01",144247,6,"task-gjqt",NA,31849978,9416694,NA,"complete","nqpqfy","3OS46CRSLLYPQJHENJ0KKTSX0CB6VC","computer","Desktop or Laptop","Windows 10","Chrome 116.0.0.0","1366x691","2049x861",NA,NA,0,"BIQ (Charlotte)",3,"ABJCIDHEGF","Passed AC2","","Spreadsheet1",1,"BIQ","Screen 2","o21mwi",2,"response","2",2913.12200000003,4121.75699999998,4136.08199999994,2913.12200000003,4121.75699999998,4136.08199999994,1,2913.12200000003,1222.9599999999,0,NA,"Rating Scale","Rating Scale",9,"object-36","BIQ",NA,"SUPAMT56870"
"23",1695669361031,"25/09/2023 19:16:01",1695654961031,-4,"25/09/2023 11:16:01",144247,6,"task-gjqt",NA,31849978,9416694,NA,"complete","nqpqfy","3OS46CRSLLYPQJHENJ0KKTSX0CB6VC","computer","Desktop or Laptop","Windows 10","Chrome 116.0.0.0","1366x691","2049x861",NA,NA,0,"BIQ (Charlotte)",3,"ABJCIDHEGF","Passed AC2","","Spreadsheet1",1,"BIQ","Screen 2","o21mwi",2,"response","3",3549.587,4121.75699999998,4136.08199999994,3549.587,4121.75699999998,4136.08199999994,1,3549.587,586.494999999937,0,NA,"Rating Scale","Rating Scale",16,"object-86","BIQ",NA,"SUPAMT56870"
"24",1695669364182,"25/09/2023 19:16:04",1695654964182,-4,"25/09/2023 11:16:04",144247,6,"task-gjqt",NA,31849978,9416694,NA,"complete","nqpqfy","3OS46CRSLLYPQJHENJ0KKTSX0CB6VC","computer","Desktop or Laptop","Windows 10","Chrome 116.0.0.0","1366x691","2049x861",NA,NA,0,"BIQ (Charlotte)",3,"ABJCIDHEGF","Passed AC2","","Spreadsheet1",1,"BIQ","Screen 3","iz3the",3,"continue","",3169.82400000002,3160.99700000003,3169.82400000002,3169.82400000002,3160.99700000003,3169.82400000002,1,3169.82400000002,0,0,NA,"Click To Continue","Continue Button",22,"object-73","BIQ",NA,"SUPAMT56870"
"25",1695669364183,"25/09/2023 19:16:04",1695654964183,-4,"25/09/2023 11:16:04",144247,6,"task-gjqt",NA,31849978,9416694,NA,"complete","nqpqfy","3OS46CRSLLYPQJHENJ0KKTSX0CB6VC","computer","Desktop or Laptop","Windows 10","Chrome 116.0.0.0","1366x691","2049x861",NA,NA,0,"BIQ (Charlotte)",3,"ABJCIDHEGF","Passed AC2","","Spreadsheet1",1,"BIQ","Screen 3","iz3the",3,"response","4",1253.91800000001,3160.99700000003,3170.52399999928,1253.91800000001,3160.99700000003,3170.52399999928,1,1253.91800000001,1916.60599999927,0,NA,"Rating Scale","Rating Scale",2,"object-53","BIQ",NA,"SUPAMT56870"
"26",1695669364183,"25/09/2023 19:16:04",1695654964183,-4,"25/09/2023 11:16:04",144247,6,"task-gjqt",NA,31849978,9416694,NA,"complete","nqpqfy","3OS46CRSLLYPQJHENJ0KKTSX0CB6VC","computer","Desktop or Laptop","Windows 10","Chrome 116.0.0.0","1366x691","2049x861",NA,NA,0,"BIQ (Charlotte)",3,"ABJCIDHEGF","Passed AC2","","Spreadsheet1",1,"BIQ","Screen 3","iz3the",3,"response","2",1935.71000000002,3160.99700000003,3171.02399999928,1935.71000000002,3160.99700000003,3171.02399999928,1,1935.71000000002,1235.31399999926,0,NA,"Rating Scale","Rating Scale",9,"object-60","BIQ",NA,"SUPAMT56870"
"27",1695669364184,"25/09/2023 19:16:04",1695654964184,-4,"25/09/2023 11:16:04",144247,6,"task-gjqt",NA,31849978,9416694,NA,"complete","nqpqfy","3OS46CRSLLYPQJHENJ0KKTSX0CB6VC","computer","Desktop or Laptop","Windows 10","Chrome 116.0.0.0","1366x691","2049x861",NA,NA,0,"BIQ (Charlotte)",3,"ABJCIDHEGF","Passed AC2","","Spreadsheet1",1,"BIQ","Screen 3","iz3the",3,"response","3",2493.54200000002,3160.99700000003,3171.52399999928,2493.54200000002,3160.99700000003,3171.52399999928,1,2493.54200000002,677.981999999261,0,NA,"Rating Scale","Rating Scale",16,"object-67","BIQ",NA,"SUPAMT56870"
"28",1695669364185,"25/09/2023 19:16:04",1695654964185,-4,"25/09/2023 11:16:04",144247,6,"task-gjqt",NA,31849978,9416694,NA,"complete","nqpqfy","3OS46CRSLLYPQJHENJ0KKTSX0CB6VC","computer","Desktop or Laptop","Windows 10","Chrome 116.0.0.0","1366x691","2049x861",NA,NA,0,"BIQ (Charlotte)",3,"ABJCIDHEGF","Passed AC2","","Spreadsheet1",NA,"","","",NA,"5","END",NA,NA,NA,NA,NA,NA,0,NA,NA,NA,NA,"","",NA,"","",NA,"SUPAMT56870"
"1",1695669198934,"25/09/2023 19:13:18",1695654798934,-4,"25/09/2023 11:13:18",144247,6,"task-gjqt",NA,31850353,9416720,NA,"complete","pntbgu","3VP0C6EFSMV60WN59RZTXX9K9J06MW","computer","Desktop or Laptop","Windows 10","Chrome 116.0.0.0","1366x768","1366x619",NA,NA,0,"BIQ (Charlotte)",3,"IJHAGBFCED","Passed AC2","","Spreadsheet1",NA,"","","",NA,"5","BEGIN",NA,NA,NA,NA,NA,NA,0,NA,NA,NA,NA,"","",NA,"","",NA,"SUPAMT43489"
"2",1695669224538,"25/09/2023 19:13:44",1695654824538,-4,"25/09/2023 11:13:44",144247,6,"task-gjqt",NA,31850353,9416720,NA,"complete","pntbgu","3VP0C6EFSMV60WN59RZTXX9K9J06MW","computer","Desktop or Laptop","Windows 10","Chrome 116.0.0.0","1366x768","1366x619",NA,NA,0,"BIQ (Charlotte)",3,"IJHAGBFCED","Passed AC2","","Spreadsheet1",1,"BIQ","Screen 1","9dh6eq",1,"continue","",25619.75,25593.75,25619.75,25619.75,25593.75,25619.75,1,25619.75,0,0,NA,"Click To Continue","Continue Button",23,"object-48","BIQ",NA,"SUPAMT43489"
"3",1695669224540,"25/09/2023 19:13:44",1695654824540,-4,"25/09/2023 11:13:44",144247,6,"task-gjqt",NA,31850353,9416720,NA,"complete","pntbgu","3VP0C6EFSMV60WN59RZTXX9K9J06MW","computer","Desktop or Laptop","Windows 10","Chrome 116.0.0.0","1366x768","1366x619",NA,NA,0,"BIQ (Charlotte)",3,"IJHAGBFCED","Passed AC2","","Spreadsheet1",1,"BIQ","Screen 1","9dh6eq",1,"response","5",18031.25,25593.75,25622.75,18031.25,25593.75,25622.75,1,18031.25,7591.5,0,NA,"Rating Scale","Rating Scale",3,"object-5","BIQ",NA,"SUPAMT43489"
"4",1695669224540,"25/09/2023 19:13:44",1695654824540,-4,"25/09/2023 11:13:44",144247,6,"task-gjqt",NA,31850353,9416720,NA,"complete","pntbgu","3VP0C6EFSMV60WN59RZTXX9K9J06MW","computer","Desktop or Laptop","Windows 10","Chrome 116.0.0.0","1366x768","1366x619",NA,NA,0,"BIQ (Charlotte)",3,"IJHAGBFCED","Passed AC2","","Spreadsheet1",1,"BIQ","Screen 1","9dh6eq",1,"response","3",18781.25,25593.75,25622.75,18781.25,25593.75,25622.75,1,18781.25,6841.5,0,NA,"Rating Scale","Rating Scale",10,"object-18","BIQ",NA,"SUPAMT43489"
"5",1695669224541,"25/09/2023 19:13:44",1695654824541,-4,"25/09/2023 11:13:44",144247,6,"task-gjqt",NA,31850353,9416720,NA,"complete","pntbgu","3VP0C6EFSMV60WN59RZTXX9K9J06MW","computer","Desktop or Laptop","Windows 10","Chrome 116.0.0.0","1366x768","1366x619",NA,NA,0,"BIQ (Charlotte)",3,"IJHAGBFCED","Passed AC2","","Spreadsheet1",1,"BIQ","Screen 1","9dh6eq",1,"response","6",22468.75,25593.75,25623.75,22468.75,25593.75,25623.75,1,22468.75,3155,0,NA,"Rating Scale","Rating Scale",17,"object-80","BIQ",NA,"SUPAMT43489"
"6",1695669228440,"25/09/2023 19:13:48",1695654828440,-4,"25/09/2023 11:13:48",144247,6,"task-gjqt",NA,31850353,9416720,NA,"complete","pntbgu","3VP0C6EFSMV60WN59RZTXX9K9J06MW","computer","Desktop or Laptop","Windows 10","Chrome 116.0.0.0","1366x768","1366x619",NA,NA,0,"BIQ (Charlotte)",3,"IJHAGBFCED","Passed AC2","","Spreadsheet1",1,"BIQ","Screen 2","o21mwi",2,"continue","",3929,3906.25,3929,3929,3906.25,3929,1,3929,0,0,NA,"Click To Continue","Continue Button",22,"object-50","BIQ",NA,"SUPAMT43489"
"7",1695669228441,"25/09/2023 19:13:48",1695654828441,-4,"25/09/2023 11:13:48",144247,6,"task-gjqt",NA,31850353,9416720,NA,"complete","pntbgu","3VP0C6EFSMV60WN59RZTXX9K9J06MW","computer","Desktop or Laptop","Windows 10","Chrome 116.0.0.0","1366x768","1366x619",NA,NA,0,"BIQ (Charlotte)",3,"IJHAGBFCED","Passed AC2","","Spreadsheet1",1,"BIQ","Screen 2","o21mwi",2,"response","6",3250,3906.25,3930,3250,3906.25,3930,1,3250,680,0,NA,"Rating Scale","Rating Scale",2,"object-259","BIQ",NA,"SUPAMT43489"
"8",1695669228441,"25/09/2023 19:13:48",1695654828441,-4,"25/09/2023 11:13:48",144247,6,"task-gjqt",NA,31850353,9416720,NA,"complete","pntbgu","3VP0C6EFSMV60WN59RZTXX9K9J06MW","computer","Desktop or Laptop","Windows 10","Chrome 116.0.0.0","1366x768","1366x619",NA,NA,0,"BIQ (Charlotte)",3,"IJHAGBFCED","Passed AC2","","Spreadsheet1",1,"BIQ","Screen 2","o21mwi",2,"response","7",2750,3906.25,3930,2750,3906.25,3930,1,2750,1180,0,NA,"Rating Scale","Rating Scale",9,"object-36","BIQ",NA,"SUPAMT43489"
"9",1695669228442,"25/09/2023 19:13:48",1695654828442,-4,"25/09/2023 11:13:48",144247,6,"task-gjqt",NA,31850353,9416720,NA,"complete","pntbgu","3VP0C6EFSMV60WN59RZTXX9K9J06MW","computer","Desktop or Laptop","Windows 10","Chrome 116.0.0.0","1366x768","1366x619",NA,NA,0,"BIQ (Charlotte)",3,"IJHAGBFCED","Passed AC2","","Spreadsheet1",1,"BIQ","Screen 2","o21mwi",2,"response","4",1968.75,3906.25,3931,1968.75,3906.25,3931,1,1968.75,1962.25,0,NA,"Rating Scale","Rating Scale",16,"object-86","BIQ",NA,"SUPAMT43489"
"10",1695669233599,"25/09/2023 19:13:53",1695654833599,-4,"25/09/2023 11:13:53",144247,6,"task-gjqt",NA,31850353,9416720,NA,"complete","pntbgu","3VP0C6EFSMV60WN59RZTXX9K9J06MW","computer","Desktop or Laptop","Windows 10","Chrome 116.0.0.0","1366x768","1366x619",NA,NA,0,"BIQ (Charlotte)",3,"IJHAGBFCED","Passed AC2","","Spreadsheet1",1,"BIQ","Screen 3","iz3the",3,"continue","",5180.75,5156.25,5180.75,5180.75,5156.25,5180.75,1,5180.75,0,0,NA,"Click To Continue","Continue Button",22,"object-73","BIQ",NA,"SUPAMT43489"
"11",1695669233599,"25/09/2023 19:13:53",1695654833599,-4,"25/09/2023 11:13:53",144247,6,"task-gjqt",NA,31850353,9416720,NA,"complete","pntbgu","3VP0C6EFSMV60WN59RZTXX9K9J06MW","computer","Desktop or Laptop","Windows 10","Chrome 116.0.0.0","1366x768","1366x619",NA,NA,0,"BIQ (Charlotte)",3,"IJHAGBFCED","Passed AC2","","Spreadsheet1",1,"BIQ","Screen 3","iz3the",3,"response","7",3562.5,5156.25,5181.75,3562.5,5156.25,5181.75,1,3562.5,1619.25,0,NA,"Rating Scale","Rating Scale",2,"object-53","BIQ",NA,"SUPAMT43489"
"12",1695669233600,"25/09/2023 19:13:53",1695654833600,-4,"25/09/2023 11:13:53",144247,6,"task-gjqt",NA,31850353,9416720,NA,"complete","pntbgu","3VP0C6EFSMV60WN59RZTXX9K9J06MW","computer","Desktop or Laptop","Windows 10","Chrome 116.0.0.0","1366x768","1366x619",NA,NA,0,"BIQ (Charlotte)",3,"IJHAGBFCED","Passed AC2","","Spreadsheet1",1,"BIQ","Screen 3","iz3the",3,"response","6",4343.75,5156.25,5182.75,4343.75,5156.25,5182.75,1,4343.75,839,0,NA,"Rating Scale","Rating Scale",9,"object-60","BIQ",NA,"SUPAMT43489"
"13",1695669233600,"25/09/2023 19:13:53",1695654833600,-4,"25/09/2023 11:13:53",144247,6,"task-gjqt",NA,31850353,9416720,NA,"complete","pntbgu","3VP0C6EFSMV60WN59RZTXX9K9J06MW","computer","Desktop or Laptop","Windows 10","Chrome 116.0.0.0","1366x768","1366x619",NA,NA,0,"BIQ (Charlotte)",3,"IJHAGBFCED","Passed AC2","","Spreadsheet1",1,"BIQ","Screen 3","iz3the",3,"response","4",2187.5,5156.25,5182.75,2187.5,5156.25,5182.75,1,2187.5,2995.25,0,NA,"Rating Scale","Rating Scale",16,"object-67","BIQ",NA,"SUPAMT43489"
"14",1695669233602,"25/09/2023 19:13:53",1695654833602,-4,"25/09/2023 11:13:53",144247,6,"task-gjqt",NA,31850353,9416720,NA,"complete","pntbgu","3VP0C6EFSMV60WN59RZTXX9K9J06MW","computer","Desktop or Laptop","Windows 10","Chrome 116.0.0.0","1366x768","1366x619",NA,NA,0,"BIQ (Charlotte)",3,"IJHAGBFCED","Passed AC2","","Spreadsheet1",NA,"","","",NA,"5","END",NA,NA,NA,NA,NA,NA,0,NA,NA,NA,NA,"","",NA,"","",NA,"SUPAMT43489"
"1",1695669375573,"25/09/2023 19:16:15",1695654975573,-4,"25/09/2023 11:16:15",144247,6,"task-gjqt",NA,31850663,9416699,NA,"complete","sebjfh","3HPZF4IVNSSVAULK2L07DSO1EFOYC5","computer","Desktop or Laptop","Windows 10","Chrome 114.0.0.0","1366x768","1366x625",NA,NA,0,"BIQ (Charlotte)",3,"CDBEAFJGIH","Passed AC2","","Spreadsheet1",NA,"","","",NA,"5","BEGIN",NA,NA,NA,NA,NA,NA,0,NA,NA,NA,NA,"","",NA,"","",NA,"SUPAMT46587"
"2",1695669386309,"25/09/2023 19:16:26",1695654986309,-4,"25/09/2023 11:16:26",144247,6,"task-gjqt",NA,31850663,9416699,NA,"complete","sebjfh","3HPZF4IVNSSVAULK2L07DSO1EFOYC5","computer","Desktop or Laptop","Windows 10","Chrome 114.0.0.0","1366x768","1366x625",NA,NA,0,"BIQ (Charlotte)",3,"CDBEAFJGIH","Passed AC2","","Spreadsheet1",1,"BIQ","Screen 1","9dh6eq",1,"continue","",10749.397,10738.989,10749.397,10749.397,10738.989,10749.397,1,10749.397,0,0,NA,"Click To Continue","Continue Button",23,"object-48","BIQ",NA,"SUPAMT46587"
"3",1695669386314,"25/09/2023 19:16:26",1695654986314,-4,"25/09/2023 11:16:26",144247,6,"task-gjqt",NA,31850663,9416699,NA,"complete","sebjfh","3HPZF4IVNSSVAULK2L07DSO1EFOYC5","computer","Desktop or Laptop","Windows 10","Chrome 114.0.0.0","1366x768","1366x625",NA,NA,0,"BIQ (Charlotte)",3,"CDBEAFJGIH","Passed AC2","","Spreadsheet1",1,"BIQ","Screen 1","9dh6eq",1,"response","3",3348.797,10738.989,10755.2969996185,3348.797,10738.989,10755.2969996185,1,3348.797,7406.49999961853,0,NA,"Rating Scale","Rating Scale",3,"object-5","BIQ",NA,"SUPAMT46587"
"4",1695669386314,"25/09/2023 19:16:26",1695654986314,-4,"25/09/2023 11:16:26",144247,6,"task-gjqt",NA,31850663,9416699,NA,"complete","sebjfh","3HPZF4IVNSSVAULK2L07DSO1EFOYC5","computer","Desktop or Laptop","Windows 10","Chrome 114.0.0.0","1366x768","1366x625",NA,NA,0,"BIQ (Charlotte)",3,"CDBEAFJGIH","Passed AC2","","Spreadsheet1",1,"BIQ","Screen 1","9dh6eq",1,"response","4",5040.65,10738.989,10755.655,5040.65,10738.989,10755.655,1,5040.65,5715.005,0,NA,"Rating Scale","Rating Scale",10,"object-18","BIQ",NA,"SUPAMT46587"
"5",1695669386315,"25/09/2023 19:16:26",1695654986315,-4,"25/09/2023 11:16:26",144247,6,"task-gjqt",NA,31850663,9416699,NA,"complete","sebjfh","3HPZF4IVNSSVAULK2L07DSO1EFOYC5","computer","Desktop or Laptop","Windows 10","Chrome 114.0.0.0","1366x768","1366x625",NA,NA,0,"BIQ (Charlotte)",3,"CDBEAFJGIH","Passed AC2","","Spreadsheet1",1,"BIQ","Screen 1","9dh6eq",1,"response","2",8586.138,10738.989,10755.655,8586.138,10738.989,10755.655,1,8586.138,2169.517,0,NA,"Rating Scale","Rating Scale",17,"object-80","BIQ",NA,"SUPAMT46587"
"6",1695669390744,"25/09/2023 19:16:30",1695654990744,-4,"25/09/2023 11:16:30",144247,6,"task-gjqt",NA,31850663,9416699,NA,"complete","sebjfh","3HPZF4IVNSSVAULK2L07DSO1EFOYC5","computer","Desktop or Laptop","Windows 10","Chrome 114.0.0.0","1366x768","1366x625",NA,NA,0,"BIQ (Charlotte)",3,"CDBEAFJGIH","Passed AC2","","Spreadsheet1",1,"BIQ","Screen 2","o21mwi",2,"continue","",4444.976,4428.31,4444.976,4444.976,4428.31,4444.976,1,4444.976,0,0,NA,"Click To Continue","Continue Button",22,"object-50","BIQ",NA,"SUPAMT46587"
"7",1695669390744,"25/09/2023 19:16:30",1695654990744,-4,"25/09/2023 11:16:30",144247,6,"task-gjqt",NA,31850663,9416699,NA,"complete","sebjfh","3HPZF4IVNSSVAULK2L07DSO1EFOYC5","computer","Desktop or Laptop","Windows 10","Chrome 114.0.0.0","1366x768","1366x625",NA,NA,0,"BIQ (Charlotte)",3,"CDBEAFJGIH","Passed AC2","","Spreadsheet1",1,"BIQ","Screen 2","o21mwi",2,"response","4",2012.182,4428.31,4444.976,2012.182,4428.31,4444.976,1,2012.182,2432.794,0,NA,"Rating Scale","Rating Scale",2,"object-259","BIQ",NA,"SUPAMT46587"
"8",1695669390745,"25/09/2023 19:16:30",1695654990745,-4,"25/09/2023 11:16:30",144247,6,"task-gjqt",NA,31850663,9416699,NA,"complete","sebjfh","3HPZF4IVNSSVAULK2L07DSO1EFOYC5","computer","Desktop or Laptop","Windows 10","Chrome 114.0.0.0","1366x768","1366x625",NA,NA,0,"BIQ (Charlotte)",3,"CDBEAFJGIH","Passed AC2","","Spreadsheet1",1,"BIQ","Screen 2","o21mwi",2,"response","6",2987.852,4428.31,4444.976,2987.852,4428.31,4444.976,1,2987.852,1457.124,0,NA,"Rating Scale","Rating Scale",9,"object-36","BIQ",NA,"SUPAMT46587"
"9",1695669390746,"25/09/2023 19:16:30",1695654990746,-4,"25/09/2023 11:16:30",144247,6,"task-gjqt",NA,31850663,9416699,NA,"complete","sebjfh","3HPZF4IVNSSVAULK2L07DSO1EFOYC5","computer","Desktop or Laptop","Windows 10","Chrome 114.0.0.0","1366x768","1366x625",NA,NA,0,"BIQ (Charlotte)",3,"CDBEAFJGIH","Passed AC2","","Spreadsheet1",1,"BIQ","Screen 2","o21mwi",2,"response","5",3770.661,4428.31,4444.976,3770.661,4428.31,4444.976,1,3770.661,674.314999999995,0,NA,"Rating Scale","Rating Scale",16,"object-86","BIQ",NA,"SUPAMT46587"
