"Event.Index","UTC.Timestamp","UTC.Date.and.Time","Local.Timestamp","Local.Timezone","Local.Date.and.Time","Experiment.ID","Experiment.Version","Tree.Node.Key","Repeat.Key","Schedule.ID","Participant.Private.ID","Participant.Starting.Group","Participant.Status","Participant.Completion.Code","Participant.External.Session.ID","Participant.Device.Type","Participant.Device","Participant.OS","Participant.Browser","Participant.Monitor.Size","Participant.Viewport.Size","Checkpoint","Room.ID","Room.Order","Task.Name","Task.Version","branch.ln1a","randomiser.vzsr","branch.hkzp","randomiser.ywar","randomiser.q6ah","order.ot79","randomiser.ahe2","randomiser.ckhi","randomiser.lqqr","randomiser.pobd","randomiser.8gdj","Spreadsheet","Current.Spreadsheet","Trial.Number","Display","Screen","Screen.ID","Screen.Counter","Response.Type","Response","Onset.Time","Clock.Time","Reaction.Time","Absolute.Onset.Time","Absolute.Clock.Time","Absolute.Reaction.Time","Correct","Response.Onset","Response.Duration","Proportion","Tag","Component.Name","Object.Name","Object.Number","Object.ID","Spreadsheet..display","Spreadsheet..stimulus","Manipulation..Spreadsheet","Random_ID"
"1",1689006994865,"10/07/2023 16:36:34",1689010594865,1,"10/07/2023 18:36:34",137495,33,"task-71ex",NA,30600265,9085468,NA,"complete",NA,NA,"computer","Desktop or Laptop","Windows 10","Chrome 114.0.0.0","1280x720","1280x720",NA,NA,NA,"JV Task P1",8,"Anxious",NA,"In",NA,NA,"CDBEAFKGJHI",NA,NA,"B (MDot First)",2,213,"SS1","SS1",NA,"","","",NA,"5","BEGIN",NA,NA,NA,NA,NA,NA,0,NA,NA,NA,NA,"","",NA,"","","",NA,"SUPTM50909"
"2",1689006998617,"10/07/2023 16:36:38",1689010598617,1,"10/07/2023 18:36:38",137495,33,"task-71ex",NA,30600265,9085468,NA,"complete",NA,NA,"computer","Desktop or Laptop","Windows 10","Chrome 114.0.0.0","1280x720","1280x720",NA,NA,NA,"JV Task P1",8,"Anxious",NA,"In",NA,NA,"CDBEAFKGJHI",NA,NA,"B (MDot First)",2,213,"SS1","SS1",1,"J","Judginess","w2ir4b",1,"continue","",3120.36600014305,3114.297,3120.36600014305,3120.36600014305,3114.297,3120.36600014305,1,3120.36600014305,0,0,NA,"Click To Continue","Continue Button",1,"object-14","J","CFD-AF-233-190-N.jpg",NA,"SUPTM50909"
"3",1689006998617,"10/07/2023 16:36:38",1689010598617,1,"10/07/2023 18:36:38",137495,33,"task-71ex",NA,30600265,9085468,NA,"complete",NA,NA,"computer","Desktop or Laptop","Windows 10","Chrome 114.0.0.0","1280x720","1280x720",NA,NA,NA,"JV Task P1",8,"Anxious",NA,"In",NA,NA,"CDBEAFKGJHI",NA,NA,"B (MDot First)",2,213,"SS1","SS1",1,"J","Judginess","w2ir4b",1,"response","62",2414.807,3114.297,3121.06600019073,2414.807,3114.297,3121.06600019073,1,2414.807,706.259000190735,0,NA,"Slider","J",3,"object-18","J","CFD-AF-233-190-N.jpg",NA,"SUPTM50909"
"4",1689006999577,"10/07/2023 16:36:39",1689010599577,1,"10/07/2023 18:36:39",137495,33,"task-71ex",NA,30600265,9085468,NA,"complete",NA,NA,"computer","Desktop or Laptop","Windows 10","Chrome 114.0.0.0","1280x720","1280x720",NA,NA,NA,"JV Task P1",8,"Anxious",NA,"In",NA,NA,"CDBEAFKGJHI",NA,NA,"B (MDot First)",2,213,"SS1","SS1",1,"J","Fixation","mtm832",2,"continue","",966.104,966.104,966.104,966.104,966.104,966.104,1,966.104,0,0,NA,"Fixation Timing","Fixation",1,"object-65","J","CFD-AF-233-190-N.jpg",NA,"SUPTM50909"
"5",1689007002529,"10/07/2023 16:36:42",1689010602529,1,"10/07/2023 18:36:42",137495,33,"task-71ex",NA,30600265,9085468,NA,"complete",NA,NA,"computer","Desktop or Laptop","Windows 10","Chrome 114.0.0.0","1280x720","1280x720",NA,NA,NA,"JV Task P1",8,"Anxious",NA,"In",NA,NA,"CDBEAFKGJHI",NA,NA,"B (MDot First)",2,213,"SS1","SS1",1,"V","Valence","sn1sjn",1,"continue","",2952.96500014305,2947.2,2952.96500014305,2952.96500014305,2947.2,2952.96500014305,1,2952.96500014305,0,0,NA,"Click To Continue","Continue Button",1,"object-25","V","CFD-AM-225-102-H.jpeg",NA,"SUPTM50909"
"6",1689007002530,"10/07/2023 16:36:42",1689010602530,1,"10/07/2023 18:36:42",137495,33,"task-71ex",NA,30600265,9085468,NA,"complete",NA,NA,"computer","Desktop or Laptop","Windows 10","Chrome 114.0.0.0","1280x720","1280x720",NA,NA,NA,"JV Task P1",8,"Anxious",NA,"In",NA,NA,"CDBEAFKGJHI",NA,NA,"B (MDot First)",2,213,"SS1","SS1",1,"V","Valence","sn1sjn",1,"response","66",2014.779,2947.2,2953.26500009537,2014.779,2947.2,2953.26500009537,1,2014.779,938.486000095368,0,NA,"Slider","J",3,"object-27","V","CFD-AM-225-102-H.jpeg",NA,"SUPTM50909"
"7",1689007003490,"10/07/2023 16:36:43",1689010603490,1,"10/07/2023 18:36:43",137495,33,"task-71ex",NA,30600265,9085468,NA,"complete",NA,NA,"computer","Desktop or Laptop","Windows 10","Chrome 114.0.0.0","1280x720","1280x720",NA,NA,NA,"JV Task P1",8,"Anxious",NA,"In",NA,NA,"CDBEAFKGJHI",NA,NA,"B (MDot First)",2,213,"SS1","SS1",1,"V","Fixation","aydkg3",2,"continue","",965.876,965.876,965.876,965.876,965.876,965.876,1,965.876,0,0,NA,"Fixation Timing","Fixation",1,"object-21","V","CFD-AM-225-102-H.jpeg",NA,"SUPTM50909"
"8",1689007008426,"10/07/2023 16:36:48",1689010608426,1,"10/07/2023 18:36:48",137495,33,"task-71ex",NA,30600265,9085468,NA,"complete",NA,NA,"computer","Desktop or Laptop","Windows 10","Chrome 114.0.0.0","1280x720","1280x720",NA,NA,NA,"JV Task P1",8,"Anxious",NA,"In",NA,NA,"CDBEAFKGJHI",NA,NA,"B (MDot First)",2,213,"SS1","SS1",2,"J","Judginess","w2ir4b",1,"continue","",4935.98900004768,4929.287,4935.98900004768,4935.98900004768,4929.287,4935.98900004768,1,4935.98900004768,0,0,NA,"Click To Continue","Continue Button",1,"object-14","J","CFD-WF-030-002-N.jpg",NA,"SUPTM50909"
"9",1689007008429,"10/07/2023 16:36:48",1689010608429,1,"10/07/2023 18:36:48",137495,33,"task-71ex",NA,30600265,9085468,NA,"complete",NA,NA,"computer","Desktop or Laptop","Windows 10","Chrome 114.0.0.0","1280x720","1280x720",NA,NA,NA,"JV Task P1",8,"Anxious",NA,"In",NA,NA,"CDBEAFKGJHI",NA,NA,"B (MDot First)",2,213,"SS1","SS1",2,"J","Judginess","w2ir4b",1,"response","63",3980.199,4929.287,4939.88900014305,3980.199,4929.287,4939.88900014305,1,3980.199,959.690000143051,0,NA,"Slider","J",3,"object-18","J","CFD-WF-030-002-N.jpg",NA,"SUPTM50909"
"10",1689007009385,"10/07/2023 16:36:49",1689010609385,1,"10/07/2023 18:36:49",137495,33,"task-71ex",NA,30600265,9085468,NA,"complete",NA,NA,"computer","Desktop or Laptop","Windows 10","Chrome 114.0.0.0","1280x720","1280x720",NA,NA,NA,"JV Task P1",8,"Anxious",NA,"In",NA,NA,"CDBEAFKGJHI",NA,NA,"B (MDot First)",2,213,"SS1","SS1",2,"J","Fixation","mtm832",2,"continue","",965.849,965.849,965.849,965.849,965.849,965.849,1,965.849,0,0,NA,"Fixation Timing","Fixation",1,"object-65","J","CFD-WF-030-002-N.jpg",NA,"SUPTM50909"
"11",1689007014250,"10/07/2023 16:36:54",1689010614250,1,"10/07/2023 18:36:54",137495,33,"task-71ex",NA,30600265,9085468,NA,"complete",NA,NA,"computer","Desktop or Laptop","Windows 10","Chrome 114.0.0.0","1280x720","1280x720",NA,NA,NA,"JV Task P1",8,"Anxious",NA,"In",NA,NA,"CDBEAFKGJHI",NA,NA,"B (MDot First)",2,213,"SS1","SS1",2,"V","Valence","sn1sjn",1,"continue","",4864.95300019074,4862.764,4864.95300019074,4864.95300019074,4862.764,4864.95300019074,1,4864.95300019074,0,0,NA,"Click To Continue","Continue Button",1,"object-25","V","CFD-WM-019-003-S.jpeg",NA,"SUPTM50909"
"12",1689007014250,"10/07/2023 16:36:54",1689010614250,1,"10/07/2023 18:36:54",137495,33,"task-71ex",NA,30600265,9085468,NA,"complete",NA,NA,"computer","Desktop or Laptop","Windows 10","Chrome 114.0.0.0","1280x720","1280x720",NA,NA,NA,"JV Task P1",8,"Anxious",NA,"In",NA,NA,"CDBEAFKGJHI",NA,NA,"B (MDot First)",2,213,"SS1","SS1",2,"V","Valence","sn1sjn",1,"response","26",4146.825,4862.764,4865.35300004768,4146.825,4862.764,4865.35300004768,1,4146.825,718.528000047685,0,NA,"Slider","J",3,"object-27","V","CFD-WM-019-003-S.jpeg",NA,"SUPTM50909"
"13",1689007015214,"10/07/2023 16:36:55",1689010615214,1,"10/07/2023 18:36:55",137495,33,"task-71ex",NA,30600265,9085468,NA,"complete",NA,NA,"computer","Desktop or Laptop","Windows 10","Chrome 114.0.0.0","1280x720","1280x720",NA,NA,NA,"JV Task P1",8,"Anxious",NA,"In",NA,NA,"CDBEAFKGJHI",NA,NA,"B (MDot First)",2,213,"SS1","SS1",2,"V","Fixation","aydkg3",2,"continue","",966.081999999999,966.081999999999,966.081999999999,966.081999999999,966.081999999999,966.081999999999,1,966.081999999999,0,0,NA,"Fixation Timing","Fixation",1,"object-21","V","CFD-WM-019-003-S.jpeg",NA,"SUPTM50909"
"14",1689007018108,"10/07/2023 16:36:58",1689010618108,1,"10/07/2023 18:36:58",137495,33,"task-71ex",NA,30600265,9085468,NA,"complete",NA,NA,"computer","Desktop or Laptop","Windows 10","Chrome 114.0.0.0","1280x720","1280x720",NA,NA,NA,"JV Task P1",8,"Anxious",NA,"In",NA,NA,"CDBEAFKGJHI",NA,NA,"B (MDot First)",2,213,"SS1","SS1",3,"V","Valence","sn1sjn",1,"continue","",2894.10700019074,2880.94,2894.10700019074,2894.10700019074,2880.94,2894.10700019074,1,2894.10700019074,0,0,NA,"Click To Continue","Continue Button",1,"object-25","V","CFD-WM-035-032-N.jpg",NA,"SUPTM50909"
"15",1689007018108,"10/07/2023 16:36:58",1689010618108,1,"10/07/2023 18:36:58",137495,33,"task-71ex",NA,30600265,9085468,NA,"complete",NA,NA,"computer","Desktop or Laptop","Windows 10","Chrome 114.0.0.0","1280x720","1280x720",NA,NA,NA,"JV Task P1",8,"Anxious",NA,"In",NA,NA,"CDBEAFKGJHI",NA,NA,"B (MDot First)",2,213,"SS1","SS1",3,"V","Valence","sn1sjn",1,"response","31",1781.834,2880.94,2894.40700014305,1781.834,2880.94,2894.40700014305,1,1781.834,1112.57300014305,0,NA,"Slider","J",3,"object-27","V","CFD-WM-035-032-N.jpg",NA,"SUPTM50909"
"16",1689007019061,"10/07/2023 16:36:59",1689010619061,1,"10/07/2023 18:36:59",137495,33,"task-71ex",NA,30600265,9085468,NA,"complete",NA,NA,"computer","Desktop or Laptop","Windows 10","Chrome 114.0.0.0","1280x720","1280x720",NA,NA,NA,"JV Task P1",8,"Anxious",NA,"In",NA,NA,"CDBEAFKGJHI",NA,NA,"B (MDot First)",2,213,"SS1","SS1",3,"V","Fixation","aydkg3",2,"continue","",965.776999999998,965.776999999998,965.776999999998,965.776999999998,965.776999999998,965.776999999998,1,965.776999999998,0,0,NA,"Fixation Timing","Fixation",1,"object-21","V","CFD-WM-035-032-N.jpg",NA,"SUPTM50909"
"17",1689007022287,"10/07/2023 16:37:02",1689010622287,1,"10/07/2023 18:37:02",137495,33,"task-71ex",NA,30600265,9085468,NA,"complete",NA,NA,"computer","Desktop or Laptop","Windows 10","Chrome 114.0.0.0","1280x720","1280x720",NA,NA,NA,"JV Task P1",8,"Anxious",NA,"In",NA,NA,"CDBEAFKGJHI",NA,NA,"B (MDot First)",2,213,"SS1","SS1",4,"V","Valence","sn1sjn",1,"continue","",3226.39000019074,3214.108,3226.39000019074,3226.39000019074,3214.108,3226.39000019074,1,3226.39000019074,0,0,NA,"Click To Continue","Continue Button",1,"object-25","V","CFD-WF-015-006-H.jpeg",NA,"SUPTM50909"
"18",1689007022287,"10/07/2023 16:37:02",1689010622287,1,"10/07/2023 18:37:02",137495,33,"task-71ex",NA,30600265,9085468,NA,"complete",NA,NA,"computer","Desktop or Laptop","Windows 10","Chrome 114.0.0.0","1280x720","1280x720",NA,NA,NA,"JV Task P1",8,"Anxious",NA,"In",NA,NA,"CDBEAFKGJHI",NA,NA,"B (MDot First)",2,213,"SS1","SS1",4,"V","Valence","sn1sjn",1,"response","70",2165.204,3214.108,3226.69000014305,2165.204,3214.108,3226.69000014305,1,2165.204,1061.48600014305,0,NA,"Slider","J",3,"object-27","V","CFD-WF-015-006-H.jpeg",NA,"SUPTM50909"
"19",1689007023241,"10/07/2023 16:37:03",1689010623241,1,"10/07/2023 18:37:03",137495,33,"task-71ex",NA,30600265,9085468,NA,"complete",NA,NA,"computer","Desktop or Laptop","Windows 10","Chrome 114.0.0.0","1280x720","1280x720",NA,NA,NA,"JV Task P1",8,"Anxious",NA,"In",NA,NA,"CDBEAFKGJHI",NA,NA,"B (MDot First)",2,213,"SS1","SS1",4,"V","Fixation","aydkg3",2,"continue","",965.706999999999,965.706999999999,965.706999999999,965.706999999999,965.706999999999,965.706999999999,1,965.706999999999,0,0,NA,"Fixation Timing","Fixation",1,"object-21","V","CFD-WF-015-006-H.jpeg",NA,"SUPTM50909"
"20",1689007026244,"10/07/2023 16:37:06",1689010626244,1,"10/07/2023 18:37:06",137495,33,"task-71ex",NA,30600265,9085468,NA,"complete",NA,NA,"computer","Desktop or Laptop","Windows 10","Chrome 114.0.0.0","1280x720","1280x720",NA,NA,NA,"JV Task P1",8,"Anxious",NA,"In",NA,NA,"CDBEAFKGJHI",NA,NA,"B (MDot First)",2,213,"SS1","SS1",5,"V","Valence","sn1sjn",1,"continue","",3003.57500019074,2997.874,3003.57500019074,3003.57500019074,2997.874,3003.57500019074,1,3003.57500019074,0,0,NA,"Click To Continue","Continue Button",1,"object-25","V","CFD-WM-036-031-N.jpg",NA,"SUPTM50909"
"21",1689007026244,"10/07/2023 16:37:06",1689010626244,1,"10/07/2023 18:37:06",137495,33,"task-71ex",NA,30600265,9085468,NA,"complete",NA,NA,"computer","Desktop or Laptop","Windows 10","Chrome 114.0.0.0","1280x720","1280x720",NA,NA,NA,"JV Task P1",8,"Anxious",NA,"In",NA,NA,"CDBEAFKGJHI",NA,NA,"B (MDot First)",2,213,"SS1","SS1",5,"V","Valence","sn1sjn",1,"response","38",2381.312,2997.874,3003.87500014305,2381.312,2997.874,3003.87500014305,1,2381.312,622.563000143051,0,NA,"Slider","J",3,"object-27","V","CFD-WM-036-031-N.jpg",NA,"SUPTM50909"
"22",1689007027205,"10/07/2023 16:37:07",1689010627205,1,"10/07/2023 18:37:07",137495,33,"task-71ex",NA,30600265,9085468,NA,"complete",NA,NA,"computer","Desktop or Laptop","Windows 10","Chrome 114.0.0.0","1280x720","1280x720",NA,NA,NA,"JV Task P1",8,"Anxious",NA,"In",NA,NA,"CDBEAFKGJHI",NA,NA,"B (MDot First)",2,213,"SS1","SS1",5,"V","Fixation","aydkg3",2,"continue","",966.001,966.001,966.001,966.001,966.001,966.001,1,966.001,0,0,NA,"Fixation Timing","Fixation",1,"object-21","V","CFD-WM-036-031-N.jpg",NA,"SUPTM50909"
"23",1689007029536,"10/07/2023 16:37:09",1689010629536,1,"10/07/2023 18:37:09",137495,33,"task-71ex",NA,30600265,9085468,NA,"complete",NA,NA,"computer","Desktop or Laptop","Windows 10","Chrome 114.0.0.0","1280x720","1280x720",NA,NA,NA,"JV Task P1",8,"Anxious",NA,"In",NA,NA,"CDBEAFKGJHI",NA,NA,"B (MDot First)",2,213,"SS1","SS1",6,"V","Valence","sn1sjn",1,"continue","",2332.10000004769,2330.896,2332.10000004769,2332.10000004769,2330.896,2332.10000004769,1,2332.10000004769,0,0,NA,"Click To Continue","Continue Button",1,"object-25","V","CFD-WF-006-002-H.jpeg",NA,"SUPTM50909"
"24",1689007029540,"10/07/2023 16:37:09",1689010629540,1,"10/07/2023 18:37:09",137495,33,"task-71ex",NA,30600265,9085468,NA,"complete",NA,NA,"computer","Desktop or Laptop","Windows 10","Chrome 114.0.0.0","1280x720","1280x720",NA,NA,NA,"JV Task P1",8,"Anxious",NA,"In",NA,NA,"CDBEAFKGJHI",NA,NA,"B (MDot First)",2,213,"SS1","SS1",6,"V","Valence","sn1sjn",1,"response","67",1581.538,2330.896,2336.4,1581.538,2330.896,2336.4,1,1581.538,754.862000000001,0,NA,"Slider","J",3,"object-27","V","CFD-WF-006-002-H.jpeg",NA,"SUPTM50909"
"25",1689007030502,"10/07/2023 16:37:10",1689010630502,1,"10/07/2023 18:37:10",137495,33,"task-71ex",NA,30600265,9085468,NA,"complete",NA,NA,"computer","Desktop or Laptop","Windows 10","Chrome 114.0.0.0","1280x720","1280x720",NA,NA,NA,"JV Task P1",8,"Anxious",NA,"In",NA,NA,"CDBEAFKGJHI",NA,NA,"B (MDot First)",2,213,"SS1","SS1",6,"V","Fixation","aydkg3",2,"continue","",966.042999999998,966.042999999998,966.042999999998,966.042999999998,966.042999999998,966.042999999998,1,966.042999999998,0,0,NA,"Fixation Timing","Fixation",1,"object-21","V","CFD-WF-006-002-H.jpeg",NA,"SUPTM50909"
"26",1689007032591,"10/07/2023 16:37:12",1689010632591,1,"10/07/2023 18:37:12",137495,33,"task-71ex",NA,30600265,9085468,NA,"complete",NA,NA,"computer","Desktop or Laptop","Windows 10","Chrome 114.0.0.0","1280x720","1280x720",NA,NA,NA,"JV Task P1",8,"Anxious",NA,"In",NA,NA,"CDBEAFKGJHI",NA,NA,"B (MDot First)",2,213,"SS1","SS1",7,"V","Valence","sn1sjn",1,"continue","",2089.76100019074,2081.50700000001,2089.76100019074,2089.76100019074,2081.50700000001,2089.76100019074,1,2089.76100019074,0,0,NA,"Click To Continue","Continue Button",1,"object-25","V","CFD-WF-027-003-H.jpeg",NA,"SUPTM50909"
"27",1689007032591,"10/07/2023 16:37:12",1689010632591,1,"10/07/2023 18:37:12",137495,33,"task-71ex",NA,30600265,9085468,NA,"complete",NA,NA,"computer","Desktop or Laptop","Windows 10","Chrome 114.0.0.0","1280x720","1280x720",NA,NA,NA,"JV Task P1",8,"Anxious",NA,"In",NA,NA,"CDBEAFKGJHI",NA,NA,"B (MDot First)",2,213,"SS1","SS1",7,"V","Valence","sn1sjn",1,"response","67",1465.283,2081.50700000001,2090.06100014305,1465.283,2081.50700000001,2090.06100014305,1,1465.283,624.778000143051,0,NA,"Slider","J",3,"object-27","V","CFD-WF-027-003-H.jpeg",NA,"SUPTM50909"
"28",1689007033549,"10/07/2023 16:37:13",1689010633549,1,"10/07/2023 18:37:13",137495,33,"task-71ex",NA,30600265,9085468,NA,"complete",NA,NA,"computer","Desktop or Laptop","Windows 10","Chrome 114.0.0.0","1280x720","1280x720",NA,NA,NA,"JV Task P1",8,"Anxious",NA,"In",NA,NA,"CDBEAFKGJHI",NA,NA,"B (MDot First)",2,213,"SS1","SS1",7,"V","Fixation","aydkg3",2,"continue","",965.960999999996,965.960999999996,965.960999999996,965.960999999996,965.960999999996,965.960999999996,1,965.960999999996,0,0,NA,"Fixation Timing","Fixation",1,"object-21","V","CFD-WF-027-003-H.jpeg",NA,"SUPTM50909"
"29",1689007035719,"10/07/2023 16:37:15",1689010635719,1,"10/07/2023 18:37:15",137495,33,"task-71ex",NA,30600265,9085468,NA,"complete",NA,NA,"computer","Desktop or Laptop","Windows 10","Chrome 114.0.0.0","1280x720","1280x720",NA,NA,NA,"JV Task P1",8,"Anxious",NA,"In",NA,NA,"CDBEAFKGJHI",NA,NA,"B (MDot First)",2,213,"SS1","SS1",8,"V","Valence","sn1sjn",1,"continue","",2170.493,2164.77,2170.493,2170.493,2164.77,2170.493,1,2170.493,0,0,NA,"Click To Continue","Continue Button",1,"object-25","V","CFD-WM-035-032-S.jpeg",NA,"SUPTM50909"
"30",1689007035719,"10/07/2023 16:37:15",1689010635719,1,"10/07/2023 18:37:15",137495,33,"task-71ex",NA,30600265,9085468,NA,"complete",NA,NA,"computer","Desktop or Laptop","Windows 10","Chrome 114.0.0.0","1280x720","1280x720",NA,NA,NA,"JV Task P1",8,"Anxious",NA,"In",NA,NA,"CDBEAFKGJHI",NA,NA,"B (MDot First)",2,213,"SS1","SS1",8,"V","Valence","sn1sjn",1,"response","35",1531.963,2164.77,2170.69300004769,1531.963,2164.77,2170.69300004769,1,1531.963,638.730000047683,0,NA,"Slider","J",3,"object-27","V","CFD-WM-035-032-S.jpeg",NA,"SUPTM50909"
"31",1689007036680,"10/07/2023 16:37:16",1689010636680,1,"10/07/2023 18:37:16",137495,33,"task-71ex",NA,30600265,9085468,NA,"complete",NA,NA,"computer","Desktop or Laptop","Windows 10","Chrome 114.0.0.0","1280x720","1280x720",NA,NA,NA,"JV Task P1",8,"Anxious",NA,"In",NA,NA,"CDBEAFKGJHI",NA,NA,"B (MDot First)",2,213,"SS1","SS1",8,"V","Fixation","aydkg3",2,"continue","",966.106,966.106,966.106,966.106,966.106,966.106,1,966.106,0,0,NA,"Fixation Timing","Fixation",1,"object-21","V","CFD-WM-035-032-S.jpeg",NA,"SUPTM50909"
"32",1689007039954,"10/07/2023 16:37:19",1689010639954,1,"10/07/2023 18:37:19",137495,33,"task-71ex",NA,30600265,9085468,NA,"complete",NA,NA,"computer","Desktop or Laptop","Windows 10","Chrome 114.0.0.0","1280x720","1280x720",NA,NA,NA,"JV Task P1",8,"Anxious",NA,"In",NA,NA,"CDBEAFKGJHI",NA,NA,"B (MDot First)",2,213,"SS1","SS1",3,"J","Judginess","w2ir4b",1,"continue","",3274.81700004768,3263.962,3274.81700004768,3274.81700004768,3263.962,3274.81700004768,1,3274.81700004768,0,0,NA,"Click To Continue","Continue Button",1,"object-14","J","CFD-WM-028-003-S.jpeg",NA,"SUPTM50909"
"33",1689007039960,"10/07/2023 16:37:19",1689010639960,1,"10/07/2023 18:37:19",137495,33,"task-71ex",NA,30600265,9085468,NA,"complete",NA,NA,"computer","Desktop or Laptop","Windows 10","Chrome 114.0.0.0","1280x720","1280x720",NA,NA,NA,"JV Task P1",8,"Anxious",NA,"In",NA,NA,"CDBEAFKGJHI",NA,NA,"B (MDot First)",2,213,"SS1","SS1",3,"J","Judginess","w2ir4b",1,"response","34",2431.637,3263.962,3280.21700014305,2431.637,3263.962,3280.21700014305,1,2431.637,848.580000143054,0,NA,"Slider","J",3,"object-18","J","CFD-WM-028-003-S.jpeg",NA,"SUPTM50909"
"34",1689007040910,"10/07/2023 16:37:20",1689010640910,1,"10/07/2023 18:37:20",137495,33,"task-71ex",NA,30600265,9085468,NA,"complete",NA,NA,"computer","Desktop or Laptop","Windows 10","Chrome 114.0.0.0","1280x720","1280x720",NA,NA,NA,"JV Task P1",8,"Anxious",NA,"In",NA,NA,"CDBEAFKGJHI",NA,NA,"B (MDot First)",2,213,"SS1","SS1",3,"J","Fixation","mtm832",2,"continue","",965.845000000001,965.845000000001,965.845000000001,965.845000000001,965.845000000001,965.845000000001,1,965.845000000001,0,0,NA,"Fixation Timing","Fixation",1,"object-65","J","CFD-WM-028-003-S.jpeg",NA,"SUPTM50909"
"35",1689007043168,"10/07/2023 16:37:23",1689010643168,1,"10/07/2023 18:37:23",137495,33,"task-71ex",NA,30600265,9085468,NA,"complete",NA,NA,"computer","Desktop or Laptop","Windows 10","Chrome 114.0.0.0","1280x720","1280x720",NA,NA,NA,"JV Task P1",8,"Anxious",NA,"In",NA,NA,"CDBEAFKGJHI",NA,NA,"B (MDot First)",2,213,"SS1","SS1",4,"J","Judginess","w2ir4b",1,"continue","",2258.71000009537,2248.247,2258.71000009537,2258.71000009537,2248.247,2258.71000009537,1,2258.71000009537,0,0,NA,"Click To Continue","Continue Button",1,"object-14","J","CFD-IM-695-001-H.jpeg",NA,"SUPTM50909"
"36",1689007043168,"10/07/2023 16:37:23",1689010643168,1,"10/07/2023 18:37:23",137495,33,"task-71ex",NA,30600265,9085468,NA,"complete",NA,NA,"computer","Desktop or Laptop","Windows 10","Chrome 114.0.0.0","1280x720","1280x720",NA,NA,NA,"JV Task P1",8,"Anxious",NA,"In",NA,NA,"CDBEAFKGJHI",NA,NA,"B (MDot First)",2,213,"SS1","SS1",4,"J","Judginess","w2ir4b",1,"response","80",1548.754,2248.247,2259.11000019073,1548.754,2248.247,2259.11000019073,1,1548.754,710.356000190732,0,NA,"Slider","J",3,"object-18","J","CFD-IM-695-001-H.jpeg",NA,"SUPTM50909"
"37",1689007044124,"10/07/2023 16:37:24",1689010644124,1,"10/07/2023 18:37:24",137495,33,"task-71ex",NA,30600265,9085468,NA,"complete",NA,NA,"computer","Desktop or Laptop","Windows 10","Chrome 114.0.0.0","1280x720","1280x720",NA,NA,NA,"JV Task P1",8,"Anxious",NA,"In",NA,NA,"CDBEAFKGJHI",NA,NA,"B (MDot First)",2,213,"SS1","SS1",4,"J","Fixation","mtm832",2,"continue","",965.812000000005,965.812000000005,965.812000000005,965.812000000005,965.812000000005,965.812000000005,1,965.812000000005,0,0,NA,"Fixation Timing","Fixation",1,"object-65","J","CFD-IM-695-001-H.jpeg",NA,"SUPTM50909"
"38",1689007048891,"10/07/2023 16:37:28",1689010648891,1,"10/07/2023 18:37:28",137495,33,"task-71ex",NA,30600265,9085468,NA,"complete",NA,NA,"computer","Desktop or Laptop","Windows 10","Chrome 114.0.0.0","1280x720","1280x720",NA,NA,NA,"JV Task P1",8,"Anxious",NA,"In",NA,NA,"CDBEAFKGJHI",NA,NA,"B (MDot First)",2,213,"SS1","SS1",5,"J","Judginess","w2ir4b",1,"continue","",4767.251,4762.704,4767.251,4767.251,4762.704,4767.251,1,4767.251,0,0,NA,"Click To Continue","Continue Button",1,"object-14","J","CFD-WF-006-002-N.jpg",NA,"SUPTM50909"
"39",1689007048891,"10/07/2023 16:37:28",1689010648891,1,"10/07/2023 18:37:28",137495,33,"task-71ex",NA,30600265,9085468,NA,"complete",NA,NA,"computer","Desktop or Laptop","Windows 10","Chrome 114.0.0.0","1280x720","1280x720",NA,NA,NA,"JV Task P1",8,"Anxious",NA,"In",NA,NA,"CDBEAFKGJHI",NA,NA,"B (MDot First)",2,213,"SS1","SS1",5,"J","Judginess","w2ir4b",1,"response","37",4113.21799999999,4762.704,4767.55100019073,4113.21799999999,4762.704,4767.55100019073,1,4113.21799999999,654.333000190738,0,NA,"Slider","J",3,"object-18","J","CFD-WF-006-002-N.jpg",NA,"SUPTM50909"
"40",1689007049852,"10/07/2023 16:37:29",1689010649852,1,"10/07/2023 18:37:29",137495,33,"task-71ex",NA,30600265,9085468,NA,"complete",NA,NA,"computer","Desktop or Laptop","Windows 10","Chrome 114.0.0.0","1280x720","1280x720",NA,NA,NA,"JV Task P1",8,"Anxious",NA,"In",NA,NA,"CDBEAFKGJHI",NA,NA,"B (MDot First)",2,213,"SS1","SS1",5,"J","Fixation","mtm832",2,"continue","",965.843999999997,965.843999999997,965.843999999997,965.843999999997,965.843999999997,965.843999999997,1,965.843999999997,0,0,NA,"Fixation Timing","Fixation",1,"object-65","J","CFD-WF-006-002-N.jpg",NA,"SUPTM50909"
"41",1689007055246,"10/07/2023 16:37:35",1689010655246,1,"10/07/2023 18:37:35",137495,33,"task-71ex",NA,30600265,9085468,NA,"complete",NA,NA,"computer","Desktop or Laptop","Windows 10","Chrome 114.0.0.0","1280x720","1280x720",NA,NA,NA,"JV Task P1",8,"Anxious",NA,"In",NA,NA,"CDBEAFKGJHI",NA,NA,"B (MDot First)",2,213,"SS1","SS1",9,"V","Valence","sn1sjn",1,"continue","",5394.30300014305,5378.938,5394.30300014305,5394.30300014305,5378.938,5394.30300014305,1,5394.30300014305,0,0,NA,"Click To Continue","Continue Button",1,"object-25","V","CFD-WF-009-001-H.jpeg",NA,"SUPTM50909"
"42",1689007055251,"10/07/2023 16:37:35",1689010655251,1,"10/07/2023 18:37:35",137495,33,"task-71ex",NA,30600265,9085468,NA,"complete",NA,NA,"computer","Desktop or Laptop","Windows 10","Chrome 114.0.0.0","1280x720","1280x720",NA,NA,NA,"JV Task P1",8,"Anxious",NA,"In",NA,NA,"CDBEAFKGJHI",NA,NA,"B (MDot First)",2,213,"SS1","SS1",9,"V","Valence","sn1sjn",1,"response","67",4712.593,5378.938,5395.423,4712.593,5378.938,5395.423,1,4712.593,682.830000000002,0,NA,"Slider","J",3,"object-27","V","CFD-WF-009-001-H.jpeg",NA,"SUPTM50909"
"43",1689007056197,"10/07/2023 16:37:36",1689010656197,1,"10/07/2023 18:37:36",137495,33,"task-71ex",NA,30600265,9085468,NA,"complete",NA,NA,"computer","Desktop or Laptop","Windows 10","Chrome 114.0.0.0","1280x720","1280x720",NA,NA,NA,"JV Task P1",8,"Anxious",NA,"In",NA,NA,"CDBEAFKGJHI",NA,NA,"B (MDot First)",2,213,"SS1","SS1",9,"V","Fixation","aydkg3",2,"continue","",965.692000000003,965.692000000003,965.692000000003,965.692000000003,965.692000000003,965.692000000003,1,965.692000000003,0,0,NA,"Fixation Timing","Fixation",1,"object-21","V","CFD-WF-009-001-H.jpeg",NA,"SUPTM50909"
"44",1689007060190,"10/07/2023 16:37:40",1689010660190,1,"10/07/2023 18:37:40",137495,33,"task-71ex",NA,30600265,9085468,NA,"complete",NA,NA,"computer","Desktop or Laptop","Windows 10","Chrome 114.0.0.0","1280x720","1280x720",NA,NA,NA,"JV Task P1",8,"Anxious",NA,"In",NA,NA,"CDBEAFKGJHI",NA,NA,"B (MDot First)",2,213,"SS1","SS1",6,"J","Judginess","w2ir4b",1,"continue","",3994.073,3980.494,3994.073,3994.073,3980.494,3994.073,1,3994.073,0,0,NA,"Click To Continue","Continue Button",1,"object-14","J","CFD-IF-693-172-N.jpg",NA,"SUPTM50909"
"45",1689007060191,"10/07/2023 16:37:40",1689010660191,1,"10/07/2023 18:37:40",137495,33,"task-71ex",NA,30600265,9085468,NA,"complete",NA,NA,"computer","Desktop or Laptop","Windows 10","Chrome 114.0.0.0","1280x720","1280x720",NA,NA,NA,"JV Task P1",8,"Anxious",NA,"In",NA,NA,"CDBEAFKGJHI",NA,NA,"B (MDot First)",2,213,"SS1","SS1",6,"J","Judginess","w2ir4b",1,"response","34",3347.25299999999,3980.494,3994.27300004768,3347.25299999999,3980.494,3994.27300004768,1,3347.25299999999,647.020000047691,0,NA,"Slider","J",3,"object-18","J","CFD-IF-693-172-N.jpg",NA,"SUPTM50909"
"46",1689007061143,"10/07/2023 16:37:41",1689010661143,1,"10/07/2023 18:37:41",137495,33,"task-71ex",NA,30600265,9085468,NA,"complete",NA,NA,"computer","Desktop or Laptop","Windows 10","Chrome 114.0.0.0","1280x720","1280x720",NA,NA,NA,"JV Task P1",8,"Anxious",NA,"In",NA,NA,"CDBEAFKGJHI",NA,NA,"B (MDot First)",2,213,"SS1","SS1",6,"J","Fixation","mtm832",2,"continue","",965.743000000002,965.743000000002,965.743000000002,965.743000000002,965.743000000002,965.743000000002,1,965.743000000002,0,0,NA,"Fixation Timing","Fixation",1,"object-65","J","CFD-IF-693-172-N.jpg",NA,"SUPTM50909"
"47",1689007067318,"10/07/2023 16:37:47",1689010667318,1,"10/07/2023 18:37:47",137495,33,"task-71ex",NA,30600265,9085468,NA,"complete",NA,NA,"computer","Desktop or Laptop","Windows 10","Chrome 114.0.0.0","1280x720","1280x720",NA,NA,NA,"JV Task P1",8,"Anxious",NA,"In",NA,NA,"CDBEAFKGJHI",NA,NA,"B (MDot First)",2,213,"SS1","SS1",10,"V","Valence","sn1sjn",1,"continue","",6175.23600009536,6161.31899999999,6175.23600009536,6175.23600009536,6161.31899999999,6175.23600009536,1,6175.23600009536,0,0,NA,"Click To Continue","Continue Button",1,"object-25","V","CFD-WF-039-025-N.jpg",NA,"SUPTM50909"
"48",1689007067322,"10/07/2023 16:37:47",1689010667322,1,"10/07/2023 18:37:47",137495,33,"task-71ex",NA,30600265,9085468,NA,"complete",NA,NA,"computer","Desktop or Laptop","Windows 10","Chrome 114.0.0.0","1280x720","1280x720",NA,NA,NA,"JV Task P1",8,"Anxious",NA,"In",NA,NA,"CDBEAFKGJHI",NA,NA,"B (MDot First)",2,213,"SS1","SS1",10,"V","Valence","sn1sjn",1,"response","37",5561.81899999999,6161.31899999999,6177.90299999998,5561.81899999999,6161.31899999999,6177.90299999998,1,5561.81899999999,616.083999999988,0,NA,"Slider","J",3,"object-27","V","CFD-WF-039-025-N.jpg",NA,"SUPTM50909"
"49",1689007068271,"10/07/2023 16:37:48",1689010668271,1,"10/07/2023 18:37:48",137495,33,"task-71ex",NA,30600265,9085468,NA,"complete",NA,NA,"computer","Desktop or Laptop","Windows 10","Chrome 114.0.0.0","1280x720","1280x720",NA,NA,NA,"JV Task P1",8,"Anxious",NA,"In",NA,NA,"CDBEAFKGJHI",NA,NA,"B (MDot First)",2,213,"SS1","SS1",10,"V","Fixation","aydkg3",2,"continue","",966.091,966.091,966.091,966.091,966.091,966.091,1,966.091,0,0,NA,"Fixation Timing","Fixation",1,"object-21","V","CFD-WF-039-025-N.jpg",NA,"SUPTM50909"
"50",1689007073121,"10/07/2023 16:37:53",1689010673121,1,"10/07/2023 18:37:53",137495,33,"task-71ex",NA,30600265,9085468,NA,"complete",NA,NA,"computer","Desktop or Laptop","Windows 10","Chrome 114.0.0.0","1280x720","1280x720",NA,NA,NA,"JV Task P1",8,"Anxious",NA,"In",NA,NA,"CDBEAFKGJHI",NA,NA,"B (MDot First)",2,213,"SS1","SS1",7,"J","Judginess","w2ir4b",1,"continue","",4850.72600019074,4845.8,4850.72600019074,4850.72600019074,4845.8,4850.72600019074,1,4850.72600019074,0,0,NA,"Click To Continue","Continue Button",1,"object-14","J","CFD-IF-734-108-H.jpeg",NA,"SUPTM50909"
"51",1689007073121,"10/07/2023 16:37:53",1689010673121,1,"10/07/2023 18:37:53",137495,33,"task-71ex",NA,30600265,9085468,NA,"complete",NA,NA,"computer","Desktop or Laptop","Windows 10","Chrome 114.0.0.0","1280x720","1280x720",NA,NA,NA,"JV Task P1",8,"Anxious",NA,"In",NA,NA,"CDBEAFKGJHI",NA,NA,"B (MDot First)",2,213,"SS1","SS1",7,"J","Judginess","w2ir4b",1,"response","59",2647.569,4845.8,4850.92600000001,2647.569,4845.8,4850.92600000001,1,2647.569,2203.357,0,NA,"Slider","J",3,"object-18","J","CFD-IF-734-108-H.jpeg",NA,"SUPTM50909"
"52",1689007074082,"10/07/2023 16:37:54",1689010674082,1,"10/07/2023 18:37:54",137495,33,"task-71ex",NA,30600265,9085468,NA,"complete",NA,NA,"computer","Desktop or Laptop","Windows 10","Chrome 114.0.0.0","1280x720","1280x720",NA,NA,NA,"JV Task P1",8,"Anxious",NA,"In",NA,NA,"CDBEAFKGJHI",NA,NA,"B (MDot First)",2,213,"SS1","SS1",7,"J","Fixation","mtm832",2,"continue","",965.899000000005,965.899000000005,965.899000000005,965.899000000005,965.899000000005,965.899000000005,1,965.899000000005,0,0,NA,"Fixation Timing","Fixation",1,"object-65","J","CFD-IF-734-108-H.jpeg",NA,"SUPTM50909"
"53",1689007076984,"10/07/2023 16:37:56",1689010676984,1,"10/07/2023 18:37:56",137495,33,"task-71ex",NA,30600265,9085468,NA,"complete",NA,NA,"computer","Desktop or Laptop","Windows 10","Chrome 114.0.0.0","1280x720","1280x720",NA,NA,NA,"JV Task P1",8,"Anxious",NA,"In",NA,NA,"CDBEAFKGJHI",NA,NA,"B (MDot First)",2,213,"SS1","SS1",8,"J","Judginess","w2ir4b",1,"continue","",2902.52700019073,2897.549,2902.52700019073,2902.52700019073,2897.549,2902.52700019073,1,2902.52700019073,0,0,NA,"Click To Continue","Continue Button",1,"object-14","J","CFD-WF-036-023-S.jpeg",NA,"SUPTM50909"
"54",1689007076985,"10/07/2023 16:37:56",1689010676985,1,"10/07/2023 18:37:56",137495,33,"task-71ex",NA,30600265,9085468,NA,"complete",NA,NA,"computer","Desktop or Laptop","Windows 10","Chrome 114.0.0.0","1280x720","1280x720",NA,NA,NA,"JV Task P1",8,"Anxious",NA,"In",NA,NA,"CDBEAFKGJHI",NA,NA,"B (MDot First)",2,213,"SS1","SS1",8,"J","Judginess","w2ir4b",1,"response","30",2214.97100000001,2897.549,2902.82700014305,2214.97100000001,2897.549,2902.82700014305,1,2214.97100000001,687.856000143045,0,NA,"Slider","J",3,"object-18","J","CFD-WF-036-023-S.jpeg",NA,"SUPTM50909"
"55",1689007077946,"10/07/2023 16:37:57",1689010677946,1,"10/07/2023 18:37:57",137495,33,"task-71ex",NA,30600265,9085468,NA,"complete",NA,NA,"computer","Desktop or Laptop","Windows 10","Chrome 114.0.0.0","1280x720","1280x720",NA,NA,NA,"JV Task P1",8,"Anxious",NA,"In",NA,NA,"CDBEAFKGJHI",NA,NA,"B (MDot First)",2,213,"SS1","SS1",8,"J","Fixation","mtm832",2,"continue","",965.837,965.837,965.837,965.837,965.837,965.837,1,965.837,0,0,NA,"Fixation Timing","Fixation",1,"object-65","J","CFD-WF-036-023-S.jpeg",NA,"SUPTM50909"
"56",1689007081944,"10/07/2023 16:38:01",1689010681944,1,"10/07/2023 18:38:01",137495,33,"task-71ex",NA,30600265,9085468,NA,"complete",NA,NA,"computer","Desktop or Laptop","Windows 10","Chrome 114.0.0.0","1280x720","1280x720",NA,NA,NA,"JV Task P1",8,"Anxious",NA,"In",NA,NA,"CDBEAFKGJHI",NA,NA,"B (MDot First)",2,213,"SS1","SS1",11,"V","Valence","sn1sjn",1,"continue","",3998.44100014305,3996.936,3998.44100014305,3998.44100014305,3996.936,3998.44100014305,1,3998.44100014305,0,0,NA,"Click To Continue","Continue Button",1,"object-25","V","CFD-WF-024-003-S.jpeg",NA,"SUPTM50909"
"57",1689007081944,"10/07/2023 16:38:01",1689010681944,1,"10/07/2023 18:38:01",137495,33,"task-71ex",NA,30600265,9085468,NA,"complete",NA,NA,"computer","Desktop or Laptop","Windows 10","Chrome 114.0.0.0","1280x720","1280x720",NA,NA,NA,"JV Task P1",8,"Anxious",NA,"In",NA,NA,"CDBEAFKGJHI",NA,NA,"B (MDot First)",2,213,"SS1","SS1",11,"V","Valence","sn1sjn",1,"response","32",3147.819,3996.936,3998.64100019074,3147.819,3996.936,3998.64100019074,1,3147.819,850.822000190732,0,NA,"Slider","J",3,"object-27","V","CFD-WF-024-003-S.jpeg",NA,"SUPTM50909"
"58",1689007082908,"10/07/2023 16:38:02",1689010682908,1,"10/07/2023 18:38:02",137495,33,"task-71ex",NA,30600265,9085468,NA,"complete",NA,NA,"computer","Desktop or Laptop","Windows 10","Chrome 114.0.0.0","1280x720","1280x720",NA,NA,NA,"JV Task P1",8,"Anxious",NA,"In",NA,NA,"CDBEAFKGJHI",NA,NA,"B (MDot First)",2,213,"SS1","SS1",11,"V","Fixation","aydkg3",2,"continue","",965.652000000002,965.652000000002,965.652000000002,965.652000000002,965.652000000002,965.652000000002,1,965.652000000002,0,0,NA,"Fixation Timing","Fixation",1,"object-21","V","CFD-WF-024-003-S.jpeg",NA,"SUPTM50909"
"59",1689007086815,"10/07/2023 16:38:06",1689010686815,1,"10/07/2023 18:38:06",137495,33,"task-71ex",NA,30600265,9085468,NA,"complete",NA,NA,"computer","Desktop or Laptop","Windows 10","Chrome 114.0.0.0","1280x720","1280x720",NA,NA,NA,"JV Task P1",8,"Anxious",NA,"In",NA,NA,"CDBEAFKGJHI",NA,NA,"B (MDot First)",2,213,"SS1","SS1",9,"J","Judginess","w2ir4b",1,"continue","",3908.05300019073,3897.08499999999,3908.05300019073,3908.05300019073,3897.08499999999,3908.05300019073,1,3908.05300019073,0,0,NA,"Click To Continue","Continue Button",1,"object-14","J","CFD-AM-223-138-H.jpeg",NA,"SUPTM50909"
"60",1689007086816,"10/07/2023 16:38:06",1689010686816,1,"10/07/2023 18:38:06",137495,33,"task-71ex",NA,30600265,9085468,NA,"complete",NA,NA,"computer","Desktop or Laptop","Windows 10","Chrome 114.0.0.0","1280x720","1280x720",NA,NA,NA,"JV Task P1",8,"Anxious",NA,"In",NA,NA,"CDBEAFKGJHI",NA,NA,"B (MDot First)",2,213,"SS1","SS1",9,"J","Judginess","w2ir4b",1,"response","70",3097.776,3897.08499999999,3908.253,3097.776,3897.08499999999,3908.253,1,3097.776,810.476999999999,0,NA,"Slider","J",3,"object-18","J","CFD-AM-223-138-H.jpeg",NA,"SUPTM50909"
"61",1689007087771,"10/07/2023 16:38:07",1689010687771,1,"10/07/2023 18:38:07",137495,33,"task-71ex",NA,30600265,9085468,NA,"complete",NA,NA,"computer","Desktop or Laptop","Windows 10","Chrome 114.0.0.0","1280x720","1280x720",NA,NA,NA,"JV Task P1",8,"Anxious",NA,"In",NA,NA,"CDBEAFKGJHI",NA,NA,"B (MDot First)",2,213,"SS1","SS1",9,"J","Fixation","mtm832",2,"continue","",965.65400000001,965.65400000001,965.65400000001,965.65400000001,965.65400000001,965.65400000001,1,965.65400000001,0,0,NA,"Fixation Timing","Fixation",1,"object-65","J","CFD-AM-223-138-H.jpeg",NA,"SUPTM50909"
"62",1689007090765,"10/07/2023 16:38:10",1689010690765,1,"10/07/2023 18:38:10",137495,33,"task-71ex",NA,30600265,9085468,NA,"complete",NA,NA,"computer","Desktop or Laptop","Windows 10","Chrome 114.0.0.0","1280x720","1280x720",NA,NA,NA,"JV Task P1",8,"Anxious",NA,"In",NA,NA,"CDBEAFKGJHI",NA,NA,"B (MDot First)",2,213,"SS1","SS1",12,"V","Valence","sn1sjn",1,"continue","",2995.41400009536,2981.27399999999,2995.41400009536,2995.41400009536,2981.27399999999,2995.41400009536,1,2995.41400009536,0,0,NA,"Click To Continue","Continue Button",1,"object-25","V","CFD-BM-036-003-S.jpeg",NA,"SUPTM50909"
"63",1689007090770,"10/07/2023 16:38:10",1689010690770,1,"10/07/2023 18:38:10",137495,33,"task-71ex",NA,30600265,9085468,NA,"complete",NA,NA,"computer","Desktop or Laptop","Windows 10","Chrome 114.0.0.0","1280x720","1280x720",NA,NA,NA,"JV Task P1",8,"Anxious",NA,"In",NA,NA,"CDBEAFKGJHI",NA,NA,"B (MDot First)",2,213,"SS1","SS1",12,"V","Valence","sn1sjn",1,"response","35",2331.518,2981.27399999999,2998.27299999999,2331.518,2981.27399999999,2998.27299999999,1,2331.518,666.75499999999,0,NA,"Slider","J",3,"object-27","V","CFD-BM-036-003-S.jpeg",NA,"SUPTM50909"
"64",1689007091718,"10/07/2023 16:38:11",1689010691718,1,"10/07/2023 18:38:11",137495,33,"task-71ex",NA,30600265,9085468,NA,"complete",NA,NA,"computer","Desktop or Laptop","Windows 10","Chrome 114.0.0.0","1280x720","1280x720",NA,NA,NA,"JV Task P1",8,"Anxious",NA,"In",NA,NA,"CDBEAFKGJHI",NA,NA,"B (MDot First)",2,213,"SS1","SS1",12,"V","Fixation","aydkg3",2,"continue","",965.626000000004,965.626000000004,965.626000000004,965.626000000004,965.626000000004,965.626000000004,1,965.626000000004,0,0,NA,"Fixation Timing","Fixation",1,"object-21","V","CFD-BM-036-003-S.jpeg",NA,"SUPTM50909"
"65",1689007094280,"10/07/2023 16:38:14",1689010694280,1,"10/07/2023 18:38:14",137495,33,"task-71ex",NA,30600265,9085468,NA,"complete",NA,NA,"computer","Desktop or Laptop","Windows 10","Chrome 114.0.0.0","1280x720","1280x720",NA,NA,NA,"JV Task P1",8,"Anxious",NA,"In",NA,NA,"CDBEAFKGJHI",NA,NA,"B (MDot First)",2,213,"SS1","SS1",10,"J","Judginess","w2ir4b",1,"continue","",2562.81400004769,2547.798,2562.81400004769,2562.81400004769,2547.798,2562.81400004769,1,2562.81400004769,0,0,NA,"Click To Continue","Continue Button",1,"object-14","J","CFD-BF-030-002-H.jpeg",NA,"SUPTM50909"
"66",1689007094280,"10/07/2023 16:38:14",1689010694280,1,"10/07/2023 18:38:14",137495,33,"task-71ex",NA,30600265,9085468,NA,"complete",NA,NA,"computer","Desktop or Laptop","Windows 10","Chrome 114.0.0.0","1280x720","1280x720",NA,NA,NA,"JV Task P1",8,"Anxious",NA,"In",NA,NA,"CDBEAFKGJHI",NA,NA,"B (MDot First)",2,213,"SS1","SS1",10,"J","Judginess","w2ir4b",1,"response","62",1748.50900000001,2547.798,2563.114,1748.50900000001,2547.798,2563.114,1,1748.50900000001,814.604999999996,0,NA,"Slider","J",3,"object-18","J","CFD-BF-030-002-H.jpeg",NA,"SUPTM50909"
"67",1689007095231,"10/07/2023 16:38:15",1689010695231,1,"10/07/2023 18:38:15",137495,33,"task-71ex",NA,30600265,9085468,NA,"complete",NA,NA,"computer","Desktop or Laptop","Windows 10","Chrome 114.0.0.0","1280x720","1280x720",NA,NA,NA,"JV Task P1",8,"Anxious",NA,"In",NA,NA,"CDBEAFKGJHI",NA,NA,"B (MDot First)",2,213,"SS1","SS1",10,"J","Fixation","mtm832",2,"continue","",966.096000000005,966.096000000005,966.096000000005,966.096000000005,966.096000000005,966.096000000005,1,966.096000000005,0,0,NA,"Fixation Timing","Fixation",1,"object-65","J","CFD-BF-030-002-H.jpeg",NA,"SUPTM50909"
"68",1689007100540,"10/07/2023 16:38:20",1689010700540,1,"10/07/2023 18:38:20",137495,33,"task-71ex",NA,30600265,9085468,NA,"complete",NA,NA,"computer","Desktop or Laptop","Windows 10","Chrome 114.0.0.0","1280x720","1280x720",NA,NA,NA,"JV Task P1",8,"Anxious",NA,"In",NA,NA,"CDBEAFKGJHI",NA,NA,"B (MDot First)",2,213,"SS1","SS1",11,"J","Judginess","w2ir4b",1,"continue","",5309.22,5295.66800000001,5309.22,5309.22,5295.66800000001,5309.22,1,5309.22,0,0,NA,"Click To Continue","Continue Button",1,"object-14","J","CFD-WF-006-002-H.jpeg",NA,"SUPTM50909"
"69",1689007100540,"10/07/2023 16:38:20",1689010700540,1,"10/07/2023 18:38:20",137495,33,"task-71ex",NA,30600265,9085468,NA,"complete",NA,NA,"computer","Desktop or Laptop","Windows 10","Chrome 114.0.0.0","1280x720","1280x720",NA,NA,NA,"JV Task P1",8,"Anxious",NA,"In",NA,NA,"CDBEAFKGJHI",NA,NA,"B (MDot First)",2,213,"SS1","SS1",11,"J","Judginess","w2ir4b",1,"response","67",3863.322,5295.66800000001,5309.62000009537,3863.322,5295.66800000001,5309.62000009537,1,3863.322,1446.29800009537,0,NA,"Slider","J",3,"object-18","J","CFD-WF-006-002-H.jpeg",NA,"SUPTM50909"
"70",1689007101493,"10/07/2023 16:38:21",1689010701493,1,"10/07/2023 18:38:21",137495,33,"task-71ex",NA,30600265,9085468,NA,"complete",NA,NA,"computer","Desktop or Laptop","Windows 10","Chrome 114.0.0.0","1280x720","1280x720",NA,NA,NA,"JV Task P1",8,"Anxious",NA,"In",NA,NA,"CDBEAFKGJHI",NA,NA,"B (MDot First)",2,213,"SS1","SS1",11,"J","Fixation","mtm832",2,"continue","",965.872000000003,965.872000000003,965.872000000003,965.872000000003,965.872000000003,965.872000000003,1,965.872000000003,0,0,NA,"Fixation Timing","Fixation",1,"object-65","J","CFD-WF-006-002-H.jpeg",NA,"SUPTM50909"
"71",1689007111738,"10/07/2023 16:38:31",1689010711738,1,"10/07/2023 18:38:31",137495,33,"task-71ex",NA,30600265,9085468,NA,"complete",NA,NA,"computer","Desktop or Laptop","Windows 10","Chrome 114.0.0.0","1280x720","1280x720",NA,NA,NA,"JV Task P1",8,"Anxious",NA,"In",NA,NA,"CDBEAFKGJHI",NA,NA,"B (MDot First)",2,213,"SS1","SS1",12,"J","Judginess","w2ir4b",1,"continue","",10245.68,10241.492,10245.68,10245.68,10241.492,10245.68,1,10245.68,0,0,NA,"Click To Continue","Continue Button",1,"object-14","J","CFD-WF-030-002-S.jpeg",NA,"SUPTM50909"
"72",1689007111739,"10/07/2023 16:38:31",1689010711739,1,"10/07/2023 18:38:31",137495,33,"task-71ex",NA,30600265,9085468,NA,"complete",NA,NA,"computer","Desktop or Laptop","Windows 10","Chrome 114.0.0.0","1280x720","1280x720",NA,NA,NA,"JV Task P1",8,"Anxious",NA,"In",NA,NA,"CDBEAFKGJHI",NA,NA,"B (MDot First)",2,213,"SS1","SS1",12,"J","Judginess","w2ir4b",1,"response","61",8160.01199999999,10241.492,10246.8800000477,8160.01199999999,10241.492,10246.8800000477,1,8160.01199999999,2086.86800004769,0,NA,"Slider","J",3,"object-18","J","CFD-WF-030-002-S.jpeg",NA,"SUPTM50909"
"73",1689007112701,"10/07/2023 16:38:32",1689010712701,1,"10/07/2023 18:38:32",137495,33,"task-71ex",NA,30600265,9085468,NA,"complete",NA,NA,"computer","Desktop or Laptop","Windows 10","Chrome 114.0.0.0","1280x720","1280x720",NA,NA,NA,"JV Task P1",8,"Anxious",NA,"In",NA,NA,"CDBEAFKGJHI",NA,NA,"B (MDot First)",2,213,"SS1","SS1",12,"J","Fixation","mtm832",2,"continue","",965.880999999994,965.880999999994,965.880999999994,965.880999999994,965.880999999994,965.880999999994,1,965.880999999994,0,0,NA,"Fixation Timing","Fixation",1,"object-65","J","CFD-WF-030-002-S.jpeg",NA,"SUPTM50909"
"74",1689007115337,"10/07/2023 16:38:35",1689010715337,1,"10/07/2023 18:38:35",137495,33,"task-71ex",NA,30600265,9085468,NA,"complete",NA,NA,"computer","Desktop or Laptop","Windows 10","Chrome 114.0.0.0","1280x720","1280x720",NA,NA,NA,"JV Task P1",8,"Anxious",NA,"In",NA,NA,"CDBEAFKGJHI",NA,NA,"B (MDot First)",2,213,"SS1","SS1",13,"V","Valence","sn1sjn",1,"continue","",2636.807,2630.899,2636.807,2636.807,2630.899,2636.807,1,2636.807,0,0,NA,"Click To Continue","Continue Button",1,"object-25","V","CFD-MF-315-002-H.jpeg",NA,"SUPTM50909"
"75",1689007115337,"10/07/2023 16:38:35",1689010715337,1,"10/07/2023 18:38:35",137495,33,"task-71ex",NA,30600265,9085468,NA,"complete",NA,NA,"computer","Desktop or Laptop","Windows 10","Chrome 114.0.0.0","1280x720","1280x720",NA,NA,NA,"JV Task P1",8,"Anxious",NA,"In",NA,NA,"CDBEAFKGJHI",NA,NA,"B (MDot First)",2,213,"SS1","SS1",13,"V","Valence","sn1sjn",1,"response","61",1698.477,2630.899,2637.20700009537,1698.477,2630.899,2637.20700009537,1,1698.477,938.730000095369,0,NA,"Slider","J",3,"object-27","V","CFD-MF-315-002-H.jpeg",NA,"SUPTM50909"
"76",1689007116297,"10/07/2023 16:38:36",1689010716297,1,"10/07/2023 18:38:36",137495,33,"task-71ex",NA,30600265,9085468,NA,"complete",NA,NA,"computer","Desktop or Laptop","Windows 10","Chrome 114.0.0.0","1280x720","1280x720",NA,NA,NA,"JV Task P1",8,"Anxious",NA,"In",NA,NA,"CDBEAFKGJHI",NA,NA,"B (MDot First)",2,213,"SS1","SS1",13,"V","Fixation","aydkg3",2,"continue","",966.005999999994,966.005999999994,966.005999999994,966.005999999994,966.005999999994,966.005999999994,1,966.005999999994,0,0,NA,"Fixation Timing","Fixation",1,"object-21","V","CFD-MF-315-002-H.jpeg",NA,"SUPTM50909"
"77",1689007121477,"10/07/2023 16:38:41",1689010721477,1,"10/07/2023 18:38:41",137495,33,"task-71ex",NA,30600265,9085468,NA,"complete",NA,NA,"computer","Desktop or Laptop","Windows 10","Chrome 114.0.0.0","1280x720","1280x720",NA,NA,NA,"JV Task P1",8,"Anxious",NA,"In",NA,NA,"CDBEAFKGJHI",NA,NA,"B (MDot First)",2,213,"SS1","SS1",14,"V","Valence","sn1sjn",1,"continue","",5180.10200004769,5178.993,5180.10200004769,5180.10200004769,5178.993,5180.10200004769,1,5180.10200004769,0,0,NA,"Click To Continue","Continue Button",1,"object-25","V","CFD-WF-037-029-S.jpeg",NA,"SUPTM50909"
"78",1689007121477,"10/07/2023 16:38:41",1689010721477,1,"10/07/2023 18:38:41",137495,33,"task-71ex",NA,30600265,9085468,NA,"complete",NA,NA,"computer","Desktop or Laptop","Windows 10","Chrome 114.0.0.0","1280x720","1280x720",NA,NA,NA,"JV Task P1",8,"Anxious",NA,"In",NA,NA,"CDBEAFKGJHI",NA,NA,"B (MDot First)",2,213,"SS1","SS1",14,"V","Valence","sn1sjn",1,"response","34",4446.41100000001,5178.993,5180.402,4446.41100000001,5178.993,5180.402,1,4446.41100000001,733.990999999995,0,NA,"Slider","J",3,"object-27","V","CFD-WF-037-029-S.jpeg",NA,"SUPTM50909"
"79",1689007122442,"10/07/2023 16:38:42",1689010722442,1,"10/07/2023 18:38:42",137495,33,"task-71ex",NA,30600265,9085468,NA,"complete",NA,NA,"computer","Desktop or Laptop","Windows 10","Chrome 114.0.0.0","1280x720","1280x720",NA,NA,NA,"JV Task P1",8,"Anxious",NA,"In",NA,NA,"CDBEAFKGJHI",NA,NA,"B (MDot First)",2,213,"SS1","SS1",14,"V","Fixation","aydkg3",2,"continue","",966.054999999993,966.054999999993,966.054999999993,966.054999999993,966.054999999993,966.054999999993,1,966.054999999993,0,0,NA,"Fixation Timing","Fixation",1,"object-21","V","CFD-WF-037-029-S.jpeg",NA,"SUPTM50909"
"80",1689007125835,"10/07/2023 16:38:45",1689010725835,1,"10/07/2023 18:38:45",137495,33,"task-71ex",NA,30600265,9085468,NA,"complete",NA,NA,"computer","Desktop or Laptop","Windows 10","Chrome 114.0.0.0","1280x720","1280x720",NA,NA,NA,"JV Task P1",8,"Anxious",NA,"In",NA,NA,"CDBEAFKGJHI",NA,NA,"B (MDot First)",2,213,"SS1","SS1",13,"J","Judginess","w2ir4b",1,"continue","",3392.85400000001,3380.452,3392.85400000001,3392.85400000001,3380.452,3392.85400000001,1,3392.85400000001,0,0,NA,"Click To Continue","Continue Button",1,"object-14","J","CFD-WF-009-001-S.jpeg",NA,"SUPTM50909"
"81",1689007125835,"10/07/2023 16:38:45",1689010725835,1,"10/07/2023 18:38:45",137495,33,"task-71ex",NA,30600265,9085468,NA,"complete",NA,NA,"computer","Desktop or Laptop","Windows 10","Chrome 114.0.0.0","1280x720","1280x720",NA,NA,NA,"JV Task P1",8,"Anxious",NA,"In",NA,NA,"CDBEAFKGJHI",NA,NA,"B (MDot First)",2,213,"SS1","SS1",13,"J","Judginess","w2ir4b",1,"response","67",1715.64,3380.452,3393.05400004769,1715.64,3380.452,3393.05400004769,1,1715.64,1677.41400004769,0,NA,"Slider","J",3,"object-18","J","CFD-WF-009-001-S.jpeg",NA,"SUPTM50909"
"82",1689007126789,"10/07/2023 16:38:46",1689010726789,1,"10/07/2023 18:38:46",137495,33,"task-71ex",NA,30600265,9085468,NA,"complete",NA,NA,"computer","Desktop or Laptop","Windows 10","Chrome 114.0.0.0","1280x720","1280x720",NA,NA,NA,"JV Task P1",8,"Anxious",NA,"In",NA,NA,"CDBEAFKGJHI",NA,NA,"B (MDot First)",2,213,"SS1","SS1",13,"J","Fixation","mtm832",2,"continue","",965.856999999989,965.856999999989,965.856999999989,965.856999999989,965.856999999989,965.856999999989,1,965.856999999989,0,0,NA,"Fixation Timing","Fixation",1,"object-65","J","CFD-WF-009-001-S.jpeg",NA,"SUPTM50909"
"83",1689007131730,"10/07/2023 16:38:51",1689010731730,1,"10/07/2023 18:38:51",137495,33,"task-71ex",NA,30600265,9085468,NA,"complete",NA,NA,"computer","Desktop or Laptop","Windows 10","Chrome 114.0.0.0","1280x720","1280x720",NA,NA,NA,"JV Task P1",8,"Anxious",NA,"In",NA,NA,"CDBEAFKGJHI",NA,NA,"B (MDot First)",2,213,"SS1","SS1",15,"V","Valence","sn1sjn",1,"continue","",4941.84500019075,4929.326,4941.84500019075,4941.84500019075,4929.326,4941.84500019075,1,4941.84500019075,0,0,NA,"Click To Continue","Continue Button",1,"object-25","V","CFD-WF-006-002-S.jpeg",NA,"SUPTM50909"
"84",1689007131730,"10/07/2023 16:38:51",1689010731730,1,"10/07/2023 18:38:51",137495,33,"task-71ex",NA,30600265,9085468,NA,"complete",NA,NA,"computer","Desktop or Laptop","Windows 10","Chrome 114.0.0.0","1280x720","1280x720",NA,NA,NA,"JV Task P1",8,"Anxious",NA,"In",NA,NA,"CDBEAFKGJHI",NA,NA,"B (MDot First)",2,213,"SS1","SS1",15,"V","Valence","sn1sjn",1,"response","37",4313.43500000003,4929.326,4942.14500014306,4313.43500000003,4929.326,4942.14500014306,1,4313.43500000003,628.710000143037,0,NA,"Slider","J",3,"object-27","V","CFD-WF-006-002-S.jpeg",NA,"SUPTM50909"
"85",1689007132684,"10/07/2023 16:38:52",1689010732684,1,"10/07/2023 18:38:52",137495,33,"task-71ex",NA,30600265,9085468,NA,"complete",NA,NA,"computer","Desktop or Laptop","Windows 10","Chrome 114.0.0.0","1280x720","1280x720",NA,NA,NA,"JV Task P1",8,"Anxious",NA,"In",NA,NA,"CDBEAFKGJHI",NA,NA,"B (MDot First)",2,213,"SS1","SS1",15,"V","Fixation","aydkg3",2,"continue","",965.798999999999,965.798999999999,965.798999999999,965.798999999999,965.798999999999,965.798999999999,1,965.798999999999,0,0,NA,"Fixation Timing","Fixation",1,"object-21","V","CFD-WF-006-002-S.jpeg",NA,"SUPTM50909"
"86",1689007136603,"10/07/2023 16:38:56",1689010736603,1,"10/07/2023 18:38:56",137495,33,"task-71ex",NA,30600265,9085468,NA,"complete",NA,NA,"computer","Desktop or Laptop","Windows 10","Chrome 114.0.0.0","1280x720","1280x720",NA,NA,NA,"JV Task P1",8,"Anxious",NA,"In",NA,NA,"CDBEAFKGJHI",NA,NA,"B (MDot First)",2,213,"SS1","SS1",14,"J","Judginess","w2ir4b",1,"continue","",3919.72000019075,3913.73200000002,3919.72000019075,3919.72000019075,3913.73200000002,3919.72000019075,1,3919.72000019075,0,0,NA,"Click To Continue","Continue Button",1,"object-14","J","CFD-WM-034-030-N.jpg",NA,"SUPTM50909"
"87",1689007136603,"10/07/2023 16:38:56",1689010736603,1,"10/07/2023 18:38:56",137495,33,"task-71ex",NA,30600265,9085468,NA,"complete",NA,NA,"computer","Desktop or Laptop","Windows 10","Chrome 114.0.0.0","1280x720","1280x720",NA,NA,NA,"JV Task P1",8,"Anxious",NA,"In",NA,NA,"CDBEAFKGJHI",NA,NA,"B (MDot First)",2,213,"SS1","SS1",14,"J","Judginess","w2ir4b",1,"response","41",3313.87800000003,3913.73200000002,3920.02000014306,3313.87800000003,3913.73200000002,3920.02000014306,1,3313.87800000003,606.142000143038,0,NA,"Slider","J",3,"object-18","J","CFD-WM-034-030-N.jpg",NA,"SUPTM50909"
"88",1689007137564,"10/07/2023 16:38:57",1689010737564,1,"10/07/2023 18:38:57",137495,33,"task-71ex",NA,30600265,9085468,NA,"complete",NA,NA,"computer","Desktop or Laptop","Windows 10","Chrome 114.0.0.0","1280x720","1280x720",NA,NA,NA,"JV Task P1",8,"Anxious",NA,"In",NA,NA,"CDBEAFKGJHI",NA,NA,"B (MDot First)",2,213,"SS1","SS1",14,"J","Fixation","mtm832",2,"continue","",965.986999999994,965.986999999994,965.986999999994,965.986999999994,965.986999999994,965.986999999994,1,965.986999999994,0,0,NA,"Fixation Timing","Fixation",1,"object-65","J","CFD-WM-034-030-N.jpg",NA,"SUPTM50909"
"89",1689007143385,"10/07/2023 16:39:03",1689010743385,1,"10/07/2023 18:39:03",137495,33,"task-71ex",NA,30600265,9085468,NA,"complete",NA,NA,"computer","Desktop or Laptop","Windows 10","Chrome 114.0.0.0","1280x720","1280x720",NA,NA,NA,"JV Task P1",8,"Anxious",NA,"In",NA,NA,"CDBEAFKGJHI",NA,NA,"B (MDot First)",2,213,"SS1","SS1",15,"J","Judginess","w2ir4b",1,"continue","",5822.40100004768,5811.701,5822.40100004768,5822.40100004768,5811.701,5822.40100004768,1,5822.40100004768,0,0,NA,"Click To Continue","Continue Button",1,"object-14","J","CFD-WM-031-003-N.jpg",NA,"SUPTM50909"
"90",1689007143388,"10/07/2023 16:39:03",1689010743388,1,"10/07/2023 18:39:03",137495,33,"task-71ex",NA,30600265,9085468,NA,"complete",NA,NA,"computer","Desktop or Laptop","Windows 10","Chrome 114.0.0.0","1280x720","1280x720",NA,NA,NA,"JV Task P1",8,"Anxious",NA,"In",NA,NA,"CDBEAFKGJHI",NA,NA,"B (MDot First)",2,213,"SS1","SS1",15,"J","Judginess","w2ir4b",1,"response","53",5178.84599999999,5811.701,5825.201,5178.84599999999,5811.701,5825.201,1,5178.84599999999,646.35500000001,0,NA,"Slider","J",3,"object-18","J","CFD-WM-031-003-N.jpg",NA,"SUPTM50909"
"91",1689007144341,"10/07/2023 16:39:04",1689010744341,1,"10/07/2023 18:39:04",137495,33,"task-71ex",NA,30600265,9085468,NA,"complete",NA,NA,"computer","Desktop or Laptop","Windows 10","Chrome 114.0.0.0","1280x720","1280x720",NA,NA,NA,"JV Task P1",8,"Anxious",NA,"In",NA,NA,"CDBEAFKGJHI",NA,NA,"B (MDot First)",2,213,"SS1","SS1",15,"J","Fixation","mtm832",2,"continue","",965.858999999997,965.858999999997,965.858999999997,965.858999999997,965.858999999997,965.858999999997,1,965.858999999997,0,0,NA,"Fixation Timing","Fixation",1,"object-65","J","CFD-WM-031-003-N.jpg",NA,"SUPTM50909"
"92",1689007146591,"10/07/2023 16:39:06",1689010746591,1,"10/07/2023 18:39:06",137495,33,"task-71ex",NA,30600265,9085468,NA,"complete",NA,NA,"computer","Desktop or Laptop","Windows 10","Chrome 114.0.0.0","1280x720","1280x720",NA,NA,NA,"JV Task P1",8,"Anxious",NA,"In",NA,NA,"CDBEAFKGJHI",NA,NA,"B (MDot First)",2,213,"SS1","SS1",16,"V","Valence","sn1sjn",1,"continue","",2250.24100014305,2248.12900000002,2250.24100014305,2250.24100014305,2248.12900000002,2250.24100014305,1,2250.24100014305,0,0,NA,"Click To Continue","Continue Button",1,"object-25","V","CFD-BF-040-003-S.jpeg",NA,"SUPTM50909"
"93",1689007146591,"10/07/2023 16:39:06",1689010746591,1,"10/07/2023 18:39:06",137495,33,"task-71ex",NA,30600265,9085468,NA,"complete",NA,NA,"computer","Desktop or Laptop","Windows 10","Chrome 114.0.0.0","1280x720","1280x720",NA,NA,NA,"JV Task P1",8,"Anxious",NA,"In",NA,NA,"CDBEAFKGJHI",NA,NA,"B (MDot First)",2,213,"SS1","SS1",16,"V","Valence","sn1sjn",1,"response","38",1498.57699999999,2248.12900000002,2250.54100009537,1498.57699999999,2248.12900000002,2250.54100009537,1,1498.57699999999,751.96400009538,0,NA,"Slider","J",3,"object-27","V","CFD-BF-040-003-S.jpeg",NA,"SUPTM50909"
"94",1689007147556,"10/07/2023 16:39:07",1689010747556,1,"10/07/2023 18:39:07",137495,33,"task-71ex",NA,30600265,9085468,NA,"complete",NA,NA,"computer","Desktop or Laptop","Windows 10","Chrome 114.0.0.0","1280x720","1280x720",NA,NA,NA,"JV Task P1",8,"Anxious",NA,"In",NA,NA,"CDBEAFKGJHI",NA,NA,"B (MDot First)",2,213,"SS1","SS1",16,"V","Fixation","aydkg3",2,"continue","",965.938999999984,965.938999999984,965.938999999984,965.938999999984,965.938999999984,965.938999999984,1,965.938999999984,0,0,NA,"Fixation Timing","Fixation",1,"object-21","V","CFD-BF-040-003-S.jpeg",NA,"SUPTM50909"
"95",1689007150120,"10/07/2023 16:39:10",1689010750120,1,"10/07/2023 18:39:10",137495,33,"task-71ex",NA,30600265,9085468,NA,"complete",NA,NA,"computer","Desktop or Laptop","Windows 10","Chrome 114.0.0.0","1280x720","1280x720",NA,NA,NA,"JV Task P1",8,"Anxious",NA,"In",NA,NA,"CDBEAFKGJHI",NA,NA,"B (MDot First)",2,213,"SS1","SS1",17,"V","Valence","sn1sjn",1,"continue","",2564.44,2547.774,2564.44,2564.44,2547.774,2564.44,1,2564.44,0,0,NA,"Click To Continue","Continue Button",1,"object-25","V","CFD-MM-308-001-S.jpeg",NA,"SUPTM50909"
"96",1689007150120,"10/07/2023 16:39:10",1689010750120,1,"10/07/2023 18:39:10",137495,33,"task-71ex",NA,30600265,9085468,NA,"complete",NA,NA,"computer","Desktop or Laptop","Windows 10","Chrome 114.0.0.0","1280x720","1280x720",NA,NA,NA,"JV Task P1",8,"Anxious",NA,"In",NA,NA,"CDBEAFKGJHI",NA,NA,"B (MDot First)",2,213,"SS1","SS1",17,"V","Valence","sn1sjn",1,"response","37",1798.53599999999,2547.774,2564.44,1798.53599999999,2547.774,2564.44,1,1798.53599999999,765.90400000001,0,NA,"Slider","J",3,"object-27","V","CFD-MM-308-001-S.jpeg",NA,"SUPTM50909"
"97",1689007151069,"10/07/2023 16:39:11",1689010751069,1,"10/07/2023 18:39:11",137495,33,"task-71ex",NA,30600265,9085468,NA,"complete",NA,NA,"computer","Desktop or Laptop","Windows 10","Chrome 114.0.0.0","1280x720","1280x720",NA,NA,NA,"JV Task P1",8,"Anxious",NA,"In",NA,NA,"CDBEAFKGJHI",NA,NA,"B (MDot First)",2,213,"SS1","SS1",17,"V","Fixation","aydkg3",2,"continue","",965.75,965.75,965.75,965.75,965.75,965.75,1,965.75,0,0,NA,"Fixation Timing","Fixation",1,"object-21","V","CFD-MM-308-001-S.jpeg",NA,"SUPTM50909"
"98",1689007153211,"10/07/2023 16:39:13",1689010753211,1,"10/07/2023 18:39:13",137495,33,"task-71ex",NA,30600265,9085468,NA,"complete",NA,NA,"computer","Desktop or Laptop","Windows 10","Chrome 114.0.0.0","1280x720","1280x720",NA,NA,NA,"JV Task P1",8,"Anxious",NA,"In",NA,NA,"CDBEAFKGJHI",NA,NA,"B (MDot First)",2,213,"SS1","SS1",18,"V","Valence","sn1sjn",1,"continue","",2142.44900009537,2131.81299999999,2142.44900009537,2142.44900009537,2131.81299999999,2142.44900009537,1,2142.44900009537,0,0,NA,"Click To Continue","Continue Button",1,"object-25","V","CFD-WM-001-014-N.jpg",NA,"SUPTM50909"
"99",1689007153211,"10/07/2023 16:39:13",1689010753211,1,"10/07/2023 18:39:13",137495,33,"task-71ex",NA,30600265,9085468,NA,"complete",NA,NA,"computer","Desktop or Laptop","Windows 10","Chrome 114.0.0.0","1280x720","1280x720",NA,NA,NA,"JV Task P1",8,"Anxious",NA,"In",NA,NA,"CDBEAFKGJHI",NA,NA,"B (MDot First)",2,213,"SS1","SS1",18,"V","Valence","sn1sjn",1,"response","34",1532.283,2131.81299999999,2142.84900019073,1532.283,2131.81299999999,2142.84900019073,1,1532.283,610.566000190738,0,NA,"Slider","J",3,"object-27","V","CFD-WM-001-014-N.jpg",NA,"SUPTM50909"
"100",1689007154167,"10/07/2023 16:39:14",1689010754167,1,"10/07/2023 18:39:14",137495,33,"task-71ex",NA,30600265,9085468,NA,"complete",NA,NA,"computer","Desktop or Laptop","Windows 10","Chrome 114.0.0.0","1280x720","1280x720",NA,NA,NA,"JV Task P1",8,"Anxious",NA,"In",NA,NA,"CDBEAFKGJHI",NA,NA,"B (MDot First)",2,213,"SS1","SS1",18,"V","Fixation","aydkg3",2,"continue","",965.833000000013,965.833000000013,965.833000000013,965.833000000013,965.833000000013,965.833000000013,1,965.833000000013,0,0,NA,"Fixation Timing","Fixation",1,"object-21","V","CFD-WM-001-014-N.jpg",NA,"SUPTM50909"
"101",1689007157919,"10/07/2023 16:39:17",1689010757919,1,"10/07/2023 18:39:17",137495,33,"task-71ex",NA,30600265,9085468,NA,"complete",NA,NA,"computer","Desktop or Laptop","Windows 10","Chrome 114.0.0.0","1280x720","1280x720",NA,NA,NA,"JV Task P1",8,"Anxious",NA,"In",NA,NA,"CDBEAFKGJHI",NA,NA,"B (MDot First)",2,213,"SS1","SS1",16,"J","Judginess","w2ir4b",1,"continue","",3752.90299999999,3746.69199999998,3752.90299999999,3752.90299999999,3746.69199999998,3752.90299999999,1,3752.90299999999,0,0,NA,"Click To Continue","Continue Button",1,"object-14","J","CFD-WF-027-003-N.jpg",NA,"SUPTM50909"
"102",1689007157919,"10/07/2023 16:39:17",1689010757919,1,"10/07/2023 18:39:17",137495,33,"task-71ex",NA,30600265,9085468,NA,"complete",NA,NA,"computer","Desktop or Laptop","Windows 10","Chrome 114.0.0.0","1280x720","1280x720",NA,NA,NA,"JV Task P1",8,"Anxious",NA,"In",NA,NA,"CDBEAFKGJHI",NA,NA,"B (MDot First)",2,213,"SS1","SS1",16,"J","Judginess","w2ir4b",1,"response","56",3063.98999999999,3746.69199999998,3753.20300019073,3063.98999999999,3746.69199999998,3753.20300019073,1,3063.98999999999,689.213000190735,0,NA,"Slider","J",3,"object-18","J","CFD-WF-027-003-N.jpg",NA,"SUPTM50909"
"103",1689007158879,"10/07/2023 16:39:18",1689010758879,1,"10/07/2023 18:39:18",137495,33,"task-71ex",NA,30600265,9085468,NA,"complete",NA,NA,"computer","Desktop or Laptop","Windows 10","Chrome 114.0.0.0","1280x720","1280x720",NA,NA,NA,"JV Task P1",8,"Anxious",NA,"In",NA,NA,"CDBEAFKGJHI",NA,NA,"B (MDot First)",2,213,"SS1","SS1",16,"J","Fixation","mtm832",2,"continue","",966.043000000005,966.043000000005,966.043000000005,966.043000000005,966.043000000005,966.043000000005,1,966.043000000005,0,0,NA,"Fixation Timing","Fixation",1,"object-65","J","CFD-WF-027-003-N.jpg",NA,"SUPTM50909"
"104",1689007162899,"10/07/2023 16:39:22",1689010762899,1,"10/07/2023 18:39:22",137495,33,"task-71ex",NA,30600265,9085468,NA,"complete",NA,NA,"computer","Desktop or Laptop","Windows 10","Chrome 114.0.0.0","1280x720","1280x720",NA,NA,NA,"JV Task P1",8,"Anxious",NA,"In",NA,NA,"CDBEAFKGJHI",NA,NA,"B (MDot First)",2,213,"SS1","SS1",17,"J","Judginess","w2ir4b",1,"continue","",4020.06800009537,4013.52600000001,4020.06800009537,4020.06800009537,4013.52600000001,4020.06800009537,1,4020.06800009537,0,0,NA,"Click To Continue","Continue Button",1,"object-14","J","CFD-WM-036-031-H.jpeg",NA,"SUPTM50909"
"105",1689007162899,"10/07/2023 16:39:22",1689010762899,1,"10/07/2023 18:39:22",137495,33,"task-71ex",NA,30600265,9085468,NA,"complete",NA,NA,"computer","Desktop or Laptop","Windows 10","Chrome 114.0.0.0","1280x720","1280x720",NA,NA,NA,"JV Task P1",8,"Anxious",NA,"In",NA,NA,"CDBEAFKGJHI",NA,NA,"B (MDot First)",2,213,"SS1","SS1",17,"J","Judginess","w2ir4b",1,"response","68",2165.01699999999,4013.52600000001,4020.26800014306,2165.01699999999,4013.52600000001,4020.26800014306,1,2165.01699999999,1855.25100014306,0,NA,"Slider","J",3,"object-18","J","CFD-WM-036-031-H.jpeg",NA,"SUPTM50909"
"106",1689007163858,"10/07/2023 16:39:23",1689010763858,1,"10/07/2023 18:39:23",137495,33,"task-71ex",NA,30600265,9085468,NA,"complete",NA,NA,"computer","Desktop or Laptop","Windows 10","Chrome 114.0.0.0","1280x720","1280x720",NA,NA,NA,"JV Task P1",8,"Anxious",NA,"In",NA,NA,"CDBEAFKGJHI",NA,NA,"B (MDot First)",2,213,"SS1","SS1",17,"J","Fixation","mtm832",2,"continue","",965.676000000007,965.676000000007,965.676000000007,965.676000000007,965.676000000007,965.676000000007,1,965.676000000007,0,0,NA,"Fixation Timing","Fixation",1,"object-65","J","CFD-WM-036-031-H.jpeg",NA,"SUPTM50909"
"107",1689007166535,"10/07/2023 16:39:26",1689010766535,1,"10/07/2023 18:39:26",137495,33,"task-71ex",NA,30600265,9085468,NA,"complete",NA,NA,"computer","Desktop or Laptop","Windows 10","Chrome 114.0.0.0","1280x720","1280x720",NA,NA,NA,"JV Task P1",8,"Anxious",NA,"In",NA,NA,"CDBEAFKGJHI",NA,NA,"B (MDot First)",2,213,"SS1","SS1",19,"V","Valence","sn1sjn",1,"continue","",2677.06600014304,2664.36899999998,2677.06600014304,2677.06600014304,2664.36899999998,2677.06600014304,1,2677.06600014304,0,0,NA,"Click To Continue","Continue Button",1,"object-25","V","CFD-BM-036-003-H.jpeg",NA,"SUPTM50909"
"108",1689007166540,"10/07/2023 16:39:26",1689010766540,1,"10/07/2023 18:39:26",137495,33,"task-71ex",NA,30600265,9085468,NA,"complete",NA,NA,"computer","Desktop or Laptop","Windows 10","Chrome 114.0.0.0","1280x720","1280x720",NA,NA,NA,"JV Task P1",8,"Anxious",NA,"In",NA,NA,"CDBEAFKGJHI",NA,NA,"B (MDot First)",2,213,"SS1","SS1",19,"V","Valence","sn1sjn",1,"response","68",1981.83399999997,2664.36899999998,2680.93299999996,1981.83399999997,2664.36899999998,2680.93299999996,1,1981.83399999997,699.098999999987,0,NA,"Slider","J",3,"object-27","V","CFD-BM-036-003-H.jpeg",NA,"SUPTM50909"
"109",1689007167489,"10/07/2023 16:39:27",1689010767489,1,"10/07/2023 18:39:27",137495,33,"task-71ex",NA,30600265,9085468,NA,"complete",NA,NA,"computer","Desktop or Laptop","Windows 10","Chrome 114.0.0.0","1280x720","1280x720",NA,NA,NA,"JV Task P1",8,"Anxious",NA,"In",NA,NA,"CDBEAFKGJHI",NA,NA,"B (MDot First)",2,213,"SS1","SS1",19,"V","Fixation","aydkg3",2,"continue","",965.928000000014,965.928000000014,965.928000000014,965.928000000014,965.928000000014,965.928000000014,1,965.928000000014,0,0,NA,"Fixation Timing","Fixation",1,"object-21","V","CFD-BM-036-003-H.jpeg",NA,"SUPTM50909"
"110",1689007169440,"10/07/2023 16:39:29",1689010769440,1,"10/07/2023 18:39:29",137495,33,"task-71ex",NA,30600265,9085468,NA,"complete",NA,NA,"computer","Desktop or Laptop","Windows 10","Chrome 114.0.0.0","1280x720","1280x720",NA,NA,NA,"JV Task P1",8,"Anxious",NA,"In",NA,NA,"CDBEAFKGJHI",NA,NA,"B (MDot First)",2,213,"SS1","SS1",20,"V","Valence","sn1sjn",1,"continue","",1951.26900014305,1948.492,1951.26900014305,1951.26900014305,1948.492,1951.26900014305,1,1951.26900014305,0,0,NA,"Click To Continue","Continue Button",1,"object-25","V","CFD-WM-028-003-N.jpg",NA,"SUPTM50909"
"111",1689007169440,"10/07/2023 16:39:29",1689010769440,1,"10/07/2023 18:39:29",137495,33,"task-71ex",NA,30600265,9085468,NA,"complete",NA,NA,"computer","Desktop or Laptop","Windows 10","Chrome 114.0.0.0","1280x720","1280x720",NA,NA,NA,"JV Task P1",8,"Anxious",NA,"In",NA,NA,"CDBEAFKGJHI",NA,NA,"B (MDot First)",2,213,"SS1","SS1",20,"V","Valence","sn1sjn",1,"response","40",1382.27799999999,1948.492,1951.46900019073,1382.27799999999,1948.492,1951.46900019073,1,1382.27799999999,569.191000190738,0,NA,"Slider","J",3,"object-27","V","CFD-WM-028-003-N.jpg",NA,"SUPTM50909"
"112",1689007170403,"10/07/2023 16:39:30",1689010770403,1,"10/07/2023 18:39:30",137495,33,"task-71ex",NA,30600265,9085468,NA,"complete",NA,NA,"computer","Desktop or Laptop","Windows 10","Chrome 114.0.0.0","1280x720","1280x720",NA,NA,NA,"JV Task P1",8,"Anxious",NA,"In",NA,NA,"CDBEAFKGJHI",NA,NA,"B (MDot First)",2,213,"SS1","SS1",20,"V","Fixation","aydkg3",2,"continue","",965.741000000009,965.741000000009,965.741000000009,965.741000000009,965.741000000009,965.741000000009,1,965.741000000009,0,0,NA,"Fixation Timing","Fixation",1,"object-21","V","CFD-WM-028-003-N.jpg",NA,"SUPTM50909"
"113",1689007172668,"10/07/2023 16:39:32",1689010772668,1,"10/07/2023 18:39:32",137495,33,"task-71ex",NA,30600265,9085468,NA,"complete",NA,NA,"computer","Desktop or Laptop","Windows 10","Chrome 114.0.0.0","1280x720","1280x720",NA,NA,NA,"JV Task P1",8,"Anxious",NA,"In",NA,NA,"CDBEAFKGJHI",NA,NA,"B (MDot First)",2,213,"SS1","SS1",18,"J","Judginess","w2ir4b",1,"continue","",2264.99599999998,2248.25699999998,2264.99599999998,2264.99599999998,2248.25699999998,2264.99599999998,1,2264.99599999998,0,0,NA,"Click To Continue","Continue Button",1,"object-14","J","CFD-AF-211-066-H.jpeg",NA,"SUPTM50909"
"114",1689007172668,"10/07/2023 16:39:32",1689010772668,1,"10/07/2023 18:39:32",137495,33,"task-71ex",NA,30600265,9085468,NA,"complete",NA,NA,"computer","Desktop or Laptop","Windows 10","Chrome 114.0.0.0","1280x720","1280x720",NA,NA,NA,"JV Task P1",8,"Anxious",NA,"In",NA,NA,"CDBEAFKGJHI",NA,NA,"B (MDot First)",2,213,"SS1","SS1",18,"J","Judginess","w2ir4b",1,"response","75",1449.03599999999,2248.25699999998,2264.99599999998,1449.03599999999,2248.25699999998,2264.99599999998,1,1449.03599999999,815.959999999992,0,NA,"Slider","J",3,"object-18","J","CFD-AF-211-066-H.jpeg",NA,"SUPTM50909"
"115",1689007173617,"10/07/2023 16:39:33",1689010773617,1,"10/07/2023 18:39:33",137495,33,"task-71ex",NA,30600265,9085468,NA,"complete",NA,NA,"computer","Desktop or Laptop","Windows 10","Chrome 114.0.0.0","1280x720","1280x720",NA,NA,NA,"JV Task P1",8,"Anxious",NA,"In",NA,NA,"CDBEAFKGJHI",NA,NA,"B (MDot First)",2,213,"SS1","SS1",18,"J","Fixation","mtm832",2,"continue","",965.906000000017,965.906000000017,965.906000000017,965.906000000017,965.906000000017,965.906000000017,1,965.906000000017,0,0,NA,"Fixation Timing","Fixation",1,"object-65","J","CFD-AF-211-066-H.jpeg",NA,"SUPTM50909"
"116",1689007176160,"10/07/2023 16:39:36",1689010776160,1,"10/07/2023 18:39:36",137495,33,"task-71ex",NA,30600265,9085468,NA,"complete",NA,NA,"computer","Desktop or Laptop","Windows 10","Chrome 114.0.0.0","1280x720","1280x720",NA,NA,NA,"JV Task P1",8,"Anxious",NA,"In",NA,NA,"CDBEAFKGJHI",NA,NA,"B (MDot First)",2,213,"SS1","SS1",21,"V","Valence","sn1sjn",1,"continue","",2543.57300019072,2531.42799999999,2543.57300019072,2543.57300019072,2531.42799999999,2543.57300019072,1,2543.57300019072,0,0,NA,"Click To Continue","Continue Button",1,"object-25","V","CFD-BF-029-031-H.jpeg",NA,"SUPTM50909"
"117",1689007176160,"10/07/2023 16:39:36",1689010776160,1,"10/07/2023 18:39:36",137495,33,"task-71ex",NA,30600265,9085468,NA,"complete",NA,NA,"computer","Desktop or Laptop","Windows 10","Chrome 114.0.0.0","1280x720","1280x720",NA,NA,NA,"JV Task P1",8,"Anxious",NA,"In",NA,NA,"CDBEAFKGJHI",NA,NA,"B (MDot First)",2,213,"SS1","SS1",21,"V","Valence","sn1sjn",1,"response","69",1715.10399999999,2531.42799999999,2543.87300014304,1715.10399999999,2531.42799999999,2543.87300014304,1,1715.10399999999,828.769000143046,0,NA,"Slider","J",3,"object-27","V","CFD-BF-029-031-H.jpeg",NA,"SUPTM50909"
"118",1689007177114,"10/07/2023 16:39:37",1689010777114,1,"10/07/2023 18:39:37",137495,33,"task-71ex",NA,30600265,9085468,NA,"complete",NA,NA,"computer","Desktop or Laptop","Windows 10","Chrome 114.0.0.0","1280x720","1280x720",NA,NA,NA,"JV Task P1",8,"Anxious",NA,"In",NA,NA,"CDBEAFKGJHI",NA,NA,"B (MDot First)",2,213,"SS1","SS1",21,"V","Fixation","aydkg3",2,"continue","",965.812000000005,965.812000000005,965.812000000005,965.812000000005,965.812000000005,965.812000000005,1,965.812000000005,0,0,NA,"Fixation Timing","Fixation",1,"object-21","V","CFD-BF-029-031-H.jpeg",NA,"SUPTM50909"
"119",1689007180567,"10/07/2023 16:39:40",1689010780567,1,"10/07/2023 18:39:40",137495,33,"task-71ex",NA,30600265,9085468,NA,"complete",NA,NA,"computer","Desktop or Laptop","Windows 10","Chrome 114.0.0.0","1280x720","1280x720",NA,NA,NA,"JV Task P1",8,"Anxious",NA,"In",NA,NA,"CDBEAFKGJHI",NA,NA,"B (MDot First)",2,213,"SS1","SS1",22,"V","Valence","sn1sjn",1,"continue","",3453.13300014305,3446.894,3453.13300014305,3453.13300014305,3446.894,3453.13300014305,1,3453.13300014305,0,0,NA,"Click To Continue","Continue Button",1,"object-25","V","CFD-WM-009-002-N.jpg",NA,"SUPTM50909"
"120",1689007180567,"10/07/2023 16:39:40",1689010780567,1,"10/07/2023 18:39:40",137495,33,"task-71ex",NA,30600265,9085468,NA,"complete",NA,NA,"computer","Desktop or Laptop","Windows 10","Chrome 114.0.0.0","1280x720","1280x720",NA,NA,NA,"JV Task P1",8,"Anxious",NA,"In",NA,NA,"CDBEAFKGJHI",NA,NA,"B (MDot First)",2,213,"SS1","SS1",22,"V","Valence","sn1sjn",1,"response","38",1664.95199999999,3446.894,3453.33300019073,1664.95199999999,3446.894,3453.33300019073,1,1664.95199999999,1788.38100019074,0,NA,"Slider","J",3,"object-27","V","CFD-WM-009-002-N.jpg",NA,"SUPTM50909"
"121",1689007181527,"10/07/2023 16:39:41",1689010781527,1,"10/07/2023 18:39:41",137495,33,"task-71ex",NA,30600265,9085468,NA,"complete",NA,NA,"computer","Desktop or Laptop","Windows 10","Chrome 114.0.0.0","1280x720","1280x720",NA,NA,NA,"JV Task P1",8,"Anxious",NA,"In",NA,NA,"CDBEAFKGJHI",NA,NA,"B (MDot First)",2,213,"SS1","SS1",22,"V","Fixation","aydkg3",2,"continue","",965.883999999991,965.883999999991,965.883999999991,965.883999999991,965.883999999991,965.883999999991,1,965.883999999991,0,0,NA,"Fixation Timing","Fixation",1,"object-21","V","CFD-WM-009-002-N.jpg",NA,"SUPTM50909"
"122",1689007186070,"10/07/2023 16:39:46",1689010786070,1,"10/07/2023 18:39:46",137495,33,"task-71ex",NA,30600265,9085468,NA,"complete",NA,NA,"computer","Desktop or Laptop","Windows 10","Chrome 114.0.0.0","1280x720","1280x720",NA,NA,NA,"JV Task P1",8,"Anxious",NA,"In",NA,NA,"CDBEAFKGJHI",NA,NA,"B (MDot First)",2,213,"SS1","SS1",23,"V","Valence","sn1sjn",1,"continue","",4543.755,4529.81400000001,4543.755,4543.755,4529.81400000001,4543.755,1,4543.755,0,0,NA,"Click To Continue","Continue Button",1,"object-25","V","CFD-AF-250-200-S.jpeg",NA,"SUPTM50909"
"123",1689007186071,"10/07/2023 16:39:46",1689010786071,1,"10/07/2023 18:39:46",137495,33,"task-71ex",NA,30600265,9085468,NA,"complete",NA,NA,"computer","Desktop or Laptop","Windows 10","Chrome 114.0.0.0","1280x720","1280x720",NA,NA,NA,"JV Task P1",8,"Anxious",NA,"In",NA,NA,"CDBEAFKGJHI",NA,NA,"B (MDot First)",2,213,"SS1","SS1",23,"V","Valence","sn1sjn",1,"response","20",3897.04399999999,4529.81400000001,4543.95500004769,3897.04399999999,4529.81400000001,4543.95500004769,1,3897.04399999999,646.911000047694,0,NA,"Slider","J",3,"object-27","V","CFD-AF-250-200-S.jpeg",NA,"SUPTM50909"
"124",1689007187023,"10/07/2023 16:39:47",1689010787023,1,"10/07/2023 18:39:47",137495,33,"task-71ex",NA,30600265,9085468,NA,"complete",NA,NA,"computer","Desktop or Laptop","Windows 10","Chrome 114.0.0.0","1280x720","1280x720",NA,NA,NA,"JV Task P1",8,"Anxious",NA,"In",NA,NA,"CDBEAFKGJHI",NA,NA,"B (MDot First)",2,213,"SS1","SS1",23,"V","Fixation","aydkg3",2,"continue","",965.937000000005,965.937000000005,965.937000000005,965.937000000005,965.937000000005,965.937000000005,1,965.937000000005,0,0,NA,"Fixation Timing","Fixation",1,"object-21","V","CFD-AF-250-200-S.jpeg",NA,"SUPTM50909"
"125",1689007189406,"10/07/2023 16:39:49",1689010789406,1,"10/07/2023 18:39:49",137495,33,"task-71ex",NA,30600265,9085468,NA,"complete",NA,NA,"computer","Desktop or Laptop","Windows 10","Chrome 114.0.0.0","1280x720","1280x720",NA,NA,NA,"JV Task P1",8,"Anxious",NA,"In",NA,NA,"CDBEAFKGJHI",NA,NA,"B (MDot First)",2,213,"SS1","SS1",24,"V","Valence","sn1sjn",1,"continue","",2383.50399999999,2381.18799999999,2383.50399999999,2383.50399999999,2381.18799999999,2383.50399999999,1,2383.50399999999,0,0,NA,"Click To Continue","Continue Button",1,"object-25","V","CFD-AM-220-134-N.jpg",NA,"SUPTM50909"
"126",1689007189409,"10/07/2023 16:39:49",1689010789409,1,"10/07/2023 18:39:49",137495,33,"task-71ex",NA,30600265,9085468,NA,"complete",NA,NA,"computer","Desktop or Laptop","Windows 10","Chrome 114.0.0.0","1280x720","1280x720",NA,NA,NA,"JV Task P1",8,"Anxious",NA,"In",NA,NA,"CDBEAFKGJHI",NA,NA,"B (MDot First)",2,213,"SS1","SS1",24,"V","Valence","sn1sjn",1,"response","36",1815.22099999999,2381.18799999999,2386.70400004767,1815.22099999999,2381.18799999999,2386.70400004767,1,1815.22099999999,571.48300004768,0,NA,"Slider","J",3,"object-27","V","CFD-AM-220-134-N.jpg",NA,"SUPTM50909"
"127",1689007190370,"10/07/2023 16:39:50",1689010790370,1,"10/07/2023 18:39:50",137495,33,"task-71ex",NA,30600265,9085468,NA,"complete",NA,NA,"computer","Desktop or Laptop","Windows 10","Chrome 114.0.0.0","1280x720","1280x720",NA,NA,NA,"JV Task P1",8,"Anxious",NA,"In",NA,NA,"CDBEAFKGJHI",NA,NA,"B (MDot First)",2,213,"SS1","SS1",24,"V","Fixation","aydkg3",2,"continue","",965.709000000003,965.709000000003,965.709000000003,965.709000000003,965.709000000003,965.709000000003,1,965.709000000003,0,0,NA,"Fixation Timing","Fixation",1,"object-21","V","CFD-AM-220-134-N.jpg",NA,"SUPTM50909"
"128",1689007192547,"10/07/2023 16:39:52",1689010792547,1,"10/07/2023 18:39:52",137495,33,"task-71ex",NA,30600265,9085468,NA,"complete",NA,NA,"computer","Desktop or Laptop","Windows 10","Chrome 114.0.0.0","1280x720","1280x720",NA,NA,NA,"JV Task P1",8,"Anxious",NA,"In",NA,NA,"CDBEAFKGJHI",NA,NA,"B (MDot First)",2,213,"SS1","SS1",25,"V","Valence","sn1sjn",1,"continue","",2177.50700009536,2164.94699999999,2177.50700009536,2177.50700009536,2164.94699999999,2177.50700009536,1,2177.50700009536,0,0,NA,"Click To Continue","Continue Button",1,"object-25","V","CFD-WF-011-002-S.jpeg",NA,"SUPTM50909"
"129",1689007192547,"10/07/2023 16:39:52",1689010792547,1,"10/07/2023 18:39:52",137495,33,"task-71ex",NA,30600265,9085468,NA,"complete",NA,NA,"computer","Desktop or Laptop","Windows 10","Chrome 114.0.0.0","1280x720","1280x720",NA,NA,NA,"JV Task P1",8,"Anxious",NA,"In",NA,NA,"CDBEAFKGJHI",NA,NA,"B (MDot First)",2,213,"SS1","SS1",25,"V","Valence","sn1sjn",1,"response","34",1632.32999999999,2164.94699999999,2177.80700004767,1632.32999999999,2164.94699999999,2177.80700004767,1,1632.32999999999,545.477000047686,0,NA,"Slider","J",3,"object-27","V","CFD-WF-011-002-S.jpeg",NA,"SUPTM50909"
"130",1689007193501,"10/07/2023 16:39:53",1689010793501,1,"10/07/2023 18:39:53",137495,33,"task-71ex",NA,30600265,9085468,NA,"complete",NA,NA,"computer","Desktop or Laptop","Windows 10","Chrome 114.0.0.0","1280x720","1280x720",NA,NA,NA,"JV Task P1",8,"Anxious",NA,"In",NA,NA,"CDBEAFKGJHI",NA,NA,"B (MDot First)",2,213,"SS1","SS1",25,"V","Fixation","aydkg3",2,"continue","",965.945999999996,965.945999999996,965.945999999996,965.945999999996,965.945999999996,965.945999999996,1,965.945999999996,0,0,NA,"Fixation Timing","Fixation",1,"object-21","V","CFD-WF-011-002-S.jpeg",NA,"SUPTM50909"
"131",1689007195660,"10/07/2023 16:39:55",1689010795660,1,"10/07/2023 18:39:55",137495,33,"task-71ex",NA,30600265,9085468,NA,"complete",NA,NA,"computer","Desktop or Laptop","Windows 10","Chrome 114.0.0.0","1280x720","1280x720",NA,NA,NA,"JV Task P1",8,"Anxious",NA,"In",NA,NA,"CDBEAFKGJHI",NA,NA,"B (MDot First)",2,213,"SS1","SS1",26,"V","Valence","sn1sjn",1,"continue","",2159.71400000001,2148.41899999999,2159.71400000001,2159.71400000001,2148.41899999999,2159.71400000001,1,2159.71400000001,0,0,NA,"Click To Continue","Continue Button",1,"object-25","V","CFD-IF-693-172-N.jpg",NA,"SUPTM50909"
"132",1689007195660,"10/07/2023 16:39:55",1689010795660,1,"10/07/2023 18:39:55",137495,33,"task-71ex",NA,30600265,9085468,NA,"complete",NA,NA,"computer","Desktop or Laptop","Windows 10","Chrome 114.0.0.0","1280x720","1280x720",NA,NA,NA,"JV Task P1",8,"Anxious",NA,"In",NA,NA,"CDBEAFKGJHI",NA,NA,"B (MDot First)",2,213,"SS1","SS1",26,"V","Valence","sn1sjn",1,"response","32",1548.84400000001,2148.41899999999,2159.91400004769,1548.84400000001,2148.41899999999,2159.91400004769,1,1548.84400000001,611.070000047679,0,NA,"Slider","J",3,"object-27","V","CFD-IF-693-172-N.jpg",NA,"SUPTM50909"
"133",1689007196615,"10/07/2023 16:39:56",1689010796615,1,"10/07/2023 18:39:56",137495,33,"task-71ex",NA,30600265,9085468,NA,"complete",NA,NA,"computer","Desktop or Laptop","Windows 10","Chrome 114.0.0.0","1280x720","1280x720",NA,NA,NA,"JV Task P1",8,"Anxious",NA,"In",NA,NA,"CDBEAFKGJHI",NA,NA,"B (MDot First)",2,213,"SS1","SS1",26,"V","Fixation","aydkg3",2,"continue","",965.695000000007,965.695000000007,965.695000000007,965.695000000007,965.695000000007,965.695000000007,1,965.695000000007,0,0,NA,"Fixation Timing","Fixation",1,"object-21","V","CFD-IF-693-172-N.jpg",NA,"SUPTM50909"
"134",1689007199166,"10/07/2023 16:39:59",1689010799166,1,"10/07/2023 18:39:59",137495,33,"task-71ex",NA,30600265,9085468,NA,"complete",NA,NA,"computer","Desktop or Laptop","Windows 10","Chrome 114.0.0.0","1280x720","1280x720",NA,NA,NA,"JV Task P1",8,"Anxious",NA,"In",NA,NA,"CDBEAFKGJHI",NA,NA,"B (MDot First)",2,213,"SS1","SS1",19,"J","Judginess","w2ir4b",1,"continue","",2551.50000009537,2547.93600000002,2551.50000009537,2551.50000009537,2547.93600000002,2551.50000009537,1,2551.50000009537,0,0,NA,"Click To Continue","Continue Button",1,"object-14","J","CFD-BF-008-001-N.jpg",NA,"SUPTM50909"
"135",1689007199166,"10/07/2023 16:39:59",1689010799166,1,"10/07/2023 18:39:59",137495,33,"task-71ex",NA,30600265,9085468,NA,"complete",NA,NA,"computer","Desktop or Laptop","Windows 10","Chrome 114.0.0.0","1280x720","1280x720",NA,NA,NA,"JV Task P1",8,"Anxious",NA,"In",NA,NA,"CDBEAFKGJHI",NA,NA,"B (MDot First)",2,213,"SS1","SS1",19,"J","Judginess","w2ir4b",1,"response","40",1898.446,2547.93600000002,2551.80000004769,1898.446,2547.93600000002,2551.80000004769,1,1898.446,653.354000047693,0,NA,"Slider","J",3,"object-18","J","CFD-BF-008-001-N.jpg",NA,"SUPTM50909"
"136",1689007200128,"10/07/2023 16:40:00",1689010800128,1,"10/07/2023 18:40:00",137495,33,"task-71ex",NA,30600265,9085468,NA,"complete",NA,NA,"computer","Desktop or Laptop","Windows 10","Chrome 114.0.0.0","1280x720","1280x720",NA,NA,NA,"JV Task P1",8,"Anxious",NA,"In",NA,NA,"CDBEAFKGJHI",NA,NA,"B (MDot First)",2,213,"SS1","SS1",19,"J","Fixation","mtm832",2,"continue","",965.693999999989,965.693999999989,965.693999999989,965.693999999989,965.693999999989,965.693999999989,1,965.693999999989,0,0,NA,"Fixation Timing","Fixation",1,"object-65","J","CFD-BF-008-001-N.jpg",NA,"SUPTM50909"
"137",1689007202586,"10/07/2023 16:40:02",1689010802586,1,"10/07/2023 18:40:02",137495,33,"task-71ex",NA,30600265,9085468,NA,"complete",NA,NA,"computer","Desktop or Laptop","Windows 10","Chrome 114.0.0.0","1280x720","1280x720",NA,NA,NA,"JV Task P1",8,"Anxious",NA,"In",NA,NA,"CDBEAFKGJHI",NA,NA,"B (MDot First)",2,213,"SS1","SS1",27,"V","Valence","sn1sjn",1,"continue","",2458.17000004768,2448.22700000001,2458.17000004768,2458.17000004768,2448.22700000001,2458.17000004768,1,2458.17000004768,0,0,NA,"Click To Continue","Continue Button",1,"object-25","V","CFD-WF-017-003-H.jpeg",NA,"SUPTM50909"
"138",1689007202586,"10/07/2023 16:40:02",1689010802586,1,"10/07/2023 18:40:02",137495,33,"task-71ex",NA,30600265,9085468,NA,"complete",NA,NA,"computer","Desktop or Laptop","Windows 10","Chrome 114.0.0.0","1280x720","1280x720",NA,NA,NA,"JV Task P1",8,"Anxious",NA,"In",NA,NA,"CDBEAFKGJHI",NA,NA,"B (MDot First)",2,213,"SS1","SS1",27,"V","Valence","sn1sjn",1,"response","75",1565.535,2448.22700000001,2458.37000009537,1565.535,2448.22700000001,2458.37000009537,1,1565.535,892.835000095365,0,NA,"Slider","J",3,"object-27","V","CFD-WF-017-003-H.jpeg",NA,"SUPTM50909"
"139",1689007203543,"10/07/2023 16:40:03",1689010803543,1,"10/07/2023 18:40:03",137495,33,"task-71ex",NA,30600265,9085468,NA,"complete",NA,NA,"computer","Desktop or Laptop","Windows 10","Chrome 114.0.0.0","1280x720","1280x720",NA,NA,NA,"JV Task P1",8,"Anxious",NA,"In",NA,NA,"CDBEAFKGJHI",NA,NA,"B (MDot First)",2,213,"SS1","SS1",27,"V","Fixation","aydkg3",2,"continue","",965.671999999991,965.671999999991,965.671999999991,965.671999999991,965.671999999991,965.671999999991,1,965.671999999991,0,0,NA,"Fixation Timing","Fixation",1,"object-21","V","CFD-WF-017-003-H.jpeg",NA,"SUPTM50909"
"140",1689007205641,"10/07/2023 16:40:05",1689010805641,1,"10/07/2023 18:40:05",137495,33,"task-71ex",NA,30600265,9085468,NA,"complete",NA,NA,"computer","Desktop or Laptop","Windows 10","Chrome 114.0.0.0","1280x720","1280x720",NA,NA,NA,"JV Task P1",8,"Anxious",NA,"In",NA,NA,"CDBEAFKGJHI",NA,NA,"B (MDot First)",2,213,"SS1","SS1",28,"V","Valence","sn1sjn",1,"continue","",2099.47100009536,2098.39299999998,2099.47100009536,2099.47100009536,2098.39299999998,2099.47100009536,1,2099.47100009536,0,0,NA,"Click To Continue","Continue Button",1,"object-25","V","CFD-WF-030-002-H.jpeg",NA,"SUPTM50909"
"141",1689007205641,"10/07/2023 16:40:05",1689010805641,1,"10/07/2023 18:40:05",137495,33,"task-71ex",NA,30600265,9085468,NA,"complete",NA,NA,"computer","Desktop or Laptop","Windows 10","Chrome 114.0.0.0","1280x720","1280x720",NA,NA,NA,"JV Task P1",8,"Anxious",NA,"In",NA,NA,"CDBEAFKGJHI",NA,NA,"B (MDot First)",2,213,"SS1","SS1",28,"V","Valence","sn1sjn",1,"response","72",1415.57199999999,2098.39299999998,2099.67100014305,1415.57199999999,2098.39299999998,2099.67100014305,1,1415.57199999999,684.099000143062,0,NA,"Slider","J",3,"object-27","V","CFD-WF-030-002-H.jpeg",NA,"SUPTM50909"
"142",1689007206607,"10/07/2023 16:40:06",1689010806607,1,"10/07/2023 18:40:06",137495,33,"task-71ex",NA,30600265,9085468,NA,"complete",NA,NA,"computer","Desktop or Laptop","Windows 10","Chrome 114.0.0.0","1280x720","1280x720",NA,NA,NA,"JV Task P1",8,"Anxious",NA,"In",NA,NA,"CDBEAFKGJHI",NA,NA,"B (MDot First)",2,213,"SS1","SS1",28,"V","Fixation","aydkg3",2,"continue","",965.966000000015,965.966000000015,965.966000000015,965.966000000015,965.966000000015,965.966000000015,1,965.966000000015,0,0,NA,"Fixation Timing","Fixation",1,"object-21","V","CFD-WF-030-002-H.jpeg",NA,"SUPTM50909"
"143",1689007208877,"10/07/2023 16:40:08",1689010808877,1,"10/07/2023 18:40:08",137495,33,"task-71ex",NA,30600265,9085468,NA,"complete",NA,NA,"computer","Desktop or Laptop","Windows 10","Chrome 114.0.0.0","1280x720","1280x720",NA,NA,NA,"JV Task P1",8,"Anxious",NA,"In",NA,NA,"CDBEAFKGJHI",NA,NA,"B (MDot First)",2,213,"SS1","SS1",29,"V","Valence","sn1sjn",1,"continue","",2270.51200019073,2264.647,2270.51200019073,2270.51200019073,2264.647,2270.51200019073,1,2270.51200019073,0,0,NA,"Click To Continue","Continue Button",1,"object-25","V","CFD-MM-308-001-N.jpg",NA,"SUPTM50909"
"144",1689007208877,"10/07/2023 16:40:08",1689010808877,1,"10/07/2023 18:40:08",137495,33,"task-71ex",NA,30600265,9085468,NA,"complete",NA,NA,"computer","Desktop or Laptop","Windows 10","Chrome 114.0.0.0","1280x720","1280x720",NA,NA,NA,"JV Task P1",8,"Anxious",NA,"In",NA,NA,"CDBEAFKGJHI",NA,NA,"B (MDot First)",2,213,"SS1","SS1",29,"V","Valence","sn1sjn",1,"response","28",1798.573,2264.647,2270.81200014305,1798.573,2264.647,2270.81200014305,1,1798.573,472.239000143047,0,NA,"Slider","J",3,"object-27","V","CFD-MM-308-001-N.jpg",NA,"SUPTM50909"
"145",1689007209837,"10/07/2023 16:40:09",1689010809837,1,"10/07/2023 18:40:09",137495,33,"task-71ex",NA,30600265,9085468,NA,"complete",NA,NA,"computer","Desktop or Laptop","Windows 10","Chrome 114.0.0.0","1280x720","1280x720",NA,NA,NA,"JV Task P1",8,"Anxious",NA,"In",NA,NA,"CDBEAFKGJHI",NA,NA,"B (MDot First)",2,213,"SS1","SS1",29,"V","Fixation","aydkg3",2,"continue","",966.024000000005,966.024000000005,966.024000000005,966.024000000005,966.024000000005,966.024000000005,1,966.024000000005,0,0,NA,"Fixation Timing","Fixation",1,"object-21","V","CFD-MM-308-001-N.jpg",NA,"SUPTM50909"
"146",1689007212110,"10/07/2023 16:40:12",1689010812110,1,"10/07/2023 18:40:12",137495,33,"task-71ex",NA,30600265,9085468,NA,"complete",NA,NA,"computer","Desktop or Laptop","Windows 10","Chrome 114.0.0.0","1280x720","1280x720",NA,NA,NA,"JV Task P1",8,"Anxious",NA,"In",NA,NA,"CDBEAFKGJHI",NA,NA,"B (MDot First)",2,213,"SS1","SS1",30,"V","Valence","sn1sjn",1,"continue","",2272.94100009536,2264.60500000001,2272.94100009536,2272.94100009536,2264.60500000001,2272.94100009536,1,2272.94100009536,0,0,NA,"Click To Continue","Continue Button",1,"object-25","V","CFD-IM-711-011-H.jpeg",NA,"SUPTM50909"
"147",1689007212116,"10/07/2023 16:40:12",1689010812116,1,"10/07/2023 18:40:12",137495,33,"task-71ex",NA,30600265,9085468,NA,"complete",NA,NA,"computer","Desktop or Laptop","Windows 10","Chrome 114.0.0.0","1280x720","1280x720",NA,NA,NA,"JV Task P1",8,"Anxious",NA,"In",NA,NA,"CDBEAFKGJHI",NA,NA,"B (MDot First)",2,213,"SS1","SS1",30,"V","Valence","sn1sjn",1,"response","71",1565.48999999999,2264.60500000001,2278.84100019073,1565.48999999999,2264.60500000001,2278.84100019073,1,1565.48999999999,713.351000190742,0,NA,"Slider","J",3,"object-27","V","CFD-IM-711-011-H.jpeg",NA,"SUPTM50909"
"148",1689007213068,"10/07/2023 16:40:13",1689010813068,1,"10/07/2023 18:40:13",137495,33,"task-71ex",NA,30600265,9085468,NA,"complete",NA,NA,"computer","Desktop or Laptop","Windows 10","Chrome 114.0.0.0","1280x720","1280x720",NA,NA,NA,"JV Task P1",8,"Anxious",NA,"In",NA,NA,"CDBEAFKGJHI",NA,NA,"B (MDot First)",2,213,"SS1","SS1",30,"V","Fixation","aydkg3",2,"continue","",965.996999999974,965.996999999974,965.996999999974,965.996999999974,965.996999999974,965.996999999974,1,965.996999999974,0,0,NA,"Fixation Timing","Fixation",1,"object-21","V","CFD-IM-711-011-H.jpeg",NA,"SUPTM50909"
"149",1689007214937,"10/07/2023 16:40:14",1689010814937,1,"10/07/2023 18:40:14",137495,33,"task-71ex",NA,30600265,9085468,NA,"complete",NA,NA,"computer","Desktop or Laptop","Windows 10","Chrome 114.0.0.0","1280x720","1280x720",NA,NA,NA,"JV Task P1",8,"Anxious",NA,"In",NA,NA,"CDBEAFKGJHI",NA,NA,"B (MDot First)",2,213,"SS1","SS1",31,"V","Valence","sn1sjn",1,"continue","",1869.43900000001,1865.076,1869.43900000001,1869.43900000001,1865.076,1869.43900000001,1,1869.43900000001,0,0,NA,"Click To Continue","Continue Button",1,"object-25","V","CFD-AF-233-190-S.jpeg",NA,"SUPTM50909"
"150",1689007214937,"10/07/2023 16:40:14",1689010814937,1,"10/07/2023 18:40:14",137495,33,"task-71ex",NA,30600265,9085468,NA,"complete",NA,NA,"computer","Desktop or Laptop","Windows 10","Chrome 114.0.0.0","1280x720","1280x720",NA,NA,NA,"JV Task P1",8,"Anxious",NA,"In",NA,NA,"CDBEAFKGJHI",NA,NA,"B (MDot First)",2,213,"SS1","SS1",31,"V","Valence","sn1sjn",1,"response","23",1315.649,1865.076,1869.73900019075,1315.649,1865.076,1869.73900019075,1,1315.649,554.090000190743,0,NA,"Slider","J",3,"object-27","V","CFD-AF-233-190-S.jpeg",NA,"SUPTM50909"
"151",1689007215899,"10/07/2023 16:40:15",1689010815899,1,"10/07/2023 18:40:15",137495,33,"task-71ex",NA,30600265,9085468,NA,"complete",NA,NA,"computer","Desktop or Laptop","Windows 10","Chrome 114.0.0.0","1280x720","1280x720",NA,NA,NA,"JV Task P1",8,"Anxious",NA,"In",NA,NA,"CDBEAFKGJHI",NA,NA,"B (MDot First)",2,213,"SS1","SS1",31,"V","Fixation","aydkg3",2,"continue","",966.070000000007,966.070000000007,966.070000000007,966.070000000007,966.070000000007,966.070000000007,1,966.070000000007,0,0,NA,"Fixation Timing","Fixation",1,"object-21","V","CFD-AF-233-190-S.jpeg",NA,"SUPTM50909"
"152",1689007219952,"10/07/2023 16:40:19",1689010819952,1,"10/07/2023 18:40:19",137495,33,"task-71ex",NA,30600265,9085468,NA,"complete",NA,NA,"computer","Desktop or Laptop","Windows 10","Chrome 114.0.0.0","1280x720","1280x720",NA,NA,NA,"JV Task P1",8,"Anxious",NA,"In",NA,NA,"CDBEAFKGJHI",NA,NA,"B (MDot First)",2,213,"SS1","SS1",32,"V","Valence","sn1sjn",1,"continue","",4053.69300009537,4046.652,4053.69300009537,4053.69300009537,4046.652,4053.69300009537,1,4053.69300009537,0,0,NA,"Click To Continue","Continue Button",1,"object-25","V","CFD-BM-045-004-H.jpeg",NA,"SUPTM50909"
"153",1689007219953,"10/07/2023 16:40:19",1689010819953,1,"10/07/2023 18:40:19",137495,33,"task-71ex",NA,30600265,9085468,NA,"complete",NA,NA,"computer","Desktop or Laptop","Windows 10","Chrome 114.0.0.0","1280x720","1280x720",NA,NA,NA,"JV Task P1",8,"Anxious",NA,"In",NA,NA,"CDBEAFKGJHI",NA,NA,"B (MDot First)",2,213,"SS1","SS1",32,"V","Valence","sn1sjn",1,"response","72",3197.166,4046.652,4053.99300004769,3197.166,4046.652,4053.99300004769,1,3197.166,856.827000047691,0,NA,"Slider","J",3,"object-27","V","CFD-BM-045-004-H.jpeg",NA,"SUPTM50909"
"154",1689007220912,"10/07/2023 16:40:20",1689010820912,1,"10/07/2023 18:40:20",137495,33,"task-71ex",NA,30600265,9085468,NA,"complete",NA,NA,"computer","Desktop or Laptop","Windows 10","Chrome 114.0.0.0","1280x720","1280x720",NA,NA,NA,"JV Task P1",8,"Anxious",NA,"In",NA,NA,"CDBEAFKGJHI",NA,NA,"B (MDot First)",2,213,"SS1","SS1",32,"V","Fixation","aydkg3",2,"continue","",965.66399999999,965.66399999999,965.66399999999,965.66399999999,965.66399999999,965.66399999999,1,965.66399999999,0,0,NA,"Fixation Timing","Fixation",1,"object-21","V","CFD-BM-045-004-H.jpeg",NA,"SUPTM50909"
"155",1689007224095,"10/07/2023 16:40:24",1689010824095,1,"10/07/2023 18:40:24",137495,33,"task-71ex",NA,30600265,9085468,NA,"complete",NA,NA,"computer","Desktop or Laptop","Windows 10","Chrome 114.0.0.0","1280x720","1280x720",NA,NA,NA,"JV Task P1",8,"Anxious",NA,"In",NA,NA,"CDBEAFKGJHI",NA,NA,"B (MDot First)",2,213,"SS1","SS1",20,"J","Judginess","w2ir4b",1,"continue","",3183.87700009538,3180.948,3183.87700009538,3183.87700009538,3180.948,3183.87700009538,1,3183.87700009538,0,0,NA,"Click To Continue","Continue Button",1,"object-14","J","CFD-BF-008-001-H.jpeg",NA,"SUPTM50909"
"156",1689007224101,"10/07/2023 16:40:24",1689010824101,1,"10/07/2023 18:40:24",137495,33,"task-71ex",NA,30600265,9085468,NA,"complete",NA,NA,"computer","Desktop or Laptop","Windows 10","Chrome 114.0.0.0","1280x720","1280x720",NA,NA,NA,"JV Task P1",8,"Anxious",NA,"In",NA,NA,"CDBEAFKGJHI",NA,NA,"B (MDot First)",2,213,"SS1","SS1",20,"J","Judginess","w2ir4b",1,"response","69",1931.921,3180.948,3189.87700009538,1931.921,3180.948,3189.87700009538,1,1931.921,1257.95600009538,0,NA,"Slider","J",3,"object-18","J","CFD-BF-008-001-H.jpeg",NA,"SUPTM50909"
"157",1689007225058,"10/07/2023 16:40:25",1689010825058,1,"10/07/2023 18:40:25",137495,33,"task-71ex",NA,30600265,9085468,NA,"complete",NA,NA,"computer","Desktop or Laptop","Windows 10","Chrome 114.0.0.0","1280x720","1280x720",NA,NA,NA,"JV Task P1",8,"Anxious",NA,"In",NA,NA,"CDBEAFKGJHI",NA,NA,"B (MDot First)",2,213,"SS1","SS1",20,"J","Fixation","mtm832",2,"continue","",965.853000000003,965.853000000003,965.853000000003,965.853000000003,965.853000000003,965.853000000003,1,965.853000000003,0,0,NA,"Fixation Timing","Fixation",1,"object-65","J","CFD-BF-008-001-H.jpeg",NA,"SUPTM50909"
"158",1689007226980,"10/07/2023 16:40:26",1689010826980,1,"10/07/2023 18:40:26",137495,33,"task-71ex",NA,30600265,9085468,NA,"complete",NA,NA,"computer","Desktop or Laptop","Windows 10","Chrome 114.0.0.0","1280x720","1280x720",NA,NA,NA,"JV Task P1",8,"Anxious",NA,"In",NA,NA,"CDBEAFKGJHI",NA,NA,"B (MDot First)",2,213,"SS1","SS1",21,"J","Judginess","w2ir4b",1,"continue","",1921.67600000001,1914.86600000001,1921.67600000001,1921.67600000001,1914.86600000001,1921.67600000001,1,1921.67600000001,0,0,NA,"Click To Continue","Continue Button",1,"object-14","J","CFD-MM-313-002-N.jpg",NA,"SUPTM50909"
"159",1689007226980,"10/07/2023 16:40:26",1689010826980,1,"10/07/2023 18:40:26",137495,33,"task-71ex",NA,30600265,9085468,NA,"complete",NA,NA,"computer","Desktop or Laptop","Windows 10","Chrome 114.0.0.0","1280x720","1280x720",NA,NA,NA,"JV Task P1",8,"Anxious",NA,"In",NA,NA,"CDBEAFKGJHI",NA,NA,"B (MDot First)",2,213,"SS1","SS1",21,"J","Judginess","w2ir4b",1,"response","60",1315.58900000001,1914.86600000001,1921.97600019074,1315.58900000001,1914.86600000001,1921.97600019074,1,1315.58900000001,606.387000190734,0,NA,"Slider","J",3,"object-18","J","CFD-MM-313-002-N.jpg",NA,"SUPTM50909"
"160",1689007227940,"10/07/2023 16:40:27",1689010827940,1,"10/07/2023 18:40:27",137495,33,"task-71ex",NA,30600265,9085468,NA,"complete",NA,NA,"computer","Desktop or Laptop","Windows 10","Chrome 114.0.0.0","1280x720","1280x720",NA,NA,NA,"JV Task P1",8,"Anxious",NA,"In",NA,NA,"CDBEAFKGJHI",NA,NA,"B (MDot First)",2,213,"SS1","SS1",21,"J","Fixation","mtm832",2,"continue","",965.856999999989,965.856999999989,965.856999999989,965.856999999989,965.856999999989,965.856999999989,1,965.856999999989,0,0,NA,"Fixation Timing","Fixation",1,"object-65","J","CFD-MM-313-002-N.jpg",NA,"SUPTM50909"
"161",1689007231595,"10/07/2023 16:40:31",1689010831595,1,"10/07/2023 18:40:31",137495,33,"task-71ex",NA,30600265,9085468,NA,"complete",NA,NA,"computer","Desktop or Laptop","Windows 10","Chrome 114.0.0.0","1280x720","1280x720",NA,NA,NA,"JV Task P1",8,"Anxious",NA,"In",NA,NA,"CDBEAFKGJHI",NA,NA,"B (MDot First)",2,213,"SS1","SS1",33,"V","Valence","sn1sjn",1,"continue","",3655.95300000001,3647.02300000002,3655.95300000001,3655.95300000001,3647.02300000002,3655.95300000001,1,3655.95300000001,0,0,NA,"Click To Continue","Continue Button",1,"object-25","V","CFD-WM-024-015-N.jpg",NA,"SUPTM50909"
"162",1689007231595,"10/07/2023 16:40:31",1689010831595,1,"10/07/2023 18:40:31",137495,33,"task-71ex",NA,30600265,9085468,NA,"complete",NA,NA,"computer","Desktop or Laptop","Windows 10","Chrome 114.0.0.0","1280x720","1280x720",NA,NA,NA,"JV Task P1",8,"Anxious",NA,"In",NA,NA,"CDBEAFKGJHI",NA,NA,"B (MDot First)",2,213,"SS1","SS1",33,"V","Valence","sn1sjn",1,"response","53",2964.27499999999,3647.02300000002,3656.35300009538,2964.27499999999,3647.02300000002,3656.35300009538,1,2964.27499999999,692.078000095382,0,NA,"Slider","J",3,"object-27","V","CFD-WM-024-015-N.jpg",NA,"SUPTM50909"
"163",1689007232552,"10/07/2023 16:40:32",1689010832552,1,"10/07/2023 18:40:32",137495,33,"task-71ex",NA,30600265,9085468,NA,"complete",NA,NA,"computer","Desktop or Laptop","Windows 10","Chrome 114.0.0.0","1280x720","1280x720",NA,NA,NA,"JV Task P1",8,"Anxious",NA,"In",NA,NA,"CDBEAFKGJHI",NA,NA,"B (MDot First)",2,213,"SS1","SS1",33,"V","Fixation","aydkg3",2,"continue","",966.024999999994,966.024999999994,966.024999999994,966.024999999994,966.024999999994,966.024999999994,1,966.024999999994,0,0,NA,"Fixation Timing","Fixation",1,"object-21","V","CFD-WM-024-015-N.jpg",NA,"SUPTM50909"
"164",1689007234729,"10/07/2023 16:40:34",1689010834729,1,"10/07/2023 18:40:34",137495,33,"task-71ex",NA,30600265,9085468,NA,"complete",NA,NA,"computer","Desktop or Laptop","Windows 10","Chrome 114.0.0.0","1280x720","1280x720",NA,NA,NA,"JV Task P1",8,"Anxious",NA,"In",NA,NA,"CDBEAFKGJHI",NA,NA,"B (MDot First)",2,213,"SS1","SS1",22,"J","Judginess","w2ir4b",1,"continue","",2177.20500019073,2164.89600000001,2177.20500019073,2177.20500019073,2164.89600000001,2177.20500019073,1,2177.20500019073,0,0,NA,"Click To Continue","Continue Button",1,"object-14","J","CFD-WF-031-027-H.jpeg",NA,"SUPTM50909"
"165",1689007234734,"10/07/2023 16:40:34",1689010834734,1,"10/07/2023 18:40:34",137495,33,"task-71ex",NA,30600265,9085468,NA,"complete",NA,NA,"computer","Desktop or Laptop","Windows 10","Chrome 114.0.0.0","1280x720","1280x720",NA,NA,NA,"JV Task P1",8,"Anxious",NA,"In",NA,NA,"CDBEAFKGJHI",NA,NA,"B (MDot First)",2,213,"SS1","SS1",22,"J","Judginess","w2ir4b",1,"response","72",1282.35399999999,2164.89600000001,2181.26100000003,1282.35399999999,2164.89600000001,2181.26100000003,1,1282.35399999999,898.907000000036,0,NA,"Slider","J",3,"object-18","J","CFD-WF-031-027-H.jpeg",NA,"SUPTM50909"
"166",1689007235683,"10/07/2023 16:40:35",1689010835683,1,"10/07/2023 18:40:35",137495,33,"task-71ex",NA,30600265,9085468,NA,"complete",NA,NA,"computer","Desktop or Laptop","Windows 10","Chrome 114.0.0.0","1280x720","1280x720",NA,NA,NA,"JV Task P1",8,"Anxious",NA,"In",NA,NA,"CDBEAFKGJHI",NA,NA,"B (MDot First)",2,213,"SS1","SS1",22,"J","Fixation","mtm832",2,"continue","",965.737999999983,965.737999999983,965.737999999983,965.737999999983,965.737999999983,965.737999999983,1,965.737999999983,0,0,NA,"Fixation Timing","Fixation",1,"object-65","J","CFD-WF-031-027-H.jpeg",NA,"SUPTM50909"
"167",1689007237699,"10/07/2023 16:40:37",1689010837699,1,"10/07/2023 18:40:37",137495,33,"task-71ex",NA,30600265,9085468,NA,"complete",NA,NA,"computer","Desktop or Laptop","Windows 10","Chrome 114.0.0.0","1280x720","1280x720",NA,NA,NA,"JV Task P1",8,"Anxious",NA,"In",NA,NA,"CDBEAFKGJHI",NA,NA,"B (MDot First)",2,213,"SS1","SS1",34,"V","Valence","sn1sjn",1,"continue","",2016.77100000001,2015.22700000001,2016.77100000001,2016.77100000001,2015.22700000001,2016.77100000001,1,2016.77100000001,0,0,NA,"Click To Continue","Continue Button",1,"object-25","V","CFD-AM-223-138-S.jpeg",NA,"SUPTM50909"
"168",1689007237699,"10/07/2023 16:40:37",1689010837699,1,"10/07/2023 18:40:37",137495,33,"task-71ex",NA,30600265,9085468,NA,"complete",NA,NA,"computer","Desktop or Laptop","Windows 10","Chrome 114.0.0.0","1280x720","1280x720",NA,NA,NA,"JV Task P1",8,"Anxious",NA,"In",NA,NA,"CDBEAFKGJHI",NA,NA,"B (MDot First)",2,213,"SS1","SS1",34,"V","Valence","sn1sjn",1,"response","25",1248.973,2015.22700000001,2017.07100019074,1248.973,2015.22700000001,2017.07100019074,1,1248.973,768.098000190745,0,NA,"Slider","J",3,"object-27","V","CFD-AM-223-138-S.jpeg",NA,"SUPTM50909"
"169",1689007238664,"10/07/2023 16:40:38",1689010838664,1,"10/07/2023 18:40:38",137495,33,"task-71ex",NA,30600265,9085468,NA,"complete",NA,NA,"computer","Desktop or Laptop","Windows 10","Chrome 114.0.0.0","1280x720","1280x720",NA,NA,NA,"JV Task P1",8,"Anxious",NA,"In",NA,NA,"CDBEAFKGJHI",NA,NA,"B (MDot First)",2,213,"SS1","SS1",34,"V","Fixation","aydkg3",2,"continue","",965.582999999984,965.582999999984,965.582999999984,965.582999999984,965.582999999984,965.582999999984,1,965.582999999984,0,0,NA,"Fixation Timing","Fixation",1,"object-21","V","CFD-AM-223-138-S.jpeg",NA,"SUPTM50909"
"170",1689007240440,"10/07/2023 16:40:40",1689010840440,1,"10/07/2023 18:40:40",137495,33,"task-71ex",NA,30600265,9085468,NA,"complete",NA,NA,"computer","Desktop or Laptop","Windows 10","Chrome 114.0.0.0","1280x720","1280x720",NA,NA,NA,"JV Task P1",8,"Anxious",NA,"In",NA,NA,"CDBEAFKGJHI",NA,NA,"B (MDot First)",2,213,"SS1","SS1",23,"J","Judginess","w2ir4b",1,"continue","",1776.96100000001,1765.31,1776.96100000001,1776.96100000001,1765.31,1776.96100000001,1,1776.96100000001,0,0,NA,"Click To Continue","Continue Button",1,"object-14","J","CFD-WM-015-002-N.jpg",NA,"SUPTM50909"
"171",1689007240440,"10/07/2023 16:40:40",1689010840440,1,"10/07/2023 18:40:40",137495,33,"task-71ex",NA,30600265,9085468,NA,"complete",NA,NA,"computer","Desktop or Laptop","Windows 10","Chrome 114.0.0.0","1280x720","1280x720",NA,NA,NA,"JV Task P1",8,"Anxious",NA,"In",NA,NA,"CDBEAFKGJHI",NA,NA,"B (MDot First)",2,213,"SS1","SS1",23,"J","Judginess","w2ir4b",1,"response","35",1265.90000000002,1765.31,1777.36100009538,1265.90000000002,1765.31,1777.36100009538,1,1265.90000000002,511.461000095354,0,NA,"Slider","J",3,"object-18","J","CFD-WM-015-002-N.jpg",NA,"SUPTM50909"
"172",1689007241395,"10/07/2023 16:40:41",1689010841395,1,"10/07/2023 18:40:41",137495,33,"task-71ex",NA,30600265,9085468,NA,"complete",NA,NA,"computer","Desktop or Laptop","Windows 10","Chrome 114.0.0.0","1280x720","1280x720",NA,NA,NA,"JV Task P1",8,"Anxious",NA,"In",NA,NA,"CDBEAFKGJHI",NA,NA,"B (MDot First)",2,213,"SS1","SS1",23,"J","Fixation","mtm832",2,"continue","",965.998000000021,965.998000000021,965.998000000021,965.998000000021,965.998000000021,965.998000000021,1,965.998000000021,0,0,NA,"Fixation Timing","Fixation",1,"object-65","J","CFD-WM-015-002-N.jpg",NA,"SUPTM50909"
