"Event.Index","UTC.Timestamp","UTC.Date.and.Time","Local.Timestamp","Local.Timezone","Local.Date.and.Time","Experiment.ID","Experiment.Version","Tree.Node.Key","Repeat.Key","Schedule.ID","Participant.Private.ID","Participant.Starting.Group","Participant.Status","Participant.Completion.Code","Participant.External.Session.ID","Participant.Device.Type","Participant.Device","Participant.OS","Participant.Browser","Participant.Monitor.Size","Participant.Viewport.Size","Checkpoint","Room.ID","Room.Order","Task.Name","Task.Version","branch.ln1a","randomiser.vzsr","branch.hkzp","randomiser.ywar","randomiser.q6ah","order.ot79","randomiser.ahe2","randomiser.ckhi","randomiser.lqqr","randomiser.pobd","randomiser.8gdj","Spreadsheet","Current.Spreadsheet","Trial.Number","Display","Screen","Screen.ID","Screen.Counter","Response.Type","Response","Onset.Time","Clock.Time","Reaction.Time","Absolute.Onset.Time","Absolute.Clock.Time","Absolute.Reaction.Time","Correct","Response.Onset","Response.Duration","Proportion","Tag","Component.Name","Object.Name","Object.Number","Object.ID","Spreadsheet..display","Spreadsheet..stimulus","Manipulation..Spreadsheet","Random_ID"
"1",1689004322387,"10/07/2023 15:52:02",1689007922387,1,"10/07/2023 17:52:02",137495,33,"task-s49y",NA,30599624,9085338,NA,"complete",NA,NA,"computer","Desktop or Laptop","Windows 10","Chrome 114.0.0.0","1536x864","1536x714",NA,NA,NA,"JV Task P1",8,"Anxious",132,"In",NA,2,"BCADKEJFIGH",NA,NA,"A (JV first)",NA,NA,"SS1","SS1",NA,"","","",NA,"5","BEGIN",NA,NA,NA,NA,NA,NA,0,NA,NA,NA,NA,"","",NA,"","","",NA,"SUPTM05489"
"2",1689004327575,"10/07/2023 15:52:07",1689007927575,1,"10/07/2023 17:52:07",137495,33,"task-s49y",NA,30599624,9085338,NA,"complete",NA,NA,"computer","Desktop or Laptop","Windows 10","Chrome 114.0.0.0","1536x864","1536x714",NA,NA,NA,"JV Task P1",8,"Anxious",132,"In",NA,2,"BCADKEJFIGH",NA,NA,"A (JV first)",NA,NA,"SS1","SS1",1,"V","Valence","sn1sjn",1,"continue","",4876.78300009537,4864.11,4876.78300009537,4876.78300009537,4864.11,4876.78300009537,1,4876.78300009537,0,0,NA,"Click To Continue","Continue Button",1,"object-25","V","CFD-IF-693-172-S.jpeg",NA,"SUPTM05489"
"3",1689004327575,"10/07/2023 15:52:07",1689007927575,1,"10/07/2023 17:52:07",137495,33,"task-s49y",NA,30599624,9085338,NA,"complete",NA,NA,"computer","Desktop or Laptop","Windows 10","Chrome 114.0.0.0","1536x864","1536x714",NA,NA,NA,"JV Task P1",8,"Anxious",132,"In",NA,2,"BCADKEJFIGH",NA,NA,"A (JV first)",NA,NA,"SS1","SS1",1,"V","Valence","sn1sjn",1,"response","32",3448.282,4864.11,4877.78300009537,3448.282,4864.11,4877.78300009537,1,3448.282,1429.50100009537,0,NA,"Slider","J",3,"object-27","V","CFD-IF-693-172-S.jpeg",NA,"SUPTM05489"
"4",1689004328529,"10/07/2023 15:52:08",1689007928529,1,"10/07/2023 17:52:08",137495,33,"task-s49y",NA,30599624,9085338,NA,"complete",NA,NA,"computer","Desktop or Laptop","Windows 10","Chrome 114.0.0.0","1536x864","1536x714",NA,NA,NA,"JV Task P1",8,"Anxious",132,"In",NA,2,"BCADKEJFIGH",NA,NA,"A (JV first)",NA,NA,"SS1","SS1",1,"V","Fixation","aydkg3",2,"continue","",965.885,965.885,965.885,965.885,965.885,965.885,1,965.885,0,0,NA,"Fixation Timing","Fixation",1,"object-21","V","CFD-IF-693-172-S.jpeg",NA,"SUPTM05489"
"5",1689004331901,"10/07/2023 15:52:11",1689007931901,1,"10/07/2023 17:52:11",137495,33,"task-s49y",NA,30599624,9085338,NA,"complete",NA,NA,"computer","Desktop or Laptop","Windows 10","Chrome 114.0.0.0","1536x864","1536x714",NA,NA,NA,"JV Task P1",8,"Anxious",132,"In",NA,2,"BCADKEJFIGH",NA,NA,"A (JV first)",NA,NA,"SS1","SS1",2,"V","Valence","sn1sjn",1,"continue","",3373.08800004768,3364.84,3373.08800004768,3373.08800004768,3364.84,3373.08800004768,1,3373.08800004768,0,0,NA,"Click To Continue","Continue Button",1,"object-25","V","CFD-MM-308-001-N.jpg",NA,"SUPTM05489"
"6",1689004331901,"10/07/2023 15:52:11",1689007931901,1,"10/07/2023 17:52:11",137495,33,"task-s49y",NA,30599624,9085338,NA,"complete",NA,NA,"computer","Desktop or Laptop","Windows 10","Chrome 114.0.0.0","1536x864","1536x714",NA,NA,NA,"JV Task P1",8,"Anxious",132,"In",NA,2,"BCADKEJFIGH",NA,NA,"A (JV first)",NA,NA,"SS1","SS1",2,"V","Valence","sn1sjn",1,"response","44",2448.683,3364.84,3373.78800009537,2448.683,3364.84,3373.78800009537,1,2448.683,925.105000095367,0,NA,"Slider","J",3,"object-27","V","CFD-MM-308-001-N.jpg",NA,"SUPTM05489"
"7",1689004332859,"10/07/2023 15:52:12",1689007932859,1,"10/07/2023 17:52:12",137495,33,"task-s49y",NA,30599624,9085338,NA,"complete",NA,NA,"computer","Desktop or Laptop","Windows 10","Chrome 114.0.0.0","1536x864","1536x714",NA,NA,NA,"JV Task P1",8,"Anxious",132,"In",NA,2,"BCADKEJFIGH",NA,NA,"A (JV first)",NA,NA,"SS1","SS1",2,"V","Fixation","aydkg3",2,"continue","",966.151,966.151,966.151,966.151,966.151,966.151,1,966.151,0,0,NA,"Fixation Timing","Fixation",1,"object-21","V","CFD-MM-308-001-N.jpg",NA,"SUPTM05489"
"8",1689004335401,"10/07/2023 15:52:15",1689007935401,1,"10/07/2023 17:52:15",137495,33,"task-s49y",NA,30599624,9085338,NA,"complete",NA,NA,"computer","Desktop or Laptop","Windows 10","Chrome 114.0.0.0","1536x864","1536x714",NA,NA,NA,"JV Task P1",8,"Anxious",132,"In",NA,2,"BCADKEJFIGH",NA,NA,"A (JV first)",NA,NA,"SS1","SS1",1,"J","Judginess","w2ir4b",1,"continue","",2542.49699990463,2532.231,2542.49699990463,2542.49699990463,2532.231,2542.49699990463,1,2542.49699990463,0,0,NA,"Click To Continue","Continue Button",1,"object-14","J","CFD-AF-211-066-H.jpeg",NA,"SUPTM05489"
"9",1689004335401,"10/07/2023 15:52:15",1689007935401,1,"10/07/2023 17:52:15",137495,33,"task-s49y",NA,30599624,9085338,NA,"complete",NA,NA,"computer","Desktop or Laptop","Windows 10","Chrome 114.0.0.0","1536x864","1536x714",NA,NA,NA,"JV Task P1",8,"Anxious",132,"In",NA,2,"BCADKEJFIGH",NA,NA,"A (JV first)",NA,NA,"SS1","SS1",1,"J","Judginess","w2ir4b",1,"response","66",1682.405,2532.231,2542.79700009537,1682.405,2532.231,2542.79700009537,1,1682.405,860.392000095368,0,NA,"Slider","J",3,"object-18","J","CFD-AF-211-066-H.jpeg",NA,"SUPTM05489"
"10",1689004336358,"10/07/2023 15:52:16",1689007936358,1,"10/07/2023 17:52:16",137495,33,"task-s49y",NA,30599624,9085338,NA,"complete",NA,NA,"computer","Desktop or Laptop","Windows 10","Chrome 114.0.0.0","1536x864","1536x714",NA,NA,NA,"JV Task P1",8,"Anxious",132,"In",NA,2,"BCADKEJFIGH",NA,NA,"A (JV first)",NA,NA,"SS1","SS1",1,"J","Fixation","mtm832",2,"continue","",965.753999999999,965.753999999999,965.753999999999,965.753999999999,965.753999999999,965.753999999999,1,965.753999999999,0,0,NA,"Fixation Timing","Fixation",1,"object-65","J","CFD-AF-211-066-H.jpeg",NA,"SUPTM05489"
"11",1689004341688,"10/07/2023 15:52:21",1689007941688,1,"10/07/2023 17:52:21",137495,33,"task-s49y",NA,30599624,9085338,NA,"complete",NA,NA,"computer","Desktop or Laptop","Windows 10","Chrome 114.0.0.0","1536x864","1536x714",NA,NA,NA,"JV Task P1",8,"Anxious",132,"In",NA,2,"BCADKEJFIGH",NA,NA,"A (JV first)",NA,NA,"SS1","SS1",2,"J","Judginess","w2ir4b",1,"continue","",5330.431,5313.826,5330.431,5330.431,5313.826,5330.431,1,5330.431,0,0,NA,"Click To Continue","Continue Button",1,"object-14","J","CFD-WM-024-015-N.jpg",NA,"SUPTM05489"
"12",1689004341688,"10/07/2023 15:52:21",1689007941688,1,"10/07/2023 17:52:21",137495,33,"task-s49y",NA,30599624,9085338,NA,"complete",NA,NA,"computer","Desktop or Laptop","Windows 10","Chrome 114.0.0.0","1536x864","1536x714",NA,NA,NA,"JV Task P1",8,"Anxious",132,"In",NA,2,"BCADKEJFIGH",NA,NA,"A (JV first)",NA,NA,"SS1","SS1",2,"J","Judginess","w2ir4b",1,"response","44",4314.312,5313.826,5330.431,4314.312,5313.826,5330.431,1,4314.312,1016.119,0,NA,"Slider","J",3,"object-18","J","CFD-WM-024-015-N.jpg",NA,"SUPTM05489"
"13",1689004342637,"10/07/2023 15:52:22",1689007942637,1,"10/07/2023 17:52:22",137495,33,"task-s49y",NA,30599624,9085338,NA,"complete",NA,NA,"computer","Desktop or Laptop","Windows 10","Chrome 114.0.0.0","1536x864","1536x714",NA,NA,NA,"JV Task P1",8,"Anxious",132,"In",NA,2,"BCADKEJFIGH",NA,NA,"A (JV first)",NA,NA,"SS1","SS1",2,"J","Fixation","mtm832",2,"continue","",966.445,966.445,966.445,966.445,966.445,966.445,1,966.445,0,0,NA,"Fixation Timing","Fixation",1,"object-65","J","CFD-WM-024-015-N.jpg",NA,"SUPTM05489"
"14",1689004345318,"10/07/2023 15:52:25",1689007945318,1,"10/07/2023 17:52:25",137495,33,"task-s49y",NA,30599624,9085338,NA,"complete",NA,NA,"computer","Desktop or Laptop","Windows 10","Chrome 114.0.0.0","1536x864","1536x714",NA,NA,NA,"JV Task P1",8,"Anxious",132,"In",NA,2,"BCADKEJFIGH",NA,NA,"A (JV first)",NA,NA,"SS1","SS1",3,"V","Valence","sn1sjn",1,"continue","",2681.151,2664.912,2681.151,2681.151,2664.912,2681.151,1,2681.151,0,0,NA,"Click To Continue","Continue Button",1,"object-25","V","CFD-WF-015-006-H.jpeg",NA,"SUPTM05489"
"15",1689004345321,"10/07/2023 15:52:25",1689007945321,1,"10/07/2023 17:52:25",137495,33,"task-s49y",NA,30599624,9085338,NA,"complete",NA,NA,"computer","Desktop or Laptop","Windows 10","Chrome 114.0.0.0","1536x864","1536x714",NA,NA,NA,"JV Task P1",8,"Anxious",132,"In",NA,2,"BCADKEJFIGH",NA,NA,"A (JV first)",NA,NA,"SS1","SS1",3,"V","Valence","sn1sjn",1,"response","67",1748.984,2664.912,2681.151,1748.984,2664.912,2681.151,1,1748.984,932.167000000001,0,NA,"Slider","J",3,"object-27","V","CFD-WF-015-006-H.jpeg",NA,"SUPTM05489"
"16",1689004346269,"10/07/2023 15:52:26",1689007946269,1,"10/07/2023 17:52:26",137495,33,"task-s49y",NA,30599624,9085338,NA,"complete",NA,NA,"computer","Desktop or Laptop","Windows 10","Chrome 114.0.0.0","1536x864","1536x714",NA,NA,NA,"JV Task P1",8,"Anxious",132,"In",NA,2,"BCADKEJFIGH",NA,NA,"A (JV first)",NA,NA,"SS1","SS1",3,"V","Fixation","aydkg3",2,"continue","",966.405999999999,966.405999999999,966.405999999999,966.405999999999,966.405999999999,966.405999999999,1,966.405999999999,0,0,NA,"Fixation Timing","Fixation",1,"object-21","V","CFD-WF-015-006-H.jpeg",NA,"SUPTM05489"
"17",1689004349034,"10/07/2023 15:52:29",1689007949034,1,"10/07/2023 17:52:29",137495,33,"task-s49y",NA,30599624,9085338,NA,"complete",NA,NA,"computer","Desktop or Laptop","Windows 10","Chrome 114.0.0.0","1536x864","1536x714",NA,NA,NA,"JV Task P1",8,"Anxious",132,"In",NA,2,"BCADKEJFIGH",NA,NA,"A (JV first)",NA,NA,"SS1","SS1",4,"V","Valence","sn1sjn",1,"continue","",2751.823,2748.51,2751.823,2751.823,2748.51,2751.823,1,2751.823,0,0,NA,"Click To Continue","Continue Button",1,"object-25","V","CFD-WF-009-001-S.jpeg",NA,"SUPTM05489"
"18",1689004349035,"10/07/2023 15:52:29",1689007949035,1,"10/07/2023 17:52:29",137495,33,"task-s49y",NA,30599624,9085338,NA,"complete",NA,NA,"computer","Desktop or Laptop","Windows 10","Chrome 114.0.0.0","1536x864","1536x714",NA,NA,NA,"JV Task P1",8,"Anxious",132,"In",NA,2,"BCADKEJFIGH",NA,NA,"A (JV first)",NA,NA,"SS1","SS1",4,"V","Valence","sn1sjn",1,"response","43",1965.613,2748.51,2752.323,1965.613,2748.51,2752.323,1,1965.613,786.709999999999,0,NA,"Slider","J",3,"object-27","V","CFD-WF-009-001-S.jpeg",NA,"SUPTM05489"
"19",1689004349998,"10/07/2023 15:52:29",1689007949998,1,"10/07/2023 17:52:29",137495,33,"task-s49y",NA,30599624,9085338,NA,"complete",NA,NA,"computer","Desktop or Laptop","Windows 10","Chrome 114.0.0.0","1536x864","1536x714",NA,NA,NA,"JV Task P1",8,"Anxious",132,"In",NA,2,"BCADKEJFIGH",NA,NA,"A (JV first)",NA,NA,"SS1","SS1",4,"V","Fixation","aydkg3",2,"continue","",965.824999999997,965.824999999997,965.824999999997,965.824999999997,965.824999999997,965.824999999997,1,965.824999999997,0,0,NA,"Fixation Timing","Fixation",1,"object-21","V","CFD-WF-009-001-S.jpeg",NA,"SUPTM05489"
"20",1689004352377,"10/07/2023 15:52:32",1689007952377,1,"10/07/2023 17:52:32",137495,33,"task-s49y",NA,30599624,9085338,NA,"complete",NA,NA,"computer","Desktop or Laptop","Windows 10","Chrome 114.0.0.0","1536x864","1536x714",NA,NA,NA,"JV Task P1",8,"Anxious",132,"In",NA,2,"BCADKEJFIGH",NA,NA,"A (JV first)",NA,NA,"SS1","SS1",3,"J","Judginess","w2ir4b",1,"continue","",2380.58799990463,2365.654,2380.58799990463,2380.58799990463,2365.654,2380.58799990463,1,2380.58799990463,0,0,NA,"Click To Continue","Continue Button",1,"object-14","J","CFD-WF-011-002-H.jpeg",NA,"SUPTM05489"
"21",1689004352378,"10/07/2023 15:52:32",1689007952378,1,"10/07/2023 17:52:32",137495,33,"task-s49y",NA,30599624,9085338,NA,"complete",NA,NA,"computer","Desktop or Laptop","Windows 10","Chrome 114.0.0.0","1536x864","1536x714",NA,NA,NA,"JV Task P1",8,"Anxious",132,"In",NA,2,"BCADKEJFIGH",NA,NA,"A (JV first)",NA,NA,"SS1","SS1",3,"J","Judginess","w2ir4b",1,"response","64",1482.773,2365.654,2381.18800004768,1482.773,2365.654,2381.18800004768,1,1482.773,898.415000047684,0,NA,"Slider","J",3,"object-18","J","CFD-WF-011-002-H.jpeg",NA,"SUPTM05489"
"22",1689004353329,"10/07/2023 15:52:33",1689007953329,1,"10/07/2023 17:52:33",137495,33,"task-s49y",NA,30599624,9085338,NA,"complete",NA,NA,"computer","Desktop or Laptop","Windows 10","Chrome 114.0.0.0","1536x864","1536x714",NA,NA,NA,"JV Task P1",8,"Anxious",132,"In",NA,2,"BCADKEJFIGH",NA,NA,"A (JV first)",NA,NA,"SS1","SS1",3,"J","Fixation","mtm832",2,"continue","",965.784,965.784,965.784,965.784,965.784,965.784,1,965.784,0,0,NA,"Fixation Timing","Fixation",1,"object-65","J","CFD-WF-011-002-H.jpeg",NA,"SUPTM05489"
"23",1689004356783,"10/07/2023 15:52:36",1689007956783,1,"10/07/2023 17:52:36",137495,33,"task-s49y",NA,30599624,9085338,NA,"complete",NA,NA,"computer","Desktop or Laptop","Windows 10","Chrome 114.0.0.0","1536x864","1536x714",NA,NA,NA,"JV Task P1",8,"Anxious",132,"In",NA,2,"BCADKEJFIGH",NA,NA,"A (JV first)",NA,NA,"SS1","SS1",5,"V","Valence","sn1sjn",1,"continue","",3455.25000004768,3448.547,3455.25000004768,3455.25000004768,3448.547,3455.25000004768,1,3455.25000004768,0,0,NA,"Click To Continue","Continue Button",1,"object-25","V","CFD-WM-036-031-N.jpg",NA,"SUPTM05489"
"24",1689004356787,"10/07/2023 15:52:36",1689007956787,1,"10/07/2023 17:52:36",137495,33,"task-s49y",NA,30599624,9085338,NA,"complete",NA,NA,"computer","Desktop or Laptop","Windows 10","Chrome 114.0.0.0","1536x864","1536x714",NA,NA,NA,"JV Task P1",8,"Anxious",132,"In",NA,2,"BCADKEJFIGH",NA,NA,"A (JV first)",NA,NA,"SS1","SS1",5,"V","Valence","sn1sjn",1,"response","43",2681.967,3448.547,3458.55,2681.967,3448.547,3458.55,1,2681.967,776.582999999999,0,NA,"Slider","J",3,"object-27","V","CFD-WM-036-031-N.jpg",NA,"SUPTM05489"
"25",1689004357743,"10/07/2023 15:52:37",1689007957743,1,"10/07/2023 17:52:37",137495,33,"task-s49y",NA,30599624,9085338,NA,"complete",NA,NA,"computer","Desktop or Laptop","Windows 10","Chrome 114.0.0.0","1536x864","1536x714",NA,NA,NA,"JV Task P1",8,"Anxious",132,"In",NA,2,"BCADKEJFIGH",NA,NA,"A (JV first)",NA,NA,"SS1","SS1",5,"V","Fixation","aydkg3",2,"continue","",965.693999999996,965.693999999996,965.693999999996,965.693999999996,965.693999999996,965.693999999996,1,965.693999999996,0,0,NA,"Fixation Timing","Fixation",1,"object-21","V","CFD-WM-036-031-N.jpg",NA,"SUPTM05489"
"26",1689004360175,"10/07/2023 15:52:40",1689007960175,1,"10/07/2023 17:52:40",137495,33,"task-s49y",NA,30599624,9085338,NA,"complete",NA,NA,"computer","Desktop or Laptop","Windows 10","Chrome 114.0.0.0","1536x864","1536x714",NA,NA,NA,"JV Task P1",8,"Anxious",132,"In",NA,2,"BCADKEJFIGH",NA,NA,"A (JV first)",NA,NA,"SS1","SS1",4,"J","Judginess","w2ir4b",1,"continue","",2432.309,2415.705,2432.309,2432.309,2415.705,2432.309,1,2432.309,0,0,NA,"Click To Continue","Continue Button",1,"object-14","J","CFD-AF-250-200-H.jpeg",NA,"SUPTM05489"
"27",1689004360175,"10/07/2023 15:52:40",1689007960175,1,"10/07/2023 17:52:40",137495,33,"task-s49y",NA,30599624,9085338,NA,"complete",NA,NA,"computer","Desktop or Laptop","Windows 10","Chrome 114.0.0.0","1536x864","1536x714",NA,NA,NA,"JV Task P1",8,"Anxious",132,"In",NA,2,"BCADKEJFIGH",NA,NA,"A (JV first)",NA,NA,"SS1","SS1",4,"J","Judginess","w2ir4b",1,"response","66",1799.38,2415.705,2432.377,1799.38,2415.705,2432.377,1,1799.38,632.996999999996,0,NA,"Slider","J",3,"object-18","J","CFD-AF-250-200-H.jpeg",NA,"SUPTM05489"
"28",1689004361125,"10/07/2023 15:52:41",1689007961125,1,"10/07/2023 17:52:41",137495,33,"task-s49y",NA,30599624,9085338,NA,"complete",NA,NA,"computer","Desktop or Laptop","Windows 10","Chrome 114.0.0.0","1536x864","1536x714",NA,NA,NA,"JV Task P1",8,"Anxious",132,"In",NA,2,"BCADKEJFIGH",NA,NA,"A (JV first)",NA,NA,"SS1","SS1",4,"J","Fixation","mtm832",2,"continue","",965.828999999998,965.828999999998,965.828999999998,965.828999999998,965.828999999998,965.828999999998,1,965.828999999998,0,0,NA,"Fixation Timing","Fixation",1,"object-65","J","CFD-AF-250-200-H.jpeg",NA,"SUPTM05489"
"29",1689004363700,"10/07/2023 15:52:43",1689007963700,1,"10/07/2023 17:52:43",137495,33,"task-s49y",NA,30599624,9085338,NA,"complete",NA,NA,"computer","Desktop or Laptop","Windows 10","Chrome 114.0.0.0","1536x864","1536x714",NA,NA,NA,"JV Task P1",8,"Anxious",132,"In",NA,2,"BCADKEJFIGH",NA,NA,"A (JV first)",NA,NA,"SS1","SS1",6,"V","Valence","sn1sjn",1,"continue","",2575.87499990463,2565.545,2575.87499990463,2575.87499990463,2565.545,2575.87499990463,1,2575.87499990463,0,0,NA,"Click To Continue","Continue Button",1,"object-25","V","CFD-MF-315-002-H.jpeg",NA,"SUPTM05489"
"30",1689004363700,"10/07/2023 15:52:43",1689007963700,1,"10/07/2023 17:52:43",137495,33,"task-s49y",NA,30599624,9085338,NA,"complete",NA,NA,"computer","Desktop or Laptop","Windows 10","Chrome 114.0.0.0","1536x864","1536x714",NA,NA,NA,"JV Task P1",8,"Anxious",132,"In",NA,2,"BCADKEJFIGH",NA,NA,"A (JV first)",NA,NA,"SS1","SS1",6,"V","Valence","sn1sjn",1,"response","63",1882.697,2565.545,2576.17500009537,1882.697,2565.545,2576.17500009537,1,1882.697,693.478000095369,0,NA,"Slider","J",3,"object-27","V","CFD-MF-315-002-H.jpeg",NA,"SUPTM05489"
"31",1689004364656,"10/07/2023 15:52:44",1689007964656,1,"10/07/2023 17:52:44",137495,33,"task-s49y",NA,30599624,9085338,NA,"complete",NA,NA,"computer","Desktop or Laptop","Windows 10","Chrome 114.0.0.0","1536x864","1536x714",NA,NA,NA,"JV Task P1",8,"Anxious",132,"In",NA,2,"BCADKEJFIGH",NA,NA,"A (JV first)",NA,NA,"SS1","SS1",6,"V","Fixation","aydkg3",2,"continue","",966.154000000002,966.154000000002,966.154000000002,966.154000000002,966.154000000002,966.154000000002,1,966.154000000002,0,0,NA,"Fixation Timing","Fixation",1,"object-21","V","CFD-MF-315-002-H.jpeg",NA,"SUPTM05489"
"32",1689004366939,"10/07/2023 15:52:46",1689007966939,1,"10/07/2023 17:52:46",137495,33,"task-s49y",NA,30599624,9085338,NA,"complete",NA,NA,"computer","Desktop or Laptop","Windows 10","Chrome 114.0.0.0","1536x864","1536x714",NA,NA,NA,"JV Task P1",8,"Anxious",132,"In",NA,2,"BCADKEJFIGH",NA,NA,"A (JV first)",NA,NA,"SS1","SS1",7,"V","Valence","sn1sjn",1,"continue","",2282.445,2265.438,2282.445,2282.445,2265.438,2282.445,1,2282.445,0,0,NA,"Click To Continue","Continue Button",1,"object-25","V","CFD-WM-009-002-S.jpeg",NA,"SUPTM05489"
"33",1689004366942,"10/07/2023 15:52:46",1689007966942,1,"10/07/2023 17:52:46",137495,33,"task-s49y",NA,30599624,9085338,NA,"complete",NA,NA,"computer","Desktop or Laptop","Windows 10","Chrome 114.0.0.0","1536x864","1536x714",NA,NA,NA,"JV Task P1",8,"Anxious",132,"In",NA,2,"BCADKEJFIGH",NA,NA,"A (JV first)",NA,NA,"SS1","SS1",7,"V","Valence","sn1sjn",1,"response","38",1748.784,2265.438,2282.445,1748.784,2265.438,2282.445,1,1748.784,533.661,0,NA,"Slider","J",3,"object-27","V","CFD-WM-009-002-S.jpeg",NA,"SUPTM05489"
"34",1689004367888,"10/07/2023 15:52:47",1689007967888,1,"10/07/2023 17:52:47",137495,33,"task-s49y",NA,30599624,9085338,NA,"complete",NA,NA,"computer","Desktop or Laptop","Windows 10","Chrome 114.0.0.0","1536x864","1536x714",NA,NA,NA,"JV Task P1",8,"Anxious",132,"In",NA,2,"BCADKEJFIGH",NA,NA,"A (JV first)",NA,NA,"SS1","SS1",7,"V","Fixation","aydkg3",2,"continue","",965.801999999996,965.801999999996,965.801999999996,965.801999999996,965.801999999996,965.801999999996,1,965.801999999996,0,0,NA,"Fixation Timing","Fixation",1,"object-21","V","CFD-WM-009-002-S.jpeg",NA,"SUPTM05489"
"35",1689004372936,"10/07/2023 15:52:52",1689007972936,1,"10/07/2023 17:52:52",137495,33,"task-s49y",NA,30599624,9085338,NA,"complete",NA,NA,"computer","Desktop or Laptop","Windows 10","Chrome 114.0.0.0","1536x864","1536x714",NA,NA,NA,"JV Task P1",8,"Anxious",132,"In",NA,2,"BCADKEJFIGH",NA,NA,"A (JV first)",NA,NA,"SS1","SS1",8,"V","Valence","sn1sjn",1,"continue","",5049.336,5047.488,5049.336,5049.336,5047.488,5049.336,1,5049.336,0,0,NA,"Click To Continue","Continue Button",1,"object-25","V","CFD-WF-030-002-H.jpeg",NA,"SUPTM05489"
"36",1689004372937,"10/07/2023 15:52:52",1689007972937,1,"10/07/2023 17:52:52",137495,33,"task-s49y",NA,30599624,9085338,NA,"complete",NA,NA,"computer","Desktop or Laptop","Windows 10","Chrome 114.0.0.0","1536x864","1536x714",NA,NA,NA,"JV Task P1",8,"Anxious",132,"In",NA,2,"BCADKEJFIGH",NA,NA,"A (JV first)",NA,NA,"SS1","SS1",8,"V","Valence","sn1sjn",1,"response","62",4430.86900000001,5047.488,5049.73600009537,4430.86900000001,5047.488,5049.73600009537,1,4430.86900000001,618.867000095364,0,NA,"Slider","J",3,"object-27","V","CFD-WF-030-002-H.jpeg",NA,"SUPTM05489"
"37",1689004373901,"10/07/2023 15:52:53",1689007973901,1,"10/07/2023 17:52:53",137495,33,"task-s49y",NA,30599624,9085338,NA,"complete",NA,NA,"computer","Desktop or Laptop","Windows 10","Chrome 114.0.0.0","1536x864","1536x714",NA,NA,NA,"JV Task P1",8,"Anxious",132,"In",NA,2,"BCADKEJFIGH",NA,NA,"A (JV first)",NA,NA,"SS1","SS1",8,"V","Fixation","aydkg3",2,"continue","",965.951000000001,965.951000000001,965.951000000001,965.951000000001,965.951000000001,965.951000000001,1,965.951000000001,0,0,NA,"Fixation Timing","Fixation",1,"object-21","V","CFD-WF-030-002-H.jpeg",NA,"SUPTM05489"
"38",1689004381572,"10/07/2023 15:53:01",1689007981572,1,"10/07/2023 17:53:01",137495,33,"task-s49y",NA,30599624,9085338,NA,"complete",NA,NA,"computer","Desktop or Laptop","Windows 10","Chrome 114.0.0.0","1536x864","1536x714",NA,NA,NA,"JV Task P1",8,"Anxious",132,"In",NA,2,"BCADKEJFIGH",NA,NA,"A (JV first)",NA,NA,"SS1","SS1",9,"V","Valence","sn1sjn",1,"continue","",7671.99699990463,7662.68599999999,7671.99699990463,7671.99699990463,7662.68599999999,7671.99699990463,1,7671.99699990463,0,0,NA,"Click To Continue","Continue Button",1,"object-25","V","CFD-AM-223-138-N.jpg",NA,"SUPTM05489"
"39",1689004381575,"10/07/2023 15:53:01",1689007981575,1,"10/07/2023 17:53:01",137495,33,"task-s49y",NA,30599624,9085338,NA,"complete",NA,NA,"computer","Desktop or Laptop","Windows 10","Chrome 114.0.0.0","1536x864","1536x714",NA,NA,NA,"JV Task P1",8,"Anxious",132,"In",NA,2,"BCADKEJFIGH",NA,NA,"A (JV first)",NA,NA,"SS1","SS1",9,"V","Valence","sn1sjn",1,"response","27",4697.632,7662.68599999999,7674.59700004768,4697.632,7662.68599999999,7674.59700004768,1,4697.632,2976.96500004768,0,NA,"Slider","J",3,"object-27","V","CFD-AM-223-138-N.jpg",NA,"SUPTM05489"
"40",1689004382529,"10/07/2023 15:53:02",1689007982529,1,"10/07/2023 17:53:02",137495,33,"task-s49y",NA,30599624,9085338,NA,"complete",NA,NA,"computer","Desktop or Laptop","Windows 10","Chrome 114.0.0.0","1536x864","1536x714",NA,NA,NA,"JV Task P1",8,"Anxious",132,"In",NA,2,"BCADKEJFIGH",NA,NA,"A (JV first)",NA,NA,"SS1","SS1",9,"V","Fixation","aydkg3",2,"continue","",965.795000000006,965.795000000006,965.795000000006,965.795000000006,965.795000000006,965.795000000006,1,965.795000000006,0,0,NA,"Fixation Timing","Fixation",1,"object-21","V","CFD-AM-223-138-N.jpg",NA,"SUPTM05489"
"41",1689004386042,"10/07/2023 15:53:06",1689007986042,1,"10/07/2023 17:53:06",137495,33,"task-s49y",NA,30599624,9085338,NA,"complete",NA,NA,"computer","Desktop or Laptop","Windows 10","Chrome 114.0.0.0","1536x864","1536x714",NA,NA,NA,"JV Task P1",8,"Anxious",132,"In",NA,2,"BCADKEJFIGH",NA,NA,"A (JV first)",NA,NA,"SS1","SS1",10,"V","Valence","sn1sjn",1,"continue","",3513.31600009536,3498.38299999999,3513.31600009536,3513.31600009536,3498.38299999999,3513.31600009536,1,3513.31600009536,0,0,NA,"Click To Continue","Continue Button",1,"object-25","V","CFD-WM-035-032-N.jpg",NA,"SUPTM05489"
"42",1689004386042,"10/07/2023 15:53:06",1689007986042,1,"10/07/2023 17:53:06",137495,33,"task-s49y",NA,30599624,9085338,NA,"complete",NA,NA,"computer","Desktop or Laptop","Windows 10","Chrome 114.0.0.0","1536x864","1536x714",NA,NA,NA,"JV Task P1",8,"Anxious",132,"In",NA,2,"BCADKEJFIGH",NA,NA,"A (JV first)",NA,NA,"SS1","SS1",10,"V","Valence","sn1sjn",1,"response","34",2898.734,3498.38299999999,3513.61600004768,2898.734,3498.38299999999,3513.61600004768,1,2898.734,614.882000047684,0,NA,"Slider","J",3,"object-27","V","CFD-WM-035-032-N.jpg",NA,"SUPTM05489"
"43",1689004386994,"10/07/2023 15:53:06",1689007986994,1,"10/07/2023 17:53:06",137495,33,"task-s49y",NA,30599624,9085338,NA,"complete",NA,NA,"computer","Desktop or Laptop","Windows 10","Chrome 114.0.0.0","1536x864","1536x714",NA,NA,NA,"JV Task P1",8,"Anxious",132,"In",NA,2,"BCADKEJFIGH",NA,NA,"A (JV first)",NA,NA,"SS1","SS1",10,"V","Fixation","aydkg3",2,"continue","",965.856000000007,965.856000000007,965.856000000007,965.856000000007,965.856000000007,965.856000000007,1,965.856000000007,0,0,NA,"Fixation Timing","Fixation",1,"object-21","V","CFD-WM-035-032-N.jpg",NA,"SUPTM05489"
"44",1689004393310,"10/07/2023 15:53:13",1689007993310,1,"10/07/2023 17:53:13",137495,33,"task-s49y",NA,30599624,9085338,NA,"complete",NA,NA,"computer","Desktop or Laptop","Windows 10","Chrome 114.0.0.0","1536x864","1536x714",NA,NA,NA,"JV Task P1",8,"Anxious",132,"In",NA,2,"BCADKEJFIGH",NA,NA,"A (JV first)",NA,NA,"SS1","SS1",5,"J","Judginess","w2ir4b",1,"continue","",6316.97699995231,6313.648,6316.97699995231,6316.97699995231,6313.648,6316.97699995231,1,6316.97699995231,0,0,NA,"Click To Continue","Continue Button",1,"object-14","J","CFD-MF-315-002-N.jpg",NA,"SUPTM05489"
"45",1689004393312,"10/07/2023 15:53:13",1689007993312,1,"10/07/2023 17:53:13",137495,33,"task-s49y",NA,30599624,9085338,NA,"complete",NA,NA,"computer","Desktop or Laptop","Windows 10","Chrome 114.0.0.0","1536x864","1536x714",NA,NA,NA,"JV Task P1",8,"Anxious",132,"In",NA,2,"BCADKEJFIGH",NA,NA,"A (JV first)",NA,NA,"SS1","SS1",5,"J","Judginess","w2ir4b",1,"response","39",5197.325,6313.648,6319.07700009536,5197.325,6313.648,6319.07700009536,1,5197.325,1121.75200009537,0,NA,"Slider","J",3,"object-18","J","CFD-MF-315-002-N.jpg",NA,"SUPTM05489"
"46",1689004394274,"10/07/2023 15:53:14",1689007994274,1,"10/07/2023 17:53:14",137495,33,"task-s49y",NA,30599624,9085338,NA,"complete",NA,NA,"computer","Desktop or Laptop","Windows 10","Chrome 114.0.0.0","1536x864","1536x714",NA,NA,NA,"JV Task P1",8,"Anxious",132,"In",NA,2,"BCADKEJFIGH",NA,NA,"A (JV first)",NA,NA,"SS1","SS1",5,"J","Fixation","mtm832",2,"continue","",965.986999999994,965.986999999994,965.986999999994,965.986999999994,965.986999999994,965.986999999994,1,965.986999999994,0,0,NA,"Fixation Timing","Fixation",1,"object-65","J","CFD-MF-315-002-N.jpg",NA,"SUPTM05489"
"47",1689004397357,"10/07/2023 15:53:17",1689007997357,1,"10/07/2023 17:53:17",137495,33,"task-s49y",NA,30599624,9085338,NA,"complete",NA,NA,"computer","Desktop or Laptop","Windows 10","Chrome 114.0.0.0","1536x864","1536x714",NA,NA,NA,"JV Task P1",8,"Anxious",132,"In",NA,2,"BCADKEJFIGH",NA,NA,"A (JV first)",NA,NA,"SS1","SS1",11,"V","Valence","sn1sjn",1,"continue","",3084.042,3081.685,3084.042,3084.042,3081.685,3084.042,1,3084.042,0,0,NA,"Click To Continue","Continue Button",1,"object-25","V","CFD-WF-030-002-S.jpeg",NA,"SUPTM05489"
"48",1689004397357,"10/07/2023 15:53:17",1689007997357,1,"10/07/2023 17:53:17",137495,33,"task-s49y",NA,30599624,9085338,NA,"complete",NA,NA,"computer","Desktop or Laptop","Windows 10","Chrome 114.0.0.0","1536x864","1536x714",NA,NA,NA,"JV Task P1",8,"Anxious",132,"In",NA,2,"BCADKEJFIGH",NA,NA,"A (JV first)",NA,NA,"SS1","SS1",11,"V","Valence","sn1sjn",1,"response","44",1932.272,3081.685,3084.34199995232,1932.272,3081.685,3084.34199995232,1,1932.272,1152.06999995232,0,NA,"Slider","J",3,"object-27","V","CFD-WF-030-002-S.jpeg",NA,"SUPTM05489"
"49",1689004398321,"10/07/2023 15:53:18",1689007998321,1,"10/07/2023 17:53:18",137495,33,"task-s49y",NA,30599624,9085338,NA,"complete",NA,NA,"computer","Desktop or Laptop","Windows 10","Chrome 114.0.0.0","1536x864","1536x714",NA,NA,NA,"JV Task P1",8,"Anxious",132,"In",NA,2,"BCADKEJFIGH",NA,NA,"A (JV first)",NA,NA,"SS1","SS1",11,"V","Fixation","aydkg3",2,"continue","",965.774000000005,965.774000000005,965.774000000005,965.774000000005,965.774000000005,965.774000000005,1,965.774000000005,0,0,NA,"Fixation Timing","Fixation",1,"object-21","V","CFD-WF-030-002-S.jpeg",NA,"SUPTM05489"
"50",1689004404194,"10/07/2023 15:53:24",1689008004194,1,"10/07/2023 17:53:24",137495,33,"task-s49y",NA,30599624,9085338,NA,"complete",NA,NA,"computer","Desktop or Laptop","Windows 10","Chrome 114.0.0.0","1536x864","1536x714",NA,NA,NA,"JV Task P1",8,"Anxious",132,"In",NA,2,"BCADKEJFIGH",NA,NA,"A (JV first)",NA,NA,"SS1","SS1",6,"J","Judginess","w2ir4b",1,"continue","",5873.38299995232,5863.783,5873.38299995232,5873.38299995232,5863.783,5873.38299995232,1,5873.38299995232,0,0,NA,"Click To Continue","Continue Button",1,"object-14","J","CFD-BF-030-002-N.jpg",NA,"SUPTM05489"
"51",1689004404195,"10/07/2023 15:53:24",1689008004195,1,"10/07/2023 17:53:24",137495,33,"task-s49y",NA,30599624,9085338,NA,"complete",NA,NA,"computer","Desktop or Laptop","Windows 10","Chrome 114.0.0.0","1536x864","1536x714",NA,NA,NA,"JV Task P1",8,"Anxious",132,"In",NA,2,"BCADKEJFIGH",NA,NA,"A (JV first)",NA,NA,"SS1","SS1",6,"J","Judginess","w2ir4b",1,"response","23",4681.088,5863.783,5875.18299990463,4681.088,5863.783,5875.18299990463,1,4681.088,1194.09499990463,0,NA,"Slider","J",3,"object-18","J","CFD-BF-030-002-N.jpg",NA,"SUPTM05489"
"52",1689004405151,"10/07/2023 15:53:25",1689008005151,1,"10/07/2023 17:53:25",137495,33,"task-s49y",NA,30599624,9085338,NA,"complete",NA,NA,"computer","Desktop or Laptop","Windows 10","Chrome 114.0.0.0","1536x864","1536x714",NA,NA,NA,"JV Task P1",8,"Anxious",132,"In",NA,2,"BCADKEJFIGH",NA,NA,"A (JV first)",NA,NA,"SS1","SS1",6,"J","Fixation","mtm832",2,"continue","",965.843999999997,965.843999999997,965.843999999997,965.843999999997,965.843999999997,965.843999999997,1,965.843999999997,0,0,NA,"Fixation Timing","Fixation",1,"object-65","J","CFD-BF-030-002-N.jpg",NA,"SUPTM05489"
"53",1689004409935,"10/07/2023 15:53:29",1689008009935,1,"10/07/2023 17:53:29",137495,33,"task-s49y",NA,30599624,9085338,NA,"complete",NA,NA,"computer","Desktop or Laptop","Windows 10","Chrome 114.0.0.0","1536x864","1536x714",NA,NA,NA,"JV Task P1",8,"Anxious",132,"In",NA,2,"BCADKEJFIGH",NA,NA,"A (JV first)",NA,NA,"SS1","SS1",12,"V","Valence","sn1sjn",1,"continue","",4770.65600004769,4764.32900000001,4770.65600004769,4770.65600004769,4764.32900000001,4770.65600004769,1,4770.65600004769,0,0,NA,"Click To Continue","Continue Button",1,"object-25","V","CFD-WM-024-015-H.jpeg",NA,"SUPTM05489"
"54",1689004409935,"10/07/2023 15:53:29",1689008009935,1,"10/07/2023 17:53:29",137495,33,"task-s49y",NA,30599624,9085338,NA,"complete",NA,NA,"computer","Desktop or Laptop","Windows 10","Chrome 114.0.0.0","1536x864","1536x714",NA,NA,NA,"JV Task P1",8,"Anxious",132,"In",NA,2,"BCADKEJFIGH",NA,NA,"A (JV first)",NA,NA,"SS1","SS1",12,"V","Valence","sn1sjn",1,"response","70",1965.86500000001,4764.32900000001,4770.95600000001,1965.86500000001,4764.32900000001,4770.95600000001,1,1965.86500000001,2805.091,0,NA,"Slider","J",3,"object-27","V","CFD-WM-024-015-H.jpeg",NA,"SUPTM05489"
"55",1689004410895,"10/07/2023 15:53:30",1689008010895,1,"10/07/2023 17:53:30",137495,33,"task-s49y",NA,30599624,9085338,NA,"complete",NA,NA,"computer","Desktop or Laptop","Windows 10","Chrome 114.0.0.0","1536x864","1536x714",NA,NA,NA,"JV Task P1",8,"Anxious",132,"In",NA,2,"BCADKEJFIGH",NA,NA,"A (JV first)",NA,NA,"SS1","SS1",12,"V","Fixation","aydkg3",2,"continue","",965.746999999988,965.746999999988,965.746999999988,965.746999999988,965.746999999988,965.746999999988,1,965.746999999988,0,0,NA,"Fixation Timing","Fixation",1,"object-21","V","CFD-WM-024-015-H.jpeg",NA,"SUPTM05489"
"56",1689004415660,"10/07/2023 15:53:35",1689008015660,1,"10/07/2023 17:53:35",137495,33,"task-s49y",NA,30599624,9085338,NA,"complete",NA,NA,"computer","Desktop or Laptop","Windows 10","Chrome 114.0.0.0","1536x864","1536x714",NA,NA,NA,"JV Task P1",8,"Anxious",132,"In",NA,2,"BCADKEJFIGH",NA,NA,"A (JV first)",NA,NA,"SS1","SS1",13,"V","Valence","sn1sjn",1,"continue","",4765.38,4764.152,4765.38,4765.38,4764.152,4765.38,1,4765.38,0,0,NA,"Click To Continue","Continue Button",1,"object-25","V","CFD-WF-037-029-N.jpg",NA,"SUPTM05489"
"57",1689004415662,"10/07/2023 15:53:35",1689008015662,1,"10/07/2023 17:53:35",137495,33,"task-s49y",NA,30599624,9085338,NA,"complete",NA,NA,"computer","Desktop or Laptop","Windows 10","Chrome 114.0.0.0","1536x864","1536x714",NA,NA,NA,"JV Task P1",8,"Anxious",132,"In",NA,2,"BCADKEJFIGH",NA,NA,"A (JV first)",NA,NA,"SS1","SS1",13,"V","Valence","sn1sjn",1,"response","49",4031.492,4764.152,4767.58000004769,4031.492,4764.152,4767.58000004769,1,4031.492,736.08800004769,0,NA,"Slider","J",3,"object-27","V","CFD-WF-037-029-N.jpg",NA,"SUPTM05489"
"58",1689004416627,"10/07/2023 15:53:36",1689008016627,1,"10/07/2023 17:53:36",137495,33,"task-s49y",NA,30599624,9085338,NA,"complete",NA,NA,"computer","Desktop or Laptop","Windows 10","Chrome 114.0.0.0","1536x864","1536x714",NA,NA,NA,"JV Task P1",8,"Anxious",132,"In",NA,2,"BCADKEJFIGH",NA,NA,"A (JV first)",NA,NA,"SS1","SS1",13,"V","Fixation","aydkg3",2,"continue","",966.122000000003,966.122000000003,966.122000000003,966.122000000003,966.122000000003,966.122000000003,1,966.122000000003,0,0,NA,"Fixation Timing","Fixation",1,"object-21","V","CFD-WF-037-029-N.jpg",NA,"SUPTM05489"
"59",1689004420770,"10/07/2023 15:53:40",1689008020770,1,"10/07/2023 17:53:40",137495,33,"task-s49y",NA,30599624,9085338,NA,"complete",NA,NA,"computer","Desktop or Laptop","Windows 10","Chrome 114.0.0.0","1536x864","1536x714",NA,NA,NA,"JV Task P1",8,"Anxious",132,"In",NA,2,"BCADKEJFIGH",NA,NA,"A (JV first)",NA,NA,"SS1","SS1",14,"V","Valence","sn1sjn",1,"continue","",4145.106,4131.345,4145.106,4145.106,4131.345,4145.106,1,4145.106,0,0,NA,"Click To Continue","Continue Button",1,"object-25","V","CFD-WF-012-002-N.jpg",NA,"SUPTM05489"
"60",1689004420770,"10/07/2023 15:53:40",1689008020770,1,"10/07/2023 17:53:40",137495,33,"task-s49y",NA,30599624,9085338,NA,"complete",NA,NA,"computer","Desktop or Laptop","Windows 10","Chrome 114.0.0.0","1536x864","1536x714",NA,NA,NA,"JV Task P1",8,"Anxious",132,"In",NA,2,"BCADKEJFIGH",NA,NA,"A (JV first)",NA,NA,"SS1","SS1",14,"V","Valence","sn1sjn",1,"response","32",2781.815,4131.345,4145.40599995232,2781.815,4131.345,4145.40599995232,1,2781.815,1363.59099995231,0,NA,"Slider","J",3,"object-27","V","CFD-WF-012-002-N.jpg",NA,"SUPTM05489"
"61",1689004421722,"10/07/2023 15:53:41",1689008021722,1,"10/07/2023 17:53:41",137495,33,"task-s49y",NA,30599624,9085338,NA,"complete",NA,NA,"computer","Desktop or Laptop","Windows 10","Chrome 114.0.0.0","1536x864","1536x714",NA,NA,NA,"JV Task P1",8,"Anxious",132,"In",NA,2,"BCADKEJFIGH",NA,NA,"A (JV first)",NA,NA,"SS1","SS1",14,"V","Fixation","aydkg3",2,"continue","",966.137000000002,966.137000000002,966.137000000002,966.137000000002,966.137000000002,966.137000000002,1,966.137000000002,0,0,NA,"Fixation Timing","Fixation",1,"object-21","V","CFD-WF-012-002-N.jpg",NA,"SUPTM05489"
"62",1689004425552,"10/07/2023 15:53:45",1689008025552,1,"10/07/2023 17:53:45",137495,33,"task-s49y",NA,30599624,9085338,NA,"complete",NA,NA,"computer","Desktop or Laptop","Windows 10","Chrome 114.0.0.0","1536x864","1536x714",NA,NA,NA,"JV Task P1",8,"Anxious",132,"In",NA,2,"BCADKEJFIGH",NA,NA,"A (JV first)",NA,NA,"SS1","SS1",15,"V","Valence","sn1sjn",1,"continue","",3830.02400009536,3814.595,3830.02400009536,3830.02400009536,3814.595,3830.02400009536,1,3830.02400009536,0,0,NA,"Click To Continue","Continue Button",1,"object-25","V","CFD-BM-045-004-H.jpeg",NA,"SUPTM05489"
"63",1689004425552,"10/07/2023 15:53:45",1689008025552,1,"10/07/2023 17:53:45",137495,33,"task-s49y",NA,30599624,9085338,NA,"complete",NA,NA,"computer","Desktop or Laptop","Windows 10","Chrome 114.0.0.0","1536x864","1536x714",NA,NA,NA,"JV Task P1",8,"Anxious",132,"In",NA,2,"BCADKEJFIGH",NA,NA,"A (JV first)",NA,NA,"SS1","SS1",15,"V","Valence","sn1sjn",1,"response","80",2865.114,3814.595,3830.624,2865.114,3814.595,3830.624,1,2865.114,965.509999999995,0,NA,"Slider","J",3,"object-27","V","CFD-BM-045-004-H.jpeg",NA,"SUPTM05489"
"64",1689004426503,"10/07/2023 15:53:46",1689008026503,1,"10/07/2023 17:53:46",137495,33,"task-s49y",NA,30599624,9085338,NA,"complete",NA,NA,"computer","Desktop or Laptop","Windows 10","Chrome 114.0.0.0","1536x864","1536x714",NA,NA,NA,"JV Task P1",8,"Anxious",132,"In",NA,2,"BCADKEJFIGH",NA,NA,"A (JV first)",NA,NA,"SS1","SS1",15,"V","Fixation","aydkg3",2,"continue","",965.780999999988,965.780999999988,965.780999999988,965.780999999988,965.780999999988,965.780999999988,1,965.780999999988,0,0,NA,"Fixation Timing","Fixation",1,"object-21","V","CFD-BM-045-004-H.jpeg",NA,"SUPTM05489"
"65",1689004429086,"10/07/2023 15:53:49",1689008029086,1,"10/07/2023 17:53:49",137495,33,"task-s49y",NA,30599624,9085338,NA,"complete",NA,NA,"computer","Desktop or Laptop","Windows 10","Chrome 114.0.0.0","1536x864","1536x714",NA,NA,NA,"JV Task P1",8,"Anxious",132,"In",NA,2,"BCADKEJFIGH",NA,NA,"A (JV first)",NA,NA,"SS1","SS1",16,"V","Valence","sn1sjn",1,"continue","",2583.94800004769,2581.94600000001,2583.94800004769,2583.94800004769,2581.94600000001,2583.94800004769,1,2583.94800004769,0,0,NA,"Click To Continue","Continue Button",1,"object-25","V","CFD-WM-024-015-H.jpeg",NA,"SUPTM05489"
"66",1689004429087,"10/07/2023 15:53:49",1689008029087,1,"10/07/2023 17:53:49",137495,33,"task-s49y",NA,30599624,9085338,NA,"complete",NA,NA,"computer","Desktop or Laptop","Windows 10","Chrome 114.0.0.0","1536x864","1536x714",NA,NA,NA,"JV Task P1",8,"Anxious",132,"In",NA,2,"BCADKEJFIGH",NA,NA,"A (JV first)",NA,NA,"SS1","SS1",16,"V","Valence","sn1sjn",1,"response","78",1599.45300000001,2581.94600000001,2584.24800000001,1599.45300000001,2581.94600000001,2584.24800000001,1,1599.45300000001,984.794999999998,0,NA,"Slider","J",3,"object-27","V","CFD-WM-024-015-H.jpeg",NA,"SUPTM05489"
"67",1689004430051,"10/07/2023 15:53:50",1689008030051,1,"10/07/2023 17:53:50",137495,33,"task-s49y",NA,30599624,9085338,NA,"complete",NA,NA,"computer","Desktop or Laptop","Windows 10","Chrome 114.0.0.0","1536x864","1536x714",NA,NA,NA,"JV Task P1",8,"Anxious",132,"In",NA,2,"BCADKEJFIGH",NA,NA,"A (JV first)",NA,NA,"SS1","SS1",16,"V","Fixation","aydkg3",2,"continue","",966.199999999997,966.199999999997,966.199999999997,966.199999999997,966.199999999997,966.199999999997,1,966.199999999997,0,0,NA,"Fixation Timing","Fixation",1,"object-21","V","CFD-WM-024-015-H.jpeg",NA,"SUPTM05489"
"68",1689004432125,"10/07/2023 15:53:52",1689008032125,1,"10/07/2023 17:53:52",137495,33,"task-s49y",NA,30599624,9085338,NA,"complete",NA,NA,"computer","Desktop or Laptop","Windows 10","Chrome 114.0.0.0","1536x864","1536x714",NA,NA,NA,"JV Task P1",8,"Anxious",132,"In",NA,2,"BCADKEJFIGH",NA,NA,"A (JV first)",NA,NA,"SS1","SS1",17,"V","Valence","sn1sjn",1,"continue","",2074.40199995232,2065.458,2074.40199995232,2074.40199995232,2065.458,2074.40199995232,1,2074.40199995232,0,0,NA,"Click To Continue","Continue Button",1,"object-25","V","CFD-WM-034-030-H.jpeg",NA,"SUPTM05489"
"69",1689004432125,"10/07/2023 15:53:52",1689008032125,1,"10/07/2023 17:53:52",137495,33,"task-s49y",NA,30599624,9085338,NA,"complete",NA,NA,"computer","Desktop or Laptop","Windows 10","Chrome 114.0.0.0","1536x864","1536x714",NA,NA,NA,"JV Task P1",8,"Anxious",132,"In",NA,2,"BCADKEJFIGH",NA,NA,"A (JV first)",NA,NA,"SS1","SS1",17,"V","Valence","sn1sjn",1,"response","82",1332.58199999999,2065.458,2074.80200004768,1332.58199999999,2065.458,2074.80200004768,1,1332.58199999999,742.220000047688,0,NA,"Slider","J",3,"object-27","V","CFD-WM-034-030-H.jpeg",NA,"SUPTM05489"
"70",1689004433083,"10/07/2023 15:53:53",1689008033083,1,"10/07/2023 17:53:53",137495,33,"task-s49y",NA,30599624,9085338,NA,"complete",NA,NA,"computer","Desktop or Laptop","Windows 10","Chrome 114.0.0.0","1536x864","1536x714",NA,NA,NA,"JV Task P1",8,"Anxious",132,"In",NA,2,"BCADKEJFIGH",NA,NA,"A (JV first)",NA,NA,"SS1","SS1",17,"V","Fixation","aydkg3",2,"continue","",966.217000000004,966.217000000004,966.217000000004,966.217000000004,966.217000000004,966.217000000004,1,966.217000000004,0,0,NA,"Fixation Timing","Fixation",1,"object-21","V","CFD-WM-034-030-H.jpeg",NA,"SUPTM05489"
"71",1689004437034,"10/07/2023 15:53:57",1689008037034,1,"10/07/2023 17:53:57",137495,33,"task-s49y",NA,30599624,9085338,NA,"complete",NA,NA,"computer","Desktop or Laptop","Windows 10","Chrome 114.0.0.0","1536x864","1536x714",NA,NA,NA,"JV Task P1",8,"Anxious",132,"In",NA,2,"BCADKEJFIGH",NA,NA,"A (JV first)",NA,NA,"SS1","SS1",18,"V","Valence","sn1sjn",1,"continue","",3951.927,3948.06599999999,3951.927,3951.927,3948.06599999999,3951.927,1,3951.927,0,0,NA,"Click To Continue","Continue Button",1,"object-25","V","CFD-WM-035-032-S.jpeg",NA,"SUPTM05489"
"72",1689004437036,"10/07/2023 15:53:57",1689008037036,1,"10/07/2023 17:53:57",137495,33,"task-s49y",NA,30599624,9085338,NA,"complete",NA,NA,"computer","Desktop or Laptop","Windows 10","Chrome 114.0.0.0","1536x864","1536x714",NA,NA,NA,"JV Task P1",8,"Anxious",132,"In",NA,2,"BCADKEJFIGH",NA,NA,"A (JV first)",NA,NA,"SS1","SS1",18,"V","Valence","sn1sjn",1,"response","26",2182.137,3948.06599999999,3954.22699995231,2182.137,3948.06599999999,3954.22699995231,1,2182.137,1772.08999995231,0,NA,"Slider","J",3,"object-27","V","CFD-WM-035-032-S.jpeg",NA,"SUPTM05489"
"73",1689004437997,"10/07/2023 15:53:57",1689008037997,1,"10/07/2023 17:53:57",137495,33,"task-s49y",NA,30599624,9085338,NA,"complete",NA,NA,"computer","Desktop or Laptop","Windows 10","Chrome 114.0.0.0","1536x864","1536x714",NA,NA,NA,"JV Task P1",8,"Anxious",132,"In",NA,2,"BCADKEJFIGH",NA,NA,"A (JV first)",NA,NA,"SS1","SS1",18,"V","Fixation","aydkg3",2,"continue","",966.137000000002,966.137000000002,966.137000000002,966.137000000002,966.137000000002,966.137000000002,1,966.137000000002,0,0,NA,"Fixation Timing","Fixation",1,"object-21","V","CFD-WM-035-032-S.jpeg",NA,"SUPTM05489"
"74",1689004441496,"10/07/2023 15:54:01",1689008041496,1,"10/07/2023 17:54:01",137495,33,"task-s49y",NA,30599624,9085338,NA,"complete",NA,NA,"computer","Desktop or Laptop","Windows 10","Chrome 114.0.0.0","1536x864","1536x714",NA,NA,NA,"JV Task P1",8,"Anxious",132,"In",NA,2,"BCADKEJFIGH",NA,NA,"A (JV first)",NA,NA,"SS1","SS1",19,"V","Valence","sn1sjn",1,"continue","",3500.02399995232,3498.075,3500.02399995232,3500.02399995232,3498.075,3500.02399995232,1,3500.02399995232,0,0,NA,"Click To Continue","Continue Button",1,"object-25","V","CFD-WF-037-029-H.jpeg",NA,"SUPTM05489"
"75",1689004441497,"10/07/2023 15:54:01",1689008041497,1,"10/07/2023 17:54:01",137495,33,"task-s49y",NA,30599624,9085338,NA,"complete",NA,NA,"computer","Desktop or Laptop","Windows 10","Chrome 114.0.0.0","1536x864","1536x714",NA,NA,NA,"JV Task P1",8,"Anxious",132,"In",NA,2,"BCADKEJFIGH",NA,NA,"A (JV first)",NA,NA,"SS1","SS1",19,"V","Valence","sn1sjn",1,"response","73",2332.09600000001,3498.075,3500.32399990463,2332.09600000001,3498.075,3500.32399990463,1,2332.09600000001,1168.22799990463,0,NA,"Slider","J",3,"object-27","V","CFD-WF-037-029-H.jpeg",NA,"SUPTM05489"
"76",1689004442461,"10/07/2023 15:54:02",1689008042461,1,"10/07/2023 17:54:02",137495,33,"task-s49y",NA,30599624,9085338,NA,"complete",NA,NA,"computer","Desktop or Laptop","Windows 10","Chrome 114.0.0.0","1536x864","1536x714",NA,NA,NA,"JV Task P1",8,"Anxious",132,"In",NA,2,"BCADKEJFIGH",NA,NA,"A (JV first)",NA,NA,"SS1","SS1",19,"V","Fixation","aydkg3",2,"continue","",965.853000000003,965.853000000003,965.853000000003,965.853000000003,965.853000000003,965.853000000003,1,965.853000000003,0,0,NA,"Fixation Timing","Fixation",1,"object-21","V","CFD-WF-037-029-H.jpeg",NA,"SUPTM05489"
"77",1689004444704,"10/07/2023 15:54:04",1689008044704,1,"10/07/2023 17:54:04",137495,33,"task-s49y",NA,30599624,9085338,NA,"complete",NA,NA,"computer","Desktop or Laptop","Windows 10","Chrome 114.0.0.0","1536x864","1536x714",NA,NA,NA,"JV Task P1",8,"Anxious",132,"In",NA,2,"BCADKEJFIGH",NA,NA,"A (JV first)",NA,NA,"SS1","SS1",20,"V","Valence","sn1sjn",1,"continue","",2243.49600004769,2232.41900000001,2243.49600004769,2243.49600004769,2232.41900000001,2243.49600004769,1,2243.49600004769,0,0,NA,"Click To Continue","Continue Button",1,"object-25","V","CFD-WF-039-025-N.jpg",NA,"SUPTM05489"
"78",1689004447007,"10/07/2023 15:54:07",1689008047007,1,"10/07/2023 17:54:07",137495,33,"task-s49y",NA,30599624,9085338,NA,"complete",NA,NA,"computer","Desktop or Laptop","Windows 10","Chrome 114.0.0.0","1536x864","1536x714",NA,NA,NA,"JV Task P1",8,"Anxious",132,"In",NA,2,"BCADKEJFIGH",NA,NA,"A (JV first)",NA,NA,"SS1","SS1",20,"V","Valence","sn1sjn",1,"continue","",4546.296,4531.117,4546.296,4546.296,4531.117,4546.296,1,4546.296,0,0,NA,"Click To Continue","Continue Button",1,"object-25","V","CFD-WF-039-025-N.jpg",NA,"SUPTM05489"
"79",1689004447007,"10/07/2023 15:54:07",1689008047007,1,"10/07/2023 17:54:07",137495,33,"task-s49y",NA,30599624,9085338,NA,"complete",NA,NA,"computer","Desktop or Laptop","Windows 10","Chrome 114.0.0.0","1536x864","1536x714",NA,NA,NA,"JV Task P1",8,"Anxious",132,"In",NA,2,"BCADKEJFIGH",NA,NA,"A (JV first)",NA,NA,"SS1","SS1",20,"V","Valence","sn1sjn",1,"response","47",3581.65399999999,4531.117,4546.89599990463,3581.65399999999,4531.117,4546.89599990463,1,3581.65399999999,965.24199990464,0,NA,"Slider","J",3,"object-27","V","CFD-WF-039-025-N.jpg",NA,"SUPTM05489"
"80",1689004447958,"10/07/2023 15:54:07",1689008047958,1,"10/07/2023 17:54:07",137495,33,"task-s49y",NA,30599624,9085338,NA,"complete",NA,NA,"computer","Desktop or Laptop","Windows 10","Chrome 114.0.0.0","1536x864","1536x714",NA,NA,NA,"JV Task P1",8,"Anxious",132,"In",NA,2,"BCADKEJFIGH",NA,NA,"A (JV first)",NA,NA,"SS1","SS1",20,"V","Fixation","aydkg3",2,"continue","",965.915999999997,965.915999999997,965.915999999997,965.915999999997,965.915999999997,965.915999999997,1,965.915999999997,0,0,NA,"Fixation Timing","Fixation",1,"object-21","V","CFD-WF-039-025-N.jpg",NA,"SUPTM05489"
"81",1689004451045,"10/07/2023 15:54:11",1689008051045,1,"10/07/2023 17:54:11",137495,33,"task-s49y",NA,30599624,9085338,NA,"complete",NA,NA,"computer","Desktop or Laptop","Windows 10","Chrome 114.0.0.0","1536x864","1536x714",NA,NA,NA,"JV Task P1",8,"Anxious",132,"In",NA,2,"BCADKEJFIGH",NA,NA,"A (JV first)",NA,NA,"SS1","SS1",21,"V","Valence","sn1sjn",1,"continue","",3087.36299990464,3081.871,3087.36299990464,3087.36299990464,3081.871,3087.36299990464,1,3087.36299990464,0,0,NA,"Click To Continue","Continue Button",1,"object-25","V","CFD-BM-028-002-N.jpg",NA,"SUPTM05489"
"82",1689004451045,"10/07/2023 15:54:11",1689008051045,1,"10/07/2023 17:54:11",137495,33,"task-s49y",NA,30599624,9085338,NA,"complete",NA,NA,"computer","Desktop or Laptop","Windows 10","Chrome 114.0.0.0","1536x864","1536x714",NA,NA,NA,"JV Task P1",8,"Anxious",132,"In",NA,2,"BCADKEJFIGH",NA,NA,"A (JV first)",NA,NA,"SS1","SS1",21,"V","Valence","sn1sjn",1,"response","44",1865.894,3081.871,3087.56299995232,1865.894,3081.871,3087.56299995232,1,1865.894,1221.66899995232,0,NA,"Slider","J",3,"object-27","V","CFD-BM-028-002-N.jpg",NA,"SUPTM05489"
"83",1689004452005,"10/07/2023 15:54:12",1689008052005,1,"10/07/2023 17:54:12",137495,33,"task-s49y",NA,30599624,9085338,NA,"complete",NA,NA,"computer","Desktop or Laptop","Windows 10","Chrome 114.0.0.0","1536x864","1536x714",NA,NA,NA,"JV Task P1",8,"Anxious",132,"In",NA,2,"BCADKEJFIGH",NA,NA,"A (JV first)",NA,NA,"SS1","SS1",21,"V","Fixation","aydkg3",2,"continue","",965.761000000013,965.761000000013,965.761000000013,965.761000000013,965.761000000013,965.761000000013,1,965.761000000013,0,0,NA,"Fixation Timing","Fixation",1,"object-21","V","CFD-BM-028-002-N.jpg",NA,"SUPTM05489"
"84",1689004455659,"10/07/2023 15:54:15",1689008055659,1,"10/07/2023 17:54:15",137495,33,"task-s49y",NA,30599624,9085338,NA,"complete",NA,NA,"computer","Desktop or Laptop","Windows 10","Chrome 114.0.0.0","1536x864","1536x714",NA,NA,NA,"JV Task P1",8,"Anxious",132,"In",NA,2,"BCADKEJFIGH",NA,NA,"A (JV first)",NA,NA,"SS1","SS1",7,"J","Judginess","w2ir4b",1,"continue","",3653.83100004768,3648.48499999999,3653.83100004768,3653.83100004768,3648.48499999999,3653.83100004768,1,3653.83100004768,0,0,NA,"Click To Continue","Continue Button",1,"object-14","J","CFD-WF-027-003-H.jpeg",NA,"SUPTM05489"
"85",1689004455659,"10/07/2023 15:54:15",1689008055659,1,"10/07/2023 17:54:15",137495,33,"task-s49y",NA,30599624,9085338,NA,"complete",NA,NA,"computer","Desktop or Laptop","Windows 10","Chrome 114.0.0.0","1536x864","1536x714",NA,NA,NA,"JV Task P1",8,"Anxious",132,"In",NA,2,"BCADKEJFIGH",NA,NA,"A (JV first)",NA,NA,"SS1","SS1",7,"J","Judginess","w2ir4b",1,"response","40",3015.38800000001,3648.48499999999,3654.33100004768,3015.38800000001,3648.48499999999,3654.33100004768,1,3015.38800000001,638.943000047671,0,NA,"Slider","J",3,"object-18","J","CFD-WF-027-003-H.jpeg",NA,"SUPTM05489"
"86",1689004456620,"10/07/2023 15:54:16",1689008056620,1,"10/07/2023 17:54:16",137495,33,"task-s49y",NA,30599624,9085338,NA,"complete",NA,NA,"computer","Desktop or Laptop","Windows 10","Chrome 114.0.0.0","1536x864","1536x714",NA,NA,NA,"JV Task P1",8,"Anxious",132,"In",NA,2,"BCADKEJFIGH",NA,NA,"A (JV first)",NA,NA,"SS1","SS1",7,"J","Fixation","mtm832",2,"continue","",965.793999999994,965.793999999994,965.793999999994,965.793999999994,965.793999999994,965.793999999994,1,965.793999999994,0,0,NA,"Fixation Timing","Fixation",1,"object-65","J","CFD-WF-027-003-H.jpeg",NA,"SUPTM05489"
"87",1689004460217,"10/07/2023 15:54:20",1689008060217,1,"10/07/2023 17:54:20",137495,33,"task-s49y",NA,30599624,9085338,NA,"complete",NA,NA,"computer","Desktop or Laptop","Windows 10","Chrome 114.0.0.0","1536x864","1536x714",NA,NA,NA,"JV Task P1",8,"Anxious",132,"In",NA,2,"BCADKEJFIGH",NA,NA,"A (JV first)",NA,NA,"SS1","SS1",22,"V","Valence","sn1sjn",1,"continue","",3597.65199995233,3581.58900000001,3597.65199995233,3597.65199995233,3581.58900000001,3597.65199995233,1,3597.65199995233,0,0,NA,"Click To Continue","Continue Button",1,"object-25","V","CFD-WM-028-003-N.jpg",NA,"SUPTM05489"
"88",1689004460219,"10/07/2023 15:54:20",1689008060219,1,"10/07/2023 17:54:20",137495,33,"task-s49y",NA,30599624,9085338,NA,"complete",NA,NA,"computer","Desktop or Laptop","Windows 10","Chrome 114.0.0.0","1536x864","1536x714",NA,NA,NA,"JV Task P1",8,"Anxious",132,"In",NA,2,"BCADKEJFIGH",NA,NA,"A (JV first)",NA,NA,"SS1","SS1",22,"V","Valence","sn1sjn",1,"response","50",2548.86600000001,3581.58900000001,3598.247,2548.86600000001,3581.58900000001,3598.247,1,2548.86600000001,1049.38099999999,0,NA,"Slider","J",3,"object-27","V","CFD-WM-028-003-N.jpg",NA,"SUPTM05489"
"89",1689004461167,"10/07/2023 15:54:21",1689008061167,1,"10/07/2023 17:54:21",137495,33,"task-s49y",NA,30599624,9085338,NA,"complete",NA,NA,"computer","Desktop or Laptop","Windows 10","Chrome 114.0.0.0","1536x864","1536x714",NA,NA,NA,"JV Task P1",8,"Anxious",132,"In",NA,2,"BCADKEJFIGH",NA,NA,"A (JV first)",NA,NA,"SS1","SS1",22,"V","Fixation","aydkg3",2,"continue","",965.754000000015,965.754000000015,965.754000000015,965.754000000015,965.754000000015,965.754000000015,1,965.754000000015,0,0,NA,"Fixation Timing","Fixation",1,"object-21","V","CFD-WM-028-003-N.jpg",NA,"SUPTM05489"
"90",1689004466462,"10/07/2023 15:54:26",1689008066462,1,"10/07/2023 17:54:26",137495,33,"task-s49y",NA,30599624,9085338,NA,"complete",NA,NA,"computer","Desktop or Laptop","Windows 10","Chrome 114.0.0.0","1536x864","1536x714",NA,NA,NA,"JV Task P1",8,"Anxious",132,"In",NA,2,"BCADKEJFIGH",NA,NA,"A (JV first)",NA,NA,"SS1","SS1",8,"J","Judginess","w2ir4b",1,"continue","",5295.20900004767,5280.80499999999,5295.20900004767,5295.20900004767,5280.80499999999,5295.20900004767,1,5295.20900004767,0,0,NA,"Click To Continue","Continue Button",1,"object-14","J","CFD-MF-309-002-N.jpg",NA,"SUPTM05489"
"91",1689004466462,"10/07/2023 15:54:26",1689008066462,1,"10/07/2023 17:54:26",137495,33,"task-s49y",NA,30599624,9085338,NA,"complete",NA,NA,"computer","Desktop or Laptop","Windows 10","Chrome 114.0.0.0","1536x864","1536x714",NA,NA,NA,"JV Task P1",8,"Anxious",132,"In",NA,2,"BCADKEJFIGH",NA,NA,"A (JV first)",NA,NA,"SS1","SS1",8,"J","Judginess","w2ir4b",1,"response","43",4581.03899999999,5280.80499999999,5295.60899990462,4581.03899999999,5280.80499999999,5295.60899990462,1,4581.03899999999,714.569999904634,0,NA,"Slider","J",3,"object-18","J","CFD-MF-309-002-N.jpg",NA,"SUPTM05489"
"92",1689004467414,"10/07/2023 15:54:27",1689008067414,1,"10/07/2023 17:54:27",137495,33,"task-s49y",NA,30599624,9085338,NA,"complete",NA,NA,"computer","Desktop or Laptop","Windows 10","Chrome 114.0.0.0","1536x864","1536x714",NA,NA,NA,"JV Task P1",8,"Anxious",132,"In",NA,2,"BCADKEJFIGH",NA,NA,"A (JV first)",NA,NA,"SS1","SS1",8,"J","Fixation","mtm832",2,"continue","",966.157000000007,966.157000000007,966.157000000007,966.157000000007,966.157000000007,966.157000000007,1,966.157000000007,0,0,NA,"Fixation Timing","Fixation",1,"object-65","J","CFD-MF-309-002-N.jpg",NA,"SUPTM05489"
"93",1689004471142,"10/07/2023 15:54:31",1689008071142,1,"10/07/2023 17:54:31",137495,33,"task-s49y",NA,30599624,9085338,NA,"complete",NA,NA,"computer","Desktop or Laptop","Windows 10","Chrome 114.0.0.0","1536x864","1536x714",NA,NA,NA,"JV Task P1",8,"Anxious",132,"In",NA,2,"BCADKEJFIGH",NA,NA,"A (JV first)",NA,NA,"SS1","SS1",23,"V","Valence","sn1sjn",1,"continue","",3717.94700009536,3714.291,3717.94700009536,3717.94700009536,3714.291,3717.94700009536,1,3717.94700009536,0,0,NA,"Click To Continue","Continue Button",1,"object-25","V","CFD-IM-711-011-H.jpeg",NA,"SUPTM05489"
"94",1689004471144,"10/07/2023 15:54:31",1689008071144,1,"10/07/2023 17:54:31",137495,33,"task-s49y",NA,30599624,9085338,NA,"complete",NA,NA,"computer","Desktop or Laptop","Windows 10","Chrome 114.0.0.0","1536x864","1536x714",NA,NA,NA,"JV Task P1",8,"Anxious",132,"In",NA,2,"BCADKEJFIGH",NA,NA,"A (JV first)",NA,NA,"SS1","SS1",23,"V","Valence","sn1sjn",1,"response","82",2398.28599999999,3714.291,3720.04699999999,2398.28599999999,3714.291,3720.04699999999,1,2398.28599999999,1321.761,0,NA,"Slider","J",3,"object-27","V","CFD-IM-711-011-H.jpeg",NA,"SUPTM05489"
"95",1689004472105,"10/07/2023 15:54:32",1689008072105,1,"10/07/2023 17:54:32",137495,33,"task-s49y",NA,30599624,9085338,NA,"complete",NA,NA,"computer","Desktop or Laptop","Windows 10","Chrome 114.0.0.0","1536x864","1536x714",NA,NA,NA,"JV Task P1",8,"Anxious",132,"In",NA,2,"BCADKEJFIGH",NA,NA,"A (JV first)",NA,NA,"SS1","SS1",23,"V","Fixation","aydkg3",2,"continue","",966.370999999985,966.370999999985,966.370999999985,966.370999999985,966.370999999985,966.370999999985,1,966.370999999985,0,0,NA,"Fixation Timing","Fixation",1,"object-21","V","CFD-IM-711-011-H.jpeg",NA,"SUPTM05489"
"96",1689004476100,"10/07/2023 15:54:36",1689008076100,1,"10/07/2023 17:54:36",137495,33,"task-s49y",NA,30599624,9085338,NA,"complete",NA,NA,"computer","Desktop or Laptop","Windows 10","Chrome 114.0.0.0","1536x864","1536x714",NA,NA,NA,"JV Task P1",8,"Anxious",132,"In",NA,2,"BCADKEJFIGH",NA,NA,"A (JV first)",NA,NA,"SS1","SS1",24,"V","Valence","sn1sjn",1,"continue","",3995.28500009538,3980.87900000002,3995.28500009538,3995.28500009538,3980.87900000002,3995.28500009538,1,3995.28500009538,0,0,NA,"Click To Continue","Continue Button",1,"object-25","V","CFD-WF-006-002-S.jpeg",NA,"SUPTM05489"
"97",1689004476100,"10/07/2023 15:54:36",1689008076100,1,"10/07/2023 17:54:36",137495,33,"task-s49y",NA,30599624,9085338,NA,"complete",NA,NA,"computer","Desktop or Laptop","Windows 10","Chrome 114.0.0.0","1536x864","1536x714",NA,NA,NA,"JV Task P1",8,"Anxious",132,"In",NA,2,"BCADKEJFIGH",NA,NA,"A (JV first)",NA,NA,"SS1","SS1",24,"V","Valence","sn1sjn",1,"response","50",2831.86300000001,3980.87900000002,3995.68499995233,2831.86300000001,3980.87900000002,3995.68499995233,1,2831.86300000001,1163.82199995231,0,NA,"Slider","J",3,"object-27","V","CFD-WF-006-002-S.jpeg",NA,"SUPTM05489"
"98",1689004477052,"10/07/2023 15:54:37",1689008077052,1,"10/07/2023 17:54:37",137495,33,"task-s49y",NA,30599624,9085338,NA,"complete",NA,NA,"computer","Desktop or Laptop","Windows 10","Chrome 114.0.0.0","1536x864","1536x714",NA,NA,NA,"JV Task P1",8,"Anxious",132,"In",NA,2,"BCADKEJFIGH",NA,NA,"A (JV first)",NA,NA,"SS1","SS1",24,"V","Fixation","aydkg3",2,"continue","",966.18299999999,966.18299999999,966.18299999999,966.18299999999,966.18299999999,966.18299999999,1,966.18299999999,0,0,NA,"Fixation Timing","Fixation",1,"object-21","V","CFD-WF-006-002-S.jpeg",NA,"SUPTM05489"
"99",1689004480114,"10/07/2023 15:54:40",1689008080114,1,"10/07/2023 17:54:40",137495,33,"task-s49y",NA,30599624,9085338,NA,"complete",NA,NA,"computer","Desktop or Laptop","Windows 10","Chrome 114.0.0.0","1536x864","1536x714",NA,NA,NA,"JV Task P1",8,"Anxious",132,"In",NA,2,"BCADKEJFIGH",NA,NA,"A (JV first)",NA,NA,"SS1","SS1",25,"V","Valence","sn1sjn",1,"continue","",3062.62299995232,3048.35399999999,3062.62299995232,3062.62299995232,3048.35399999999,3062.62299995232,1,3062.62299995232,0,0,NA,"Click To Continue","Continue Button",1,"object-25","V","CFD-IF-693-172-N.jpg",NA,"SUPTM05489"
"100",1689004480115,"10/07/2023 15:54:40",1689008080115,1,"10/07/2023 17:54:40",137495,33,"task-s49y",NA,30599624,9085338,NA,"complete",NA,NA,"computer","Desktop or Laptop","Windows 10","Chrome 114.0.0.0","1536x864","1536x714",NA,NA,NA,"JV Task P1",8,"Anxious",132,"In",NA,2,"BCADKEJFIGH",NA,NA,"A (JV first)",NA,NA,"SS1","SS1",25,"V","Valence","sn1sjn",1,"response","49",2365.68700000001,3048.35399999999,3063.12299995232,2365.68700000001,3048.35399999999,3063.12299995232,1,2365.68700000001,697.435999952315,0,NA,"Slider","J",3,"object-27","V","CFD-IF-693-172-N.jpg",NA,"SUPTM05489"
"101",1689004481067,"10/07/2023 15:54:41",1689008081067,1,"10/07/2023 17:54:41",137495,33,"task-s49y",NA,30599624,9085338,NA,"complete",NA,NA,"computer","Desktop or Laptop","Windows 10","Chrome 114.0.0.0","1536x864","1536x714",NA,NA,NA,"JV Task P1",8,"Anxious",132,"In",NA,2,"BCADKEJFIGH",NA,NA,"A (JV first)",NA,NA,"SS1","SS1",25,"V","Fixation","aydkg3",2,"continue","",966.478000000003,966.478000000003,966.478000000003,966.478000000003,966.478000000003,966.478000000003,1,966.478000000003,0,0,NA,"Fixation Timing","Fixation",1,"object-21","V","CFD-IF-693-172-N.jpg",NA,"SUPTM05489"
"102",1689004484449,"10/07/2023 15:54:44",1689008084449,1,"10/07/2023 17:54:44",137495,33,"task-s49y",NA,30599624,9085338,NA,"complete",NA,NA,"computer","Desktop or Laptop","Windows 10","Chrome 114.0.0.0","1536x864","1536x714",NA,NA,NA,"JV Task P1",8,"Anxious",132,"In",NA,2,"BCADKEJFIGH",NA,NA,"A (JV first)",NA,NA,"SS1","SS1",26,"V","Valence","sn1sjn",1,"continue","",3382.39100009538,3381.11900000001,3382.39100009538,3382.39100009538,3381.11900000001,3382.39100009538,1,3382.39100009538,0,0,NA,"Click To Continue","Continue Button",1,"object-25","V","CFD-WF-012-002-N.jpg",NA,"SUPTM05489"
"103",1689004484451,"10/07/2023 15:54:44",1689008084451,1,"10/07/2023 17:54:44",137495,33,"task-s49y",NA,30599624,9085338,NA,"complete",NA,NA,"computer","Desktop or Laptop","Windows 10","Chrome 114.0.0.0","1536x864","1536x714",NA,NA,NA,"JV Task P1",8,"Anxious",132,"In",NA,2,"BCADKEJFIGH",NA,NA,"A (JV first)",NA,NA,"SS1","SS1",26,"V","Valence","sn1sjn",1,"response","44",2731.76300000001,3381.11900000001,3385.29099995233,2731.76300000001,3381.11900000001,3385.29099995233,1,2731.76300000001,653.527999952319,0,NA,"Slider","J",3,"object-27","V","CFD-WF-012-002-N.jpg",NA,"SUPTM05489"
"104",1689004485414,"10/07/2023 15:54:45",1689008085414,1,"10/07/2023 17:54:45",137495,33,"task-s49y",NA,30599624,9085338,NA,"complete",NA,NA,"computer","Desktop or Laptop","Windows 10","Chrome 114.0.0.0","1536x864","1536x714",NA,NA,NA,"JV Task P1",8,"Anxious",132,"In",NA,2,"BCADKEJFIGH",NA,NA,"A (JV first)",NA,NA,"SS1","SS1",26,"V","Fixation","aydkg3",2,"continue","",966.233999999997,966.233999999997,966.233999999997,966.233999999997,966.233999999997,966.233999999997,1,966.233999999997,0,0,NA,"Fixation Timing","Fixation",1,"object-21","V","CFD-WF-012-002-N.jpg",NA,"SUPTM05489"
"105",1689004493733,"10/07/2023 15:54:53",1689008093733,1,"10/07/2023 17:54:53",137495,33,"task-s49y",NA,30599624,9085338,NA,"complete",NA,NA,"computer","Desktop or Laptop","Windows 10","Chrome 114.0.0.0","1536x864","1536x714",NA,NA,NA,"JV Task P1",8,"Anxious",132,"In",NA,2,"BCADKEJFIGH",NA,NA,"A (JV first)",NA,NA,"SS1","SS1",9,"J","Judginess","w2ir4b",1,"continue","",8319.23799990464,8312.06200000001,8319.23799990464,8319.23799990464,8312.06200000001,8319.23799990464,1,8319.23799990464,0,0,NA,"Click To Continue","Continue Button",1,"object-14","J","CFD-IM-695-001-H.jpeg",NA,"SUPTM05489"
"106",1689004493733,"10/07/2023 15:54:53",1689008093733,1,"10/07/2023 17:54:53",137495,33,"task-s49y",NA,30599624,9085338,NA,"complete",NA,NA,"computer","Desktop or Laptop","Windows 10","Chrome 114.0.0.0","1536x864","1536x714",NA,NA,NA,"JV Task P1",8,"Anxious",132,"In",NA,2,"BCADKEJFIGH",NA,NA,"A (JV first)",NA,NA,"SS1","SS1",9,"J","Judginess","w2ir4b",1,"response","72",7679.30800000002,8312.06200000001,8319.43799995232,7679.30800000002,8312.06200000001,8319.43799995232,1,7679.30800000002,640.129999952303,0,NA,"Slider","J",3,"object-18","J","CFD-IM-695-001-H.jpeg",NA,"SUPTM05489"
"107",1689004494693,"10/07/2023 15:54:54",1689008094693,1,"10/07/2023 17:54:54",137495,33,"task-s49y",NA,30599624,9085338,NA,"complete",NA,NA,"computer","Desktop or Laptop","Windows 10","Chrome 114.0.0.0","1536x864","1536x714",NA,NA,NA,"JV Task P1",8,"Anxious",132,"In",NA,2,"BCADKEJFIGH",NA,NA,"A (JV first)",NA,NA,"SS1","SS1",9,"J","Fixation","mtm832",2,"continue","",966.385000000009,966.385000000009,966.385000000009,966.385000000009,966.385000000009,966.385000000009,1,966.385000000009,0,0,NA,"Fixation Timing","Fixation",1,"object-65","J","CFD-IM-695-001-H.jpeg",NA,"SUPTM05489"
"108",1689004501689,"10/07/2023 15:55:01",1689008101689,1,"10/07/2023 17:55:01",137495,33,"task-s49y",NA,30599624,9085338,NA,"complete",NA,NA,"computer","Desktop or Laptop","Windows 10","Chrome 114.0.0.0","1536x864","1536x714",NA,NA,NA,"JV Task P1",8,"Anxious",132,"In",NA,2,"BCADKEJFIGH",NA,NA,"A (JV first)",NA,NA,"SS1","SS1",27,"V","Valence","sn1sjn",1,"continue","",6996.99099995231,6995.78599999999,6996.99099995231,6996.99099995231,6995.78599999999,6996.99099995231,1,6996.99099995231,0,0,NA,"Click To Continue","Continue Button",1,"object-25","V","CFD-BM-036-003-H.jpeg",NA,"SUPTM05489"
"109",1689004501689,"10/07/2023 15:55:01",1689008101689,1,"10/07/2023 17:55:01",137495,33,"task-s49y",NA,30599624,9085338,NA,"complete",NA,NA,"computer","Desktop or Laptop","Windows 10","Chrome 114.0.0.0","1536x864","1536x714",NA,NA,NA,"JV Task P1",8,"Anxious",132,"In",NA,2,"BCADKEJFIGH",NA,NA,"A (JV first)",NA,NA,"SS1","SS1",27,"V","Valence","sn1sjn",1,"response","76",3897.54399999999,6995.78599999999,6997.29099990462,3897.54399999999,6995.78599999999,6997.29099990462,1,3897.54399999999,3099.74699990463,0,NA,"Slider","J",3,"object-27","V","CFD-BM-036-003-H.jpeg",NA,"SUPTM05489"
"110",1689004502655,"10/07/2023 15:55:02",1689008102655,1,"10/07/2023 17:55:02",137495,33,"task-s49y",NA,30599624,9085338,NA,"complete",NA,NA,"computer","Desktop or Laptop","Windows 10","Chrome 114.0.0.0","1536x864","1536x714",NA,NA,NA,"JV Task P1",8,"Anxious",132,"In",NA,2,"BCADKEJFIGH",NA,NA,"A (JV first)",NA,NA,"SS1","SS1",27,"V","Fixation","aydkg3",2,"continue","",966.486000000004,966.486000000004,966.486000000004,966.486000000004,966.486000000004,966.486000000004,1,966.486000000004,0,0,NA,"Fixation Timing","Fixation",1,"object-21","V","CFD-BM-036-003-H.jpeg",NA,"SUPTM05489"
"111",1689004521105,"10/07/2023 15:55:21",1689008121105,1,"10/07/2023 17:55:21",137495,33,"task-s49y",NA,30599624,9085338,NA,"complete",NA,NA,"computer","Desktop or Laptop","Windows 10","Chrome 114.0.0.0","1536x864","1536x714",NA,NA,NA,"JV Task P1",8,"Anxious",132,"In",NA,2,"BCADKEJFIGH",NA,NA,"A (JV first)",NA,NA,"SS1","SS1",28,"V","Valence","sn1sjn",1,"continue","",18450.7189999523,18439.854,18450.7189999523,18450.7189999523,18439.854,18450.7189999523,1,18450.7189999523,0,0,NA,"Click To Continue","Continue Button",1,"object-25","V","CFD-WF-030-002-H.jpeg",NA,"SUPTM05489"
"112",1689004521107,"10/07/2023 15:55:21",1689008121107,1,"10/07/2023 17:55:21",137495,33,"task-s49y",NA,30599624,9085338,NA,"complete",NA,NA,"computer","Desktop or Laptop","Windows 10","Chrome 114.0.0.0","1536x864","1536x714",NA,NA,NA,"JV Task P1",8,"Anxious",132,"In",NA,2,"BCADKEJFIGH",NA,NA,"A (JV first)",NA,NA,"SS1","SS1",28,"V","Valence","sn1sjn",1,"response","79",17256.875,18439.854,18453.0189999046,17256.875,18439.854,18453.0189999046,1,17256.875,1196.14399990463,0,NA,"Slider","J",3,"object-27","V","CFD-WF-030-002-H.jpeg",NA,"SUPTM05489"
"113",1689004522061,"10/07/2023 15:55:22",1689008122061,1,"10/07/2023 17:55:22",137495,33,"task-s49y",NA,30599624,9085338,NA,"complete",NA,NA,"computer","Desktop or Laptop","Windows 10","Chrome 114.0.0.0","1536x864","1536x714",NA,NA,NA,"JV Task P1",8,"Anxious",132,"In",NA,2,"BCADKEJFIGH",NA,NA,"A (JV first)",NA,NA,"SS1","SS1",28,"V","Fixation","aydkg3",2,"continue","",966.007000000012,966.007000000012,966.007000000012,966.007000000012,966.007000000012,966.007000000012,1,966.007000000012,0,0,NA,"Fixation Timing","Fixation",1,"object-21","V","CFD-WF-030-002-H.jpeg",NA,"SUPTM05489"
"114",1689004539531,"10/07/2023 15:55:39",1689008139531,1,"10/07/2023 17:55:39",137495,33,"task-s49y",NA,30599624,9085338,NA,"complete",NA,NA,"computer","Desktop or Laptop","Windows 10","Chrome 114.0.0.0","1536x864","1536x714",NA,NA,NA,"JV Task P1",8,"Anxious",132,"In",NA,2,"BCADKEJFIGH",NA,NA,"A (JV first)",NA,NA,"SS1","SS1",10,"J","Judginess","w2ir4b",1,"continue","",17459.9580000954,17457.029,17459.9580000954,17459.9580000954,17457.029,17459.9580000954,1,17459.9580000954,0,0,NA,"Click To Continue","Continue Button",1,"object-14","J","CFD-WM-001-014-H.jpeg",NA,"SUPTM05489"
"115",1689004539532,"10/07/2023 15:55:39",1689008139532,1,"10/07/2023 17:55:39",137495,33,"task-s49y",NA,30599624,9085338,NA,"complete",NA,NA,"computer","Desktop or Laptop","Windows 10","Chrome 114.0.0.0","1536x864","1536x714",NA,NA,NA,"JV Task P1",8,"Anxious",132,"In",NA,2,"BCADKEJFIGH",NA,NA,"A (JV first)",NA,NA,"SS1","SS1",10,"J","Judginess","w2ir4b",1,"response","65",15391.664,17457.029,17461.7580000477,15391.664,17457.029,17461.7580000477,1,15391.664,2070.09400004768,0,NA,"Slider","J",3,"object-18","J","CFD-WM-001-014-H.jpeg",NA,"SUPTM05489"
"116",1689004540494,"10/07/2023 15:55:40",1689008140494,1,"10/07/2023 17:55:40",137495,33,"task-s49y",NA,30599624,9085338,NA,"complete",NA,NA,"computer","Desktop or Laptop","Windows 10","Chrome 114.0.0.0","1536x864","1536x714",NA,NA,NA,"JV Task P1",8,"Anxious",132,"In",NA,2,"BCADKEJFIGH",NA,NA,"A (JV first)",NA,NA,"SS1","SS1",10,"J","Fixation","mtm832",2,"continue","",965.945000000007,965.945000000007,965.945000000007,965.945000000007,965.945000000007,965.945000000007,1,965.945000000007,0,0,NA,"Fixation Timing","Fixation",1,"object-65","J","CFD-WM-001-014-H.jpeg",NA,"SUPTM05489"
"117",1689004543474,"10/07/2023 15:55:43",1689008143474,1,"10/07/2023 17:55:43",137495,33,"task-s49y",NA,30599624,9085338,NA,"complete",NA,NA,"computer","Desktop or Laptop","Windows 10","Chrome 114.0.0.0","1536x864","1536x714",NA,NA,NA,"JV Task P1",8,"Anxious",132,"In",NA,2,"BCADKEJFIGH",NA,NA,"A (JV first)",NA,NA,"SS1","SS1",29,"V","Valence","sn1sjn",1,"continue","",2980.084,2965.05499999999,2980.084,2980.084,2965.05499999999,2980.084,1,2980.084,0,0,NA,"Click To Continue","Continue Button",1,"object-25","V","CFD-BF-030-002-H.jpeg",NA,"SUPTM05489"
"118",1689004543474,"10/07/2023 15:55:43",1689008143474,1,"10/07/2023 17:55:43",137495,33,"task-s49y",NA,30599624,9085338,NA,"complete",NA,NA,"computer","Desktop or Laptop","Windows 10","Chrome 114.0.0.0","1536x864","1536x714",NA,NA,NA,"JV Task P1",8,"Anxious",132,"In",NA,2,"BCADKEJFIGH",NA,NA,"A (JV first)",NA,NA,"SS1","SS1",29,"V","Valence","sn1sjn",1,"response","73",2282.103,2965.05499999999,2980.584,2282.103,2965.05499999999,2980.584,1,2282.103,698.481,0,NA,"Slider","J",3,"object-27","V","CFD-BF-030-002-H.jpeg",NA,"SUPTM05489"
"119",1689004544425,"10/07/2023 15:55:44",1689008144425,1,"10/07/2023 17:55:44",137495,33,"task-s49y",NA,30599624,9085338,NA,"complete",NA,NA,"computer","Desktop or Laptop","Windows 10","Chrome 114.0.0.0","1536x864","1536x714",NA,NA,NA,"JV Task P1",8,"Anxious",132,"In",NA,2,"BCADKEJFIGH",NA,NA,"A (JV first)",NA,NA,"SS1","SS1",29,"V","Fixation","aydkg3",2,"continue","",966.146000000008,966.146000000008,966.146000000008,966.146000000008,966.146000000008,966.146000000008,1,966.146000000008,0,0,NA,"Fixation Timing","Fixation",1,"object-21","V","CFD-BF-030-002-H.jpeg",NA,"SUPTM05489"
"120",1689004551685,"10/07/2023 15:55:51",1689008151685,1,"10/07/2023 17:55:51",137495,33,"task-s49y",NA,30599624,9085338,NA,"complete",NA,NA,"computer","Desktop or Laptop","Windows 10","Chrome 114.0.0.0","1536x864","1536x714",NA,NA,NA,"JV Task P1",8,"Anxious",132,"In",NA,2,"BCADKEJFIGH",NA,NA,"A (JV first)",NA,NA,"SS1","SS1",11,"J","Judginess","w2ir4b",1,"continue","",7260.08300004769,7245.99400000001,7260.08300004769,7260.08300004769,7245.99400000001,7260.08300004769,1,7260.08300004769,0,0,NA,"Click To Continue","Continue Button",1,"object-14","J","CFD-AM-220-134-S.jpeg",NA,"SUPTM05489"
"121",1689004551687,"10/07/2023 15:55:51",1689008151687,1,"10/07/2023 17:55:51",137495,33,"task-s49y",NA,30599624,9085338,NA,"complete",NA,NA,"computer","Desktop or Laptop","Windows 10","Chrome 114.0.0.0","1536x864","1536x714",NA,NA,NA,"JV Task P1",8,"Anxious",132,"In",NA,2,"BCADKEJFIGH",NA,NA,"A (JV first)",NA,NA,"SS1","SS1",11,"J","Judginess","w2ir4b",1,"response","57",5397.38099999999,7245.99400000001,7262.58300004769,5397.38099999999,7245.99400000001,7262.58300004769,1,5397.38099999999,1865.20200004769,0,NA,"Slider","J",3,"object-18","J","CFD-AM-220-134-S.jpeg",NA,"SUPTM05489"
"122",1689004552638,"10/07/2023 15:55:52",1689008152638,1,"10/07/2023 17:55:52",137495,33,"task-s49y",NA,30599624,9085338,NA,"complete",NA,NA,"computer","Desktop or Laptop","Windows 10","Chrome 114.0.0.0","1536x864","1536x714",NA,NA,NA,"JV Task P1",8,"Anxious",132,"In",NA,2,"BCADKEJFIGH",NA,NA,"A (JV first)",NA,NA,"SS1","SS1",11,"J","Fixation","mtm832",2,"continue","",966.494000000006,966.494000000006,966.494000000006,966.494000000006,966.494000000006,966.494000000006,1,966.494000000006,0,0,NA,"Fixation Timing","Fixation",1,"object-65","J","CFD-AM-220-134-S.jpeg",NA,"SUPTM05489"
"123",1689004555116,"10/07/2023 15:55:55",1689008155116,1,"10/07/2023 17:55:55",137495,33,"task-s49y",NA,30599624,9085338,NA,"complete",NA,NA,"computer","Desktop or Laptop","Windows 10","Chrome 114.0.0.0","1536x864","1536x714",NA,NA,NA,"JV Task P1",8,"Anxious",132,"In",NA,2,"BCADKEJFIGH",NA,NA,"A (JV first)",NA,NA,"SS1","SS1",30,"V","Valence","sn1sjn",1,"continue","",2479.09500004767,2465.01499999998,2479.09500004767,2479.09500004767,2465.01499999998,2479.09500004767,1,2479.09500004767,0,0,NA,"Click To Continue","Continue Button",1,"object-25","V","CFD-BF-040-003-S.jpeg",NA,"SUPTM05489"
"124",1689004555117,"10/07/2023 15:55:55",1689008155117,1,"10/07/2023 17:55:55",137495,33,"task-s49y",NA,30599624,9085338,NA,"complete",NA,NA,"computer","Desktop or Laptop","Windows 10","Chrome 114.0.0.0","1536x864","1536x714",NA,NA,NA,"JV Task P1",8,"Anxious",132,"In",NA,2,"BCADKEJFIGH",NA,NA,"A (JV first)",NA,NA,"SS1","SS1",30,"V","Valence","sn1sjn",1,"response","24",1899.01699999999,2465.01499999998,2479.49499990462,1899.01699999999,2465.01499999998,2479.49499990462,1,1899.01699999999,580.47799990463,0,NA,"Slider","J",3,"object-27","V","CFD-BF-040-003-S.jpeg",NA,"SUPTM05489"
"125",1689004556069,"10/07/2023 15:55:56",1689008156069,1,"10/07/2023 17:55:56",137495,33,"task-s49y",NA,30599624,9085338,NA,"complete",NA,NA,"computer","Desktop or Laptop","Windows 10","Chrome 114.0.0.0","1536x864","1536x714",NA,NA,NA,"JV Task P1",8,"Anxious",132,"In",NA,2,"BCADKEJFIGH",NA,NA,"A (JV first)",NA,NA,"SS1","SS1",30,"V","Fixation","aydkg3",2,"continue","",966.421999999991,966.421999999991,966.421999999991,966.421999999991,966.421999999991,966.421999999991,1,966.421999999991,0,0,NA,"Fixation Timing","Fixation",1,"object-21","V","CFD-BF-040-003-S.jpeg",NA,"SUPTM05489"
"126",1689004561418,"10/07/2023 15:56:01",1689008161418,1,"10/07/2023 17:56:01",137495,33,"task-s49y",NA,30599624,9085338,NA,"complete",NA,NA,"computer","Desktop or Laptop","Windows 10","Chrome 114.0.0.0","1536x864","1536x714",NA,NA,NA,"JV Task P1",8,"Anxious",132,"In",NA,2,"BCADKEJFIGH",NA,NA,"A (JV first)",NA,NA,"SS1","SS1",31,"V","Valence","sn1sjn",1,"continue","",5349.05799990465,5346.75200000001,5349.05799990465,5349.05799990465,5346.75200000001,5349.05799990465,1,5349.05799990465,0,0,NA,"Click To Continue","Continue Button",1,"object-25","V","CFD-AM-220-134-N.jpg",NA,"SUPTM05489"
"127",1689004561418,"10/07/2023 15:56:01",1689008161418,1,"10/07/2023 17:56:01",137495,33,"task-s49y",NA,30599624,9085338,NA,"complete",NA,NA,"computer","Desktop or Laptop","Windows 10","Chrome 114.0.0.0","1536x864","1536x714",NA,NA,NA,"JV Task P1",8,"Anxious",132,"In",NA,2,"BCADKEJFIGH",NA,NA,"A (JV first)",NA,NA,"SS1","SS1",31,"V","Valence","sn1sjn",1,"response","32",4697.481,5346.75200000001,5349.25799995233,4697.481,5346.75200000001,5349.25799995233,1,4697.481,651.77699995233,0,NA,"Slider","J",3,"object-27","V","CFD-AM-220-134-N.jpg",NA,"SUPTM05489"
"128",1689004562382,"10/07/2023 15:56:02",1689008162382,1,"10/07/2023 17:56:02",137495,33,"task-s49y",NA,30599624,9085338,NA,"complete",NA,NA,"computer","Desktop or Laptop","Windows 10","Chrome 114.0.0.0","1536x864","1536x714",NA,NA,NA,"JV Task P1",8,"Anxious",132,"In",NA,2,"BCADKEJFIGH",NA,NA,"A (JV first)",NA,NA,"SS1","SS1",31,"V","Fixation","aydkg3",2,"continue","",966.459999999992,966.459999999992,966.459999999992,966.459999999992,966.459999999992,966.459999999992,1,966.459999999992,0,0,NA,"Fixation Timing","Fixation",1,"object-21","V","CFD-AM-220-134-N.jpg",NA,"SUPTM05489"
"129",1689004565487,"10/07/2023 15:56:05",1689008165487,1,"10/07/2023 17:56:05",137495,33,"task-s49y",NA,30599624,9085338,NA,"complete",NA,NA,"computer","Desktop or Laptop","Windows 10","Chrome 114.0.0.0","1536x864","1536x714",NA,NA,NA,"JV Task P1",8,"Anxious",132,"In",NA,2,"BCADKEJFIGH",NA,NA,"A (JV first)",NA,NA,"SS1","SS1",32,"V","Valence","sn1sjn",1,"continue","",3105.34599990465,3098.33900000001,3105.34599990465,3105.34599990465,3098.33900000001,3105.34599990465,1,3105.34599990465,0,0,NA,"Click To Continue","Continue Button",1,"object-25","V","CFD-AM-225-102-H.jpeg",NA,"SUPTM05489"
"130",1689004565487,"10/07/2023 15:56:05",1689008165487,1,"10/07/2023 17:56:05",137495,33,"task-s49y",NA,30599624,9085338,NA,"complete",NA,NA,"computer","Desktop or Laptop","Windows 10","Chrome 114.0.0.0","1536x864","1536x714",NA,NA,NA,"JV Task P1",8,"Anxious",132,"In",NA,2,"BCADKEJFIGH",NA,NA,"A (JV first)",NA,NA,"SS1","SS1",32,"V","Valence","sn1sjn",1,"response","73",2165.26200000002,3098.33900000001,3105.4460000477,2165.26200000002,3098.33900000001,3105.4460000477,1,2165.26200000002,940.18400004768,0,NA,"Slider","J",3,"object-27","V","CFD-AM-225-102-H.jpeg",NA,"SUPTM05489"
"131",1689004566447,"10/07/2023 15:56:06",1689008166447,1,"10/07/2023 17:56:06",137495,33,"task-s49y",NA,30599624,9085338,NA,"complete",NA,NA,"computer","Desktop or Laptop","Windows 10","Chrome 114.0.0.0","1536x864","1536x714",NA,NA,NA,"JV Task P1",8,"Anxious",132,"In",NA,2,"BCADKEJFIGH",NA,NA,"A (JV first)",NA,NA,"SS1","SS1",32,"V","Fixation","aydkg3",2,"continue","",966.100999999995,966.100999999995,966.100999999995,966.100999999995,966.100999999995,966.100999999995,1,966.100999999995,0,0,NA,"Fixation Timing","Fixation",1,"object-21","V","CFD-AM-225-102-H.jpeg",NA,"SUPTM05489"
"132",1689004572469,"10/07/2023 15:56:12",1689008172469,1,"10/07/2023 17:56:12",137495,33,"task-s49y",NA,30599624,9085338,NA,"complete",NA,NA,"computer","Desktop or Laptop","Windows 10","Chrome 114.0.0.0","1536x864","1536x714",NA,NA,NA,"JV Task P1",8,"Anxious",132,"In",NA,2,"BCADKEJFIGH",NA,NA,"A (JV first)",NA,NA,"SS1","SS1",33,"V","Valence","sn1sjn",1,"continue","",6022.80600000001,6013.00100000002,6022.80600000001,6022.80600000001,6013.00100000002,6022.80600000001,1,6022.80600000001,0,0,NA,"Click To Continue","Continue Button",1,"object-25","V","CFD-MM-308-001-S.jpeg",NA,"SUPTM05489"
"133",1689004572470,"10/07/2023 15:56:12",1689008172470,1,"10/07/2023 17:56:12",137495,33,"task-s49y",NA,30599624,9085338,NA,"complete",NA,NA,"computer","Desktop or Laptop","Windows 10","Chrome 114.0.0.0","1536x864","1536x714",NA,NA,NA,"JV Task P1",8,"Anxious",132,"In",NA,2,"BCADKEJFIGH",NA,NA,"A (JV first)",NA,NA,"SS1","SS1",33,"V","Valence","sn1sjn",1,"response","30",4814.08000000002,6013.00100000002,6024.20600009538,4814.08000000002,6013.00100000002,6024.20600009538,1,4814.08000000002,1210.12600009536,0,NA,"Slider","J",3,"object-27","V","CFD-MM-308-001-S.jpeg",NA,"SUPTM05489"
"134",1689004573426,"10/07/2023 15:56:13",1689008173426,1,"10/07/2023 17:56:13",137495,33,"task-s49y",NA,30599624,9085338,NA,"complete",NA,NA,"computer","Desktop or Laptop","Windows 10","Chrome 114.0.0.0","1536x864","1536x714",NA,NA,NA,"JV Task P1",8,"Anxious",132,"In",NA,2,"BCADKEJFIGH",NA,NA,"A (JV first)",NA,NA,"SS1","SS1",33,"V","Fixation","aydkg3",2,"continue","",966.475000000006,966.475000000006,966.475000000006,966.475000000006,966.475000000006,966.475000000006,1,966.475000000006,0,0,NA,"Fixation Timing","Fixation",1,"object-21","V","CFD-MM-308-001-S.jpeg",NA,"SUPTM05489"
"135",1689004581170,"10/07/2023 15:56:21",1689008181170,1,"10/07/2023 17:56:21",137495,33,"task-s49y",NA,30599624,9085338,NA,"complete",NA,NA,"computer","Desktop or Laptop","Windows 10","Chrome 114.0.0.0","1536x864","1536x714",NA,NA,NA,"JV Task P1",8,"Anxious",132,"In",NA,2,"BCADKEJFIGH",NA,NA,"A (JV first)",NA,NA,"SS1","SS1",12,"J","Judginess","w2ir4b",1,"continue","",7744.1299999523,7728.981,7744.1299999523,7744.1299999523,7728.981,7744.1299999523,1,7744.1299999523,0,0,NA,"Click To Continue","Continue Button",1,"object-14","J","CFD-IM-695-001-N.jpg",NA,"SUPTM05489"
"136",1689004581170,"10/07/2023 15:56:21",1689008181170,1,"10/07/2023 17:56:21",137495,33,"task-s49y",NA,30599624,9085338,NA,"complete",NA,NA,"computer","Desktop or Laptop","Windows 10","Chrome 114.0.0.0","1536x864","1536x714",NA,NA,NA,"JV Task P1",8,"Anxious",132,"In",NA,2,"BCADKEJFIGH",NA,NA,"A (JV first)",NA,NA,"SS1","SS1",12,"J","Judginess","w2ir4b",1,"response","56",7046.204,7728.981,7744.53000004767,7046.204,7728.981,7744.53000004767,1,7046.204,698.326000047673,0,NA,"Slider","J",3,"object-18","J","CFD-IM-695-001-N.jpg",NA,"SUPTM05489"
"137",1689004582121,"10/07/2023 15:56:22",1689008182121,1,"10/07/2023 17:56:22",137495,33,"task-s49y",NA,30599624,9085338,NA,"complete",NA,NA,"computer","Desktop or Laptop","Windows 10","Chrome 114.0.0.0","1536x864","1536x714",NA,NA,NA,"JV Task P1",8,"Anxious",132,"In",NA,2,"BCADKEJFIGH",NA,NA,"A (JV first)",NA,NA,"SS1","SS1",12,"J","Fixation","mtm832",2,"continue","",966.220000000001,966.220000000001,966.220000000001,966.220000000001,966.220000000001,966.220000000001,1,966.220000000001,0,0,NA,"Fixation Timing","Fixation",1,"object-65","J","CFD-IM-695-001-N.jpg",NA,"SUPTM05489"
"138",1689004585224,"10/07/2023 15:56:25",1689008185224,1,"10/07/2023 17:56:25",137495,33,"task-s49y",NA,30599624,9085338,NA,"complete",NA,NA,"computer","Desktop or Laptop","Windows 10","Chrome 114.0.0.0","1536x864","1536x714",NA,NA,NA,"JV Task P1",8,"Anxious",132,"In",NA,2,"BCADKEJFIGH",NA,NA,"A (JV first)",NA,NA,"SS1","SS1",34,"V","Valence","sn1sjn",1,"continue","",3102.62899999999,3098.31700000001,3102.62899999999,3102.62899999999,3098.31700000001,3102.62899999999,1,3102.62899999999,0,0,NA,"Click To Continue","Continue Button",1,"object-25","V","CFD-BF-008-001-N.jpg",NA,"SUPTM05489"
"139",1689004585226,"10/07/2023 15:56:25",1689008185226,1,"10/07/2023 17:56:25",137495,33,"task-s49y",NA,30599624,9085338,NA,"complete",NA,NA,"computer","Desktop or Laptop","Windows 10","Chrome 114.0.0.0","1536x864","1536x714",NA,NA,NA,"JV Task P1",8,"Anxious",132,"In",NA,2,"BCADKEJFIGH",NA,NA,"A (JV first)",NA,NA,"SS1","SS1",34,"V","Valence","sn1sjn",1,"response","36",2348.65900000001,3098.31700000001,3104.9289999523,2348.65900000001,3098.31700000001,3104.9289999523,1,2348.65900000001,756.269999952288,0,NA,"Slider","J",3,"object-27","V","CFD-BF-008-001-N.jpg",NA,"SUPTM05489"
"140",1689004586186,"10/07/2023 15:56:26",1689008186186,1,"10/07/2023 17:56:26",137495,33,"task-s49y",NA,30599624,9085338,NA,"complete",NA,NA,"computer","Desktop or Laptop","Windows 10","Chrome 114.0.0.0","1536x864","1536x714",NA,NA,NA,"JV Task P1",8,"Anxious",132,"In",NA,2,"BCADKEJFIGH",NA,NA,"A (JV first)",NA,NA,"SS1","SS1",34,"V","Fixation","aydkg3",2,"continue","",966.147999999986,966.147999999986,966.147999999986,966.147999999986,966.147999999986,966.147999999986,1,966.147999999986,0,0,NA,"Fixation Timing","Fixation",1,"object-21","V","CFD-BF-008-001-N.jpg",NA,"SUPTM05489"
"141",1689004589055,"10/07/2023 15:56:29",1689008189055,1,"10/07/2023 17:56:29",137495,33,"task-s49y",NA,30599624,9085338,NA,"complete",NA,NA,"computer","Desktop or Laptop","Windows 10","Chrome 114.0.0.0","1536x864","1536x714",NA,NA,NA,"JV Task P1",8,"Anxious",132,"In",NA,2,"BCADKEJFIGH",NA,NA,"A (JV first)",NA,NA,"SS1","SS1",35,"V","Valence","sn1sjn",1,"continue","",2859.76399990462,2848.42099999997,2859.76399990462,2859.76399990462,2848.42099999997,2859.76399990462,1,2859.76399990462,0,0,NA,"Click To Continue","Continue Button",1,"object-25","V","CFD-AM-223-138-H.jpeg",NA,"SUPTM05489"
"142",1689004589056,"10/07/2023 15:56:29",1689008189056,1,"10/07/2023 17:56:29",137495,33,"task-s49y",NA,30599624,9085338,NA,"complete",NA,NA,"computer","Desktop or Laptop","Windows 10","Chrome 114.0.0.0","1536x864","1536x714",NA,NA,NA,"JV Task P1",8,"Anxious",132,"In",NA,2,"BCADKEJFIGH",NA,NA,"A (JV first)",NA,NA,"SS1","SS1",35,"V","Valence","sn1sjn",1,"response","70",1965.571,2848.42099999997,2859.96399995231,1965.571,2848.42099999997,2859.96399995231,1,1965.571,894.39299995231,0,NA,"Slider","J",3,"object-27","V","CFD-AM-223-138-H.jpeg",NA,"SUPTM05489"
"143",1689004590011,"10/07/2023 15:56:30",1689008190011,1,"10/07/2023 17:56:30",137495,33,"task-s49y",NA,30599624,9085338,NA,"complete",NA,NA,"computer","Desktop or Laptop","Windows 10","Chrome 114.0.0.0","1536x864","1536x714",NA,NA,NA,"JV Task P1",8,"Anxious",132,"In",NA,2,"BCADKEJFIGH",NA,NA,"A (JV first)",NA,NA,"SS1","SS1",35,"V","Fixation","aydkg3",2,"continue","",966.136999999988,966.136999999988,966.136999999988,966.136999999988,966.136999999988,966.136999999988,1,966.136999999988,0,0,NA,"Fixation Timing","Fixation",1,"object-21","V","CFD-AM-223-138-H.jpeg",NA,"SUPTM05489"
"144",1689004594886,"10/07/2023 15:56:34",1689008194886,1,"10/07/2023 17:56:34",137495,33,"task-s49y",NA,30599624,9085338,NA,"complete",NA,NA,"computer","Desktop or Laptop","Windows 10","Chrome 114.0.0.0","1536x864","1536x714",NA,NA,NA,"JV Task P1",8,"Anxious",132,"In",NA,2,"BCADKEJFIGH",NA,NA,"A (JV first)",NA,NA,"SS1","SS1",36,"V","Valence","sn1sjn",1,"continue","",4875.5060000954,4863.99700000003,4875.5060000954,4875.5060000954,4863.99700000003,4875.5060000954,1,4875.5060000954,0,0,NA,"Click To Continue","Continue Button",1,"object-25","V","CFD-WM-026-001-S.jpeg",NA,"SUPTM05489"
"145",1689004594886,"10/07/2023 15:56:34",1689008194886,1,"10/07/2023 17:56:34",137495,33,"task-s49y",NA,30599624,9085338,NA,"complete",NA,NA,"computer","Desktop or Laptop","Windows 10","Chrome 114.0.0.0","1536x864","1536x714",NA,NA,NA,"JV Task P1",8,"Anxious",132,"In",NA,2,"BCADKEJFIGH",NA,NA,"A (JV first)",NA,NA,"SS1","SS1",36,"V","Valence","sn1sjn",1,"response","24",2581.902,4863.99700000003,4876.10600000003,2581.902,4863.99700000003,4876.10600000003,1,2581.902,2294.20400000003,0,NA,"Slider","J",3,"object-27","V","CFD-WM-026-001-S.jpeg",NA,"SUPTM05489"
"146",1689004595841,"10/07/2023 15:56:35",1689008195841,1,"10/07/2023 17:56:35",137495,33,"task-s49y",NA,30599624,9085338,NA,"complete",NA,NA,"computer","Desktop or Laptop","Windows 10","Chrome 114.0.0.0","1536x864","1536x714",NA,NA,NA,"JV Task P1",8,"Anxious",132,"In",NA,2,"BCADKEJFIGH",NA,NA,"A (JV first)",NA,NA,"SS1","SS1",36,"V","Fixation","aydkg3",2,"continue","",966.151000000013,966.151000000013,966.151000000013,966.151000000013,966.151000000013,966.151000000013,1,966.151000000013,0,0,NA,"Fixation Timing","Fixation",1,"object-21","V","CFD-WM-026-001-S.jpeg",NA,"SUPTM05489"
"147",1689004603698,"10/07/2023 15:56:43",1689008203698,1,"10/07/2023 17:56:43",137495,33,"task-s49y",NA,30599624,9085338,NA,"complete",NA,NA,"computer","Desktop or Laptop","Windows 10","Chrome 114.0.0.0","1536x864","1536x714",NA,NA,NA,"JV Task P1",8,"Anxious",132,"In",NA,2,"BCADKEJFIGH",NA,NA,"A (JV first)",NA,NA,"SS1","SS1",13,"J","Judginess","w2ir4b",1,"continue","",7857.45799999998,7845.38399999996,7857.45799999998,7857.45799999998,7845.38399999996,7857.45799999998,1,7857.45799999998,0,0,NA,"Click To Continue","Continue Button",1,"object-14","J","CFD-WM-001-014-N.jpg",NA,"SUPTM05489"
"148",1689004603698,"10/07/2023 15:56:43",1689008203698,1,"10/07/2023 17:56:43",137495,33,"task-s49y",NA,30599624,9085338,NA,"complete",NA,NA,"computer","Desktop or Laptop","Windows 10","Chrome 114.0.0.0","1536x864","1536x714",NA,NA,NA,"JV Task P1",8,"Anxious",132,"In",NA,2,"BCADKEJFIGH",NA,NA,"A (JV first)",NA,NA,"SS1","SS1",13,"J","Judginess","w2ir4b",1,"response","53",3348.14399999997,7845.38399999996,7857.7579999523,3348.14399999997,7845.38399999996,7857.7579999523,1,3348.14399999997,4509.61399995233,0,NA,"Slider","J",3,"object-18","J","CFD-WM-001-014-N.jpg",NA,"SUPTM05489"
"149",1689004604653,"10/07/2023 15:56:44",1689008204653,1,"10/07/2023 17:56:44",137495,33,"task-s49y",NA,30599624,9085338,NA,"complete",NA,NA,"computer","Desktop or Laptop","Windows 10","Chrome 114.0.0.0","1536x864","1536x714",NA,NA,NA,"JV Task P1",8,"Anxious",132,"In",NA,2,"BCADKEJFIGH",NA,NA,"A (JV first)",NA,NA,"SS1","SS1",13,"J","Fixation","mtm832",2,"continue","",966.426000000036,966.426000000036,966.426000000036,966.426000000036,966.426000000036,966.426000000036,1,966.426000000036,0,0,NA,"Fixation Timing","Fixation",1,"object-65","J","CFD-WM-001-014-N.jpg",NA,"SUPTM05489"
"150",1689004608600,"10/07/2023 15:56:48",1689008208600,1,"10/07/2023 17:56:48",137495,33,"task-s49y",NA,30599624,9085338,NA,"complete",NA,NA,"computer","Desktop or Laptop","Windows 10","Chrome 114.0.0.0","1536x864","1536x714",NA,NA,NA,"JV Task P1",8,"Anxious",132,"In",NA,2,"BCADKEJFIGH",NA,NA,"A (JV first)",NA,NA,"SS1","SS1",37,"V","Valence","sn1sjn",1,"continue","",3947.54800009535,3931.18900000001,3947.54800009535,3947.54800009535,3931.18900000001,3947.54800009535,1,3947.54800009535,0,0,NA,"Click To Continue","Continue Button",1,"object-25","V","CFD-BM-028-002-S.jpeg",NA,"SUPTM05489"
"151",1689004608602,"10/07/2023 15:56:48",1689008208602,1,"10/07/2023 17:56:48",137495,33,"task-s49y",NA,30599624,9085338,NA,"complete",NA,NA,"computer","Desktop or Laptop","Windows 10","Chrome 114.0.0.0","1536x864","1536x714",NA,NA,NA,"JV Task P1",8,"Anxious",132,"In",NA,2,"BCADKEJFIGH",NA,NA,"A (JV first)",NA,NA,"SS1","SS1",37,"V","Valence","sn1sjn",1,"response","35",2998.21999999997,3931.18900000001,3948.04300000006,2998.21999999997,3931.18900000001,3948.04300000006,1,2998.21999999997,949.823000000091,0,NA,"Slider","J",3,"object-27","V","CFD-BM-028-002-S.jpeg",NA,"SUPTM05489"
"152",1689004609549,"10/07/2023 15:56:49",1689008209549,1,"10/07/2023 17:56:49",137495,33,"task-s49y",NA,30599624,9085338,NA,"complete",NA,NA,"computer","Desktop or Laptop","Windows 10","Chrome 114.0.0.0","1536x864","1536x714",NA,NA,NA,"JV Task P1",8,"Anxious",132,"In",NA,2,"BCADKEJFIGH",NA,NA,"A (JV first)",NA,NA,"SS1","SS1",37,"V","Fixation","aydkg3",2,"continue","",965.717999999993,965.717999999993,965.717999999993,965.717999999993,965.717999999993,965.717999999993,1,965.717999999993,0,0,NA,"Fixation Timing","Fixation",1,"object-21","V","CFD-BM-028-002-S.jpeg",NA,"SUPTM05489"
"153",1689004612973,"10/07/2023 15:56:52",1689008212973,1,"10/07/2023 17:56:52",137495,33,"task-s49y",NA,30599624,9085338,NA,"complete",NA,NA,"computer","Desktop or Laptop","Windows 10","Chrome 114.0.0.0","1536x864","1536x714",NA,NA,NA,"JV Task P1",8,"Anxious",132,"In",NA,2,"BCADKEJFIGH",NA,NA,"A (JV first)",NA,NA,"SS1","SS1",38,"V","Valence","sn1sjn",1,"continue","",3424.0409999523,3414.864,3424.0409999523,3424.0409999523,3414.864,3424.0409999523,1,3424.0409999523,0,0,NA,"Click To Continue","Continue Button",1,"object-25","V","CFD-BF-008-001-H.jpeg",NA,"SUPTM05489"
"154",1689004612974,"10/07/2023 15:56:52",1689008212974,1,"10/07/2023 17:56:52",137495,33,"task-s49y",NA,30599624,9085338,NA,"complete",NA,NA,"computer","Desktop or Laptop","Windows 10","Chrome 114.0.0.0","1536x864","1536x714",NA,NA,NA,"JV Task P1",8,"Anxious",132,"In",NA,2,"BCADKEJFIGH",NA,NA,"A (JV first)",NA,NA,"SS1","SS1",38,"V","Valence","sn1sjn",1,"response","73",2232.23599999998,3414.864,3424.44100004766,2232.23599999998,3414.864,3424.44100004766,1,2232.23599999998,1192.20500004769,0,NA,"Slider","J",3,"object-27","V","CFD-BF-008-001-H.jpeg",NA,"SUPTM05489"
"155",1689004613931,"10/07/2023 15:56:53",1689008213931,1,"10/07/2023 17:56:53",137495,33,"task-s49y",NA,30599624,9085338,NA,"complete",NA,NA,"computer","Desktop or Laptop","Windows 10","Chrome 114.0.0.0","1536x864","1536x714",NA,NA,NA,"JV Task P1",8,"Anxious",132,"In",NA,2,"BCADKEJFIGH",NA,NA,"A (JV first)",NA,NA,"SS1","SS1",38,"V","Fixation","aydkg3",2,"continue","",966.244000000006,966.244000000006,966.244000000006,966.244000000006,966.244000000006,966.244000000006,1,966.244000000006,0,0,NA,"Fixation Timing","Fixation",1,"object-21","V","CFD-BF-008-001-H.jpeg",NA,"SUPTM05489"
"156",1689004618178,"10/07/2023 15:56:58",1689008218178,1,"10/07/2023 17:56:58",137495,33,"task-s49y",NA,30599624,9085338,NA,"complete",NA,NA,"computer","Desktop or Laptop","Windows 10","Chrome 114.0.0.0","1536x864","1536x714",NA,NA,NA,"JV Task P1",8,"Anxious",132,"In",NA,2,"BCADKEJFIGH",NA,NA,"A (JV first)",NA,NA,"SS1","SS1",39,"V","Valence","sn1sjn",1,"continue","",4247.47100000002,4230.913,4247.47100000002,4247.47100000002,4230.913,4247.47100000002,1,4247.47100000002,0,0,NA,"Click To Continue","Continue Button",1,"object-25","V","CFD-IF-693-172-N.jpg",NA,"SUPTM05489"
"157",1689004618179,"10/07/2023 15:56:58",1689008218179,1,"10/07/2023 17:56:58",137495,33,"task-s49y",NA,30599624,9085338,NA,"complete",NA,NA,"computer","Desktop or Laptop","Windows 10","Chrome 114.0.0.0","1536x864","1536x714",NA,NA,NA,"JV Task P1",8,"Anxious",132,"In",NA,2,"BCADKEJFIGH",NA,NA,"A (JV first)",NA,NA,"SS1","SS1",39,"V","Valence","sn1sjn",1,"response","46",3548.25799999997,4230.913,4247.47100000002,3548.25799999997,4230.913,4247.47100000002,1,3548.25799999997,699.213000000047,0,NA,"Slider","J",3,"object-27","V","CFD-IF-693-172-N.jpg",NA,"SUPTM05489"
"158",1689004619128,"10/07/2023 15:56:59",1689008219128,1,"10/07/2023 17:56:59",137495,33,"task-s49y",NA,30599624,9085338,NA,"complete",NA,NA,"computer","Desktop or Laptop","Windows 10","Chrome 114.0.0.0","1536x864","1536x714",NA,NA,NA,"JV Task P1",8,"Anxious",132,"In",NA,2,"BCADKEJFIGH",NA,NA,"A (JV first)",NA,NA,"SS1","SS1",39,"V","Fixation","aydkg3",2,"continue","",966.420999999973,966.420999999973,966.420999999973,966.420999999973,966.420999999973,966.420999999973,1,966.420999999973,0,0,NA,"Fixation Timing","Fixation",1,"object-21","V","CFD-IF-693-172-N.jpg",NA,"SUPTM05489"
"159",1689004622290,"10/07/2023 15:57:02",1689008222290,1,"10/07/2023 17:57:02",137495,33,"task-s49y",NA,30599624,9085338,NA,"complete",NA,NA,"computer","Desktop or Laptop","Windows 10","Chrome 114.0.0.0","1536x864","1536x714",NA,NA,NA,"JV Task P1",8,"Anxious",132,"In",NA,2,"BCADKEJFIGH",NA,NA,"A (JV first)",NA,NA,"SS1","SS1",40,"V","Valence","sn1sjn",1,"continue","",3162.09899995232,3147.98499999999,3162.09899995232,3162.09899995232,3147.98499999999,3162.09899995232,1,3162.09899995232,0,0,NA,"Click To Continue","Continue Button",1,"object-25","V","CFD-WF-036-023-N.jpg",NA,"SUPTM05489"
"160",1689004622290,"10/07/2023 15:57:02",1689008222290,1,"10/07/2023 17:57:02",137495,33,"task-s49y",NA,30599624,9085338,NA,"complete",NA,NA,"computer","Desktop or Laptop","Windows 10","Chrome 114.0.0.0","1536x864","1536x714",NA,NA,NA,"JV Task P1",8,"Anxious",132,"In",NA,2,"BCADKEJFIGH",NA,NA,"A (JV first)",NA,NA,"SS1","SS1",40,"V","Valence","sn1sjn",1,"response","47",2548.37599999999,3147.98499999999,3162.299,2548.37599999999,3147.98499999999,3162.299,1,2548.37599999999,613.92300000001,0,NA,"Slider","J",3,"object-27","V","CFD-WF-036-023-N.jpg",NA,"SUPTM05489"
"161",1689004623243,"10/07/2023 15:57:03",1689008223243,1,"10/07/2023 17:57:03",137495,33,"task-s49y",NA,30599624,9085338,NA,"complete",NA,NA,"computer","Desktop or Laptop","Windows 10","Chrome 114.0.0.0","1536x864","1536x714",NA,NA,NA,"JV Task P1",8,"Anxious",132,"In",NA,2,"BCADKEJFIGH",NA,NA,"A (JV first)",NA,NA,"SS1","SS1",40,"V","Fixation","aydkg3",2,"continue","",966.456000000006,966.456000000006,966.456000000006,966.456000000006,966.456000000006,966.456000000006,1,966.456000000006,0,0,NA,"Fixation Timing","Fixation",1,"object-21","V","CFD-WF-036-023-N.jpg",NA,"SUPTM05489"
"162",1689004627639,"10/07/2023 15:57:07",1689008227639,1,"10/07/2023 17:57:07",137495,33,"task-s49y",NA,30599624,9085338,NA,"complete",NA,NA,"computer","Desktop or Laptop","Windows 10","Chrome 114.0.0.0","1536x864","1536x714",NA,NA,NA,"JV Task P1",8,"Anxious",132,"In",NA,2,"BCADKEJFIGH",NA,NA,"A (JV first)",NA,NA,"SS1","SS1",41,"V","Valence","sn1sjn",1,"continue","",4396.65799995232,4380.87900000002,4396.65799995232,4396.65799995232,4380.87900000002,4396.65799995232,1,4396.65799995232,0,0,NA,"Click To Continue","Continue Button",1,"object-25","V","CFD-BM-016-036-N.jpg",NA,"SUPTM05489"
"163",1689004627639,"10/07/2023 15:57:07",1689008227639,1,"10/07/2023 17:57:07",137495,33,"task-s49y",NA,30599624,9085338,NA,"complete",NA,NA,"computer","Desktop or Laptop","Windows 10","Chrome 114.0.0.0","1536x864","1536x714",NA,NA,NA,"JV Task P1",8,"Anxious",132,"In",NA,2,"BCADKEJFIGH",NA,NA,"A (JV first)",NA,NA,"SS1","SS1",41,"V","Valence","sn1sjn",1,"response","47",2748.245,4380.87900000002,4397.05800004769,2748.245,4380.87900000002,4397.05800004769,1,2748.245,1648.8130000477,0,NA,"Slider","J",3,"object-27","V","CFD-BM-016-036-N.jpg",NA,"SUPTM05489"
"164",1689004628590,"10/07/2023 15:57:08",1689008228590,1,"10/07/2023 17:57:08",137495,33,"task-s49y",NA,30599624,9085338,NA,"complete",NA,NA,"computer","Desktop or Laptop","Windows 10","Chrome 114.0.0.0","1536x864","1536x714",NA,NA,NA,"JV Task P1",8,"Anxious",132,"In",NA,2,"BCADKEJFIGH",NA,NA,"A (JV first)",NA,NA,"SS1","SS1",41,"V","Fixation","aydkg3",2,"continue","",966.173999999999,966.173999999999,966.173999999999,966.173999999999,966.173999999999,966.173999999999,1,966.173999999999,0,0,NA,"Fixation Timing","Fixation",1,"object-21","V","CFD-BM-016-036-N.jpg",NA,"SUPTM05489"
"165",1689004637235,"10/07/2023 15:57:17",1689008237235,1,"10/07/2023 17:57:17",137495,33,"task-s49y",NA,30599624,9085338,NA,"complete",NA,NA,"computer","Desktop or Laptop","Windows 10","Chrome 114.0.0.0","1536x864","1536x714",NA,NA,NA,"JV Task P1",8,"Anxious",132,"In",NA,2,"BCADKEJFIGH",NA,NA,"A (JV first)",NA,NA,"SS1","SS1",14,"J","Judginess","w2ir4b",1,"continue","",8644.83199999999,8628.31699999998,8644.83199999999,8644.83199999999,8628.31699999998,8644.83199999999,1,8644.83199999999,0,0,NA,"Click To Continue","Continue Button",1,"object-14","J","CFD-AM-223-138-N.jpg",NA,"SUPTM05489"
"166",1689004637238,"10/07/2023 15:57:17",1689008237238,1,"10/07/2023 17:57:17",137495,33,"task-s49y",NA,30599624,9085338,NA,"complete",NA,NA,"computer","Desktop or Laptop","Windows 10","Chrome 114.0.0.0","1536x864","1536x714",NA,NA,NA,"JV Task P1",8,"Anxious",132,"In",NA,2,"BCADKEJFIGH",NA,NA,"A (JV first)",NA,NA,"SS1","SS1",14,"J","Judginess","w2ir4b",1,"response","49",5263.74400000001,8628.31699999998,8644.83199999999,5263.74400000001,8628.31699999998,8644.83199999999,1,5263.74400000001,3381.08799999999,0,NA,"Slider","J",3,"object-18","J","CFD-AM-223-138-N.jpg",NA,"SUPTM05489"
"167",1689004638184,"10/07/2023 15:57:18",1689008238184,1,"10/07/2023 17:57:18",137495,33,"task-s49y",NA,30599624,9085338,NA,"complete",NA,NA,"computer","Desktop or Laptop","Windows 10","Chrome 114.0.0.0","1536x864","1536x714",NA,NA,NA,"JV Task P1",8,"Anxious",132,"In",NA,2,"BCADKEJFIGH",NA,NA,"A (JV first)",NA,NA,"SS1","SS1",14,"J","Fixation","mtm832",2,"continue","",966.097999999998,966.097999999998,966.097999999998,966.097999999998,966.097999999998,966.097999999998,1,966.097999999998,0,0,NA,"Fixation Timing","Fixation",1,"object-65","J","CFD-AM-223-138-N.jpg",NA,"SUPTM05489"
"168",1689004643016,"10/07/2023 15:57:23",1689008243016,1,"10/07/2023 17:57:23",137495,33,"task-s49y",NA,30599624,9085338,NA,"complete",NA,NA,"computer","Desktop or Laptop","Windows 10","Chrome 114.0.0.0","1536x864","1536x714",NA,NA,NA,"JV Task P1",8,"Anxious",132,"In",NA,2,"BCADKEJFIGH",NA,NA,"A (JV first)",NA,NA,"SS1","SS1",42,"V","Valence","sn1sjn",1,"continue","",4832.89000000001,4830.995,4832.89000000001,4832.89000000001,4830.995,4832.89000000001,1,4832.89000000001,0,0,NA,"Click To Continue","Continue Button",1,"object-25","V","CFD-WF-009-001-N.jpg",NA,"SUPTM05489"
"169",1689004643017,"10/07/2023 15:57:23",1689008243017,1,"10/07/2023 17:57:23",137495,33,"task-s49y",NA,30599624,9085338,NA,"complete",NA,NA,"computer","Desktop or Laptop","Windows 10","Chrome 114.0.0.0","1536x864","1536x714",NA,NA,NA,"JV Task P1",8,"Anxious",132,"In",NA,2,"BCADKEJFIGH",NA,NA,"A (JV first)",NA,NA,"SS1","SS1",42,"V","Valence","sn1sjn",1,"response","47",3598.30100000004,4830.995,4833.18999995233,3598.30100000004,4830.995,4833.18999995233,1,3598.30100000004,1234.88899995229,0,NA,"Slider","J",3,"object-27","V","CFD-WF-009-001-N.jpg",NA,"SUPTM05489"
"170",1689004643981,"10/07/2023 15:57:23",1689008243981,1,"10/07/2023 17:57:23",137495,33,"task-s49y",NA,30599624,9085338,NA,"complete",NA,NA,"computer","Desktop or Laptop","Windows 10","Chrome 114.0.0.0","1536x864","1536x714",NA,NA,NA,"JV Task P1",8,"Anxious",132,"In",NA,2,"BCADKEJFIGH",NA,NA,"A (JV first)",NA,NA,"SS1","SS1",42,"V","Fixation","aydkg3",2,"continue","",966.122000000032,966.122000000032,966.122000000032,966.122000000032,966.122000000032,966.122000000032,1,966.122000000032,0,0,NA,"Fixation Timing","Fixation",1,"object-21","V","CFD-WF-009-001-N.jpg",NA,"SUPTM05489"
"171",1689004648967,"10/07/2023 15:57:28",1689008248967,1,"10/07/2023 17:57:28",137495,33,"task-s49y",NA,30599624,9085338,NA,"complete",NA,NA,"computer","Desktop or Laptop","Windows 10","Chrome 114.0.0.0","1536x864","1536x714",NA,NA,NA,"JV Task P1",8,"Anxious",132,"In",NA,2,"BCADKEJFIGH",NA,NA,"A (JV first)",NA,NA,"SS1","SS1",15,"J","Judginess","w2ir4b",1,"continue","",4976.37299990462,4963.71899999998,4976.37299990462,4976.37299990462,4963.71899999998,4976.37299990462,1,4976.37299990462,0,0,NA,"Click To Continue","Continue Button",1,"object-14","J","CFD-MF-309-002-S.jpeg",NA,"SUPTM05489"
"172",1689004648969,"10/07/2023 15:57:28",1689008248969,1,"10/07/2023 17:57:28",137495,33,"task-s49y",NA,30599624,9085338,NA,"complete",NA,NA,"computer","Desktop or Laptop","Windows 10","Chrome 114.0.0.0","1536x864","1536x714",NA,NA,NA,"JV Task P1",8,"Anxious",132,"In",NA,2,"BCADKEJFIGH",NA,NA,"A (JV first)",NA,NA,"SS1","SS1",15,"J","Judginess","w2ir4b",1,"response","43",3648.027,4963.71899999998,4978.47300004767,3648.027,4963.71899999998,4978.47300004767,1,3648.027,1330.44600004767,0,NA,"Slider","J",3,"object-18","J","CFD-MF-309-002-S.jpeg",NA,"SUPTM05489"
