"Event.Index","UTC.Timestamp","UTC.Date.and.Time","Local.Timestamp","Local.Timezone","Local.Date.and.Time","Experiment.ID","Experiment.Version","Tree.Node.Key","Repeat.Key","Schedule.ID","Participant.Private.ID","Participant.Starting.Group","Participant.Status","Participant.Completion.Code","Participant.External.Session.ID","Participant.Device.Type","Participant.Device","Participant.OS","Participant.Browser","Participant.Monitor.Size","Participant.Viewport.Size","Checkpoint","Room.ID","Room.Order","Task.Name","Task.Version","branch.ln1a","randomiser.vzsr","branch.hkzp","randomiser.ywar","randomiser.q6ah","order.ot79","randomiser.ahe2","randomiser.ckhi","randomiser.lqqr","randomiser.pobd","randomiser.8gdj","Spreadsheet","Current.Spreadsheet","Trial.Number","Display","Screen","Screen.ID","Screen.Counter","Response.Type","Response","Onset.Time","Clock.Time","Reaction.Time","Absolute.Onset.Time","Absolute.Clock.Time","Absolute.Reaction.Time","Correct","Response.Onset","Response.Duration","Proportion","Tag","Component.Name","Object.Name","Object.Number","Object.ID","Spreadsheet..display","Spreadsheet..stimulus","Manipulation..Spreadsheet","Random_ID"
"1",1688990740878,"10/07/2023 12:05:40",1688976340878,-4,"10/07/2023 04:05:40",137495,33,"task-empj",NA,30591956,9082545,NA,"complete",NA,NA,"computer","Desktop or Laptop","Windows 10","Chrome 113.0.0.0","1920x1080","1920x969",NA,NA,NA,"JV Task P1",8,"Anxious",NA,"In",NA,NA,"EFDGCHBIAJK",NA,NA,"B (MDot First)",1,123,"SS1","SS1",NA,"","","",NA,"5","BEGIN",NA,NA,NA,NA,NA,NA,0,NA,NA,NA,NA,"","",NA,"","","",NA,"SUPTM14738"
"2",1688990750631,"10/07/2023 12:05:50",1688976350631,-4,"10/07/2023 04:05:50",137495,33,"task-empj",NA,30591956,9082545,NA,"complete",NA,NA,"computer","Desktop or Laptop","Windows 10","Chrome 113.0.0.0","1920x1080","1920x969",NA,NA,NA,"JV Task P1",8,"Anxious",NA,"In",NA,NA,"EFDGCHBIAJK",NA,NA,"B (MDot First)",1,123,"SS1","SS1",1,"J","Judginess","w2ir4b",1,"continue","",6999.188,6985.491,6999.188,6999.188,6985.491,6999.188,1,6999.188,0,0,NA,"Click To Continue","Continue Button",1,"object-14","J","CFD-WF-017-003-H.jpeg",NA,"SUPTM14738"
"3",1688990750632,"10/07/2023 12:05:50",1688976350632,-4,"10/07/2023 04:05:50",137495,33,"task-empj",NA,30591956,9082545,NA,"complete",NA,NA,"computer","Desktop or Laptop","Windows 10","Chrome 113.0.0.0","1920x1080","1920x969",NA,NA,NA,"JV Task P1",8,"Anxious",NA,"In",NA,NA,"EFDGCHBIAJK",NA,NA,"B (MDot First)",1,123,"SS1","SS1",1,"J","Judginess","w2ir4b",1,"response","80",5885.167,6985.491,7000.78800000149,5885.167,6985.491,7000.78800000149,1,5885.167,1115.62100000149,0,NA,"Slider","J",3,"object-18","J","CFD-WF-017-003-H.jpeg",NA,"SUPTM14738"
"4",1688990751584,"10/07/2023 12:05:51",1688976351584,-4,"10/07/2023 04:05:51",137495,33,"task-empj",NA,30591956,9082545,NA,"complete",NA,NA,"computer","Desktop or Laptop","Windows 10","Chrome 113.0.0.0","1920x1080","1920x969",NA,NA,NA,"JV Task P1",8,"Anxious",NA,"In",NA,NA,"EFDGCHBIAJK",NA,NA,"B (MDot First)",1,123,"SS1","SS1",1,"J","Fixation","mtm832",2,"continue","",966.969000000001,966.969000000001,966.969000000001,966.969000000001,966.969000000001,966.969000000001,1,966.969000000001,0,0,NA,"Fixation Timing","Fixation",1,"object-65","J","CFD-WF-017-003-H.jpeg",NA,"SUPTM14738"
"5",1688990757575,"10/07/2023 12:05:57",1688976357575,-4,"10/07/2023 04:05:57",137495,33,"task-empj",NA,30591956,9082545,NA,"complete",NA,NA,"computer","Desktop or Laptop","Windows 10","Chrome 113.0.0.0","1920x1080","1920x969",NA,NA,NA,"JV Task P1",8,"Anxious",NA,"In",NA,NA,"EFDGCHBIAJK",NA,NA,"B (MDot First)",1,123,"SS1","SS1",2,"J","Judginess","w2ir4b",1,"continue","",5540.96599999851,5534.999,5540.96599999851,5540.96599999851,5534.999,5540.96599999851,1,5540.96599999851,0,0,NA,"Click To Continue","Continue Button",1,"object-14","J","CFD-WF-012-002-N.jpg",NA,"SUPTM14738"
"6",1688990757577,"10/07/2023 12:05:57",1688976357577,-4,"10/07/2023 04:05:57",137495,33,"task-empj",NA,30591956,9082545,NA,"complete",NA,NA,"computer","Desktop or Laptop","Windows 10","Chrome 113.0.0.0","1920x1080","1920x969",NA,NA,NA,"JV Task P1",8,"Anxious",NA,"In",NA,NA,"EFDGCHBIAJK",NA,NA,"B (MDot First)",1,123,"SS1","SS1",2,"J","Judginess","w2ir4b",1,"response","15",4868.146,5534.999,5542.76600000298,4868.146,5534.999,5542.76600000298,1,4868.146,674.620000002978,0,NA,"Slider","J",3,"object-18","J","CFD-WF-012-002-N.jpg",NA,"SUPTM14738"
"7",1688990758536,"10/07/2023 12:05:58",1688976358536,-4,"10/07/2023 04:05:58",137495,33,"task-empj",NA,30591956,9082545,NA,"complete",NA,NA,"computer","Desktop or Laptop","Windows 10","Chrome 113.0.0.0","1920x1080","1920x969",NA,NA,NA,"JV Task P1",8,"Anxious",NA,"In",NA,NA,"EFDGCHBIAJK",NA,NA,"B (MDot First)",1,123,"SS1","SS1",2,"J","Fixation","mtm832",2,"continue","",966.971999999998,966.971999999998,966.971999999998,966.971999999998,966.971999999998,966.971999999998,1,966.971999999998,0,0,NA,"Fixation Timing","Fixation",1,"object-65","J","CFD-WF-012-002-N.jpg",NA,"SUPTM14738"
"8",1688990762344,"10/07/2023 12:06:02",1688976362344,-4,"10/07/2023 04:06:02",137495,33,"task-empj",NA,30591956,9082545,NA,"complete",NA,NA,"computer","Desktop or Laptop","Windows 10","Chrome 113.0.0.0","1920x1080","1920x969",NA,NA,NA,"JV Task P1",8,"Anxious",NA,"In",NA,NA,"EFDGCHBIAJK",NA,NA,"B (MDot First)",1,123,"SS1","SS1",3,"J","Judginess","w2ir4b",1,"continue","",3807.89499999702,3801.177,3807.89499999702,3807.89499999702,3801.177,3807.89499999702,1,3807.89499999702,0,0,NA,"Click To Continue","Continue Button",1,"object-14","J","CFD-WM-001-014-N.jpg",NA,"SUPTM14738"
"9",1688990762347,"10/07/2023 12:06:02",1688976362347,-4,"10/07/2023 04:06:02",137495,33,"task-empj",NA,30591956,9082545,NA,"complete",NA,NA,"computer","Desktop or Laptop","Windows 10","Chrome 113.0.0.0","1920x1080","1920x969",NA,NA,NA,"JV Task P1",8,"Anxious",NA,"In",NA,NA,"EFDGCHBIAJK",NA,NA,"B (MDot First)",1,123,"SS1","SS1",3,"J","Judginess","w2ir4b",1,"response","11",3067.612,3801.177,3811.595,3067.612,3801.177,3811.595,1,3067.612,743.983,0,NA,"Slider","J",3,"object-18","J","CFD-WM-001-014-N.jpg",NA,"SUPTM14738"
"10",1688990763304,"10/07/2023 12:06:03",1688976363304,-4,"10/07/2023 04:06:03",137495,33,"task-empj",NA,30591956,9082545,NA,"complete",NA,NA,"computer","Desktop or Laptop","Windows 10","Chrome 113.0.0.0","1920x1080","1920x969",NA,NA,NA,"JV Task P1",8,"Anxious",NA,"In",NA,NA,"EFDGCHBIAJK",NA,NA,"B (MDot First)",1,123,"SS1","SS1",3,"J","Fixation","mtm832",2,"continue","",966.962000000003,966.962000000003,966.962000000003,966.962000000003,966.962000000003,966.962000000003,1,966.962000000003,0,0,NA,"Fixation Timing","Fixation",1,"object-65","J","CFD-WM-001-014-N.jpg",NA,"SUPTM14738"
"11",1688990765997,"10/07/2023 12:06:05",1688976365997,-4,"10/07/2023 04:06:05",137495,33,"task-empj",NA,30591956,9082545,NA,"complete",NA,NA,"computer","Desktop or Laptop","Windows 10","Chrome 113.0.0.0","1920x1080","1920x969",NA,NA,NA,"JV Task P1",8,"Anxious",NA,"In",NA,NA,"EFDGCHBIAJK",NA,NA,"B (MDot First)",1,123,"SS1","SS1",4,"J","Judginess","w2ir4b",1,"continue","",2693.35599999851,2684.132,2693.35599999851,2693.35599999851,2684.132,2693.35599999851,1,2693.35599999851,0,0,NA,"Click To Continue","Continue Button",1,"object-14","J","CFD-WF-037-029-N.jpg",NA,"SUPTM14738"
"12",1688990765998,"10/07/2023 12:06:05",1688976365998,-4,"10/07/2023 04:06:05",137495,33,"task-empj",NA,30591956,9082545,NA,"complete",NA,NA,"computer","Desktop or Laptop","Windows 10","Chrome 113.0.0.0","1920x1080","1920x969",NA,NA,NA,"JV Task P1",8,"Anxious",NA,"In",NA,NA,"EFDGCHBIAJK",NA,NA,"B (MDot First)",1,123,"SS1","SS1",4,"J","Judginess","w2ir4b",1,"response","87",1950.593,2684.132,2693.85599999851,1950.593,2684.132,2693.85599999851,1,1950.593,743.262999998511,0,NA,"Slider","J",3,"object-18","J","CFD-WF-037-029-N.jpg",NA,"SUPTM14738"
"13",1688990766955,"10/07/2023 12:06:06",1688976366955,-4,"10/07/2023 04:06:06",137495,33,"task-empj",NA,30591956,9082545,NA,"complete",NA,NA,"computer","Desktop or Laptop","Windows 10","Chrome 113.0.0.0","1920x1080","1920x969",NA,NA,NA,"JV Task P1",8,"Anxious",NA,"In",NA,NA,"EFDGCHBIAJK",NA,NA,"B (MDot First)",1,123,"SS1","SS1",4,"J","Fixation","mtm832",2,"continue","",966.985000000001,966.985000000001,966.985000000001,966.985000000001,966.985000000001,966.985000000001,1,966.985000000001,0,0,NA,"Fixation Timing","Fixation",1,"object-65","J","CFD-WF-037-029-N.jpg",NA,"SUPTM14738"
"14",1688990770654,"10/07/2023 12:06:10",1688976370654,-4,"10/07/2023 04:06:10",137495,33,"task-empj",NA,30591956,9082545,NA,"complete",NA,NA,"computer","Desktop or Laptop","Windows 10","Chrome 113.0.0.0","1920x1080","1920x969",NA,NA,NA,"JV Task P1",8,"Anxious",NA,"In",NA,NA,"EFDGCHBIAJK",NA,NA,"B (MDot First)",1,123,"SS1","SS1",1,"V","Valence","sn1sjn",1,"continue","",3698.73899999851,3684.459,3698.73899999851,3698.73899999851,3684.459,3698.73899999851,1,3698.73899999851,0,0,NA,"Click To Continue","Continue Button",1,"object-25","V","CFD-WM-015-002-H.jpeg",NA,"SUPTM14738"
"15",1688990770655,"10/07/2023 12:06:10",1688976370655,-4,"10/07/2023 04:06:10",137495,33,"task-empj",NA,30591956,9082545,NA,"complete",NA,NA,"computer","Desktop or Laptop","Windows 10","Chrome 113.0.0.0","1920x1080","1920x969",NA,NA,NA,"JV Task P1",8,"Anxious",NA,"In",NA,NA,"EFDGCHBIAJK",NA,NA,"B (MDot First)",1,123,"SS1","SS1",1,"V","Valence","sn1sjn",1,"response","98",2950.907,3684.459,3699.23899999851,2950.907,3684.459,3699.23899999851,1,2950.907,748.331999998511,0,NA,"Slider","J",3,"object-27","V","CFD-WM-015-002-H.jpeg",NA,"SUPTM14738"
"16",1688990771607,"10/07/2023 12:06:11",1688976371607,-4,"10/07/2023 04:06:11",137495,33,"task-empj",NA,30591956,9082545,NA,"complete",NA,NA,"computer","Desktop or Laptop","Windows 10","Chrome 113.0.0.0","1920x1080","1920x969",NA,NA,NA,"JV Task P1",8,"Anxious",NA,"In",NA,NA,"EFDGCHBIAJK",NA,NA,"B (MDot First)",1,123,"SS1","SS1",1,"V","Fixation","aydkg3",2,"continue","",966.971999999994,966.971999999994,966.971999999994,966.971999999994,966.971999999994,966.971999999994,1,966.971999999994,0,0,NA,"Fixation Timing","Fixation",1,"object-21","V","CFD-WM-015-002-H.jpeg",NA,"SUPTM14738"
"17",1688990774350,"10/07/2023 12:06:14",1688976374350,-4,"10/07/2023 04:06:14",137495,33,"task-empj",NA,30591956,9082545,NA,"complete",NA,NA,"computer","Desktop or Laptop","Windows 10","Chrome 113.0.0.0","1920x1080","1920x969",NA,NA,NA,"JV Task P1",8,"Anxious",NA,"In",NA,NA,"EFDGCHBIAJK",NA,NA,"B (MDot First)",1,123,"SS1","SS1",2,"V","Valence","sn1sjn",1,"continue","",2743.10800000298,2734.156,2743.10800000298,2743.10800000298,2734.156,2743.10800000298,1,2743.10800000298,0,0,NA,"Click To Continue","Continue Button",1,"object-25","V","CFD-BM-036-003-H.jpeg",NA,"SUPTM14738"
"18",1688990774355,"10/07/2023 12:06:14",1688976374355,-4,"10/07/2023 04:06:14",137495,33,"task-empj",NA,30591956,9082545,NA,"complete",NA,NA,"computer","Desktop or Laptop","Windows 10","Chrome 113.0.0.0","1920x1080","1920x969",NA,NA,NA,"JV Task P1",8,"Anxious",NA,"In",NA,NA,"EFDGCHBIAJK",NA,NA,"B (MDot First)",1,123,"SS1","SS1",2,"V","Valence","sn1sjn",1,"response","94",1683.836,2734.156,2747.60800000298,1683.836,2734.156,2747.60800000298,1,1683.836,1063.77200000298,0,NA,"Slider","J",3,"object-27","V","CFD-BM-036-003-H.jpeg",NA,"SUPTM14738"
"19",1688990775308,"10/07/2023 12:06:15",1688976375308,-4,"10/07/2023 04:06:15",137495,33,"task-empj",NA,30591956,9082545,NA,"complete",NA,NA,"computer","Desktop or Laptop","Windows 10","Chrome 113.0.0.0","1920x1080","1920x969",NA,NA,NA,"JV Task P1",8,"Anxious",NA,"In",NA,NA,"EFDGCHBIAJK",NA,NA,"B (MDot First)",1,123,"SS1","SS1",2,"V","Fixation","aydkg3",2,"continue","",966.966999999997,966.966999999997,966.966999999997,966.966999999997,966.966999999997,966.966999999997,1,966.966999999997,0,0,NA,"Fixation Timing","Fixation",1,"object-21","V","CFD-BM-036-003-H.jpeg",NA,"SUPTM14738"
"20",1688990778127,"10/07/2023 12:06:18",1688976378127,-4,"10/07/2023 04:06:18",137495,33,"task-empj",NA,30591956,9082545,NA,"complete",NA,NA,"computer","Desktop or Laptop","Windows 10","Chrome 113.0.0.0","1920x1080","1920x969",NA,NA,NA,"JV Task P1",8,"Anxious",NA,"In",NA,NA,"EFDGCHBIAJK",NA,NA,"B (MDot First)",1,123,"SS1","SS1",3,"V","Valence","sn1sjn",1,"continue","",2817.525,2800.853,2817.525,2817.525,2800.853,2817.525,1,2817.525,0,0,NA,"Click To Continue","Continue Button",1,"object-25","V","CFD-IF-693-172-S.jpeg",NA,"SUPTM14738"
"21",1688990778128,"10/07/2023 12:06:18",1688976378128,-4,"10/07/2023 04:06:18",137495,33,"task-empj",NA,30591956,9082545,NA,"complete",NA,NA,"computer","Desktop or Laptop","Windows 10","Chrome 113.0.0.0","1920x1080","1920x969",NA,NA,NA,"JV Task P1",8,"Anxious",NA,"In",NA,NA,"EFDGCHBIAJK",NA,NA,"B (MDot First)",1,123,"SS1","SS1",3,"V","Valence","sn1sjn",1,"response","2",2150.637,2800.853,2817.525,2150.637,2800.853,2817.525,1,2150.637,666.887999999999,0,NA,"Slider","J",3,"object-27","V","CFD-IF-693-172-S.jpeg",NA,"SUPTM14738"
"22",1688990779076,"10/07/2023 12:06:19",1688976379076,-4,"10/07/2023 04:06:19",137495,33,"task-empj",NA,30591956,9082545,NA,"complete",NA,NA,"computer","Desktop or Laptop","Windows 10","Chrome 113.0.0.0","1920x1080","1920x969",NA,NA,NA,"JV Task P1",8,"Anxious",NA,"In",NA,NA,"EFDGCHBIAJK",NA,NA,"B (MDot First)",1,123,"SS1","SS1",3,"V","Fixation","aydkg3",2,"continue","",966.970999999998,966.970999999998,966.970999999998,966.970999999998,966.970999999998,966.970999999998,1,966.970999999998,0,0,NA,"Fixation Timing","Fixation",1,"object-21","V","CFD-IF-693-172-S.jpeg",NA,"SUPTM14738"
"23",1688990781895,"10/07/2023 12:06:21",1688976381895,-4,"10/07/2023 04:06:21",137495,33,"task-empj",NA,30591956,9082545,NA,"complete",NA,NA,"computer","Desktop or Laptop","Windows 10","Chrome 113.0.0.0","1920x1080","1920x969",NA,NA,NA,"JV Task P1",8,"Anxious",NA,"In",NA,NA,"EFDGCHBIAJK",NA,NA,"B (MDot First)",1,123,"SS1","SS1",4,"V","Valence","sn1sjn",1,"continue","",2818.961,2817.506,2818.961,2818.961,2817.506,2818.961,1,2818.961,0,0,NA,"Click To Continue","Continue Button",1,"object-25","V","CFD-WM-024-015-H.jpeg",NA,"SUPTM14738"
"24",1688990781896,"10/07/2023 12:06:21",1688976381896,-4,"10/07/2023 04:06:21",137495,33,"task-empj",NA,30591956,9082545,NA,"complete",NA,NA,"computer","Desktop or Laptop","Windows 10","Chrome 113.0.0.0","1920x1080","1920x969",NA,NA,NA,"JV Task P1",8,"Anxious",NA,"In",NA,NA,"EFDGCHBIAJK",NA,NA,"B (MDot First)",1,123,"SS1","SS1",4,"V","Valence","sn1sjn",1,"response","98",2033.93700000001,2817.506,2819.961,2033.93700000001,2817.506,2819.961,1,2033.93700000001,786.023999999998,0,NA,"Slider","J",3,"object-27","V","CFD-WM-024-015-H.jpeg",NA,"SUPTM14738"
"25",1688990782861,"10/07/2023 12:06:22",1688976382861,-4,"10/07/2023 04:06:22",137495,33,"task-empj",NA,30591956,9082545,NA,"complete",NA,NA,"computer","Desktop or Laptop","Windows 10","Chrome 113.0.0.0","1920x1080","1920x969",NA,NA,NA,"JV Task P1",8,"Anxious",NA,"In",NA,NA,"EFDGCHBIAJK",NA,NA,"B (MDot First)",1,123,"SS1","SS1",4,"V","Fixation","aydkg3",2,"continue","",966.976000000002,966.976000000002,966.976000000002,966.976000000002,966.976000000002,966.976000000002,1,966.976000000002,0,0,NA,"Fixation Timing","Fixation",1,"object-21","V","CFD-WM-024-015-H.jpeg",NA,"SUPTM14738"
"26",1688990786022,"10/07/2023 12:06:26",1688976386022,-4,"10/07/2023 04:06:26",137495,33,"task-empj",NA,30591956,9082545,NA,"complete",NA,NA,"computer","Desktop or Laptop","Windows 10","Chrome 113.0.0.0","1920x1080","1920x969",NA,NA,NA,"JV Task P1",8,"Anxious",NA,"In",NA,NA,"EFDGCHBIAJK",NA,NA,"B (MDot First)",1,123,"SS1","SS1",5,"V","Valence","sn1sjn",1,"continue","",3161.37899999851,3150.971,3161.37899999851,3161.37899999851,3150.971,3161.37899999851,1,3161.37899999851,0,0,NA,"Click To Continue","Continue Button",1,"object-25","V","CFD-WF-030-002-H.jpeg",NA,"SUPTM14738"
"27",1688990786026,"10/07/2023 12:06:26",1688976386026,-4,"10/07/2023 04:06:26",137495,33,"task-empj",NA,30591956,9082545,NA,"complete",NA,NA,"computer","Desktop or Laptop","Windows 10","Chrome 113.0.0.0","1920x1080","1920x969",NA,NA,NA,"JV Task P1",8,"Anxious",NA,"In",NA,NA,"EFDGCHBIAJK",NA,NA,"B (MDot First)",1,123,"SS1","SS1",5,"V","Valence","sn1sjn",1,"response","91",2000.635,3150.971,3165.77899999702,2000.635,3150.971,3165.77899999702,1,2000.635,1165.14399999702,0,NA,"Slider","J",3,"object-27","V","CFD-WF-030-002-H.jpeg",NA,"SUPTM14738"
"28",1688990786978,"10/07/2023 12:06:26",1688976386978,-4,"10/07/2023 04:06:26",137495,33,"task-empj",NA,30591956,9082545,NA,"complete",NA,NA,"computer","Desktop or Laptop","Windows 10","Chrome 113.0.0.0","1920x1080","1920x969",NA,NA,NA,"JV Task P1",8,"Anxious",NA,"In",NA,NA,"EFDGCHBIAJK",NA,NA,"B (MDot First)",1,123,"SS1","SS1",5,"V","Fixation","aydkg3",2,"continue","",966.968000000001,966.968000000001,966.968000000001,966.968000000001,966.968000000001,966.968000000001,1,966.968000000001,0,0,NA,"Fixation Timing","Fixation",1,"object-21","V","CFD-WF-030-002-H.jpeg",NA,"SUPTM14738"
"29",1688990790014,"10/07/2023 12:06:30",1688976390014,-4,"10/07/2023 04:06:30",137495,33,"task-empj",NA,30591956,9082545,NA,"complete",NA,NA,"computer","Desktop or Laptop","Windows 10","Chrome 113.0.0.0","1920x1080","1920x969",NA,NA,NA,"JV Task P1",8,"Anxious",NA,"In",NA,NA,"EFDGCHBIAJK",NA,NA,"B (MDot First)",1,123,"SS1","SS1",6,"V","Valence","sn1sjn",1,"continue","",3035.83999999702,3034.343,3035.83999999702,3035.83999999702,3034.343,3035.83999999702,1,3035.83999999702,0,0,NA,"Click To Continue","Continue Button",1,"object-25","V","CFD-WM-031-003-N.jpg",NA,"SUPTM14738"
"30",1688990790015,"10/07/2023 12:06:30",1688976390015,-4,"10/07/2023 04:06:30",137495,33,"task-empj",NA,30591956,9082545,NA,"complete",NA,NA,"computer","Desktop or Laptop","Windows 10","Chrome 113.0.0.0","1920x1080","1920x969",NA,NA,NA,"JV Task P1",8,"Anxious",NA,"In",NA,NA,"EFDGCHBIAJK",NA,NA,"B (MDot First)",1,123,"SS1","SS1",6,"V","Valence","sn1sjn",1,"response","48",2400.723,3034.343,3036.33999999702,2400.723,3034.343,3036.33999999702,1,2400.723,635.616999997023,0,NA,"Slider","J",3,"object-27","V","CFD-WM-031-003-N.jpg",NA,"SUPTM14738"
"31",1688990790980,"10/07/2023 12:06:30",1688976390980,-4,"10/07/2023 04:06:30",137495,33,"task-empj",NA,30591956,9082545,NA,"complete",NA,NA,"computer","Desktop or Laptop","Windows 10","Chrome 113.0.0.0","1920x1080","1920x969",NA,NA,NA,"JV Task P1",8,"Anxious",NA,"In",NA,NA,"EFDGCHBIAJK",NA,NA,"B (MDot First)",1,123,"SS1","SS1",6,"V","Fixation","aydkg3",2,"continue","",966.881000000001,966.881000000001,966.881000000001,966.881000000001,966.881000000001,966.881000000001,1,966.881000000001,0,0,NA,"Fixation Timing","Fixation",1,"object-21","V","CFD-WM-031-003-N.jpg",NA,"SUPTM14738"
"32",1688990794535,"10/07/2023 12:06:34",1688976394535,-4,"10/07/2023 04:06:34",137495,33,"task-empj",NA,30591956,9082545,NA,"complete",NA,NA,"computer","Desktop or Laptop","Windows 10","Chrome 113.0.0.0","1920x1080","1920x969",NA,NA,NA,"JV Task P1",8,"Anxious",NA,"In",NA,NA,"EFDGCHBIAJK",NA,NA,"B (MDot First)",1,123,"SS1","SS1",7,"V","Valence","sn1sjn",1,"continue","",3555.316,3551.102,3555.316,3555.316,3551.102,3555.316,1,3555.316,0,0,NA,"Click To Continue","Continue Button",1,"object-25","V","CFD-BF-008-001-N.jpg",NA,"SUPTM14738"
"33",1688990794535,"10/07/2023 12:06:34",1688976394535,-4,"10/07/2023 04:06:34",137495,33,"task-empj",NA,30591956,9082545,NA,"complete",NA,NA,"computer","Desktop or Laptop","Windows 10","Chrome 113.0.0.0","1920x1080","1920x969",NA,NA,NA,"JV Task P1",8,"Anxious",NA,"In",NA,NA,"EFDGCHBIAJK",NA,NA,"B (MDot First)",1,123,"SS1","SS1",7,"V","Valence","sn1sjn",1,"response","50",2384.072,3551.102,3555.91600000149,2384.072,3551.102,3555.91600000149,1,2384.072,1171.84400000149,0,NA,"Slider","J",3,"object-27","V","CFD-BF-008-001-N.jpg",NA,"SUPTM14738"
"34",1688990795498,"10/07/2023 12:06:35",1688976395498,-4,"10/07/2023 04:06:35",137495,33,"task-empj",NA,30591956,9082545,NA,"complete",NA,NA,"computer","Desktop or Laptop","Windows 10","Chrome 113.0.0.0","1920x1080","1920x969",NA,NA,NA,"JV Task P1",8,"Anxious",NA,"In",NA,NA,"EFDGCHBIAJK",NA,NA,"B (MDot First)",1,123,"SS1","SS1",7,"V","Fixation","aydkg3",2,"continue","",966.951000000001,966.951000000001,966.951000000001,966.951000000001,966.951000000001,966.951000000001,1,966.951000000001,0,0,NA,"Fixation Timing","Fixation",1,"object-21","V","CFD-BF-008-001-N.jpg",NA,"SUPTM14738"
"35",1688990799094,"10/07/2023 12:06:39",1688976399094,-4,"10/07/2023 04:06:39",137495,33,"task-empj",NA,30591956,9082545,NA,"complete",NA,NA,"computer","Desktop or Laptop","Windows 10","Chrome 113.0.0.0","1920x1080","1920x969",NA,NA,NA,"JV Task P1",8,"Anxious",NA,"In",NA,NA,"EFDGCHBIAJK",NA,NA,"B (MDot First)",1,123,"SS1","SS1",8,"V","Valence","sn1sjn",1,"continue","",3596.16299999851,3584.436,3596.16299999851,3596.16299999851,3584.436,3596.16299999851,1,3596.16299999851,0,0,NA,"Click To Continue","Continue Button",1,"object-25","V","CFD-WM-028-003-N.jpg",NA,"SUPTM14738"
"36",1688990799098,"10/07/2023 12:06:39",1688976399098,-4,"10/07/2023 04:06:39",137495,33,"task-empj",NA,30591956,9082545,NA,"complete",NA,NA,"computer","Desktop or Laptop","Windows 10","Chrome 113.0.0.0","1920x1080","1920x969",NA,NA,NA,"JV Task P1",8,"Anxious",NA,"In",NA,NA,"EFDGCHBIAJK",NA,NA,"B (MDot First)",1,123,"SS1","SS1",8,"V","Valence","sn1sjn",1,"response","49",2150.645,3584.436,3600.763,2150.645,3584.436,3600.763,1,2150.645,1450.118,0,NA,"Slider","J",3,"object-27","V","CFD-WM-028-003-N.jpg",NA,"SUPTM14738"
"37",1688990800049,"10/07/2023 12:06:40",1688976400049,-4,"10/07/2023 04:06:40",137495,33,"task-empj",NA,30591956,9082545,NA,"complete",NA,NA,"computer","Desktop or Laptop","Windows 10","Chrome 113.0.0.0","1920x1080","1920x969",NA,NA,NA,"JV Task P1",8,"Anxious",NA,"In",NA,NA,"EFDGCHBIAJK",NA,NA,"B (MDot First)",1,123,"SS1","SS1",8,"V","Fixation","aydkg3",2,"continue","",966.962999999996,966.962999999996,966.962999999996,966.962999999996,966.962999999996,966.962999999996,1,966.962999999996,0,0,NA,"Fixation Timing","Fixation",1,"object-21","V","CFD-WM-028-003-N.jpg",NA,"SUPTM14738"
"38",1688990802606,"10/07/2023 12:06:42",1688976402606,-4,"10/07/2023 04:06:42",137495,33,"task-empj",NA,30591956,9082545,NA,"complete",NA,NA,"computer","Desktop or Laptop","Windows 10","Chrome 113.0.0.0","1920x1080","1920x969",NA,NA,NA,"JV Task P1",8,"Anxious",NA,"In",NA,NA,"EFDGCHBIAJK",NA,NA,"B (MDot First)",1,123,"SS1","SS1",5,"J","Judginess","w2ir4b",1,"continue","",2557.46400000149,2550.781,2557.46400000149,2557.46400000149,2550.781,2557.46400000149,1,2557.46400000149,0,0,NA,"Click To Continue","Continue Button",1,"object-14","J","CFD-BM-028-002-S.jpeg",NA,"SUPTM14738"
"39",1688990802607,"10/07/2023 12:06:42",1688976402607,-4,"10/07/2023 04:06:42",137495,33,"task-empj",NA,30591956,9082545,NA,"complete",NA,NA,"computer","Desktop or Laptop","Windows 10","Chrome 113.0.0.0","1920x1080","1920x969",NA,NA,NA,"JV Task P1",8,"Anxious",NA,"In",NA,NA,"EFDGCHBIAJK",NA,NA,"B (MDot First)",1,123,"SS1","SS1",5,"J","Judginess","w2ir4b",1,"response","49",1650.497,2550.781,2557.96400000149,1650.497,2550.781,2557.96400000149,1,1650.497,907.467000001488,0,NA,"Slider","J",3,"object-18","J","CFD-BM-028-002-S.jpeg",NA,"SUPTM14738"
"40",1688990803567,"10/07/2023 12:06:43",1688976403567,-4,"10/07/2023 04:06:43",137495,33,"task-empj",NA,30591956,9082545,NA,"complete",NA,NA,"computer","Desktop or Laptop","Windows 10","Chrome 113.0.0.0","1920x1080","1920x969",NA,NA,NA,"JV Task P1",8,"Anxious",NA,"In",NA,NA,"EFDGCHBIAJK",NA,NA,"B (MDot First)",1,123,"SS1","SS1",5,"J","Fixation","mtm832",2,"continue","",966.937000000005,966.937000000005,966.937000000005,966.937000000005,966.937000000005,966.937000000005,1,966.937000000005,0,0,NA,"Fixation Timing","Fixation",1,"object-65","J","CFD-BM-028-002-S.jpeg",NA,"SUPTM14738"
"41",1688990808318,"10/07/2023 12:06:48",1688976408318,-4,"10/07/2023 04:06:48",137495,33,"task-empj",NA,30591956,9082545,NA,"complete",NA,NA,"computer","Desktop or Laptop","Windows 10","Chrome 113.0.0.0","1920x1080","1920x969",NA,NA,NA,"JV Task P1",8,"Anxious",NA,"In",NA,NA,"EFDGCHBIAJK",NA,NA,"B (MDot First)",1,123,"SS1","SS1",6,"J","Judginess","w2ir4b",1,"continue","",4750.94599999701,4734.799,4750.94599999701,4750.94599999701,4734.799,4750.94599999701,1,4750.94599999701,0,0,NA,"Click To Continue","Continue Button",1,"object-14","J","CFD-WM-001-014-H.jpeg",NA,"SUPTM14738"
"42",1688990808318,"10/07/2023 12:06:48",1688976408318,-4,"10/07/2023 04:06:48",137495,33,"task-empj",NA,30591956,9082545,NA,"complete",NA,NA,"computer","Desktop or Laptop","Windows 10","Chrome 113.0.0.0","1920x1080","1920x969",NA,NA,NA,"JV Task P1",8,"Anxious",NA,"In",NA,NA,"EFDGCHBIAJK",NA,NA,"B (MDot First)",1,123,"SS1","SS1",6,"J","Judginess","w2ir4b",1,"response","94",2934.25499999999,4734.799,4751.451,2934.25499999999,4734.799,4751.451,1,2934.25499999999,1817.19600000001,0,NA,"Slider","J",3,"object-18","J","CFD-WM-001-014-H.jpeg",NA,"SUPTM14738"
"43",1688990809269,"10/07/2023 12:06:49",1688976409269,-4,"10/07/2023 04:06:49",137495,33,"task-empj",NA,30591956,9082545,NA,"complete",NA,NA,"computer","Desktop or Laptop","Windows 10","Chrome 113.0.0.0","1920x1080","1920x969",NA,NA,NA,"JV Task P1",8,"Anxious",NA,"In",NA,NA,"EFDGCHBIAJK",NA,NA,"B (MDot First)",1,123,"SS1","SS1",6,"J","Fixation","mtm832",2,"continue","",966.954999999987,966.954999999987,966.954999999987,966.954999999987,966.954999999987,966.954999999987,1,966.954999999987,0,0,NA,"Fixation Timing","Fixation",1,"object-65","J","CFD-WM-001-014-H.jpeg",NA,"SUPTM14738"
"44",1688990811743,"10/07/2023 12:06:51",1688976411743,-4,"10/07/2023 04:06:51",137495,33,"task-empj",NA,30591956,9082545,NA,"complete",NA,NA,"computer","Desktop or Laptop","Windows 10","Chrome 113.0.0.0","1920x1080","1920x969",NA,NA,NA,"JV Task P1",8,"Anxious",NA,"In",NA,NA,"EFDGCHBIAJK",NA,NA,"B (MDot First)",1,123,"SS1","SS1",7,"J","Judginess","w2ir4b",1,"continue","",2474.19199999703,2467.45800000001,2474.19199999703,2474.19199999703,2467.45800000001,2474.19199999703,1,2474.19199999703,0,0,NA,"Click To Continue","Continue Button",1,"object-14","J","CFD-IM-695-001-H.jpeg",NA,"SUPTM14738"
"45",1688990811743,"10/07/2023 12:06:51",1688976411743,-4,"10/07/2023 04:06:51",137495,33,"task-empj",NA,30591956,9082545,NA,"complete",NA,NA,"computer","Desktop or Laptop","Windows 10","Chrome 113.0.0.0","1920x1080","1920x969",NA,NA,NA,"JV Task P1",8,"Anxious",NA,"In",NA,NA,"EFDGCHBIAJK",NA,NA,"B (MDot First)",1,123,"SS1","SS1",7,"J","Judginess","w2ir4b",1,"response","90",1767.202,2467.45800000001,2474.69199999703,1767.202,2467.45800000001,2474.69199999703,1,1767.202,707.489999997022,0,NA,"Slider","J",3,"object-18","J","CFD-IM-695-001-H.jpeg",NA,"SUPTM14738"
"46",1688990812703,"10/07/2023 12:06:52",1688976412703,-4,"10/07/2023 04:06:52",137495,33,"task-empj",NA,30591956,9082545,NA,"complete",NA,NA,"computer","Desktop or Laptop","Windows 10","Chrome 113.0.0.0","1920x1080","1920x969",NA,NA,NA,"JV Task P1",8,"Anxious",NA,"In",NA,NA,"EFDGCHBIAJK",NA,NA,"B (MDot First)",1,123,"SS1","SS1",7,"J","Fixation","mtm832",2,"continue","",966.962999999989,966.962999999989,966.962999999989,966.962999999989,966.962999999989,966.962999999989,1,966.962999999989,0,0,NA,"Fixation Timing","Fixation",1,"object-65","J","CFD-IM-695-001-H.jpeg",NA,"SUPTM14738"
"47",1688990816127,"10/07/2023 12:06:56",1688976416127,-4,"10/07/2023 04:06:56",137495,33,"task-empj",NA,30591956,9082545,NA,"complete",NA,NA,"computer","Desktop or Laptop","Windows 10","Chrome 113.0.0.0","1920x1080","1920x969",NA,NA,NA,"JV Task P1",8,"Anxious",NA,"In",NA,NA,"EFDGCHBIAJK",NA,NA,"B (MDot First)",1,123,"SS1","SS1",9,"V","Valence","sn1sjn",1,"continue","",3424.27099999702,3417.69,3424.27099999702,3424.27099999702,3417.69,3424.27099999702,1,3424.27099999702,0,0,NA,"Click To Continue","Continue Button",1,"object-25","V","CFD-WM-024-015-H.jpeg",NA,"SUPTM14738"
"48",1688990816128,"10/07/2023 12:06:56",1688976416128,-4,"10/07/2023 04:06:56",137495,33,"task-empj",NA,30591956,9082545,NA,"complete",NA,NA,"computer","Desktop or Laptop","Windows 10","Chrome 113.0.0.0","1920x1080","1920x969",NA,NA,NA,"JV Task P1",8,"Anxious",NA,"In",NA,NA,"EFDGCHBIAJK",NA,NA,"B (MDot First)",1,123,"SS1","SS1",9,"V","Valence","sn1sjn",1,"response","100",2634.11900000001,3417.69,3425.17100000299,2634.11900000001,3417.69,3425.17100000299,1,2634.11900000001,791.052000002979,0,NA,"Slider","J",3,"object-27","V","CFD-WM-024-015-H.jpeg",NA,"SUPTM14738"
"49",1688990817088,"10/07/2023 12:06:57",1688976417088,-4,"10/07/2023 04:06:57",137495,33,"task-empj",NA,30591956,9082545,NA,"complete",NA,NA,"computer","Desktop or Laptop","Windows 10","Chrome 113.0.0.0","1920x1080","1920x969",NA,NA,NA,"JV Task P1",8,"Anxious",NA,"In",NA,NA,"EFDGCHBIAJK",NA,NA,"B (MDot First)",1,123,"SS1","SS1",9,"V","Fixation","aydkg3",2,"continue","",966.991999999998,966.991999999998,966.991999999998,966.991999999998,966.991999999998,966.991999999998,1,966.991999999998,0,0,NA,"Fixation Timing","Fixation",1,"object-21","V","CFD-WM-024-015-H.jpeg",NA,"SUPTM14738"
"50",1688990819990,"10/07/2023 12:06:59",1688976419990,-4,"10/07/2023 04:06:59",137495,33,"task-empj",NA,30591956,9082545,NA,"complete",NA,NA,"computer","Desktop or Laptop","Windows 10","Chrome 113.0.0.0","1920x1080","1920x969",NA,NA,NA,"JV Task P1",8,"Anxious",NA,"In",NA,NA,"EFDGCHBIAJK",NA,NA,"B (MDot First)",1,123,"SS1","SS1",10,"V","Valence","sn1sjn",1,"continue","",2902.289,2900.84700000001,2902.289,2902.289,2900.84700000001,2902.289,1,2902.289,0,0,NA,"Click To Continue","Continue Button",1,"object-25","V","CFD-WF-039-025-N.jpg",NA,"SUPTM14738"
"51",1688990819996,"10/07/2023 12:06:59",1688976419996,-4,"10/07/2023 04:06:59",137495,33,"task-empj",NA,30591956,9082545,NA,"complete",NA,NA,"computer","Desktop or Laptop","Windows 10","Chrome 113.0.0.0","1920x1080","1920x969",NA,NA,NA,"JV Task P1",8,"Anxious",NA,"In",NA,NA,"EFDGCHBIAJK",NA,NA,"B (MDot First)",1,123,"SS1","SS1",10,"V","Valence","sn1sjn",1,"response","48",2033.936,2900.84700000001,2908.08899999702,2033.936,2900.84700000001,2908.08899999702,1,2033.936,874.152999997023,0,NA,"Slider","J",3,"object-27","V","CFD-WF-039-025-N.jpg",NA,"SUPTM14738"
"52",1688990820956,"10/07/2023 12:07:00",1688976420956,-4,"10/07/2023 04:07:00",137495,33,"task-empj",NA,30591956,9082545,NA,"complete",NA,NA,"computer","Desktop or Laptop","Windows 10","Chrome 113.0.0.0","1920x1080","1920x969",NA,NA,NA,"JV Task P1",8,"Anxious",NA,"In",NA,NA,"EFDGCHBIAJK",NA,NA,"B (MDot First)",1,123,"SS1","SS1",10,"V","Fixation","aydkg3",2,"continue","",966.976999999999,966.976999999999,966.976999999999,966.976999999999,966.976999999999,966.976999999999,1,966.976999999999,0,0,NA,"Fixation Timing","Fixation",1,"object-21","V","CFD-WF-039-025-N.jpg",NA,"SUPTM14738"
"53",1688990824047,"10/07/2023 12:07:04",1688976424047,-4,"10/07/2023 04:07:04",137495,33,"task-empj",NA,30591956,9082545,NA,"complete",NA,NA,"computer","Desktop or Laptop","Windows 10","Chrome 113.0.0.0","1920x1080","1920x969",NA,NA,NA,"JV Task P1",8,"Anxious",NA,"In",NA,NA,"EFDGCHBIAJK",NA,NA,"B (MDot First)",1,123,"SS1","SS1",11,"V","Valence","sn1sjn",1,"continue","",3091.56500000149,3084.291,3091.56500000149,3091.56500000149,3084.291,3091.56500000149,1,3091.56500000149,0,0,NA,"Click To Continue","Continue Button",1,"object-25","V","CFD-WF-012-002-N.jpg",NA,"SUPTM14738"
"54",1688990824048,"10/07/2023 12:07:04",1688976424048,-4,"10/07/2023 04:07:04",137495,33,"task-empj",NA,30591956,9082545,NA,"complete",NA,NA,"computer","Desktop or Laptop","Windows 10","Chrome 113.0.0.0","1920x1080","1920x969",NA,NA,NA,"JV Task P1",8,"Anxious",NA,"In",NA,NA,"EFDGCHBIAJK",NA,NA,"B (MDot First)",1,123,"SS1","SS1",11,"V","Valence","sn1sjn",1,"response","50",1833.902,3084.291,3092.66500000298,1833.902,3084.291,3092.66500000298,1,1833.902,1258.76300000297,0,NA,"Slider","J",3,"object-27","V","CFD-WF-012-002-N.jpg",NA,"SUPTM14738"
"55",1688990825007,"10/07/2023 12:07:05",1688976425007,-4,"10/07/2023 04:07:05",137495,33,"task-empj",NA,30591956,9082545,NA,"complete",NA,NA,"computer","Desktop or Laptop","Windows 10","Chrome 113.0.0.0","1920x1080","1920x969",NA,NA,NA,"JV Task P1",8,"Anxious",NA,"In",NA,NA,"EFDGCHBIAJK",NA,NA,"B (MDot First)",1,123,"SS1","SS1",11,"V","Fixation","aydkg3",2,"continue","",966.972999999998,966.972999999998,966.972999999998,966.972999999998,966.972999999998,966.972999999998,1,966.972999999998,0,0,NA,"Fixation Timing","Fixation",1,"object-21","V","CFD-WF-012-002-N.jpg",NA,"SUPTM14738"
"56",1688990828333,"10/07/2023 12:07:08",1688976428333,-4,"10/07/2023 04:07:08",137495,33,"task-empj",NA,30591956,9082545,NA,"complete",NA,NA,"computer","Desktop or Laptop","Windows 10","Chrome 113.0.0.0","1920x1080","1920x969",NA,NA,NA,"JV Task P1",8,"Anxious",NA,"In",NA,NA,"EFDGCHBIAJK",NA,NA,"B (MDot First)",1,123,"SS1","SS1",12,"V","Valence","sn1sjn",1,"continue","",3326.90100000298,3317.67,3326.90100000298,3326.90100000298,3317.67,3326.90100000298,1,3326.90100000298,0,0,NA,"Click To Continue","Continue Button",1,"object-25","V","CFD-MF-315-002-S.jpeg",NA,"SUPTM14738"
"57",1688990828334,"10/07/2023 12:07:08",1688976428334,-4,"10/07/2023 04:07:08",137495,33,"task-empj",NA,30591956,9082545,NA,"complete",NA,NA,"computer","Desktop or Laptop","Windows 10","Chrome 113.0.0.0","1920x1080","1920x969",NA,NA,NA,"JV Task P1",8,"Anxious",NA,"In",NA,NA,"EFDGCHBIAJK",NA,NA,"B (MDot First)",1,123,"SS1","SS1",12,"V","Valence","sn1sjn",1,"response","19",2434.067,3317.67,3327.30100000149,2434.067,3317.67,3327.30100000149,1,2434.067,893.234000001496,0,NA,"Slider","J",3,"object-27","V","CFD-MF-315-002-S.jpeg",NA,"SUPTM14738"
"58",1688990829291,"10/07/2023 12:07:09",1688976429291,-4,"10/07/2023 04:07:09",137495,33,"task-empj",NA,30591956,9082545,NA,"complete",NA,NA,"computer","Desktop or Laptop","Windows 10","Chrome 113.0.0.0","1920x1080","1920x969",NA,NA,NA,"JV Task P1",8,"Anxious",NA,"In",NA,NA,"EFDGCHBIAJK",NA,NA,"B (MDot First)",1,123,"SS1","SS1",12,"V","Fixation","aydkg3",2,"continue","",966.972999999998,966.972999999998,966.972999999998,966.972999999998,966.972999999998,966.972999999998,1,966.972999999998,0,0,NA,"Fixation Timing","Fixation",1,"object-21","V","CFD-MF-315-002-S.jpeg",NA,"SUPTM14738"
"59",1688990834718,"10/07/2023 12:07:14",1688976434718,-4,"10/07/2023 04:07:14",137495,33,"task-empj",NA,30591956,9082545,NA,"complete",NA,NA,"computer","Desktop or Laptop","Windows 10","Chrome 113.0.0.0","1920x1080","1920x969",NA,NA,NA,"JV Task P1",8,"Anxious",NA,"In",NA,NA,"EFDGCHBIAJK",NA,NA,"B (MDot First)",1,123,"SS1","SS1",8,"J","Judginess","w2ir4b",1,"continue","",5426.25800000298,5418.31,5426.25800000298,5426.25800000298,5418.31,5426.25800000298,1,5426.25800000298,0,0,NA,"Click To Continue","Continue Button",1,"object-14","J","CFD-IF-693-172-N.jpg",NA,"SUPTM14738"
"60",1688990834721,"10/07/2023 12:07:14",1688976434721,-4,"10/07/2023 04:07:14",137495,33,"task-empj",NA,30591956,9082545,NA,"complete",NA,NA,"computer","Desktop or Laptop","Windows 10","Chrome 113.0.0.0","1920x1080","1920x969",NA,NA,NA,"JV Task P1",8,"Anxious",NA,"In",NA,NA,"EFDGCHBIAJK",NA,NA,"B (MDot First)",1,123,"SS1","SS1",8,"J","Judginess","w2ir4b",1,"response","11",2567.43000000001,5418.31,5430.15800000149,2567.43000000001,5418.31,5430.15800000149,1,2567.43000000001,2862.72800000149,0,NA,"Slider","J",3,"object-18","J","CFD-IF-693-172-N.jpg",NA,"SUPTM14738"
"61",1688990835677,"10/07/2023 12:07:15",1688976435677,-4,"10/07/2023 04:07:15",137495,33,"task-empj",NA,30591956,9082545,NA,"complete",NA,NA,"computer","Desktop or Laptop","Windows 10","Chrome 113.0.0.0","1920x1080","1920x969",NA,NA,NA,"JV Task P1",8,"Anxious",NA,"In",NA,NA,"EFDGCHBIAJK",NA,NA,"B (MDot First)",1,123,"SS1","SS1",8,"J","Fixation","mtm832",2,"continue","",966.956000000006,966.956000000006,966.956000000006,966.956000000006,966.956000000006,966.956000000006,1,966.956000000006,0,0,NA,"Fixation Timing","Fixation",1,"object-65","J","CFD-IF-693-172-N.jpg",NA,"SUPTM14738"
"62",1688990839470,"10/07/2023 12:07:19",1688976439470,-4,"10/07/2023 04:07:19",137495,33,"task-empj",NA,30591956,9082545,NA,"complete",NA,NA,"computer","Desktop or Laptop","Windows 10","Chrome 113.0.0.0","1920x1080","1920x969",NA,NA,NA,"JV Task P1",8,"Anxious",NA,"In",NA,NA,"EFDGCHBIAJK",NA,NA,"B (MDot First)",1,123,"SS1","SS1",13,"V","Valence","sn1sjn",1,"continue","",3793.19199999851,3784.5,3793.19199999851,3793.19199999851,3784.5,3793.19199999851,1,3793.19199999851,0,0,NA,"Click To Continue","Continue Button",1,"object-25","V","CFD-BM-045-004-H.jpeg",NA,"SUPTM14738"
"63",1688990839470,"10/07/2023 12:07:19",1688976439470,-4,"10/07/2023 04:07:19",137495,33,"task-empj",NA,30591956,9082545,NA,"complete",NA,NA,"computer","Desktop or Laptop","Windows 10","Chrome 113.0.0.0","1920x1080","1920x969",NA,NA,NA,"JV Task P1",8,"Anxious",NA,"In",NA,NA,"EFDGCHBIAJK",NA,NA,"B (MDot First)",1,123,"SS1","SS1",13,"V","Valence","sn1sjn",1,"response","98",2917.568,3784.5,3793.49200000298,2917.568,3784.5,3793.49200000298,1,2917.568,875.924000002982,0,NA,"Slider","J",3,"object-27","V","CFD-BM-045-004-H.jpeg",NA,"SUPTM14738"
"64",1688990840428,"10/07/2023 12:07:20",1688976440428,-4,"10/07/2023 04:07:20",137495,33,"task-empj",NA,30591956,9082545,NA,"complete",NA,NA,"computer","Desktop or Laptop","Windows 10","Chrome 113.0.0.0","1920x1080","1920x969",NA,NA,NA,"JV Task P1",8,"Anxious",NA,"In",NA,NA,"EFDGCHBIAJK",NA,NA,"B (MDot First)",1,123,"SS1","SS1",13,"V","Fixation","aydkg3",2,"continue","",966.972999999998,966.972999999998,966.972999999998,966.972999999998,966.972999999998,966.972999999998,1,966.972999999998,0,0,NA,"Fixation Timing","Fixation",1,"object-21","V","CFD-BM-045-004-H.jpeg",NA,"SUPTM14738"
"65",1688990846093,"10/07/2023 12:07:26",1688976446093,-4,"10/07/2023 04:07:26",137495,33,"task-empj",NA,30591956,9082545,NA,"complete",NA,NA,"computer","Desktop or Laptop","Windows 10","Chrome 113.0.0.0","1920x1080","1920x969",NA,NA,NA,"JV Task P1",8,"Anxious",NA,"In",NA,NA,"EFDGCHBIAJK",NA,NA,"B (MDot First)",1,123,"SS1","SS1",9,"J","Judginess","w2ir4b",1,"continue","",5665.319,5651.71000000001,5665.319,5665.319,5651.71000000001,5665.319,1,5665.319,0,0,NA,"Click To Continue","Continue Button",1,"object-14","J","CFD-BM-028-002-N.jpg",NA,"SUPTM14738"
"66",1688990846096,"10/07/2023 12:07:26",1688976446096,-4,"10/07/2023 04:07:26",137495,33,"task-empj",NA,30591956,9082545,NA,"complete",NA,NA,"computer","Desktop or Laptop","Windows 10","Chrome 113.0.0.0","1920x1080","1920x969",NA,NA,NA,"JV Task P1",8,"Anxious",NA,"In",NA,NA,"EFDGCHBIAJK",NA,NA,"B (MDot First)",1,123,"SS1","SS1",9,"J","Judginess","w2ir4b",1,"response","50",4934.85800000001,5651.71000000001,5667.91900000149,4934.85800000001,5651.71000000001,5667.91900000149,1,4934.85800000001,733.061000001486,0,NA,"Slider","J",3,"object-18","J","CFD-BM-028-002-N.jpg",NA,"SUPTM14738"
"67",1688990847047,"10/07/2023 12:07:27",1688976447047,-4,"10/07/2023 04:07:27",137495,33,"task-empj",NA,30591956,9082545,NA,"complete",NA,NA,"computer","Desktop or Laptop","Windows 10","Chrome 113.0.0.0","1920x1080","1920x969",NA,NA,NA,"JV Task P1",8,"Anxious",NA,"In",NA,NA,"EFDGCHBIAJK",NA,NA,"B (MDot First)",1,123,"SS1","SS1",9,"J","Fixation","mtm832",2,"continue","",966.987999999998,966.987999999998,966.987999999998,966.987999999998,966.987999999998,966.987999999998,1,966.987999999998,0,0,NA,"Fixation Timing","Fixation",1,"object-65","J","CFD-BM-028-002-N.jpg",NA,"SUPTM14738"
"68",1688990849182,"10/07/2023 12:07:29",1688976449182,-4,"10/07/2023 04:07:29",137495,33,"task-empj",NA,30591956,9082545,NA,"complete",NA,NA,"computer","Desktop or Laptop","Windows 10","Chrome 113.0.0.0","1920x1080","1920x969",NA,NA,NA,"JV Task P1",8,"Anxious",NA,"In",NA,NA,"EFDGCHBIAJK",NA,NA,"B (MDot First)",1,123,"SS1","SS1",14,"V","Valence","sn1sjn",1,"continue","",2135.42099999702,2133.962,2135.42099999702,2135.42099999702,2133.962,2135.42099999702,1,2135.42099999702,0,0,NA,"Click To Continue","Continue Button",1,"object-25","V","CFD-AF-250-200-H.jpeg",NA,"SUPTM14738"
"69",1688990849183,"10/07/2023 12:07:29",1688976449183,-4,"10/07/2023 04:07:29",137495,33,"task-empj",NA,30591956,9082545,NA,"complete",NA,NA,"computer","Desktop or Laptop","Windows 10","Chrome 113.0.0.0","1920x1080","1920x969",NA,NA,NA,"JV Task P1",8,"Anxious",NA,"In",NA,NA,"EFDGCHBIAJK",NA,NA,"B (MDot First)",1,123,"SS1","SS1",14,"V","Valence","sn1sjn",1,"response","99",1500.44,2133.962,2136.121,1500.44,2133.962,2136.121,1,1500.44,635.680999999997,0,NA,"Slider","J",3,"object-27","V","CFD-AF-250-200-H.jpeg",NA,"SUPTM14738"
"70",1688990850148,"10/07/2023 12:07:30",1688976450148,-4,"10/07/2023 04:07:30",137495,33,"task-empj",NA,30591956,9082545,NA,"complete",NA,NA,"computer","Desktop or Laptop","Windows 10","Chrome 113.0.0.0","1920x1080","1920x969",NA,NA,NA,"JV Task P1",8,"Anxious",NA,"In",NA,NA,"EFDGCHBIAJK",NA,NA,"B (MDot First)",1,123,"SS1","SS1",14,"V","Fixation","aydkg3",2,"continue","",966.966,966.966,966.966,966.966,966.966,966.966,1,966.966,0,0,NA,"Fixation Timing","Fixation",1,"object-21","V","CFD-AF-250-200-H.jpeg",NA,"SUPTM14738"
"71",1688990854758,"10/07/2023 12:07:34",1688976454758,-4,"10/07/2023 04:07:34",137495,33,"task-empj",NA,30591956,9082545,NA,"complete",NA,NA,"computer","Desktop or Laptop","Windows 10","Chrome 113.0.0.0","1920x1080","1920x969",NA,NA,NA,"JV Task P1",8,"Anxious",NA,"In",NA,NA,"EFDGCHBIAJK",NA,NA,"B (MDot First)",1,123,"SS1","SS1",15,"V","Valence","sn1sjn",1,"continue","",4610.49299999702,4601.442,4610.49299999702,4610.49299999702,4601.442,4610.49299999702,1,4610.49299999702,0,0,NA,"Click To Continue","Continue Button",1,"object-25","V","CFD-WM-034-030-N.jpg",NA,"SUPTM14738"
"72",1688990854758,"10/07/2023 12:07:34",1688976454758,-4,"10/07/2023 04:07:34",137495,33,"task-empj",NA,30591956,9082545,NA,"complete",NA,NA,"computer","Desktop or Laptop","Windows 10","Chrome 113.0.0.0","1920x1080","1920x969",NA,NA,NA,"JV Task P1",8,"Anxious",NA,"In",NA,NA,"EFDGCHBIAJK",NA,NA,"B (MDot First)",1,123,"SS1","SS1",15,"V","Valence","sn1sjn",1,"response","20",3917.878,4601.442,4610.89300000298,3917.878,4601.442,4610.89300000298,1,3917.878,693.015000002983,0,NA,"Slider","J",3,"object-27","V","CFD-WM-034-030-N.jpg",NA,"SUPTM14738"
"73",1688990855716,"10/07/2023 12:07:35",1688976455716,-4,"10/07/2023 04:07:35",137495,33,"task-empj",NA,30591956,9082545,NA,"complete",NA,NA,"computer","Desktop or Laptop","Windows 10","Chrome 113.0.0.0","1920x1080","1920x969",NA,NA,NA,"JV Task P1",8,"Anxious",NA,"In",NA,NA,"EFDGCHBIAJK",NA,NA,"B (MDot First)",1,123,"SS1","SS1",15,"V","Fixation","aydkg3",2,"continue","",966.946000000011,966.946000000011,966.946000000011,966.946000000011,966.946000000011,966.946000000011,1,966.946000000011,0,0,NA,"Fixation Timing","Fixation",1,"object-21","V","CFD-WM-034-030-N.jpg",NA,"SUPTM14738"
"74",1688990859926,"10/07/2023 12:07:39",1688976459926,-4,"10/07/2023 04:07:39",137495,33,"task-empj",NA,30591956,9082545,NA,"complete",NA,NA,"computer","Desktop or Laptop","Windows 10","Chrome 113.0.0.0","1920x1080","1920x969",NA,NA,NA,"JV Task P1",8,"Anxious",NA,"In",NA,NA,"EFDGCHBIAJK",NA,NA,"B (MDot First)",1,123,"SS1","SS1",16,"V","Valence","sn1sjn",1,"continue","",4209.80499999999,4201.28499999999,4209.80499999999,4209.80499999999,4201.28499999999,4209.80499999999,1,4209.80499999999,0,0,NA,"Click To Continue","Continue Button",1,"object-25","V","CFD-WF-009-001-N.jpg",NA,"SUPTM14738"
"75",1688990859930,"10/07/2023 12:07:39",1688976459930,-4,"10/07/2023 04:07:39",137495,33,"task-empj",NA,30591956,9082545,NA,"complete",NA,NA,"computer","Desktop or Laptop","Windows 10","Chrome 113.0.0.0","1920x1080","1920x969",NA,NA,NA,"JV Task P1",8,"Anxious",NA,"In",NA,NA,"EFDGCHBIAJK",NA,NA,"B (MDot First)",1,123,"SS1","SS1",16,"V","Valence","sn1sjn",1,"response","14",3167.65299999999,4201.28499999999,4213.90500000148,3167.65299999999,4201.28499999999,4213.90500000148,1,3167.65299999999,1046.25200000149,0,NA,"Slider","J",3,"object-27","V","CFD-WF-009-001-N.jpg",NA,"SUPTM14738"
"76",1688990860884,"10/07/2023 12:07:40",1688976460884,-4,"10/07/2023 04:07:40",137495,33,"task-empj",NA,30591956,9082545,NA,"complete",NA,NA,"computer","Desktop or Laptop","Windows 10","Chrome 113.0.0.0","1920x1080","1920x969",NA,NA,NA,"JV Task P1",8,"Anxious",NA,"In",NA,NA,"EFDGCHBIAJK",NA,NA,"B (MDot First)",1,123,"SS1","SS1",16,"V","Fixation","aydkg3",2,"continue","",966.970000000001,966.970000000001,966.970000000001,966.970000000001,966.970000000001,966.970000000001,1,966.970000000001,0,0,NA,"Fixation Timing","Fixation",1,"object-21","V","CFD-WF-009-001-N.jpg",NA,"SUPTM14738"
"77",1688990862958,"10/07/2023 12:07:42",1688976462958,-4,"10/07/2023 04:07:42",137495,33,"task-empj",NA,30591956,9082545,NA,"complete",NA,NA,"computer","Desktop or Laptop","Windows 10","Chrome 113.0.0.0","1920x1080","1920x969",NA,NA,NA,"JV Task P1",8,"Anxious",NA,"In",NA,NA,"EFDGCHBIAJK",NA,NA,"B (MDot First)",1,123,"SS1","SS1",10,"J","Judginess","w2ir4b",1,"continue","",2074.25000000298,2067.3,2074.25000000298,2074.25000000298,2067.3,2074.25000000298,1,2074.25000000298,0,0,NA,"Click To Continue","Continue Button",1,"object-14","J","CFD-WF-009-001-H.jpeg",NA,"SUPTM14738"
"78",1688990862959,"10/07/2023 12:07:42",1688976462959,-4,"10/07/2023 04:07:42",137495,33,"task-empj",NA,30591956,9082545,NA,"complete",NA,NA,"computer","Desktop or Laptop","Windows 10","Chrome 113.0.0.0","1920x1080","1920x969",NA,NA,NA,"JV Task P1",8,"Anxious",NA,"In",NA,NA,"EFDGCHBIAJK",NA,NA,"B (MDot First)",1,123,"SS1","SS1",10,"J","Judginess","w2ir4b",1,"response","98",1367.073,2067.3,2074.65000000149,1367.073,2067.3,2074.65000000149,1,1367.073,707.577000001489,0,NA,"Slider","J",3,"object-18","J","CFD-WF-009-001-H.jpeg",NA,"SUPTM14738"
"79",1688990863919,"10/07/2023 12:07:43",1688976463919,-4,"10/07/2023 04:07:43",137495,33,"task-empj",NA,30591956,9082545,NA,"complete",NA,NA,"computer","Desktop or Laptop","Windows 10","Chrome 113.0.0.0","1920x1080","1920x969",NA,NA,NA,"JV Task P1",8,"Anxious",NA,"In",NA,NA,"EFDGCHBIAJK",NA,NA,"B (MDot First)",1,123,"SS1","SS1",10,"J","Fixation","mtm832",2,"continue","",966.962,966.962,966.962,966.962,966.962,966.962,1,966.962,0,0,NA,"Fixation Timing","Fixation",1,"object-65","J","CFD-WF-009-001-H.jpeg",NA,"SUPTM14738"
"80",1688990867222,"10/07/2023 12:07:47",1688976467222,-4,"10/07/2023 04:07:47",137495,33,"task-empj",NA,30591956,9082545,NA,"complete",NA,NA,"computer","Desktop or Laptop","Windows 10","Chrome 113.0.0.0","1920x1080","1920x969",NA,NA,NA,"JV Task P1",8,"Anxious",NA,"In",NA,NA,"EFDGCHBIAJK",NA,NA,"B (MDot First)",1,123,"SS1","SS1",17,"V","Valence","sn1sjn",1,"continue","",3303.38800000149,3301.00899999999,3303.38800000149,3303.38800000149,3301.00899999999,3303.38800000149,1,3303.38800000149,0,0,NA,"Click To Continue","Continue Button",1,"object-25","V","CFD-WM-035-032-N.jpg",NA,"SUPTM14738"
"81",1688990867223,"10/07/2023 12:07:47",1688976467223,-4,"10/07/2023 04:07:47",137495,33,"task-empj",NA,30591956,9082545,NA,"complete",NA,NA,"computer","Desktop or Laptop","Windows 10","Chrome 113.0.0.0","1920x1080","1920x969",NA,NA,NA,"JV Task P1",8,"Anxious",NA,"In",NA,NA,"EFDGCHBIAJK",NA,NA,"B (MDot First)",1,123,"SS1","SS1",17,"V","Valence","sn1sjn",1,"response","45",2784.28899999999,3301.00899999999,3304.08799999702,2784.28899999999,3301.00899999999,3304.08799999702,1,2784.28899999999,519.79899999703,0,NA,"Slider","J",3,"object-27","V","CFD-WM-035-032-N.jpg",NA,"SUPTM14738"
"82",1688990868187,"10/07/2023 12:07:48",1688976468187,-4,"10/07/2023 04:07:48",137495,33,"task-empj",NA,30591956,9082545,NA,"complete",NA,NA,"computer","Desktop or Laptop","Windows 10","Chrome 113.0.0.0","1920x1080","1920x969",NA,NA,NA,"JV Task P1",8,"Anxious",NA,"In",NA,NA,"EFDGCHBIAJK",NA,NA,"B (MDot First)",1,123,"SS1","SS1",17,"V","Fixation","aydkg3",2,"continue","",966.964999999997,966.964999999997,966.964999999997,966.964999999997,966.964999999997,966.964999999997,1,966.964999999997,0,0,NA,"Fixation Timing","Fixation",1,"object-21","V","CFD-WM-035-032-N.jpg",NA,"SUPTM14738"
"83",1688990871622,"10/07/2023 12:07:51",1688976471622,-4,"10/07/2023 04:07:51",137495,33,"task-empj",NA,30591956,9082545,NA,"complete",NA,NA,"computer","Desktop or Laptop","Windows 10","Chrome 113.0.0.0","1920x1080","1920x969",NA,NA,NA,"JV Task P1",8,"Anxious",NA,"In",NA,NA,"EFDGCHBIAJK",NA,NA,"B (MDot First)",1,123,"SS1","SS1",11,"J","Judginess","w2ir4b",1,"continue","",3434.38699999999,3417.717,3434.38699999999,3434.38699999999,3417.717,3434.38699999999,1,3434.38699999999,0,0,NA,"Click To Continue","Continue Button",1,"object-14","J","CFD-WF-011-002-H.jpeg",NA,"SUPTM14738"
"84",1688990871629,"10/07/2023 12:07:51",1688976471629,-4,"10/07/2023 04:07:51",137495,33,"task-empj",NA,30591956,9082545,NA,"complete",NA,NA,"computer","Desktop or Laptop","Windows 10","Chrome 113.0.0.0","1920x1080","1920x969",NA,NA,NA,"JV Task P1",8,"Anxious",NA,"In",NA,NA,"EFDGCHBIAJK",NA,NA,"B (MDot First)",1,123,"SS1","SS1",11,"J","Judginess","w2ir4b",1,"response","95",2467.42200000002,3417.717,3434.38699999999,2467.42200000002,3417.717,3434.38699999999,1,2467.42200000002,966.964999999967,0,NA,"Slider","J",3,"object-18","J","CFD-WF-011-002-H.jpeg",NA,"SUPTM14738"
"85",1688990872571,"10/07/2023 12:07:52",1688976472571,-4,"10/07/2023 04:07:52",137495,33,"task-empj",NA,30591956,9082545,NA,"complete",NA,NA,"computer","Desktop or Laptop","Windows 10","Chrome 113.0.0.0","1920x1080","1920x969",NA,NA,NA,"JV Task P1",8,"Anxious",NA,"In",NA,NA,"EFDGCHBIAJK",NA,NA,"B (MDot First)",1,123,"SS1","SS1",11,"J","Fixation","mtm832",2,"continue","",966.930000000022,966.930000000022,966.930000000022,966.930000000022,966.930000000022,966.930000000022,1,966.930000000022,0,0,NA,"Fixation Timing","Fixation",1,"object-65","J","CFD-WF-011-002-H.jpeg",NA,"SUPTM14738"
"86",1688990875270,"10/07/2023 12:07:55",1688976475270,-4,"10/07/2023 04:07:55",137495,33,"task-empj",NA,30591956,9082545,NA,"complete",NA,NA,"computer","Desktop or Laptop","Windows 10","Chrome 113.0.0.0","1920x1080","1920x969",NA,NA,NA,"JV Task P1",8,"Anxious",NA,"In",NA,NA,"EFDGCHBIAJK",NA,NA,"B (MDot First)",1,123,"SS1","SS1",12,"J","Judginess","w2ir4b",1,"continue","",2698.5669999985,2684.19899999999,2698.5669999985,2698.5669999985,2684.19899999999,2698.5669999985,1,2698.5669999985,0,0,NA,"Click To Continue","Continue Button",1,"object-14","J","CFD-WF-031-027-H.jpeg",NA,"SUPTM14738"
"87",1688990875270,"10/07/2023 12:07:55",1688976475270,-4,"10/07/2023 04:07:55",137495,33,"task-empj",NA,30591956,9082545,NA,"complete",NA,NA,"computer","Desktop or Laptop","Windows 10","Chrome 113.0.0.0","1920x1080","1920x969",NA,NA,NA,"JV Task P1",8,"Anxious",NA,"In",NA,NA,"EFDGCHBIAJK",NA,NA,"B (MDot First)",1,123,"SS1","SS1",12,"J","Judginess","w2ir4b",1,"response","92",1933.96099999998,2684.19899999999,2698.86700000297,1933.96099999998,2684.19899999999,2698.86700000297,1,1933.96099999998,764.906000002986,0,NA,"Slider","J",3,"object-18","J","CFD-WF-031-027-H.jpeg",NA,"SUPTM14738"
"88",1688990876223,"10/07/2023 12:07:56",1688976476223,-4,"10/07/2023 04:07:56",137495,33,"task-empj",NA,30591956,9082545,NA,"complete",NA,NA,"computer","Desktop or Laptop","Windows 10","Chrome 113.0.0.0","1920x1080","1920x969",NA,NA,NA,"JV Task P1",8,"Anxious",NA,"In",NA,NA,"EFDGCHBIAJK",NA,NA,"B (MDot First)",1,123,"SS1","SS1",12,"J","Fixation","mtm832",2,"continue","",966.945000000007,966.945000000007,966.945000000007,966.945000000007,966.945000000007,966.945000000007,1,966.945000000007,0,0,NA,"Fixation Timing","Fixation",1,"object-65","J","CFD-WF-031-027-H.jpeg",NA,"SUPTM14738"
"89",1688990880205,"10/07/2023 12:08:00",1688976480205,-4,"10/07/2023 04:08:00",137495,33,"task-empj",NA,30591956,9082545,NA,"complete",NA,NA,"computer","Desktop or Laptop","Windows 10","Chrome 113.0.0.0","1920x1080","1920x969",NA,NA,NA,"JV Task P1",8,"Anxious",NA,"In",NA,NA,"EFDGCHBIAJK",NA,NA,"B (MDot First)",1,123,"SS1","SS1",18,"V","Valence","sn1sjn",1,"continue","",3982.9229999985,3967.87399999998,3982.9229999985,3982.9229999985,3967.87399999998,3982.9229999985,1,3982.9229999985,0,0,NA,"Click To Continue","Continue Button",1,"object-25","V","CFD-MM-308-001-N.jpg",NA,"SUPTM14738"
"90",1688990880205,"10/07/2023 12:08:00",1688976480205,-4,"10/07/2023 04:08:00",137495,33,"task-empj",NA,30591956,9082545,NA,"complete",NA,NA,"computer","Desktop or Laptop","Windows 10","Chrome 113.0.0.0","1920x1080","1920x969",NA,NA,NA,"JV Task P1",8,"Anxious",NA,"In",NA,NA,"EFDGCHBIAJK",NA,NA,"B (MDot First)",1,123,"SS1","SS1",18,"V","Valence","sn1sjn",1,"response","30",3434.38799999998,3967.87399999998,3983.32299999701,3434.38799999998,3967.87399999998,3983.32299999701,1,3434.38799999998,548.934999997029,0,NA,"Slider","J",3,"object-27","V","CFD-MM-308-001-N.jpg",NA,"SUPTM14738"
"91",1688990881157,"10/07/2023 12:08:01",1688976481157,-4,"10/07/2023 04:08:01",137495,33,"task-empj",NA,30591956,9082545,NA,"complete",NA,NA,"computer","Desktop or Laptop","Windows 10","Chrome 113.0.0.0","1920x1080","1920x969",NA,NA,NA,"JV Task P1",8,"Anxious",NA,"In",NA,NA,"EFDGCHBIAJK",NA,NA,"B (MDot First)",1,123,"SS1","SS1",18,"V","Fixation","aydkg3",2,"continue","",966.991999999998,966.991999999998,966.991999999998,966.991999999998,966.991999999998,966.991999999998,1,966.991999999998,0,0,NA,"Fixation Timing","Fixation",1,"object-21","V","CFD-MM-308-001-N.jpg",NA,"SUPTM14738"
"92",1688990885070,"10/07/2023 12:08:05",1688976485070,-4,"10/07/2023 04:08:05",137495,33,"task-empj",NA,30591956,9082545,NA,"complete",NA,NA,"computer","Desktop or Laptop","Windows 10","Chrome 113.0.0.0","1920x1080","1920x969",NA,NA,NA,"JV Task P1",8,"Anxious",NA,"In",NA,NA,"EFDGCHBIAJK",NA,NA,"B (MDot First)",1,123,"SS1","SS1",19,"V","Valence","sn1sjn",1,"continue","",3912.65700000001,3901.155,3912.65700000001,3912.65700000001,3901.155,3912.65700000001,1,3912.65700000001,0,0,NA,"Click To Continue","Continue Button",1,"object-25","V","CFD-WM-009-002-N.jpg",NA,"SUPTM14738"
"93",1688990885074,"10/07/2023 12:08:05",1688976485074,-4,"10/07/2023 04:08:05",137495,33,"task-empj",NA,30591956,9082545,NA,"complete",NA,NA,"computer","Desktop or Laptop","Windows 10","Chrome 113.0.0.0","1920x1080","1920x969",NA,NA,NA,"JV Task P1",8,"Anxious",NA,"In",NA,NA,"EFDGCHBIAJK",NA,NA,"B (MDot First)",1,123,"SS1","SS1",19,"V","Valence","sn1sjn",1,"response","46",3067.595,3901.155,3917.15700000001,3067.595,3901.155,3917.15700000001,1,3067.595,849.562000000005,0,NA,"Slider","J",3,"object-27","V","CFD-WM-009-002-N.jpg",NA,"SUPTM14738"
"94",1688990886025,"10/07/2023 12:08:06",1688976486025,-4,"10/07/2023 04:08:06",137495,33,"task-empj",NA,30591956,9082545,NA,"complete",NA,NA,"computer","Desktop or Laptop","Windows 10","Chrome 113.0.0.0","1920x1080","1920x969",NA,NA,NA,"JV Task P1",8,"Anxious",NA,"In",NA,NA,"EFDGCHBIAJK",NA,NA,"B (MDot First)",1,123,"SS1","SS1",19,"V","Fixation","aydkg3",2,"continue","",966.967000000004,966.967000000004,966.967000000004,966.967000000004,966.967000000004,966.967000000004,1,966.967000000004,0,0,NA,"Fixation Timing","Fixation",1,"object-21","V","CFD-WM-009-002-N.jpg",NA,"SUPTM14738"
"95",1688990889518,"10/07/2023 12:08:09",1688976489518,-4,"10/07/2023 04:08:09",137495,33,"task-empj",NA,30591956,9082545,NA,"complete",NA,NA,"computer","Desktop or Laptop","Windows 10","Chrome 113.0.0.0","1920x1080","1920x969",NA,NA,NA,"JV Task P1",8,"Anxious",NA,"In",NA,NA,"EFDGCHBIAJK",NA,NA,"B (MDot First)",1,123,"SS1","SS1",20,"V","Valence","sn1sjn",1,"continue","",3493.035,3484.41899999999,3493.035,3493.035,3484.41899999999,3493.035,1,3493.035,0,0,NA,"Click To Continue","Continue Button",1,"object-25","V","CFD-WF-006-002-H.jpeg",NA,"SUPTM14738"
"96",1688990889518,"10/07/2023 12:08:09",1688976489518,-4,"10/07/2023 04:08:09",137495,33,"task-empj",NA,30591956,9082545,NA,"complete",NA,NA,"computer","Desktop or Laptop","Windows 10","Chrome 113.0.0.0","1920x1080","1920x969",NA,NA,NA,"JV Task P1",8,"Anxious",NA,"In",NA,NA,"EFDGCHBIAJK",NA,NA,"B (MDot First)",1,123,"SS1","SS1",20,"V","Valence","sn1sjn",1,"response","98",2450.79399999999,3484.41899999999,3493.63500000149,2450.79399999999,3484.41899999999,3493.63500000149,1,2450.79399999999,1042.8410000015,0,NA,"Slider","J",3,"object-27","V","CFD-WF-006-002-H.jpeg",NA,"SUPTM14738"
"97",1688990890476,"10/07/2023 12:08:10",1688976490476,-4,"10/07/2023 04:08:10",137495,33,"task-empj",NA,30591956,9082545,NA,"complete",NA,NA,"computer","Desktop or Laptop","Windows 10","Chrome 113.0.0.0","1920x1080","1920x969",NA,NA,NA,"JV Task P1",8,"Anxious",NA,"In",NA,NA,"EFDGCHBIAJK",NA,NA,"B (MDot First)",1,123,"SS1","SS1",20,"V","Fixation","aydkg3",2,"continue","",966.983000000007,966.983000000007,966.983000000007,966.983000000007,966.983000000007,966.983000000007,1,966.983000000007,0,0,NA,"Fixation Timing","Fixation",1,"object-21","V","CFD-WF-006-002-H.jpeg",NA,"SUPTM14738"
"98",1688990894989,"10/07/2023 12:08:14",1688976494989,-4,"10/07/2023 04:08:14",137495,33,"task-empj",NA,30591956,9082545,NA,"complete",NA,NA,"computer","Desktop or Laptop","Windows 10","Chrome 113.0.0.0","1920x1080","1920x969",NA,NA,NA,"JV Task P1",8,"Anxious",NA,"In",NA,NA,"EFDGCHBIAJK",NA,NA,"B (MDot First)",1,123,"SS1","SS1",21,"V","Valence","sn1sjn",1,"continue","",4512.633,4501.356,4512.633,4512.633,4501.356,4512.633,1,4512.633,0,0,NA,"Click To Continue","Continue Button",1,"object-25","V","CFD-AF-233-190-S.jpeg",NA,"SUPTM14738"
"99",1688990894989,"10/07/2023 12:08:14",1688976494989,-4,"10/07/2023 04:08:14",137495,33,"task-empj",NA,30591956,9082545,NA,"complete",NA,NA,"computer","Desktop or Laptop","Windows 10","Chrome 113.0.0.0","1920x1080","1920x969",NA,NA,NA,"JV Task P1",8,"Anxious",NA,"In",NA,NA,"EFDGCHBIAJK",NA,NA,"B (MDot First)",1,123,"SS1","SS1",21,"V","Valence","sn1sjn",1,"response","50",3601.076,4501.356,4513.133,3601.076,4501.356,4513.133,1,3601.076,912.057000000001,0,NA,"Slider","J",3,"object-27","V","CFD-AF-233-190-S.jpeg",NA,"SUPTM14738"
"100",1688990895945,"10/07/2023 12:08:15",1688976495945,-4,"10/07/2023 04:08:15",137495,33,"task-empj",NA,30591956,9082545,NA,"complete",NA,NA,"computer","Desktop or Laptop","Windows 10","Chrome 113.0.0.0","1920x1080","1920x969",NA,NA,NA,"JV Task P1",8,"Anxious",NA,"In",NA,NA,"EFDGCHBIAJK",NA,NA,"B (MDot First)",1,123,"SS1","SS1",21,"V","Fixation","aydkg3",2,"continue","",966.966000000015,966.966000000015,966.966000000015,966.966000000015,966.966000000015,966.966000000015,1,966.966000000015,0,0,NA,"Fixation Timing","Fixation",1,"object-21","V","CFD-AF-233-190-S.jpeg",NA,"SUPTM14738"
"101",1688990898781,"10/07/2023 12:08:18",1688976498781,-4,"10/07/2023 04:08:18",137495,33,"task-empj",NA,30591956,9082545,NA,"complete",NA,NA,"computer","Desktop or Laptop","Windows 10","Chrome 113.0.0.0","1920x1080","1920x969",NA,NA,NA,"JV Task P1",8,"Anxious",NA,"In",NA,NA,"EFDGCHBIAJK",NA,NA,"B (MDot First)",1,123,"SS1","SS1",22,"V","Valence","sn1sjn",1,"continue","",2836.81099999999,2834.17799999999,2836.81099999999,2836.81099999999,2834.17799999999,2836.81099999999,1,2836.81099999999,0,0,NA,"Click To Continue","Continue Button",1,"object-25","V","CFD-WM-028-003-S.jpeg",NA,"SUPTM14738"
"102",1688990898782,"10/07/2023 12:08:18",1688976498782,-4,"10/07/2023 04:08:18",137495,33,"task-empj",NA,30591956,9082545,NA,"complete",NA,NA,"computer","Desktop or Laptop","Windows 10","Chrome 113.0.0.0","1920x1080","1920x969",NA,NA,NA,"JV Task P1",8,"Anxious",NA,"In",NA,NA,"EFDGCHBIAJK",NA,NA,"B (MDot First)",1,123,"SS1","SS1",22,"V","Valence","sn1sjn",1,"response","50",1783.87199999997,2834.17799999999,2837.51100000297,1783.87199999997,2834.17799999999,2837.51100000297,1,1783.87199999997,1053.63900000299,0,NA,"Slider","J",3,"object-27","V","CFD-WM-028-003-S.jpeg",NA,"SUPTM14738"
"103",1688990899746,"10/07/2023 12:08:19",1688976499746,-4,"10/07/2023 04:08:19",137495,33,"task-empj",NA,30591956,9082545,NA,"complete",NA,NA,"computer","Desktop or Laptop","Windows 10","Chrome 113.0.0.0","1920x1080","1920x969",NA,NA,NA,"JV Task P1",8,"Anxious",NA,"In",NA,NA,"EFDGCHBIAJK",NA,NA,"B (MDot First)",1,123,"SS1","SS1",22,"V","Fixation","aydkg3",2,"continue","",966.98000000001,966.98000000001,966.98000000001,966.98000000001,966.98000000001,966.98000000001,1,966.98000000001,0,0,NA,"Fixation Timing","Fixation",1,"object-21","V","CFD-WM-028-003-S.jpeg",NA,"SUPTM14738"
"104",1688990902939,"10/07/2023 12:08:22",1688976502939,-4,"10/07/2023 04:08:22",137495,33,"task-empj",NA,30591956,9082545,NA,"complete",NA,NA,"computer","Desktop or Laptop","Windows 10","Chrome 113.0.0.0","1920x1080","1920x969",NA,NA,NA,"JV Task P1",8,"Anxious",NA,"In",NA,NA,"EFDGCHBIAJK",NA,NA,"B (MDot First)",1,123,"SS1","SS1",23,"V","Valence","sn1sjn",1,"continue","",3188.15299999999,3184.321,3188.15299999999,3188.15299999999,3184.321,3188.15299999999,1,3188.15299999999,0,0,NA,"Click To Continue","Continue Button",1,"object-25","V","CFD-WM-036-031-N.jpg",NA,"SUPTM14738"
"105",1688990904773,"10/07/2023 12:08:24",1688976504773,-4,"10/07/2023 04:08:24",137495,33,"task-empj",NA,30591956,9082545,NA,"complete",NA,NA,"computer","Desktop or Laptop","Windows 10","Chrome 113.0.0.0","1920x1080","1920x969",NA,NA,NA,"JV Task P1",8,"Anxious",NA,"In",NA,NA,"EFDGCHBIAJK",NA,NA,"B (MDot First)",1,123,"SS1","SS1",23,"V","Valence","sn1sjn",1,"continue","",5027.65299999999,5018.215,5027.65299999999,5027.65299999999,5018.215,5027.65299999999,1,5027.65299999999,0,0,NA,"Click To Continue","Continue Button",1,"object-25","V","CFD-WM-036-031-N.jpg",NA,"SUPTM14738"
"106",1688990904774,"10/07/2023 12:08:24",1688976504774,-4,"10/07/2023 04:08:24",137495,33,"task-empj",NA,30591956,9082545,NA,"complete",NA,NA,"computer","Desktop or Laptop","Windows 10","Chrome 113.0.0.0","1920x1080","1920x969",NA,NA,NA,"JV Task P1",8,"Anxious",NA,"In",NA,NA,"EFDGCHBIAJK",NA,NA,"B (MDot First)",1,123,"SS1","SS1",23,"V","Valence","sn1sjn",1,"response","49",4468.04699999999,5018.215,5028.15299999999,4468.04699999999,5018.215,5028.15299999999,1,4468.04699999999,560.106,0,NA,"Slider","J",3,"object-27","V","CFD-WM-036-031-N.jpg",NA,"SUPTM14738"
"107",1688990905731,"10/07/2023 12:08:25",1688976505731,-4,"10/07/2023 04:08:25",137495,33,"task-empj",NA,30591956,9082545,NA,"complete",NA,NA,"computer","Desktop or Laptop","Windows 10","Chrome 113.0.0.0","1920x1080","1920x969",NA,NA,NA,"JV Task P1",8,"Anxious",NA,"In",NA,NA,"EFDGCHBIAJK",NA,NA,"B (MDot First)",1,123,"SS1","SS1",23,"V","Fixation","aydkg3",2,"continue","",966.973999999987,966.973999999987,966.973999999987,966.973999999987,966.973999999987,966.973999999987,1,966.973999999987,0,0,NA,"Fixation Timing","Fixation",1,"object-21","V","CFD-WM-036-031-N.jpg",NA,"SUPTM14738"
"108",1688990908797,"10/07/2023 12:08:28",1688976508797,-4,"10/07/2023 04:08:28",137495,33,"task-empj",NA,30591956,9082545,NA,"complete",NA,NA,"computer","Desktop or Laptop","Windows 10","Chrome 113.0.0.0","1920x1080","1920x969",NA,NA,NA,"JV Task P1",8,"Anxious",NA,"In",NA,NA,"EFDGCHBIAJK",NA,NA,"B (MDot First)",1,123,"SS1","SS1",24,"V","Valence","sn1sjn",1,"continue","",3065.86399999852,3050.93900000001,3065.86399999852,3065.86399999852,3050.93900000001,3065.86399999852,1,3065.86399999852,0,0,NA,"Click To Continue","Continue Button",1,"object-25","V","CFD-AM-223-138-N.jpg",NA,"SUPTM14738"
"109",1688990908801,"10/07/2023 12:08:28",1688976508801,-4,"10/07/2023 04:08:28",137495,33,"task-empj",NA,30591956,9082545,NA,"complete",NA,NA,"computer","Desktop or Laptop","Windows 10","Chrome 113.0.0.0","1920x1080","1920x969",NA,NA,NA,"JV Task P1",8,"Anxious",NA,"In",NA,NA,"EFDGCHBIAJK",NA,NA,"B (MDot First)",1,123,"SS1","SS1",24,"V","Valence","sn1sjn",1,"response","48",2050.59600000002,3050.93900000001,3067.62300000002,2050.59600000002,3050.93900000001,3067.62300000002,1,2050.59600000002,1017.027,0,NA,"Slider","J",3,"object-27","V","CFD-AM-223-138-N.jpg",NA,"SUPTM14738"
"110",1688990909749,"10/07/2023 12:08:29",1688976509749,-4,"10/07/2023 04:08:29",137495,33,"task-empj",NA,30591956,9082545,NA,"complete",NA,NA,"computer","Desktop or Laptop","Windows 10","Chrome 113.0.0.0","1920x1080","1920x969",NA,NA,NA,"JV Task P1",8,"Anxious",NA,"In",NA,NA,"EFDGCHBIAJK",NA,NA,"B (MDot First)",1,123,"SS1","SS1",24,"V","Fixation","aydkg3",2,"continue","",966.937000000005,966.937000000005,966.937000000005,966.937000000005,966.937000000005,966.937000000005,1,966.937000000005,0,0,NA,"Fixation Timing","Fixation",1,"object-21","V","CFD-AM-223-138-N.jpg",NA,"SUPTM14738"
"111",1688990912181,"10/07/2023 12:08:32",1688976512181,-4,"10/07/2023 04:08:32",137495,33,"task-empj",NA,30591956,9082545,NA,"complete",NA,NA,"computer","Desktop or Laptop","Windows 10","Chrome 113.0.0.0","1920x1080","1920x969",NA,NA,NA,"JV Task P1",8,"Anxious",NA,"In",NA,NA,"EFDGCHBIAJK",NA,NA,"B (MDot First)",1,123,"SS1","SS1",25,"V","Valence","sn1sjn",1,"continue","",2432.4879999985,2417.40999999997,2432.4879999985,2432.4879999985,2417.40999999997,2432.4879999985,1,2432.4879999985,0,0,NA,"Click To Continue","Continue Button",1,"object-25","V","CFD-WF-006-002-H.jpeg",NA,"SUPTM14738"
"112",1688990912182,"10/07/2023 12:08:32",1688976512182,-4,"10/07/2023 04:08:32",137495,33,"task-empj",NA,30591956,9082545,NA,"complete",NA,NA,"computer","Desktop or Laptop","Windows 10","Chrome 113.0.0.0","1920x1080","1920x969",NA,NA,NA,"JV Task P1",8,"Anxious",NA,"In",NA,NA,"EFDGCHBIAJK",NA,NA,"B (MDot First)",1,123,"SS1","SS1",25,"V","Valence","sn1sjn",1,"response","97",1600.508,2417.40999999997,2433.18800000148,1600.508,2417.40999999997,2433.18800000148,1,1600.508,832.680000001477,0,NA,"Slider","J",3,"object-27","V","CFD-WF-006-002-H.jpeg",NA,"SUPTM14738"
"113",1688990913133,"10/07/2023 12:08:33",1688976513133,-4,"10/07/2023 04:08:33",137495,33,"task-empj",NA,30591956,9082545,NA,"complete",NA,NA,"computer","Desktop or Laptop","Windows 10","Chrome 113.0.0.0","1920x1080","1920x969",NA,NA,NA,"JV Task P1",8,"Anxious",NA,"In",NA,NA,"EFDGCHBIAJK",NA,NA,"B (MDot First)",1,123,"SS1","SS1",25,"V","Fixation","aydkg3",2,"continue","",966.972000000009,966.972000000009,966.972000000009,966.972000000009,966.972000000009,966.972000000009,1,966.972000000009,0,0,NA,"Fixation Timing","Fixation",1,"object-21","V","CFD-WF-006-002-H.jpeg",NA,"SUPTM14738"
"114",1688990916701,"10/07/2023 12:08:36",1688976516701,-4,"10/07/2023 04:08:36",137495,33,"task-empj",NA,30591956,9082545,NA,"complete",NA,NA,"computer","Desktop or Laptop","Windows 10","Chrome 113.0.0.0","1920x1080","1920x969",NA,NA,NA,"JV Task P1",8,"Anxious",NA,"In",NA,NA,"EFDGCHBIAJK",NA,NA,"B (MDot First)",1,123,"SS1","SS1",26,"V","Valence","sn1sjn",1,"continue","",3567.60599999852,3551.092,3567.60599999852,3567.60599999852,3551.092,3567.60599999852,1,3567.60599999852,0,0,NA,"Click To Continue","Continue Button",1,"object-25","V","CFD-WF-009-001-S.jpeg",NA,"SUPTM14738"
"115",1688990916701,"10/07/2023 12:08:36",1688976516701,-4,"10/07/2023 04:08:36",137495,33,"task-empj",NA,30591956,9082545,NA,"complete",NA,NA,"computer","Desktop or Laptop","Windows 10","Chrome 113.0.0.0","1920x1080","1920x969",NA,NA,NA,"JV Task P1",8,"Anxious",NA,"In",NA,NA,"EFDGCHBIAJK",NA,NA,"B (MDot First)",1,123,"SS1","SS1",26,"V","Valence","sn1sjn",1,"response","36",2617.48300000001,3551.092,3567.77100000001,2617.48300000001,3551.092,3567.77100000001,1,2617.48300000001,950.288,0,NA,"Slider","J",3,"object-27","V","CFD-WF-009-001-S.jpeg",NA,"SUPTM14738"
"116",1688990917651,"10/07/2023 12:08:37",1688976517651,-4,"10/07/2023 04:08:37",137495,33,"task-empj",NA,30591956,9082545,NA,"complete",NA,NA,"computer","Desktop or Laptop","Windows 10","Chrome 113.0.0.0","1920x1080","1920x969",NA,NA,NA,"JV Task P1",8,"Anxious",NA,"In",NA,NA,"EFDGCHBIAJK",NA,NA,"B (MDot First)",1,123,"SS1","SS1",26,"V","Fixation","aydkg3",2,"continue","",966.959999999992,966.959999999992,966.959999999992,966.959999999992,966.959999999992,966.959999999992,1,966.959999999992,0,0,NA,"Fixation Timing","Fixation",1,"object-21","V","CFD-WF-009-001-S.jpeg",NA,"SUPTM14738"
"117",1688990921668,"10/07/2023 12:08:41",1688976521668,-4,"10/07/2023 04:08:41",137495,33,"task-empj",NA,30591956,9082545,NA,"complete",NA,NA,"computer","Desktop or Laptop","Windows 10","Chrome 113.0.0.0","1920x1080","1920x969",NA,NA,NA,"JV Task P1",8,"Anxious",NA,"In",NA,NA,"EFDGCHBIAJK",NA,NA,"B (MDot First)",1,123,"SS1","SS1",13,"J","Judginess","w2ir4b",1,"continue","",4017.35400000299,4001.245,4017.35400000299,4017.35400000299,4001.245,4017.35400000299,1,4017.35400000299,0,0,NA,"Click To Continue","Continue Button",1,"object-14","J","CFD-IM-695-001-N.jpg",NA,"SUPTM14738"
"118",1688990921674,"10/07/2023 12:08:41",1688976521674,-4,"10/07/2023 04:08:41",137495,33,"task-empj",NA,30591956,9082545,NA,"complete",NA,NA,"computer","Desktop or Laptop","Windows 10","Chrome 113.0.0.0","1920x1080","1920x969",NA,NA,NA,"JV Task P1",8,"Anxious",NA,"In",NA,NA,"EFDGCHBIAJK",NA,NA,"B (MDot First)",1,123,"SS1","SS1",13,"J","Judginess","w2ir4b",1,"response","25",3034.258,4001.245,4017.94099999999,3034.258,4001.245,4017.94099999999,1,3034.258,983.68299999999,0,NA,"Slider","J",3,"object-18","J","CFD-IM-695-001-N.jpg",NA,"SUPTM14738"
"119",1688990922620,"10/07/2023 12:08:42",1688976522620,-4,"10/07/2023 04:08:42",137495,33,"task-empj",NA,30591956,9082545,NA,"complete",NA,NA,"computer","Desktop or Laptop","Windows 10","Chrome 113.0.0.0","1920x1080","1920x969",NA,NA,NA,"JV Task P1",8,"Anxious",NA,"In",NA,NA,"EFDGCHBIAJK",NA,NA,"B (MDot First)",1,123,"SS1","SS1",13,"J","Fixation","mtm832",2,"continue","",966.946000000025,966.946000000025,966.946000000025,966.946000000025,966.946000000025,966.946000000025,1,966.946000000025,0,0,NA,"Fixation Timing","Fixation",1,"object-65","J","CFD-IM-695-001-N.jpg",NA,"SUPTM14738"
"120",1688990926717,"10/07/2023 12:08:46",1688976526717,-4,"10/07/2023 04:08:46",137495,33,"task-empj",NA,30591956,9082545,NA,"complete",NA,NA,"computer","Desktop or Laptop","Windows 10","Chrome 113.0.0.0","1920x1080","1920x969",NA,NA,NA,"JV Task P1",8,"Anxious",NA,"In",NA,NA,"EFDGCHBIAJK",NA,NA,"B (MDot First)",1,123,"SS1","SS1",27,"V","Valence","sn1sjn",1,"continue","",4097.3629999985,4084.576,4097.3629999985,4097.3629999985,4084.576,4097.3629999985,1,4097.3629999985,0,0,NA,"Click To Continue","Continue Button",1,"object-25","V","CFD-BF-040-003-S.jpeg",NA,"SUPTM14738"
"121",1688990926717,"10/07/2023 12:08:46",1688976526717,-4,"10/07/2023 04:08:46",137495,33,"task-empj",NA,30591956,9082545,NA,"complete",NA,NA,"computer","Desktop or Laptop","Windows 10","Chrome 113.0.0.0","1920x1080","1920x969",NA,NA,NA,"JV Task P1",8,"Anxious",NA,"In",NA,NA,"EFDGCHBIAJK",NA,NA,"B (MDot First)",1,123,"SS1","SS1",27,"V","Valence","sn1sjn",1,"response","11",2784.272,4084.576,4097.8629999985,2784.272,4084.576,4097.8629999985,1,2784.272,1313.5909999985,0,NA,"Slider","J",3,"object-27","V","CFD-BF-040-003-S.jpeg",NA,"SUPTM14738"
"122",1688990927671,"10/07/2023 12:08:47",1688976527671,-4,"10/07/2023 04:08:47",137495,33,"task-empj",NA,30591956,9082545,NA,"complete",NA,NA,"computer","Desktop or Laptop","Windows 10","Chrome 113.0.0.0","1920x1080","1920x969",NA,NA,NA,"JV Task P1",8,"Anxious",NA,"In",NA,NA,"EFDGCHBIAJK",NA,NA,"B (MDot First)",1,123,"SS1","SS1",27,"V","Fixation","aydkg3",2,"continue","",966.997999999992,966.997999999992,966.997999999992,966.997999999992,966.997999999992,966.997999999992,1,966.997999999992,0,0,NA,"Fixation Timing","Fixation",1,"object-21","V","CFD-BF-040-003-S.jpeg",NA,"SUPTM14738"
"123",1688990930262,"10/07/2023 12:08:50",1688976530262,-4,"10/07/2023 04:08:50",137495,33,"task-empj",NA,30591956,9082545,NA,"complete",NA,NA,"computer","Desktop or Laptop","Windows 10","Chrome 113.0.0.0","1920x1080","1920x969",NA,NA,NA,"JV Task P1",8,"Anxious",NA,"In",NA,NA,"EFDGCHBIAJK",NA,NA,"B (MDot First)",1,123,"SS1","SS1",14,"J","Judginess","w2ir4b",1,"continue","",2590.78899999851,2584.10499999998,2590.78899999851,2590.78899999851,2584.10499999998,2590.78899999851,1,2590.78899999851,0,0,NA,"Click To Continue","Continue Button",1,"object-14","J","CFD-WF-027-003-H.jpeg",NA,"SUPTM14738"
"124",1688990930262,"10/07/2023 12:08:50",1688976530262,-4,"10/07/2023 04:08:50",137495,33,"task-empj",NA,30591956,9082545,NA,"complete",NA,NA,"computer","Desktop or Laptop","Windows 10","Chrome 113.0.0.0","1920x1080","1920x969",NA,NA,NA,"JV Task P1",8,"Anxious",NA,"In",NA,NA,"EFDGCHBIAJK",NA,NA,"B (MDot First)",1,123,"SS1","SS1",14,"J","Judginess","w2ir4b",1,"response","97",1933.88,2584.10499999998,2591.389,1933.88,2584.10499999998,2591.389,1,1933.88,657.508999999991,0,NA,"Slider","J",3,"object-18","J","CFD-WF-027-003-H.jpeg",NA,"SUPTM14738"
"125",1688990931222,"10/07/2023 12:08:51",1688976531222,-4,"10/07/2023 04:08:51",137495,33,"task-empj",NA,30591956,9082545,NA,"complete",NA,NA,"computer","Desktop or Laptop","Windows 10","Chrome 113.0.0.0","1920x1080","1920x969",NA,NA,NA,"JV Task P1",8,"Anxious",NA,"In",NA,NA,"EFDGCHBIAJK",NA,NA,"B (MDot First)",1,123,"SS1","SS1",14,"J","Fixation","mtm832",2,"continue","",966.956000000006,966.956000000006,966.956000000006,966.956000000006,966.956000000006,966.956000000006,1,966.956000000006,0,0,NA,"Fixation Timing","Fixation",1,"object-65","J","CFD-WF-027-003-H.jpeg",NA,"SUPTM14738"
"126",1688990935029,"10/07/2023 12:08:55",1688976535029,-4,"10/07/2023 04:08:55",137495,33,"task-empj",NA,30591956,9082545,NA,"complete",NA,NA,"computer","Desktop or Laptop","Windows 10","Chrome 113.0.0.0","1920x1080","1920x969",NA,NA,NA,"JV Task P1",8,"Anxious",NA,"In",NA,NA,"EFDGCHBIAJK",NA,NA,"B (MDot First)",1,123,"SS1","SS1",28,"V","Valence","sn1sjn",1,"continue","",3807.52800000299,3801.16200000001,3807.52800000299,3807.52800000299,3801.16200000001,3807.52800000299,1,3807.52800000299,0,0,NA,"Click To Continue","Continue Button",1,"object-25","V","CFD-MF-315-002-H.jpeg",NA,"SUPTM14738"
"127",1688990935033,"10/07/2023 12:08:55",1688976535033,-4,"10/07/2023 04:08:55",137495,33,"task-empj",NA,30591956,9082545,NA,"complete",NA,NA,"computer","Desktop or Laptop","Windows 10","Chrome 113.0.0.0","1920x1080","1920x969",NA,NA,NA,"JV Task P1",8,"Anxious",NA,"In",NA,NA,"EFDGCHBIAJK",NA,NA,"B (MDot First)",1,123,"SS1","SS1",28,"V","Valence","sn1sjn",1,"response","97",2650.82200000001,3801.16200000001,3811.4280000015,2650.82200000001,3801.16200000001,3811.4280000015,1,2650.82200000001,1160.60600000148,0,NA,"Slider","J",3,"object-27","V","CFD-MF-315-002-H.jpeg",NA,"SUPTM14738"
"128",1688990935990,"10/07/2023 12:08:55",1688976535990,-4,"10/07/2023 04:08:55",137495,33,"task-empj",NA,30591956,9082545,NA,"complete",NA,NA,"computer","Desktop or Laptop","Windows 10","Chrome 113.0.0.0","1920x1080","1920x969",NA,NA,NA,"JV Task P1",8,"Anxious",NA,"In",NA,NA,"EFDGCHBIAJK",NA,NA,"B (MDot First)",1,123,"SS1","SS1",28,"V","Fixation","aydkg3",2,"continue","",966.976999999984,966.976999999984,966.976999999984,966.976999999984,966.976999999984,966.976999999984,1,966.976999999984,0,0,NA,"Fixation Timing","Fixation",1,"object-21","V","CFD-MF-315-002-H.jpeg",NA,"SUPTM14738"
"129",1688990940156,"10/07/2023 12:09:00",1688976540156,-4,"10/07/2023 04:09:00",137495,33,"task-empj",NA,30591956,9082545,NA,"complete",NA,NA,"computer","Desktop or Laptop","Windows 10","Chrome 113.0.0.0","1920x1080","1920x969",NA,NA,NA,"JV Task P1",8,"Anxious",NA,"In",NA,NA,"EFDGCHBIAJK",NA,NA,"B (MDot First)",1,123,"SS1","SS1",29,"V","Valence","sn1sjn",1,"continue","",4166.48899999703,4151.26700000002,4166.48899999703,4166.48899999703,4151.26700000002,4166.48899999703,1,4166.48899999703,0,0,NA,"Click To Continue","Continue Button",1,"object-25","V","CFD-WM-001-014-N.jpg",NA,"SUPTM14738"
"130",1688990940157,"10/07/2023 12:09:00",1688976540157,-4,"10/07/2023 04:09:00",137495,33,"task-empj",NA,30591956,9082545,NA,"complete",NA,NA,"computer","Desktop or Laptop","Windows 10","Chrome 113.0.0.0","1920x1080","1920x969",NA,NA,NA,"JV Task P1",8,"Anxious",NA,"In",NA,NA,"EFDGCHBIAJK",NA,NA,"B (MDot First)",1,123,"SS1","SS1",29,"V","Valence","sn1sjn",1,"response","48",3267.663,4151.26700000002,4166.88900000299,3267.663,4151.26700000002,4166.88900000299,1,3267.663,899.226000002993,0,NA,"Slider","J",3,"object-27","V","CFD-WM-001-014-N.jpg",NA,"SUPTM14738"
"131",1688990941109,"10/07/2023 12:09:01",1688976541109,-4,"10/07/2023 04:09:01",137495,33,"task-empj",NA,30591956,9082545,NA,"complete",NA,NA,"computer","Desktop or Laptop","Windows 10","Chrome 113.0.0.0","1920x1080","1920x969",NA,NA,NA,"JV Task P1",8,"Anxious",NA,"In",NA,NA,"EFDGCHBIAJK",NA,NA,"B (MDot First)",1,123,"SS1","SS1",29,"V","Fixation","aydkg3",2,"continue","",966.976999999984,966.976999999984,966.976999999984,966.976999999984,966.976999999984,966.976999999984,1,966.976999999984,0,0,NA,"Fixation Timing","Fixation",1,"object-21","V","CFD-WM-001-014-N.jpg",NA,"SUPTM14738"
"132",1688990944109,"10/07/2023 12:09:04",1688976544109,-4,"10/07/2023 04:09:04",137495,33,"task-empj",NA,30591956,9082545,NA,"complete",NA,NA,"computer","Desktop or Laptop","Windows 10","Chrome 113.0.0.0","1920x1080","1920x969",NA,NA,NA,"JV Task P1",8,"Anxious",NA,"In",NA,NA,"EFDGCHBIAJK",NA,NA,"B (MDot First)",1,123,"SS1","SS1",30,"V","Valence","sn1sjn",1,"continue","",3000.5450000015,2984.223,3000.5450000015,3000.5450000015,2984.223,3000.5450000015,1,3000.5450000015,0,0,NA,"Click To Continue","Continue Button",1,"object-25","V","CFD-WM-024-015-N.jpg",NA,"SUPTM14738"
"133",1688990944109,"10/07/2023 12:09:04",1688976544109,-4,"10/07/2023 04:09:04",137495,33,"task-empj",NA,30591956,9082545,NA,"complete",NA,NA,"computer","Desktop or Laptop","Windows 10","Chrome 113.0.0.0","1920x1080","1920x969",NA,NA,NA,"JV Task P1",8,"Anxious",NA,"In",NA,NA,"EFDGCHBIAJK",NA,NA,"B (MDot First)",1,123,"SS1","SS1",30,"V","Valence","sn1sjn",1,"response","50",1867.20800000001,2984.223,3000.88699999999,1867.20800000001,2984.223,3000.88699999999,1,1867.20800000001,1133.67899999997,0,NA,"Slider","J",3,"object-27","V","CFD-WM-024-015-N.jpg",NA,"SUPTM14738"
"134",1688990945060,"10/07/2023 12:09:05",1688976545060,-4,"10/07/2023 04:09:05",137495,33,"task-empj",NA,30591956,9082545,NA,"complete",NA,NA,"computer","Desktop or Laptop","Windows 10","Chrome 113.0.0.0","1920x1080","1920x969",NA,NA,NA,"JV Task P1",8,"Anxious",NA,"In",NA,NA,"EFDGCHBIAJK",NA,NA,"B (MDot First)",1,123,"SS1","SS1",30,"V","Fixation","aydkg3",2,"continue","",966.964999999997,966.964999999997,966.964999999997,966.964999999997,966.964999999997,966.964999999997,1,966.964999999997,0,0,NA,"Fixation Timing","Fixation",1,"object-21","V","CFD-WM-024-015-N.jpg",NA,"SUPTM14738"
"135",1688990950005,"10/07/2023 12:09:10",1688976550005,-4,"10/07/2023 04:09:10",137495,33,"task-empj",NA,30591956,9082545,NA,"complete",NA,NA,"computer","Desktop or Laptop","Windows 10","Chrome 113.0.0.0","1920x1080","1920x969",NA,NA,NA,"JV Task P1",8,"Anxious",NA,"In",NA,NA,"EFDGCHBIAJK",NA,NA,"B (MDot First)",1,123,"SS1","SS1",31,"V","Valence","sn1sjn",1,"continue","",4945.3570000015,4934.848,4945.3570000015,4945.3570000015,4934.848,4945.3570000015,1,4945.3570000015,0,0,NA,"Click To Continue","Continue Button",1,"object-25","V","CFD-WM-035-032-S.jpeg",NA,"SUPTM14738"
"136",1688990950005,"10/07/2023 12:09:10",1688976550005,-4,"10/07/2023 04:09:10",137495,33,"task-empj",NA,30591956,9082545,NA,"complete",NA,NA,"computer","Desktop or Laptop","Windows 10","Chrome 113.0.0.0","1920x1080","1920x969",NA,NA,NA,"JV Task P1",8,"Anxious",NA,"In",NA,NA,"EFDGCHBIAJK",NA,NA,"B (MDot First)",1,123,"SS1","SS1",31,"V","Valence","sn1sjn",1,"response","45",3734.46600000001,4934.848,4945.8570000015,3734.46600000001,4934.848,4945.8570000015,1,3734.46600000001,1211.39100000149,0,NA,"Slider","J",3,"object-27","V","CFD-WM-035-032-S.jpeg",NA,"SUPTM14738"
"137",1688990950962,"10/07/2023 12:09:10",1688976550962,-4,"10/07/2023 04:09:10",137495,33,"task-empj",NA,30591956,9082545,NA,"complete",NA,NA,"computer","Desktop or Laptop","Windows 10","Chrome 113.0.0.0","1920x1080","1920x969",NA,NA,NA,"JV Task P1",8,"Anxious",NA,"In",NA,NA,"EFDGCHBIAJK",NA,NA,"B (MDot First)",1,123,"SS1","SS1",31,"V","Fixation","aydkg3",2,"continue","",966.996000000014,966.996000000014,966.996000000014,966.996000000014,966.996000000014,966.996000000014,1,966.996000000014,0,0,NA,"Fixation Timing","Fixation",1,"object-21","V","CFD-WM-035-032-S.jpeg",NA,"SUPTM14738"
"138",1688990957133,"10/07/2023 12:09:17",1688976557133,-4,"10/07/2023 04:09:17",137495,33,"task-empj",NA,30591956,9082545,NA,"complete",NA,NA,"computer","Desktop or Laptop","Windows 10","Chrome 113.0.0.0","1920x1080","1920x969",NA,NA,NA,"JV Task P1",8,"Anxious",NA,"In",NA,NA,"EFDGCHBIAJK",NA,NA,"B (MDot First)",1,123,"SS1","SS1",15,"J","Judginess","w2ir4b",1,"continue","",6171.81299999851,6168.53,6171.81299999851,6171.81299999851,6168.53,6171.81299999851,1,6171.81299999851,0,0,NA,"Click To Continue","Continue Button",1,"object-14","J","CFD-BF-029-031-H.jpeg",NA,"SUPTM14738"
"139",1688990957137,"10/07/2023 12:09:17",1688976557137,-4,"10/07/2023 04:09:17",137495,33,"task-empj",NA,30591956,9082545,NA,"complete",NA,NA,"computer","Desktop or Laptop","Windows 10","Chrome 113.0.0.0","1920x1080","1920x969",NA,NA,NA,"JV Task P1",8,"Anxious",NA,"In",NA,NA,"EFDGCHBIAJK",NA,NA,"B (MDot First)",1,123,"SS1","SS1",15,"J","Judginess","w2ir4b",1,"response","97",5318.258,6168.53,6175.01300000149,5318.258,6168.53,6175.01300000149,1,5318.258,856.755000001489,0,NA,"Slider","J",3,"object-18","J","CFD-BF-029-031-H.jpeg",NA,"SUPTM14738"
"140",1688990958097,"10/07/2023 12:09:18",1688976558097,-4,"10/07/2023 04:09:18",137495,33,"task-empj",NA,30591956,9082545,NA,"complete",NA,NA,"computer","Desktop or Laptop","Windows 10","Chrome 113.0.0.0","1920x1080","1920x969",NA,NA,NA,"JV Task P1",8,"Anxious",NA,"In",NA,NA,"EFDGCHBIAJK",NA,NA,"B (MDot First)",1,123,"SS1","SS1",15,"J","Fixation","mtm832",2,"continue","",966.969000000012,966.969000000012,966.969000000012,966.969000000012,966.969000000012,966.969000000012,1,966.969000000012,0,0,NA,"Fixation Timing","Fixation",1,"object-65","J","CFD-BF-029-031-H.jpeg",NA,"SUPTM14738"
"141",1688990960277,"10/07/2023 12:09:20",1688976560277,-4,"10/07/2023 04:09:20",137495,33,"task-empj",NA,30591956,9082545,NA,"complete",NA,NA,"computer","Desktop or Laptop","Windows 10","Chrome 113.0.0.0","1920x1080","1920x969",NA,NA,NA,"JV Task P1",8,"Anxious",NA,"In",NA,NA,"EFDGCHBIAJK",NA,NA,"B (MDot First)",1,123,"SS1","SS1",16,"J","Judginess","w2ir4b",1,"continue","",2179.71399999701,2167.326,2179.71399999701,2179.71399999701,2167.326,2179.71399999701,1,2179.71399999701,0,0,NA,"Click To Continue","Continue Button",1,"object-14","J","CFD-WF-037-029-S.jpeg",NA,"SUPTM14738"
"142",1688990960277,"10/07/2023 12:09:20",1688976560277,-4,"10/07/2023 04:09:20",137495,33,"task-empj",NA,30591956,9082545,NA,"complete",NA,NA,"computer","Desktop or Laptop","Windows 10","Chrome 113.0.0.0","1920x1080","1920x969",NA,NA,NA,"JV Task P1",8,"Anxious",NA,"In",NA,NA,"EFDGCHBIAJK",NA,NA,"B (MDot First)",1,123,"SS1","SS1",16,"J","Judginess","w2ir4b",1,"response","51",1600.45799999998,2167.326,2180.21399999701,1600.45799999998,2167.326,2180.21399999701,1,1600.45799999998,579.755999997025,0,NA,"Slider","J",3,"object-18","J","CFD-WF-037-029-S.jpeg",NA,"SUPTM14738"
"143",1688990961232,"10/07/2023 12:09:21",1688976561232,-4,"10/07/2023 04:09:21",137495,33,"task-empj",NA,30591956,9082545,NA,"complete",NA,NA,"computer","Desktop or Laptop","Windows 10","Chrome 113.0.0.0","1920x1080","1920x969",NA,NA,NA,"JV Task P1",8,"Anxious",NA,"In",NA,NA,"EFDGCHBIAJK",NA,NA,"B (MDot First)",1,123,"SS1","SS1",16,"J","Fixation","mtm832",2,"continue","",966.97099999999,966.97099999999,966.97099999999,966.97099999999,966.97099999999,966.97099999999,1,966.97099999999,0,0,NA,"Fixation Timing","Fixation",1,"object-65","J","CFD-WF-037-029-S.jpeg",NA,"SUPTM14738"
"144",1688990964765,"10/07/2023 12:09:24",1688976564765,-4,"10/07/2023 04:09:24",137495,33,"task-empj",NA,30591956,9082545,NA,"complete",NA,NA,"computer","Desktop or Laptop","Windows 10","Chrome 113.0.0.0","1920x1080","1920x969",NA,NA,NA,"JV Task P1",8,"Anxious",NA,"In",NA,NA,"EFDGCHBIAJK",NA,NA,"B (MDot First)",1,123,"SS1","SS1",17,"J","Judginess","w2ir4b",1,"continue","",3533.31700000298,3517.747,3533.31700000298,3533.31700000298,3517.747,3533.31700000298,1,3533.31700000298,0,0,NA,"Click To Continue","Continue Button",1,"object-14","J","CFD-WF-022-017-N.jpg",NA,"SUPTM14738"
"145",1688990964765,"10/07/2023 12:09:24",1688976564765,-4,"10/07/2023 04:09:24",137495,33,"task-empj",NA,30591956,9082545,NA,"complete",NA,NA,"computer","Desktop or Laptop","Windows 10","Chrome 113.0.0.0","1920x1080","1920x969",NA,NA,NA,"JV Task P1",8,"Anxious",NA,"In",NA,NA,"EFDGCHBIAJK",NA,NA,"B (MDot First)",1,123,"SS1","SS1",17,"J","Judginess","w2ir4b",1,"response","92",2417.402,3517.747,3533.71700000149,2417.402,3517.747,3533.71700000149,1,2417.402,1116.31500000149,0,NA,"Slider","J",3,"object-18","J","CFD-WF-022-017-N.jpg",NA,"SUPTM14738"
"146",1688990965716,"10/07/2023 12:09:25",1688976565716,-4,"10/07/2023 04:09:25",137495,33,"task-empj",NA,30591956,9082545,NA,"complete",NA,NA,"computer","Desktop or Laptop","Windows 10","Chrome 113.0.0.0","1920x1080","1920x969",NA,NA,NA,"JV Task P1",8,"Anxious",NA,"In",NA,NA,"EFDGCHBIAJK",NA,NA,"B (MDot First)",1,123,"SS1","SS1",17,"J","Fixation","mtm832",2,"continue","",966.943999999989,966.943999999989,966.943999999989,966.943999999989,966.943999999989,966.943999999989,1,966.943999999989,0,0,NA,"Fixation Timing","Fixation",1,"object-65","J","CFD-WF-022-017-N.jpg",NA,"SUPTM14738"
"147",1688990970061,"10/07/2023 12:09:30",1688976570061,-4,"10/07/2023 04:09:30",137495,33,"task-empj",NA,30591956,9082545,NA,"complete",NA,NA,"computer","Desktop or Laptop","Windows 10","Chrome 113.0.0.0","1920x1080","1920x969",NA,NA,NA,"JV Task P1",8,"Anxious",NA,"In",NA,NA,"EFDGCHBIAJK",NA,NA,"B (MDot First)",1,123,"SS1","SS1",18,"J","Judginess","w2ir4b",1,"continue","",4345.12600000299,4334.641,4345.12600000299,4345.12600000299,4334.641,4345.12600000299,1,4345.12600000299,0,0,NA,"Click To Continue","Continue Button",1,"object-14","J","CFD-WF-036-023-S.jpeg",NA,"SUPTM14738"
"148",1688990970065,"10/07/2023 12:09:30",1688976570065,-4,"10/07/2023 04:09:30",137495,33,"task-empj",NA,30591956,9082545,NA,"complete",NA,NA,"computer","Desktop or Laptop","Windows 10","Chrome 113.0.0.0","1920x1080","1920x969",NA,NA,NA,"JV Task P1",8,"Anxious",NA,"In",NA,NA,"EFDGCHBIAJK",NA,NA,"B (MDot First)",1,123,"SS1","SS1",18,"J","Judginess","w2ir4b",1,"response","35",2250.70699999999,4334.641,4348.72599999703,2250.70699999999,4334.641,4348.72599999703,1,2250.70699999999,2098.01899999703,0,NA,"Slider","J",3,"object-18","J","CFD-WF-036-023-S.jpeg",NA,"SUPTM14738"
"149",1688990971018,"10/07/2023 12:09:31",1688976571018,-4,"10/07/2023 04:09:31",137495,33,"task-empj",NA,30591956,9082545,NA,"complete",NA,NA,"computer","Desktop or Laptop","Windows 10","Chrome 113.0.0.0","1920x1080","1920x969",NA,NA,NA,"JV Task P1",8,"Anxious",NA,"In",NA,NA,"EFDGCHBIAJK",NA,NA,"B (MDot First)",1,123,"SS1","SS1",18,"J","Fixation","mtm832",2,"continue","",966.989999999991,966.989999999991,966.989999999991,966.989999999991,966.989999999991,966.989999999991,1,966.989999999991,0,0,NA,"Fixation Timing","Fixation",1,"object-65","J","CFD-WF-036-023-S.jpeg",NA,"SUPTM14738"
"150",1688990974669,"10/07/2023 12:09:34",1688976574669,-4,"10/07/2023 04:09:34",137495,33,"task-empj",NA,30591956,9082545,NA,"complete",NA,NA,"computer","Desktop or Laptop","Windows 10","Chrome 113.0.0.0","1920x1080","1920x969",NA,NA,NA,"JV Task P1",8,"Anxious",NA,"In",NA,NA,"EFDGCHBIAJK",NA,NA,"B (MDot First)",1,123,"SS1","SS1",32,"V","Valence","sn1sjn",1,"continue","",3650.99500000299,3634.45000000001,3650.99500000299,3650.99500000299,3634.45000000001,3650.99500000299,1,3650.99500000299,0,0,NA,"Click To Continue","Continue Button",1,"object-25","V","CFD-WM-034-030-S.jpeg",NA,"SUPTM14738"
"151",1688990974669,"10/07/2023 12:09:34",1688976574669,-4,"10/07/2023 04:09:34",137495,33,"task-empj",NA,30591956,9082545,NA,"complete",NA,NA,"computer","Desktop or Laptop","Windows 10","Chrome 113.0.0.0","1920x1080","1920x969",NA,NA,NA,"JV Task P1",8,"Anxious",NA,"In",NA,NA,"EFDGCHBIAJK",NA,NA,"B (MDot First)",1,123,"SS1","SS1",32,"V","Valence","sn1sjn",1,"response","44",2800.87300000002,3634.45000000001,3651.114,2800.87300000002,3634.45000000001,3651.114,1,2800.87300000002,850.24099999998,0,NA,"Slider","J",3,"object-27","V","CFD-WM-034-030-S.jpeg",NA,"SUPTM14738"
"152",1688990975619,"10/07/2023 12:09:35",1688976575619,-4,"10/07/2023 04:09:35",137495,33,"task-empj",NA,30591956,9082545,NA,"complete",NA,NA,"computer","Desktop or Laptop","Windows 10","Chrome 113.0.0.0","1920x1080","1920x969",NA,NA,NA,"JV Task P1",8,"Anxious",NA,"In",NA,NA,"EFDGCHBIAJK",NA,NA,"B (MDot First)",1,123,"SS1","SS1",32,"V","Fixation","aydkg3",2,"continue","",966.953999999998,966.953999999998,966.953999999998,966.953999999998,966.953999999998,966.953999999998,1,966.953999999998,0,0,NA,"Fixation Timing","Fixation",1,"object-21","V","CFD-WM-034-030-S.jpeg",NA,"SUPTM14738"
"153",1688990977684,"10/07/2023 12:09:37",1688976577684,-4,"10/07/2023 04:09:37",137495,33,"task-empj",NA,30591956,9082545,NA,"complete",NA,NA,"computer","Desktop or Laptop","Windows 10","Chrome 113.0.0.0","1920x1080","1920x969",NA,NA,NA,"JV Task P1",8,"Anxious",NA,"In",NA,NA,"EFDGCHBIAJK",NA,NA,"B (MDot First)",1,123,"SS1","SS1",19,"J","Judginess","w2ir4b",1,"continue","",2065.29099999851,2050.64499999999,2065.29099999851,2065.29099999851,2050.64499999999,2065.29099999851,1,2065.29099999851,0,0,NA,"Click To Continue","Continue Button",1,"object-14","J","CFD-BM-016-036-H.jpeg",NA,"SUPTM14738"
"154",1688990977685,"10/07/2023 12:09:37",1688976577685,-4,"10/07/2023 04:09:37",137495,33,"task-empj",NA,30591956,9082545,NA,"complete",NA,NA,"computer","Desktop or Laptop","Windows 10","Chrome 113.0.0.0","1920x1080","1920x969",NA,NA,NA,"JV Task P1",8,"Anxious",NA,"In",NA,NA,"EFDGCHBIAJK",NA,NA,"B (MDot First)",1,123,"SS1","SS1",19,"J","Judginess","w2ir4b",1,"response","93",1450.45800000001,2050.64499999999,2065.69099999702,1450.45800000001,2050.64499999999,2065.69099999702,1,1450.45800000001,615.23299999701,0,NA,"Slider","J",3,"object-18","J","CFD-BM-016-036-H.jpeg",NA,"SUPTM14738"
"155",1688990978637,"10/07/2023 12:09:38",1688976578637,-4,"10/07/2023 04:09:38",137495,33,"task-empj",NA,30591956,9082545,NA,"complete",NA,NA,"computer","Desktop or Laptop","Windows 10","Chrome 113.0.0.0","1920x1080","1920x969",NA,NA,NA,"JV Task P1",8,"Anxious",NA,"In",NA,NA,"EFDGCHBIAJK",NA,NA,"B (MDot First)",1,123,"SS1","SS1",19,"J","Fixation","mtm832",2,"continue","",966.955000000016,966.955000000016,966.955000000016,966.955000000016,966.955000000016,966.955000000016,1,966.955000000016,0,0,NA,"Fixation Timing","Fixation",1,"object-65","J","CFD-BM-016-036-H.jpeg",NA,"SUPTM14738"
"156",1688990980557,"10/07/2023 12:09:40",1688976580557,-4,"10/07/2023 04:09:40",137495,33,"task-empj",NA,30591956,9082545,NA,"complete",NA,NA,"computer","Desktop or Laptop","Windows 10","Chrome 113.0.0.0","1920x1080","1920x969",NA,NA,NA,"JV Task P1",8,"Anxious",NA,"In",NA,NA,"EFDGCHBIAJK",NA,NA,"B (MDot First)",1,123,"SS1","SS1",20,"J","Judginess","w2ir4b",1,"continue","",1920.291,1917.24299999999,1920.291,1920.291,1917.24299999999,1920.291,1,1920.291,0,0,NA,"Click To Continue","Continue Button",1,"object-14","J","CFD-BM-036-003-H.jpeg",NA,"SUPTM14738"
"157",1688990980566,"10/07/2023 12:09:40",1688976580566,-4,"10/07/2023 04:09:40",137495,33,"task-empj",NA,30591956,9082545,NA,"complete",NA,NA,"computer","Desktop or Laptop","Windows 10","Chrome 113.0.0.0","1920x1080","1920x969",NA,NA,NA,"JV Task P1",8,"Anxious",NA,"In",NA,NA,"EFDGCHBIAJK",NA,NA,"B (MDot First)",1,123,"SS1","SS1",20,"J","Judginess","w2ir4b",1,"response","96",1133.66099999999,1917.24299999999,1929.19099999851,1133.66099999999,1917.24299999999,1929.19099999851,1,1133.66099999999,795.529999998515,0,NA,"Slider","J",3,"object-18","J","CFD-BM-036-003-H.jpeg",NA,"SUPTM14738"
"158",1688990981521,"10/07/2023 12:09:41",1688976581521,-4,"10/07/2023 04:09:41",137495,33,"task-empj",NA,30591956,9082545,NA,"complete",NA,NA,"computer","Desktop or Laptop","Windows 10","Chrome 113.0.0.0","1920x1080","1920x969",NA,NA,NA,"JV Task P1",8,"Anxious",NA,"In",NA,NA,"EFDGCHBIAJK",NA,NA,"B (MDot First)",1,123,"SS1","SS1",20,"J","Fixation","mtm832",2,"continue","",966.991000000009,966.991000000009,966.991000000009,966.991000000009,966.991000000009,966.991000000009,1,966.991000000009,0,0,NA,"Fixation Timing","Fixation",1,"object-65","J","CFD-BM-036-003-H.jpeg",NA,"SUPTM14738"
"159",1688990983733,"10/07/2023 12:09:43",1688976583733,-4,"10/07/2023 04:09:43",137495,33,"task-empj",NA,30591956,9082545,NA,"complete",NA,NA,"computer","Desktop or Laptop","Windows 10","Chrome 113.0.0.0","1920x1080","1920x969",NA,NA,NA,"JV Task P1",8,"Anxious",NA,"In",NA,NA,"EFDGCHBIAJK",NA,NA,"B (MDot First)",1,123,"SS1","SS1",33,"V","Valence","sn1sjn",1,"continue","",2211.85699999702,2200.65900000001,2211.85699999702,2211.85699999702,2200.65900000001,2211.85699999702,1,2211.85699999702,0,0,NA,"Click To Continue","Continue Button",1,"object-25","V","CFD-WM-009-002-S.jpeg",NA,"SUPTM14738"
"160",1688990983733,"10/07/2023 12:09:43",1688976583733,-4,"10/07/2023 04:09:43",137495,33,"task-empj",NA,30591956,9082545,NA,"complete",NA,NA,"computer","Desktop or Laptop","Windows 10","Chrome 113.0.0.0","1920x1080","1920x969",NA,NA,NA,"JV Task P1",8,"Anxious",NA,"In",NA,NA,"EFDGCHBIAJK",NA,NA,"B (MDot First)",1,123,"SS1","SS1",33,"V","Valence","sn1sjn",1,"response","45",1533.777,2200.65900000001,2212.35699999702,1533.777,2200.65900000001,2212.35699999702,1,1533.777,678.579999997019,0,NA,"Slider","J",3,"object-27","V","CFD-WM-009-002-S.jpeg",NA,"SUPTM14738"
"161",1688990984689,"10/07/2023 12:09:44",1688976584689,-4,"10/07/2023 04:09:44",137495,33,"task-empj",NA,30591956,9082545,NA,"complete",NA,NA,"computer","Desktop or Laptop","Windows 10","Chrome 113.0.0.0","1920x1080","1920x969",NA,NA,NA,"JV Task P1",8,"Anxious",NA,"In",NA,NA,"EFDGCHBIAJK",NA,NA,"B (MDot First)",1,123,"SS1","SS1",33,"V","Fixation","aydkg3",2,"continue","",966.960999999981,966.960999999981,966.960999999981,966.960999999981,966.960999999981,966.960999999981,1,966.960999999981,0,0,NA,"Fixation Timing","Fixation",1,"object-21","V","CFD-WM-009-002-S.jpeg",NA,"SUPTM14738"
"162",1688990986982,"10/07/2023 12:09:46",1688976586982,-4,"10/07/2023 04:09:46",137495,33,"task-empj",NA,30591956,9082545,NA,"complete",NA,NA,"computer","Desktop or Laptop","Windows 10","Chrome 113.0.0.0","1920x1080","1920x969",NA,NA,NA,"JV Task P1",8,"Anxious",NA,"In",NA,NA,"EFDGCHBIAJK",NA,NA,"B (MDot First)",1,123,"SS1","SS1",34,"V","Valence","sn1sjn",1,"continue","",2293.73699999703,2284.03,2293.73699999703,2293.73699999703,2284.03,2293.73699999703,1,2293.73699999703,0,0,NA,"Click To Continue","Continue Button",1,"object-25","V","CFD-BF-008-001-H.jpeg",NA,"SUPTM14738"
"163",1688990986983,"10/07/2023 12:09:46",1688976586983,-4,"10/07/2023 04:09:46",137495,33,"task-empj",NA,30591956,9082545,NA,"complete",NA,NA,"computer","Desktop or Laptop","Windows 10","Chrome 113.0.0.0","1920x1080","1920x969",NA,NA,NA,"JV Task P1",8,"Anxious",NA,"In",NA,NA,"EFDGCHBIAJK",NA,NA,"B (MDot First)",1,123,"SS1","SS1",34,"V","Valence","sn1sjn",1,"response","97",1533.79500000001,2284.03,2294.5370000015,1533.79500000001,2284.03,2294.5370000015,1,1533.79500000001,760.742000001483,0,NA,"Slider","J",3,"object-27","V","CFD-BF-008-001-H.jpeg",NA,"SUPTM14738"
"164",1688990987940,"10/07/2023 12:09:47",1688976587940,-4,"10/07/2023 04:09:47",137495,33,"task-empj",NA,30591956,9082545,NA,"complete",NA,NA,"computer","Desktop or Laptop","Windows 10","Chrome 113.0.0.0","1920x1080","1920x969",NA,NA,NA,"JV Task P1",8,"Anxious",NA,"In",NA,NA,"EFDGCHBIAJK",NA,NA,"B (MDot First)",1,123,"SS1","SS1",34,"V","Fixation","aydkg3",2,"continue","",966.975999999995,966.975999999995,966.975999999995,966.975999999995,966.975999999995,966.975999999995,1,966.975999999995,0,0,NA,"Fixation Timing","Fixation",1,"object-21","V","CFD-BF-008-001-H.jpeg",NA,"SUPTM14738"
"165",1688990990404,"10/07/2023 12:09:50",1688976590404,-4,"10/07/2023 04:09:50",137495,33,"task-empj",NA,30591956,9082545,NA,"complete",NA,NA,"computer","Desktop or Laptop","Windows 10","Chrome 113.0.0.0","1920x1080","1920x969",NA,NA,NA,"JV Task P1",8,"Anxious",NA,"In",NA,NA,"EFDGCHBIAJK",NA,NA,"B (MDot First)",1,123,"SS1","SS1",35,"V","Valence","sn1sjn",1,"continue","",2464.73099999703,2450.73200000002,2464.73099999703,2464.73099999703,2450.73200000002,2464.73099999703,1,2464.73099999703,0,0,NA,"Click To Continue","Continue Button",1,"object-25","V","CFD-AF-211-066-H.jpeg",NA,"SUPTM14738"
"166",1688990990405,"10/07/2023 12:09:50",1688976590405,-4,"10/07/2023 04:09:50",137495,33,"task-empj",NA,30591956,9082545,NA,"complete",NA,NA,"computer","Desktop or Laptop","Windows 10","Chrome 113.0.0.0","1920x1080","1920x969",NA,NA,NA,"JV Task P1",8,"Anxious",NA,"In",NA,NA,"EFDGCHBIAJK",NA,NA,"B (MDot First)",1,123,"SS1","SS1",35,"V","Valence","sn1sjn",1,"response","97",1867.228,2450.73200000002,2465.23099999703,1867.228,2450.73200000002,2465.23099999703,1,1867.228,598.002999997028,0,NA,"Slider","J",3,"object-27","V","CFD-AF-211-066-H.jpeg",NA,"SUPTM14738"
"167",1688990991357,"10/07/2023 12:09:51",1688976591357,-4,"10/07/2023 04:09:51",137495,33,"task-empj",NA,30591956,9082545,NA,"complete",NA,NA,"computer","Desktop or Laptop","Windows 10","Chrome 113.0.0.0","1920x1080","1920x969",NA,NA,NA,"JV Task P1",8,"Anxious",NA,"In",NA,NA,"EFDGCHBIAJK",NA,NA,"B (MDot First)",1,123,"SS1","SS1",35,"V","Fixation","aydkg3",2,"continue","",966.986999999994,966.986999999994,966.986999999994,966.986999999994,966.986999999994,966.986999999994,1,966.986999999994,0,0,NA,"Fixation Timing","Fixation",1,"object-21","V","CFD-AF-211-066-H.jpeg",NA,"SUPTM14738"
"168",1688990994213,"10/07/2023 12:09:54",1688976594213,-4,"10/07/2023 04:09:54",137495,33,"task-empj",NA,30591956,9082545,NA,"complete",NA,NA,"computer","Desktop or Laptop","Windows 10","Chrome 113.0.0.0","1920x1080","1920x969",NA,NA,NA,"JV Task P1",8,"Anxious",NA,"In",NA,NA,"EFDGCHBIAJK",NA,NA,"B (MDot First)",1,123,"SS1","SS1",36,"V","Valence","sn1sjn",1,"continue","",2856.11199999851,2850.84599999999,2856.11199999851,2856.11199999851,2850.84599999999,2856.11199999851,1,2856.11199999851,0,0,NA,"Click To Continue","Continue Button",1,"object-25","V","CFD-MM-308-001-S.jpeg",NA,"SUPTM14738"
"169",1688990994214,"10/07/2023 12:09:54",1688976594214,-4,"10/07/2023 04:09:54",137495,33,"task-empj",NA,30591956,9082545,NA,"complete",NA,NA,"computer","Desktop or Laptop","Windows 10","Chrome 113.0.0.0","1920x1080","1920x969",NA,NA,NA,"JV Task P1",8,"Anxious",NA,"In",NA,NA,"EFDGCHBIAJK",NA,NA,"B (MDot First)",1,123,"SS1","SS1",36,"V","Valence","sn1sjn",1,"response","46",2117.29199999999,2850.84599999999,2856.81200000149,2117.29199999999,2850.84599999999,2856.81200000149,1,2117.29199999999,739.520000001503,0,NA,"Slider","J",3,"object-27","V","CFD-MM-308-001-S.jpeg",NA,"SUPTM14738"
"170",1688990995175,"10/07/2023 12:09:55",1688976595175,-4,"10/07/2023 04:09:55",137495,33,"task-empj",NA,30591956,9082545,NA,"complete",NA,NA,"computer","Desktop or Laptop","Windows 10","Chrome 113.0.0.0","1920x1080","1920x969",NA,NA,NA,"JV Task P1",8,"Anxious",NA,"In",NA,NA,"EFDGCHBIAJK",NA,NA,"B (MDot First)",1,123,"SS1","SS1",36,"V","Fixation","aydkg3",2,"continue","",966.979000000021,966.979000000021,966.979000000021,966.979000000021,966.979000000021,966.979000000021,1,966.979000000021,0,0,NA,"Fixation Timing","Fixation",1,"object-21","V","CFD-MM-308-001-S.jpeg",NA,"SUPTM14738"
"171",1688990997860,"10/07/2023 12:09:57",1688976597860,-4,"10/07/2023 04:09:57",137495,33,"task-empj",NA,30591956,9082545,NA,"complete",NA,NA,"computer","Desktop or Laptop","Windows 10","Chrome 113.0.0.0","1920x1080","1920x969",NA,NA,NA,"JV Task P1",8,"Anxious",NA,"In",NA,NA,"EFDGCHBIAJK",NA,NA,"B (MDot First)",1,123,"SS1","SS1",37,"V","Valence","sn1sjn",1,"continue","",2684.21900000004,2667.527,2684.21900000004,2684.21900000004,2667.527,2684.21900000004,1,2684.21900000004,0,0,NA,"Click To Continue","Continue Button",1,"object-25","V","CFD-WF-030-002-S.jpeg",NA,"SUPTM14738"
