"Event.Index","UTC.Timestamp","UTC.Date.and.Time","Local.Timestamp","Local.Timezone","Local.Date.and.Time","Experiment.ID","Experiment.Version","Tree.Node.Key","Repeat.Key","Schedule.ID","Participant.Private.ID","Participant.Starting.Group","Participant.Status","Participant.Completion.Code","Participant.External.Session.ID","Participant.Device.Type","Participant.Device","Participant.OS","Participant.Browser","Participant.Monitor.Size","Participant.Viewport.Size","Checkpoint","Room.ID","Room.Order","Task.Name","Task.Version","branch.ln1a","randomiser.vzsr","branch.hkzp","randomiser.ywar","randomiser.q6ah","order.ot79","randomiser.ahe2","randomiser.ckhi","randomiser.lqqr","randomiser.pobd","randomiser.8gdj","Spreadsheet","Current.Spreadsheet","Trial.Number","Display","Screen","Screen.ID","Screen.Counter","Response.Type","Response","Onset.Time","Clock.Time","Reaction.Time","Absolute.Onset.Time","Absolute.Clock.Time","Absolute.Reaction.Time","Correct","Response.Onset","Response.Duration","Proportion","Tag","Component.Name","Object.Name","Object.Number","Object.ID","Spreadsheet..display","Spreadsheet..stimulus","Manipulation..Spreadsheet","Random_ID"
"1",1689003332807,"10/07/2023 15:35:32",1688988932807,-4,"10/07/2023 07:35:32",137495,33,"task-yv6i",NA,30599323,9084322,NA,"complete",NA,NA,"computer","Desktop or Laptop","Windows 10","Chrome 114.0.0.0","1370x703","1366x699",NA,NA,NA,"JV Task P3 (Updated)",4,"Anxious",NA,"In",NA,NA,"IJHKGAFBECD",NA,NA,"B (MDot First)",1,231,"SS1","SS1",NA,"","","",NA,"5","BEGIN",NA,NA,NA,NA,NA,NA,0,NA,NA,NA,NA,"","",NA,"","","",NA,"SUPTM96648"
"2",1689003350482,"10/07/2023 15:35:50",1688988950482,-4,"10/07/2023 07:35:50",137495,33,"task-yv6i",NA,30599323,9084322,NA,"complete",NA,NA,"computer","Desktop or Laptop","Windows 10","Chrome 114.0.0.0","1370x703","1366x699",NA,NA,NA,"JV Task P3 (Updated)",4,"Anxious",NA,"In",NA,NA,"IJHKGAFBECD",NA,NA,"B (MDot First)",1,231,"SS1","SS1",1,"J","Judginess","y8ii7g",1,"continue","",5883,5872,5883,5883,5872,5883,1,5883,0,0,NA,"Click To Continue","Continue Button",1,"object-14","J","CFD-BF-040-003-H.jpeg",NA,"SUPTM96648"
"3",1689003350490,"10/07/2023 15:35:50",1688988950490,-4,"10/07/2023 07:35:50",137495,33,"task-yv6i",NA,30599323,9084322,NA,"complete",NA,NA,"computer","Desktop or Laptop","Windows 10","Chrome 114.0.0.0","1370x703","1366x699",NA,NA,NA,"JV Task P3 (Updated)",4,"Anxious",NA,"In",NA,NA,"IJHKGAFBECD",NA,NA,"B (MDot First)",1,231,"SS1","SS1",1,"J","Judginess","y8ii7g",1,"response","67",2811,5872,5889,2811,5872,5889,1,2811,3078,0,NA,"Slider","J",3,"object-18","J","CFD-BF-040-003-H.jpeg",NA,"SUPTM96648"
"4",1689003351436,"10/07/2023 15:35:51",1688988951436,-4,"10/07/2023 07:35:51",137495,33,"task-yv6i",NA,30599323,9084322,NA,"complete",NA,NA,"computer","Desktop or Laptop","Windows 10","Chrome 114.0.0.0","1370x703","1366x699",NA,NA,NA,"JV Task P3 (Updated)",4,"Anxious",NA,"In",NA,NA,"IJHKGAFBECD",NA,NA,"B (MDot First)",1,231,"SS1","SS1",1,"J","Fixation","w9zir9",2,"continue","",965,965,965,965,965,965,1,965,0,0,NA,"Fixation Timing","Fixation",1,"object-65","J","CFD-BF-040-003-H.jpeg",NA,"SUPTM96648"
"5",1689003362152,"10/07/2023 15:36:02",1688988962152,-4,"10/07/2023 07:36:02",137495,33,"task-yv6i",NA,30599323,9084322,NA,"complete",NA,NA,"computer","Desktop or Laptop","Windows 10","Chrome 114.0.0.0","1370x703","1366x699",NA,NA,NA,"JV Task P3 (Updated)",4,"Anxious",NA,"In",NA,NA,"IJHKGAFBECD",NA,NA,"B (MDot First)",1,231,"SS1","SS1",1,"V","Valence","xyoebq",1,"continue","",10713,10696,10713,10713,10696,10713,1,10713,0,0,NA,"Click To Continue","Continue Button",1,"object-25","V","CFD-WM-025-002-S.jpeg",NA,"SUPTM96648"
"6",1689003362156,"10/07/2023 15:36:02",1688988962156,-4,"10/07/2023 07:36:02",137495,33,"task-yv6i",NA,30599323,9084322,NA,"complete",NA,NA,"computer","Desktop or Laptop","Windows 10","Chrome 114.0.0.0","1370x703","1366x699",NA,NA,NA,"JV Task P3 (Updated)",4,"Anxious",NA,"In",NA,NA,"IJHKGAFBECD",NA,NA,"B (MDot First)",1,231,"SS1","SS1",1,"V","Valence","xyoebq",1,"response","39",3643,10696,10713,3643,10696,10713,1,3643,7070,0,NA,"Slider","J",3,"object-27","V","CFD-WM-025-002-S.jpeg",NA,"SUPTM96648"
"7",1689003363097,"10/07/2023 15:36:03",1688988963097,-4,"10/07/2023 07:36:03",137495,33,"task-yv6i",NA,30599323,9084322,NA,"complete",NA,NA,"computer","Desktop or Laptop","Windows 10","Chrome 114.0.0.0","1370x703","1366x699",NA,NA,NA,"JV Task P3 (Updated)",4,"Anxious",NA,"In",NA,NA,"IJHKGAFBECD",NA,NA,"B (MDot First)",1,231,"SS1","SS1",1,"V","Fixation","68owkj",2,"continue","",965,965,965,965,965,965,1,965,0,0,NA,"Fixation Timing","Fixation",1,"object-21","V","CFD-WM-025-002-S.jpeg",NA,"SUPTM96648"
"8",1689003367436,"10/07/2023 15:36:07",1688988967436,-4,"10/07/2023 07:36:07",137495,33,"task-yv6i",NA,30599323,9084322,NA,"complete",NA,NA,"computer","Desktop or Laptop","Windows 10","Chrome 114.0.0.0","1370x703","1366x699",NA,NA,NA,"JV Task P3 (Updated)",4,"Anxious",NA,"In",NA,NA,"IJHKGAFBECD",NA,NA,"B (MDot First)",1,231,"SS1","SS1",2,"J","Judginess","y8ii7g",1,"continue","",4339,4325,4339,4339,4325,4339,1,4339,0,0,NA,"Click To Continue","Continue Button",1,"object-14","J","CFD-MF-309-002-S.jpeg",NA,"SUPTM96648"
"9",1689003367436,"10/07/2023 15:36:07",1688988967436,-4,"10/07/2023 07:36:07",137495,33,"task-yv6i",NA,30599323,9084322,NA,"complete",NA,NA,"computer","Desktop or Laptop","Windows 10","Chrome 114.0.0.0","1370x703","1366x699",NA,NA,NA,"JV Task P3 (Updated)",4,"Anxious",NA,"In",NA,NA,"IJHKGAFBECD",NA,NA,"B (MDot First)",1,231,"SS1","SS1",2,"J","Judginess","y8ii7g",1,"response","42",2195,4325,4339,2195,4325,4339,1,2195,2144,0,NA,"Slider","J",3,"object-18","J","CFD-MF-309-002-S.jpeg",NA,"SUPTM96648"
"10",1689003368387,"10/07/2023 15:36:08",1688988968387,-4,"10/07/2023 07:36:08",137495,33,"task-yv6i",NA,30599323,9084322,NA,"complete",NA,NA,"computer","Desktop or Laptop","Windows 10","Chrome 114.0.0.0","1370x703","1366x699",NA,NA,NA,"JV Task P3 (Updated)",4,"Anxious",NA,"In",NA,NA,"IJHKGAFBECD",NA,NA,"B (MDot First)",1,231,"SS1","SS1",2,"J","Fixation","w9zir9",2,"continue","",964,964,964,964,964,964,1,964,0,0,NA,"Fixation Timing","Fixation",1,"object-65","J","CFD-MF-309-002-S.jpeg",NA,"SUPTM96648"
"11",1689003371091,"10/07/2023 15:36:11",1688988971091,-4,"10/07/2023 07:36:11",137495,33,"task-yv6i",NA,30599323,9084322,NA,"complete",NA,NA,"computer","Desktop or Laptop","Windows 10","Chrome 114.0.0.0","1370x703","1366x699",NA,NA,NA,"JV Task P3 (Updated)",4,"Anxious",NA,"In",NA,NA,"IJHKGAFBECD",NA,NA,"B (MDot First)",1,231,"SS1","SS1",3,"J","Judginess","y8ii7g",1,"continue","",2704,2695,2704,2704,2695,2704,1,2704,0,0,NA,"Click To Continue","Continue Button",1,"object-14","J","CFD-WM-026-001-S.jpeg",NA,"SUPTM96648"
"12",1689003371092,"10/07/2023 15:36:11",1688988971092,-4,"10/07/2023 07:36:11",137495,33,"task-yv6i",NA,30599323,9084322,NA,"complete",NA,NA,"computer","Desktop or Laptop","Windows 10","Chrome 114.0.0.0","1370x703","1366x699",NA,NA,NA,"JV Task P3 (Updated)",4,"Anxious",NA,"In",NA,NA,"IJHKGAFBECD",NA,NA,"B (MDot First)",1,231,"SS1","SS1",3,"J","Judginess","y8ii7g",1,"response","43",1447,2695,2706,1447,2695,2706,1,1447,1259,0,NA,"Slider","J",3,"object-18","J","CFD-WM-026-001-S.jpeg",NA,"SUPTM96648"
"13",1689003372046,"10/07/2023 15:36:12",1688988972046,-4,"10/07/2023 07:36:12",137495,33,"task-yv6i",NA,30599323,9084322,NA,"complete",NA,NA,"computer","Desktop or Laptop","Windows 10","Chrome 114.0.0.0","1370x703","1366x699",NA,NA,NA,"JV Task P3 (Updated)",4,"Anxious",NA,"In",NA,NA,"IJHKGAFBECD",NA,NA,"B (MDot First)",1,231,"SS1","SS1",3,"J","Fixation","w9zir9",2,"continue","",965,965,965,965,965,965,1,965,0,0,NA,"Fixation Timing","Fixation",1,"object-65","J","CFD-WM-026-001-S.jpeg",NA,"SUPTM96648"
"14",1689003375214,"10/07/2023 15:36:15",1688988975214,-4,"10/07/2023 07:36:15",137495,33,"task-yv6i",NA,30599323,9084322,NA,"complete",NA,NA,"computer","Desktop or Laptop","Windows 10","Chrome 114.0.0.0","1370x703","1366x699",NA,NA,NA,"JV Task P3 (Updated)",4,"Anxious",NA,"In",NA,NA,"IJHKGAFBECD",NA,NA,"B (MDot First)",1,231,"SS1","SS1",2,"V","Valence","xyoebq",1,"continue","",3167,3161,3167,3167,3161,3167,1,3167,0,0,NA,"Click To Continue","Continue Button",1,"object-25","V","CFD-AM-220-134-H.jpeg",NA,"SUPTM96648"
"15",1689003375221,"10/07/2023 15:36:15",1688988975221,-4,"10/07/2023 07:36:15",137495,33,"task-yv6i",NA,30599323,9084322,NA,"complete",NA,NA,"computer","Desktop or Laptop","Windows 10","Chrome 114.0.0.0","1370x703","1366x699",NA,NA,NA,"JV Task P3 (Updated)",4,"Anxious",NA,"In",NA,NA,"IJHKGAFBECD",NA,NA,"B (MDot First)",1,231,"SS1","SS1",2,"V","Valence","xyoebq",1,"response","67",1364,3161,3175,1364,3161,3175,1,1364,1811,0,NA,"Slider","J",3,"object-27","V","CFD-AM-220-134-H.jpeg",NA,"SUPTM96648"
"16",1689003376172,"10/07/2023 15:36:16",1688988976172,-4,"10/07/2023 07:36:16",137495,33,"task-yv6i",NA,30599323,9084322,NA,"complete",NA,NA,"computer","Desktop or Laptop","Windows 10","Chrome 114.0.0.0","1370x703","1366x699",NA,NA,NA,"JV Task P3 (Updated)",4,"Anxious",NA,"In",NA,NA,"IJHKGAFBECD",NA,NA,"B (MDot First)",1,231,"SS1","SS1",2,"V","Fixation","68owkj",2,"continue","",964,964,964,964,964,964,1,964,0,0,NA,"Fixation Timing","Fixation",1,"object-21","V","CFD-AM-220-134-H.jpeg",NA,"SUPTM96648"
"17",1689003386304,"10/07/2023 15:36:26",1688988986304,-4,"10/07/2023 07:36:26",137495,33,"task-yv6i",NA,30599323,9084322,NA,"complete",NA,NA,"computer","Desktop or Laptop","Windows 10","Chrome 114.0.0.0","1370x703","1366x699",NA,NA,NA,"JV Task P3 (Updated)",4,"Anxious",NA,"In",NA,NA,"IJHKGAFBECD",NA,NA,"B (MDot First)",1,231,"SS1","SS1",4,"J","Judginess","y8ii7g",1,"continue","",10130,10114,10130,10130,10114,10130,1,10130,0,0,NA,"Click To Continue","Continue Button",1,"object-14","J","CFD-WM-037-025-S.jpeg",NA,"SUPTM96648"
"18",1689003386307,"10/07/2023 15:36:26",1688988986307,-4,"10/07/2023 07:36:26",137495,33,"task-yv6i",NA,30599323,9084322,NA,"complete",NA,NA,"computer","Desktop or Laptop","Windows 10","Chrome 114.0.0.0","1370x703","1366x699",NA,NA,NA,"JV Task P3 (Updated)",4,"Anxious",NA,"In",NA,NA,"IJHKGAFBECD",NA,NA,"B (MDot First)",1,231,"SS1","SS1",4,"J","Judginess","y8ii7g",1,"response","39",9133,10114,10130,9133,10114,10130,1,9133,997,0,NA,"Slider","J",3,"object-18","J","CFD-WM-037-025-S.jpeg",NA,"SUPTM96648"
"19",1689003387251,"10/07/2023 15:36:27",1688988987251,-4,"10/07/2023 07:36:27",137495,33,"task-yv6i",NA,30599323,9084322,NA,"complete",NA,NA,"computer","Desktop or Laptop","Windows 10","Chrome 114.0.0.0","1370x703","1366x699",NA,NA,NA,"JV Task P3 (Updated)",4,"Anxious",NA,"In",NA,NA,"IJHKGAFBECD",NA,NA,"B (MDot First)",1,231,"SS1","SS1",4,"J","Fixation","w9zir9",2,"continue","",965,965,965,965,965,965,1,965,0,0,NA,"Fixation Timing","Fixation",1,"object-65","J","CFD-WM-037-025-S.jpeg",NA,"SUPTM96648"
"20",1689003416192,"10/07/2023 15:36:56",1688989016192,-4,"10/07/2023 07:36:56",137495,33,"task-yv6i",NA,30599323,9084322,NA,"complete",NA,NA,"computer","Desktop or Laptop","Windows 10","Chrome 114.0.0.0","1370x703","1366x699",NA,NA,NA,"JV Task P3 (Updated)",4,"Anxious",NA,"In",NA,NA,"IJHKGAFBECD",NA,NA,"B (MDot First)",1,231,"SS1","SS1",5,"J","Judginess","y8ii7g",1,"continue","",6336,6322,6336,6336,6322,6336,1,6336,0,0,NA,"Click To Continue","Continue Button",1,"object-14","J","CFD-WF-031-027-N.jpg",NA,"SUPTM96648"
"21",1689003416199,"10/07/2023 15:36:56",1688989016199,-4,"10/07/2023 07:36:56",137495,33,"task-yv6i",NA,30599323,9084322,NA,"complete",NA,NA,"computer","Desktop or Laptop","Windows 10","Chrome 114.0.0.0","1370x703","1366x699",NA,NA,NA,"JV Task P3 (Updated)",4,"Anxious",NA,"In",NA,NA,"IJHKGAFBECD",NA,NA,"B (MDot First)",1,231,"SS1","SS1",5,"J","Judginess","y8ii7g",1,"response","43",5174,6322,6339,5174,6322,6339,1,5174,1165,0,NA,"Slider","J",3,"object-18","J","CFD-WF-031-027-N.jpg",NA,"SUPTM96648"
"22",1689003417142,"10/07/2023 15:36:57",1688989017142,-4,"10/07/2023 07:36:57",137495,33,"task-yv6i",NA,30599323,9084322,NA,"complete",NA,NA,"computer","Desktop or Laptop","Windows 10","Chrome 114.0.0.0","1370x703","1366x699",NA,NA,NA,"JV Task P3 (Updated)",4,"Anxious",NA,"In",NA,NA,"IJHKGAFBECD",NA,NA,"B (MDot First)",1,231,"SS1","SS1",5,"J","Fixation","w9zir9",2,"continue","",964,964,964,964,964,964,1,964,0,0,NA,"Fixation Timing","Fixation",1,"object-65","J","CFD-WF-031-027-N.jpg",NA,"SUPTM96648"
"23",1689003422353,"10/07/2023 15:37:02",1688989022353,-4,"10/07/2023 07:37:02",137495,33,"task-yv6i",NA,30599323,9084322,NA,"complete",NA,NA,"computer","Desktop or Laptop","Windows 10","Chrome 114.0.0.0","1370x703","1366x699",NA,NA,NA,"JV Task P3 (Updated)",4,"Anxious",NA,"In",NA,NA,"IJHKGAFBECD",NA,NA,"B (MDot First)",1,231,"SS1","SS1",3,"V","Valence","xyoebq",1,"continue","",5211,5207,5211,5211,5207,5211,1,5211,0,0,NA,"Click To Continue","Continue Button",1,"object-25","V","CFD-WF-009-001-S.jpeg",NA,"SUPTM96648"
"24",1689003422354,"10/07/2023 15:37:02",1688989022354,-4,"10/07/2023 07:37:02",137495,33,"task-yv6i",NA,30599323,9084322,NA,"complete",NA,NA,"computer","Desktop or Laptop","Windows 10","Chrome 114.0.0.0","1370x703","1366x699",NA,NA,NA,"JV Task P3 (Updated)",4,"Anxious",NA,"In",NA,NA,"IJHKGAFBECD",NA,NA,"B (MDot First)",1,231,"SS1","SS1",3,"V","Valence","xyoebq",1,"response","44",3643,5207,5212,3643,5207,5212,1,3643,1569,0,NA,"Slider","J",3,"object-27","V","CFD-WF-009-001-S.jpeg",NA,"SUPTM96648"
"25",1689003423314,"10/07/2023 15:37:03",1688989023314,-4,"10/07/2023 07:37:03",137495,33,"task-yv6i",NA,30599323,9084322,NA,"complete",NA,NA,"computer","Desktop or Laptop","Windows 10","Chrome 114.0.0.0","1370x703","1366x699",NA,NA,NA,"JV Task P3 (Updated)",4,"Anxious",NA,"In",NA,NA,"IJHKGAFBECD",NA,NA,"B (MDot First)",1,231,"SS1","SS1",3,"V","Fixation","68owkj",2,"continue","",965,965,965,965,965,965,1,965,0,0,NA,"Fixation Timing","Fixation",1,"object-21","V","CFD-WF-009-001-S.jpeg",NA,"SUPTM96648"
"26",1689003429145,"10/07/2023 15:37:09",1688989029145,-4,"10/07/2023 07:37:09",137495,33,"task-yv6i",NA,30599323,9084322,NA,"complete",NA,NA,"computer","Desktop or Laptop","Windows 10","Chrome 114.0.0.0","1370x703","1366x699",NA,NA,NA,"JV Task P3 (Updated)",4,"Anxious",NA,"In",NA,NA,"IJHKGAFBECD",NA,NA,"B (MDot First)",1,231,"SS1","SS1",6,"J","Judginess","y8ii7g",1,"continue","",5831,5822,5831,5831,5822,5831,1,5831,0,0,NA,"Click To Continue","Continue Button",1,"object-14","J","CFD-MF-315-002-S.jpeg",NA,"SUPTM96648"
"27",1689003429153,"10/07/2023 15:37:09",1688989029153,-4,"10/07/2023 07:37:09",137495,33,"task-yv6i",NA,30599323,9084322,NA,"complete",NA,NA,"computer","Desktop or Laptop","Windows 10","Chrome 114.0.0.0","1370x703","1366x699",NA,NA,NA,"JV Task P3 (Updated)",4,"Anxious",NA,"In",NA,NA,"IJHKGAFBECD",NA,NA,"B (MDot First)",1,231,"SS1","SS1",6,"J","Judginess","y8ii7g",1,"response","36",2545,5822,5839,2545,5822,5839,1,2545,3294,0,NA,"Slider","J",3,"object-18","J","CFD-MF-315-002-S.jpeg",NA,"SUPTM96648"
"28",1689003430100,"10/07/2023 15:37:10",1688989030100,-4,"10/07/2023 07:37:10",137495,33,"task-yv6i",NA,30599323,9084322,NA,"complete",NA,NA,"computer","Desktop or Laptop","Windows 10","Chrome 114.0.0.0","1370x703","1366x699",NA,NA,NA,"JV Task P3 (Updated)",4,"Anxious",NA,"In",NA,NA,"IJHKGAFBECD",NA,NA,"B (MDot First)",1,231,"SS1","SS1",6,"J","Fixation","w9zir9",2,"continue","",965,965,965,965,965,965,1,965,0,0,NA,"Fixation Timing","Fixation",1,"object-65","J","CFD-MF-315-002-S.jpeg",NA,"SUPTM96648"
"29",1689003434858,"10/07/2023 15:37:14",1688989034858,-4,"10/07/2023 07:37:14",137495,33,"task-yv6i",NA,30599323,9084322,NA,"complete",NA,NA,"computer","Desktop or Laptop","Windows 10","Chrome 114.0.0.0","1370x703","1366x699",NA,NA,NA,"JV Task P3 (Updated)",4,"Anxious",NA,"In",NA,NA,"IJHKGAFBECD",NA,NA,"B (MDot First)",1,231,"SS1","SS1",4,"V","Valence","xyoebq",1,"continue","",4756,4740,4756,4756,4740,4756,1,4756,0,0,NA,"Click To Continue","Continue Button",1,"object-25","V","CFD-WF-017-003-S.jpeg",NA,"SUPTM96648"
"30",1689003434858,"10/07/2023 15:37:14",1688989034858,-4,"10/07/2023 07:37:14",137495,33,"task-yv6i",NA,30599323,9084322,NA,"complete",NA,NA,"computer","Desktop or Laptop","Windows 10","Chrome 114.0.0.0","1370x703","1366x699",NA,NA,NA,"JV Task P3 (Updated)",4,"Anxious",NA,"In",NA,NA,"IJHKGAFBECD",NA,NA,"B (MDot First)",1,231,"SS1","SS1",4,"V","Valence","xyoebq",1,"response","41",3193,4740,4756,3193,4740,4756,1,3193,1563,0,NA,"Slider","J",3,"object-27","V","CFD-WF-017-003-S.jpeg",NA,"SUPTM96648"
"31",1689003435806,"10/07/2023 15:37:15",1688989035806,-4,"10/07/2023 07:37:15",137495,33,"task-yv6i",NA,30599323,9084322,NA,"complete",NA,NA,"computer","Desktop or Laptop","Windows 10","Chrome 114.0.0.0","1370x703","1366x699",NA,NA,NA,"JV Task P3 (Updated)",4,"Anxious",NA,"In",NA,NA,"IJHKGAFBECD",NA,NA,"B (MDot First)",1,231,"SS1","SS1",4,"V","Fixation","68owkj",2,"continue","",965,965,965,965,965,965,1,965,0,0,NA,"Fixation Timing","Fixation",1,"object-21","V","CFD-WF-017-003-S.jpeg",NA,"SUPTM96648"
"32",1689003481347,"10/07/2023 15:38:01",1688989081347,-4,"10/07/2023 07:38:01",137495,33,"task-yv6i",NA,30599323,9084322,NA,"complete",NA,NA,"computer","Desktop or Laptop","Windows 10","Chrome 114.0.0.0","1370x703","1366x699",NA,NA,NA,"JV Task P3 (Updated)",4,"Anxious",NA,"In",NA,NA,"IJHKGAFBECD",NA,NA,"B (MDot First)",1,231,"SS1","SS1",5,"V","Valence","xyoebq",1,"continue","",3921,3909,3921,3921,3909,3921,1,3921,0,0,NA,"Click To Continue","Continue Button",1,"object-25","V","CFD-WM-025-002-N.jpg",NA,"SUPTM96648"
"33",1689003481353,"10/07/2023 15:38:01",1688989081353,-4,"10/07/2023 07:38:01",137495,33,"task-yv6i",NA,30599323,9084322,NA,"complete",NA,NA,"computer","Desktop or Laptop","Windows 10","Chrome 114.0.0.0","1370x703","1366x699",NA,NA,NA,"JV Task P3 (Updated)",4,"Anxious",NA,"In",NA,NA,"IJHKGAFBECD",NA,NA,"B (MDot First)",1,231,"SS1","SS1",5,"V","Valence","xyoebq",1,"response","36",2528,3909,3926,2528,3909,3926,1,2528,1398,0,NA,"Slider","J",3,"object-27","V","CFD-WM-025-002-N.jpg",NA,"SUPTM96648"
"34",1689003482299,"10/07/2023 15:38:02",1688989082299,-4,"10/07/2023 07:38:02",137495,33,"task-yv6i",NA,30599323,9084322,NA,"complete",NA,NA,"computer","Desktop or Laptop","Windows 10","Chrome 114.0.0.0","1370x703","1366x699",NA,NA,NA,"JV Task P3 (Updated)",4,"Anxious",NA,"In",NA,NA,"IJHKGAFBECD",NA,NA,"B (MDot First)",1,231,"SS1","SS1",5,"V","Fixation","68owkj",2,"continue","",965,965,965,965,965,965,1,965,0,0,NA,"Fixation Timing","Fixation",1,"object-21","V","CFD-WM-025-002-N.jpg",NA,"SUPTM96648"
"35",1689003497954,"10/07/2023 15:38:17",1688989097954,-4,"10/07/2023 07:38:17",137495,33,"task-yv6i",NA,30599323,9084322,NA,"complete",NA,NA,"computer","Desktop or Laptop","Windows 10","Chrome 114.0.0.0","1370x703","1366x699",NA,NA,NA,"JV Task P3 (Updated)",4,"Anxious",NA,"In",NA,NA,"IJHKGAFBECD",NA,NA,"B (MDot First)",1,231,"SS1","SS1",7,"J","Judginess","y8ii7g",1,"continue","",15652,15636,15652,15652,15636,15652,1,15652,0,0,NA,"Click To Continue","Continue Button",1,"object-14","J","CFD-BM-028-002-H.jpeg",NA,"SUPTM96648"
"36",1689003497961,"10/07/2023 15:38:17",1688989097961,-4,"10/07/2023 07:38:17",137495,33,"task-yv6i",NA,30599323,9084322,NA,"complete",NA,NA,"computer","Desktop or Laptop","Windows 10","Chrome 114.0.0.0","1370x703","1366x699",NA,NA,NA,"JV Task P3 (Updated)",4,"Anxious",NA,"In",NA,NA,"IJHKGAFBECD",NA,NA,"B (MDot First)",1,231,"SS1","SS1",7,"J","Judginess","y8ii7g",1,"response","33",6105,15636,15652,6105,15636,15652,1,6105,9547,0,NA,"Slider","J",3,"object-18","J","CFD-BM-028-002-H.jpeg",NA,"SUPTM96648"
"37",1689003498901,"10/07/2023 15:38:18",1688989098901,-4,"10/07/2023 07:38:18",137495,33,"task-yv6i",NA,30599323,9084322,NA,"complete",NA,NA,"computer","Desktop or Laptop","Windows 10","Chrome 114.0.0.0","1370x703","1366x699",NA,NA,NA,"JV Task P3 (Updated)",4,"Anxious",NA,"In",NA,NA,"IJHKGAFBECD",NA,NA,"B (MDot First)",1,231,"SS1","SS1",7,"J","Fixation","w9zir9",2,"continue","",965,965,965,965,965,965,1,965,0,0,NA,"Fixation Timing","Fixation",1,"object-65","J","CFD-BM-028-002-H.jpeg",NA,"SUPTM96648"
"38",1689003512299,"10/07/2023 15:38:32",1688989112299,-4,"10/07/2023 07:38:32",137495,33,"task-yv6i",NA,30599323,9084322,NA,"complete",NA,NA,"computer","Desktop or Laptop","Windows 10","Chrome 114.0.0.0","1370x703","1366x699",NA,NA,NA,"JV Task P3 (Updated)",4,"Anxious",NA,"In",NA,NA,"IJHKGAFBECD",NA,NA,"B (MDot First)",1,231,"SS1","SS1",8,"J","Judginess","y8ii7g",1,"continue","",13398,13391,13398,13398,13391,13398,1,13398,0,0,NA,"Click To Continue","Continue Button",1,"object-14","J","CFD-WF-011-002-H.jpeg",NA,"SUPTM96648"
"39",1689003512303,"10/07/2023 15:38:32",1688989112303,-4,"10/07/2023 07:38:32",137495,33,"task-yv6i",NA,30599323,9084322,NA,"complete",NA,NA,"computer","Desktop or Laptop","Windows 10","Chrome 114.0.0.0","1370x703","1366x699",NA,NA,NA,"JV Task P3 (Updated)",4,"Anxious",NA,"In",NA,NA,"IJHKGAFBECD",NA,NA,"B (MDot First)",1,231,"SS1","SS1",8,"J","Judginess","y8ii7g",1,"response","63",8434,13391,13402,8434,13391,13402,1,8434,4968,0,NA,"Slider","J",3,"object-18","J","CFD-WF-011-002-H.jpeg",NA,"SUPTM96648"
"40",1689003513256,"10/07/2023 15:38:33",1688989113256,-4,"10/07/2023 07:38:33",137495,33,"task-yv6i",NA,30599323,9084322,NA,"complete",NA,NA,"computer","Desktop or Laptop","Windows 10","Chrome 114.0.0.0","1370x703","1366x699",NA,NA,NA,"JV Task P3 (Updated)",4,"Anxious",NA,"In",NA,NA,"IJHKGAFBECD",NA,NA,"B (MDot First)",1,231,"SS1","SS1",8,"J","Fixation","w9zir9",2,"continue","",965,965,965,965,965,965,1,965,0,0,NA,"Fixation Timing","Fixation",1,"object-65","J","CFD-WF-011-002-H.jpeg",NA,"SUPTM96648"
"41",1689003516757,"10/07/2023 15:38:36",1688989116757,-4,"10/07/2023 07:38:36",137495,33,"task-yv6i",NA,30599323,9084322,NA,"complete",NA,NA,"computer","Desktop or Laptop","Windows 10","Chrome 114.0.0.0","1370x703","1366x699",NA,NA,NA,"JV Task P3 (Updated)",4,"Anxious",NA,"In",NA,NA,"IJHKGAFBECD",NA,NA,"B (MDot First)",1,231,"SS1","SS1",6,"V","Valence","xyoebq",1,"continue","",3500,3493,3500,3500,3493,3500,1,3500,0,0,NA,"Click To Continue","Continue Button",1,"object-25","V","CFD-WM-015-002-S.jpeg",NA,"SUPTM96648"
"42",1689003516758,"10/07/2023 15:38:36",1688989116758,-4,"10/07/2023 07:38:36",137495,33,"task-yv6i",NA,30599323,9084322,NA,"complete",NA,NA,"computer","Desktop or Laptop","Windows 10","Chrome 114.0.0.0","1370x703","1366x699",NA,NA,NA,"JV Task P3 (Updated)",4,"Anxious",NA,"In",NA,NA,"IJHKGAFBECD",NA,NA,"B (MDot First)",1,231,"SS1","SS1",6,"V","Valence","xyoebq",1,"response","43",1397,3493,3501,1397,3493,3501,1,1397,2104,0,NA,"Slider","J",3,"object-27","V","CFD-WM-015-002-S.jpeg",NA,"SUPTM96648"
"43",1689003517715,"10/07/2023 15:38:37",1688989117715,-4,"10/07/2023 07:38:37",137495,33,"task-yv6i",NA,30599323,9084322,NA,"complete",NA,NA,"computer","Desktop or Laptop","Windows 10","Chrome 114.0.0.0","1370x703","1366x699",NA,NA,NA,"JV Task P3 (Updated)",4,"Anxious",NA,"In",NA,NA,"IJHKGAFBECD",NA,NA,"B (MDot First)",1,231,"SS1","SS1",6,"V","Fixation","68owkj",2,"continue","",965,965,965,965,965,965,1,965,0,0,NA,"Fixation Timing","Fixation",1,"object-21","V","CFD-WM-015-002-S.jpeg",NA,"SUPTM96648"
"44",1689003521066,"10/07/2023 15:38:41",1688989121066,-4,"10/07/2023 07:38:41",137495,33,"task-yv6i",NA,30599323,9084322,NA,"complete",NA,NA,"computer","Desktop or Laptop","Windows 10","Chrome 114.0.0.0","1370x703","1366x699",NA,NA,NA,"JV Task P3 (Updated)",4,"Anxious",NA,"In",NA,NA,"IJHKGAFBECD",NA,NA,"B (MDot First)",1,231,"SS1","SS1",9,"J","Judginess","y8ii7g",1,"continue","",3351,3343,3351,3351,3343,3351,1,3351,0,0,NA,"Click To Continue","Continue Button",1,"object-14","J","CFD-MM-308-001-S.jpeg",NA,"SUPTM96648"
"45",1689003521067,"10/07/2023 15:38:41",1688989121067,-4,"10/07/2023 07:38:41",137495,33,"task-yv6i",NA,30599323,9084322,NA,"complete",NA,NA,"computer","Desktop or Laptop","Windows 10","Chrome 114.0.0.0","1370x703","1366x699",NA,NA,NA,"JV Task P3 (Updated)",4,"Anxious",NA,"In",NA,NA,"IJHKGAFBECD",NA,NA,"B (MDot First)",1,231,"SS1","SS1",9,"J","Judginess","y8ii7g",1,"response","34",2162,3343,3352,2162,3343,3352,1,2162,1190,0,NA,"Slider","J",3,"object-18","J","CFD-MM-308-001-S.jpeg",NA,"SUPTM96648"
"46",1689003522023,"10/07/2023 15:38:42",1688989122023,-4,"10/07/2023 07:38:42",137495,33,"task-yv6i",NA,30599323,9084322,NA,"complete",NA,NA,"computer","Desktop or Laptop","Windows 10","Chrome 114.0.0.0","1370x703","1366x699",NA,NA,NA,"JV Task P3 (Updated)",4,"Anxious",NA,"In",NA,NA,"IJHKGAFBECD",NA,NA,"B (MDot First)",1,231,"SS1","SS1",9,"J","Fixation","w9zir9",2,"continue","",965,965,965,965,965,965,1,965,0,0,NA,"Fixation Timing","Fixation",1,"object-65","J","CFD-MM-308-001-S.jpeg",NA,"SUPTM96648"
"47",1689003524833,"10/07/2023 15:38:44",1688989124833,-4,"10/07/2023 07:38:44",137495,33,"task-yv6i",NA,30599323,9084322,NA,"complete",NA,NA,"computer","Desktop or Laptop","Windows 10","Chrome 114.0.0.0","1370x703","1366x699",NA,NA,NA,"JV Task P3 (Updated)",4,"Anxious",NA,"In",NA,NA,"IJHKGAFBECD",NA,NA,"B (MDot First)",1,231,"SS1","SS1",7,"V","Valence","xyoebq",1,"continue","",2810,2795,2810,2810,2795,2810,1,2810,0,0,NA,"Click To Continue","Continue Button",1,"object-25","V","CFD-BM-045-004-S.jpeg",NA,"SUPTM96648"
"48",1689003524840,"10/07/2023 15:38:44",1688989124840,-4,"10/07/2023 07:38:44",137495,33,"task-yv6i",NA,30599323,9084322,NA,"complete",NA,NA,"computer","Desktop or Laptop","Windows 10","Chrome 114.0.0.0","1370x703","1366x699",NA,NA,NA,"JV Task P3 (Updated)",4,"Anxious",NA,"In",NA,NA,"IJHKGAFBECD",NA,NA,"B (MDot First)",1,231,"SS1","SS1",7,"V","Valence","xyoebq",1,"response","35",1680,2795,2812,1680,2795,2812,1,1680,1132,0,NA,"Slider","J",3,"object-27","V","CFD-BM-045-004-S.jpeg",NA,"SUPTM96648"
"49",1689003525783,"10/07/2023 15:38:45",1688989125783,-4,"10/07/2023 07:38:45",137495,33,"task-yv6i",NA,30599323,9084322,NA,"complete",NA,NA,"computer","Desktop or Laptop","Windows 10","Chrome 114.0.0.0","1370x703","1366x699",NA,NA,NA,"JV Task P3 (Updated)",4,"Anxious",NA,"In",NA,NA,"IJHKGAFBECD",NA,NA,"B (MDot First)",1,231,"SS1","SS1",7,"V","Fixation","68owkj",2,"continue","",965,965,965,965,965,965,1,965,0,0,NA,"Fixation Timing","Fixation",1,"object-21","V","CFD-BM-045-004-S.jpeg",NA,"SUPTM96648"
"50",1689003530098,"10/07/2023 15:38:50",1688989130098,-4,"10/07/2023 07:38:50",137495,33,"task-yv6i",NA,30599323,9084322,NA,"complete",NA,NA,"computer","Desktop or Laptop","Windows 10","Chrome 114.0.0.0","1370x703","1366x699",NA,NA,NA,"JV Task P3 (Updated)",4,"Anxious",NA,"In",NA,NA,"IJHKGAFBECD",NA,NA,"B (MDot First)",1,231,"SS1","SS1",8,"V","Valence","xyoebq",1,"continue","",4315,4308,4315,4315,4308,4315,1,4315,0,0,NA,"Click To Continue","Continue Button",1,"object-25","V","CFD-WF-011-002-N.jpg",NA,"SUPTM96648"
"51",1689003530098,"10/07/2023 15:38:50",1688989130098,-4,"10/07/2023 07:38:50",137495,33,"task-yv6i",NA,30599323,9084322,NA,"complete",NA,NA,"computer","Desktop or Laptop","Windows 10","Chrome 114.0.0.0","1370x703","1366x699",NA,NA,NA,"JV Task P3 (Updated)",4,"Anxious",NA,"In",NA,NA,"IJHKGAFBECD",NA,NA,"B (MDot First)",1,231,"SS1","SS1",8,"V","Valence","xyoebq",1,"response","37",2544,4308,4316,2544,4308,4316,1,2544,1772,0,NA,"Slider","J",3,"object-27","V","CFD-WF-011-002-N.jpg",NA,"SUPTM96648"
"52",1689003531055,"10/07/2023 15:38:51",1688989131055,-4,"10/07/2023 07:38:51",137495,33,"task-yv6i",NA,30599323,9084322,NA,"complete",NA,NA,"computer","Desktop or Laptop","Windows 10","Chrome 114.0.0.0","1370x703","1366x699",NA,NA,NA,"JV Task P3 (Updated)",4,"Anxious",NA,"In",NA,NA,"IJHKGAFBECD",NA,NA,"B (MDot First)",1,231,"SS1","SS1",8,"V","Fixation","68owkj",2,"continue","",965,965,965,965,965,965,1,965,0,0,NA,"Fixation Timing","Fixation",1,"object-21","V","CFD-WF-011-002-N.jpg",NA,"SUPTM96648"
"53",1689003534283,"10/07/2023 15:38:54",1688989134283,-4,"10/07/2023 07:38:54",137495,33,"task-yv6i",NA,30599323,9084322,NA,"complete",NA,NA,"computer","Desktop or Laptop","Windows 10","Chrome 114.0.0.0","1370x703","1366x699",NA,NA,NA,"JV Task P3 (Updated)",4,"Anxious",NA,"In",NA,NA,"IJHKGAFBECD",NA,NA,"B (MDot First)",1,231,"SS1","SS1",9,"V","Valence","xyoebq",1,"continue","",3227,3210,3227,3227,3210,3227,1,3227,0,0,NA,"Click To Continue","Continue Button",1,"object-25","V","CFD-WF-035-024-S.jpeg",NA,"SUPTM96648"
"54",1689003534284,"10/07/2023 15:38:54",1688989134284,-4,"10/07/2023 07:38:54",137495,33,"task-yv6i",NA,30599323,9084322,NA,"complete",NA,NA,"computer","Desktop or Laptop","Windows 10","Chrome 114.0.0.0","1370x703","1366x699",NA,NA,NA,"JV Task P3 (Updated)",4,"Anxious",NA,"In",NA,NA,"IJHKGAFBECD",NA,NA,"B (MDot First)",1,231,"SS1","SS1",9,"V","Valence","xyoebq",1,"response","34",1963,3210,3227,1963,3210,3227,1,1963,1264,0,NA,"Slider","J",3,"object-27","V","CFD-WF-035-024-S.jpeg",NA,"SUPTM96648"
"55",1689003535231,"10/07/2023 15:38:55",1688989135231,-4,"10/07/2023 07:38:55",137495,33,"task-yv6i",NA,30599323,9084322,NA,"complete",NA,NA,"computer","Desktop or Laptop","Windows 10","Chrome 114.0.0.0","1370x703","1366x699",NA,NA,NA,"JV Task P3 (Updated)",4,"Anxious",NA,"In",NA,NA,"IJHKGAFBECD",NA,NA,"B (MDot First)",1,231,"SS1","SS1",9,"V","Fixation","68owkj",2,"continue","",965,965,965,965,965,965,1,965,0,0,NA,"Fixation Timing","Fixation",1,"object-21","V","CFD-WF-035-024-S.jpeg",NA,"SUPTM96648"
"56",1689003555850,"10/07/2023 15:39:15",1688989155850,-4,"10/07/2023 07:39:15",137495,33,"task-yv6i",NA,30599323,9084322,NA,"complete",NA,NA,"computer","Desktop or Laptop","Windows 10","Chrome 114.0.0.0","1370x703","1366x699",NA,NA,NA,"JV Task P3 (Updated)",4,"Anxious",NA,"In",NA,NA,"IJHKGAFBECD",NA,NA,"B (MDot First)",1,231,"SS1","SS1",10,"J","Judginess","y8ii7g",1,"continue","",3136,3127,3136,3136,3127,3136,1,3136,0,0,NA,"Click To Continue","Continue Button",1,"object-14","J","CFD-WM-019-003-S.jpeg",NA,"SUPTM96648"
"57",1689003555853,"10/07/2023 15:39:15",1688989155853,-4,"10/07/2023 07:39:15",137495,33,"task-yv6i",NA,30599323,9084322,NA,"complete",NA,NA,"computer","Desktop or Laptop","Windows 10","Chrome 114.0.0.0","1370x703","1366x699",NA,NA,NA,"JV Task P3 (Updated)",4,"Anxious",NA,"In",NA,NA,"IJHKGAFBECD",NA,NA,"B (MDot First)",1,231,"SS1","SS1",10,"J","Judginess","y8ii7g",1,"response","39",1963,3127,3139,1963,3127,3139,1,1963,1176,0,NA,"Slider","J",3,"object-18","J","CFD-WM-019-003-S.jpeg",NA,"SUPTM96648"
"58",1689003556806,"10/07/2023 15:39:16",1688989156806,-4,"10/07/2023 07:39:16",137495,33,"task-yv6i",NA,30599323,9084322,NA,"complete",NA,NA,"computer","Desktop or Laptop","Windows 10","Chrome 114.0.0.0","1370x703","1366x699",NA,NA,NA,"JV Task P3 (Updated)",4,"Anxious",NA,"In",NA,NA,"IJHKGAFBECD",NA,NA,"B (MDot First)",1,231,"SS1","SS1",10,"J","Fixation","w9zir9",2,"continue","",965,965,965,965,965,965,1,965,0,0,NA,"Fixation Timing","Fixation",1,"object-65","J","CFD-WM-019-003-S.jpeg",NA,"SUPTM96648"
"59",1689003584058,"10/07/2023 15:39:44",1688989184058,-4,"10/07/2023 07:39:44",137495,33,"task-yv6i",NA,30599323,9084322,NA,"complete",NA,NA,"computer","Desktop or Laptop","Windows 10","Chrome 114.0.0.0","1370x703","1366x699",NA,NA,NA,"JV Task P3 (Updated)",4,"Anxious",NA,"In",NA,NA,"IJHKGAFBECD",NA,NA,"B (MDot First)",1,231,"SS1","SS1",10,"V","Valence","xyoebq",1,"continue","",3764,3760,3764,3764,3760,3764,1,3764,0,0,NA,"Click To Continue","Continue Button",1,"object-25","V","CFD-WM-019-003-N.jpg",NA,"SUPTM96648"
"60",1689003584062,"10/07/2023 15:39:44",1688989184062,-4,"10/07/2023 07:39:44",137495,33,"task-yv6i",NA,30599323,9084322,NA,"complete",NA,NA,"computer","Desktop or Laptop","Windows 10","Chrome 114.0.0.0","1370x703","1366x699",NA,NA,NA,"JV Task P3 (Updated)",4,"Anxious",NA,"In",NA,NA,"IJHKGAFBECD",NA,NA,"B (MDot First)",1,231,"SS1","SS1",10,"V","Valence","xyoebq",1,"response","37",2628,3760,3769,2628,3760,3769,1,2628,1141,0,NA,"Slider","J",3,"object-27","V","CFD-WM-019-003-N.jpg",NA,"SUPTM96648"
"61",1689003585018,"10/07/2023 15:39:45",1688989185018,-4,"10/07/2023 07:39:45",137495,33,"task-yv6i",NA,30599323,9084322,NA,"complete",NA,NA,"computer","Desktop or Laptop","Windows 10","Chrome 114.0.0.0","1370x703","1366x699",NA,NA,NA,"JV Task P3 (Updated)",4,"Anxious",NA,"In",NA,NA,"IJHKGAFBECD",NA,NA,"B (MDot First)",1,231,"SS1","SS1",10,"V","Fixation","68owkj",2,"continue","",964,964,964,964,964,964,1,964,0,0,NA,"Fixation Timing","Fixation",1,"object-21","V","CFD-WM-019-003-N.jpg",NA,"SUPTM96648"
"62",1689003591866,"10/07/2023 15:39:51",1688989191866,-4,"10/07/2023 07:39:51",137495,33,"task-yv6i",NA,30599323,9084322,NA,"complete",NA,NA,"computer","Desktop or Laptop","Windows 10","Chrome 114.0.0.0","1370x703","1366x699",NA,NA,NA,"JV Task P3 (Updated)",4,"Anxious",NA,"In",NA,NA,"IJHKGAFBECD",NA,NA,"B (MDot First)",1,231,"SS1","SS1",11,"V","Valence","xyoebq",1,"continue","",6849,6837,6849,6849,6837,6849,1,6849,0,0,NA,"Click To Continue","Continue Button",1,"object-25","V","CFD-WM-015-002-S.jpeg",NA,"SUPTM96648"
"63",1689003591867,"10/07/2023 15:39:51",1688989191867,-4,"10/07/2023 07:39:51",137495,33,"task-yv6i",NA,30599323,9084322,NA,"complete",NA,NA,"computer","Desktop or Laptop","Windows 10","Chrome 114.0.0.0","1370x703","1366x699",NA,NA,NA,"JV Task P3 (Updated)",4,"Anxious",NA,"In",NA,NA,"IJHKGAFBECD",NA,NA,"B (MDot First)",1,231,"SS1","SS1",11,"V","Valence","xyoebq",1,"response","36",5190,6837,6849,5190,6837,6849,1,5190,1659,0,NA,"Slider","J",3,"object-27","V","CFD-WM-015-002-S.jpeg",NA,"SUPTM96648"
"64",1689003592819,"10/07/2023 15:39:52",1688989192819,-4,"10/07/2023 07:39:52",137495,33,"task-yv6i",NA,30599323,9084322,NA,"complete",NA,NA,"computer","Desktop or Laptop","Windows 10","Chrome 114.0.0.0","1370x703","1366x699",NA,NA,NA,"JV Task P3 (Updated)",4,"Anxious",NA,"In",NA,NA,"IJHKGAFBECD",NA,NA,"B (MDot First)",1,231,"SS1","SS1",11,"V","Fixation","68owkj",2,"continue","",965,965,965,965,965,965,1,965,0,0,NA,"Fixation Timing","Fixation",1,"object-21","V","CFD-WM-015-002-S.jpeg",NA,"SUPTM96648"
"65",1689003597540,"10/07/2023 15:39:57",1688989197540,-4,"10/07/2023 07:39:57",137495,33,"task-yv6i",NA,30599323,9084322,NA,"complete",NA,NA,"computer","Desktop or Laptop","Windows 10","Chrome 114.0.0.0","1370x703","1366x699",NA,NA,NA,"JV Task P3 (Updated)",4,"Anxious",NA,"In",NA,NA,"IJHKGAFBECD",NA,NA,"B (MDot First)",1,231,"SS1","SS1",11,"J","Judginess","y8ii7g",1,"continue","",4720,4707,4720,4720,4707,4720,1,4720,0,0,NA,"Click To Continue","Continue Button",1,"object-14","J","CFD-WF-039-025-H.jpeg",NA,"SUPTM96648"
"66",1689003597548,"10/07/2023 15:39:57",1688989197548,-4,"10/07/2023 07:39:57",137495,33,"task-yv6i",NA,30599323,9084322,NA,"complete",NA,NA,"computer","Desktop or Laptop","Windows 10","Chrome 114.0.0.0","1370x703","1366x699",NA,NA,NA,"JV Task P3 (Updated)",4,"Anxious",NA,"In",NA,NA,"IJHKGAFBECD",NA,NA,"B (MDot First)",1,231,"SS1","SS1",11,"J","Judginess","y8ii7g",1,"response","39",3343,4707,4724,3343,4707,4724,1,3343,1381,0,NA,"Slider","J",3,"object-18","J","CFD-WF-039-025-H.jpeg",NA,"SUPTM96648"
"67",1689003598492,"10/07/2023 15:39:58",1688989198492,-4,"10/07/2023 07:39:58",137495,33,"task-yv6i",NA,30599323,9084322,NA,"complete",NA,NA,"computer","Desktop or Laptop","Windows 10","Chrome 114.0.0.0","1370x703","1366x699",NA,NA,NA,"JV Task P3 (Updated)",4,"Anxious",NA,"In",NA,NA,"IJHKGAFBECD",NA,NA,"B (MDot First)",1,231,"SS1","SS1",11,"J","Fixation","w9zir9",2,"continue","",965,965,965,965,965,965,1,965,0,0,NA,"Fixation Timing","Fixation",1,"object-65","J","CFD-WF-039-025-H.jpeg",NA,"SUPTM96648"
"68",1689003602416,"10/07/2023 15:40:02",1688989202416,-4,"10/07/2023 07:40:02",137495,33,"task-yv6i",NA,30599323,9084322,NA,"complete",NA,NA,"computer","Desktop or Laptop","Windows 10","Chrome 114.0.0.0","1370x703","1366x699",NA,NA,NA,"JV Task P3 (Updated)",4,"Anxious",NA,"In",NA,NA,"IJHKGAFBECD",NA,NA,"B (MDot First)",1,231,"SS1","SS1",12,"V","Valence","xyoebq",1,"continue","",3925,3909,3925,3925,3909,3925,1,3925,0,0,NA,"Click To Continue","Continue Button",1,"object-25","V","CFD-WM-031-003-H.jpeg",NA,"SUPTM96648"
"69",1689003602418,"10/07/2023 15:40:02",1688989202418,-4,"10/07/2023 07:40:02",137495,33,"task-yv6i",NA,30599323,9084322,NA,"complete",NA,NA,"computer","Desktop or Laptop","Windows 10","Chrome 114.0.0.0","1370x703","1366x699",NA,NA,NA,"JV Task P3 (Updated)",4,"Anxious",NA,"In",NA,NA,"IJHKGAFBECD",NA,NA,"B (MDot First)",1,231,"SS1","SS1",12,"V","Valence","xyoebq",1,"response","40",2695,3909,3926,2695,3909,3926,1,2695,1231,0,NA,"Slider","J",3,"object-27","V","CFD-WM-031-003-H.jpeg",NA,"SUPTM96648"
"70",1689003603371,"10/07/2023 15:40:03",1688989203371,-4,"10/07/2023 07:40:03",137495,33,"task-yv6i",NA,30599323,9084322,NA,"complete",NA,NA,"computer","Desktop or Laptop","Windows 10","Chrome 114.0.0.0","1370x703","1366x699",NA,NA,NA,"JV Task P3 (Updated)",4,"Anxious",NA,"In",NA,NA,"IJHKGAFBECD",NA,NA,"B (MDot First)",1,231,"SS1","SS1",12,"V","Fixation","68owkj",2,"continue","",965,965,965,965,965,965,1,965,0,0,NA,"Fixation Timing","Fixation",1,"object-21","V","CFD-WM-031-003-H.jpeg",NA,"SUPTM96648"
"71",1689003657307,"10/07/2023 15:40:57",1688989257307,-4,"10/07/2023 07:40:57",137495,33,"task-yv6i",NA,30599323,9084322,NA,"complete",NA,NA,"computer","Desktop or Laptop","Windows 10","Chrome 114.0.0.0","1370x703","1366x699",NA,NA,NA,"JV Task P3 (Updated)",4,"Anxious",NA,"In",NA,NA,"IJHKGAFBECD",NA,NA,"B (MDot First)",1,231,"SS1","SS1",12,"J","Judginess","y8ii7g",1,"continue","",5601,5589,5601,5601,5589,5601,1,5601,0,0,NA,"Click To Continue","Continue Button",1,"object-14","J","CFD-WF-015-006-N.jpg",NA,"SUPTM96648"
"72",1689003657314,"10/07/2023 15:40:57",1688989257314,-4,"10/07/2023 07:40:57",137495,33,"task-yv6i",NA,30599323,9084322,NA,"complete",NA,NA,"computer","Desktop or Laptop","Windows 10","Chrome 114.0.0.0","1370x703","1366x699",NA,NA,NA,"JV Task P3 (Updated)",4,"Anxious",NA,"In",NA,NA,"IJHKGAFBECD",NA,NA,"B (MDot First)",1,231,"SS1","SS1",12,"J","Judginess","y8ii7g",1,"response","36",2329,5589,5605,2329,5589,5605,1,2329,3276,0,NA,"Slider","J",3,"object-18","J","CFD-WF-015-006-N.jpg",NA,"SUPTM96648"
"73",1689003658261,"10/07/2023 15:40:58",1688989258261,-4,"10/07/2023 07:40:58",137495,33,"task-yv6i",NA,30599323,9084322,NA,"complete",NA,NA,"computer","Desktop or Laptop","Windows 10","Chrome 114.0.0.0","1370x703","1366x699",NA,NA,NA,"JV Task P3 (Updated)",4,"Anxious",NA,"In",NA,NA,"IJHKGAFBECD",NA,NA,"B (MDot First)",1,231,"SS1","SS1",12,"J","Fixation","w9zir9",2,"continue","",965,965,965,965,965,965,1,965,0,0,NA,"Fixation Timing","Fixation",1,"object-65","J","CFD-WF-015-006-N.jpg",NA,"SUPTM96648"
"74",1689003661676,"10/07/2023 15:41:01",1688989261676,-4,"10/07/2023 07:41:01",137495,33,"task-yv6i",NA,30599323,9084322,NA,"complete",NA,NA,"computer","Desktop or Laptop","Windows 10","Chrome 114.0.0.0","1370x703","1366x699",NA,NA,NA,"JV Task P3 (Updated)",4,"Anxious",NA,"In",NA,NA,"IJHKGAFBECD",NA,NA,"B (MDot First)",1,231,"SS1","SS1",13,"J","Judginess","y8ii7g",1,"continue","",3416,3410,3416,3416,3410,3416,1,3416,0,0,NA,"Click To Continue","Continue Button",1,"object-14","J","CFD-AM-225-102-S.jpeg",NA,"SUPTM96648"
"75",1689003661676,"10/07/2023 15:41:01",1688989261676,-4,"10/07/2023 07:41:01",137495,33,"task-yv6i",NA,30599323,9084322,NA,"complete",NA,NA,"computer","Desktop or Laptop","Windows 10","Chrome 114.0.0.0","1370x703","1366x699",NA,NA,NA,"JV Task P3 (Updated)",4,"Anxious",NA,"In",NA,NA,"IJHKGAFBECD",NA,NA,"B (MDot First)",1,231,"SS1","SS1",13,"J","Judginess","y8ii7g",1,"response","32",2097,3410,3416,2097,3410,3416,1,2097,1319,0,NA,"Slider","J",3,"object-18","J","CFD-AM-225-102-S.jpeg",NA,"SUPTM96648"
"76",1689003662635,"10/07/2023 15:41:02",1688989262635,-4,"10/07/2023 07:41:02",137495,33,"task-yv6i",NA,30599323,9084322,NA,"complete",NA,NA,"computer","Desktop or Laptop","Windows 10","Chrome 114.0.0.0","1370x703","1366x699",NA,NA,NA,"JV Task P3 (Updated)",4,"Anxious",NA,"In",NA,NA,"IJHKGAFBECD",NA,NA,"B (MDot First)",1,231,"SS1","SS1",13,"J","Fixation","w9zir9",2,"continue","",965,965,965,965,965,965,1,965,0,0,NA,"Fixation Timing","Fixation",1,"object-65","J","CFD-AM-225-102-S.jpeg",NA,"SUPTM96648"
"77",1689003669049,"10/07/2023 15:41:09",1688989269049,-4,"10/07/2023 07:41:09",137495,33,"task-yv6i",NA,30599323,9084322,NA,"complete",NA,NA,"computer","Desktop or Laptop","Windows 10","Chrome 114.0.0.0","1370x703","1366x699",NA,NA,NA,"JV Task P3 (Updated)",4,"Anxious",NA,"In",NA,NA,"IJHKGAFBECD",NA,NA,"B (MDot First)",1,231,"SS1","SS1",14,"J","Judginess","y8ii7g",1,"continue","",4168,4159,4168,4168,4159,4168,1,4168,0,0,NA,"Click To Continue","Continue Button",1,"object-14","J","CFD-BF-040-003-N.jpg",NA,"SUPTM96648"
"78",1689003669058,"10/07/2023 15:41:09",1688989269058,-4,"10/07/2023 07:41:09",137495,33,"task-yv6i",NA,30599323,9084322,NA,"complete",NA,NA,"computer","Desktop or Laptop","Windows 10","Chrome 114.0.0.0","1370x703","1366x699",NA,NA,NA,"JV Task P3 (Updated)",4,"Anxious",NA,"In",NA,NA,"IJHKGAFBECD",NA,NA,"B (MDot First)",1,231,"SS1","SS1",14,"J","Judginess","y8ii7g",1,"response","39",2612,4159,4176,2612,4159,4176,1,2612,1564,0,NA,"Slider","J",3,"object-18","J","CFD-BF-040-003-N.jpg",NA,"SUPTM96648"
"79",1689003670004,"10/07/2023 15:41:10",1688989270004,-4,"10/07/2023 07:41:10",137495,33,"task-yv6i",NA,30599323,9084322,NA,"complete",NA,NA,"computer","Desktop or Laptop","Windows 10","Chrome 114.0.0.0","1370x703","1366x699",NA,NA,NA,"JV Task P3 (Updated)",4,"Anxious",NA,"In",NA,NA,"IJHKGAFBECD",NA,NA,"B (MDot First)",1,231,"SS1","SS1",14,"J","Fixation","w9zir9",2,"continue","",965,965,965,965,965,965,1,965,0,0,NA,"Fixation Timing","Fixation",1,"object-65","J","CFD-BF-040-003-N.jpg",NA,"SUPTM96648"
"80",1689003672248,"10/07/2023 15:41:12",1688989272248,-4,"10/07/2023 07:41:12",137495,33,"task-yv6i",NA,30599323,9084322,NA,"complete",NA,NA,"computer","Desktop or Laptop","Windows 10","Chrome 114.0.0.0","1370x703","1366x699",NA,NA,NA,"JV Task P3 (Updated)",4,"Anxious",NA,"In",NA,NA,"IJHKGAFBECD",NA,NA,"B (MDot First)",1,231,"SS1","SS1",15,"J","Judginess","y8ii7g",1,"continue","",2243,2229,2243,2243,2229,2243,1,2243,0,0,NA,"Click To Continue","Continue Button",1,"object-14","J","CFD-WM-036-031-S.jpeg",NA,"SUPTM96648"
"81",1689003672249,"10/07/2023 15:41:12",1688989272249,-4,"10/07/2023 07:41:12",137495,33,"task-yv6i",NA,30599323,9084322,NA,"complete",NA,NA,"computer","Desktop or Laptop","Windows 10","Chrome 114.0.0.0","1370x703","1366x699",NA,NA,NA,"JV Task P3 (Updated)",4,"Anxious",NA,"In",NA,NA,"IJHKGAFBECD",NA,NA,"B (MDot First)",1,231,"SS1","SS1",15,"J","Judginess","y8ii7g",1,"response","37",1414,2229,2245,1414,2229,2245,1,1414,831,0,NA,"Slider","J",3,"object-18","J","CFD-WM-036-031-S.jpeg",NA,"SUPTM96648"
"82",1689003673198,"10/07/2023 15:41:13",1688989273198,-4,"10/07/2023 07:41:13",137495,33,"task-yv6i",NA,30599323,9084322,NA,"complete",NA,NA,"computer","Desktop or Laptop","Windows 10","Chrome 114.0.0.0","1370x703","1366x699",NA,NA,NA,"JV Task P3 (Updated)",4,"Anxious",NA,"In",NA,NA,"IJHKGAFBECD",NA,NA,"B (MDot First)",1,231,"SS1","SS1",15,"J","Fixation","w9zir9",2,"continue","",965,965,965,965,965,965,1,965,0,0,NA,"Fixation Timing","Fixation",1,"object-65","J","CFD-WM-036-031-S.jpeg",NA,"SUPTM96648"
"83",1689003676449,"10/07/2023 15:41:16",1688989276449,-4,"10/07/2023 07:41:16",137495,33,"task-yv6i",NA,30599323,9084322,NA,"complete",NA,NA,"computer","Desktop or Laptop","Windows 10","Chrome 114.0.0.0","1370x703","1366x699",NA,NA,NA,"JV Task P3 (Updated)",4,"Anxious",NA,"In",NA,NA,"IJHKGAFBECD",NA,NA,"B (MDot First)",1,231,"SS1","SS1",13,"V","Valence","xyoebq",1,"continue","",3243,3227,3243,3243,3227,3243,1,3243,0,0,NA,"Click To Continue","Continue Button",1,"object-25","V","CFD-BM-045-004-N.jpg",NA,"SUPTM96648"
"84",1689003676451,"10/07/2023 15:41:16",1688989276451,-4,"10/07/2023 07:41:16",137495,33,"task-yv6i",NA,30599323,9084322,NA,"complete",NA,NA,"computer","Desktop or Laptop","Windows 10","Chrome 114.0.0.0","1370x703","1366x699",NA,NA,NA,"JV Task P3 (Updated)",4,"Anxious",NA,"In",NA,NA,"IJHKGAFBECD",NA,NA,"B (MDot First)",1,231,"SS1","SS1",13,"V","Valence","xyoebq",1,"response","40",1480,3227,3243,1480,3227,3243,1,1480,1763,0,NA,"Slider","J",3,"object-27","V","CFD-BM-045-004-N.jpg",NA,"SUPTM96648"
"85",1689003677421,"10/07/2023 15:41:17",1688989277421,-4,"10/07/2023 07:41:17",137495,33,"task-yv6i",NA,30599323,9084322,NA,"complete",NA,NA,"computer","Desktop or Laptop","Windows 10","Chrome 114.0.0.0","1370x703","1366x699",NA,NA,NA,"JV Task P3 (Updated)",4,"Anxious",NA,"In",NA,NA,"IJHKGAFBECD",NA,NA,"B (MDot First)",1,231,"SS1","SS1",13,"V","Fixation","68owkj",2,"continue","",981,981,981,981,981,981,1,981,0,0,NA,"Fixation Timing","Fixation",1,"object-21","V","CFD-BM-045-004-N.jpg",NA,"SUPTM96648"
"86",1689003680044,"10/07/2023 15:41:20",1688989280044,-4,"10/07/2023 07:41:20",137495,33,"task-yv6i",NA,30599323,9084322,NA,"complete",NA,NA,"computer","Desktop or Laptop","Windows 10","Chrome 114.0.0.0","1370x703","1366x699",NA,NA,NA,"JV Task P3 (Updated)",4,"Anxious",NA,"In",NA,NA,"IJHKGAFBECD",NA,NA,"B (MDot First)",1,231,"SS1","SS1",14,"V","Valence","xyoebq",1,"continue","",2627,2612,2627,2627,2612,2627,1,2627,0,0,NA,"Click To Continue","Continue Button",1,"object-25","V","CFD-MM-308-001-H.jpeg",NA,"SUPTM96648"
"87",1689003680056,"10/07/2023 15:41:20",1688989280056,-4,"10/07/2023 07:41:20",137495,33,"task-yv6i",NA,30599323,9084322,NA,"complete",NA,NA,"computer","Desktop or Laptop","Windows 10","Chrome 114.0.0.0","1370x703","1366x699",NA,NA,NA,"JV Task P3 (Updated)",4,"Anxious",NA,"In",NA,NA,"IJHKGAFBECD",NA,NA,"B (MDot First)",1,231,"SS1","SS1",14,"V","Valence","xyoebq",1,"response","66",1547,2612,2627,1547,2612,2627,1,1547,1080,0,NA,"Slider","J",3,"object-27","V","CFD-MM-308-001-H.jpeg",NA,"SUPTM96648"
"88",1689003680983,"10/07/2023 15:41:20",1688989280983,-4,"10/07/2023 07:41:20",137495,33,"task-yv6i",NA,30599323,9084322,NA,"complete",NA,NA,"computer","Desktop or Laptop","Windows 10","Chrome 114.0.0.0","1370x703","1366x699",NA,NA,NA,"JV Task P3 (Updated)",4,"Anxious",NA,"In",NA,NA,"IJHKGAFBECD",NA,NA,"B (MDot First)",1,231,"SS1","SS1",14,"V","Fixation","68owkj",2,"continue","",965,965,965,965,965,965,1,965,0,0,NA,"Fixation Timing","Fixation",1,"object-21","V","CFD-MM-308-001-H.jpeg",NA,"SUPTM96648"
"89",1689003684071,"10/07/2023 15:41:24",1688989284071,-4,"10/07/2023 07:41:24",137495,33,"task-yv6i",NA,30599323,9084322,NA,"complete",NA,NA,"computer","Desktop or Laptop","Windows 10","Chrome 114.0.0.0","1370x703","1366x699",NA,NA,NA,"JV Task P3 (Updated)",4,"Anxious",NA,"In",NA,NA,"IJHKGAFBECD",NA,NA,"B (MDot First)",1,231,"SS1","SS1",16,"J","Judginess","y8ii7g",1,"continue","",3061,3044,3061,3061,3044,3061,1,3061,0,0,NA,"Click To Continue","Continue Button",1,"object-14","J","CFD-AF-211-066-S.jpeg",NA,"SUPTM96648"
"90",1689003684072,"10/07/2023 15:41:24",1688989284072,-4,"10/07/2023 07:41:24",137495,33,"task-yv6i",NA,30599323,9084322,NA,"complete",NA,NA,"computer","Desktop or Laptop","Windows 10","Chrome 114.0.0.0","1370x703","1366x699",NA,NA,NA,"JV Task P3 (Updated)",4,"Anxious",NA,"In",NA,NA,"IJHKGAFBECD",NA,NA,"B (MDot First)",1,231,"SS1","SS1",16,"J","Judginess","y8ii7g",1,"response","45",2195,3044,3061,2195,3044,3061,1,2195,866,0,NA,"Slider","J",3,"object-18","J","CFD-AF-211-066-S.jpeg",NA,"SUPTM96648"
"91",1689003684992,"10/07/2023 15:41:24",1688989284992,-4,"10/07/2023 07:41:24",137495,33,"task-yv6i",NA,30599323,9084322,NA,"complete",NA,NA,"computer","Desktop or Laptop","Windows 10","Chrome 114.0.0.0","1370x703","1366x699",NA,NA,NA,"JV Task P3 (Updated)",4,"Anxious",NA,"In",NA,NA,"IJHKGAFBECD",NA,NA,"B (MDot First)",1,231,"SS1","SS1",16,"J","Fixation","w9zir9",2,"continue","",964,964,964,964,964,964,1,964,0,0,NA,"Fixation Timing","Fixation",1,"object-65","J","CFD-AF-211-066-S.jpeg",NA,"SUPTM96648"
"92",1689003716417,"10/07/2023 15:41:56",1688989316417,-4,"10/07/2023 07:41:56",137495,33,"task-yv6i",NA,30599323,9084322,NA,"complete",NA,NA,"computer","Desktop or Laptop","Windows 10","Chrome 114.0.0.0","1370x703","1366x699",NA,NA,NA,"JV Task P3 (Updated)",4,"Anxious",NA,"In",NA,NA,"IJHKGAFBECD",NA,NA,"B (MDot First)",1,231,"SS1","SS1",15,"V","Valence","xyoebq",1,"continue","",9516,9499,9516,9516,9499,9516,1,9516,0,0,NA,"Click To Continue","Continue Button",1,"object-25","V","CFD-AM-220-134-N.jpg",NA,"SUPTM96648"
"93",1689003716427,"10/07/2023 15:41:56",1688989316427,-4,"10/07/2023 07:41:56",137495,33,"task-yv6i",NA,30599323,9084322,NA,"complete",NA,NA,"computer","Desktop or Laptop","Windows 10","Chrome 114.0.0.0","1370x703","1366x699",NA,NA,NA,"JV Task P3 (Updated)",4,"Anxious",NA,"In",NA,NA,"IJHKGAFBECD",NA,NA,"B (MDot First)",1,231,"SS1","SS1",15,"V","Valence","xyoebq",1,"response","42",2495,9499,9516,2495,9499,9516,1,2495,7021,0,NA,"Slider","J",3,"object-27","V","CFD-AM-220-134-N.jpg",NA,"SUPTM96648"
"94",1689003717363,"10/07/2023 15:41:57",1688989317363,-4,"10/07/2023 07:41:57",137495,33,"task-yv6i",NA,30599323,9084322,NA,"complete",NA,NA,"computer","Desktop or Laptop","Windows 10","Chrome 114.0.0.0","1370x703","1366x699",NA,NA,NA,"JV Task P3 (Updated)",4,"Anxious",NA,"In",NA,NA,"IJHKGAFBECD",NA,NA,"B (MDot First)",1,231,"SS1","SS1",15,"V","Fixation","68owkj",2,"continue","",965,965,965,965,965,965,1,965,0,0,NA,"Fixation Timing","Fixation",1,"object-21","V","CFD-AM-220-134-N.jpg",NA,"SUPTM96648"
"95",1689003720676,"10/07/2023 15:42:00",1688989320676,-4,"10/07/2023 07:42:00",137495,33,"task-yv6i",NA,30599323,9084322,NA,"complete",NA,NA,"computer","Desktop or Laptop","Windows 10","Chrome 114.0.0.0","1370x703","1366x699",NA,NA,NA,"JV Task P3 (Updated)",4,"Anxious",NA,"In",NA,NA,"IJHKGAFBECD",NA,NA,"B (MDot First)",1,231,"SS1","SS1",17,"J","Judginess","y8ii7g",1,"continue","",3313,3310,3313,3313,3310,3313,1,3313,0,0,NA,"Click To Continue","Continue Button",1,"object-14","J","CFD-WM-019-003-N.jpg",NA,"SUPTM96648"
"96",1689003720680,"10/07/2023 15:42:00",1688989320680,-4,"10/07/2023 07:42:00",137495,33,"task-yv6i",NA,30599323,9084322,NA,"complete",NA,NA,"computer","Desktop or Laptop","Windows 10","Chrome 114.0.0.0","1370x703","1366x699",NA,NA,NA,"JV Task P3 (Updated)",4,"Anxious",NA,"In",NA,NA,"IJHKGAFBECD",NA,NA,"B (MDot First)",1,231,"SS1","SS1",17,"J","Judginess","y8ii7g",1,"response","38",1879,3310,3318,1879,3310,3318,1,1879,1439,0,NA,"Slider","J",3,"object-18","J","CFD-WM-019-003-N.jpg",NA,"SUPTM96648"
"97",1689003721638,"10/07/2023 15:42:01",1688989321638,-4,"10/07/2023 07:42:01",137495,33,"task-yv6i",NA,30599323,9084322,NA,"complete",NA,NA,"computer","Desktop or Laptop","Windows 10","Chrome 114.0.0.0","1370x703","1366x699",NA,NA,NA,"JV Task P3 (Updated)",4,"Anxious",NA,"In",NA,NA,"IJHKGAFBECD",NA,NA,"B (MDot First)",1,231,"SS1","SS1",17,"J","Fixation","w9zir9",2,"continue","",964,964,964,964,964,964,1,964,0,0,NA,"Fixation Timing","Fixation",1,"object-65","J","CFD-WM-019-003-N.jpg",NA,"SUPTM96648"
"98",1689003725500,"10/07/2023 15:42:05",1688989325500,-4,"10/07/2023 07:42:05",137495,33,"task-yv6i",NA,30599323,9084322,NA,"complete",NA,NA,"computer","Desktop or Laptop","Windows 10","Chrome 114.0.0.0","1370x703","1366x699",NA,NA,NA,"JV Task P3 (Updated)",4,"Anxious",NA,"In",NA,NA,"IJHKGAFBECD",NA,NA,"B (MDot First)",1,231,"SS1","SS1",16,"V","Valence","xyoebq",1,"continue","",3860,3843,3860,3860,3843,3860,1,3860,0,0,NA,"Click To Continue","Continue Button",1,"object-25","V","CFD-IM-695-001-H.jpeg",NA,"SUPTM96648"
"99",1689003725502,"10/07/2023 15:42:05",1688989325502,-4,"10/07/2023 07:42:05",137495,33,"task-yv6i",NA,30599323,9084322,NA,"complete",NA,NA,"computer","Desktop or Laptop","Windows 10","Chrome 114.0.0.0","1370x703","1366x699",NA,NA,NA,"JV Task P3 (Updated)",4,"Anxious",NA,"In",NA,NA,"IJHKGAFBECD",NA,NA,"B (MDot First)",1,231,"SS1","SS1",16,"V","Valence","xyoebq",1,"response","66",2546,3843,3860,2546,3843,3860,1,2546,1314,0,NA,"Slider","J",3,"object-27","V","CFD-IM-695-001-H.jpeg",NA,"SUPTM96648"
"100",1689003726445,"10/07/2023 15:42:06",1688989326445,-4,"10/07/2023 07:42:06",137495,33,"task-yv6i",NA,30599323,9084322,NA,"complete",NA,NA,"computer","Desktop or Laptop","Windows 10","Chrome 114.0.0.0","1370x703","1366x699",NA,NA,NA,"JV Task P3 (Updated)",4,"Anxious",NA,"In",NA,NA,"IJHKGAFBECD",NA,NA,"B (MDot First)",1,231,"SS1","SS1",16,"V","Fixation","68owkj",2,"continue","",965,965,965,965,965,965,1,965,0,0,NA,"Fixation Timing","Fixation",1,"object-21","V","CFD-IM-695-001-H.jpeg",NA,"SUPTM96648"
"101",1689003730673,"10/07/2023 15:42:10",1688989330673,-4,"10/07/2023 07:42:10",137495,33,"task-yv6i",NA,30599323,9084322,NA,"complete",NA,NA,"computer","Desktop or Laptop","Windows 10","Chrome 114.0.0.0","1370x703","1366x699",NA,NA,NA,"JV Task P3 (Updated)",4,"Anxious",NA,"In",NA,NA,"IJHKGAFBECD",NA,NA,"B (MDot First)",1,231,"SS1","SS1",18,"J","Judginess","y8ii7g",1,"continue","",4229,4225,4229,4229,4225,4229,1,4229,0,0,NA,"Click To Continue","Continue Button",1,"object-14","J","CFD-WM-025-002-N.jpg",NA,"SUPTM96648"
"102",1689003730673,"10/07/2023 15:42:10",1688989330673,-4,"10/07/2023 07:42:10",137495,33,"task-yv6i",NA,30599323,9084322,NA,"complete",NA,NA,"computer","Desktop or Laptop","Windows 10","Chrome 114.0.0.0","1370x703","1366x699",NA,NA,NA,"JV Task P3 (Updated)",4,"Anxious",NA,"In",NA,NA,"IJHKGAFBECD",NA,NA,"B (MDot First)",1,231,"SS1","SS1",18,"J","Judginess","y8ii7g",1,"response","40",1863,4225,4229,1863,4225,4229,1,1863,2366,0,NA,"Slider","J",3,"object-18","J","CFD-WM-025-002-N.jpg",NA,"SUPTM96648"
"103",1689003731637,"10/07/2023 15:42:11",1688989331637,-4,"10/07/2023 07:42:11",137495,33,"task-yv6i",NA,30599323,9084322,NA,"complete",NA,NA,"computer","Desktop or Laptop","Windows 10","Chrome 114.0.0.0","1370x703","1366x699",NA,NA,NA,"JV Task P3 (Updated)",4,"Anxious",NA,"In",NA,NA,"IJHKGAFBECD",NA,NA,"B (MDot First)",1,231,"SS1","SS1",18,"J","Fixation","w9zir9",2,"continue","",965,965,965,965,965,965,1,965,0,0,NA,"Fixation Timing","Fixation",1,"object-65","J","CFD-WM-025-002-N.jpg",NA,"SUPTM96648"
"104",1689003734136,"10/07/2023 15:42:14",1688989334136,-4,"10/07/2023 07:42:14",137495,33,"task-yv6i",NA,30599323,9084322,NA,"complete",NA,NA,"computer","Desktop or Laptop","Windows 10","Chrome 114.0.0.0","1370x703","1366x699",NA,NA,NA,"JV Task P3 (Updated)",4,"Anxious",NA,"In",NA,NA,"IJHKGAFBECD",NA,NA,"B (MDot First)",1,231,"SS1","SS1",19,"J","Judginess","y8ii7g",1,"continue","",2502,2495,2502,2502,2495,2502,1,2502,0,0,NA,"Click To Continue","Continue Button",1,"object-14","J","CFD-BF-040-003-H.jpeg",NA,"SUPTM96648"
"105",1689003734137,"10/07/2023 15:42:14",1688989334137,-4,"10/07/2023 07:42:14",137495,33,"task-yv6i",NA,30599323,9084322,NA,"complete",NA,NA,"computer","Desktop or Laptop","Windows 10","Chrome 114.0.0.0","1370x703","1366x699",NA,NA,NA,"JV Task P3 (Updated)",4,"Anxious",NA,"In",NA,NA,"IJHKGAFBECD",NA,NA,"B (MDot First)",1,231,"SS1","SS1",19,"J","Judginess","y8ii7g",1,"response","64",1414,2495,2502,1414,2495,2502,1,1414,1088,0,NA,"Slider","J",3,"object-18","J","CFD-BF-040-003-H.jpeg",NA,"SUPTM96648"
"106",1689003735095,"10/07/2023 15:42:15",1688989335095,-4,"10/07/2023 07:42:15",137495,33,"task-yv6i",NA,30599323,9084322,NA,"complete",NA,NA,"computer","Desktop or Laptop","Windows 10","Chrome 114.0.0.0","1370x703","1366x699",NA,NA,NA,"JV Task P3 (Updated)",4,"Anxious",NA,"In",NA,NA,"IJHKGAFBECD",NA,NA,"B (MDot First)",1,231,"SS1","SS1",19,"J","Fixation","w9zir9",2,"continue","",965,965,965,965,965,965,1,965,0,0,NA,"Fixation Timing","Fixation",1,"object-65","J","CFD-BF-040-003-H.jpeg",NA,"SUPTM96648"
"107",1689003738882,"10/07/2023 15:42:18",1688989338882,-4,"10/07/2023 07:42:18",137495,33,"task-yv6i",NA,30599323,9084322,NA,"complete",NA,NA,"computer","Desktop or Laptop","Windows 10","Chrome 114.0.0.0","1370x703","1366x699",NA,NA,NA,"JV Task P3 (Updated)",4,"Anxious",NA,"In",NA,NA,"IJHKGAFBECD",NA,NA,"B (MDot First)",1,231,"SS1","SS1",17,"V","Valence","xyoebq",1,"continue","",3788,3776,3788,3788,3776,3788,1,3788,0,0,NA,"Click To Continue","Continue Button",1,"object-25","V","CFD-IM-695-001-S.jpeg",NA,"SUPTM96648"
"108",1689003738889,"10/07/2023 15:42:18",1688989338889,-4,"10/07/2023 07:42:18",137495,33,"task-yv6i",NA,30599323,9084322,NA,"complete",NA,NA,"computer","Desktop or Laptop","Windows 10","Chrome 114.0.0.0","1370x703","1366x699",NA,NA,NA,"JV Task P3 (Updated)",4,"Anxious",NA,"In",NA,NA,"IJHKGAFBECD",NA,NA,"B (MDot First)",1,231,"SS1","SS1",17,"V","Valence","xyoebq",1,"response","44",1680,3776,3793,1680,3776,3793,1,1680,2113,0,NA,"Slider","J",3,"object-27","V","CFD-IM-695-001-S.jpeg",NA,"SUPTM96648"
"109",1689003739835,"10/07/2023 15:42:19",1688989339835,-4,"10/07/2023 07:42:19",137495,33,"task-yv6i",NA,30599323,9084322,NA,"complete",NA,NA,"computer","Desktop or Laptop","Windows 10","Chrome 114.0.0.0","1370x703","1366x699",NA,NA,NA,"JV Task P3 (Updated)",4,"Anxious",NA,"In",NA,NA,"IJHKGAFBECD",NA,NA,"B (MDot First)",1,231,"SS1","SS1",17,"V","Fixation","68owkj",2,"continue","",965,965,965,965,965,965,1,965,0,0,NA,"Fixation Timing","Fixation",1,"object-21","V","CFD-IM-695-001-S.jpeg",NA,"SUPTM96648"
"110",1689003742579,"10/07/2023 15:42:22",1688989342579,-4,"10/07/2023 07:42:22",137495,33,"task-yv6i",NA,30599323,9084322,NA,"complete",NA,NA,"computer","Desktop or Laptop","Windows 10","Chrome 114.0.0.0","1370x703","1366x699",NA,NA,NA,"JV Task P3 (Updated)",4,"Anxious",NA,"In",NA,NA,"IJHKGAFBECD",NA,NA,"B (MDot First)",1,231,"SS1","SS1",18,"V","Valence","xyoebq",1,"continue","",2744,2728,2744,2744,2728,2744,1,2744,0,0,NA,"Click To Continue","Continue Button",1,"object-25","V","CFD-BM-036-003-S.jpeg",NA,"SUPTM96648"
"111",1689003742580,"10/07/2023 15:42:22",1688989342580,-4,"10/07/2023 07:42:22",137495,33,"task-yv6i",NA,30599323,9084322,NA,"complete",NA,NA,"computer","Desktop or Laptop","Windows 10","Chrome 114.0.0.0","1370x703","1366x699",NA,NA,NA,"JV Task P3 (Updated)",4,"Anxious",NA,"In",NA,NA,"IJHKGAFBECD",NA,NA,"B (MDot First)",1,231,"SS1","SS1",18,"V","Valence","xyoebq",1,"response","43",1430,2728,2745,1430,2728,2745,1,1430,1315,0,NA,"Slider","J",3,"object-27","V","CFD-BM-036-003-S.jpeg",NA,"SUPTM96648"
"112",1689003743528,"10/07/2023 15:42:23",1688989343528,-4,"10/07/2023 07:42:23",137495,33,"task-yv6i",NA,30599323,9084322,NA,"complete",NA,NA,"computer","Desktop or Laptop","Windows 10","Chrome 114.0.0.0","1370x703","1366x699",NA,NA,NA,"JV Task P3 (Updated)",4,"Anxious",NA,"In",NA,NA,"IJHKGAFBECD",NA,NA,"B (MDot First)",1,231,"SS1","SS1",18,"V","Fixation","68owkj",2,"continue","",964,964,964,964,964,964,1,964,0,0,NA,"Fixation Timing","Fixation",1,"object-21","V","CFD-BM-036-003-S.jpeg",NA,"SUPTM96648"
"113",1689003747132,"10/07/2023 15:42:27",1688989347132,-4,"10/07/2023 07:42:27",137495,33,"task-yv6i",NA,30599323,9084322,NA,"complete",NA,NA,"computer","Desktop or Laptop","Windows 10","Chrome 114.0.0.0","1370x703","1366x699",NA,NA,NA,"JV Task P3 (Updated)",4,"Anxious",NA,"In",NA,NA,"IJHKGAFBECD",NA,NA,"B (MDot First)",1,231,"SS1","SS1",20,"J","Judginess","y8ii7g",1,"continue","",3604,3593,3604,3604,3593,3604,1,3604,0,0,NA,"Click To Continue","Continue Button",1,"object-14","J","CFD-WM-009-002-N.jpg",NA,"SUPTM96648"
"114",1689003747132,"10/07/2023 15:42:27",1688989347132,-4,"10/07/2023 07:42:27",137495,33,"task-yv6i",NA,30599323,9084322,NA,"complete",NA,NA,"computer","Desktop or Laptop","Windows 10","Chrome 114.0.0.0","1370x703","1366x699",NA,NA,NA,"JV Task P3 (Updated)",4,"Anxious",NA,"In",NA,NA,"IJHKGAFBECD",NA,NA,"B (MDot First)",1,231,"SS1","SS1",20,"J","Judginess","y8ii7g",1,"response","41",2130,3593,3605,2130,3593,3605,1,2130,1475,0,NA,"Slider","J",3,"object-18","J","CFD-WM-009-002-N.jpg",NA,"SUPTM96648"
"115",1689003748086,"10/07/2023 15:42:28",1688989348086,-4,"10/07/2023 07:42:28",137495,33,"task-yv6i",NA,30599323,9084322,NA,"complete",NA,NA,"computer","Desktop or Laptop","Windows 10","Chrome 114.0.0.0","1370x703","1366x699",NA,NA,NA,"JV Task P3 (Updated)",4,"Anxious",NA,"In",NA,NA,"IJHKGAFBECD",NA,NA,"B (MDot First)",1,231,"SS1","SS1",20,"J","Fixation","w9zir9",2,"continue","",966,966,966,966,966,966,1,966,0,0,NA,"Fixation Timing","Fixation",1,"object-65","J","CFD-WM-009-002-N.jpg",NA,"SUPTM96648"
"116",1689003751275,"10/07/2023 15:42:31",1688989351275,-4,"10/07/2023 07:42:31",137495,33,"task-yv6i",NA,30599323,9084322,NA,"complete",NA,NA,"computer","Desktop or Laptop","Windows 10","Chrome 114.0.0.0","1370x703","1366x699",NA,NA,NA,"JV Task P3 (Updated)",4,"Anxious",NA,"In",NA,NA,"IJHKGAFBECD",NA,NA,"B (MDot First)",1,231,"SS1","SS1",19,"V","Valence","xyoebq",1,"continue","",3188,3177,3188,3188,3177,3188,1,3188,0,0,NA,"Click To Continue","Continue Button",1,"object-25","V","CFD-WM-031-003-S.jpeg",NA,"SUPTM96648"
"117",1689003751293,"10/07/2023 15:42:31",1688989351293,-4,"10/07/2023 07:42:31",137495,33,"task-yv6i",NA,30599323,9084322,NA,"complete",NA,NA,"computer","Desktop or Laptop","Windows 10","Chrome 114.0.0.0","1370x703","1366x699",NA,NA,NA,"JV Task P3 (Updated)",4,"Anxious",NA,"In",NA,NA,"IJHKGAFBECD",NA,NA,"B (MDot First)",1,231,"SS1","SS1",19,"V","Valence","xyoebq",1,"response","39",1929,3177,3194,1929,3177,3194,1,1929,1265,0,NA,"Slider","J",3,"object-27","V","CFD-WM-031-003-S.jpeg",NA,"SUPTM96648"
"118",1689003752229,"10/07/2023 15:42:32",1688989352229,-4,"10/07/2023 07:42:32",137495,33,"task-yv6i",NA,30599323,9084322,NA,"complete",NA,NA,"computer","Desktop or Laptop","Windows 10","Chrome 114.0.0.0","1370x703","1366x699",NA,NA,NA,"JV Task P3 (Updated)",4,"Anxious",NA,"In",NA,NA,"IJHKGAFBECD",NA,NA,"B (MDot First)",1,231,"SS1","SS1",19,"V","Fixation","68owkj",2,"continue","",964,964,964,964,964,964,1,964,0,0,NA,"Fixation Timing","Fixation",1,"object-21","V","CFD-WM-031-003-S.jpeg",NA,"SUPTM96648"
"119",1689003756643,"10/07/2023 15:42:36",1688989356643,-4,"10/07/2023 07:42:36",137495,33,"task-yv6i",NA,30599323,9084322,NA,"complete",NA,NA,"computer","Desktop or Laptop","Windows 10","Chrome 114.0.0.0","1370x703","1366x699",NA,NA,NA,"JV Task P3 (Updated)",4,"Anxious",NA,"In",NA,NA,"IJHKGAFBECD",NA,NA,"B (MDot First)",1,231,"SS1","SS1",21,"J","Judginess","y8ii7g",1,"continue","",3883,3876,3883,3883,3876,3883,1,3883,0,0,NA,"Click To Continue","Continue Button",1,"object-14","J","CFD-BF-008-001-N.jpg",NA,"SUPTM96648"
"120",1689003756644,"10/07/2023 15:42:36",1688989356644,-4,"10/07/2023 07:42:36",137495,33,"task-yv6i",NA,30599323,9084322,NA,"complete",NA,NA,"computer","Desktop or Laptop","Windows 10","Chrome 114.0.0.0","1370x703","1366x699",NA,NA,NA,"JV Task P3 (Updated)",4,"Anxious",NA,"In",NA,NA,"IJHKGAFBECD",NA,NA,"B (MDot First)",1,231,"SS1","SS1",21,"J","Judginess","y8ii7g",1,"response","39",1979,3876,3883,1979,3876,3883,1,1979,1904,0,NA,"Slider","J",3,"object-18","J","CFD-BF-008-001-N.jpg",NA,"SUPTM96648"
"121",1689003757602,"10/07/2023 15:42:37",1688989357602,-4,"10/07/2023 07:42:37",137495,33,"task-yv6i",NA,30599323,9084322,NA,"complete",NA,NA,"computer","Desktop or Laptop","Windows 10","Chrome 114.0.0.0","1370x703","1366x699",NA,NA,NA,"JV Task P3 (Updated)",4,"Anxious",NA,"In",NA,NA,"IJHKGAFBECD",NA,NA,"B (MDot First)",1,231,"SS1","SS1",21,"J","Fixation","w9zir9",2,"continue","",965,965,965,965,965,965,1,965,0,0,NA,"Fixation Timing","Fixation",1,"object-65","J","CFD-BF-008-001-N.jpg",NA,"SUPTM96648"
"122",1689003760351,"10/07/2023 15:42:40",1688989360351,-4,"10/07/2023 07:42:40",137495,33,"task-yv6i",NA,30599323,9084322,NA,"complete",NA,NA,"computer","Desktop or Laptop","Windows 10","Chrome 114.0.0.0","1370x703","1366x699",NA,NA,NA,"JV Task P3 (Updated)",4,"Anxious",NA,"In",NA,NA,"IJHKGAFBECD",NA,NA,"B (MDot First)",1,231,"SS1","SS1",20,"V","Valence","xyoebq",1,"continue","",2749,2744,2749,2749,2744,2749,1,2749,0,0,NA,"Click To Continue","Continue Button",1,"object-25","V","CFD-IF-734-108-S.jpeg",NA,"SUPTM96648"
"123",1689003760351,"10/07/2023 15:42:40",1688989360351,-4,"10/07/2023 07:42:40",137495,33,"task-yv6i",NA,30599323,9084322,NA,"complete",NA,NA,"computer","Desktop or Laptop","Windows 10","Chrome 114.0.0.0","1370x703","1366x699",NA,NA,NA,"JV Task P3 (Updated)",4,"Anxious",NA,"In",NA,NA,"IJHKGAFBECD",NA,NA,"B (MDot First)",1,231,"SS1","SS1",20,"V","Valence","xyoebq",1,"response","43",1646,2744,2750,1646,2744,2750,1,1646,1104,0,NA,"Slider","J",3,"object-27","V","CFD-IF-734-108-S.jpeg",NA,"SUPTM96648"
"124",1689003761310,"10/07/2023 15:42:41",1688989361310,-4,"10/07/2023 07:42:41",137495,33,"task-yv6i",NA,30599323,9084322,NA,"complete",NA,NA,"computer","Desktop or Laptop","Windows 10","Chrome 114.0.0.0","1370x703","1366x699",NA,NA,NA,"JV Task P3 (Updated)",4,"Anxious",NA,"In",NA,NA,"IJHKGAFBECD",NA,NA,"B (MDot First)",1,231,"SS1","SS1",20,"V","Fixation","68owkj",2,"continue","",965,965,965,965,965,965,1,965,0,0,NA,"Fixation Timing","Fixation",1,"object-21","V","CFD-IF-734-108-S.jpeg",NA,"SUPTM96648"
"125",1689003786626,"10/07/2023 15:43:06",1688989386626,-4,"10/07/2023 07:43:06",137495,33,"task-yv6i",NA,30599323,9084322,NA,"complete",NA,NA,"computer","Desktop or Laptop","Windows 10","Chrome 114.0.0.0","1370x703","1366x699",NA,NA,NA,"JV Task P3 (Updated)",4,"Anxious",NA,"In",NA,NA,"IJHKGAFBECD",NA,NA,"B (MDot First)",1,231,"SS1","SS1",21,"V","Valence","xyoebq",1,"continue","",5854,5839,5854,5854,5839,5854,1,5854,0,0,NA,"Click To Continue","Continue Button",1,"object-25","V","CFD-MF-315-002-H.jpeg",NA,"SUPTM96648"
"126",1689003786629,"10/07/2023 15:43:06",1688989386629,-4,"10/07/2023 07:43:06",137495,33,"task-yv6i",NA,30599323,9084322,NA,"complete",NA,NA,"computer","Desktop or Laptop","Windows 10","Chrome 114.0.0.0","1370x703","1366x699",NA,NA,NA,"JV Task P3 (Updated)",4,"Anxious",NA,"In",NA,NA,"IJHKGAFBECD",NA,NA,"B (MDot First)",1,231,"SS1","SS1",21,"V","Valence","xyoebq",1,"response","64",2213,5839,5856,2213,5839,5856,1,2213,3643,0,NA,"Slider","J",3,"object-27","V","CFD-MF-315-002-H.jpeg",NA,"SUPTM96648"
"127",1689003787577,"10/07/2023 15:43:07",1688989387577,-4,"10/07/2023 07:43:07",137495,33,"task-yv6i",NA,30599323,9084322,NA,"complete",NA,NA,"computer","Desktop or Laptop","Windows 10","Chrome 114.0.0.0","1370x703","1366x699",NA,NA,NA,"JV Task P3 (Updated)",4,"Anxious",NA,"In",NA,NA,"IJHKGAFBECD",NA,NA,"B (MDot First)",1,231,"SS1","SS1",21,"V","Fixation","68owkj",2,"continue","",965,965,965,965,965,965,1,965,0,0,NA,"Fixation Timing","Fixation",1,"object-21","V","CFD-MF-315-002-H.jpeg",NA,"SUPTM96648"
"128",1689003789967,"10/07/2023 15:43:09",1688989389967,-4,"10/07/2023 07:43:09",137495,33,"task-yv6i",NA,30599323,9084322,NA,"complete",NA,NA,"computer","Desktop or Laptop","Windows 10","Chrome 114.0.0.0","1370x703","1366x699",NA,NA,NA,"JV Task P3 (Updated)",4,"Anxious",NA,"In",NA,NA,"IJHKGAFBECD",NA,NA,"B (MDot First)",1,231,"SS1","SS1",22,"J","Judginess","y8ii7g",1,"continue","",2391,2378,2391,2391,2378,2391,1,2391,0,0,NA,"Click To Continue","Continue Button",1,"object-14","J","CFD-WM-036-031-H.jpeg",NA,"SUPTM96648"
"129",1689003789968,"10/07/2023 15:43:09",1688989389968,-4,"10/07/2023 07:43:09",137495,33,"task-yv6i",NA,30599323,9084322,NA,"complete",NA,NA,"computer","Desktop or Laptop","Windows 10","Chrome 114.0.0.0","1370x703","1366x699",NA,NA,NA,"JV Task P3 (Updated)",4,"Anxious",NA,"In",NA,NA,"IJHKGAFBECD",NA,NA,"B (MDot First)",1,231,"SS1","SS1",22,"J","Judginess","y8ii7g",1,"response","64",1331,2378,2391,1331,2378,2391,1,1331,1060,0,NA,"Slider","J",3,"object-18","J","CFD-WM-036-031-H.jpeg",NA,"SUPTM96648"
"130",1689003790921,"10/07/2023 15:43:10",1688989390921,-4,"10/07/2023 07:43:10",137495,33,"task-yv6i",NA,30599323,9084322,NA,"complete",NA,NA,"computer","Desktop or Laptop","Windows 10","Chrome 114.0.0.0","1370x703","1366x699",NA,NA,NA,"JV Task P3 (Updated)",4,"Anxious",NA,"In",NA,NA,"IJHKGAFBECD",NA,NA,"B (MDot First)",1,231,"SS1","SS1",22,"J","Fixation","w9zir9",2,"continue","",965,965,965,965,965,965,1,965,0,0,NA,"Fixation Timing","Fixation",1,"object-65","J","CFD-WM-036-031-H.jpeg",NA,"SUPTM96648"
"131",1689003793767,"10/07/2023 15:43:13",1688989393767,-4,"10/07/2023 07:43:13",137495,33,"task-yv6i",NA,30599323,9084322,NA,"complete",NA,NA,"computer","Desktop or Laptop","Windows 10","Chrome 114.0.0.0","1370x703","1366x699",NA,NA,NA,"JV Task P3 (Updated)",4,"Anxious",NA,"In",NA,NA,"IJHKGAFBECD",NA,NA,"B (MDot First)",1,231,"SS1","SS1",23,"J","Judginess","y8ii7g",1,"continue","",2844,2828,2844,2844,2828,2844,1,2844,0,0,NA,"Click To Continue","Continue Button",1,"object-14","J","CFD-WF-024-003-S.jpeg",NA,"SUPTM96648"
"132",1689003793768,"10/07/2023 15:43:13",1688989393768,-4,"10/07/2023 07:43:13",137495,33,"task-yv6i",NA,30599323,9084322,NA,"complete",NA,NA,"computer","Desktop or Laptop","Windows 10","Chrome 114.0.0.0","1370x703","1366x699",NA,NA,NA,"JV Task P3 (Updated)",4,"Anxious",NA,"In",NA,NA,"IJHKGAFBECD",NA,NA,"B (MDot First)",1,231,"SS1","SS1",23,"J","Judginess","y8ii7g",1,"response","36",1248,2828,2844,1248,2828,2844,1,1248,1596,0,NA,"Slider","J",3,"object-18","J","CFD-WF-024-003-S.jpeg",NA,"SUPTM96648"
"133",1689003794713,"10/07/2023 15:43:14",1688989394713,-4,"10/07/2023 07:43:14",137495,33,"task-yv6i",NA,30599323,9084322,NA,"complete",NA,NA,"computer","Desktop or Laptop","Windows 10","Chrome 114.0.0.0","1370x703","1366x699",NA,NA,NA,"JV Task P3 (Updated)",4,"Anxious",NA,"In",NA,NA,"IJHKGAFBECD",NA,NA,"B (MDot First)",1,231,"SS1","SS1",23,"J","Fixation","w9zir9",2,"continue","",965,965,965,965,965,965,1,965,0,0,NA,"Fixation Timing","Fixation",1,"object-65","J","CFD-WF-024-003-S.jpeg",NA,"SUPTM96648"
"134",1689003797636,"10/07/2023 15:43:17",1688989397636,-4,"10/07/2023 07:43:17",137495,33,"task-yv6i",NA,30599323,9084322,NA,"complete",NA,NA,"computer","Desktop or Laptop","Windows 10","Chrome 114.0.0.0","1370x703","1366x699",NA,NA,NA,"JV Task P3 (Updated)",4,"Anxious",NA,"In",NA,NA,"IJHKGAFBECD",NA,NA,"B (MDot First)",1,231,"SS1","SS1",22,"V","Valence","xyoebq",1,"continue","",2924,2911,2924,2924,2911,2924,1,2924,0,0,NA,"Click To Continue","Continue Button",1,"object-25","V","CFD-WF-015-006-H.jpeg",NA,"SUPTM96648"
"135",1689003797646,"10/07/2023 15:43:17",1688989397646,-4,"10/07/2023 07:43:17",137495,33,"task-yv6i",NA,30599323,9084322,NA,"complete",NA,NA,"computer","Desktop or Laptop","Windows 10","Chrome 114.0.0.0","1370x703","1366x699",NA,NA,NA,"JV Task P3 (Updated)",4,"Anxious",NA,"In",NA,NA,"IJHKGAFBECD",NA,NA,"B (MDot First)",1,231,"SS1","SS1",22,"V","Valence","xyoebq",1,"response","70",1613,2911,2928,1613,2911,2928,1,1613,1315,0,NA,"Slider","J",3,"object-27","V","CFD-WF-015-006-H.jpeg",NA,"SUPTM96648"
"136",1689003798589,"10/07/2023 15:43:18",1688989398589,-4,"10/07/2023 07:43:18",137495,33,"task-yv6i",NA,30599323,9084322,NA,"complete",NA,NA,"computer","Desktop or Laptop","Windows 10","Chrome 114.0.0.0","1370x703","1366x699",NA,NA,NA,"JV Task P3 (Updated)",4,"Anxious",NA,"In",NA,NA,"IJHKGAFBECD",NA,NA,"B (MDot First)",1,231,"SS1","SS1",22,"V","Fixation","68owkj",2,"continue","",965,965,965,965,965,965,1,965,0,0,NA,"Fixation Timing","Fixation",1,"object-21","V","CFD-WF-015-006-H.jpeg",NA,"SUPTM96648"
"137",1689003806631,"10/07/2023 15:43:26",1688989406631,-4,"10/07/2023 07:43:26",137495,33,"task-yv6i",NA,30599323,9084322,NA,"complete",NA,NA,"computer","Desktop or Laptop","Windows 10","Chrome 114.0.0.0","1370x703","1366x699",NA,NA,NA,"JV Task P3 (Updated)",4,"Anxious",NA,"In",NA,NA,"IJHKGAFBECD",NA,NA,"B (MDot First)",1,231,"SS1","SS1",24,"J","Judginess","y8ii7g",1,"continue","",4283,4275,4283,4283,4275,4283,1,4283,0,0,NA,"Click To Continue","Continue Button",1,"object-14","J","CFD-IF-734-108-N.jpg",NA,"SUPTM96648"
"138",1689003806632,"10/07/2023 15:43:26",1688989406632,-4,"10/07/2023 07:43:26",137495,33,"task-yv6i",NA,30599323,9084322,NA,"complete",NA,NA,"computer","Desktop or Laptop","Windows 10","Chrome 114.0.0.0","1370x703","1366x699",NA,NA,NA,"JV Task P3 (Updated)",4,"Anxious",NA,"In",NA,NA,"IJHKGAFBECD",NA,NA,"B (MDot First)",1,231,"SS1","SS1",24,"J","Judginess","y8ii7g",1,"response","66",2694,4275,4284,2694,4275,4284,1,2694,1590,0,NA,"Slider","J",3,"object-18","J","CFD-IF-734-108-N.jpg",NA,"SUPTM96648"
"139",1689003807588,"10/07/2023 15:43:27",1688989407588,-4,"10/07/2023 07:43:27",137495,33,"task-yv6i",NA,30599323,9084322,NA,"complete",NA,NA,"computer","Desktop or Laptop","Windows 10","Chrome 114.0.0.0","1370x703","1366x699",NA,NA,NA,"JV Task P3 (Updated)",4,"Anxious",NA,"In",NA,NA,"IJHKGAFBECD",NA,NA,"B (MDot First)",1,231,"SS1","SS1",24,"J","Fixation","w9zir9",2,"continue","",964,964,964,964,964,964,1,964,0,0,NA,"Fixation Timing","Fixation",1,"object-65","J","CFD-IF-734-108-N.jpg",NA,"SUPTM96648"
"140",1689003810431,"10/07/2023 15:43:30",1688989410431,-4,"10/07/2023 07:43:30",137495,33,"task-yv6i",NA,30599323,9084322,NA,"complete",NA,NA,"computer","Desktop or Laptop","Windows 10","Chrome 114.0.0.0","1370x703","1366x699",NA,NA,NA,"JV Task P3 (Updated)",4,"Anxious",NA,"In",NA,NA,"IJHKGAFBECD",NA,NA,"B (MDot First)",1,231,"SS1","SS1",25,"J","Judginess","y8ii7g",1,"continue","",2843,2828,2843,2843,2828,2843,1,2843,0,0,NA,"Click To Continue","Continue Button",1,"object-14","J","CFD-WF-024-003-H.jpeg",NA,"SUPTM96648"
"141",1689003810438,"10/07/2023 15:43:30",1688989410438,-4,"10/07/2023 07:43:30",137495,33,"task-yv6i",NA,30599323,9084322,NA,"complete",NA,NA,"computer","Desktop or Laptop","Windows 10","Chrome 114.0.0.0","1370x703","1366x699",NA,NA,NA,"JV Task P3 (Updated)",4,"Anxious",NA,"In",NA,NA,"IJHKGAFBECD",NA,NA,"B (MDot First)",1,231,"SS1","SS1",25,"J","Judginess","y8ii7g",1,"response","62",1597,2828,2844,1597,2828,2844,1,1597,1247,0,NA,"Slider","J",3,"object-18","J","CFD-WF-024-003-H.jpeg",NA,"SUPTM96648"
"142",1689003811381,"10/07/2023 15:43:31",1688989411381,-4,"10/07/2023 07:43:31",137495,33,"task-yv6i",NA,30599323,9084322,NA,"complete",NA,NA,"computer","Desktop or Laptop","Windows 10","Chrome 114.0.0.0","1370x703","1366x699",NA,NA,NA,"JV Task P3 (Updated)",4,"Anxious",NA,"In",NA,NA,"IJHKGAFBECD",NA,NA,"B (MDot First)",1,231,"SS1","SS1",25,"J","Fixation","w9zir9",2,"continue","",965,965,965,965,965,965,1,965,0,0,NA,"Fixation Timing","Fixation",1,"object-65","J","CFD-WF-024-003-H.jpeg",NA,"SUPTM96648"
"143",1689003816970,"10/07/2023 15:43:36",1688989416970,-4,"10/07/2023 07:43:36",137495,33,"task-yv6i",NA,30599323,9084322,NA,"complete",NA,NA,"computer","Desktop or Laptop","Windows 10","Chrome 114.0.0.0","1370x703","1366x699",NA,NA,NA,"JV Task P3 (Updated)",4,"Anxious",NA,"In",NA,NA,"IJHKGAFBECD",NA,NA,"B (MDot First)",1,231,"SS1","SS1",23,"V","Valence","xyoebq",1,"continue","",5589,5573,5589,5589,5573,5589,1,5589,0,0,NA,"Click To Continue","Continue Button",1,"object-25","V","CFD-WF-022-017-H.jpeg",NA,"SUPTM96648"
"144",1689003816971,"10/07/2023 15:43:36",1688989416971,-4,"10/07/2023 07:43:36",137495,33,"task-yv6i",NA,30599323,9084322,NA,"complete",NA,NA,"computer","Desktop or Laptop","Windows 10","Chrome 114.0.0.0","1370x703","1366x699",NA,NA,NA,"JV Task P3 (Updated)",4,"Anxious",NA,"In",NA,NA,"IJHKGAFBECD",NA,NA,"B (MDot First)",1,231,"SS1","SS1",23,"V","Valence","xyoebq",1,"response","67",2861,5573,5589,2861,5573,5589,1,2861,2728,0,NA,"Slider","J",3,"object-27","V","CFD-WF-022-017-H.jpeg",NA,"SUPTM96648"
"145",1689003817918,"10/07/2023 15:43:37",1688989417918,-4,"10/07/2023 07:43:37",137495,33,"task-yv6i",NA,30599323,9084322,NA,"complete",NA,NA,"computer","Desktop or Laptop","Windows 10","Chrome 114.0.0.0","1370x703","1366x699",NA,NA,NA,"JV Task P3 (Updated)",4,"Anxious",NA,"In",NA,NA,"IJHKGAFBECD",NA,NA,"B (MDot First)",1,231,"SS1","SS1",23,"V","Fixation","68owkj",2,"continue","",964,964,964,964,964,964,1,964,0,0,NA,"Fixation Timing","Fixation",1,"object-21","V","CFD-WF-022-017-H.jpeg",NA,"SUPTM96648"
"146",1689003820312,"10/07/2023 15:43:40",1688989420312,-4,"10/07/2023 07:43:40",137495,33,"task-yv6i",NA,30599323,9084322,NA,"complete",NA,NA,"computer","Desktop or Laptop","Windows 10","Chrome 114.0.0.0","1370x703","1366x699",NA,NA,NA,"JV Task P3 (Updated)",4,"Anxious",NA,"In",NA,NA,"IJHKGAFBECD",NA,NA,"B (MDot First)",1,231,"SS1","SS1",24,"V","Valence","xyoebq",1,"continue","",2394,2379,2394,2394,2379,2394,1,2394,0,0,NA,"Click To Continue","Continue Button",1,"object-25","V","CFD-WF-035-024-N.jpg",NA,"SUPTM96648"
"147",1689003820314,"10/07/2023 15:43:40",1688989420314,-4,"10/07/2023 07:43:40",137495,33,"task-yv6i",NA,30599323,9084322,NA,"complete",NA,NA,"computer","Desktop or Laptop","Windows 10","Chrome 114.0.0.0","1370x703","1366x699",NA,NA,NA,"JV Task P3 (Updated)",4,"Anxious",NA,"In",NA,NA,"IJHKGAFBECD",NA,NA,"B (MDot First)",1,231,"SS1","SS1",24,"V","Valence","xyoebq",1,"response","39",1431,2379,2396,1431,2379,2396,1,1431,965,0,NA,"Slider","J",3,"object-27","V","CFD-WF-035-024-N.jpg",NA,"SUPTM96648"
"148",1689003821262,"10/07/2023 15:43:41",1688989421262,-4,"10/07/2023 07:43:41",137495,33,"task-yv6i",NA,30599323,9084322,NA,"complete",NA,NA,"computer","Desktop or Laptop","Windows 10","Chrome 114.0.0.0","1370x703","1366x699",NA,NA,NA,"JV Task P3 (Updated)",4,"Anxious",NA,"In",NA,NA,"IJHKGAFBECD",NA,NA,"B (MDot First)",1,231,"SS1","SS1",24,"V","Fixation","68owkj",2,"continue","",965,965,965,965,965,965,1,965,0,0,NA,"Fixation Timing","Fixation",1,"object-21","V","CFD-WF-035-024-N.jpg",NA,"SUPTM96648"
"149",1689003826893,"10/07/2023 15:43:46",1688989426893,-4,"10/07/2023 07:43:46",137495,33,"task-yv6i",NA,30599323,9084322,NA,"complete",NA,NA,"computer","Desktop or Laptop","Windows 10","Chrome 114.0.0.0","1370x703","1366x699",NA,NA,NA,"JV Task P3 (Updated)",4,"Anxious",NA,"In",NA,NA,"IJHKGAFBECD",NA,NA,"B (MDot First)",1,231,"SS1","SS1",25,"V","Valence","xyoebq",1,"continue","",5631,5622,5631,5631,5622,5631,1,5631,0,0,NA,"Click To Continue","Continue Button",1,"object-25","V","CFD-WM-024-015-N.jpg",NA,"SUPTM96648"
"150",1689003826894,"10/07/2023 15:43:46",1688989426894,-4,"10/07/2023 07:43:46",137495,33,"task-yv6i",NA,30599323,9084322,NA,"complete",NA,NA,"computer","Desktop or Laptop","Windows 10","Chrome 114.0.0.0","1370x703","1366x699",NA,NA,NA,"JV Task P3 (Updated)",4,"Anxious",NA,"In",NA,NA,"IJHKGAFBECD",NA,NA,"B (MDot First)",1,231,"SS1","SS1",25,"V","Valence","xyoebq",1,"response","38",3859,5622,5632,3859,5622,5632,1,3859,1773,0,NA,"Slider","J",3,"object-27","V","CFD-WM-024-015-N.jpg",NA,"SUPTM96648"
"151",1689003827851,"10/07/2023 15:43:47",1688989427851,-4,"10/07/2023 07:43:47",137495,33,"task-yv6i",NA,30599323,9084322,NA,"complete",NA,NA,"computer","Desktop or Laptop","Windows 10","Chrome 114.0.0.0","1370x703","1366x699",NA,NA,NA,"JV Task P3 (Updated)",4,"Anxious",NA,"In",NA,NA,"IJHKGAFBECD",NA,NA,"B (MDot First)",1,231,"SS1","SS1",25,"V","Fixation","68owkj",2,"continue","",966,966,966,966,966,966,1,966,0,0,NA,"Fixation Timing","Fixation",1,"object-21","V","CFD-WM-024-015-N.jpg",NA,"SUPTM96648"
"152",1689003839248,"10/07/2023 15:43:59",1688989439248,-4,"10/07/2023 07:43:59",137495,33,"task-yv6i",NA,30599323,9084322,NA,"complete",NA,NA,"computer","Desktop or Laptop","Windows 10","Chrome 114.0.0.0","1370x703","1366x699",NA,NA,NA,"JV Task P3 (Updated)",4,"Anxious",NA,"In",NA,NA,"IJHKGAFBECD",NA,NA,"B (MDot First)",1,231,"SS1","SS1",26,"J","Judginess","y8ii7g",1,"continue","",3614,3610,3614,3614,3610,3614,1,3614,0,0,NA,"Click To Continue","Continue Button",1,"object-14","J","CFD-AF-211-066-N.jpg",NA,"SUPTM96648"
"153",1689003839253,"10/07/2023 15:43:59",1688989439253,-4,"10/07/2023 07:43:59",137495,33,"task-yv6i",NA,30599323,9084322,NA,"complete",NA,NA,"computer","Desktop or Laptop","Windows 10","Chrome 114.0.0.0","1370x703","1366x699",NA,NA,NA,"JV Task P3 (Updated)",4,"Anxious",NA,"In",NA,NA,"IJHKGAFBECD",NA,NA,"B (MDot First)",1,231,"SS1","SS1",26,"J","Judginess","y8ii7g",1,"response","38",2046,3610,3620,2046,3610,3620,1,2046,1574,0,NA,"Slider","J",3,"object-18","J","CFD-AF-211-066-N.jpg",NA,"SUPTM96648"
"154",1689003840209,"10/07/2023 15:44:00",1688989440209,-4,"10/07/2023 07:44:00",137495,33,"task-yv6i",NA,30599323,9084322,NA,"complete",NA,NA,"computer","Desktop or Laptop","Windows 10","Chrome 114.0.0.0","1370x703","1366x699",NA,NA,NA,"JV Task P3 (Updated)",4,"Anxious",NA,"In",NA,NA,"IJHKGAFBECD",NA,NA,"B (MDot First)",1,231,"SS1","SS1",26,"J","Fixation","w9zir9",2,"continue","",965,965,965,965,965,965,1,965,0,0,NA,"Fixation Timing","Fixation",1,"object-65","J","CFD-AF-211-066-N.jpg",NA,"SUPTM96648"
"155",1689003867561,"10/07/2023 15:44:27",1688989467561,-4,"10/07/2023 07:44:27",137495,33,"task-yv6i",NA,30599323,9084322,NA,"complete",NA,NA,"computer","Desktop or Laptop","Windows 10","Chrome 114.0.0.0","1370x703","1366x699",NA,NA,NA,"JV Task P3 (Updated)",4,"Anxious",NA,"In",NA,NA,"IJHKGAFBECD",NA,NA,"B (MDot First)",1,231,"SS1","SS1",27,"J","Judginess","y8ii7g",1,"continue","",6604,6587,6604,6604,6587,6604,1,6604,0,0,NA,"Click To Continue","Continue Button",1,"object-14","J","CFD-WF-037-029-S.jpeg",NA,"SUPTM96648"
"156",1689003867565,"10/07/2023 15:44:27",1688989467565,-4,"10/07/2023 07:44:27",137495,33,"task-yv6i",NA,30599323,9084322,NA,"complete",NA,NA,"computer","Desktop or Laptop","Windows 10","Chrome 114.0.0.0","1370x703","1366x699",NA,NA,NA,"JV Task P3 (Updated)",4,"Anxious",NA,"In",NA,NA,"IJHKGAFBECD",NA,NA,"B (MDot First)",1,231,"SS1","SS1",27,"J","Judginess","y8ii7g",1,"response","37",4974,6587,6604,4974,6587,6604,1,4974,1630,0,NA,"Slider","J",3,"object-18","J","CFD-WF-037-029-S.jpeg",NA,"SUPTM96648"
"157",1689003868504,"10/07/2023 15:44:28",1688989468504,-4,"10/07/2023 07:44:28",137495,33,"task-yv6i",NA,30599323,9084322,NA,"complete",NA,NA,"computer","Desktop or Laptop","Windows 10","Chrome 114.0.0.0","1370x703","1366x699",NA,NA,NA,"JV Task P3 (Updated)",4,"Anxious",NA,"In",NA,NA,"IJHKGAFBECD",NA,NA,"B (MDot First)",1,231,"SS1","SS1",27,"J","Fixation","w9zir9",2,"continue","",965,965,965,965,965,965,1,965,0,0,NA,"Fixation Timing","Fixation",1,"object-65","J","CFD-WF-037-029-S.jpeg",NA,"SUPTM96648"
"158",1689003871238,"10/07/2023 15:44:31",1688989471238,-4,"10/07/2023 07:44:31",137495,33,"task-yv6i",NA,30599323,9084322,NA,"complete",NA,NA,"computer","Desktop or Laptop","Windows 10","Chrome 114.0.0.0","1370x703","1366x699",NA,NA,NA,"JV Task P3 (Updated)",4,"Anxious",NA,"In",NA,NA,"IJHKGAFBECD",NA,NA,"B (MDot First)",1,231,"SS1","SS1",28,"J","Judginess","y8ii7g",1,"continue","",2735,2728,2735,2735,2728,2735,1,2735,0,0,NA,"Click To Continue","Continue Button",1,"object-14","J","CFD-IF-734-108-N.jpg",NA,"SUPTM96648"
"159",1689003871239,"10/07/2023 15:44:31",1688989471239,-4,"10/07/2023 07:44:31",137495,33,"task-yv6i",NA,30599323,9084322,NA,"complete",NA,NA,"computer","Desktop or Laptop","Windows 10","Chrome 114.0.0.0","1370x703","1366x699",NA,NA,NA,"JV Task P3 (Updated)",4,"Anxious",NA,"In",NA,NA,"IJHKGAFBECD",NA,NA,"B (MDot First)",1,231,"SS1","SS1",28,"J","Judginess","y8ii7g",1,"response","38",1697,2728,2735,1697,2728,2735,1,1697,1038,0,NA,"Slider","J",3,"object-18","J","CFD-IF-734-108-N.jpg",NA,"SUPTM96648"
"160",1689003872197,"10/07/2023 15:44:32",1688989472197,-4,"10/07/2023 07:44:32",137495,33,"task-yv6i",NA,30599323,9084322,NA,"complete",NA,NA,"computer","Desktop or Laptop","Windows 10","Chrome 114.0.0.0","1370x703","1366x699",NA,NA,NA,"JV Task P3 (Updated)",4,"Anxious",NA,"In",NA,NA,"IJHKGAFBECD",NA,NA,"B (MDot First)",1,231,"SS1","SS1",28,"J","Fixation","w9zir9",2,"continue","",965,965,965,965,965,965,1,965,0,0,NA,"Fixation Timing","Fixation",1,"object-65","J","CFD-IF-734-108-N.jpg",NA,"SUPTM96648"
"161",1689003875679,"10/07/2023 15:44:35",1688989475679,-4,"10/07/2023 07:44:35",137495,33,"task-yv6i",NA,30599323,9084322,NA,"complete",NA,NA,"computer","Desktop or Laptop","Windows 10","Chrome 114.0.0.0","1370x703","1366x699",NA,NA,NA,"JV Task P3 (Updated)",4,"Anxious",NA,"In",NA,NA,"IJHKGAFBECD",NA,NA,"B (MDot First)",1,231,"SS1","SS1",29,"J","Judginess","y8ii7g",1,"continue","",3482,3476,3482,3482,3476,3482,1,3482,0,0,NA,"Click To Continue","Continue Button",1,"object-14","J","CFD-WF-017-003-N.jpg",NA,"SUPTM96648"
"162",1689003875679,"10/07/2023 15:44:35",1688989475679,-4,"10/07/2023 07:44:35",137495,33,"task-yv6i",NA,30599323,9084322,NA,"complete",NA,NA,"computer","Desktop or Laptop","Windows 10","Chrome 114.0.0.0","1370x703","1366x699",NA,NA,NA,"JV Task P3 (Updated)",4,"Anxious",NA,"In",NA,NA,"IJHKGAFBECD",NA,NA,"B (MDot First)",1,231,"SS1","SS1",29,"J","Judginess","y8ii7g",1,"response","37",1680,3476,3483,1680,3476,3483,1,1680,1803,0,NA,"Slider","J",3,"object-18","J","CFD-WF-017-003-N.jpg",NA,"SUPTM96648"
"163",1689003876638,"10/07/2023 15:44:36",1688989476638,-4,"10/07/2023 07:44:36",137495,33,"task-yv6i",NA,30599323,9084322,NA,"complete",NA,NA,"computer","Desktop or Laptop","Windows 10","Chrome 114.0.0.0","1370x703","1366x699",NA,NA,NA,"JV Task P3 (Updated)",4,"Anxious",NA,"In",NA,NA,"IJHKGAFBECD",NA,NA,"B (MDot First)",1,231,"SS1","SS1",29,"J","Fixation","w9zir9",2,"continue","",965,965,965,965,965,965,1,965,0,0,NA,"Fixation Timing","Fixation",1,"object-65","J","CFD-WF-017-003-N.jpg",NA,"SUPTM96648"
"164",1689003936894,"10/07/2023 15:45:36",1688989536894,-4,"10/07/2023 07:45:36",137495,33,"task-yv6i",NA,30599323,9084322,NA,"complete",NA,NA,"computer","Desktop or Laptop","Windows 10","Chrome 114.0.0.0","1370x703","1366x699",NA,NA,NA,"JV Task P3 (Updated)",4,"Anxious",NA,"In",NA,NA,"IJHKGAFBECD",NA,NA,"B (MDot First)",1,231,"SS1","SS1",30,"J","Judginess","y8ii7g",1,"continue","",9221,9216,9221,9221,9216,9221,1,9221,0,0,NA,"Click To Continue","Continue Button",1,"object-14","J","CFD-WF-024-003-N.jpg",NA,"SUPTM96648"
"165",1689003936903,"10/07/2023 15:45:36",1688989536903,-4,"10/07/2023 07:45:36",137495,33,"task-yv6i",NA,30599323,9084322,NA,"complete",NA,NA,"computer","Desktop or Laptop","Windows 10","Chrome 114.0.0.0","1370x703","1366x699",NA,NA,NA,"JV Task P3 (Updated)",4,"Anxious",NA,"In",NA,NA,"IJHKGAFBECD",NA,NA,"B (MDot First)",1,231,"SS1","SS1",30,"J","Judginess","y8ii7g",1,"response","43",8051,9216,9230,8051,9216,9230,1,8051,1179,0,NA,"Slider","J",3,"object-18","J","CFD-WF-024-003-N.jpg",NA,"SUPTM96648"
"166",1689003937853,"10/07/2023 15:45:37",1688989537853,-4,"10/07/2023 07:45:37",137495,33,"task-yv6i",NA,30599323,9084322,NA,"complete",NA,NA,"computer","Desktop or Laptop","Windows 10","Chrome 114.0.0.0","1370x703","1366x699",NA,NA,NA,"JV Task P3 (Updated)",4,"Anxious",NA,"In",NA,NA,"IJHKGAFBECD",NA,NA,"B (MDot First)",1,231,"SS1","SS1",30,"J","Fixation","w9zir9",2,"continue","",964,964,964,964,964,964,1,964,0,0,NA,"Fixation Timing","Fixation",1,"object-65","J","CFD-WF-024-003-N.jpg",NA,"SUPTM96648"
"167",1689003940684,"10/07/2023 15:45:40",1688989540684,-4,"10/07/2023 07:45:40",137495,33,"task-yv6i",NA,30599323,9084322,NA,"complete",NA,NA,"computer","Desktop or Laptop","Windows 10","Chrome 114.0.0.0","1370x703","1366x699",NA,NA,NA,"JV Task P3 (Updated)",4,"Anxious",NA,"In",NA,NA,"IJHKGAFBECD",NA,NA,"B (MDot First)",1,231,"SS1","SS1",31,"J","Judginess","y8ii7g",1,"continue","",2832,2828,2832,2832,2828,2832,1,2832,0,0,NA,"Click To Continue","Continue Button",1,"object-14","J","CFD-WM-026-001-H.jpeg",NA,"SUPTM96648"
"168",1689003940685,"10/07/2023 15:45:40",1688989540685,-4,"10/07/2023 07:45:40",137495,33,"task-yv6i",NA,30599323,9084322,NA,"complete",NA,NA,"computer","Desktop or Laptop","Windows 10","Chrome 114.0.0.0","1370x703","1366x699",NA,NA,NA,"JV Task P3 (Updated)",4,"Anxious",NA,"In",NA,NA,"IJHKGAFBECD",NA,NA,"B (MDot First)",1,231,"SS1","SS1",31,"J","Judginess","y8ii7g",1,"response","64",1830,2828,2833,1830,2828,2833,1,1830,1003,0,NA,"Slider","J",3,"object-18","J","CFD-WM-026-001-H.jpeg",NA,"SUPTM96648"
"169",1689003941646,"10/07/2023 15:45:41",1688989541646,-4,"10/07/2023 07:45:41",137495,33,"task-yv6i",NA,30599323,9084322,NA,"complete",NA,NA,"computer","Desktop or Laptop","Windows 10","Chrome 114.0.0.0","1370x703","1366x699",NA,NA,NA,"JV Task P3 (Updated)",4,"Anxious",NA,"In",NA,NA,"IJHKGAFBECD",NA,NA,"B (MDot First)",1,231,"SS1","SS1",31,"J","Fixation","w9zir9",2,"continue","",965,965,965,965,965,965,1,965,0,0,NA,"Fixation Timing","Fixation",1,"object-65","J","CFD-WM-026-001-H.jpeg",NA,"SUPTM96648"
"170",1689003948501,"10/07/2023 15:45:48",1688989548501,-4,"10/07/2023 07:45:48",137495,33,"task-yv6i",NA,30599323,9084322,NA,"complete",NA,NA,"computer","Desktop or Laptop","Windows 10","Chrome 114.0.0.0","1370x703","1366x699",NA,NA,NA,"JV Task P3 (Updated)",4,"Anxious",NA,"In",NA,NA,"IJHKGAFBECD",NA,NA,"B (MDot First)",1,231,"SS1","SS1",32,"J","Judginess","y8ii7g",1,"continue","",6854,6837,6854,6854,6837,6854,1,6854,0,0,NA,"Click To Continue","Continue Button",1,"object-14","J","CFD-IM-711-011-H.jpeg",NA,"SUPTM96648"
"171",1689003948507,"10/07/2023 15:45:48",1688989548507,-4,"10/07/2023 07:45:48",137495,33,"task-yv6i",NA,30599323,9084322,NA,"complete",NA,NA,"computer","Desktop or Laptop","Windows 10","Chrome 114.0.0.0","1370x703","1366x699",NA,NA,NA,"JV Task P3 (Updated)",4,"Anxious",NA,"In",NA,NA,"IJHKGAFBECD",NA,NA,"B (MDot First)",1,231,"SS1","SS1",32,"J","Judginess","y8ii7g",1,"response","64",5872,6837,6854,5872,6837,6854,1,5872,982,0,NA,"Slider","J",3,"object-18","J","CFD-IM-711-011-H.jpeg",NA,"SUPTM96648"
"172",1689003949448,"10/07/2023 15:45:49",1688989549448,-4,"10/07/2023 07:45:49",137495,33,"task-yv6i",NA,30599323,9084322,NA,"complete",NA,NA,"computer","Desktop or Laptop","Windows 10","Chrome 114.0.0.0","1370x703","1366x699",NA,NA,NA,"JV Task P3 (Updated)",4,"Anxious",NA,"In",NA,NA,"IJHKGAFBECD",NA,NA,"B (MDot First)",1,231,"SS1","SS1",32,"J","Fixation","w9zir9",2,"continue","",965,965,965,965,965,965,1,965,0,0,NA,"Fixation Timing","Fixation",1,"object-65","J","CFD-IM-711-011-H.jpeg",NA,"SUPTM96648"
"173",1689003965721,"10/07/2023 15:46:05",1688989565721,-4,"10/07/2023 07:46:05",137495,33,"task-yv6i",NA,30599323,9084322,NA,"complete",NA,NA,"computer","Desktop or Laptop","Windows 10","Chrome 114.0.0.0","1370x703","1366x699",NA,NA,NA,"JV Task P3 (Updated)",4,"Anxious",NA,"In",NA,NA,"IJHKGAFBECD",NA,NA,"B (MDot First)",1,231,"SS1","SS1",33,"J","Judginess","y8ii7g",1,"continue","",16273,16268,16273,16273,16268,16273,1,16273,0,0,NA,"Click To Continue","Continue Button",1,"object-14","J","CFD-MM-308-001-H.jpeg",NA,"SUPTM96648"
"174",1689003965725,"10/07/2023 15:46:05",1688989565725,-4,"10/07/2023 07:46:05",137495,33,"task-yv6i",NA,30599323,9084322,NA,"complete",NA,NA,"computer","Desktop or Laptop","Windows 10","Chrome 114.0.0.0","1370x703","1366x699",NA,NA,NA,"JV Task P3 (Updated)",4,"Anxious",NA,"In",NA,NA,"IJHKGAFBECD",NA,NA,"B (MDot First)",1,231,"SS1","SS1",33,"J","Judginess","y8ii7g",1,"response","64",6670,16268,16277,6670,16268,16277,1,6670,9607,0,NA,"Slider","J",3,"object-18","J","CFD-MM-308-001-H.jpeg",NA,"SUPTM96648"
"175",1689003966682,"10/07/2023 15:46:06",1688989566682,-4,"10/07/2023 07:46:06",137495,33,"task-yv6i",NA,30599323,9084322,NA,"complete",NA,NA,"computer","Desktop or Laptop","Windows 10","Chrome 114.0.0.0","1370x703","1366x699",NA,NA,NA,"JV Task P3 (Updated)",4,"Anxious",NA,"In",NA,NA,"IJHKGAFBECD",NA,NA,"B (MDot First)",1,231,"SS1","SS1",33,"J","Fixation","w9zir9",2,"continue","",965,965,965,965,965,965,1,965,0,0,NA,"Fixation Timing","Fixation",1,"object-65","J","CFD-MM-308-001-H.jpeg",NA,"SUPTM96648"
"176",1689003972150,"10/07/2023 15:46:12",1688989572150,-4,"10/07/2023 07:46:12",137495,33,"task-yv6i",NA,30599323,9084322,NA,"complete",NA,NA,"computer","Desktop or Laptop","Windows 10","Chrome 114.0.0.0","1370x703","1366x699",NA,NA,NA,"JV Task P3 (Updated)",4,"Anxious",NA,"In",NA,NA,"IJHKGAFBECD",NA,NA,"B (MDot First)",1,231,"SS1","SS1",26,"V","Valence","xyoebq",1,"continue","",5469,5456,5469,5469,5456,5469,1,5469,0,0,NA,"Click To Continue","Continue Button",1,"object-25","V","CFD-BM-016-036-H.jpeg",NA,"SUPTM96648"
"177",1689003972151,"10/07/2023 15:46:12",1688989572151,-4,"10/07/2023 07:46:12",137495,33,"task-yv6i",NA,30599323,9084322,NA,"complete",NA,NA,"computer","Desktop or Laptop","Windows 10","Chrome 114.0.0.0","1370x703","1366x699",NA,NA,NA,"JV Task P3 (Updated)",4,"Anxious",NA,"In",NA,NA,"IJHKGAFBECD",NA,NA,"B (MDot First)",1,231,"SS1","SS1",26,"V","Valence","xyoebq",1,"response","73",2046,5456,5470,2046,5456,5470,1,2046,3424,0,NA,"Slider","J",3,"object-27","V","CFD-BM-016-036-H.jpeg",NA,"SUPTM96648"
"178",1689003973102,"10/07/2023 15:46:13",1688989573102,-4,"10/07/2023 07:46:13",137495,33,"task-yv6i",NA,30599323,9084322,NA,"complete",NA,NA,"computer","Desktop or Laptop","Windows 10","Chrome 114.0.0.0","1370x703","1366x699",NA,NA,NA,"JV Task P3 (Updated)",4,"Anxious",NA,"In",NA,NA,"IJHKGAFBECD",NA,NA,"B (MDot First)",1,231,"SS1","SS1",26,"V","Fixation","68owkj",2,"continue","",965,965,965,965,965,965,1,965,0,0,NA,"Fixation Timing","Fixation",1,"object-21","V","CFD-BM-016-036-H.jpeg",NA,"SUPTM96648"
"179",1689003976217,"10/07/2023 15:46:16",1688989576217,-4,"10/07/2023 07:46:16",137495,33,"task-yv6i",NA,30599323,9084322,NA,"complete",NA,NA,"computer","Desktop or Laptop","Windows 10","Chrome 114.0.0.0","1370x703","1366x699",NA,NA,NA,"JV Task P3 (Updated)",4,"Anxious",NA,"In",NA,NA,"IJHKGAFBECD",NA,NA,"B (MDot First)",1,231,"SS1","SS1",27,"V","Valence","xyoebq",1,"continue","",3111,3094,3111,3111,3094,3111,1,3111,0,0,NA,"Click To Continue","Continue Button",1,"object-25","V","CFD-AF-233-190-H.jpeg",NA,"SUPTM96648"
"180",1689003976224,"10/07/2023 15:46:16",1688989576224,-4,"10/07/2023 07:46:16",137495,33,"task-yv6i",NA,30599323,9084322,NA,"complete",NA,NA,"computer","Desktop or Laptop","Windows 10","Chrome 114.0.0.0","1370x703","1366x699",NA,NA,NA,"JV Task P3 (Updated)",4,"Anxious",NA,"In",NA,NA,"IJHKGAFBECD",NA,NA,"B (MDot First)",1,231,"SS1","SS1",27,"V","Valence","xyoebq",1,"response","68",2029,3094,3111,2029,3094,3111,1,2029,1082,0,NA,"Slider","J",3,"object-27","V","CFD-AF-233-190-H.jpeg",NA,"SUPTM96648"
"181",1689003977161,"10/07/2023 15:46:17",1688989577161,-4,"10/07/2023 07:46:17",137495,33,"task-yv6i",NA,30599323,9084322,NA,"complete",NA,NA,"computer","Desktop or Laptop","Windows 10","Chrome 114.0.0.0","1370x703","1366x699",NA,NA,NA,"JV Task P3 (Updated)",4,"Anxious",NA,"In",NA,NA,"IJHKGAFBECD",NA,NA,"B (MDot First)",1,231,"SS1","SS1",27,"V","Fixation","68owkj",2,"continue","",965,965,965,965,965,965,1,965,0,0,NA,"Fixation Timing","Fixation",1,"object-21","V","CFD-AF-233-190-H.jpeg",NA,"SUPTM96648"
"182",1689003986119,"10/07/2023 15:46:26",1688989586119,-4,"10/07/2023 07:46:26",137495,33,"task-yv6i",NA,30599323,9084322,NA,"complete",NA,NA,"computer","Desktop or Laptop","Windows 10","Chrome 114.0.0.0","1370x703","1366x699",NA,NA,NA,"JV Task P3 (Updated)",4,"Anxious",NA,"In",NA,NA,"IJHKGAFBECD",NA,NA,"B (MDot First)",1,231,"SS1","SS1",28,"V","Valence","xyoebq",1,"continue","",8957,8949,8957,8957,8949,8957,1,8957,0,0,NA,"Click To Continue","Continue Button",1,"object-25","V","CFD-WF-024-003-N.jpg",NA,"SUPTM96648"
"183",1689003986119,"10/07/2023 15:46:26",1688989586119,-4,"10/07/2023 07:46:26",137495,33,"task-yv6i",NA,30599323,9084322,NA,"complete",NA,NA,"computer","Desktop or Laptop","Windows 10","Chrome 114.0.0.0","1370x703","1366x699",NA,NA,NA,"JV Task P3 (Updated)",4,"Anxious",NA,"In",NA,NA,"IJHKGAFBECD",NA,NA,"B (MDot First)",1,231,"SS1","SS1",28,"V","Valence","xyoebq",1,"response","38",6487,8949,8958,6487,8949,8958,1,6487,2471,0,NA,"Slider","J",3,"object-27","V","CFD-WF-024-003-N.jpg",NA,"SUPTM96648"
"184",1689003987075,"10/07/2023 15:46:27",1688989587075,-4,"10/07/2023 07:46:27",137495,33,"task-yv6i",NA,30599323,9084322,NA,"complete",NA,NA,"computer","Desktop or Laptop","Windows 10","Chrome 114.0.0.0","1370x703","1366x699",NA,NA,NA,"JV Task P3 (Updated)",4,"Anxious",NA,"In",NA,NA,"IJHKGAFBECD",NA,NA,"B (MDot First)",1,231,"SS1","SS1",28,"V","Fixation","68owkj",2,"continue","",965,965,965,965,965,965,1,965,0,0,NA,"Fixation Timing","Fixation",1,"object-21","V","CFD-WF-024-003-N.jpg",NA,"SUPTM96648"
"185",1689003990245,"10/07/2023 15:46:30",1688989590245,-4,"10/07/2023 07:46:30",137495,33,"task-yv6i",NA,30599323,9084322,NA,"complete",NA,NA,"computer","Desktop or Laptop","Windows 10","Chrome 114.0.0.0","1370x703","1366x699",NA,NA,NA,"JV Task P3 (Updated)",4,"Anxious",NA,"In",NA,NA,"IJHKGAFBECD",NA,NA,"B (MDot First)",1,231,"SS1","SS1",34,"J","Judginess","y8ii7g",1,"continue","",3170,3161,3170,3170,3161,3170,1,3170,0,0,NA,"Click To Continue","Continue Button",1,"object-14","J","CFD-MM-313-002-H.jpeg",NA,"SUPTM96648"
"186",1689003990246,"10/07/2023 15:46:30",1688989590246,-4,"10/07/2023 07:46:30",137495,33,"task-yv6i",NA,30599323,9084322,NA,"complete",NA,NA,"computer","Desktop or Laptop","Windows 10","Chrome 114.0.0.0","1370x703","1366x699",NA,NA,NA,"JV Task P3 (Updated)",4,"Anxious",NA,"In",NA,NA,"IJHKGAFBECD",NA,NA,"B (MDot First)",1,231,"SS1","SS1",34,"J","Judginess","y8ii7g",1,"response","69",1930,3161,3171,1930,3161,3171,1,1930,1241,0,NA,"Slider","J",3,"object-18","J","CFD-MM-313-002-H.jpeg",NA,"SUPTM96648"
"187",1689003991201,"10/07/2023 15:46:31",1688989591201,-4,"10/07/2023 07:46:31",137495,33,"task-yv6i",NA,30599323,9084322,NA,"complete",NA,NA,"computer","Desktop or Laptop","Windows 10","Chrome 114.0.0.0","1370x703","1366x699",NA,NA,NA,"JV Task P3 (Updated)",4,"Anxious",NA,"In",NA,NA,"IJHKGAFBECD",NA,NA,"B (MDot First)",1,231,"SS1","SS1",34,"J","Fixation","w9zir9",2,"continue","",964,964,964,964,964,964,1,964,0,0,NA,"Fixation Timing","Fixation",1,"object-65","J","CFD-MM-313-002-H.jpeg",NA,"SUPTM96648"
"188",1689003996083,"10/07/2023 15:46:36",1688989596083,-4,"10/07/2023 07:46:36",137495,33,"task-yv6i",NA,30599323,9084322,NA,"complete",NA,NA,"computer","Desktop or Laptop","Windows 10","Chrome 114.0.0.0","1370x703","1366x699",NA,NA,NA,"JV Task P3 (Updated)",4,"Anxious",NA,"In",NA,NA,"IJHKGAFBECD",NA,NA,"B (MDot First)",1,231,"SS1","SS1",35,"J","Judginess","y8ii7g",1,"continue","",4883,4874,4883,4883,4874,4883,1,4883,0,0,NA,"Click To Continue","Continue Button",1,"object-14","J","CFD-WF-037-029-H.jpeg",NA,"SUPTM96648"
"189",1689003996084,"10/07/2023 15:46:36",1688989596084,-4,"10/07/2023 07:46:36",137495,33,"task-yv6i",NA,30599323,9084322,NA,"complete",NA,NA,"computer","Desktop or Laptop","Windows 10","Chrome 114.0.0.0","1370x703","1366x699",NA,NA,NA,"JV Task P3 (Updated)",4,"Anxious",NA,"In",NA,NA,"IJHKGAFBECD",NA,NA,"B (MDot First)",1,231,"SS1","SS1",35,"J","Judginess","y8ii7g",1,"response","70",2179,4874,4884,2179,4874,4884,1,2179,2705,0,NA,"Slider","J",3,"object-18","J","CFD-WF-037-029-H.jpeg",NA,"SUPTM96648"
"190",1689003997039,"10/07/2023 15:46:37",1688989597039,-4,"10/07/2023 07:46:37",137495,33,"task-yv6i",NA,30599323,9084322,NA,"complete",NA,NA,"computer","Desktop or Laptop","Windows 10","Chrome 114.0.0.0","1370x703","1366x699",NA,NA,NA,"JV Task P3 (Updated)",4,"Anxious",NA,"In",NA,NA,"IJHKGAFBECD",NA,NA,"B (MDot First)",1,231,"SS1","SS1",35,"J","Fixation","w9zir9",2,"continue","",965,965,965,965,965,965,1,965,0,0,NA,"Fixation Timing","Fixation",1,"object-65","J","CFD-WF-037-029-H.jpeg",NA,"SUPTM96648"
"191",1689004005119,"10/07/2023 15:46:45",1688989605119,-4,"10/07/2023 07:46:45",137495,33,"task-yv6i",NA,30599323,9084322,NA,"complete",NA,NA,"computer","Desktop or Laptop","Windows 10","Chrome 114.0.0.0","1370x703","1366x699",NA,NA,NA,"JV Task P3 (Updated)",4,"Anxious",NA,"In",NA,NA,"IJHKGAFBECD",NA,NA,"B (MDot First)",1,231,"SS1","SS1",29,"V","Valence","xyoebq",1,"continue","",8080,8068,8080,8080,8068,8080,1,8080,0,0,NA,"Click To Continue","Continue Button",1,"object-25","V","CFD-AF-211-066-H.jpeg",NA,"SUPTM96648"
"192",1689004005127,"10/07/2023 15:46:45",1688989605127,-4,"10/07/2023 07:46:45",137495,33,"task-yv6i",NA,30599323,9084322,NA,"complete",NA,NA,"computer","Desktop or Laptop","Windows 10","Chrome 114.0.0.0","1370x703","1366x699",NA,NA,NA,"JV Task P3 (Updated)",4,"Anxious",NA,"In",NA,NA,"IJHKGAFBECD",NA,NA,"B (MDot First)",1,231,"SS1","SS1",29,"V","Valence","xyoebq",1,"response","75",4009,8068,8085,4009,8068,8085,1,4009,4076,0,NA,"Slider","J",3,"object-27","V","CFD-AF-211-066-H.jpeg",NA,"SUPTM96648"
"193",1689004006072,"10/07/2023 15:46:46",1688989606072,-4,"10/07/2023 07:46:46",137495,33,"task-yv6i",NA,30599323,9084322,NA,"complete",NA,NA,"computer","Desktop or Laptop","Windows 10","Chrome 114.0.0.0","1370x703","1366x699",NA,NA,NA,"JV Task P3 (Updated)",4,"Anxious",NA,"In",NA,NA,"IJHKGAFBECD",NA,NA,"B (MDot First)",1,231,"SS1","SS1",29,"V","Fixation","68owkj",2,"continue","",965,965,965,965,965,965,1,965,0,0,NA,"Fixation Timing","Fixation",1,"object-21","V","CFD-AF-211-066-H.jpeg",NA,"SUPTM96648"
