"Event.Index","UTC.Timestamp","UTC.Date.and.Time","Local.Timestamp","Local.Timezone","Local.Date.and.Time","Experiment.ID","Experiment.Version","Tree.Node.Key","Repeat.Key","Schedule.ID","Participant.Private.ID","Participant.Starting.Group","Participant.Status","Participant.Completion.Code","Participant.External.Session.ID","Participant.Device.Type","Participant.Device","Participant.OS","Participant.Browser","Participant.Monitor.Size","Participant.Viewport.Size","Checkpoint","Room.ID","Room.Order","Task.Name","Task.Version","branch.ln1a","randomiser.vzsr","branch.hkzp","randomiser.ywar","randomiser.q6ah","order.ot79","randomiser.ahe2","randomiser.ckhi","randomiser.lqqr","randomiser.pobd","randomiser.8gdj","Spreadsheet","Current.Spreadsheet","Trial.Number","Display","Screen","Screen.ID","Screen.Counter","Response.Type","Response","Onset.Time","Clock.Time","Reaction.Time","Absolute.Onset.Time","Absolute.Clock.Time","Absolute.Reaction.Time","Correct","Response.Onset","Response.Duration","Proportion","Tag","Component.Name","Object.Name","Object.Number","Object.ID","Spreadsheet..display","Spreadsheet..stimulus","Manipulation..Spreadsheet","Random_ID"
"1",1689025202044,"10/07/2023 21:40:02",1689028802044,1,"10/07/2023 23:40:02",137495,33,"task-atm6",NA,30604225,9086484,NA,"complete",NA,NA,"computer","Desktop or Laptop","Windows 10","Edge 114.0.1823.67","1536x864","1147x603",NA,NA,NA,"JV Task P3 (Updated)",4,"Anxious",NA,"In",NA,NA,"HIGJFKEADBC",NA,NA,"B (MDot First)",2,321,"SS1","SS1",NA,"","","",NA,"5","BEGIN",NA,NA,NA,NA,NA,NA,0,NA,NA,NA,NA,"","",NA,"","","",NA,"SUPTM16544"
"2",1689025211212,"10/07/2023 21:40:11",1689028811212,1,"10/07/2023 23:40:11",137495,33,"task-atm6",NA,30604225,9086484,NA,"complete",NA,NA,"computer","Desktop or Laptop","Windows 10","Edge 114.0.1823.67","1536x864","1147x603",NA,NA,NA,"JV Task P3 (Updated)",4,"Anxious",NA,"In",NA,NA,"HIGJFKEADBC",NA,NA,"B (MDot First)",2,321,"SS1","SS1",1,"V","Valence","xyoebq",1,"continue","",9075.066,9066.026,9075.066,9075.066,9066.026,9075.066,1,9075.066,0,0,NA,"Click To Continue","Continue Button",1,"object-25","V","CFD-AF-211-066-N.jpg",NA,"SUPTM16544"
"3",1689025211212,"10/07/2023 21:40:11",1689028811212,1,"10/07/2023 23:40:11",137495,33,"task-atm6",NA,30604225,9086484,NA,"complete",NA,NA,"computer","Desktop or Laptop","Windows 10","Edge 114.0.1823.67","1536x864","1147x603",NA,NA,NA,"JV Task P3 (Updated)",4,"Anxious",NA,"In",NA,NA,"HIGJFKEADBC",NA,NA,"B (MDot First)",2,321,"SS1","SS1",1,"V","Valence","xyoebq",1,"response","49",4266.486,9066.026,9075.8659997139,4266.486,9066.026,9075.8659997139,1,4266.486,4809.3799997139,0,NA,"Slider","J",3,"object-27","V","CFD-AF-211-066-N.jpg",NA,"SUPTM16544"
"4",1689025212169,"10/07/2023 21:40:12",1689028812169,1,"10/07/2023 23:40:12",137495,33,"task-atm6",NA,30604225,9086484,NA,"complete",NA,NA,"computer","Desktop or Laptop","Windows 10","Edge 114.0.1823.67","1536x864","1147x603",NA,NA,NA,"JV Task P3 (Updated)",4,"Anxious",NA,"In",NA,NA,"HIGJFKEADBC",NA,NA,"B (MDot First)",2,321,"SS1","SS1",1,"V","Fixation","68owkj",2,"continue","",966.137000000001,966.137000000001,966.137000000001,966.137000000001,966.137000000001,966.137000000001,1,966.137000000001,0,0,NA,"Fixation Timing","Fixation",1,"object-21","V","CFD-AF-211-066-N.jpg",NA,"SUPTM16544"
"5",1689025217073,"10/07/2023 21:40:17",1689028817073,1,"10/07/2023 23:40:17",137495,33,"task-atm6",NA,30604225,9086484,NA,"complete",NA,NA,"computer","Desktop or Laptop","Windows 10","Edge 114.0.1823.67","1536x864","1147x603",NA,NA,NA,"JV Task P3 (Updated)",4,"Anxious",NA,"In",NA,NA,"HIGJFKEADBC",NA,NA,"B (MDot First)",2,321,"SS1","SS1",1,"J","Judginess","y8ii7g",1,"continue","",4904.10299980927,4899.458,4904.10299980927,4904.10299980927,4899.458,4904.10299980927,1,4904.10299980927,0,0,NA,"Click To Continue","Continue Button",1,"object-14","J","CFD-WF-037-029-H.jpeg",NA,"SUPTM16544"
"6",1689025217073,"10/07/2023 21:40:17",1689028817073,1,"10/07/2023 23:40:17",137495,33,"task-atm6",NA,30604225,9086484,NA,"complete",NA,NA,"computer","Desktop or Laptop","Windows 10","Edge 114.0.1823.67","1536x864","1147x603",NA,NA,NA,"JV Task P3 (Updated)",4,"Anxious",NA,"In",NA,NA,"HIGJFKEADBC",NA,NA,"B (MDot First)",2,321,"SS1","SS1",1,"J","Judginess","y8ii7g",1,"response","71",2983.373,4899.458,4904.30299961853,2983.373,4899.458,4904.30299961853,1,2983.373,1920.92999961853,0,NA,"Slider","J",3,"object-18","J","CFD-WF-037-029-H.jpeg",NA,"SUPTM16544"
"7",1689025218036,"10/07/2023 21:40:18",1689028818036,1,"10/07/2023 23:40:18",137495,33,"task-atm6",NA,30604225,9086484,NA,"complete",NA,NA,"computer","Desktop or Laptop","Windows 10","Edge 114.0.1823.67","1536x864","1147x603",NA,NA,NA,"JV Task P3 (Updated)",4,"Anxious",NA,"In",NA,NA,"HIGJFKEADBC",NA,NA,"B (MDot First)",2,321,"SS1","SS1",1,"J","Fixation","w9zir9",2,"continue","",966.523000000001,966.523000000001,966.523000000001,966.523000000001,966.523000000001,966.523000000001,1,966.523000000001,0,0,NA,"Fixation Timing","Fixation",1,"object-65","J","CFD-WF-037-029-H.jpeg",NA,"SUPTM16544"
"8",1689025224075,"10/07/2023 21:40:24",1689028824075,1,"10/07/2023 23:40:24",137495,33,"task-atm6",NA,30604225,9086484,NA,"complete",NA,NA,"computer","Desktop or Laptop","Windows 10","Edge 114.0.1823.67","1536x864","1147x603",NA,NA,NA,"JV Task P3 (Updated)",4,"Anxious",NA,"In",NA,NA,"HIGJFKEADBC",NA,NA,"B (MDot First)",2,321,"SS1","SS1",2,"V","Valence","xyoebq",1,"continue","",6039.922,6032.982,6039.922,6039.922,6032.982,6039.922,1,6039.922,0,0,NA,"Click To Continue","Continue Button",1,"object-25","V","CFD-IF-734-108-N.jpg",NA,"SUPTM16544"
"9",1689025224076,"10/07/2023 21:40:24",1689028824076,1,"10/07/2023 23:40:24",137495,33,"task-atm6",NA,30604225,9086484,NA,"complete",NA,NA,"computer","Desktop or Laptop","Windows 10","Edge 114.0.1823.67","1536x864","1147x603",NA,NA,NA,"JV Task P3 (Updated)",4,"Anxious",NA,"In",NA,NA,"HIGJFKEADBC",NA,NA,"B (MDot First)",2,321,"SS1","SS1",2,"V","Valence","xyoebq",1,"response","60",4149.534,6032.982,6041.922,4149.534,6032.982,6041.922,1,4149.534,1892.388,0,NA,"Slider","J",3,"object-27","V","CFD-IF-734-108-N.jpg",NA,"SUPTM16544"
"10",1689025225036,"10/07/2023 21:40:25",1689028825036,1,"10/07/2023 23:40:25",137495,33,"task-atm6",NA,30604225,9086484,NA,"complete",NA,NA,"computer","Desktop or Laptop","Windows 10","Edge 114.0.1823.67","1536x864","1147x603",NA,NA,NA,"JV Task P3 (Updated)",4,"Anxious",NA,"In",NA,NA,"HIGJFKEADBC",NA,NA,"B (MDot First)",2,321,"SS1","SS1",2,"V","Fixation","68owkj",2,"continue","",966.402999999998,966.402999999998,966.402999999998,966.402999999998,966.402999999998,966.402999999998,1,966.402999999998,0,0,NA,"Fixation Timing","Fixation",1,"object-21","V","CFD-IF-734-108-N.jpg",NA,"SUPTM16544"
"11",1689025231089,"10/07/2023 21:40:31",1689028831089,1,"10/07/2023 23:40:31",137495,33,"task-atm6",NA,30604225,9086484,NA,"complete",NA,NA,"computer","Desktop or Laptop","Windows 10","Edge 114.0.1823.67","1536x864","1147x603",NA,NA,NA,"JV Task P3 (Updated)",4,"Anxious",NA,"In",NA,NA,"HIGJFKEADBC",NA,NA,"B (MDot First)",2,321,"SS1","SS1",2,"J","Judginess","y8ii7g",1,"continue","",6055.3369997139,6049.059,6055.3369997139,6055.3369997139,6049.059,6055.3369997139,1,6055.3369997139,0,0,NA,"Click To Continue","Continue Button",1,"object-14","J","CFD-IF-734-108-S.jpeg",NA,"SUPTM16544"
"12",1689025231090,"10/07/2023 21:40:31",1689028831090,1,"10/07/2023 23:40:31",137495,33,"task-atm6",NA,30604225,9086484,NA,"complete",NA,NA,"computer","Desktop or Laptop","Windows 10","Edge 114.0.1823.67","1536x864","1147x603",NA,NA,NA,"JV Task P3 (Updated)",4,"Anxious",NA,"In",NA,NA,"HIGJFKEADBC",NA,NA,"B (MDot First)",2,321,"SS1","SS1",2,"J","Judginess","y8ii7g",1,"response","26",2849.581,6049.059,6055.73699980927,2849.581,6049.059,6055.73699980927,1,2849.581,3206.15599980926,0,NA,"Slider","J",3,"object-18","J","CFD-IF-734-108-S.jpeg",NA,"SUPTM16544"
"13",1689025232051,"10/07/2023 21:40:32",1689028832051,1,"10/07/2023 23:40:32",137495,33,"task-atm6",NA,30604225,9086484,NA,"complete",NA,NA,"computer","Desktop or Laptop","Windows 10","Edge 114.0.1823.67","1536x864","1147x603",NA,NA,NA,"JV Task P3 (Updated)",4,"Anxious",NA,"In",NA,NA,"HIGJFKEADBC",NA,NA,"B (MDot First)",2,321,"SS1","SS1",2,"J","Fixation","w9zir9",2,"continue","",966.724999999999,966.724999999999,966.724999999999,966.724999999999,966.724999999999,966.724999999999,1,966.724999999999,0,0,NA,"Fixation Timing","Fixation",1,"object-65","J","CFD-IF-734-108-S.jpeg",NA,"SUPTM16544"
"14",1689025244728,"10/07/2023 21:40:44",1689028844728,1,"10/07/2023 23:40:44",137495,33,"task-atm6",NA,30604225,9086484,NA,"complete",NA,NA,"computer","Desktop or Laptop","Windows 10","Edge 114.0.1823.67","1536x864","1147x603",NA,NA,NA,"JV Task P3 (Updated)",4,"Anxious",NA,"In",NA,NA,"HIGJFKEADBC",NA,NA,"B (MDot First)",2,321,"SS1","SS1",3,"V","Valence","xyoebq",1,"continue","",12678.4529998093,12665.391,12678.4529998093,12678.4529998093,12665.391,12678.4529998093,1,12678.4529998093,0,0,NA,"Click To Continue","Continue Button",1,"object-25","V","CFD-IM-695-001-S.jpeg",NA,"SUPTM16544"
"15",1689025244732,"10/07/2023 21:40:44",1689028844732,1,"10/07/2023 23:40:44",137495,33,"task-atm6",NA,30604225,9086484,NA,"complete",NA,NA,"computer","Desktop or Laptop","Windows 10","Edge 114.0.1823.67","1536x864","1147x603",NA,NA,NA,"JV Task P3 (Updated)",4,"Anxious",NA,"In",NA,NA,"HIGJFKEADBC",NA,NA,"B (MDot First)",2,321,"SS1","SS1",3,"V","Valence","xyoebq",1,"response","32",3066.133,12665.391,12681.9529998093,3066.133,12665.391,12681.9529998093,1,3066.133,9615.81999980927,0,NA,"Slider","J",3,"object-27","V","CFD-IM-695-001-S.jpeg",NA,"SUPTM16544"
"16",1689025245682,"10/07/2023 21:40:45",1689028845682,1,"10/07/2023 23:40:45",137495,33,"task-atm6",NA,30604225,9086484,NA,"complete",NA,NA,"computer","Desktop or Laptop","Windows 10","Edge 114.0.1823.67","1536x864","1147x603",NA,NA,NA,"JV Task P3 (Updated)",4,"Anxious",NA,"In",NA,NA,"HIGJFKEADBC",NA,NA,"B (MDot First)",2,321,"SS1","SS1",3,"V","Fixation","68owkj",2,"continue","",966.195,966.195,966.195,966.195,966.195,966.195,1,966.195,0,0,NA,"Fixation Timing","Fixation",1,"object-21","V","CFD-IM-695-001-S.jpeg",NA,"SUPTM16544"
"17",1689025254300,"10/07/2023 21:40:54",1689028854300,1,"10/07/2023 23:40:54",137495,33,"task-atm6",NA,30604225,9086484,NA,"complete",NA,NA,"computer","Desktop or Laptop","Windows 10","Edge 114.0.1823.67","1536x864","1147x603",NA,NA,NA,"JV Task P3 (Updated)",4,"Anxious",NA,"In",NA,NA,"HIGJFKEADBC",NA,NA,"B (MDot First)",2,321,"SS1","SS1",4,"V","Valence","xyoebq",1,"continue","",8619.36699980927,8615.569,8619.36699980927,8619.36699980927,8615.569,8619.36699980927,1,8619.36699980927,0,0,NA,"Click To Continue","Continue Button",1,"object-25","V","CFD-WF-024-003-N.jpg",NA,"SUPTM16544"
"18",1689025254301,"10/07/2023 21:40:54",1689028854301,1,"10/07/2023 23:40:54",137495,33,"task-atm6",NA,30604225,9086484,NA,"complete",NA,NA,"computer","Desktop or Laptop","Windows 10","Edge 114.0.1823.67","1536x864","1147x603",NA,NA,NA,"JV Task P3 (Updated)",4,"Anxious",NA,"In",NA,NA,"HIGJFKEADBC",NA,NA,"B (MDot First)",2,321,"SS1","SS1",4,"V","Valence","xyoebq",1,"response","62",4716.504,8615.569,8619.56699961853,4716.504,8615.569,8619.56699961853,1,4716.504,3903.06299961853,0,NA,"Slider","J",3,"object-27","V","CFD-WF-024-003-N.jpg",NA,"SUPTM16544"
"19",1689025255264,"10/07/2023 21:40:55",1689028855264,1,"10/07/2023 23:40:55",137495,33,"task-atm6",NA,30604225,9086484,NA,"complete",NA,NA,"computer","Desktop or Laptop","Windows 10","Edge 114.0.1823.67","1536x864","1147x603",NA,NA,NA,"JV Task P3 (Updated)",4,"Anxious",NA,"In",NA,NA,"HIGJFKEADBC",NA,NA,"B (MDot First)",2,321,"SS1","SS1",4,"V","Fixation","68owkj",2,"continue","",966.608,966.608,966.608,966.608,966.608,966.608,1,966.608,0,0,NA,"Fixation Timing","Fixation",1,"object-21","V","CFD-WF-024-003-N.jpg",NA,"SUPTM16544"
"20",1689025264647,"10/07/2023 21:41:04",1689028864647,1,"10/07/2023 23:41:04",137495,33,"task-atm6",NA,30604225,9086484,NA,"complete",NA,NA,"computer","Desktop or Laptop","Windows 10","Edge 114.0.1823.67","1536x864","1147x603",NA,NA,NA,"JV Task P3 (Updated)",4,"Anxious",NA,"In",NA,NA,"HIGJFKEADBC",NA,NA,"B (MDot First)",2,321,"SS1","SS1",3,"J","Judginess","y8ii7g",1,"continue","",9383.7899997139,9382.13299999999,9383.7899997139,9383.7899997139,9382.13299999999,9383.7899997139,1,9383.7899997139,0,0,NA,"Click To Continue","Continue Button",1,"object-14","J","CFD-AF-211-066-N.jpg",NA,"SUPTM16544"
"21",1689025264647,"10/07/2023 21:41:04",1689028864647,1,"10/07/2023 23:41:04",137495,33,"task-atm6",NA,30604225,9086484,NA,"complete",NA,NA,"computer","Desktop or Laptop","Windows 10","Edge 114.0.1823.67","1536x864","1147x603",NA,NA,NA,"JV Task P3 (Updated)",4,"Anxious",NA,"In",NA,NA,"HIGJFKEADBC",NA,NA,"B (MDot First)",2,321,"SS1","SS1",3,"J","Judginess","y8ii7g",1,"response","68",4582.74299999999,9382.13299999999,9384.08999990463,4582.74299999999,9382.13299999999,9384.08999990463,1,4582.74299999999,4801.34699990464,0,NA,"Slider","J",3,"object-18","J","CFD-AF-211-066-N.jpg",NA,"SUPTM16544"
"22",1689025265613,"10/07/2023 21:41:05",1689028865613,1,"10/07/2023 23:41:05",137495,33,"task-atm6",NA,30604225,9086484,NA,"complete",NA,NA,"computer","Desktop or Laptop","Windows 10","Edge 114.0.1823.67","1536x864","1147x603",NA,NA,NA,"JV Task P3 (Updated)",4,"Anxious",NA,"In",NA,NA,"HIGJFKEADBC",NA,NA,"B (MDot First)",2,321,"SS1","SS1",3,"J","Fixation","w9zir9",2,"continue","",966.719000000005,966.719000000005,966.719000000005,966.719000000005,966.719000000005,966.719000000005,1,966.719000000005,0,0,NA,"Fixation Timing","Fixation",1,"object-65","J","CFD-AF-211-066-N.jpg",NA,"SUPTM16544"
"23",1689025270669,"10/07/2023 21:41:10",1689028870669,1,"10/07/2023 23:41:10",137495,33,"task-atm6",NA,30604225,9086484,NA,"complete",NA,NA,"computer","Desktop or Laptop","Windows 10","Edge 114.0.1823.67","1536x864","1147x603",NA,NA,NA,"JV Task P3 (Updated)",4,"Anxious",NA,"In",NA,NA,"HIGJFKEADBC",NA,NA,"B (MDot First)",2,321,"SS1","SS1",4,"J","Judginess","y8ii7g",1,"continue","",5056.83799980926,5049.57199999999,5056.83799980926,5056.83799980926,5049.57199999999,5056.83799980926,1,5056.83799980926,0,0,NA,"Click To Continue","Continue Button",1,"object-14","J","CFD-WF-009-001-S.jpeg",NA,"SUPTM16544"
"24",1689025270669,"10/07/2023 21:41:10",1689028870669,1,"10/07/2023 23:41:10",137495,33,"task-atm6",NA,30604225,9086484,NA,"complete",NA,NA,"computer","Desktop or Laptop","Windows 10","Edge 114.0.1823.67","1536x864","1147x603",NA,NA,NA,"JV Task P3 (Updated)",4,"Anxious",NA,"In",NA,NA,"HIGJFKEADBC",NA,NA,"B (MDot First)",2,321,"SS1","SS1",4,"J","Judginess","y8ii7g",1,"response","20",2949.878,5049.57199999999,5057.138,2949.878,5049.57199999999,5057.138,1,2949.878,2107.25999999999,0,NA,"Slider","J",3,"object-18","J","CFD-WF-009-001-S.jpeg",NA,"SUPTM16544"
"25",1689025271629,"10/07/2023 21:41:11",1689028871629,1,"10/07/2023 23:41:11",137495,33,"task-atm6",NA,30604225,9086484,NA,"complete",NA,NA,"computer","Desktop or Laptop","Windows 10","Edge 114.0.1823.67","1536x864","1147x603",NA,NA,NA,"JV Task P3 (Updated)",4,"Anxious",NA,"In",NA,NA,"HIGJFKEADBC",NA,NA,"B (MDot First)",2,321,"SS1","SS1",4,"J","Fixation","w9zir9",2,"continue","",966.435000000012,966.435000000012,966.435000000012,966.435000000012,966.435000000012,966.435000000012,1,966.435000000012,0,0,NA,"Fixation Timing","Fixation",1,"object-65","J","CFD-WF-009-001-S.jpeg",NA,"SUPTM16544"
"26",1689025275902,"10/07/2023 21:41:15",1689028875902,1,"10/07/2023 23:41:15",137495,33,"task-atm6",NA,30604225,9086484,NA,"complete",NA,NA,"computer","Desktop or Laptop","Windows 10","Edge 114.0.1823.67","1536x864","1147x603",NA,NA,NA,"JV Task P3 (Updated)",4,"Anxious",NA,"In",NA,NA,"HIGJFKEADBC",NA,NA,"B (MDot First)",2,321,"SS1","SS1",5,"J","Judginess","y8ii7g",1,"continue","",4273.23099990463,4266.39,4273.23099990463,4273.23099990463,4266.39,4273.23099990463,1,4273.23099990463,0,0,NA,"Click To Continue","Continue Button",1,"object-14","J","CFD-MM-308-001-S.jpeg",NA,"SUPTM16544"
"27",1689025275904,"10/07/2023 21:41:15",1689028875904,1,"10/07/2023 23:41:15",137495,33,"task-atm6",NA,30604225,9086484,NA,"complete",NA,NA,"computer","Desktop or Laptop","Windows 10","Edge 114.0.1823.67","1536x864","1147x603",NA,NA,NA,"JV Task P3 (Updated)",4,"Anxious",NA,"In",NA,NA,"HIGJFKEADBC",NA,NA,"B (MDot First)",2,321,"SS1","SS1",5,"J","Judginess","y8ii7g",1,"response","34",2399.60799999999,4266.39,4275.73099990463,2399.60799999999,4266.39,4275.73099990463,1,2399.60799999999,1876.12299990463,0,NA,"Slider","J",3,"object-18","J","CFD-MM-308-001-S.jpeg",NA,"SUPTM16544"
"28",1689025276864,"10/07/2023 21:41:16",1689028876864,1,"10/07/2023 23:41:16",137495,33,"task-atm6",NA,30604225,9086484,NA,"complete",NA,NA,"computer","Desktop or Laptop","Windows 10","Edge 114.0.1823.67","1536x864","1147x603",NA,NA,NA,"JV Task P3 (Updated)",4,"Anxious",NA,"In",NA,NA,"HIGJFKEADBC",NA,NA,"B (MDot First)",2,321,"SS1","SS1",5,"J","Fixation","w9zir9",2,"continue","",968.599999999991,968.599999999991,968.599999999991,968.599999999991,968.599999999991,968.599999999991,1,968.599999999991,0,0,NA,"Fixation Timing","Fixation",1,"object-65","J","CFD-MM-308-001-S.jpeg",NA,"SUPTM16544"
"29",1689025281361,"10/07/2023 21:41:21",1689028881361,1,"10/07/2023 23:41:21",137495,33,"task-atm6",NA,30604225,9086484,NA,"complete",NA,NA,"computer","Desktop or Laptop","Windows 10","Edge 114.0.1823.67","1536x864","1147x603",NA,NA,NA,"JV Task P3 (Updated)",4,"Anxious",NA,"In",NA,NA,"HIGJFKEADBC",NA,NA,"B (MDot First)",2,321,"SS1","SS1",6,"J","Judginess","y8ii7g",1,"continue","",4497.74099990464,4480.696,4497.74099990464,4497.74099990464,4480.696,4497.74099990464,1,4497.74099990464,0,0,NA,"Click To Continue","Continue Button",1,"object-14","J","CFD-IF-734-108-N.jpg",NA,"SUPTM16544"
"30",1689025281361,"10/07/2023 21:41:21",1689028881361,1,"10/07/2023 23:41:21",137495,33,"task-atm6",NA,30604225,9086484,NA,"complete",NA,NA,"computer","Desktop or Laptop","Windows 10","Edge 114.0.1823.67","1536x864","1147x603",NA,NA,NA,"JV Task P3 (Updated)",4,"Anxious",NA,"In",NA,NA,"HIGJFKEADBC",NA,NA,"B (MDot First)",2,321,"SS1","SS1",6,"J","Judginess","y8ii7g",1,"response","61",2347.62700000001,4480.696,4497.76999999999,2347.62700000001,4480.696,4497.76999999999,1,2347.62700000001,2150.14299999998,0,NA,"Slider","J",3,"object-18","J","CFD-IF-734-108-N.jpg",NA,"SUPTM16544"
"31",1689025282311,"10/07/2023 21:41:22",1689028882311,1,"10/07/2023 23:41:22",137495,33,"task-atm6",NA,30604225,9086484,NA,"complete",NA,NA,"computer","Desktop or Laptop","Windows 10","Edge 114.0.1823.67","1536x864","1147x603",NA,NA,NA,"JV Task P3 (Updated)",4,"Anxious",NA,"In",NA,NA,"HIGJFKEADBC",NA,NA,"B (MDot First)",2,321,"SS1","SS1",6,"J","Fixation","w9zir9",2,"continue","",966.56700000001,966.56700000001,966.56700000001,966.56700000001,966.56700000001,966.56700000001,1,966.56700000001,0,0,NA,"Fixation Timing","Fixation",1,"object-65","J","CFD-IF-734-108-N.jpg",NA,"SUPTM16544"
"32",1689025287115,"10/07/2023 21:41:27",1689028887115,1,"10/07/2023 23:41:27",137495,33,"task-atm6",NA,30604225,9086484,NA,"complete",NA,NA,"computer","Desktop or Laptop","Windows 10","Edge 114.0.1823.67","1536x864","1147x603",NA,NA,NA,"JV Task P3 (Updated)",4,"Anxious",NA,"In",NA,NA,"HIGJFKEADBC",NA,NA,"B (MDot First)",2,321,"SS1","SS1",5,"V","Valence","xyoebq",1,"continue","",4804.27799961853,4799.05799999999,4804.27799961853,4804.27799961853,4799.05799999999,4804.27799961853,1,4804.27799961853,0,0,NA,"Click To Continue","Continue Button",1,"object-25","V","CFD-WF-024-003-H.jpeg",NA,"SUPTM16544"
"33",1689025287117,"10/07/2023 21:41:27",1689028887117,1,"10/07/2023 23:41:27",137495,33,"task-atm6",NA,30604225,9086484,NA,"complete",NA,NA,"computer","Desktop or Laptop","Windows 10","Edge 114.0.1823.67","1536x864","1147x603",NA,NA,NA,"JV Task P3 (Updated)",4,"Anxious",NA,"In",NA,NA,"HIGJFKEADBC",NA,NA,"B (MDot First)",2,321,"SS1","SS1",5,"V","Valence","xyoebq",1,"response","93",2315.98299999999,4799.05799999999,4806.17799971389,2315.98299999999,4799.05799999999,4806.17799971389,1,2315.98299999999,2490.1949997139,0,NA,"Slider","J",3,"object-27","V","CFD-WF-024-003-H.jpeg",NA,"SUPTM16544"
"34",1689025288077,"10/07/2023 21:41:28",1689028888077,1,"10/07/2023 23:41:28",137495,33,"task-atm6",NA,30604225,9086484,NA,"complete",NA,NA,"computer","Desktop or Laptop","Windows 10","Edge 114.0.1823.67","1536x864","1147x603",NA,NA,NA,"JV Task P3 (Updated)",4,"Anxious",NA,"In",NA,NA,"HIGJFKEADBC",NA,NA,"B (MDot First)",2,321,"SS1","SS1",5,"V","Fixation","68owkj",2,"continue","",966.583000000013,966.583000000013,966.583000000013,966.583000000013,966.583000000013,966.583000000013,1,966.583000000013,0,0,NA,"Fixation Timing","Fixation",1,"object-21","V","CFD-WF-024-003-H.jpeg",NA,"SUPTM16544"
"35",1689025292450,"10/07/2023 21:41:32",1689028892450,1,"10/07/2023 23:41:32",137495,33,"task-atm6",NA,30604225,9086484,NA,"complete",NA,NA,"computer","Desktop or Laptop","Windows 10","Edge 114.0.1823.67","1536x864","1147x603",NA,NA,NA,"JV Task P3 (Updated)",4,"Anxious",NA,"In",NA,NA,"HIGJFKEADBC",NA,NA,"B (MDot First)",2,321,"SS1","SS1",7,"J","Judginess","y8ii7g",1,"continue","",4373.43699980926,4366.30099999999,4373.43699980926,4373.43699980926,4366.30099999999,4373.43699980926,1,4373.43699980926,0,0,NA,"Click To Continue","Continue Button",1,"object-14","J","CFD-MF-315-002-H.jpeg",NA,"SUPTM16544"
"36",1689025292450,"10/07/2023 21:41:32",1689028892450,1,"10/07/2023 23:41:32",137495,33,"task-atm6",NA,30604225,9086484,NA,"complete",NA,NA,"computer","Desktop or Laptop","Windows 10","Edge 114.0.1823.67","1536x864","1147x603",NA,NA,NA,"JV Task P3 (Updated)",4,"Anxious",NA,"In",NA,NA,"HIGJFKEADBC",NA,NA,"B (MDot First)",2,321,"SS1","SS1",7,"J","Judginess","y8ii7g",1,"response","90",2216.56099999999,4366.30099999999,4373.83699990463,2216.56099999999,4366.30099999999,4373.83699990463,1,2216.56099999999,2157.27599990464,0,NA,"Slider","J",3,"object-18","J","CFD-MF-315-002-H.jpeg",NA,"SUPTM16544"
"37",1689025293410,"10/07/2023 21:41:33",1689028893410,1,"10/07/2023 23:41:33",137495,33,"task-atm6",NA,30604225,9086484,NA,"complete",NA,NA,"computer","Desktop or Laptop","Windows 10","Edge 114.0.1823.67","1536x864","1147x603",NA,NA,NA,"JV Task P3 (Updated)",4,"Anxious",NA,"In",NA,NA,"HIGJFKEADBC",NA,NA,"B (MDot First)",2,321,"SS1","SS1",7,"J","Fixation","w9zir9",2,"continue","",966.610000000001,966.610000000001,966.610000000001,966.610000000001,966.610000000001,966.610000000001,1,966.610000000001,0,0,NA,"Fixation Timing","Fixation",1,"object-65","J","CFD-MF-315-002-H.jpeg",NA,"SUPTM16544"
"38",1689025297743,"10/07/2023 21:41:37",1689028897743,1,"10/07/2023 23:41:37",137495,33,"task-atm6",NA,30604225,9086484,NA,"complete",NA,NA,"computer","Desktop or Laptop","Windows 10","Edge 114.0.1823.67","1536x864","1147x603",NA,NA,NA,"JV Task P3 (Updated)",4,"Anxious",NA,"In",NA,NA,"HIGJFKEADBC",NA,NA,"B (MDot First)",2,321,"SS1","SS1",6,"V","Valence","xyoebq",1,"continue","",4334.326,4332.539,4334.326,4334.326,4332.539,4334.326,1,4334.326,0,0,NA,"Click To Continue","Continue Button",1,"object-25","V","CFD-WM-024-015-S.jpeg",NA,"SUPTM16544"
"39",1689025297746,"10/07/2023 21:41:37",1689028897746,1,"10/07/2023 23:41:37",137495,33,"task-atm6",NA,30604225,9086484,NA,"complete",NA,NA,"computer","Desktop or Laptop","Windows 10","Edge 114.0.1823.67","1536x864","1147x603",NA,NA,NA,"JV Task P3 (Updated)",4,"Anxious",NA,"In",NA,NA,"HIGJFKEADBC",NA,NA,"B (MDot First)",2,321,"SS1","SS1",6,"V","Valence","xyoebq",1,"response","33",3249.345,4332.539,4336.72599961853,3249.345,4332.539,4336.72599961853,1,3249.345,1087.38099961853,0,NA,"Slider","J",3,"object-27","V","CFD-WM-024-015-S.jpeg",NA,"SUPTM16544"
"40",1689025298709,"10/07/2023 21:41:38",1689028898709,1,"10/07/2023 23:41:38",137495,33,"task-atm6",NA,30604225,9086484,NA,"complete",NA,NA,"computer","Desktop or Laptop","Windows 10","Edge 114.0.1823.67","1536x864","1147x603",NA,NA,NA,"JV Task P3 (Updated)",4,"Anxious",NA,"In",NA,NA,"HIGJFKEADBC",NA,NA,"B (MDot First)",2,321,"SS1","SS1",6,"V","Fixation","68owkj",2,"continue","",966.561000000002,966.561000000002,966.561000000002,966.561000000002,966.561000000002,966.561000000002,1,966.561000000002,0,0,NA,"Fixation Timing","Fixation",1,"object-21","V","CFD-WM-024-015-S.jpeg",NA,"SUPTM16544"
"41",1689025301570,"10/07/2023 21:41:41",1689028901570,1,"10/07/2023 23:41:41",137495,33,"task-atm6",NA,30604225,9086484,NA,"complete",NA,NA,"computer","Desktop or Laptop","Windows 10","Edge 114.0.1823.67","1536x864","1147x603",NA,NA,NA,"JV Task P3 (Updated)",4,"Anxious",NA,"In",NA,NA,"HIGJFKEADBC",NA,NA,"B (MDot First)",2,321,"SS1","SS1",7,"V","Valence","xyoebq",1,"continue","",2862.52599971389,2849.66799999999,2862.52599971389,2862.52599971389,2849.66799999999,2862.52599971389,1,2862.52599971389,0,0,NA,"Click To Continue","Continue Button",1,"object-25","V","CFD-WM-025-002-N.jpg",NA,"SUPTM16544"
"42",1689025301571,"10/07/2023 21:41:41",1689028901571,1,"10/07/2023 23:41:41",137495,33,"task-atm6",NA,30604225,9086484,NA,"complete",NA,NA,"computer","Desktop or Laptop","Windows 10","Edge 114.0.1823.67","1536x864","1147x603",NA,NA,NA,"JV Task P3 (Updated)",4,"Anxious",NA,"In",NA,NA,"HIGJFKEADBC",NA,NA,"B (MDot First)",2,321,"SS1","SS1",7,"V","Valence","xyoebq",1,"response","66",1833.492,2849.66799999999,2862.92599980926,1833.492,2849.66799999999,2862.92599980926,1,1833.492,1029.43399980926,0,NA,"Slider","J",3,"object-27","V","CFD-WM-025-002-N.jpg",NA,"SUPTM16544"
"43",1689025302525,"10/07/2023 21:41:42",1689028902525,1,"10/07/2023 23:41:42",137495,33,"task-atm6",NA,30604225,9086484,NA,"complete",NA,NA,"computer","Desktop or Laptop","Windows 10","Edge 114.0.1823.67","1536x864","1147x603",NA,NA,NA,"JV Task P3 (Updated)",4,"Anxious",NA,"In",NA,NA,"HIGJFKEADBC",NA,NA,"B (MDot First)",2,321,"SS1","SS1",7,"V","Fixation","68owkj",2,"continue","",966.740000000005,966.740000000005,966.740000000005,966.740000000005,966.740000000005,966.740000000005,1,966.740000000005,0,0,NA,"Fixation Timing","Fixation",1,"object-21","V","CFD-WM-025-002-N.jpg",NA,"SUPTM16544"
"44",1689025305292,"10/07/2023 21:41:45",1689028905292,1,"10/07/2023 23:41:45",137495,33,"task-atm6",NA,30604225,9086484,NA,"complete",NA,NA,"computer","Desktop or Laptop","Windows 10","Edge 114.0.1823.67","1536x864","1147x603",NA,NA,NA,"JV Task P3 (Updated)",4,"Anxious",NA,"In",NA,NA,"HIGJFKEADBC",NA,NA,"B (MDot First)",2,321,"SS1","SS1",8,"J","Judginess","y8ii7g",1,"continue","",2767.91799990463,2766.136,2767.91799990463,2767.91799990463,2766.136,2767.91799990463,1,2767.91799990463,0,0,NA,"Click To Continue","Continue Button",1,"object-14","J","CFD-BM-028-002-H.jpeg",NA,"SUPTM16544"
"45",1689025305292,"10/07/2023 21:41:45",1689028905292,1,"10/07/2023 23:41:45",137495,33,"task-atm6",NA,30604225,9086484,NA,"complete",NA,NA,"computer","Desktop or Laptop","Windows 10","Edge 114.0.1823.67","1536x864","1147x603",NA,NA,NA,"JV Task P3 (Updated)",4,"Anxious",NA,"In",NA,NA,"HIGJFKEADBC",NA,NA,"B (MDot First)",2,321,"SS1","SS1",8,"J","Judginess","y8ii7g",1,"response","100",1599.647,2766.136,2768.21799961853,1599.647,2766.136,2768.21799961853,1,1599.647,1168.57099961853,0,NA,"Slider","J",3,"object-18","J","CFD-BM-028-002-H.jpeg",NA,"SUPTM16544"
"46",1689025306258,"10/07/2023 21:41:46",1689028906258,1,"10/07/2023 23:41:46",137495,33,"task-atm6",NA,30604225,9086484,NA,"complete",NA,NA,"computer","Desktop or Laptop","Windows 10","Edge 114.0.1823.67","1536x864","1147x603",NA,NA,NA,"JV Task P3 (Updated)",4,"Anxious",NA,"In",NA,NA,"HIGJFKEADBC",NA,NA,"B (MDot First)",2,321,"SS1","SS1",8,"J","Fixation","w9zir9",2,"continue","",966.792000000001,966.792000000001,966.792000000001,966.792000000001,966.792000000001,966.792000000001,1,966.792000000001,0,0,NA,"Fixation Timing","Fixation",1,"object-65","J","CFD-BM-028-002-H.jpeg",NA,"SUPTM16544"
"47",1689025311615,"10/07/2023 21:41:51",1689028911615,1,"10/07/2023 23:41:51",137495,33,"task-atm6",NA,30604225,9086484,NA,"complete",NA,NA,"computer","Desktop or Laptop","Windows 10","Edge 114.0.1823.67","1536x864","1147x603",NA,NA,NA,"JV Task P3 (Updated)",4,"Anxious",NA,"In",NA,NA,"HIGJFKEADBC",NA,NA,"B (MDot First)",2,321,"SS1","SS1",9,"J","Judginess","y8ii7g",1,"continue","",5357.98999990463,5349.48699999999,5357.98999990463,5357.98999990463,5349.48699999999,5357.98999990463,1,5357.98999990463,0,0,NA,"Click To Continue","Continue Button",1,"object-14","J","CFD-WF-031-027-N.jpg",NA,"SUPTM16544"
"48",1689025311620,"10/07/2023 21:41:51",1689028911620,1,"10/07/2023 23:41:51",137495,33,"task-atm6",NA,30604225,9086484,NA,"complete",NA,NA,"computer","Desktop or Laptop","Windows 10","Edge 114.0.1823.67","1536x864","1147x603",NA,NA,NA,"JV Task P3 (Updated)",4,"Anxious",NA,"In",NA,NA,"HIGJFKEADBC",NA,NA,"B (MDot First)",2,321,"SS1","SS1",9,"J","Judginess","y8ii7g",1,"response","68",1799.58500000001,5349.48699999999,5362.78999961853,1799.58500000001,5349.48699999999,5362.78999961853,1,1799.58500000001,3563.20499961852,0,NA,"Slider","J",3,"object-18","J","CFD-WF-031-027-N.jpg",NA,"SUPTM16544"
"49",1689025312574,"10/07/2023 21:41:52",1689028912574,1,"10/07/2023 23:41:52",137495,33,"task-atm6",NA,30604225,9086484,NA,"complete",NA,NA,"computer","Desktop or Laptop","Windows 10","Edge 114.0.1823.67","1536x864","1147x603",NA,NA,NA,"JV Task P3 (Updated)",4,"Anxious",NA,"In",NA,NA,"HIGJFKEADBC",NA,NA,"B (MDot First)",2,321,"SS1","SS1",9,"J","Fixation","w9zir9",2,"continue","",966.630000000005,966.630000000005,966.630000000005,966.630000000005,966.630000000005,966.630000000005,1,966.630000000005,0,0,NA,"Fixation Timing","Fixation",1,"object-65","J","CFD-WF-031-027-N.jpg",NA,"SUPTM16544"
"50",1689025318957,"10/07/2023 21:41:58",1689028918957,1,"10/07/2023 23:41:58",137495,33,"task-atm6",NA,30604225,9086484,NA,"complete",NA,NA,"computer","Desktop or Laptop","Windows 10","Edge 114.0.1823.67","1536x864","1147x603",NA,NA,NA,"JV Task P3 (Updated)",4,"Anxious",NA,"In",NA,NA,"HIGJFKEADBC",NA,NA,"B (MDot First)",2,321,"SS1","SS1",10,"J","Judginess","y8ii7g",1,"continue","",6382.77900000001,6365.804,6382.77900000001,6382.77900000001,6365.804,6382.77900000001,1,6382.77900000001,0,0,NA,"Click To Continue","Continue Button",1,"object-14","J","CFD-WM-035-032-S.jpeg",NA,"SUPTM16544"
"51",1689025318957,"10/07/2023 21:41:58",1689028918957,1,"10/07/2023 23:41:58",137495,33,"task-atm6",NA,30604225,9086484,NA,"complete",NA,NA,"computer","Desktop or Laptop","Windows 10","Edge 114.0.1823.67","1536x864","1147x603",NA,NA,NA,"JV Task P3 (Updated)",4,"Anxious",NA,"In",NA,NA,"HIGJFKEADBC",NA,NA,"B (MDot First)",2,321,"SS1","SS1",10,"J","Judginess","y8ii7g",1,"response","2",2965.879,6365.804,6382.77900000001,2965.879,6365.804,6382.77900000001,1,2965.879,3416.90000000001,0,NA,"Slider","J",3,"object-18","J","CFD-WM-035-032-S.jpeg",NA,"SUPTM16544"
"52",1689025319906,"10/07/2023 21:41:59",1689028919906,1,"10/07/2023 23:41:59",137495,33,"task-atm6",NA,30604225,9086484,NA,"complete",NA,NA,"computer","Desktop or Laptop","Windows 10","Edge 114.0.1823.67","1536x864","1147x603",NA,NA,NA,"JV Task P3 (Updated)",4,"Anxious",NA,"In",NA,NA,"HIGJFKEADBC",NA,NA,"B (MDot First)",2,321,"SS1","SS1",10,"J","Fixation","w9zir9",2,"continue","",966.277999999991,966.277999999991,966.277999999991,966.277999999991,966.277999999991,966.277999999991,1,966.277999999991,0,0,NA,"Fixation Timing","Fixation",1,"object-65","J","CFD-WM-035-032-S.jpeg",NA,"SUPTM16544"
"53",1689025322925,"10/07/2023 21:42:02",1689028922925,1,"10/07/2023 23:42:02",137495,33,"task-atm6",NA,30604225,9086484,NA,"complete",NA,NA,"computer","Desktop or Laptop","Windows 10","Edge 114.0.1823.67","1536x864","1147x603",NA,NA,NA,"JV Task P3 (Updated)",4,"Anxious",NA,"In",NA,NA,"HIGJFKEADBC",NA,NA,"B (MDot First)",2,321,"SS1","SS1",11,"J","Judginess","y8ii7g",1,"continue","",3019.79099990464,3016.31000000001,3019.79099990464,3019.79099990464,3016.31000000001,3019.79099990464,1,3019.79099990464,0,0,NA,"Click To Continue","Continue Button",1,"object-14","J","CFD-WM-015-002-S.jpeg",NA,"SUPTM16544"
"54",1689025322927,"10/07/2023 21:42:02",1689028922927,1,"10/07/2023 23:42:02",137495,33,"task-atm6",NA,30604225,9086484,NA,"complete",NA,NA,"computer","Desktop or Laptop","Windows 10","Edge 114.0.1823.67","1536x864","1147x603",NA,NA,NA,"JV Task P3 (Updated)",4,"Anxious",NA,"In",NA,NA,"HIGJFKEADBC",NA,NA,"B (MDot First)",2,321,"SS1","SS1",11,"J","Judginess","y8ii7g",1,"response","17",2066.39,3016.31000000001,3022.09099961854,2066.39,3016.31000000001,3022.09099961854,1,2066.39,955.700999618537,0,NA,"Slider","J",3,"object-18","J","CFD-WM-015-002-S.jpeg",NA,"SUPTM16544"
"55",1689025323889,"10/07/2023 21:42:03",1689028923889,1,"10/07/2023 23:42:03",137495,33,"task-atm6",NA,30604225,9086484,NA,"complete",NA,NA,"computer","Desktop or Laptop","Windows 10","Edge 114.0.1823.67","1536x864","1147x603",NA,NA,NA,"JV Task P3 (Updated)",4,"Anxious",NA,"In",NA,NA,"HIGJFKEADBC",NA,NA,"B (MDot First)",2,321,"SS1","SS1",11,"J","Fixation","w9zir9",2,"continue","",966.843999999997,966.843999999997,966.843999999997,966.843999999997,966.843999999997,966.843999999997,1,966.843999999997,0,0,NA,"Fixation Timing","Fixation",1,"object-65","J","CFD-WM-015-002-S.jpeg",NA,"SUPTM16544"
"56",1689025327576,"10/07/2023 21:42:07",1689028927576,1,"10/07/2023 23:42:07",137495,33,"task-atm6",NA,30604225,9086484,NA,"complete",NA,NA,"computer","Desktop or Laptop","Windows 10","Edge 114.0.1823.67","1536x864","1147x603",NA,NA,NA,"JV Task P3 (Updated)",4,"Anxious",NA,"In",NA,NA,"HIGJFKEADBC",NA,NA,"B (MDot First)",2,321,"SS1","SS1",12,"J","Judginess","y8ii7g",1,"continue","",3687.23699980926,3682.501,3687.23699980926,3687.23699980926,3682.501,3687.23699980926,1,3687.23699980926,0,0,NA,"Click To Continue","Continue Button",1,"object-14","J","CFD-BF-040-003-N.jpg",NA,"SUPTM16544"
"57",1689025327576,"10/07/2023 21:42:07",1689028927576,1,"10/07/2023 23:42:07",137495,33,"task-atm6",NA,30604225,9086484,NA,"complete",NA,NA,"computer","Desktop or Laptop","Windows 10","Edge 114.0.1823.67","1536x864","1147x603",NA,NA,NA,"JV Task P3 (Updated)",4,"Anxious",NA,"In",NA,NA,"HIGJFKEADBC",NA,NA,"B (MDot First)",2,321,"SS1","SS1",12,"J","Judginess","y8ii7g",1,"response","17",2182.704,3682.501,3687.43699961853,2182.704,3682.501,3687.43699961853,1,2182.704,1504.73299961853,0,NA,"Slider","J",3,"object-18","J","CFD-BF-040-003-N.jpg",NA,"SUPTM16544"
"58",1689025328538,"10/07/2023 21:42:08",1689028928538,1,"10/07/2023 23:42:08",137495,33,"task-atm6",NA,30604225,9086484,NA,"complete",NA,NA,"computer","Desktop or Laptop","Windows 10","Edge 114.0.1823.67","1536x864","1147x603",NA,NA,NA,"JV Task P3 (Updated)",4,"Anxious",NA,"In",NA,NA,"HIGJFKEADBC",NA,NA,"B (MDot First)",2,321,"SS1","SS1",12,"J","Fixation","w9zir9",2,"continue","",966.827999999994,966.827999999994,966.827999999994,966.827999999994,966.827999999994,966.827999999994,1,966.827999999994,0,0,NA,"Fixation Timing","Fixation",1,"object-65","J","CFD-BF-040-003-N.jpg",NA,"SUPTM16544"
"59",1689025332675,"10/07/2023 21:42:12",1689028932675,1,"10/07/2023 23:42:12",137495,33,"task-atm6",NA,30604225,9086484,NA,"complete",NA,NA,"computer","Desktop or Laptop","Windows 10","Edge 114.0.1823.67","1536x864","1147x603",NA,NA,NA,"JV Task P3 (Updated)",4,"Anxious",NA,"In",NA,NA,"HIGJFKEADBC",NA,NA,"B (MDot First)",2,321,"SS1","SS1",8,"V","Valence","xyoebq",1,"continue","",4137.40799980926,4132.548,4137.40799980926,4137.40799980926,4132.548,4137.40799980926,1,4137.40799980926,0,0,NA,"Click To Continue","Continue Button",1,"object-25","V","CFD-BF-040-003-H.jpeg",NA,"SUPTM16544"
"60",1689025332676,"10/07/2023 21:42:12",1689028932676,1,"10/07/2023 23:42:12",137495,33,"task-atm6",NA,30604225,9086484,NA,"complete",NA,NA,"computer","Desktop or Laptop","Windows 10","Edge 114.0.1823.67","1536x864","1147x603",NA,NA,NA,"JV Task P3 (Updated)",4,"Anxious",NA,"In",NA,NA,"HIGJFKEADBC",NA,NA,"B (MDot First)",2,321,"SS1","SS1",8,"V","Valence","xyoebq",1,"response","96",1866.40300000001,4132.548,4138.208,1866.40300000001,4132.548,4138.208,1,1866.40300000001,2271.80499999999,0,NA,"Slider","J",3,"object-27","V","CFD-BF-040-003-H.jpeg",NA,"SUPTM16544"
"61",1689025333638,"10/07/2023 21:42:13",1689028933638,1,"10/07/2023 23:42:13",137495,33,"task-atm6",NA,30604225,9086484,NA,"complete",NA,NA,"computer","Desktop or Laptop","Windows 10","Edge 114.0.1823.67","1536x864","1147x603",NA,NA,NA,"JV Task P3 (Updated)",4,"Anxious",NA,"In",NA,NA,"HIGJFKEADBC",NA,NA,"B (MDot First)",2,321,"SS1","SS1",8,"V","Fixation","68owkj",2,"continue","",967.004000000015,967.004000000015,967.004000000015,967.004000000015,967.004000000015,967.004000000015,1,967.004000000015,0,0,NA,"Fixation Timing","Fixation",1,"object-21","V","CFD-BF-040-003-H.jpeg",NA,"SUPTM16544"
"62",1689025337756,"10/07/2023 21:42:17",1689028937756,1,"10/07/2023 23:42:17",137495,33,"task-atm6",NA,30604225,9086484,NA,"complete",NA,NA,"computer","Desktop or Laptop","Windows 10","Edge 114.0.1823.67","1536x864","1147x603",NA,NA,NA,"JV Task P3 (Updated)",4,"Anxious",NA,"In",NA,NA,"HIGJFKEADBC",NA,NA,"B (MDot First)",2,321,"SS1","SS1",9,"V","Valence","xyoebq",1,"continue","",4118.65599999999,4115.73199999999,4118.65599999999,4118.65599999999,4115.73199999999,4118.65599999999,1,4118.65599999999,0,0,NA,"Click To Continue","Continue Button",1,"object-25","V","CFD-WF-031-027-H.jpeg",NA,"SUPTM16544"
"63",1689025337756,"10/07/2023 21:42:17",1689028937756,1,"10/07/2023 23:42:17",137495,33,"task-atm6",NA,30604225,9086484,NA,"complete",NA,NA,"computer","Desktop or Laptop","Windows 10","Edge 114.0.1823.67","1536x864","1147x603",NA,NA,NA,"JV Task P3 (Updated)",4,"Anxious",NA,"In",NA,NA,"HIGJFKEADBC",NA,NA,"B (MDot First)",2,321,"SS1","SS1",9,"V","Valence","xyoebq",1,"response","82",2182.734,4115.73199999999,4118.95599971389,2182.734,4115.73199999999,4118.95599971389,1,2182.734,1936.22199971389,0,NA,"Slider","J",3,"object-27","V","CFD-WF-031-027-H.jpeg",NA,"SUPTM16544"
"64",1689025338721,"10/07/2023 21:42:18",1689028938721,1,"10/07/2023 23:42:18",137495,33,"task-atm6",NA,30604225,9086484,NA,"complete",NA,NA,"computer","Desktop or Laptop","Windows 10","Edge 114.0.1823.67","1536x864","1147x603",NA,NA,NA,"JV Task P3 (Updated)",4,"Anxious",NA,"In",NA,NA,"HIGJFKEADBC",NA,NA,"B (MDot First)",2,321,"SS1","SS1",9,"V","Fixation","68owkj",2,"continue","",966.994000000006,966.994000000006,966.994000000006,966.994000000006,966.994000000006,966.994000000006,1,966.994000000006,0,0,NA,"Fixation Timing","Fixation",1,"object-21","V","CFD-WF-031-027-H.jpeg",NA,"SUPTM16544"
"65",1689025341397,"10/07/2023 21:42:21",1689028941397,1,"10/07/2023 23:42:21",137495,33,"task-atm6",NA,30604225,9086484,NA,"complete",NA,NA,"computer","Desktop or Laptop","Windows 10","Edge 114.0.1823.67","1536x864","1147x603",NA,NA,NA,"JV Task P3 (Updated)",4,"Anxious",NA,"In",NA,NA,"HIGJFKEADBC",NA,NA,"B (MDot First)",2,321,"SS1","SS1",10,"V","Valence","xyoebq",1,"continue","",2677.22999971389,2666.13999999998,2677.22999971389,2677.22999971389,2666.13999999998,2677.22999971389,1,2677.22999971389,0,0,NA,"Click To Continue","Continue Button",1,"object-25","V","CFD-WM-026-001-S.jpeg",NA,"SUPTM16544"
"66",1689025341398,"10/07/2023 21:42:21",1689028941398,1,"10/07/2023 23:42:21",137495,33,"task-atm6",NA,30604225,9086484,NA,"complete",NA,NA,"computer","Desktop or Laptop","Windows 10","Edge 114.0.1823.67","1536x864","1147x603",NA,NA,NA,"JV Task P3 (Updated)",4,"Anxious",NA,"In",NA,NA,"HIGJFKEADBC",NA,NA,"B (MDot First)",2,321,"SS1","SS1",10,"V","Valence","xyoebq",1,"response","33",1549.41899999999,2666.13999999998,2677.52999990463,1549.41899999999,2666.13999999998,2677.52999990463,1,1549.41899999999,1128.11099990463,0,NA,"Slider","J",3,"object-27","V","CFD-WM-026-001-S.jpeg",NA,"SUPTM16544"
"67",1689025342354,"10/07/2023 21:42:22",1689028942354,1,"10/07/2023 23:42:22",137495,33,"task-atm6",NA,30604225,9086484,NA,"complete",NA,NA,"computer","Desktop or Laptop","Windows 10","Edge 114.0.1823.67","1536x864","1147x603",NA,NA,NA,"JV Task P3 (Updated)",4,"Anxious",NA,"In",NA,NA,"HIGJFKEADBC",NA,NA,"B (MDot First)",2,321,"SS1","SS1",10,"V","Fixation","68owkj",2,"continue","",966.540000000008,966.540000000008,966.540000000008,966.540000000008,966.540000000008,966.540000000008,1,966.540000000008,0,0,NA,"Fixation Timing","Fixation",1,"object-21","V","CFD-WM-026-001-S.jpeg",NA,"SUPTM16544"
"68",1689025347686,"10/07/2023 21:42:27",1689028947686,1,"10/07/2023 23:42:27",137495,33,"task-atm6",NA,30604225,9086484,NA,"complete",NA,NA,"computer","Desktop or Laptop","Windows 10","Edge 114.0.1823.67","1536x864","1147x603",NA,NA,NA,"JV Task P3 (Updated)",4,"Anxious",NA,"In",NA,NA,"HIGJFKEADBC",NA,NA,"B (MDot First)",2,321,"SS1","SS1",13,"J","Judginess","y8ii7g",1,"continue","",5332.72399999999,5315.94099999999,5332.72399999999,5332.72399999999,5315.94099999999,5332.72399999999,1,5332.72399999999,0,0,NA,"Click To Continue","Continue Button",1,"object-14","J","CFD-IF-734-108-H.jpeg",NA,"SUPTM16544"
"69",1689025347689,"10/07/2023 21:42:27",1689028947689,1,"10/07/2023 23:42:27",137495,33,"task-atm6",NA,30604225,9086484,NA,"complete",NA,NA,"computer","Desktop or Laptop","Windows 10","Edge 114.0.1823.67","1536x864","1147x603",NA,NA,NA,"JV Task P3 (Updated)",4,"Anxious",NA,"In",NA,NA,"HIGJFKEADBC",NA,NA,"B (MDot First)",2,321,"SS1","SS1",13,"J","Judginess","y8ii7g",1,"response","67",1899.58100000001,5315.94099999999,5332.72399999999,1899.58100000001,5315.94099999999,5332.72399999999,1,1899.58100000001,3433.14299999998,0,NA,"Slider","J",3,"object-18","J","CFD-IF-734-108-H.jpeg",NA,"SUPTM16544"
"70",1689025348637,"10/07/2023 21:42:28",1689028948637,1,"10/07/2023 23:42:28",137495,33,"task-atm6",NA,30604225,9086484,NA,"complete",NA,NA,"computer","Desktop or Laptop","Windows 10","Edge 114.0.1823.67","1536x864","1147x603",NA,NA,NA,"JV Task P3 (Updated)",4,"Anxious",NA,"In",NA,NA,"HIGJFKEADBC",NA,NA,"B (MDot First)",2,321,"SS1","SS1",13,"J","Fixation","w9zir9",2,"continue","",966.467000000004,966.467000000004,966.467000000004,966.467000000004,966.467000000004,966.467000000004,1,966.467000000004,0,0,NA,"Fixation Timing","Fixation",1,"object-65","J","CFD-IF-734-108-H.jpeg",NA,"SUPTM16544"
"71",1689025353049,"10/07/2023 21:42:33",1689028953049,1,"10/07/2023 23:42:33",137495,33,"task-atm6",NA,30604225,9086484,NA,"complete",NA,NA,"computer","Desktop or Laptop","Windows 10","Edge 114.0.1823.67","1536x864","1147x603",NA,NA,NA,"JV Task P3 (Updated)",4,"Anxious",NA,"In",NA,NA,"HIGJFKEADBC",NA,NA,"B (MDot First)",2,321,"SS1","SS1",14,"J","Judginess","y8ii7g",1,"continue","",4414.1419997139,4399.44500000001,4414.1419997139,4414.1419997139,4399.44500000001,4414.1419997139,1,4414.1419997139,0,0,NA,"Click To Continue","Continue Button",1,"object-14","J","CFD-WF-022-017-H.jpeg",NA,"SUPTM16544"
"72",1689025353050,"10/07/2023 21:42:33",1689028953050,1,"10/07/2023 23:42:33",137495,33,"task-atm6",NA,30604225,9086484,NA,"complete",NA,NA,"computer","Desktop or Laptop","Windows 10","Edge 114.0.1823.67","1536x864","1147x603",NA,NA,NA,"JV Task P3 (Updated)",4,"Anxious",NA,"In",NA,NA,"HIGJFKEADBC",NA,NA,"B (MDot First)",2,321,"SS1","SS1",14,"J","Judginess","y8ii7g",1,"response","79",2199.86199999999,4399.44500000001,4414.44199990464,2199.86199999999,4399.44500000001,4414.44199990464,1,2199.86199999999,2214.57999990464,0,NA,"Slider","J",3,"object-18","J","CFD-WF-022-017-H.jpeg",NA,"SUPTM16544"
"73",1689025354002,"10/07/2023 21:42:34",1689028954002,1,"10/07/2023 23:42:34",137495,33,"task-atm6",NA,30604225,9086484,NA,"complete",NA,NA,"computer","Desktop or Laptop","Windows 10","Edge 114.0.1823.67","1536x864","1147x603",NA,NA,NA,"JV Task P3 (Updated)",4,"Anxious",NA,"In",NA,NA,"HIGJFKEADBC",NA,NA,"B (MDot First)",2,321,"SS1","SS1",14,"J","Fixation","w9zir9",2,"continue","",966.614000000001,966.614000000001,966.614000000001,966.614000000001,966.614000000001,966.614000000001,1,966.614000000001,0,0,NA,"Fixation Timing","Fixation",1,"object-65","J","CFD-WF-022-017-H.jpeg",NA,"SUPTM16544"
"74",1689025359095,"10/07/2023 21:42:39",1689028959095,1,"10/07/2023 23:42:39",137495,33,"task-atm6",NA,30604225,9086484,NA,"complete",NA,NA,"computer","Desktop or Laptop","Windows 10","Edge 114.0.1823.67","1536x864","1147x603",NA,NA,NA,"JV Task P3 (Updated)",4,"Anxious",NA,"In",NA,NA,"HIGJFKEADBC",NA,NA,"B (MDot First)",2,321,"SS1","SS1",11,"V","Valence","xyoebq",1,"continue","",5093.98299980926,5082.674,5093.98299980926,5093.98299980926,5082.674,5093.98299980926,1,5093.98299980926,0,0,NA,"Click To Continue","Continue Button",1,"object-25","V","CFD-BM-045-004-H.jpeg",NA,"SUPTM16544"
"75",1689025359097,"10/07/2023 21:42:39",1689028959097,1,"10/07/2023 23:42:39",137495,33,"task-atm6",NA,30604225,9086484,NA,"complete",NA,NA,"computer","Desktop or Laptop","Windows 10","Edge 114.0.1823.67","1536x864","1147x603",NA,NA,NA,"JV Task P3 (Updated)",4,"Anxious",NA,"In",NA,NA,"HIGJFKEADBC",NA,NA,"B (MDot First)",2,321,"SS1","SS1",11,"V","Valence","xyoebq",1,"response","65",2183.27299999999,5082.674,5095.98299980926,2183.27299999999,5082.674,5095.98299980926,1,2183.27299999999,2912.70999980927,0,NA,"Slider","J",3,"object-27","V","CFD-BM-045-004-H.jpeg",NA,"SUPTM16544"
"76",1689025360051,"10/07/2023 21:42:40",1689028960051,1,"10/07/2023 23:42:40",137495,33,"task-atm6",NA,30604225,9086484,NA,"complete",NA,NA,"computer","Desktop or Laptop","Windows 10","Edge 114.0.1823.67","1536x864","1147x603",NA,NA,NA,"JV Task P3 (Updated)",4,"Anxious",NA,"In",NA,NA,"HIGJFKEADBC",NA,NA,"B (MDot First)",2,321,"SS1","SS1",11,"V","Fixation","68owkj",2,"continue","",966.764999999985,966.764999999985,966.764999999985,966.764999999985,966.764999999985,966.764999999985,1,966.764999999985,0,0,NA,"Fixation Timing","Fixation",1,"object-21","V","CFD-BM-045-004-H.jpeg",NA,"SUPTM16544"
"77",1689025364928,"10/07/2023 21:42:44",1689028964928,1,"10/07/2023 23:42:44",137495,33,"task-atm6",NA,30604225,9086484,NA,"complete",NA,NA,"computer","Desktop or Laptop","Windows 10","Edge 114.0.1823.67","1536x864","1147x603",NA,NA,NA,"JV Task P3 (Updated)",4,"Anxious",NA,"In",NA,NA,"HIGJFKEADBC",NA,NA,"B (MDot First)",2,321,"SS1","SS1",15,"J","Judginess","y8ii7g",1,"continue","",4877.54399980928,4866.09000000003,4877.54399980928,4877.54399980928,4866.09000000003,4877.54399980928,1,4877.54399980928,0,0,NA,"Click To Continue","Continue Button",1,"object-14","J","CFD-WM-035-032-H.jpeg",NA,"SUPTM16544"
"78",1689025364929,"10/07/2023 21:42:44",1689028964929,1,"10/07/2023 23:42:44",137495,33,"task-atm6",NA,30604225,9086484,NA,"complete",NA,NA,"computer","Desktop or Laptop","Windows 10","Edge 114.0.1823.67","1536x864","1147x603",NA,NA,NA,"JV Task P3 (Updated)",4,"Anxious",NA,"In",NA,NA,"HIGJFKEADBC",NA,NA,"B (MDot First)",2,321,"SS1","SS1",15,"J","Judginess","y8ii7g",1,"response","43",2399.81700000001,4866.09000000003,4877.84400000001,2399.81700000001,4866.09000000003,4877.84400000001,1,2399.81700000001,2478.027,0,NA,"Slider","J",3,"object-18","J","CFD-WM-035-032-H.jpeg",NA,"SUPTM16544"
"79",1689025365884,"10/07/2023 21:42:45",1689028965884,1,"10/07/2023 23:42:45",137495,33,"task-atm6",NA,30604225,9086484,NA,"complete",NA,NA,"computer","Desktop or Laptop","Windows 10","Edge 114.0.1823.67","1536x864","1147x603",NA,NA,NA,"JV Task P3 (Updated)",4,"Anxious",NA,"In",NA,NA,"HIGJFKEADBC",NA,NA,"B (MDot First)",2,321,"SS1","SS1",15,"J","Fixation","w9zir9",2,"continue","",966.548999999999,966.548999999999,966.548999999999,966.548999999999,966.548999999999,966.548999999999,1,966.548999999999,0,0,NA,"Fixation Timing","Fixation",1,"object-65","J","CFD-WM-035-032-H.jpeg",NA,"SUPTM16544"
"80",1689025370470,"10/07/2023 21:42:50",1689028970470,1,"10/07/2023 23:42:50",137495,33,"task-atm6",NA,30604225,9086484,NA,"complete",NA,NA,"computer","Desktop or Laptop","Windows 10","Edge 114.0.1823.67","1536x864","1147x603",NA,NA,NA,"JV Task P3 (Updated)",4,"Anxious",NA,"In",NA,NA,"HIGJFKEADBC",NA,NA,"B (MDot First)",2,321,"SS1","SS1",16,"J","Judginess","y8ii7g",1,"continue","",4586.60499961852,4582.63099999999,4586.60499961852,4586.60499961852,4582.63099999999,4586.60499961852,1,4586.60499961852,0,0,NA,"Click To Continue","Continue Button",1,"object-14","J","CFD-BM-045-004-S.jpeg",NA,"SUPTM16544"
"81",1689025370472,"10/07/2023 21:42:50",1689028970472,1,"10/07/2023 23:42:50",137495,33,"task-atm6",NA,30604225,9086484,NA,"complete",NA,NA,"computer","Desktop or Laptop","Windows 10","Edge 114.0.1823.67","1536x864","1147x603",NA,NA,NA,"JV Task P3 (Updated)",4,"Anxious",NA,"In",NA,NA,"HIGJFKEADBC",NA,NA,"B (MDot First)",2,321,"SS1","SS1",16,"J","Judginess","y8ii7g",1,"response","35",2299.503,4582.63099999999,4588.50499971388,2299.503,4582.63099999999,4588.50499971388,1,2299.503,2289.00199971389,0,NA,"Slider","J",3,"object-18","J","CFD-BM-045-004-S.jpeg",NA,"SUPTM16544"
"82",1689025371434,"10/07/2023 21:42:51",1689028971434,1,"10/07/2023 23:42:51",137495,33,"task-atm6",NA,30604225,9086484,NA,"complete",NA,NA,"computer","Desktop or Laptop","Windows 10","Edge 114.0.1823.67","1536x864","1147x603",NA,NA,NA,"JV Task P3 (Updated)",4,"Anxious",NA,"In",NA,NA,"HIGJFKEADBC",NA,NA,"B (MDot First)",2,321,"SS1","SS1",16,"J","Fixation","w9zir9",2,"continue","",966.657000000007,966.657000000007,966.657000000007,966.657000000007,966.657000000007,966.657000000007,1,966.657000000007,0,0,NA,"Fixation Timing","Fixation",1,"object-65","J","CFD-BM-045-004-S.jpeg",NA,"SUPTM16544"
"83",1689025378335,"10/07/2023 21:42:58",1689028978335,1,"10/07/2023 23:42:58",137495,33,"task-atm6",NA,30604225,9086484,NA,"complete",NA,NA,"computer","Desktop or Laptop","Windows 10","Edge 114.0.1823.67","1536x864","1147x603",NA,NA,NA,"JV Task P3 (Updated)",4,"Anxious",NA,"In",NA,NA,"HIGJFKEADBC",NA,NA,"B (MDot First)",2,321,"SS1","SS1",17,"J","Judginess","y8ii7g",1,"continue","",6902.51699990462,6898.96799999999,6902.51699990462,6902.51699990462,6898.96799999999,6902.51699990462,1,6902.51699990462,0,0,NA,"Click To Continue","Continue Button",1,"object-14","J","CFD-WF-024-003-S.jpeg",NA,"SUPTM16544"
"84",1689025378335,"10/07/2023 21:42:58",1689028978335,1,"10/07/2023 23:42:58",137495,33,"task-atm6",NA,30604225,9086484,NA,"complete",NA,NA,"computer","Desktop or Laptop","Windows 10","Edge 114.0.1823.67","1536x864","1147x603",NA,NA,NA,"JV Task P3 (Updated)",4,"Anxious",NA,"In",NA,NA,"HIGJFKEADBC",NA,NA,"B (MDot First)",2,321,"SS1","SS1",17,"J","Judginess","y8ii7g",1,"response","27",2399.79499999998,6898.96799999999,6902.81699961852,2399.79499999998,6898.96799999999,6902.81699961852,1,2399.79499999998,4503.02199961853,0,NA,"Slider","J",3,"object-18","J","CFD-WF-024-003-S.jpeg",NA,"SUPTM16544"
"85",1689025379300,"10/07/2023 21:42:59",1689028979300,1,"10/07/2023 23:42:59",137495,33,"task-atm6",NA,30604225,9086484,NA,"complete",NA,NA,"computer","Desktop or Laptop","Windows 10","Edge 114.0.1823.67","1536x864","1147x603",NA,NA,NA,"JV Task P3 (Updated)",4,"Anxious",NA,"In",NA,NA,"HIGJFKEADBC",NA,NA,"B (MDot First)",2,321,"SS1","SS1",17,"J","Fixation","w9zir9",2,"continue","",966.965999999986,966.965999999986,966.965999999986,966.965999999986,966.965999999986,966.965999999986,1,966.965999999986,0,0,NA,"Fixation Timing","Fixation",1,"object-65","J","CFD-WF-024-003-S.jpeg",NA,"SUPTM16544"
"86",1689025384204,"10/07/2023 21:43:04",1689028984204,1,"10/07/2023 23:43:04",137495,33,"task-atm6",NA,30604225,9086484,NA,"complete",NA,NA,"computer","Desktop or Laptop","Windows 10","Edge 114.0.1823.67","1536x864","1147x603",NA,NA,NA,"JV Task P3 (Updated)",4,"Anxious",NA,"In",NA,NA,"HIGJFKEADBC",NA,NA,"B (MDot First)",2,321,"SS1","SS1",12,"V","Valence","xyoebq",1,"continue","",4905.18299980927,4899.08100000001,4905.18299980927,4905.18299980927,4899.08100000001,4905.18299980927,1,4905.18299980927,0,0,NA,"Click To Continue","Continue Button",1,"object-25","V","CFD-WF-017-003-S.jpeg",NA,"SUPTM16544"
"87",1689025384206,"10/07/2023 21:43:04",1689028984206,1,"10/07/2023 23:43:04",137495,33,"task-atm6",NA,30604225,9086484,NA,"complete",NA,NA,"computer","Desktop or Laptop","Windows 10","Edge 114.0.1823.67","1536x864","1147x603",NA,NA,NA,"JV Task P3 (Updated)",4,"Anxious",NA,"In",NA,NA,"HIGJFKEADBC",NA,NA,"B (MDot First)",2,321,"SS1","SS1",12,"V","Valence","xyoebq",1,"response","39",2432.96400000001,4899.08100000001,4907.08299990464,2432.96400000001,4899.08100000001,4907.08299990464,1,2432.96400000001,2474.11899990463,0,NA,"Slider","J",3,"object-27","V","CFD-WF-017-003-S.jpeg",NA,"SUPTM16544"
"88",1689025385166,"10/07/2023 21:43:05",1689028985166,1,"10/07/2023 23:43:05",137495,33,"task-atm6",NA,30604225,9086484,NA,"complete",NA,NA,"computer","Desktop or Laptop","Windows 10","Edge 114.0.1823.67","1536x864","1147x603",NA,NA,NA,"JV Task P3 (Updated)",4,"Anxious",NA,"In",NA,NA,"HIGJFKEADBC",NA,NA,"B (MDot First)",2,321,"SS1","SS1",12,"V","Fixation","68owkj",2,"continue","",966.874000000011,966.874000000011,966.874000000011,966.874000000011,966.874000000011,966.874000000011,1,966.874000000011,0,0,NA,"Fixation Timing","Fixation",1,"object-21","V","CFD-WF-017-003-S.jpeg",NA,"SUPTM16544"
"89",1689025390744,"10/07/2023 21:43:10",1689028990744,1,"10/07/2023 23:43:10",137495,33,"task-atm6",NA,30604225,9086484,NA,"complete",NA,NA,"computer","Desktop or Laptop","Windows 10","Edge 114.0.1823.67","1536x864","1147x603",NA,NA,NA,"JV Task P3 (Updated)",4,"Anxious",NA,"In",NA,NA,"HIGJFKEADBC",NA,NA,"B (MDot First)",2,321,"SS1","SS1",18,"J","Judginess","y8ii7g",1,"continue","",5578.92799961852,5565.74799999999,5578.92799961852,5578.92799961852,5565.74799999999,5578.92799961852,1,5578.92799961852,0,0,NA,"Click To Continue","Continue Button",1,"object-14","J","CFD-MF-309-002-S.jpeg",NA,"SUPTM16544"
"90",1689025390744,"10/07/2023 21:43:10",1689028990744,1,"10/07/2023 23:43:10",137495,33,"task-atm6",NA,30604225,9086484,NA,"complete",NA,NA,"computer","Desktop or Laptop","Windows 10","Edge 114.0.1823.67","1536x864","1147x603",NA,NA,NA,"JV Task P3 (Updated)",4,"Anxious",NA,"In",NA,NA,"HIGJFKEADBC",NA,NA,"B (MDot First)",2,321,"SS1","SS1",18,"J","Judginess","y8ii7g",1,"response","57",1882.75399999999,5565.74799999999,5579.12799990462,1882.75399999999,5565.74799999999,5579.12799990462,1,1882.75399999999,3696.37399990464,0,NA,"Slider","J",3,"object-18","J","CFD-MF-309-002-S.jpeg",NA,"SUPTM16544"
"91",1689025391699,"10/07/2023 21:43:11",1689028991699,1,"10/07/2023 23:43:11",137495,33,"task-atm6",NA,30604225,9086484,NA,"complete",NA,NA,"computer","Desktop or Laptop","Windows 10","Edge 114.0.1823.67","1536x864","1147x603",NA,NA,NA,"JV Task P3 (Updated)",4,"Anxious",NA,"In",NA,NA,"HIGJFKEADBC",NA,NA,"B (MDot First)",2,321,"SS1","SS1",18,"J","Fixation","w9zir9",2,"continue","",966.899000000005,966.899000000005,966.899000000005,966.899000000005,966.899000000005,966.899000000005,1,966.899000000005,0,0,NA,"Fixation Timing","Fixation",1,"object-65","J","CFD-MF-309-002-S.jpeg",NA,"SUPTM16544"
"92",1689025395370,"10/07/2023 21:43:15",1689028995370,1,"10/07/2023 23:43:15",137495,33,"task-atm6",NA,30604225,9086484,NA,"complete",NA,NA,"computer","Desktop or Laptop","Windows 10","Edge 114.0.1823.67","1536x864","1147x603",NA,NA,NA,"JV Task P3 (Updated)",4,"Anxious",NA,"In",NA,NA,"HIGJFKEADBC",NA,NA,"B (MDot First)",2,321,"SS1","SS1",13,"V","Valence","xyoebq",1,"continue","",3672.98099990463,3665.821,3672.98099990463,3672.98099990463,3665.821,3672.98099990463,1,3672.98099990463,0,0,NA,"Click To Continue","Continue Button",1,"object-25","V","CFD-WF-037-029-S.jpeg",NA,"SUPTM16544"
"93",1689025395373,"10/07/2023 21:43:15",1689028995373,1,"10/07/2023 23:43:15",137495,33,"task-atm6",NA,30604225,9086484,NA,"complete",NA,NA,"computer","Desktop or Laptop","Windows 10","Edge 114.0.1823.67","1536x864","1147x603",NA,NA,NA,"JV Task P3 (Updated)",4,"Anxious",NA,"In",NA,NA,"HIGJFKEADBC",NA,NA,"B (MDot First)",2,321,"SS1","SS1",13,"V","Valence","xyoebq",1,"response","34",2249.70999999999,3665.821,3675.38099999999,2249.70999999999,3665.821,3675.38099999999,1,2249.70999999999,1425.671,0,NA,"Slider","J",3,"object-27","V","CFD-WF-037-029-S.jpeg",NA,"SUPTM16544"
"94",1689025396330,"10/07/2023 21:43:16",1689028996330,1,"10/07/2023 23:43:16",137495,33,"task-atm6",NA,30604225,9086484,NA,"complete",NA,NA,"computer","Desktop or Laptop","Windows 10","Edge 114.0.1823.67","1536x864","1147x603",NA,NA,NA,"JV Task P3 (Updated)",4,"Anxious",NA,"In",NA,NA,"HIGJFKEADBC",NA,NA,"B (MDot First)",2,321,"SS1","SS1",13,"V","Fixation","68owkj",2,"continue","",966.796999999991,966.796999999991,966.796999999991,966.796999999991,966.796999999991,966.796999999991,1,966.796999999991,0,0,NA,"Fixation Timing","Fixation",1,"object-21","V","CFD-WF-037-029-S.jpeg",NA,"SUPTM16544"
"95",1689025399403,"10/07/2023 21:43:19",1689028999403,1,"10/07/2023 23:43:19",137495,33,"task-atm6",NA,30604225,9086484,NA,"complete",NA,NA,"computer","Desktop or Laptop","Windows 10","Edge 114.0.1823.67","1536x864","1147x603",NA,NA,NA,"JV Task P3 (Updated)",4,"Anxious",NA,"In",NA,NA,"HIGJFKEADBC",NA,NA,"B (MDot First)",2,321,"SS1","SS1",14,"V","Valence","xyoebq",1,"continue","",3073.26300000001,3066.01300000001,3073.26300000001,3073.26300000001,3066.01300000001,3073.26300000001,1,3073.26300000001,0,0,NA,"Click To Continue","Continue Button",1,"object-25","V","CFD-MM-313-002-H.jpeg",NA,"SUPTM16544"
"96",1689025399403,"10/07/2023 21:43:19",1689028999403,1,"10/07/2023 23:43:19",137495,33,"task-atm6",NA,30604225,9086484,NA,"complete",NA,NA,"computer","Desktop or Laptop","Windows 10","Edge 114.0.1823.67","1536x864","1147x603",NA,NA,NA,"JV Task P3 (Updated)",4,"Anxious",NA,"In",NA,NA,"HIGJFKEADBC",NA,NA,"B (MDot First)",2,321,"SS1","SS1",14,"V","Valence","xyoebq",1,"response","80",1749.85200000001,3066.01300000001,3073.46299980927,1749.85200000001,3066.01300000001,3073.46299980927,1,1749.85200000001,1323.61099980926,0,NA,"Slider","J",3,"object-27","V","CFD-MM-313-002-H.jpeg",NA,"SUPTM16544"
"97",1689025400363,"10/07/2023 21:43:20",1689029000363,1,"10/07/2023 23:43:20",137495,33,"task-atm6",NA,30604225,9086484,NA,"complete",NA,NA,"computer","Desktop or Laptop","Windows 10","Edge 114.0.1823.67","1536x864","1147x603",NA,NA,NA,"JV Task P3 (Updated)",4,"Anxious",NA,"In",NA,NA,"HIGJFKEADBC",NA,NA,"B (MDot First)",2,321,"SS1","SS1",14,"V","Fixation","68owkj",2,"continue","",966.75,966.75,966.75,966.75,966.75,966.75,1,966.75,0,0,NA,"Fixation Timing","Fixation",1,"object-21","V","CFD-MM-313-002-H.jpeg",NA,"SUPTM16544"
"98",1689025405986,"10/07/2023 21:43:25",1689029005986,1,"10/07/2023 23:43:25",137495,33,"task-atm6",NA,30604225,9086484,NA,"complete",NA,NA,"computer","Desktop or Laptop","Windows 10","Edge 114.0.1823.67","1536x864","1147x603",NA,NA,NA,"JV Task P3 (Updated)",4,"Anxious",NA,"In",NA,NA,"HIGJFKEADBC",NA,NA,"B (MDot First)",2,321,"SS1","SS1",15,"V","Valence","xyoebq",1,"continue","",5623.2999997139,5615.95999999999,5623.2999997139,5623.2999997139,5615.95999999999,5623.2999997139,1,5623.2999997139,0,0,NA,"Click To Continue","Continue Button",1,"object-25","V","CFD-WF-011-002-N.jpg",NA,"SUPTM16544"
"99",1689025405988,"10/07/2023 21:43:25",1689029005988,1,"10/07/2023 23:43:25",137495,33,"task-atm6",NA,30604225,9086484,NA,"complete",NA,NA,"computer","Desktop or Laptop","Windows 10","Edge 114.0.1823.67","1536x864","1147x603",NA,NA,NA,"JV Task P3 (Updated)",4,"Anxious",NA,"In",NA,NA,"HIGJFKEADBC",NA,NA,"B (MDot First)",2,321,"SS1","SS1",15,"V","Valence","xyoebq",1,"response","61",2099.87700000001,5615.95999999999,5625.59999990463,2099.87700000001,5615.95999999999,5625.59999990463,1,2099.87700000001,3525.72299990462,0,NA,"Slider","J",3,"object-27","V","CFD-WF-011-002-N.jpg",NA,"SUPTM16544"
"100",1689025406946,"10/07/2023 21:43:26",1689029006946,1,"10/07/2023 23:43:26",137495,33,"task-atm6",NA,30604225,9086484,NA,"complete",NA,NA,"computer","Desktop or Laptop","Windows 10","Edge 114.0.1823.67","1536x864","1147x603",NA,NA,NA,"JV Task P3 (Updated)",4,"Anxious",NA,"In",NA,NA,"HIGJFKEADBC",NA,NA,"B (MDot First)",2,321,"SS1","SS1",15,"V","Fixation","68owkj",2,"continue","",966.660000000003,966.660000000003,966.660000000003,966.660000000003,966.660000000003,966.660000000003,1,966.660000000003,0,0,NA,"Fixation Timing","Fixation",1,"object-21","V","CFD-WF-011-002-N.jpg",NA,"SUPTM16544"
"101",1689025415122,"10/07/2023 21:43:35",1689029015122,1,"10/07/2023 23:43:35",137495,33,"task-atm6",NA,30604225,9086484,NA,"complete",NA,NA,"computer","Desktop or Laptop","Windows 10","Edge 114.0.1823.67","1536x864","1147x603",NA,NA,NA,"JV Task P3 (Updated)",4,"Anxious",NA,"In",NA,NA,"HIGJFKEADBC",NA,NA,"B (MDot First)",2,321,"SS1","SS1",19,"J","Judginess","y8ii7g",1,"continue","",8176.47999990464,8165.66899999999,8176.47999990464,8176.47999990464,8165.66899999999,8176.47999990464,1,8176.47999990464,0,0,NA,"Click To Continue","Continue Button",1,"object-14","J","CFD-AF-211-066-S.jpeg",NA,"SUPTM16544"
"102",1689025415122,"10/07/2023 21:43:35",1689029015122,1,"10/07/2023 23:43:35",137495,33,"task-atm6",NA,30604225,9086484,NA,"complete",NA,NA,"computer","Desktop or Laptop","Windows 10","Edge 114.0.1823.67","1536x864","1147x603",NA,NA,NA,"JV Task P3 (Updated)",4,"Anxious",NA,"In",NA,NA,"HIGJFKEADBC",NA,NA,"B (MDot First)",2,321,"SS1","SS1",19,"J","Judginess","y8ii7g",1,"response","50",2316.065,8165.66899999999,8176.77999961853,2316.065,8165.66899999999,8176.77999961853,1,2316.065,5860.71499961853,0,NA,"Slider","J",3,"object-18","J","CFD-AF-211-066-S.jpeg",NA,"SUPTM16544"
"103",1689025416078,"10/07/2023 21:43:36",1689029016078,1,"10/07/2023 23:43:36",137495,33,"task-atm6",NA,30604225,9086484,NA,"complete",NA,NA,"computer","Desktop or Laptop","Windows 10","Edge 114.0.1823.67","1536x864","1147x603",NA,NA,NA,"JV Task P3 (Updated)",4,"Anxious",NA,"In",NA,NA,"HIGJFKEADBC",NA,NA,"B (MDot First)",2,321,"SS1","SS1",19,"J","Fixation","w9zir9",2,"continue","",966.559999999998,966.559999999998,966.559999999998,966.559999999998,966.559999999998,966.559999999998,1,966.559999999998,0,0,NA,"Fixation Timing","Fixation",1,"object-65","J","CFD-AF-211-066-S.jpeg",NA,"SUPTM16544"
"104",1689025424268,"10/07/2023 21:43:44",1689029024268,1,"10/07/2023 23:43:44",137495,33,"task-atm6",NA,30604225,9086484,NA,"complete",NA,NA,"computer","Desktop or Laptop","Windows 10","Edge 114.0.1823.67","1536x864","1147x603",NA,NA,NA,"JV Task P3 (Updated)",4,"Anxious",NA,"In",NA,NA,"HIGJFKEADBC",NA,NA,"B (MDot First)",2,321,"SS1","SS1",20,"J","Judginess","y8ii7g",1,"continue","",8189.55099961854,8182.497,8189.55099961854,8189.55099961854,8182.497,8189.55099961854,1,8189.55099961854,0,0,NA,"Click To Continue","Continue Button",1,"object-14","J","CFD-AM-225-102-S.jpeg",NA,"SUPTM16544"
"105",1689025424268,"10/07/2023 21:43:44",1689029024268,1,"10/07/2023 23:43:44",137495,33,"task-atm6",NA,30604225,9086484,NA,"complete",NA,NA,"computer","Desktop or Laptop","Windows 10","Edge 114.0.1823.67","1536x864","1147x603",NA,NA,NA,"JV Task P3 (Updated)",4,"Anxious",NA,"In",NA,NA,"HIGJFKEADBC",NA,NA,"B (MDot First)",2,321,"SS1","SS1",20,"J","Judginess","y8ii7g",1,"response","31",6082.71000000002,8182.497,8189.85099980928,6082.71000000002,8182.497,8189.85099980928,1,6082.71000000002,2107.14099980926,0,NA,"Slider","J",3,"object-18","J","CFD-AM-225-102-S.jpeg",NA,"SUPTM16544"
"106",1689025425228,"10/07/2023 21:43:45",1689029025228,1,"10/07/2023 23:43:45",137495,33,"task-atm6",NA,30604225,9086484,NA,"complete",NA,NA,"computer","Desktop or Laptop","Windows 10","Edge 114.0.1823.67","1536x864","1147x603",NA,NA,NA,"JV Task P3 (Updated)",4,"Anxious",NA,"In",NA,NA,"HIGJFKEADBC",NA,NA,"B (MDot First)",2,321,"SS1","SS1",20,"J","Fixation","w9zir9",2,"continue","",966.314000000013,966.314000000013,966.314000000013,966.314000000013,966.314000000013,966.314000000013,1,966.314000000013,0,0,NA,"Fixation Timing","Fixation",1,"object-65","J","CFD-AM-225-102-S.jpeg",NA,"SUPTM16544"
"107",1689025428199,"10/07/2023 21:43:48",1689029028199,1,"10/07/2023 23:43:48",137495,33,"task-atm6",NA,30604225,9086484,NA,"complete",NA,NA,"computer","Desktop or Laptop","Windows 10","Edge 114.0.1823.67","1536x864","1147x603",NA,NA,NA,"JV Task P3 (Updated)",4,"Anxious",NA,"In",NA,NA,"HIGJFKEADBC",NA,NA,"B (MDot First)",2,321,"SS1","SS1",21,"J","Judginess","y8ii7g",1,"continue","",2972.53999980926,2966.10500000001,2972.53999980926,2972.53999980926,2966.10500000001,2972.53999980926,1,2972.53999980926,0,0,NA,"Click To Continue","Continue Button",1,"object-14","J","CFD-WM-031-003-S.jpeg",NA,"SUPTM16544"
"108",1689025428201,"10/07/2023 21:43:48",1689029028201,1,"10/07/2023 23:43:48",137495,33,"task-atm6",NA,30604225,9086484,NA,"complete",NA,NA,"computer","Desktop or Laptop","Windows 10","Edge 114.0.1823.67","1536x864","1147x603",NA,NA,NA,"JV Task P3 (Updated)",4,"Anxious",NA,"In",NA,NA,"HIGJFKEADBC",NA,NA,"B (MDot First)",2,321,"SS1","SS1",21,"J","Judginess","y8ii7g",1,"response","38",1649.63,2966.10500000001,2974.13999971389,1649.63,2966.10500000001,2974.13999971389,1,1649.63,1324.50999971389,0,NA,"Slider","J",3,"object-18","J","CFD-WM-031-003-S.jpeg",NA,"SUPTM16544"
"109",1689025429161,"10/07/2023 21:43:49",1689029029161,1,"10/07/2023 23:43:49",137495,33,"task-atm6",NA,30604225,9086484,NA,"complete",NA,NA,"computer","Desktop or Laptop","Windows 10","Edge 114.0.1823.67","1536x864","1147x603",NA,NA,NA,"JV Task P3 (Updated)",4,"Anxious",NA,"In",NA,NA,"HIGJFKEADBC",NA,NA,"B (MDot First)",2,321,"SS1","SS1",21,"J","Fixation","w9zir9",2,"continue","",966.857999999978,966.857999999978,966.857999999978,966.857999999978,966.857999999978,966.857999999978,1,966.857999999978,0,0,NA,"Fixation Timing","Fixation",1,"object-65","J","CFD-WM-031-003-S.jpeg",NA,"SUPTM16544"
"110",1689025434719,"10/07/2023 21:43:54",1689029034719,1,"10/07/2023 23:43:54",137495,33,"task-atm6",NA,30604225,9086484,NA,"complete",NA,NA,"computer","Desktop or Laptop","Windows 10","Edge 114.0.1823.67","1536x864","1147x603",NA,NA,NA,"JV Task P3 (Updated)",4,"Anxious",NA,"In",NA,NA,"HIGJFKEADBC",NA,NA,"B (MDot First)",2,321,"SS1","SS1",22,"J","Judginess","y8ii7g",1,"continue","",5559.37700000001,5549.10000000001,5559.37700000001,5559.37700000001,5549.10000000001,5559.37700000001,1,5559.37700000001,0,0,NA,"Click To Continue","Continue Button",1,"object-14","J","CFD-WM-009-002-N.jpg",NA,"SUPTM16544"
"111",1689025434720,"10/07/2023 21:43:54",1689029034720,1,"10/07/2023 23:43:54",137495,33,"task-atm6",NA,30604225,9086484,NA,"complete",NA,NA,"computer","Desktop or Laptop","Windows 10","Edge 114.0.1823.67","1536x864","1147x603",NA,NA,NA,"JV Task P3 (Updated)",4,"Anxious",NA,"In",NA,NA,"HIGJFKEADBC",NA,NA,"B (MDot First)",2,321,"SS1","SS1",22,"J","Judginess","y8ii7g",1,"response","18",1766.15300000002,5549.10000000001,5559.67699971391,1766.15300000002,5549.10000000001,5559.67699971391,1,1766.15300000002,3793.52399971389,0,NA,"Slider","J",3,"object-18","J","CFD-WM-009-002-N.jpg",NA,"SUPTM16544"
"112",1689025435677,"10/07/2023 21:43:55",1689029035677,1,"10/07/2023 23:43:55",137495,33,"task-atm6",NA,30604225,9086484,NA,"complete",NA,NA,"computer","Desktop or Laptop","Windows 10","Edge 114.0.1823.67","1536x864","1147x603",NA,NA,NA,"JV Task P3 (Updated)",4,"Anxious",NA,"In",NA,NA,"HIGJFKEADBC",NA,NA,"B (MDot First)",2,321,"SS1","SS1",22,"J","Fixation","w9zir9",2,"continue","",966.540000000008,966.540000000008,966.540000000008,966.540000000008,966.540000000008,966.540000000008,1,966.540000000008,0,0,NA,"Fixation Timing","Fixation",1,"object-65","J","CFD-WM-009-002-N.jpg",NA,"SUPTM16544"
"113",1689025439568,"10/07/2023 21:43:59",1689029039568,1,"10/07/2023 23:43:59",137495,33,"task-atm6",NA,30604225,9086484,NA,"complete",NA,NA,"computer","Desktop or Laptop","Windows 10","Edge 114.0.1823.67","1536x864","1147x603",NA,NA,NA,"JV Task P3 (Updated)",4,"Anxious",NA,"In",NA,NA,"HIGJFKEADBC",NA,NA,"B (MDot First)",2,321,"SS1","SS1",23,"J","Judginess","y8ii7g",1,"continue","",3892.83699990463,3883.299,3892.83699990463,3892.83699990463,3883.299,3892.83699990463,1,3892.83699990463,0,0,NA,"Click To Continue","Continue Button",1,"object-14","J","CFD-WF-017-003-S.jpeg",NA,"SUPTM16544"
"114",1689025439571,"10/07/2023 21:43:59",1689029039571,1,"10/07/2023 23:43:59",137495,33,"task-atm6",NA,30604225,9086484,NA,"complete",NA,NA,"computer","Desktop or Laptop","Windows 10","Edge 114.0.1823.67","1536x864","1147x603",NA,NA,NA,"JV Task P3 (Updated)",4,"Anxious",NA,"In",NA,NA,"HIGJFKEADBC",NA,NA,"B (MDot First)",2,321,"SS1","SS1",23,"J","Judginess","y8ii7g",1,"response","19",2733.353,3883.299,3895.33699990463,2733.353,3883.299,3895.33699990463,1,2733.353,1161.98399990462,0,NA,"Slider","J",3,"object-18","J","CFD-WF-017-003-S.jpeg",NA,"SUPTM16544"
"115",1689025440526,"10/07/2023 21:44:00",1689029040526,1,"10/07/2023 23:44:00",137495,33,"task-atm6",NA,30604225,9086484,NA,"complete",NA,NA,"computer","Desktop or Laptop","Windows 10","Edge 114.0.1823.67","1536x864","1147x603",NA,NA,NA,"JV Task P3 (Updated)",4,"Anxious",NA,"In",NA,NA,"HIGJFKEADBC",NA,NA,"B (MDot First)",2,321,"SS1","SS1",23,"J","Fixation","w9zir9",2,"continue","",966.092999999993,966.092999999993,966.092999999993,966.092999999993,966.092999999993,966.092999999993,1,966.092999999993,0,0,NA,"Fixation Timing","Fixation",1,"object-65","J","CFD-WF-017-003-S.jpeg",NA,"SUPTM16544"
"116",1689025445295,"10/07/2023 21:44:05",1689029045295,1,"10/07/2023 23:44:05",137495,33,"task-atm6",NA,30604225,9086484,NA,"complete",NA,NA,"computer","Desktop or Laptop","Windows 10","Edge 114.0.1823.67","1536x864","1147x603",NA,NA,NA,"JV Task P3 (Updated)",4,"Anxious",NA,"In",NA,NA,"HIGJFKEADBC",NA,NA,"B (MDot First)",2,321,"SS1","SS1",24,"J","Judginess","y8ii7g",1,"continue","",4770.1449997139,4766.14000000001,4770.1449997139,4770.1449997139,4766.14000000001,4770.1449997139,1,4770.1449997139,0,0,NA,"Click To Continue","Continue Button",1,"object-14","J","CFD-IM-695-001-S.jpeg",NA,"SUPTM16544"
"117",1689025445295,"10/07/2023 21:44:05",1689029045295,1,"10/07/2023 23:44:05",137495,33,"task-atm6",NA,30604225,9086484,NA,"complete",NA,NA,"computer","Desktop or Laptop","Windows 10","Edge 114.0.1823.67","1536x864","1147x603",NA,NA,NA,"JV Task P3 (Updated)",4,"Anxious",NA,"In",NA,NA,"HIGJFKEADBC",NA,NA,"B (MDot First)",2,321,"SS1","SS1",24,"J","Judginess","y8ii7g",1,"response","4",2716.35000000001,4766.14000000001,4770.44499990463,2716.35000000001,4766.14000000001,4770.44499990463,1,2716.35000000001,2054.09499990463,0,NA,"Slider","J",3,"object-18","J","CFD-IM-695-001-S.jpeg",NA,"SUPTM16544"
"118",1689025446258,"10/07/2023 21:44:06",1689029046258,1,"10/07/2023 23:44:06",137495,33,"task-atm6",NA,30604225,9086484,NA,"complete",NA,NA,"computer","Desktop or Laptop","Windows 10","Edge 114.0.1823.67","1536x864","1147x603",NA,NA,NA,"JV Task P3 (Updated)",4,"Anxious",NA,"In",NA,NA,"HIGJFKEADBC",NA,NA,"B (MDot First)",2,321,"SS1","SS1",24,"J","Fixation","w9zir9",2,"continue","",966.51999999999,966.51999999999,966.51999999999,966.51999999999,966.51999999999,966.51999999999,1,966.51999999999,0,0,NA,"Fixation Timing","Fixation",1,"object-65","J","CFD-IM-695-001-S.jpeg",NA,"SUPTM16544"
"119",1689025448987,"10/07/2023 21:44:08",1689029048987,1,"10/07/2023 23:44:08",137495,33,"task-atm6",NA,30604225,9086484,NA,"complete",NA,NA,"computer","Desktop or Laptop","Windows 10","Edge 114.0.1823.67","1536x864","1147x603",NA,NA,NA,"JV Task P3 (Updated)",4,"Anxious",NA,"In",NA,NA,"HIGJFKEADBC",NA,NA,"B (MDot First)",2,321,"SS1","SS1",25,"J","Judginess","y8ii7g",1,"continue","",2729.28499990463,2716.753,2729.28499990463,2729.28499990463,2716.753,2729.28499990463,1,2729.28499990463,0,0,NA,"Click To Continue","Continue Button",1,"object-14","J","CFD-MF-315-002-S.jpeg",NA,"SUPTM16544"
"120",1689025448987,"10/07/2023 21:44:08",1689029048987,1,"10/07/2023 23:44:08",137495,33,"task-atm6",NA,30604225,9086484,NA,"complete",NA,NA,"computer","Desktop or Laptop","Windows 10","Edge 114.0.1823.67","1536x864","1147x603",NA,NA,NA,"JV Task P3 (Updated)",4,"Anxious",NA,"In",NA,NA,"HIGJFKEADBC",NA,NA,"B (MDot First)",2,321,"SS1","SS1",25,"J","Judginess","y8ii7g",1,"response","36",2066.78899999999,2716.753,2729.685,2066.78899999999,2716.753,2729.685,1,2066.78899999999,662.896000000008,0,NA,"Slider","J",3,"object-18","J","CFD-MF-315-002-S.jpeg",NA,"SUPTM16544"
"121",1689025449942,"10/07/2023 21:44:09",1689029049942,1,"10/07/2023 23:44:09",137495,33,"task-atm6",NA,30604225,9086484,NA,"complete",NA,NA,"computer","Desktop or Laptop","Windows 10","Edge 114.0.1823.67","1536x864","1147x603",NA,NA,NA,"JV Task P3 (Updated)",4,"Anxious",NA,"In",NA,NA,"HIGJFKEADBC",NA,NA,"B (MDot First)",2,321,"SS1","SS1",25,"J","Fixation","w9zir9",2,"continue","",966.396999999997,966.396999999997,966.396999999997,966.396999999997,966.396999999997,966.396999999997,1,966.396999999997,0,0,NA,"Fixation Timing","Fixation",1,"object-65","J","CFD-MF-315-002-S.jpeg",NA,"SUPTM16544"
"122",1689025453764,"10/07/2023 21:44:13",1689029053764,1,"10/07/2023 23:44:13",137495,33,"task-atm6",NA,30604225,9086484,NA,"complete",NA,NA,"computer","Desktop or Laptop","Windows 10","Edge 114.0.1823.67","1536x864","1147x603",NA,NA,NA,"JV Task P3 (Updated)",4,"Anxious",NA,"In",NA,NA,"HIGJFKEADBC",NA,NA,"B (MDot First)",2,321,"SS1","SS1",26,"J","Judginess","y8ii7g",1,"continue","",3822.93499961853,3816.29200000002,3822.93499961853,3822.93499961853,3816.29200000002,3822.93499961853,1,3822.93499961853,0,0,NA,"Click To Continue","Continue Button",1,"object-14","J","CFD-BM-016-036-H.jpeg",NA,"SUPTM16544"
"123",1689025453764,"10/07/2023 21:44:13",1689029053764,1,"10/07/2023 23:44:13",137495,33,"task-atm6",NA,30604225,9086484,NA,"complete",NA,NA,"computer","Desktop or Laptop","Windows 10","Edge 114.0.1823.67","1536x864","1147x603",NA,NA,NA,"JV Task P3 (Updated)",4,"Anxious",NA,"In",NA,NA,"HIGJFKEADBC",NA,NA,"B (MDot First)",2,321,"SS1","SS1",26,"J","Judginess","y8ii7g",1,"response","65",3132.97099999999,3816.29200000002,3823.23499980927,3132.97099999999,3816.29200000002,3823.23499980927,1,3132.97099999999,690.263999809278,0,NA,"Slider","J",3,"object-18","J","CFD-BM-016-036-H.jpeg",NA,"SUPTM16544"
"124",1689025454724,"10/07/2023 21:44:14",1689029054724,1,"10/07/2023 23:44:14",137495,33,"task-atm6",NA,30604225,9086484,NA,"complete",NA,NA,"computer","Desktop or Laptop","Windows 10","Edge 114.0.1823.67","1536x864","1147x603",NA,NA,NA,"JV Task P3 (Updated)",4,"Anxious",NA,"In",NA,NA,"HIGJFKEADBC",NA,NA,"B (MDot First)",2,321,"SS1","SS1",26,"J","Fixation","w9zir9",2,"continue","",966.229999999981,966.229999999981,966.229999999981,966.229999999981,966.229999999981,966.229999999981,1,966.229999999981,0,0,NA,"Fixation Timing","Fixation",1,"object-65","J","CFD-BM-016-036-H.jpeg",NA,"SUPTM16544"
"125",1689025460672,"10/07/2023 21:44:20",1689029060672,1,"10/07/2023 23:44:20",137495,33,"task-atm6",NA,30604225,9086484,NA,"complete",NA,NA,"computer","Desktop or Laptop","Windows 10","Edge 114.0.1823.67","1536x864","1147x603",NA,NA,NA,"JV Task P3 (Updated)",4,"Anxious",NA,"In",NA,NA,"HIGJFKEADBC",NA,NA,"B (MDot First)",2,321,"SS1","SS1",27,"J","Judginess","y8ii7g",1,"continue","",5949.01300000001,5932.95699999999,5949.01300000001,5949.01300000001,5932.95699999999,5949.01300000001,1,5949.01300000001,0,0,NA,"Click To Continue","Continue Button",1,"object-14","J","CFD-WM-025-002-S.jpeg",NA,"SUPTM16544"
"126",1689025460675,"10/07/2023 21:44:20",1689029060675,1,"10/07/2023 23:44:20",137495,33,"task-atm6",NA,30604225,9086484,NA,"complete",NA,NA,"computer","Desktop or Laptop","Windows 10","Edge 114.0.1823.67","1536x864","1147x603",NA,NA,NA,"JV Task P3 (Updated)",4,"Anxious",NA,"In",NA,NA,"HIGJFKEADBC",NA,NA,"B (MDot First)",2,321,"SS1","SS1",27,"J","Judginess","y8ii7g",1,"response","60",2716.48000000001,5932.95699999999,5949.57699999999,2716.48000000001,5932.95699999999,5949.57699999999,1,2716.48000000001,3233.09699999998,0,NA,"Slider","J",3,"object-18","J","CFD-WM-025-002-S.jpeg",NA,"SUPTM16544"
"127",1689025461624,"10/07/2023 21:44:21",1689029061624,1,"10/07/2023 23:44:21",137495,33,"task-atm6",NA,30604225,9086484,NA,"complete",NA,NA,"computer","Desktop or Laptop","Windows 10","Edge 114.0.1823.67","1536x864","1147x603",NA,NA,NA,"JV Task P3 (Updated)",4,"Anxious",NA,"In",NA,NA,"HIGJFKEADBC",NA,NA,"B (MDot First)",2,321,"SS1","SS1",27,"J","Fixation","w9zir9",2,"continue","",966.22100000002,966.22100000002,966.22100000002,966.22100000002,966.22100000002,966.22100000002,1,966.22100000002,0,0,NA,"Fixation Timing","Fixation",1,"object-65","J","CFD-WM-025-002-S.jpeg",NA,"SUPTM16544"
"128",1689025467013,"10/07/2023 21:44:27",1689029067013,1,"10/07/2023 23:44:27",137495,33,"task-atm6",NA,30604225,9086484,NA,"complete",NA,NA,"computer","Desktop or Laptop","Windows 10","Edge 114.0.1823.67","1536x864","1147x603",NA,NA,NA,"JV Task P3 (Updated)",4,"Anxious",NA,"In",NA,NA,"HIGJFKEADBC",NA,NA,"B (MDot First)",2,321,"SS1","SS1",28,"J","Judginess","y8ii7g",1,"continue","",5390.23499961852,5382.74600000001,5390.23499961852,5390.23499961852,5382.74600000001,5390.23499961852,1,5390.23499961852,0,0,NA,"Click To Continue","Continue Button",1,"object-14","J","CFD-BF-040-003-N.jpg",NA,"SUPTM16544"
"129",1689025467013,"10/07/2023 21:44:27",1689029067013,1,"10/07/2023 23:44:27",137495,33,"task-atm6",NA,30604225,9086484,NA,"complete",NA,NA,"computer","Desktop or Laptop","Windows 10","Edge 114.0.1823.67","1536x864","1147x603",NA,NA,NA,"JV Task P3 (Updated)",4,"Anxious",NA,"In",NA,NA,"HIGJFKEADBC",NA,NA,"B (MDot First)",2,321,"SS1","SS1",28,"J","Judginess","y8ii7g",1,"response","42",4799.67999999996,5382.74600000001,5390.53499980926,4799.67999999996,5382.74600000001,5390.53499980926,1,4799.67999999996,590.854999809293,0,NA,"Slider","J",3,"object-18","J","CFD-BF-040-003-N.jpg",NA,"SUPTM16544"
"130",1689025467973,"10/07/2023 21:44:27",1689029067973,1,"10/07/2023 23:44:27",137495,33,"task-atm6",NA,30604225,9086484,NA,"complete",NA,NA,"computer","Desktop or Laptop","Windows 10","Edge 114.0.1823.67","1536x864","1147x603",NA,NA,NA,"JV Task P3 (Updated)",4,"Anxious",NA,"In",NA,NA,"HIGJFKEADBC",NA,NA,"B (MDot First)",2,321,"SS1","SS1",28,"J","Fixation","w9zir9",2,"continue","",966.525999999954,966.525999999954,966.525999999954,966.525999999954,966.525999999954,966.525999999954,1,966.525999999954,0,0,NA,"Fixation Timing","Fixation",1,"object-65","J","CFD-BF-040-003-N.jpg",NA,"SUPTM16544"
"131",1689025472360,"10/07/2023 21:44:32",1689029072360,1,"10/07/2023 23:44:32",137495,33,"task-atm6",NA,30604225,9086484,NA,"complete",NA,NA,"computer","Desktop or Laptop","Windows 10","Edge 114.0.1823.67","1536x864","1147x603",NA,NA,NA,"JV Task P3 (Updated)",4,"Anxious",NA,"In",NA,NA,"HIGJFKEADBC",NA,NA,"B (MDot First)",2,321,"SS1","SS1",29,"J","Judginess","y8ii7g",1,"continue","",4388.76299980929,4382.74800000002,4388.76299980929,4388.76299980929,4382.74800000002,4388.76299980929,1,4388.76299980929,0,0,NA,"Click To Continue","Continue Button",1,"object-14","J","CFD-WF-022-017-S.jpeg",NA,"SUPTM16544"
"132",1689025472362,"10/07/2023 21:44:32",1689029072362,1,"10/07/2023 23:44:32",137495,33,"task-atm6",NA,30604225,9086484,NA,"complete",NA,NA,"computer","Desktop or Laptop","Windows 10","Edge 114.0.1823.67","1536x864","1147x603",NA,NA,NA,"JV Task P3 (Updated)",4,"Anxious",NA,"In",NA,NA,"HIGJFKEADBC",NA,NA,"B (MDot First)",2,321,"SS1","SS1",29,"J","Judginess","y8ii7g",1,"response","27",3182.88,4382.74800000002,4390.66299990466,3182.88,4382.74800000002,4390.66299990466,1,3182.88,1207.78299990465,0,NA,"Slider","J",3,"object-18","J","CFD-WF-022-017-S.jpeg",NA,"SUPTM16544"
"133",1689025473322,"10/07/2023 21:44:33",1689029073322,1,"10/07/2023 23:44:33",137495,33,"task-atm6",NA,30604225,9086484,NA,"complete",NA,NA,"computer","Desktop or Laptop","Windows 10","Edge 114.0.1823.67","1536x864","1147x603",NA,NA,NA,"JV Task P3 (Updated)",4,"Anxious",NA,"In",NA,NA,"HIGJFKEADBC",NA,NA,"B (MDot First)",2,321,"SS1","SS1",29,"J","Fixation","w9zir9",2,"continue","",966.824000000022,966.824000000022,966.824000000022,966.824000000022,966.824000000022,966.824000000022,1,966.824000000022,0,0,NA,"Fixation Timing","Fixation",1,"object-65","J","CFD-WF-022-017-S.jpeg",NA,"SUPTM16544"
"134",1689025477244,"10/07/2023 21:44:37",1689029077244,1,"10/07/2023 23:44:37",137495,33,"task-atm6",NA,30604225,9086484,NA,"complete",NA,NA,"computer","Desktop or Laptop","Windows 10","Edge 114.0.1823.67","1536x864","1147x603",NA,NA,NA,"JV Task P3 (Updated)",4,"Anxious",NA,"In",NA,NA,"HIGJFKEADBC",NA,NA,"B (MDot First)",2,321,"SS1","SS1",30,"J","Judginess","y8ii7g",1,"continue","",3923.09099990461,3916.23999999999,3923.09099990461,3923.09099990461,3916.23999999999,3923.09099990461,1,3923.09099990461,0,0,NA,"Click To Continue","Continue Button",1,"object-14","J","CFD-WM-036-031-H.jpeg",NA,"SUPTM16544"
"135",1689025477245,"10/07/2023 21:44:37",1689029077245,1,"10/07/2023 23:44:37",137495,33,"task-atm6",NA,30604225,9086484,NA,"complete",NA,NA,"computer","Desktop or Laptop","Windows 10","Edge 114.0.1823.67","1536x864","1147x603",NA,NA,NA,"JV Task P3 (Updated)",4,"Anxious",NA,"In",NA,NA,"HIGJFKEADBC",NA,NA,"B (MDot First)",2,321,"SS1","SS1",30,"J","Judginess","y8ii7g",1,"response","75",1699.65399999998,3916.23999999999,3923.49099999998,1699.65399999998,3916.23999999999,3923.49099999998,1,1699.65399999998,2223.837,0,NA,"Slider","J",3,"object-18","J","CFD-WM-036-031-H.jpeg",NA,"SUPTM16544"
"136",1689025478205,"10/07/2023 21:44:38",1689029078205,1,"10/07/2023 23:44:38",137495,33,"task-atm6",NA,30604225,9086484,NA,"complete",NA,NA,"computer","Desktop or Laptop","Windows 10","Edge 114.0.1823.67","1536x864","1147x603",NA,NA,NA,"JV Task P3 (Updated)",4,"Anxious",NA,"In",NA,NA,"HIGJFKEADBC",NA,NA,"B (MDot First)",2,321,"SS1","SS1",30,"J","Fixation","w9zir9",2,"continue","",966.474999999977,966.474999999977,966.474999999977,966.474999999977,966.474999999977,966.474999999977,1,966.474999999977,0,0,NA,"Fixation Timing","Fixation",1,"object-65","J","CFD-WM-036-031-H.jpeg",NA,"SUPTM16544"
"137",1689025489830,"10/07/2023 21:44:49",1689029089830,1,"10/07/2023 23:44:49",137495,33,"task-atm6",NA,30604225,9086484,NA,"complete",NA,NA,"computer","Desktop or Laptop","Windows 10","Edge 114.0.1823.67","1536x864","1147x603",NA,NA,NA,"JV Task P3 (Updated)",4,"Anxious",NA,"In",NA,NA,"HIGJFKEADBC",NA,NA,"B (MDot First)",2,321,"SS1","SS1",16,"V","Valence","xyoebq",1,"continue","",11626.4759998093,11615.246,11626.4759998093,11626.4759998093,11615.246,11626.4759998093,1,11626.4759998093,0,0,NA,"Click To Continue","Continue Button",1,"object-25","V","CFD-WF-015-006-N.jpg",NA,"SUPTM16544"
"138",1689025489833,"10/07/2023 21:44:49",1689029089833,1,"10/07/2023 23:44:49",137495,33,"task-atm6",NA,30604225,9086484,NA,"complete",NA,NA,"computer","Desktop or Laptop","Windows 10","Edge 114.0.1823.67","1536x864","1147x603",NA,NA,NA,"JV Task P3 (Updated)",4,"Anxious",NA,"In",NA,NA,"HIGJFKEADBC",NA,NA,"B (MDot First)",2,321,"SS1","SS1",16,"V","Valence","xyoebq",1,"response","34",2966.35500000004,11615.246,11629.3759999046,2966.35500000004,11615.246,11629.3759999046,1,2966.35500000004,8663.02099990461,0,NA,"Slider","J",3,"object-27","V","CFD-WF-015-006-N.jpg",NA,"SUPTM16544"
"139",1689025490787,"10/07/2023 21:44:50",1689029090787,1,"10/07/2023 23:44:50",137495,33,"task-atm6",NA,30604225,9086484,NA,"complete",NA,NA,"computer","Desktop or Laptop","Windows 10","Edge 114.0.1823.67","1536x864","1147x603",NA,NA,NA,"JV Task P3 (Updated)",4,"Anxious",NA,"In",NA,NA,"HIGJFKEADBC",NA,NA,"B (MDot First)",2,321,"SS1","SS1",16,"V","Fixation","68owkj",2,"continue","",966.724000000046,966.724000000046,966.724000000046,966.724000000046,966.724000000046,966.724000000046,1,966.724000000046,0,0,NA,"Fixation Timing","Fixation",1,"object-21","V","CFD-WF-015-006-N.jpg",NA,"SUPTM16544"
"140",1689025499453,"10/07/2023 21:44:59",1689029099453,1,"10/07/2023 23:44:59",137495,33,"task-atm6",NA,30604225,9086484,NA,"complete",NA,NA,"computer","Desktop or Laptop","Windows 10","Edge 114.0.1823.67","1536x864","1147x603",NA,NA,NA,"JV Task P3 (Updated)",4,"Anxious",NA,"In",NA,NA,"HIGJFKEADBC",NA,NA,"B (MDot First)",2,321,"SS1","SS1",31,"J","Judginess","y8ii7g",1,"continue","",8667.60599971388,8665.25,8667.60599971388,8667.60599971388,8665.25,8667.60599971388,1,8667.60599971388,0,0,NA,"Click To Continue","Continue Button",1,"object-14","J","CFD-AF-233-190-S.jpeg",NA,"SUPTM16544"
"141",1689025499454,"10/07/2023 21:44:59",1689029099454,1,"10/07/2023 23:44:59",137495,33,"task-atm6",NA,30604225,9086484,NA,"complete",NA,NA,"computer","Desktop or Laptop","Windows 10","Edge 114.0.1823.67","1536x864","1147x603",NA,NA,NA,"JV Task P3 (Updated)",4,"Anxious",NA,"In",NA,NA,"HIGJFKEADBC",NA,NA,"B (MDot First)",2,321,"SS1","SS1",31,"J","Judginess","y8ii7g",1,"response","30",7815.39999999997,8665.25,8667.90599990461,7815.39999999997,8665.25,8667.90599990461,1,7815.39999999997,852.50599990465,0,NA,"Slider","J",3,"object-18","J","CFD-AF-233-190-S.jpeg",NA,"SUPTM16544"
"142",1689025500419,"10/07/2023 21:45:00",1689029100419,1,"10/07/2023 23:45:00",137495,33,"task-atm6",NA,30604225,9086484,NA,"complete",NA,NA,"computer","Desktop or Laptop","Windows 10","Edge 114.0.1823.67","1536x864","1147x603",NA,NA,NA,"JV Task P3 (Updated)",4,"Anxious",NA,"In",NA,NA,"HIGJFKEADBC",NA,NA,"B (MDot First)",2,321,"SS1","SS1",31,"J","Fixation","w9zir9",2,"continue","",967.021999999997,967.021999999997,967.021999999997,967.021999999997,967.021999999997,967.021999999997,1,967.021999999997,0,0,NA,"Fixation Timing","Fixation",1,"object-65","J","CFD-AF-233-190-S.jpeg",NA,"SUPTM16544"
"143",1689025503684,"10/07/2023 21:45:03",1689029103684,1,"10/07/2023 23:45:03",137495,33,"task-atm6",NA,30604225,9086484,NA,"complete",NA,NA,"computer","Desktop or Laptop","Windows 10","Edge 114.0.1823.67","1536x864","1147x603",NA,NA,NA,"JV Task P3 (Updated)",4,"Anxious",NA,"In",NA,NA,"HIGJFKEADBC",NA,NA,"B (MDot First)",2,321,"SS1","SS1",17,"V","Valence","xyoebq",1,"continue","",3266.07700000005,3249.51000000001,3266.07700000005,3266.07700000005,3249.51000000001,3266.07700000005,1,3266.07700000005,0,0,NA,"Click To Continue","Continue Button",1,"object-25","V","CFD-WF-039-025-H.jpeg",NA,"SUPTM16544"
"144",1689025503684,"10/07/2023 21:45:03",1689029103684,1,"10/07/2023 23:45:03",137495,33,"task-atm6",NA,30604225,9086484,NA,"complete",NA,NA,"computer","Desktop or Laptop","Windows 10","Edge 114.0.1823.67","1536x864","1147x603",NA,NA,NA,"JV Task P3 (Updated)",4,"Anxious",NA,"In",NA,NA,"HIGJFKEADBC",NA,NA,"B (MDot First)",2,321,"SS1","SS1",17,"V","Valence","xyoebq",1,"response","74",2049.34299999999,3249.51000000001,3266.07700000005,2049.34299999999,3249.51000000001,3266.07700000005,1,2049.34299999999,1216.73400000005,0,NA,"Slider","J",3,"object-27","V","CFD-WF-039-025-H.jpeg",NA,"SUPTM16544"
"145",1689025504635,"10/07/2023 21:45:04",1689029104635,1,"10/07/2023 23:45:04",137495,33,"task-atm6",NA,30604225,9086484,NA,"complete",NA,NA,"computer","Desktop or Laptop","Windows 10","Edge 114.0.1823.67","1536x864","1147x603",NA,NA,NA,"JV Task P3 (Updated)",4,"Anxious",NA,"In",NA,NA,"HIGJFKEADBC",NA,NA,"B (MDot First)",2,321,"SS1","SS1",17,"V","Fixation","68owkj",2,"continue","",966.198999999964,966.198999999964,966.198999999964,966.198999999964,966.198999999964,966.198999999964,1,966.198999999964,0,0,NA,"Fixation Timing","Fixation",1,"object-21","V","CFD-WF-039-025-H.jpeg",NA,"SUPTM16544"
"146",1689025504862,"10/07/2023 21:45:04",1689029104862,1,"10/07/2023 23:45:04",137495,33,"task-atm6",NA,30604225,9086484,NA,"complete",NA,NA,"computer","Desktop or Laptop","Windows 10","Edge 114.0.1823.67","1536x864","1147x603",NA,NA,NA,"JV Task P3 (Updated)",4,"Anxious",NA,"In",NA,NA,"HIGJFKEADBC",NA,NA,"B (MDot First)",2,321,"SS1","SS1",18,"V","Valence","xyoebq",1,"continue","",227.825000000012,216.834000000032,227.825000000012,227.825000000012,216.834000000032,227.825000000012,1,227.825000000012,0,0,NA,"Click To Continue","Continue Button",1,"object-25","V","CFD-WF-024-003-N.jpg",NA,"SUPTM16544"
"147",1689025508442,"10/07/2023 21:45:08",1689029108442,1,"10/07/2023 23:45:08",137495,33,"task-atm6",NA,30604225,9086484,NA,"complete",NA,NA,"computer","Desktop or Laptop","Windows 10","Edge 114.0.1823.67","1536x864","1147x603",NA,NA,NA,"JV Task P3 (Updated)",4,"Anxious",NA,"In",NA,NA,"HIGJFKEADBC",NA,NA,"B (MDot First)",2,321,"SS1","SS1",18,"V","Valence","xyoebq",1,"continue","",3807.92499990464,3799.902,3807.92499990464,3807.92499990464,3799.902,3807.92499990464,1,3807.92499990464,0,0,NA,"Click To Continue","Continue Button",1,"object-25","V","CFD-WF-024-003-N.jpg",NA,"SUPTM16544"
"148",1689025508442,"10/07/2023 21:45:08",1689029108442,1,"10/07/2023 23:45:08",137495,33,"task-atm6",NA,30604225,9086484,NA,"complete",NA,NA,"computer","Desktop or Laptop","Windows 10","Edge 114.0.1823.67","1536x864","1147x603",NA,NA,NA,"JV Task P3 (Updated)",4,"Anxious",NA,"In",NA,NA,"HIGJFKEADBC",NA,NA,"B (MDot First)",2,321,"SS1","SS1",18,"V","Valence","xyoebq",1,"response","60",2616.359,3799.902,3808.62499971391,2616.359,3799.902,3808.62499971391,1,2616.359,1192.26599971391,0,NA,"Slider","J",3,"object-27","V","CFD-WF-024-003-N.jpg",NA,"SUPTM16544"
"149",1689025509401,"10/07/2023 21:45:09",1689029109401,1,"10/07/2023 23:45:09",137495,33,"task-atm6",NA,30604225,9086484,NA,"complete",NA,NA,"computer","Desktop or Laptop","Windows 10","Edge 114.0.1823.67","1536x864","1147x603",NA,NA,NA,"JV Task P3 (Updated)",4,"Anxious",NA,"In",NA,NA,"HIGJFKEADBC",NA,NA,"B (MDot First)",2,321,"SS1","SS1",18,"V","Fixation","68owkj",2,"continue","",966.400000000023,966.400000000023,966.400000000023,966.400000000023,966.400000000023,966.400000000023,1,966.400000000023,0,0,NA,"Fixation Timing","Fixation",1,"object-21","V","CFD-WF-024-003-N.jpg",NA,"SUPTM16544"
"150",1689025512665,"10/07/2023 21:45:12",1689029112665,1,"10/07/2023 23:45:12",137495,33,"task-atm6",NA,30604225,9086484,NA,"complete",NA,NA,"computer","Desktop or Laptop","Windows 10","Edge 114.0.1823.67","1536x864","1147x603",NA,NA,NA,"JV Task P3 (Updated)",4,"Anxious",NA,"In",NA,NA,"HIGJFKEADBC",NA,NA,"B (MDot First)",2,321,"SS1","SS1",19,"V","Valence","xyoebq",1,"continue","",3264.52299999999,3249.78099999996,3264.52299999999,3264.52299999999,3249.78099999996,3264.52299999999,1,3264.52299999999,0,0,NA,"Click To Continue","Continue Button",1,"object-25","V","CFD-BF-008-001-S.jpeg",NA,"SUPTM16544"
"151",1689025512667,"10/07/2023 21:45:12",1689029112667,1,"10/07/2023 23:45:12",137495,33,"task-atm6",NA,30604225,9086484,NA,"complete",NA,NA,"computer","Desktop or Laptop","Windows 10","Edge 114.0.1823.67","1536x864","1147x603",NA,NA,NA,"JV Task P3 (Updated)",4,"Anxious",NA,"In",NA,NA,"HIGJFKEADBC",NA,NA,"B (MDot First)",2,321,"SS1","SS1",19,"V","Valence","xyoebq",1,"response","24",2466.56,3249.78099999996,3266.57099999994,2466.56,3249.78099999996,3266.57099999994,1,2466.56,800.01099999994,0,NA,"Slider","J",3,"object-27","V","CFD-BF-008-001-S.jpeg",NA,"SUPTM16544"
"152",1689025513617,"10/07/2023 21:45:13",1689029113617,1,"10/07/2023 23:45:13",137495,33,"task-atm6",NA,30604225,9086484,NA,"complete",NA,NA,"computer","Desktop or Laptop","Windows 10","Edge 114.0.1823.67","1536x864","1147x603",NA,NA,NA,"JV Task P3 (Updated)",4,"Anxious",NA,"In",NA,NA,"HIGJFKEADBC",NA,NA,"B (MDot First)",2,321,"SS1","SS1",19,"V","Fixation","68owkj",2,"continue","",966.186000000045,966.186000000045,966.186000000045,966.186000000045,966.186000000045,966.186000000045,1,966.186000000045,0,0,NA,"Fixation Timing","Fixation",1,"object-21","V","CFD-BF-008-001-S.jpeg",NA,"SUPTM16544"
"153",1689025517733,"10/07/2023 21:45:17",1689029117733,1,"10/07/2023 23:45:17",137495,33,"task-atm6",NA,30604225,9086484,NA,"complete",NA,NA,"computer","Desktop or Laptop","Windows 10","Edge 114.0.1823.67","1536x864","1147x603",NA,NA,NA,"JV Task P3 (Updated)",4,"Anxious",NA,"In",NA,NA,"HIGJFKEADBC",NA,NA,"B (MDot First)",2,321,"SS1","SS1",20,"V","Valence","xyoebq",1,"continue","",4116.90399999998,4099.86099999998,4116.90399999998,4116.90399999998,4099.86099999998,4116.90399999998,1,4116.90399999998,0,0,NA,"Click To Continue","Continue Button",1,"object-25","V","CFD-BM-045-004-N.jpg",NA,"SUPTM16544"
"154",1689025517733,"10/07/2023 21:45:17",1689029117733,1,"10/07/2023 23:45:17",137495,33,"task-atm6",NA,30604225,9086484,NA,"complete",NA,NA,"computer","Desktop or Laptop","Windows 10","Edge 114.0.1823.67","1536x864","1147x603",NA,NA,NA,"JV Task P3 (Updated)",4,"Anxious",NA,"In",NA,NA,"HIGJFKEADBC",NA,NA,"B (MDot First)",2,321,"SS1","SS1",20,"V","Valence","xyoebq",1,"response","31",2716.59999999998,4099.86099999998,4116.90399999998,2716.59999999998,4099.86099999998,4116.90399999998,1,2716.59999999998,1400.304,0,NA,"Slider","J",3,"object-27","V","CFD-BM-045-004-N.jpg",NA,"SUPTM16544"
"155",1689025518683,"10/07/2023 21:45:18",1689029118683,1,"10/07/2023 23:45:18",137495,33,"task-atm6",NA,30604225,9086484,NA,"complete",NA,NA,"computer","Desktop or Laptop","Windows 10","Edge 114.0.1823.67","1536x864","1147x603",NA,NA,NA,"JV Task P3 (Updated)",4,"Anxious",NA,"In",NA,NA,"HIGJFKEADBC",NA,NA,"B (MDot First)",2,321,"SS1","SS1",20,"V","Fixation","68owkj",2,"continue","",966.47100000002,966.47100000002,966.47100000002,966.47100000002,966.47100000002,966.47100000002,1,966.47100000002,0,0,NA,"Fixation Timing","Fixation",1,"object-21","V","CFD-BM-045-004-N.jpg",NA,"SUPTM16544"
"156",1689025521440,"10/07/2023 21:45:21",1689029121440,1,"10/07/2023 23:45:21",137495,33,"task-atm6",NA,30604225,9086484,NA,"complete",NA,NA,"computer","Desktop or Laptop","Windows 10","Edge 114.0.1823.67","1536x864","1147x603",NA,NA,NA,"JV Task P3 (Updated)",4,"Anxious",NA,"In",NA,NA,"HIGJFKEADBC",NA,NA,"B (MDot First)",2,321,"SS1","SS1",32,"J","Judginess","y8ii7g",1,"continue","",2757.82399990462,2749.74699999997,2757.82399990462,2757.82399990462,2749.74699999997,2757.82399990462,1,2757.82399990462,0,0,NA,"Click To Continue","Continue Button",1,"object-14","J","CFD-BM-016-036-S.jpeg",NA,"SUPTM16544"
"157",1689025521441,"10/07/2023 21:45:21",1689029121441,1,"10/07/2023 23:45:21",137495,33,"task-atm6",NA,30604225,9086484,NA,"complete",NA,NA,"computer","Desktop or Laptop","Windows 10","Edge 114.0.1823.67","1536x864","1147x603",NA,NA,NA,"JV Task P3 (Updated)",4,"Anxious",NA,"In",NA,NA,"HIGJFKEADBC",NA,NA,"B (MDot First)",2,321,"SS1","SS1",32,"J","Judginess","y8ii7g",1,"response","35",2083.00299999997,2749.74699999997,2758.22399999999,2083.00299999997,2749.74699999997,2758.22399999999,1,2083.00299999997,675.22100000002,0,NA,"Slider","J",3,"object-18","J","CFD-BM-016-036-S.jpeg",NA,"SUPTM16544"
"158",1689025522399,"10/07/2023 21:45:22",1689029122399,1,"10/07/2023 23:45:22",137495,33,"task-atm6",NA,30604225,9086484,NA,"complete",NA,NA,"computer","Desktop or Laptop","Windows 10","Edge 114.0.1823.67","1536x864","1147x603",NA,NA,NA,"JV Task P3 (Updated)",4,"Anxious",NA,"In",NA,NA,"HIGJFKEADBC",NA,NA,"B (MDot First)",2,321,"SS1","SS1",32,"J","Fixation","w9zir9",2,"continue","",966.214000000036,966.214000000036,966.214000000036,966.214000000036,966.214000000036,966.214000000036,1,966.214000000036,0,0,NA,"Fixation Timing","Fixation",1,"object-65","J","CFD-BM-016-036-S.jpeg",NA,"SUPTM16544"
"159",1689025525762,"10/07/2023 21:45:25",1689029125762,1,"10/07/2023 23:45:25",137495,33,"task-atm6",NA,30604225,9086484,NA,"complete",NA,NA,"computer","Desktop or Laptop","Windows 10","Edge 114.0.1823.67","1536x864","1147x603",NA,NA,NA,"JV Task P3 (Updated)",4,"Anxious",NA,"In",NA,NA,"HIGJFKEADBC",NA,NA,"B (MDot First)",2,321,"SS1","SS1",33,"J","Judginess","y8ii7g",1,"continue","",3363.26299999998,3349.94099999999,3363.26299999998,3363.26299999998,3349.94099999999,3363.26299999998,1,3363.26299999998,0,0,NA,"Click To Continue","Continue Button",1,"object-14","J","CFD-AF-233-190-H.jpeg",NA,"SUPTM16544"
"160",1689025525764,"10/07/2023 21:45:25",1689029125764,1,"10/07/2023 23:45:25",137495,33,"task-atm6",NA,30604225,9086484,NA,"complete",NA,NA,"computer","Desktop or Laptop","Windows 10","Edge 114.0.1823.67","1536x864","1147x603",NA,NA,NA,"JV Task P3 (Updated)",4,"Anxious",NA,"In",NA,NA,"HIGJFKEADBC",NA,NA,"B (MDot First)",2,321,"SS1","SS1",33,"J","Judginess","y8ii7g",1,"response","67",2366.67999999999,3349.94099999999,3365.86299990461,2366.67999999999,3349.94099999999,3365.86299990461,1,2366.67999999999,999.182999904617,0,NA,"Slider","J",3,"object-18","J","CFD-AF-233-190-H.jpeg",NA,"SUPTM16544"
"161",1689025526716,"10/07/2023 21:45:26",1689029126716,1,"10/07/2023 23:45:26",137495,33,"task-atm6",NA,30604225,9086484,NA,"complete",NA,NA,"computer","Desktop or Laptop","Windows 10","Edge 114.0.1823.67","1536x864","1147x603",NA,NA,NA,"JV Task P3 (Updated)",4,"Anxious",NA,"In",NA,NA,"HIGJFKEADBC",NA,NA,"B (MDot First)",2,321,"SS1","SS1",33,"J","Fixation","w9zir9",2,"continue","",966.245999999985,966.245999999985,966.245999999985,966.245999999985,966.245999999985,966.245999999985,1,966.245999999985,0,0,NA,"Fixation Timing","Fixation",1,"object-65","J","CFD-AF-233-190-H.jpeg",NA,"SUPTM16544"
"162",1689025530361,"10/07/2023 21:45:30",1689029130361,1,"10/07/2023 23:45:30",137495,33,"task-atm6",NA,30604225,9086484,NA,"complete",NA,NA,"computer","Desktop or Laptop","Windows 10","Edge 114.0.1823.67","1536x864","1147x603",NA,NA,NA,"JV Task P3 (Updated)",4,"Anxious",NA,"In",NA,NA,"HIGJFKEADBC",NA,NA,"B (MDot First)",2,321,"SS1","SS1",21,"V","Valence","xyoebq",1,"continue","",3646.77599980927,3633.19500000001,3646.77599980927,3646.77599980927,3633.19500000001,3646.77599980927,1,3646.77599980927,0,0,NA,"Click To Continue","Continue Button",1,"object-25","V","CFD-AM-220-134-H.jpeg",NA,"SUPTM16544"
"163",1689025530361,"10/07/2023 21:45:30",1689029130361,1,"10/07/2023 23:45:30",137495,33,"task-atm6",NA,30604225,9086484,NA,"complete",NA,NA,"computer","Desktop or Laptop","Windows 10","Edge 114.0.1823.67","1536x864","1147x603",NA,NA,NA,"JV Task P3 (Updated)",4,"Anxious",NA,"In",NA,NA,"HIGJFKEADBC",NA,NA,"B (MDot First)",2,321,"SS1","SS1",21,"V","Valence","xyoebq",1,"response","84",2766.64000000001,3633.19500000001,3646.97599961853,2766.64000000001,3633.19500000001,3646.97599961853,1,2766.64000000001,880.335999618517,0,NA,"Slider","J",3,"object-27","V","CFD-AM-220-134-H.jpeg",NA,"SUPTM16544"
"164",1689025531315,"10/07/2023 21:45:31",1689029131315,1,"10/07/2023 23:45:31",137495,33,"task-atm6",NA,30604225,9086484,NA,"complete",NA,NA,"computer","Desktop or Laptop","Windows 10","Edge 114.0.1823.67","1536x864","1147x603",NA,NA,NA,"JV Task P3 (Updated)",4,"Anxious",NA,"In",NA,NA,"HIGJFKEADBC",NA,NA,"B (MDot First)",2,321,"SS1","SS1",21,"V","Fixation","68owkj",2,"continue","",966.290999999968,966.290999999968,966.290999999968,966.290999999968,966.290999999968,966.290999999968,1,966.290999999968,0,0,NA,"Fixation Timing","Fixation",1,"object-21","V","CFD-AM-220-134-H.jpeg",NA,"SUPTM16544"
"165",1689025534821,"10/07/2023 21:45:34",1689029134821,1,"10/07/2023 23:45:34",137495,33,"task-atm6",NA,30604225,9086484,NA,"complete",NA,NA,"computer","Desktop or Laptop","Windows 10","Edge 114.0.1823.67","1536x864","1147x603",NA,NA,NA,"JV Task P3 (Updated)",4,"Anxious",NA,"In",NA,NA,"HIGJFKEADBC",NA,NA,"B (MDot First)",2,321,"SS1","SS1",34,"J","Judginess","y8ii7g",1,"continue","",3507.18999990466,3499.84900000005,3507.18999990466,3507.18999990466,3499.84900000005,3507.18999990466,1,3507.18999990466,0,0,NA,"Click To Continue","Continue Button",1,"object-14","J","CFD-MM-308-001-H.jpeg",NA,"SUPTM16544"
"166",1689025534821,"10/07/2023 21:45:34",1689029134821,1,"10/07/2023 23:45:34",137495,33,"task-atm6",NA,30604225,9086484,NA,"complete",NA,NA,"computer","Desktop or Laptop","Windows 10","Edge 114.0.1823.67","1536x864","1147x603",NA,NA,NA,"JV Task P3 (Updated)",4,"Anxious",NA,"In",NA,NA,"HIGJFKEADBC",NA,NA,"B (MDot First)",2,321,"SS1","SS1",34,"J","Judginess","y8ii7g",1,"response","64",2916.58500000002,3499.84900000005,3507.48999961856,2916.58500000002,3499.84900000005,3507.48999961856,1,2916.58500000002,590.904999618535,0,NA,"Slider","J",3,"object-18","J","CFD-MM-308-001-H.jpeg",NA,"SUPTM16544"
"167",1689025535781,"10/07/2023 21:45:35",1689029135781,1,"10/07/2023 23:45:35",137495,33,"task-atm6",NA,30604225,9086484,NA,"complete",NA,NA,"computer","Desktop or Laptop","Windows 10","Edge 114.0.1823.67","1536x864","1147x603",NA,NA,NA,"JV Task P3 (Updated)",4,"Anxious",NA,"In",NA,NA,"HIGJFKEADBC",NA,NA,"B (MDot First)",2,321,"SS1","SS1",34,"J","Fixation","w9zir9",2,"continue","",966.549999999988,966.549999999988,966.549999999988,966.549999999988,966.549999999988,966.549999999988,1,966.549999999988,0,0,NA,"Fixation Timing","Fixation",1,"object-65","J","CFD-MM-308-001-H.jpeg",NA,"SUPTM16544"
