"Event.Index","UTC.Timestamp","UTC.Date.and.Time","Local.Timestamp","Local.Timezone","Local.Date.and.Time","Experiment.ID","Experiment.Version","Tree.Node.Key","Repeat.Key","Schedule.ID","Participant.Private.ID","Participant.Starting.Group","Participant.Status","Participant.Completion.Code","Participant.External.Session.ID","Participant.Device.Type","Participant.Device","Participant.OS","Participant.Browser","Participant.Monitor.Size","Participant.Viewport.Size","Checkpoint","Room.ID","Room.Order","Task.Name","Task.Version","branch.ln1a","randomiser.vzsr","branch.hkzp","randomiser.ywar","randomiser.q6ah","order.ot79","randomiser.ahe2","randomiser.ckhi","randomiser.lqqr","randomiser.pobd","randomiser.8gdj","Spreadsheet","Current.Spreadsheet","Trial.Number","Display","Screen","Screen.ID","Screen.Counter","Response.Type","Response","Onset.Time","Clock.Time","Reaction.Time","Absolute.Onset.Time","Absolute.Clock.Time","Absolute.Reaction.Time","Correct","Response.Onset","Response.Duration","Proportion","Tag","Component.Name","Object.Name","Object.Number","Object.ID","Spreadsheet..display","Spreadsheet..stimulus","Spreadsheet..P","Spreadsheet..N","Manipulation..Spreadsheet","Random_ID"
"1",1689013220011,"10/07/2023 18:20:20",1689016820011,1,"10/07/2023 20:20:20",137495,33,"task-175m",NA,30601956,9085792,NA,"complete",NA,NA,"computer","Desktop or Laptop","Windows 10","Chrome 114.0.0.0","1707x960","1707x809",NA,NA,NA,"Video Feedback Task",13,"NonAnxious",NA,"In","B",NA,"FGEHDICJBKA","A",NA,NA,NA,NA,1,1,NA,"","","",NA,"5","BEGIN",NA,NA,NA,NA,NA,NA,0,NA,NA,NA,NA,"","",NA,"","","","","",NA,"SUPTM34679"
"2",1689013280885,"10/07/2023 18:21:20",1689016880885,1,"10/07/2023 20:21:20",137495,33,"task-175m",NA,30601956,9085792,NA,"complete",NA,NA,"computer","Desktop or Laptop","Windows 10","Chrome 114.0.0.0","1707x960","1707x809",NA,NA,NA,"Video Feedback Task",13,"NonAnxious",NA,"In","B",NA,"FGEHDICJBKA","A",NA,NA,NA,NA,1,1,1,"Neutral Feedback","Screen 1","3zrml3",1,"continue","",60392.9519999046,60383.791,60392.9519999046,60392.9519999046,60383.791,60392.9519999046,1,60392.9519999046,0,0,NA,"Click To Continue","Continue Button",1,"object-155","Neutral Feedback","P2_N.mp4","Screenshot 2023-06-30 at 15.00.42.png","Screenshot 2023-06-30 at 15.00.55.png",NA,"SUPTM34679"
"3",1689013280888,"10/07/2023 18:21:20",1689016880888,1,"10/07/2023 20:21:20",137495,33,"task-175m",NA,30601956,9085792,NA,"complete",NA,NA,"computer","Desktop or Laptop","Windows 10","Chrome 114.0.0.0","1707x960","1707x809",NA,NA,NA,"Video Feedback Task",13,"NonAnxious",NA,"In","B",NA,"FGEHDICJBKA","A",NA,NA,NA,NA,1,1,1,"Neutral Feedback","Screen 1","3zrml3",1,"response","the tone of this persons voice is average ",52117.876,60383.791,60396.352,52117.876,60383.791,60396.352,1,52117.876,8278.476,0,NA,"Text Entry","Text Entry",4,"object-158","Neutral Feedback","P2_N.mp4","Screenshot 2023-06-30 at 15.00.42.png","Screenshot 2023-06-30 at 15.00.55.png",NA,"SUPTM34679"
"4",1689013280889,"10/07/2023 18:21:20",1689016880889,1,"10/07/2023 20:21:20",137495,33,"task-175m",NA,30601956,9085792,NA,"complete",NA,NA,"computer","Desktop or Laptop","Windows 10","Chrome 114.0.0.0","1707x960","1707x809",NA,NA,NA,"Video Feedback Task",13,"NonAnxious",NA,"In","B",NA,"FGEHDICJBKA","A",NA,NA,NA,NA,1,1,1,"Neutral Feedback","Screen 1","3zrml3",1,"response","the person gives an adequate description of the picture ",37068.902,60383.791,60396.852,37068.902,60383.791,60396.852,1,37068.902,23327.95,0,NA,"Text Entry","Text Entry",5,"object-159","Neutral Feedback","P2_N.mp4","Screenshot 2023-06-30 at 15.00.42.png","Screenshot 2023-06-30 at 15.00.55.png",NA,"SUPTM34679"
"5",1689013281846,"10/07/2023 18:21:21",1689016881846,1,"10/07/2023 20:21:21",137495,33,"task-175m",NA,30601956,9085792,NA,"complete",NA,NA,"computer","Desktop or Laptop","Windows 10","Chrome 114.0.0.0","1707x960","1707x809",NA,NA,NA,"Video Feedback Task",13,"NonAnxious",NA,"In","B",NA,"FGEHDICJBKA","A",NA,NA,NA,NA,1,1,1,"Neutral Feedback","Screen 2","vv4mhq",2,"continue","",966.749000000003,966.749000000003,966.749000000003,966.749000000003,966.749000000003,966.749000000003,1,966.749000000003,0,0,NA,"Fixation Timing","Fixation",1,"object-153","Neutral Feedback","P2_N.mp4","Screenshot 2023-06-30 at 15.00.42.png","Screenshot 2023-06-30 at 15.00.55.png",NA,"SUPTM34679"
"6",1689013369172,"10/07/2023 18:22:49",1689016969172,1,"10/07/2023 20:22:49",137495,33,"task-175m",NA,30601956,9085792,NA,"complete",NA,NA,"computer","Desktop or Laptop","Windows 10","Chrome 114.0.0.0","1707x960","1707x809",NA,NA,NA,"Video Feedback Task",13,"NonAnxious",NA,"In","B",NA,"FGEHDICJBKA","A",NA,NA,NA,NA,1,1,1,"Positive Feedback","Video","w2ir4b",1,"continue","",87331.657,87315.204,87331.657,87331.657,87315.204,87331.657,1,87331.657,0,0,NA,"Click To Continue","Continue Button",1,"object-14","Positive Feedback","P5_P.mp4","Screenshot 2023-06-30 at 15.01.08.png","Screenshot 2023-06-30 at 15.02.01.png",NA,"SUPTM34679"
"7",1689013369176,"10/07/2023 18:22:49",1689016969176,1,"10/07/2023 20:22:49",137495,33,"task-175m",NA,30601956,9085792,NA,"complete",NA,NA,"computer","Desktop or Laptop","Windows 10","Chrome 114.0.0.0","1707x960","1707x809",NA,NA,NA,"Video Feedback Task",13,"NonAnxious",NA,"In","B",NA,"FGEHDICJBKA","A",NA,NA,NA,NA,1,1,1,"Positive Feedback","Video","w2ir4b",1,"response","this person speaks in quite a friendly, animated way ",23264.792,87315.204,87331.657,23264.792,87315.204,87331.657,1,23264.792,64066.865,0,NA,"Text Entry","Text Entry",4,"object-19","Positive Feedback","P5_P.mp4","Screenshot 2023-06-30 at 15.01.08.png","Screenshot 2023-06-30 at 15.02.01.png",NA,"SUPTM34679"
"8",1689013369176,"10/07/2023 18:22:49",1689016969176,1,"10/07/2023 20:22:49",137495,33,"task-175m",NA,30601956,9085792,NA,"complete",NA,NA,"computer","Desktop or Laptop","Windows 10","Chrome 114.0.0.0","1707x960","1707x809",NA,NA,NA,"Video Feedback Task",13,"NonAnxious",NA,"In","B",NA,"FGEHDICJBKA","A",NA,NA,NA,NA,1,1,1,"Positive Feedback","Video","w2ir4b",1,"response","the person gives and effective description of the scene",9282.597,87315.204,87331.657,9282.597,87315.204,87331.657,1,9282.597,78049.06,0,NA,"Text Entry","Text Entry",5,"object-20","Positive Feedback","P5_P.mp4","Screenshot 2023-06-30 at 15.01.08.png","Screenshot 2023-06-30 at 15.02.01.png",NA,"SUPTM34679"
"9",1689013370123,"10/07/2023 18:22:50",1689016970123,1,"10/07/2023 20:22:50",137495,33,"task-175m",NA,30601956,9085792,NA,"complete",NA,NA,"computer","Desktop or Laptop","Windows 10","Chrome 114.0.0.0","1707x960","1707x809",NA,NA,NA,"Video Feedback Task",13,"NonAnxious",NA,"In","B",NA,"FGEHDICJBKA","A",NA,NA,NA,NA,1,1,1,"Positive Feedback","Fixation","mtm832",2,"continue","",966.633000000002,966.633000000002,966.633000000002,966.633000000002,966.633000000002,966.633000000002,1,966.633000000002,0,0,NA,"Fixation Timing","Fixation",1,"object-65","Positive Feedback","P5_P.mp4","Screenshot 2023-06-30 at 15.01.08.png","Screenshot 2023-06-30 at 15.02.01.png",NA,"SUPTM34679"
"10",1689013574038,"10/07/2023 18:26:14",1689017174038,1,"10/07/2023 20:26:14",137495,33,"task-175m",NA,30601956,9085792,NA,"complete",NA,NA,"computer","Desktop or Laptop","Windows 10","Chrome 114.0.0.0","1707x960","1707x809",NA,NA,NA,"Video Feedback Task",13,"NonAnxious",NA,"In","B",NA,"FGEHDICJBKA","A",NA,NA,NA,NA,1,1,2,"Positive Feedback","Video","w2ir4b",1,"continue","",203912.674999809,203898.978,203912.674999809,203912.674999809,203898.978,203912.674999809,1,203912.674999809,0,0,NA,"Click To Continue","Continue Button",1,"object-14","Positive Feedback","P2_P.mp4","Screenshot 2023-06-30 at 15.01.08.png","Screenshot 2023-06-30 at 15.02.01.png",NA,"SUPTM34679"
"11",1689013574043,"10/07/2023 18:26:14",1689017174043,1,"10/07/2023 20:26:14",137495,33,"task-175m",NA,30601956,9085792,NA,"complete",NA,NA,"computer","Desktop or Laptop","Windows 10","Chrome 114.0.0.0","1707x960","1707x809",NA,NA,NA,"Video Feedback Task",13,"NonAnxious",NA,"In","B",NA,"FGEHDICJBKA","A",NA,NA,NA,NA,1,1,2,"Positive Feedback","Video","w2ir4b",1,"response","the person effectively reads between the lines and describes the peoples possible emotions ",21615.053,203898.978,203915.68,21615.053,203898.978,203915.68,1,21615.053,182300.627,0,NA,"Text Entry","Text Entry",4,"object-19","Positive Feedback","P2_P.mp4","Screenshot 2023-06-30 at 15.01.08.png","Screenshot 2023-06-30 at 15.02.01.png",NA,"SUPTM34679"
"12",1689013574043,"10/07/2023 18:26:14",1689017174043,1,"10/07/2023 20:26:14",137495,33,"task-175m",NA,30601956,9085792,NA,"complete",NA,NA,"computer","Desktop or Laptop","Windows 10","Chrome 114.0.0.0","1707x960","1707x809",NA,NA,NA,"Video Feedback Task",13,"NonAnxious",NA,"In","B",NA,"FGEHDICJBKA","A",NA,NA,NA,NA,1,1,2,"Positive Feedback","Video","w2ir4b",1,"response","the person gives a succinct description of the scene ",8816.101,203898.978,203915.68,8816.101,203898.978,203915.68,1,8816.101,195099.579,0,NA,"Text Entry","Text Entry",5,"object-20","Positive Feedback","P2_P.mp4","Screenshot 2023-06-30 at 15.01.08.png","Screenshot 2023-06-30 at 15.02.01.png",NA,"SUPTM34679"
"13",1689013574991,"10/07/2023 18:26:14",1689017174991,1,"10/07/2023 20:26:14",137495,33,"task-175m",NA,30601956,9085792,NA,"complete",NA,NA,"computer","Desktop or Laptop","Windows 10","Chrome 114.0.0.0","1707x960","1707x809",NA,NA,NA,"Video Feedback Task",13,"NonAnxious",NA,"In","B",NA,"FGEHDICJBKA","A",NA,NA,NA,NA,1,1,2,"Positive Feedback","Fixation","mtm832",2,"continue","",966.580999999947,966.580999999947,966.580999999947,966.580999999947,966.580999999947,966.580999999947,1,966.580999999947,0,0,NA,"Fixation Timing","Fixation",1,"object-65","Positive Feedback","P2_P.mp4","Screenshot 2023-06-30 at 15.01.08.png","Screenshot 2023-06-30 at 15.02.01.png",NA,"SUPTM34679"
"14",1689013667334,"10/07/2023 18:27:47",1689017267334,1,"10/07/2023 20:27:47",137495,33,"task-175m",NA,30601956,9085792,NA,"complete",NA,NA,"computer","Desktop or Laptop","Windows 10","Chrome 114.0.0.0","1707x960","1707x809",NA,NA,NA,"Video Feedback Task",13,"NonAnxious",NA,"In","B",NA,"FGEHDICJBKA","A",NA,NA,NA,NA,1,1,2,"Neutral Feedback","Screen 1","3zrml3",1,"continue","",92343.815999857,92333.314,92343.815999857,92343.815999857,92333.314,92343.815999857,1,92343.815999857,0,0,NA,"Click To Continue","Continue Button",1,"object-155","Neutral Feedback","P3_N.mp4","Screenshot 2023-06-30 at 15.00.42.png","Screenshot 2023-06-30 at 15.00.55.png",NA,"SUPTM34679"
"15",1689013667338,"10/07/2023 18:27:47",1689017267338,1,"10/07/2023 20:27:47",137495,33,"task-175m",NA,30601956,9085792,NA,"complete",NA,NA,"computer","Desktop or Laptop","Windows 10","Chrome 114.0.0.0","1707x960","1707x809",NA,NA,NA,"Video Feedback Task",13,"NonAnxious",NA,"In","B",NA,"FGEHDICJBKA","A",NA,NA,NA,NA,1,1,2,"Neutral Feedback","Screen 1","3zrml3",1,"response","their tone is quite neutral ",86450.473,92333.314,92347.6159998093,86450.473,92333.314,92347.6159998093,1,86450.473,5897.14299980929,0,NA,"Text Entry","Text Entry",4,"object-158","Neutral Feedback","P3_N.mp4","Screenshot 2023-06-30 at 15.00.42.png","Screenshot 2023-06-30 at 15.00.55.png",NA,"SUPTM34679"
"16",1689013667338,"10/07/2023 18:27:47",1689017267338,1,"10/07/2023 20:27:47",137495,33,"task-175m",NA,30601956,9085792,NA,"complete",NA,NA,"computer","Desktop or Laptop","Windows 10","Chrome 114.0.0.0","1707x960","1707x809",NA,NA,NA,"Video Feedback Task",13,"NonAnxious",NA,"In","B",NA,"FGEHDICJBKA","A",NA,NA,NA,NA,1,1,2,"Neutral Feedback","Screen 1","3zrml3",1,"response","the person give a simple description  of the scene",71501.491,92333.314,92347.916,71501.491,92333.314,92347.916,1,71501.491,20846.425,0,NA,"Text Entry","Text Entry",5,"object-159","Neutral Feedback","P3_N.mp4","Screenshot 2023-06-30 at 15.00.42.png","Screenshot 2023-06-30 at 15.00.55.png",NA,"SUPTM34679"
"17",1689013668292,"10/07/2023 18:27:48",1689017268292,1,"10/07/2023 20:27:48",137495,33,"task-175m",NA,30601956,9085792,NA,"complete",NA,NA,"computer","Desktop or Laptop","Windows 10","Chrome 114.0.0.0","1707x960","1707x809",NA,NA,NA,"Video Feedback Task",13,"NonAnxious",NA,"In","B",NA,"FGEHDICJBKA","A",NA,NA,NA,NA,1,1,2,"Neutral Feedback","Screen 2","vv4mhq",2,"continue","",967.41399999999,967.41399999999,967.41399999999,967.41399999999,967.41399999999,967.41399999999,1,967.41399999999,0,0,NA,"Fixation Timing","Fixation",1,"object-153","Neutral Feedback","P3_N.mp4","Screenshot 2023-06-30 at 15.00.42.png","Screenshot 2023-06-30 at 15.00.55.png",NA,"SUPTM34679"
"18",1689013884156,"10/07/2023 18:31:24",1689017484156,1,"10/07/2023 20:31:24",137495,33,"task-175m",NA,30601956,9085792,NA,"complete",NA,NA,"computer","Desktop or Laptop","Windows 10","Chrome 114.0.0.0","1707x960","1707x809",NA,NA,NA,"Video Feedback Task",13,"NonAnxious",NA,"In","B",NA,"FGEHDICJBKA","A",NA,NA,NA,NA,1,1,3,"Positive Feedback","Video","w2ir4b",1,"continue","",215863.887999809,215850.084,215863.887999809,215863.887999809,215850.084,215863.887999809,1,215863.887999809,0,0,NA,"Click To Continue","Continue Button",1,"object-14","Positive Feedback","P1_P.mp4","Screenshot 2023-06-30 at 15.00.42.png","Screenshot 2023-06-30 at 15.00.55.png",NA,"SUPTM34679"
"19",1689013884159,"10/07/2023 18:31:24",1689017484159,1,"10/07/2023 20:31:24",137495,33,"task-175m",NA,30601956,9085792,NA,"complete",NA,NA,"computer","Desktop or Laptop","Windows 10","Chrome 114.0.0.0","1707x960","1707x809",NA,NA,NA,"Video Feedback Task",13,"NonAnxious",NA,"In","B",NA,"FGEHDICJBKA","A",NA,NA,NA,NA,1,1,3,"Positive Feedback","Video","w2ir4b",1,"response","the person adds some good additional commentary beyond just saying what she can see",195251.724,215850.084,215866.896,195251.724,215850.084,215866.896,1,195251.724,20615.1719999999,0,NA,"Text Entry","Text Entry",4,"object-19","Positive Feedback","P1_P.mp4","Screenshot 2023-06-30 at 15.00.42.png","Screenshot 2023-06-30 at 15.00.55.png",NA,"SUPTM34679"
"20",1689013884159,"10/07/2023 18:31:24",1689017484159,1,"10/07/2023 20:31:24",137495,33,"task-175m",NA,30601956,9085792,NA,"complete",NA,NA,"computer","Desktop or Laptop","Windows 10","Chrome 114.0.0.0","1707x960","1707x809",NA,NA,NA,"Video Feedback Task",13,"NonAnxious",NA,"In","B",NA,"FGEHDICJBKA","A",NA,NA,NA,NA,1,1,3,"Positive Feedback","Video","w2ir4b",1,"response","the person gives an effective description of the scene",182619.043,215850.084,215866.896,182619.043,215850.084,215866.896,1,182619.043,33247.8529999999,0,NA,"Text Entry","Text Entry",5,"object-20","Positive Feedback","P1_P.mp4","Screenshot 2023-06-30 at 15.00.42.png","Screenshot 2023-06-30 at 15.00.55.png",NA,"SUPTM34679"
"21",1689013885109,"10/07/2023 18:31:25",1689017485109,1,"10/07/2023 20:31:25",137495,33,"task-175m",NA,30601956,9085792,NA,"complete",NA,NA,"computer","Desktop or Laptop","Windows 10","Chrome 114.0.0.0","1707x960","1707x809",NA,NA,NA,"Video Feedback Task",13,"NonAnxious",NA,"In","B",NA,"FGEHDICJBKA","A",NA,NA,NA,NA,1,1,3,"Positive Feedback","Fixation","mtm832",2,"continue","",966.466000000015,966.466000000015,966.466000000015,966.466000000015,966.466000000015,966.466000000015,1,966.466000000015,0,0,NA,"Fixation Timing","Fixation",1,"object-65","Positive Feedback","P1_P.mp4","Screenshot 2023-06-30 at 15.00.42.png","Screenshot 2023-06-30 at 15.00.55.png",NA,"SUPTM34679"
"22",1689013934216,"10/07/2023 18:32:14",1689017534216,1,"10/07/2023 20:32:14",137495,33,"task-175m",NA,30601956,9085792,NA,"complete",NA,NA,"computer","Desktop or Laptop","Windows 10","Chrome 114.0.0.0","1707x960","1707x809",NA,NA,NA,"Video Feedback Task",13,"NonAnxious",NA,"In","B",NA,"FGEHDICJBKA","A",NA,NA,NA,NA,1,1,3,"Neutral Feedback","Screen 1","3zrml3",1,"continue","",49108.037999857,49096.41,49108.037999857,49108.037999857,49096.41,49108.037999857,1,49108.037999857,0,0,NA,"Click To Continue","Continue Button",1,"object-155","Neutral Feedback","P4_N.mp4","Screenshot 2023-06-30 at 15.01.08.png","Screenshot 2023-06-30 at 15.02.01.png",NA,"SUPTM34679"
"23",1689013934219,"10/07/2023 18:32:14",1689017534219,1,"10/07/2023 20:32:14",137495,33,"task-175m",NA,30601956,9085792,NA,"complete",NA,NA,"computer","Desktop or Laptop","Windows 10","Chrome 114.0.0.0","1707x960","1707x809",NA,NA,NA,"Video Feedback Task",13,"NonAnxious",NA,"In","B",NA,"FGEHDICJBKA","A",NA,NA,NA,NA,1,1,3,"Neutral Feedback","Screen 1","3zrml3",1,"response","the person has a neutral demeanor ",38030.507,49096.41,49110.8379998093,38030.507,49096.41,49110.8379998093,1,38030.507,11080.3309998093,0,NA,"Text Entry","Text Entry",4,"object-158","Neutral Feedback","P4_N.mp4","Screenshot 2023-06-30 at 15.01.08.png","Screenshot 2023-06-30 at 15.02.01.png",NA,"SUPTM34679"
"24",1689013934219,"10/07/2023 18:32:14",1689017534219,1,"10/07/2023 20:32:14",137495,33,"task-175m",NA,30601956,9085792,NA,"complete",NA,NA,"computer","Desktop or Laptop","Windows 10","Chrome 114.0.0.0","1707x960","1707x809",NA,NA,NA,"Video Feedback Task",13,"NonAnxious",NA,"In","B",NA,"FGEHDICJBKA","A",NA,NA,NA,NA,1,1,3,"Neutral Feedback","Screen 1","3zrml3",1,"response","the person gives a fairly bland but effective description of the scene",19965.228,49096.41,49111.4379999524,19965.228,49096.41,49111.4379999524,1,19965.228,29146.2099999523,0,NA,"Text Entry","Text Entry",5,"object-159","Neutral Feedback","P4_N.mp4","Screenshot 2023-06-30 at 15.01.08.png","Screenshot 2023-06-30 at 15.02.01.png",NA,"SUPTM34679"
"25",1689013935171,"10/07/2023 18:32:15",1689017535171,1,"10/07/2023 20:32:15",137495,33,"task-175m",NA,30601956,9085792,NA,"complete",NA,NA,"computer","Desktop or Laptop","Windows 10","Chrome 114.0.0.0","1707x960","1707x809",NA,NA,NA,"Video Feedback Task",13,"NonAnxious",NA,"In","B",NA,"FGEHDICJBKA","A",NA,NA,NA,NA,1,1,3,"Neutral Feedback","Screen 2","vv4mhq",2,"continue","",966.542999999947,966.542999999947,966.542999999947,966.542999999947,966.542999999947,966.542999999947,1,966.542999999947,0,0,NA,"Fixation Timing","Fixation",1,"object-153","Neutral Feedback","P4_N.mp4","Screenshot 2023-06-30 at 15.01.08.png","Screenshot 2023-06-30 at 15.02.01.png",NA,"SUPTM34679"
"26",1689013970005,"10/07/2023 18:32:50",1689017570005,1,"10/07/2023 20:32:50",137495,33,"task-175m",NA,30601956,9085792,NA,"complete",NA,NA,"computer","Desktop or Laptop","Windows 10","Chrome 114.0.0.0","1707x960","1707x809",NA,NA,NA,"Video Feedback Task",13,"NonAnxious",NA,"In","B",NA,"FGEHDICJBKA","A",NA,NA,NA,NA,1,1,4,"Positive Feedback","Video","w2ir4b",1,"continue","",34834.6850000001,34830.8430000001,34834.6850000001,34834.6850000001,34830.8430000001,34834.6850000001,1,34834.6850000001,0,0,NA,"Click To Continue","Continue Button",1,"object-14","Positive Feedback","P3_P.mp4","Screenshot 2023-06-30 at 15.01.08.png","Screenshot 2023-06-30 at 15.02.01.png",NA,"SUPTM34679"
"27",1689013970009,"10/07/2023 18:32:50",1689017570009,1,"10/07/2023 20:32:50",137495,33,"task-175m",NA,30601956,9085792,NA,"complete",NA,NA,"computer","Desktop or Laptop","Windows 10","Chrome 114.0.0.0","1707x960","1707x809",NA,NA,NA,"Video Feedback Task",13,"NonAnxious",NA,"In","B",NA,"FGEHDICJBKA","A",NA,NA,NA,NA,1,1,4,"Positive Feedback","Video","w2ir4b",1,"response","the person describes the scene in an interesting way",20748.5430000001,34830.8430000001,34838.084999857,20748.5430000001,34830.8430000001,34838.084999857,1,20748.5430000001,14089.5419998569,0,NA,"Text Entry","Text Entry",4,"object-19","Positive Feedback","P3_P.mp4","Screenshot 2023-06-30 at 15.01.08.png","Screenshot 2023-06-30 at 15.02.01.png",NA,"SUPTM34679"
"28",1689013970009,"10/07/2023 18:32:50",1689017570009,1,"10/07/2023 20:32:50",137495,33,"task-175m",NA,30601956,9085792,NA,"complete",NA,NA,"computer","Desktop or Laptop","Windows 10","Chrome 114.0.0.0","1707x960","1707x809",NA,NA,NA,"Video Feedback Task",13,"NonAnxious",NA,"In","B",NA,"FGEHDICJBKA","A",NA,NA,NA,NA,1,1,4,"Positive Feedback","Video","w2ir4b",1,"response","the person gives a lot of extra description ",6816.24600000004,34830.8430000001,34838.584999857,6816.24600000004,34830.8430000001,34838.584999857,1,6816.24600000004,28022.338999857,0,NA,"Text Entry","Text Entry",5,"object-20","Positive Feedback","P3_P.mp4","Screenshot 2023-06-30 at 15.01.08.png","Screenshot 2023-06-30 at 15.02.01.png",NA,"SUPTM34679"
"29",1689013970969,"10/07/2023 18:32:50",1689017570969,1,"10/07/2023 20:32:50",137495,33,"task-175m",NA,30601956,9085792,NA,"complete",NA,NA,"computer","Desktop or Laptop","Windows 10","Chrome 114.0.0.0","1707x960","1707x809",NA,NA,NA,"Video Feedback Task",13,"NonAnxious",NA,"In","B",NA,"FGEHDICJBKA","A",NA,NA,NA,NA,1,1,4,"Positive Feedback","Fixation","mtm832",2,"continue","",967.186999999918,967.186999999918,967.186999999918,967.186999999918,967.186999999918,967.186999999918,1,967.186999999918,0,0,NA,"Fixation Timing","Fixation",1,"object-65","Positive Feedback","P3_P.mp4","Screenshot 2023-06-30 at 15.01.08.png","Screenshot 2023-06-30 at 15.02.01.png",NA,"SUPTM34679"
"30",1689014004754,"10/07/2023 18:33:24",1689017604754,1,"10/07/2023 20:33:24",137495,33,"task-175m",NA,30601956,9085792,NA,"complete",NA,NA,"computer","Desktop or Laptop","Windows 10","Chrome 114.0.0.0","1707x960","1707x809",NA,NA,NA,"Video Feedback Task",13,"NonAnxious",NA,"In","B",NA,"FGEHDICJBKA","A",NA,NA,NA,NA,1,1,4,"Neutral Feedback","Screen 1","3zrml3",1,"continue","",33784.9549999523,33780.22,33784.9549999523,33784.9549999523,33780.22,33784.9549999523,1,33784.9549999523,0,0,NA,"Click To Continue","Continue Button",1,"object-155","Neutral Feedback","P5_N.mp4","Screenshot 2023-06-30 at 15.00.42.png","Screenshot 2023-06-30 at 15.02.01.png",NA,"SUPTM34679"
"31",1689014004758,"10/07/2023 18:33:24",1689017604758,1,"10/07/2023 20:33:24",137495,33,"task-175m",NA,30601956,9085792,NA,"complete",NA,NA,"computer","Desktop or Laptop","Windows 10","Chrome 114.0.0.0","1707x960","1707x809",NA,NA,NA,"Video Feedback Task",13,"NonAnxious",NA,"In","B",NA,"FGEHDICJBKA","A",NA,NA,NA,NA,1,1,4,"Neutral Feedback","Screen 1","3zrml3",1,"response","she just explains what she sees",22497.8570000001,33780.22,33788.4549999523,22497.8570000001,33780.22,33788.4549999523,1,22497.8570000001,11290.5979999523,0,NA,"Text Entry","Text Entry",4,"object-158","Neutral Feedback","P5_N.mp4","Screenshot 2023-06-30 at 15.00.42.png","Screenshot 2023-06-30 at 15.02.01.png",NA,"SUPTM34679"
"32",1689014004758,"10/07/2023 18:33:24",1689017604758,1,"10/07/2023 20:33:24",137495,33,"task-175m",NA,30601956,9085792,NA,"complete",NA,NA,"computer","Desktop or Laptop","Windows 10","Chrome 114.0.0.0","1707x960","1707x809",NA,NA,NA,"Video Feedback Task",13,"NonAnxious",NA,"In","B",NA,"FGEHDICJBKA","A",NA,NA,NA,NA,1,1,4,"Neutral Feedback","Screen 1","3zrml3",1,"response","the person gives a fairly basic and objective description ",7165.49900000007,33780.22,33788.8549998093,7165.49900000007,33780.22,33788.8549998093,1,7165.49900000007,26623.3559998092,0,NA,"Text Entry","Text Entry",5,"object-159","Neutral Feedback","P5_N.mp4","Screenshot 2023-06-30 at 15.00.42.png","Screenshot 2023-06-30 at 15.02.01.png",NA,"SUPTM34679"
"33",1689014005717,"10/07/2023 18:33:25",1689017605717,1,"10/07/2023 20:33:25",137495,33,"task-175m",NA,30601956,9085792,NA,"complete",NA,NA,"computer","Desktop or Laptop","Windows 10","Chrome 114.0.0.0","1707x960","1707x809",NA,NA,NA,"Video Feedback Task",13,"NonAnxious",NA,"In","B",NA,"FGEHDICJBKA","A",NA,NA,NA,NA,1,1,4,"Neutral Feedback","Screen 2","vv4mhq",2,"continue","",966.883000000031,966.883000000031,966.883000000031,966.883000000031,966.883000000031,966.883000000031,1,966.883000000031,0,0,NA,"Fixation Timing","Fixation",1,"object-153","Neutral Feedback","P5_N.mp4","Screenshot 2023-06-30 at 15.00.42.png","Screenshot 2023-06-30 at 15.02.01.png",NA,"SUPTM34679"
"34",1689014057530,"10/07/2023 18:34:17",1689017657530,1,"10/07/2023 20:34:17",137495,33,"task-175m",NA,30601956,9085792,NA,"complete",NA,NA,"computer","Desktop or Laptop","Windows 10","Chrome 114.0.0.0","1707x960","1707x809",NA,NA,NA,"Video Feedback Task",13,"NonAnxious",NA,"In","B",NA,"FGEHDICJBKA","A",NA,NA,NA,NA,1,1,5,"Neutral Feedback","Screen 1","3zrml3",1,"continue","",51812.564,51795.922,51812.564,51812.564,51795.922,51812.564,1,51812.564,0,0,NA,"Click To Continue","Continue Button",1,"object-155","Neutral Feedback","P1_N.mp4","Screenshot 2023-06-30 at 15.01.08.png","Screenshot 2023-06-30 at 15.00.55.png",NA,"SUPTM34679"
"35",1689014057533,"10/07/2023 18:34:17",1689017657533,1,"10/07/2023 20:34:17",137495,33,"task-175m",NA,30601956,9085792,NA,"complete",NA,NA,"computer","Desktop or Laptop","Windows 10","Chrome 114.0.0.0","1707x960","1707x809",NA,NA,NA,"Video Feedback Task",13,"NonAnxious",NA,"In","B",NA,"FGEHDICJBKA","A",NA,NA,NA,NA,1,1,5,"Neutral Feedback","Screen 1","3zrml3",1,"response","she effectively describes the scene without giving extra detail ",34547.282,51795.922,51812.564,34547.282,51795.922,51812.564,1,34547.282,17265.282,0,NA,"Text Entry","Text Entry",4,"object-158","Neutral Feedback","P1_N.mp4","Screenshot 2023-06-30 at 15.01.08.png","Screenshot 2023-06-30 at 15.00.55.png",NA,"SUPTM34679"
"36",1689014057533,"10/07/2023 18:34:17",1689017657533,1,"10/07/2023 20:34:17",137495,33,"task-175m",NA,30601956,9085792,NA,"complete",NA,NA,"computer","Desktop or Laptop","Windows 10","Chrome 114.0.0.0","1707x960","1707x809",NA,NA,NA,"Video Feedback Task",13,"NonAnxious",NA,"In","B",NA,"FGEHDICJBKA","A",NA,NA,NA,NA,1,1,5,"Neutral Feedback","Screen 1","3zrml3",1,"response","the person gives a fairly neutral description of what see sees",16065.193,51795.922,51812.564,16065.193,51795.922,51812.564,1,16065.193,35747.371,0,NA,"Text Entry","Text Entry",5,"object-159","Neutral Feedback","P1_N.mp4","Screenshot 2023-06-30 at 15.01.08.png","Screenshot 2023-06-30 at 15.00.55.png",NA,"SUPTM34679"
"37",1689014058480,"10/07/2023 18:34:18",1689017658480,1,"10/07/2023 20:34:18",137495,33,"task-175m",NA,30601956,9085792,NA,"complete",NA,NA,"computer","Desktop or Laptop","Windows 10","Chrome 114.0.0.0","1707x960","1707x809",NA,NA,NA,"Video Feedback Task",13,"NonAnxious",NA,"In","B",NA,"FGEHDICJBKA","A",NA,NA,NA,NA,1,1,5,"Neutral Feedback","Screen 2","vv4mhq",2,"continue","",967.094000000041,967.094000000041,967.094000000041,967.094000000041,967.094000000041,967.094000000041,1,967.094000000041,0,0,NA,"Fixation Timing","Fixation",1,"object-153","Neutral Feedback","P1_N.mp4","Screenshot 2023-06-30 at 15.01.08.png","Screenshot 2023-06-30 at 15.00.55.png",NA,"SUPTM34679"
"38",1689014108115,"10/07/2023 18:35:08",1689017708115,1,"10/07/2023 20:35:08",137495,33,"task-175m",NA,30601956,9085792,NA,"complete",NA,NA,"computer","Desktop or Laptop","Windows 10","Chrome 114.0.0.0","1707x960","1707x809",NA,NA,NA,"Video Feedback Task",13,"NonAnxious",NA,"In","B",NA,"FGEHDICJBKA","A",NA,NA,NA,NA,1,1,5,"Positive Feedback","Video","w2ir4b",1,"continue","",49635.6359999046,49627.6379999999,49635.6359999046,49635.6359999046,49627.6379999999,49635.6359999046,1,49635.6359999046,0,0,NA,"Click To Continue","Continue Button",1,"object-14","Positive Feedback","P4_P.mp4","Screenshot 2023-06-30 at 15.00.42.png","Screenshot 2023-06-30 at 15.00.55.png",NA,"SUPTM34679"
"39",1689014108118,"10/07/2023 18:35:08",1689017708118,1,"10/07/2023 20:35:08",137495,33,"task-175m",NA,30601956,9085792,NA,"complete",NA,NA,"computer","Desktop or Laptop","Windows 10","Chrome 114.0.0.0","1707x960","1707x809",NA,NA,NA,"Video Feedback Task",13,"NonAnxious",NA,"In","B",NA,"FGEHDICJBKA","A",NA,NA,NA,NA,1,1,5,"Positive Feedback","Video","w2ir4b",1,"response","she describes the emotions of the people ",35062.1799999999,49627.6379999999,49638.9359998569,35062.1799999999,49627.6379999999,49638.9359998569,1,35062.1799999999,14576.755999857,0,NA,"Text Entry","Text Entry",4,"object-19","Positive Feedback","P4_P.mp4","Screenshot 2023-06-30 at 15.00.42.png","Screenshot 2023-06-30 at 15.00.55.png",NA,"SUPTM34679"
"40",1689014108118,"10/07/2023 18:35:08",1689017708118,1,"10/07/2023 20:35:08",137495,33,"task-175m",NA,30601956,9085792,NA,"complete",NA,NA,"computer","Desktop or Laptop","Windows 10","Chrome 114.0.0.0","1707x960","1707x809",NA,NA,NA,"Video Feedback Task",13,"NonAnxious",NA,"In","B",NA,"FGEHDICJBKA","A",NA,NA,NA,NA,1,1,5,"Positive Feedback","Video","w2ir4b",1,"response","the person gives an animated description ",24279.5429999999,49627.6379999999,49639.2359998092,24279.5429999999,49627.6379999999,49639.2359998092,1,24279.5429999999,25359.6929998093,0,NA,"Text Entry","Text Entry",5,"object-20","Positive Feedback","P4_P.mp4","Screenshot 2023-06-30 at 15.00.42.png","Screenshot 2023-06-30 at 15.00.55.png",NA,"SUPTM34679"
"41",1689014109074,"10/07/2023 18:35:09",1689017709074,1,"10/07/2023 20:35:09",137495,33,"task-175m",NA,30601956,9085792,NA,"complete",NA,NA,"computer","Desktop or Laptop","Windows 10","Chrome 114.0.0.0","1707x960","1707x809",NA,NA,NA,"Video Feedback Task",13,"NonAnxious",NA,"In","B",NA,"FGEHDICJBKA","A",NA,NA,NA,NA,1,1,5,"Positive Feedback","Fixation","mtm832",2,"continue","",966.668999999994,966.668999999994,966.668999999994,966.668999999994,966.668999999994,966.668999999994,1,966.668999999994,0,0,NA,"Fixation Timing","Fixation",1,"object-65","Positive Feedback","P4_P.mp4","Screenshot 2023-06-30 at 15.00.42.png","Screenshot 2023-06-30 at 15.00.55.png",NA,"SUPTM34679"
"42",1689014109077,"10/07/2023 18:35:09",1689017709077,1,"10/07/2023 20:35:09",137495,33,"task-175m",NA,30601956,9085792,NA,"complete",NA,NA,"computer","Desktop or Laptop","Windows 10","Chrome 114.0.0.0","1707x960","1707x809",NA,NA,NA,"Video Feedback Task",13,"NonAnxious",NA,"In","B",NA,"FGEHDICJBKA","A",NA,NA,NA,NA,1,1,NA,"","","",NA,"5","END",NA,NA,NA,NA,NA,NA,0,NA,NA,NA,NA,"","",NA,"","","","","",NA,"SUPTM34679"
"1",1689001756368,"10/07/2023 15:09:16",1689005356368,1,"10/07/2023 17:09:16",137495,33,"task-175m",NA,30598744,9084892,NA,"complete",NA,NA,"computer","Desktop or Laptop","Windows 10","Chrome 114.0.0.0","1536x864","1536x760",NA,NA,NA,"Video Feedback Task",13,"NonAnxious",NA,"In","A",NA,"ABKCJDIEHFG","A",NA,NA,NA,NA,1,1,NA,"","","",NA,"5","BEGIN",NA,NA,NA,NA,NA,NA,0,NA,NA,NA,NA,"","",NA,"","","","","",NA,"SUPTM15998"
"2",1689001865917,"10/07/2023 15:11:05",1689005465917,1,"10/07/2023 17:11:05",137495,33,"task-175m",NA,30598744,9084892,NA,"complete",NA,NA,"computer","Desktop or Laptop","Windows 10","Chrome 114.0.0.0","1536x864","1536x760",NA,NA,NA,"Video Feedback Task",13,"NonAnxious",NA,"In","A",NA,"ABKCJDIEHFG","A",NA,NA,NA,NA,1,1,1,"Neutral Feedback","Screen 1","3zrml3",1,"continue","",108883.482000036,108867.309,108883.482000036,108883.482000036,108867.309,108883.482000036,1,108883.482000036,0,0,NA,"Click To Continue","Continue Button",1,"object-155","Neutral Feedback","P2_N.mp4","Screenshot 2023-06-30 at 15.01.08.png","Screenshot 2023-06-30 at 15.02.01.png",NA,"SUPTM15998"
"3",1689001865919,"10/07/2023 15:11:05",1689005465919,1,"10/07/2023 17:11:05",137495,33,"task-175m",NA,30598744,9084892,NA,"complete",NA,NA,"computer","Desktop or Laptop","Windows 10","Chrome 114.0.0.0","1536x864","1536x760",NA,NA,NA,"Video Feedback Task",13,"NonAnxious",NA,"In","A",NA,"ABKCJDIEHFG","A",NA,NA,NA,NA,1,1,1,"Neutral Feedback","Screen 1","3zrml3",1,"response","A little descriptive with some clarity. ",95650.504,108867.309,108884.016,95650.504,108867.309,108884.016,1,95650.504,13233.512,0,NA,"Text Entry","Text Entry",4,"object-158","Neutral Feedback","P2_N.mp4","Screenshot 2023-06-30 at 15.01.08.png","Screenshot 2023-06-30 at 15.02.01.png",NA,"SUPTM15998"
"4",1689001865920,"10/07/2023 15:11:05",1689005465920,1,"10/07/2023 17:11:05",137495,33,"task-175m",NA,30598744,9084892,NA,"complete",NA,NA,"computer","Desktop or Laptop","Windows 10","Chrome 114.0.0.0","1536x864","1536x760",NA,NA,NA,"Video Feedback Task",13,"NonAnxious",NA,"In","A",NA,"ABKCJDIEHFG","A",NA,NA,NA,NA,1,1,1,"Neutral Feedback","Screen 1","3zrml3",1,"response","Creates a somewhat clear image in my head. ",71250.286,108867.309,108884.016,71250.286,108867.309,108884.016,1,71250.286,37633.73,0,NA,"Text Entry","Text Entry",5,"object-159","Neutral Feedback","P2_N.mp4","Screenshot 2023-06-30 at 15.01.08.png","Screenshot 2023-06-30 at 15.02.01.png",NA,"SUPTM15998"
"5",1689001866869,"10/07/2023 15:11:06",1689005466869,1,"10/07/2023 17:11:06",137495,33,"task-175m",NA,30598744,9084892,NA,"complete",NA,NA,"computer","Desktop or Laptop","Windows 10","Chrome 114.0.0.0","1536x864","1536x760",NA,NA,NA,"Video Feedback Task",13,"NonAnxious",NA,"In","A",NA,"ABKCJDIEHFG","A",NA,NA,NA,NA,1,1,1,"Neutral Feedback","Screen 2","vv4mhq",2,"continue","",966.652000000002,966.652000000002,966.652000000002,966.652000000002,966.652000000002,966.652000000002,1,966.652000000002,0,0,NA,"Fixation Timing","Fixation",1,"object-153","Neutral Feedback","P2_N.mp4","Screenshot 2023-06-30 at 15.01.08.png","Screenshot 2023-06-30 at 15.02.01.png",NA,"SUPTM15998"
"6",1689001962182,"10/07/2023 15:12:42",1689005562182,1,"10/07/2023 17:12:42",137495,33,"task-175m",NA,30598744,9084892,NA,"complete",NA,NA,"computer","Desktop or Laptop","Windows 10","Chrome 114.0.0.0","1536x864","1536x760",NA,NA,NA,"Video Feedback Task",13,"NonAnxious",NA,"In","A",NA,"ABKCJDIEHFG","A",NA,NA,NA,NA,1,1,1,"Positive Feedback","Video","w2ir4b",1,"continue","",95313.8210000477,95300.702,95313.8210000477,95313.8210000477,95300.702,95313.8210000477,1,95313.8210000477,0,0,NA,"Click To Continue","Continue Button",1,"object-14","Positive Feedback","P5_P.mp4","Screenshot 2023-06-30 at 15.00.42.png","Screenshot 2023-06-30 at 15.00.55.png",NA,"SUPTM15998"
"7",1689001962184,"10/07/2023 15:12:42",1689005562184,1,"10/07/2023 17:12:42",137495,33,"task-175m",NA,30598744,9084892,NA,"complete",NA,NA,"computer","Desktop or Laptop","Windows 10","Chrome 114.0.0.0","1536x864","1536x760",NA,NA,NA,"Video Feedback Task",13,"NonAnxious",NA,"In","A",NA,"ABKCJDIEHFG","A",NA,NA,NA,NA,1,1,1,"Positive Feedback","Video","w2ir4b",1,"response","The description is highly descriptive and specific. ",81033.944,95300.702,95315.8210000477,81033.944,95300.702,95315.8210000477,1,81033.944,14281.8770000477,0,NA,"Text Entry","Text Entry",4,"object-19","Positive Feedback","P5_P.mp4","Screenshot 2023-06-30 at 15.00.42.png","Screenshot 2023-06-30 at 15.00.55.png",NA,"SUPTM15998"
"8",1689001962184,"10/07/2023 15:12:42",1689005562184,1,"10/07/2023 17:12:42",137495,33,"task-175m",NA,30598744,9084892,NA,"complete",NA,NA,"computer","Desktop or Laptop","Windows 10","Chrome 114.0.0.0","1536x864","1536x760",NA,NA,NA,"Video Feedback Task",13,"NonAnxious",NA,"In","A",NA,"ABKCJDIEHFG","A",NA,NA,NA,NA,1,1,1,"Positive Feedback","Video","w2ir4b",1,"response","Her voice is clear and easy to understand. ",62017.127,95300.702,95316.0210000358,62017.127,95300.702,95316.0210000358,1,62017.127,33298.8940000358,0,NA,"Text Entry","Text Entry",5,"object-20","Positive Feedback","P5_P.mp4","Screenshot 2023-06-30 at 15.00.42.png","Screenshot 2023-06-30 at 15.00.55.png",NA,"SUPTM15998"
"9",1689001963137,"10/07/2023 15:12:43",1689005563137,1,"10/07/2023 17:12:43",137495,33,"task-175m",NA,30598744,9084892,NA,"complete",NA,NA,"computer","Desktop or Laptop","Windows 10","Chrome 114.0.0.0","1536x864","1536x760",NA,NA,NA,"Video Feedback Task",13,"NonAnxious",NA,"In","A",NA,"ABKCJDIEHFG","A",NA,NA,NA,NA,1,1,1,"Positive Feedback","Fixation","mtm832",2,"continue","",966.744999999995,966.744999999995,966.744999999995,966.744999999995,966.744999999995,966.744999999995,1,966.744999999995,0,0,NA,"Fixation Timing","Fixation",1,"object-65","Positive Feedback","P5_P.mp4","Screenshot 2023-06-30 at 15.00.42.png","Screenshot 2023-06-30 at 15.00.55.png",NA,"SUPTM15998"
"10",1689002098946,"10/07/2023 15:14:58",1689005698946,1,"10/07/2023 17:14:58",137495,33,"task-175m",NA,30598744,9084892,NA,"complete",NA,NA,"computer","Desktop or Laptop","Windows 10","Chrome 114.0.0.0","1536x864","1536x760",NA,NA,NA,"Video Feedback Task",13,"NonAnxious",NA,"In","A",NA,"ABKCJDIEHFG","A",NA,NA,NA,NA,1,1,2,"Positive Feedback","Video","w2ir4b",1,"continue","",135811.174,135800.948,135811.174,135811.174,135800.948,135811.174,1,135811.174,0,0,NA,"Click To Continue","Continue Button",1,"object-14","Positive Feedback","P2_P.mp4","Screenshot 2023-06-30 at 15.00.42.png","Screenshot 2023-06-30 at 15.00.55.png",NA,"SUPTM15998"
"11",1689002098948,"10/07/2023 15:14:58",1689005698948,1,"10/07/2023 17:14:58",137495,33,"task-175m",NA,30598744,9084892,NA,"complete",NA,NA,"computer","Desktop or Laptop","Windows 10","Chrome 114.0.0.0","1536x864","1536x760",NA,NA,NA,"Video Feedback Task",13,"NonAnxious",NA,"In","A",NA,"ABKCJDIEHFG","A",NA,NA,NA,NA,1,1,2,"Positive Feedback","Video","w2ir4b",1,"response","She even mentions the emotions of people which helps add more depth. ",95534.056,135800.948,135813.174,95534.056,135800.948,135813.174,1,95534.056,40279.118,0,NA,"Text Entry","Text Entry",4,"object-19","Positive Feedback","P2_P.mp4","Screenshot 2023-06-30 at 15.00.42.png","Screenshot 2023-06-30 at 15.00.55.png",NA,"SUPTM15998"
"12",1689002098949,"10/07/2023 15:14:58",1689005698949,1,"10/07/2023 17:14:58",137495,33,"task-175m",NA,30598744,9084892,NA,"complete",NA,NA,"computer","Desktop or Laptop","Windows 10","Chrome 114.0.0.0","1536x864","1536x760",NA,NA,NA,"Video Feedback Task",13,"NonAnxious",NA,"In","A",NA,"ABKCJDIEHFG","A",NA,NA,NA,NA,1,1,2,"Positive Feedback","Video","w2ir4b",1,"response","The description helps create a clear image in my mind. ",62617.04,135800.948,135813.474000012,62617.04,135800.948,135813.474000012,1,62617.04,73196.4340000119,0,NA,"Text Entry","Text Entry",5,"object-20","Positive Feedback","P2_P.mp4","Screenshot 2023-06-30 at 15.00.42.png","Screenshot 2023-06-30 at 15.00.55.png",NA,"SUPTM15998"
"13",1689002099903,"10/07/2023 15:14:59",1689005699903,1,"10/07/2023 17:14:59",137495,33,"task-175m",NA,30598744,9084892,NA,"complete",NA,NA,"computer","Desktop or Laptop","Windows 10","Chrome 114.0.0.0","1536x864","1536x760",NA,NA,NA,"Video Feedback Task",13,"NonAnxious",NA,"In","A",NA,"ABKCJDIEHFG","A",NA,NA,NA,NA,1,1,2,"Positive Feedback","Fixation","mtm832",2,"continue","",966.738000000012,966.738000000012,966.738000000012,966.738000000012,966.738000000012,966.738000000012,1,966.738000000012,0,0,NA,"Fixation Timing","Fixation",1,"object-65","Positive Feedback","P2_P.mp4","Screenshot 2023-06-30 at 15.00.42.png","Screenshot 2023-06-30 at 15.00.55.png",NA,"SUPTM15998"
"14",1689002190152,"10/07/2023 15:16:30",1689005790152,1,"10/07/2023 17:16:30",137495,33,"task-175m",NA,30598744,9084892,NA,"complete",NA,NA,"computer","Desktop or Laptop","Windows 10","Chrome 114.0.0.0","1536x864","1536x760",NA,NA,NA,"Video Feedback Task",13,"NonAnxious",NA,"In","A",NA,"ABKCJDIEHFG","A",NA,NA,NA,NA,1,1,2,"Neutral Feedback","Screen 1","3zrml3",1,"continue","",90248.2880000119,90234.039,90248.2880000119,90248.2880000119,90234.039,90248.2880000119,1,90248.2880000119,0,0,NA,"Click To Continue","Continue Button",1,"object-155","Neutral Feedback","P3_N.mp4","Screenshot 2023-06-30 at 15.00.42.png","Screenshot 2023-06-30 at 15.00.55.png",NA,"SUPTM15998"
"15",1689002190154,"10/07/2023 15:16:30",1689005790154,1,"10/07/2023 17:16:30",137495,33,"task-175m",NA,30598744,9084892,NA,"complete",NA,NA,"computer","Desktop or Laptop","Windows 10","Chrome 114.0.0.0","1536x864","1536x760",NA,NA,NA,"Video Feedback Task",13,"NonAnxious",NA,"In","A",NA,"ABKCJDIEHFG","A",NA,NA,NA,NA,1,1,2,"Neutral Feedback","Screen 1","3zrml3",1,"response","His description is average. ",80633.872,90234.039,90250.6880000477,80633.872,90234.039,90250.6880000477,1,80633.872,9616.81600004766,0,NA,"Text Entry","Text Entry",4,"object-158","Neutral Feedback","P3_N.mp4","Screenshot 2023-06-30 at 15.00.42.png","Screenshot 2023-06-30 at 15.00.55.png",NA,"SUPTM15998"
"16",1689002190154,"10/07/2023 15:16:30",1689005790154,1,"10/07/2023 17:16:30",137495,33,"task-175m",NA,30598744,9084892,NA,"complete",NA,NA,"computer","Desktop or Laptop","Windows 10","Chrome 114.0.0.0","1536x864","1536x760",NA,NA,NA,"Video Feedback Task",13,"NonAnxious",NA,"In","A",NA,"ABKCJDIEHFG","A",NA,NA,NA,NA,1,1,2,"Neutral Feedback","Screen 1","3zrml3",1,"response","His voice is quite well spoken. ",45300.285,90234.039,90250.691,45300.285,90234.039,90250.691,1,45300.285,44950.406,0,NA,"Text Entry","Text Entry",5,"object-159","Neutral Feedback","P3_N.mp4","Screenshot 2023-06-30 at 15.00.42.png","Screenshot 2023-06-30 at 15.00.55.png",NA,"SUPTM15998"
"17",1689002191105,"10/07/2023 15:16:31",1689005791105,1,"10/07/2023 17:16:31",137495,33,"task-175m",NA,30598744,9084892,NA,"complete",NA,NA,"computer","Desktop or Laptop","Windows 10","Chrome 114.0.0.0","1536x864","1536x760",NA,NA,NA,"Video Feedback Task",13,"NonAnxious",NA,"In","A",NA,"ABKCJDIEHFG","A",NA,NA,NA,NA,1,1,2,"Neutral Feedback","Screen 2","vv4mhq",2,"continue","",966.703000000038,966.703000000038,966.703000000038,966.703000000038,966.703000000038,966.703000000038,1,966.703000000038,0,0,NA,"Fixation Timing","Fixation",1,"object-153","Neutral Feedback","P3_N.mp4","Screenshot 2023-06-30 at 15.00.42.png","Screenshot 2023-06-30 at 15.00.55.png",NA,"SUPTM15998"
"18",1689002239431,"10/07/2023 15:17:19",1689005839431,1,"10/07/2023 17:17:19",137495,33,"task-175m",NA,30598744,9084892,NA,"complete",NA,NA,"computer","Desktop or Laptop","Windows 10","Chrome 114.0.0.0","1536x864","1536x760",NA,NA,NA,"Video Feedback Task",13,"NonAnxious",NA,"In","A",NA,"ABKCJDIEHFG","A",NA,NA,NA,NA,1,1,3,"Positive Feedback","Video","w2ir4b",1,"continue","",48327.246,48317.008,48327.246,48327.246,48317.008,48327.246,1,48327.246,0,0,NA,"Click To Continue","Continue Button",1,"object-14","Positive Feedback","P1_P.mp4","Screenshot 2023-06-30 at 15.00.42.png","Screenshot 2023-06-30 at 15.02.01.png",NA,"SUPTM15998"
"19",1689002239434,"10/07/2023 15:17:19",1689005839434,1,"10/07/2023 17:17:19",137495,33,"task-175m",NA,30598744,9084892,NA,"complete",NA,NA,"computer","Desktop or Laptop","Windows 10","Chrome 114.0.0.0","1536x864","1536x760",NA,NA,NA,"Video Feedback Task",13,"NonAnxious",NA,"In","A",NA,"ABKCJDIEHFG","A",NA,NA,NA,NA,1,1,3,"Positive Feedback","Video","w2ir4b",1,"response","Clear voice. ",43183.605,48317.008,48329.746,43183.605,48317.008,48329.746,1,43183.605,5146.141,0,NA,"Text Entry","Text Entry",4,"object-19","Positive Feedback","P1_P.mp4","Screenshot 2023-06-30 at 15.00.42.png","Screenshot 2023-06-30 at 15.02.01.png",NA,"SUPTM15998"
"20",1689002239434,"10/07/2023 15:17:19",1689005839434,1,"10/07/2023 17:17:19",137495,33,"task-175m",NA,30598744,9084892,NA,"complete",NA,NA,"computer","Desktop or Laptop","Windows 10","Chrome 114.0.0.0","1536x864","1536x760",NA,NA,NA,"Video Feedback Task",13,"NonAnxious",NA,"In","A",NA,"ABKCJDIEHFG","A",NA,NA,NA,NA,1,1,3,"Positive Feedback","Video","w2ir4b",1,"response","Highly detailed and descriptive.",29166.806,48317.008,48330.0460000119,29166.806,48317.008,48330.0460000119,1,29166.806,19163.2400000119,0,NA,"Text Entry","Text Entry",5,"object-20","Positive Feedback","P1_P.mp4","Screenshot 2023-06-30 at 15.00.42.png","Screenshot 2023-06-30 at 15.02.01.png",NA,"SUPTM15998"
"21",1689002240388,"10/07/2023 15:17:20",1689005840388,1,"10/07/2023 17:17:20",137495,33,"task-175m",NA,30598744,9084892,NA,"complete",NA,NA,"computer","Desktop or Laptop","Windows 10","Chrome 114.0.0.0","1536x864","1536x760",NA,NA,NA,"Video Feedback Task",13,"NonAnxious",NA,"In","A",NA,"ABKCJDIEHFG","A",NA,NA,NA,NA,1,1,3,"Positive Feedback","Fixation","mtm832",2,"continue","",966.619999999995,966.619999999995,966.619999999995,966.619999999995,966.619999999995,966.619999999995,1,966.619999999995,0,0,NA,"Fixation Timing","Fixation",1,"object-65","Positive Feedback","P1_P.mp4","Screenshot 2023-06-30 at 15.00.42.png","Screenshot 2023-06-30 at 15.02.01.png",NA,"SUPTM15998"
"22",1689002321131,"10/07/2023 15:18:41",1689005921131,1,"10/07/2023 17:18:41",137495,33,"task-175m",NA,30598744,9084892,NA,"complete",NA,NA,"computer","Desktop or Laptop","Windows 10","Chrome 114.0.0.0","1536x864","1536x760",NA,NA,NA,"Video Feedback Task",13,"NonAnxious",NA,"In","A",NA,"ABKCJDIEHFG","A",NA,NA,NA,NA,1,1,3,"Neutral Feedback","Screen 1","3zrml3",1,"continue","",80743.4180000119,80733.9720000001,80743.4180000119,80743.4180000119,80733.9720000001,80743.4180000119,1,80743.4180000119,0,0,NA,"Click To Continue","Continue Button",1,"object-155","Neutral Feedback","P4_N.mp4","Screenshot 2023-06-30 at 15.01.08.png","Screenshot 2023-06-30 at 15.02.01.png",NA,"SUPTM15998"
"23",1689002321132,"10/07/2023 15:18:41",1689005921132,1,"10/07/2023 17:18:41",137495,33,"task-175m",NA,30598744,9084892,NA,"complete",NA,NA,"computer","Desktop or Laptop","Windows 10","Chrome 114.0.0.0","1536x864","1536x760",NA,NA,NA,"Video Feedback Task",13,"NonAnxious",NA,"In","A",NA,"ABKCJDIEHFG","A",NA,NA,NA,NA,1,1,3,"Neutral Feedback","Screen 1","3zrml3",1,"response","The video quality is average. ",44483.669,80733.9720000001,80745.3180000477,44483.669,80733.9720000001,80745.3180000477,1,44483.669,36261.6490000477,0,NA,"Text Entry","Text Entry",4,"object-158","Neutral Feedback","P4_N.mp4","Screenshot 2023-06-30 at 15.01.08.png","Screenshot 2023-06-30 at 15.02.01.png",NA,"SUPTM15998"
"24",1689002321133,"10/07/2023 15:18:41",1689005921133,1,"10/07/2023 17:18:41",137495,33,"task-175m",NA,30598744,9084892,NA,"complete",NA,NA,"computer","Desktop or Laptop","Windows 10","Chrome 114.0.0.0","1536x864","1536x760",NA,NA,NA,"Video Feedback Task",13,"NonAnxious",NA,"In","A",NA,"ABKCJDIEHFG","A",NA,NA,NA,NA,1,1,3,"Neutral Feedback","Screen 1","3zrml3",1,"response","Her description is not too bad. ",34000.35,80733.9720000001,80745.5180000358,34000.35,80733.9720000001,80745.5180000358,1,34000.35,46745.1680000357,0,NA,"Text Entry","Text Entry",5,"object-159","Neutral Feedback","P4_N.mp4","Screenshot 2023-06-30 at 15.01.08.png","Screenshot 2023-06-30 at 15.02.01.png",NA,"SUPTM15998"
"25",1689002322088,"10/07/2023 15:18:42",1689005922088,1,"10/07/2023 17:18:42",137495,33,"task-175m",NA,30598744,9084892,NA,"complete",NA,NA,"computer","Desktop or Laptop","Windows 10","Chrome 114.0.0.0","1536x864","1536x760",NA,NA,NA,"Video Feedback Task",13,"NonAnxious",NA,"In","A",NA,"ABKCJDIEHFG","A",NA,NA,NA,NA,1,1,3,"Neutral Feedback","Screen 2","vv4mhq",2,"continue","",966.726999999955,966.726999999955,966.726999999955,966.726999999955,966.726999999955,966.726999999955,1,966.726999999955,0,0,NA,"Fixation Timing","Fixation",1,"object-153","Neutral Feedback","P4_N.mp4","Screenshot 2023-06-30 at 15.01.08.png","Screenshot 2023-06-30 at 15.02.01.png",NA,"SUPTM15998"
"26",1689002416834,"10/07/2023 15:20:16",1689006016834,1,"10/07/2023 17:20:16",137495,33,"task-175m",NA,30598744,9084892,NA,"complete",NA,NA,"computer","Desktop or Laptop","Windows 10","Chrome 114.0.0.0","1536x864","1536x760",NA,NA,NA,"Video Feedback Task",13,"NonAnxious",NA,"In","A",NA,"ABKCJDIEHFG","A",NA,NA,NA,NA,1,1,4,"Positive Feedback","Video","w2ir4b",1,"continue","",94746.1190000477,94734.068,94746.1190000477,94746.1190000477,94734.068,94746.1190000477,1,94746.1190000477,0,0,NA,"Click To Continue","Continue Button",1,"object-14","Positive Feedback","P3_P.mp4","Screenshot 2023-06-30 at 15.00.42.png","Screenshot 2023-06-30 at 15.02.01.png",NA,"SUPTM15998"
"27",1689002416836,"10/07/2023 15:20:16",1689006016836,1,"10/07/2023 17:20:16",137495,33,"task-175m",NA,30598744,9084892,NA,"complete",NA,NA,"computer","Desktop or Laptop","Windows 10","Chrome 114.0.0.0","1536x864","1536x760",NA,NA,NA,"Video Feedback Task",13,"NonAnxious",NA,"In","A",NA,"ABKCJDIEHFG","A",NA,NA,NA,NA,1,1,4,"Positive Feedback","Video","w2ir4b",1,"response","A highly positive image was described. ",50767.0329999999,94734.068,94748.1190000477,50767.0329999999,94734.068,94748.1190000477,1,50767.0329999999,43981.0860000477,0,NA,"Text Entry","Text Entry",4,"object-19","Positive Feedback","P3_P.mp4","Screenshot 2023-06-30 at 15.00.42.png","Screenshot 2023-06-30 at 15.02.01.png",NA,"SUPTM15998"
"28",1689002416837,"10/07/2023 15:20:16",1689006016837,1,"10/07/2023 17:20:16",137495,33,"task-175m",NA,30598744,9084892,NA,"complete",NA,NA,"computer","Desktop or Laptop","Windows 10","Chrome 114.0.0.0","1536x864","1536x760",NA,NA,NA,"Video Feedback Task",13,"NonAnxious",NA,"In","A",NA,"ABKCJDIEHFG","A",NA,NA,NA,NA,1,1,4,"Positive Feedback","Video","w2ir4b",1,"response","Described with good clarity. ",38433.616,94734.068,94748.3190000358,38433.616,94734.068,94748.3190000358,1,38433.616,56314.7030000357,0,NA,"Text Entry","Text Entry",5,"object-20","Positive Feedback","P3_P.mp4","Screenshot 2023-06-30 at 15.00.42.png","Screenshot 2023-06-30 at 15.02.01.png",NA,"SUPTM15998"
"29",1689002417790,"10/07/2023 15:20:17",1689006017790,1,"10/07/2023 17:20:17",137495,33,"task-175m",NA,30598744,9084892,NA,"complete",NA,NA,"computer","Desktop or Laptop","Windows 10","Chrome 114.0.0.0","1536x864","1536x760",NA,NA,NA,"Video Feedback Task",13,"NonAnxious",NA,"In","A",NA,"ABKCJDIEHFG","A",NA,NA,NA,NA,1,1,4,"Positive Feedback","Fixation","mtm832",2,"continue","",966.648999999976,966.648999999976,966.648999999976,966.648999999976,966.648999999976,966.648999999976,1,966.648999999976,0,0,NA,"Fixation Timing","Fixation",1,"object-65","Positive Feedback","P3_P.mp4","Screenshot 2023-06-30 at 15.00.42.png","Screenshot 2023-06-30 at 15.02.01.png",NA,"SUPTM15998"
"30",1689002492240,"10/07/2023 15:21:32",1689006092240,1,"10/07/2023 17:21:32",137495,33,"task-175m",NA,30598744,9084892,NA,"complete",NA,NA,"computer","Desktop or Laptop","Windows 10","Chrome 114.0.0.0","1536x864","1536x760",NA,NA,NA,"Video Feedback Task",13,"NonAnxious",NA,"In","A",NA,"ABKCJDIEHFG","A",NA,NA,NA,NA,1,1,4,"Neutral Feedback","Screen 1","3zrml3",1,"continue","",74450.5870000002,74433.9260000001,74450.5870000002,74450.5870000002,74433.9260000001,74450.5870000002,1,74450.5870000002,0,0,NA,"Click To Continue","Continue Button",1,"object-155","Neutral Feedback","P5_N.mp4","Screenshot 2023-06-30 at 15.01.08.png","Screenshot 2023-06-30 at 15.00.55.png",NA,"SUPTM15998"
"31",1689002492242,"10/07/2023 15:21:32",1689006092242,1,"10/07/2023 17:21:32",137495,33,"task-175m",NA,30598744,9084892,NA,"complete",NA,NA,"computer","Desktop or Laptop","Windows 10","Chrome 114.0.0.0","1536x864","1536x760",NA,NA,NA,"Video Feedback Task",13,"NonAnxious",NA,"In","A",NA,"ABKCJDIEHFG","A",NA,NA,NA,NA,1,1,4,"Neutral Feedback","Screen 1","3zrml3",1,"response","Her description is alright, nothing special. ",55783.726,74433.9260000001,74450.5870000002,55783.726,74433.9260000001,74450.5870000002,1,55783.726,18666.8610000001,0,NA,"Text Entry","Text Entry",4,"object-158","Neutral Feedback","P5_N.mp4","Screenshot 2023-06-30 at 15.01.08.png","Screenshot 2023-06-30 at 15.00.55.png",NA,"SUPTM15998"
"32",1689002492242,"10/07/2023 15:21:32",1689006092242,1,"10/07/2023 17:21:32",137495,33,"task-175m",NA,30598744,9084892,NA,"complete",NA,NA,"computer","Desktop or Laptop","Windows 10","Chrome 114.0.0.0","1536x864","1536x760",NA,NA,NA,"Video Feedback Task",13,"NonAnxious",NA,"In","A",NA,"ABKCJDIEHFG","A",NA,NA,NA,NA,1,1,4,"Neutral Feedback","Screen 1","3zrml3",1,"response","The video's volume is a little loud. ",38066.993,74433.9260000001,74450.5870000002,38066.993,74433.9260000001,74450.5870000002,1,38066.993,36383.5940000002,0,NA,"Text Entry","Text Entry",5,"object-159","Neutral Feedback","P5_N.mp4","Screenshot 2023-06-30 at 15.01.08.png","Screenshot 2023-06-30 at 15.00.55.png",NA,"SUPTM15998"
"33",1689002493190,"10/07/2023 15:21:33",1689006093190,1,"10/07/2023 17:21:33",137495,33,"task-175m",NA,30598744,9084892,NA,"complete",NA,NA,"computer","Desktop or Laptop","Windows 10","Chrome 114.0.0.0","1536x864","1536x760",NA,NA,NA,"Video Feedback Task",13,"NonAnxious",NA,"In","A",NA,"ABKCJDIEHFG","A",NA,NA,NA,NA,1,1,4,"Neutral Feedback","Screen 2","vv4mhq",2,"continue","",966.711999999941,966.711999999941,966.711999999941,966.711999999941,966.711999999941,966.711999999941,1,966.711999999941,0,0,NA,"Fixation Timing","Fixation",1,"object-153","Neutral Feedback","P5_N.mp4","Screenshot 2023-06-30 at 15.01.08.png","Screenshot 2023-06-30 at 15.00.55.png",NA,"SUPTM15998"
"34",1689002575112,"10/07/2023 15:22:55",1689006175112,1,"10/07/2023 17:22:55",137495,33,"task-175m",NA,30598744,9084892,NA,"complete",NA,NA,"computer","Desktop or Laptop","Windows 10","Chrome 114.0.0.0","1536x864","1536x760",NA,NA,NA,"Video Feedback Task",13,"NonAnxious",NA,"In","A",NA,"ABKCJDIEHFG","A",NA,NA,NA,NA,1,1,5,"Neutral Feedback","Screen 1","3zrml3",1,"continue","",81922.3640000119,81917.231,81922.3640000119,81922.3640000119,81917.231,81922.3640000119,1,81922.3640000119,0,0,NA,"Click To Continue","Continue Button",1,"object-155","Neutral Feedback","P1_N.mp4","Screenshot 2023-06-30 at 15.01.08.png","Screenshot 2023-06-30 at 15.00.55.png",NA,"SUPTM15998"
"35",1689002575114,"10/07/2023 15:22:55",1689006175114,1,"10/07/2023 17:22:55",137495,33,"task-175m",NA,30598744,9084892,NA,"complete",NA,NA,"computer","Desktop or Laptop","Windows 10","Chrome 114.0.0.0","1536x864","1536x760",NA,NA,NA,"Video Feedback Task",13,"NonAnxious",NA,"In","A",NA,"ABKCJDIEHFG","A",NA,NA,NA,NA,1,1,5,"Neutral Feedback","Screen 1","3zrml3",1,"response","Her description is not that unclear. ",47100.34,81917.231,81924.564,47100.34,81917.231,81924.564,1,47100.34,34824.224,0,NA,"Text Entry","Text Entry",4,"object-158","Neutral Feedback","P1_N.mp4","Screenshot 2023-06-30 at 15.01.08.png","Screenshot 2023-06-30 at 15.00.55.png",NA,"SUPTM15998"
"36",1689002575114,"10/07/2023 15:22:55",1689006175114,1,"10/07/2023 17:22:55",137495,33,"task-175m",NA,30598744,9084892,NA,"complete",NA,NA,"computer","Desktop or Laptop","Windows 10","Chrome 114.0.0.0","1536x864","1536x760",NA,NA,NA,"Video Feedback Task",13,"NonAnxious",NA,"In","A",NA,"ABKCJDIEHFG","A",NA,NA,NA,NA,1,1,5,"Neutral Feedback","Screen 1","3zrml3",1,"response","Her voice is a little well spoken. ",29816.813,81917.231,81924.8640000119,29816.813,81917.231,81924.8640000119,1,29816.813,52108.051000012,0,NA,"Text Entry","Text Entry",5,"object-159","Neutral Feedback","P1_N.mp4","Screenshot 2023-06-30 at 15.01.08.png","Screenshot 2023-06-30 at 15.00.55.png",NA,"SUPTM15998"
"37",1689002576074,"10/07/2023 15:22:56",1689006176074,1,"10/07/2023 17:22:56",137495,33,"task-175m",NA,30598744,9084892,NA,"complete",NA,NA,"computer","Desktop or Laptop","Windows 10","Chrome 114.0.0.0","1536x864","1536x760",NA,NA,NA,"Video Feedback Task",13,"NonAnxious",NA,"In","A",NA,"ABKCJDIEHFG","A",NA,NA,NA,NA,1,1,5,"Neutral Feedback","Screen 2","vv4mhq",2,"continue","",966.73199999996,966.73199999996,966.73199999996,966.73199999996,966.73199999996,966.73199999996,1,966.73199999996,0,0,NA,"Fixation Timing","Fixation",1,"object-153","Neutral Feedback","P1_N.mp4","Screenshot 2023-06-30 at 15.01.08.png","Screenshot 2023-06-30 at 15.00.55.png",NA,"SUPTM15998"
"38",1689002638032,"10/07/2023 15:23:58",1689006238032,1,"10/07/2023 17:23:58",137495,33,"task-175m",NA,30598744,9084892,NA,"complete",NA,NA,"computer","Desktop or Laptop","Windows 10","Chrome 114.0.0.0","1536x864","1536x760",NA,NA,NA,"Video Feedback Task",13,"NonAnxious",NA,"In","A",NA,"ABKCJDIEHFG","A",NA,NA,NA,NA,1,1,5,"Positive Feedback","Video","w2ir4b",1,"continue","",61959.4010000119,61950.4330000001,61959.4010000119,61959.4010000119,61950.4330000001,61959.4010000119,1,61959.4010000119,0,0,NA,"Click To Continue","Continue Button",1,"object-14","Positive Feedback","P4_P.mp4","Screenshot 2023-06-30 at 15.01.08.png","Screenshot 2023-06-30 at 15.02.01.png",NA,"SUPTM15998"
"39",1689002638036,"10/07/2023 15:23:58",1689006238036,1,"10/07/2023 17:23:58",137495,33,"task-175m",NA,30598744,9084892,NA,"complete",NA,NA,"computer","Desktop or Laptop","Windows 10","Chrome 114.0.0.0","1536x864","1536x760",NA,NA,NA,"Video Feedback Task",13,"NonAnxious",NA,"In","A",NA,"ABKCJDIEHFG","A",NA,NA,NA,NA,1,1,5,"Positive Feedback","Video","w2ir4b",1,"response","Highly detailed description. ",53300.39,61950.4330000001,61963.2010000239,53300.39,61950.4330000001,61963.2010000239,1,53300.39,8662.81100002385,0,NA,"Text Entry","Text Entry",4,"object-19","Positive Feedback","P4_P.mp4","Screenshot 2023-06-30 at 15.01.08.png","Screenshot 2023-06-30 at 15.02.01.png",NA,"SUPTM15998"
"40",1689002638036,"10/07/2023 15:23:58",1689006238036,1,"10/07/2023 17:23:58",137495,33,"task-175m",NA,30598744,9084892,NA,"complete",NA,NA,"computer","Desktop or Laptop","Windows 10","Chrome 114.0.0.0","1536x864","1536x760",NA,NA,NA,"Video Feedback Task",13,"NonAnxious",NA,"In","A",NA,"ABKCJDIEHFG","A",NA,NA,NA,NA,1,1,5,"Positive Feedback","Video","w2ir4b",1,"response","Very good inference. ",45550.36,61950.4330000001,61963.4010000119,45550.36,61950.4330000001,61963.4010000119,1,45550.36,16413.041000012,0,NA,"Text Entry","Text Entry",5,"object-20","Positive Feedback","P4_P.mp4","Screenshot 2023-06-30 at 15.01.08.png","Screenshot 2023-06-30 at 15.02.01.png",NA,"SUPTM15998"
"41",1689002638991,"10/07/2023 15:23:58",1689006238991,1,"10/07/2023 17:23:58",137495,33,"task-175m",NA,30598744,9084892,NA,"complete",NA,NA,"computer","Desktop or Laptop","Windows 10","Chrome 114.0.0.0","1536x864","1536x760",NA,NA,NA,"Video Feedback Task",13,"NonAnxious",NA,"In","A",NA,"ABKCJDIEHFG","A",NA,NA,NA,NA,1,1,5,"Positive Feedback","Fixation","mtm832",2,"continue","",966.67499999993,966.67499999993,966.67499999993,966.67499999993,966.67499999993,966.67499999993,1,966.67499999993,0,0,NA,"Fixation Timing","Fixation",1,"object-65","Positive Feedback","P4_P.mp4","Screenshot 2023-06-30 at 15.01.08.png","Screenshot 2023-06-30 at 15.02.01.png",NA,"SUPTM15998"
"42",1689002638996,"10/07/2023 15:23:58",1689006238996,1,"10/07/2023 17:23:58",137495,33,"task-175m",NA,30598744,9084892,NA,"complete",NA,NA,"computer","Desktop or Laptop","Windows 10","Chrome 114.0.0.0","1536x864","1536x760",NA,NA,NA,"Video Feedback Task",13,"NonAnxious",NA,"In","A",NA,"ABKCJDIEHFG","A",NA,NA,NA,NA,1,1,NA,"","","",NA,"5","END",NA,NA,NA,NA,NA,NA,0,NA,NA,NA,NA,"","",NA,"","","","","",NA,"SUPTM15998"
