"Event.Index","UTC.Timestamp","UTC.Date.and.Time","Local.Timestamp","Local.Timezone","Local.Date.and.Time","Experiment.ID","Experiment.Version","Tree.Node.Key","Repeat.Key","Schedule.ID","Participant.Private.ID","Participant.Starting.Group","Participant.Status","Participant.Completion.Code","Participant.External.Session.ID","Participant.Device.Type","Participant.Device","Participant.OS","Participant.Browser","Participant.Monitor.Size","Participant.Viewport.Size","Checkpoint","Room.ID","Room.Order","Task.Name","Task.Version","branch.ln1a","randomiser.vzsr","branch.hkzp","randomiser.ywar","randomiser.q6ah","order.ot79","randomiser.ahe2","randomiser.ckhi","randomiser.lqqr","randomiser.pobd","randomiser.8gdj","Spreadsheet","Current.Spreadsheet","Trial.Number","Display","Screen","Screen.ID","Screen.Counter","Response.Type","Response","Onset.Time","Clock.Time","Reaction.Time","Absolute.Onset.Time","Absolute.Clock.Time","Absolute.Reaction.Time","Correct","Response.Onset","Response.Duration","Proportion","Tag","Component.Name","Object.Name","Object.Number","Object.ID","Spreadsheet..display","Spreadsheet..stimulus","Manipulation..Spreadsheet","Random_ID"
"1",1689005843387,"10/07/2023 16:17:23",1689009443387,1,"10/07/2023 18:17:23",137495,33,"task-dwq4",NA,30599977,9085338,NA,"complete",NA,NA,"computer","Desktop or Laptop","Windows 10","Chrome 114.0.0.0","1536x864","1536x714",NA,NA,NA,"JV Task P2",11,"Anxious",132,"In",NA,2,"BCADKEJFIGH",NA,NA,"A (JV first)",NA,NA,"SS1","SS1",NA,"","","",NA,"5","BEGIN",NA,NA,NA,NA,NA,NA,0,NA,NA,NA,NA,"","",NA,"","","",NA,"SUPTM05489"
"2",1689005846916,"10/07/2023 16:17:26",1689009446916,1,"10/07/2023 18:17:26",137495,33,"task-dwq4",NA,30599977,9085338,NA,"complete",NA,NA,"computer","Desktop or Laptop","Windows 10","Chrome 114.0.0.0","1536x864","1536x714",NA,NA,NA,"JV Task P2",11,"Anxious",132,"In",NA,2,"BCADKEJFIGH",NA,NA,"A (JV first)",NA,NA,"SS1","SS1",1,"V","Valence","xyoebq",1,"continue","",3504.81899990463,3498.078,3504.81899990463,3504.81899990463,3498.078,3504.81899990463,1,3504.81899990463,0,0,NA,"Click To Continue","Continue Button",1,"object-25","V","CFD-AM-220-134-H.jpeg",NA,"SUPTM05489"
"3",1689005846916,"10/07/2023 16:17:26",1689009446916,1,"10/07/2023 18:17:26",137495,33,"task-dwq4",NA,30599977,9085338,NA,"complete",NA,NA,"computer","Desktop or Laptop","Windows 10","Chrome 114.0.0.0","1536x864","1536x714",NA,NA,NA,"JV Task P2",11,"Anxious",132,"In",NA,2,"BCADKEJFIGH",NA,NA,"A (JV first)",NA,NA,"SS1","SS1",1,"V","Valence","xyoebq",1,"response","71",3081.772,3498.078,3505.81899990463,3081.772,3498.078,3505.81899990463,1,3081.772,424.046999904633,0,NA,"Slider","J",3,"object-27","V","CFD-AM-220-134-H.jpeg",NA,"SUPTM05489"
"4",1689005847875,"10/07/2023 16:17:27",1689009447875,1,"10/07/2023 18:17:27",137495,33,"task-dwq4",NA,30599977,9085338,NA,"complete",NA,NA,"computer","Desktop or Laptop","Windows 10","Chrome 114.0.0.0","1536x864","1536x714",NA,NA,NA,"JV Task P2",11,"Anxious",132,"In",NA,2,"BCADKEJFIGH",NA,NA,"A (JV first)",NA,NA,"SS1","SS1",1,"V","Fixation","68owkj",2,"continue","",966.156,966.156,966.156,966.156,966.156,966.156,1,966.156,0,0,NA,"Fixation Timing","Fixation",1,"object-21","V","CFD-AM-220-134-H.jpeg",NA,"SUPTM05489"
"5",1689005850225,"10/07/2023 16:17:30",1689009450225,1,"10/07/2023 18:17:30",137495,33,"task-dwq4",NA,30599977,9085338,NA,"complete",NA,NA,"computer","Desktop or Laptop","Windows 10","Chrome 114.0.0.0","1536x864","1536x714",NA,NA,NA,"JV Task P2",11,"Anxious",132,"In",NA,2,"BCADKEJFIGH",NA,NA,"A (JV first)",NA,NA,"SS1","SS1",2,"V","Valence","xyoebq",1,"continue","",2349.562,2332.498,2349.562,2349.562,2332.498,2349.562,1,2349.562,0,0,NA,"Click To Continue","Continue Button",1,"object-25","V","CFD-WF-039-025-H.jpeg",NA,"SUPTM05489"
"6",1689005850225,"10/07/2023 16:17:30",1689009450225,1,"10/07/2023 18:17:30",137495,33,"task-dwq4",NA,30599977,9085338,NA,"complete",NA,NA,"computer","Desktop or Laptop","Windows 10","Chrome 114.0.0.0","1536x864","1536x714",NA,NA,NA,"JV Task P2",11,"Anxious",132,"In",NA,2,"BCADKEJFIGH",NA,NA,"A (JV first)",NA,NA,"SS1","SS1",2,"V","Valence","xyoebq",1,"response","69",766.569,2332.498,2349.562,766.569,2332.498,2349.562,1,766.569,1582.993,0,NA,"Slider","J",3,"object-27","V","CFD-WF-039-025-H.jpeg",NA,"SUPTM05489"
"7",1689005851174,"10/07/2023 16:17:31",1689009451174,1,"10/07/2023 18:17:31",137495,33,"task-dwq4",NA,30599977,9085338,NA,"complete",NA,NA,"computer","Desktop or Laptop","Windows 10","Chrome 114.0.0.0","1536x864","1536x714",NA,NA,NA,"JV Task P2",11,"Anxious",132,"In",NA,2,"BCADKEJFIGH",NA,NA,"A (JV first)",NA,NA,"SS1","SS1",2,"V","Fixation","68owkj",2,"continue","",965.920999999999,965.920999999999,965.920999999999,965.920999999999,965.920999999999,965.920999999999,1,965.920999999999,0,0,NA,"Fixation Timing","Fixation",1,"object-21","V","CFD-WF-039-025-H.jpeg",NA,"SUPTM05489"
"8",1689005853121,"10/07/2023 16:17:33",1689009453121,1,"10/07/2023 18:17:33",137495,33,"task-dwq4",NA,30599977,9085338,NA,"complete",NA,NA,"computer","Desktop or Laptop","Windows 10","Chrome 114.0.0.0","1536x864","1536x714",NA,NA,NA,"JV Task P2",11,"Anxious",132,"In",NA,2,"BCADKEJFIGH",NA,NA,"A (JV first)",NA,NA,"SS1","SS1",1,"J","Judginess","y8ii7g",1,"continue","",1947.566,1932.379,1947.566,1947.566,1932.379,1947.566,1,1947.566,0,0,NA,"Click To Continue","Continue Button",1,"object-14","J","CFD-WM-034-030-N.jpg",NA,"SUPTM05489"
"9",1689005853121,"10/07/2023 16:17:33",1689009453121,1,"10/07/2023 18:17:33",137495,33,"task-dwq4",NA,30599977,9085338,NA,"complete",NA,NA,"computer","Desktop or Laptop","Windows 10","Chrome 114.0.0.0","1536x864","1536x714",NA,NA,NA,"JV Task P2",11,"Anxious",132,"In",NA,2,"BCADKEJFIGH",NA,NA,"A (JV first)",NA,NA,"SS1","SS1",1,"J","Judginess","y8ii7g",1,"response","37",1465.957,1932.379,1947.86599995232,1465.957,1932.379,1947.86599995232,1,1465.957,481.908999952317,0,NA,"Slider","J",3,"object-18","J","CFD-WM-034-030-N.jpg",NA,"SUPTM05489"
"10",1689005854072,"10/07/2023 16:17:34",1689009454072,1,"10/07/2023 18:17:34",137495,33,"task-dwq4",NA,30599977,9085338,NA,"complete",NA,NA,"computer","Desktop or Laptop","Windows 10","Chrome 114.0.0.0","1536x864","1536x714",NA,NA,NA,"JV Task P2",11,"Anxious",132,"In",NA,2,"BCADKEJFIGH",NA,NA,"A (JV first)",NA,NA,"SS1","SS1",1,"J","Fixation","w9zir9",2,"continue","",966.120999999999,966.120999999999,966.120999999999,966.120999999999,966.120999999999,966.120999999999,1,966.120999999999,0,0,NA,"Fixation Timing","Fixation",1,"object-65","J","CFD-WM-034-030-N.jpg",NA,"SUPTM05489"
"11",1689005857751,"10/07/2023 16:17:37",1689009457751,1,"10/07/2023 18:17:37",137495,33,"task-dwq4",NA,30599977,9085338,NA,"complete",NA,NA,"computer","Desktop or Laptop","Windows 10","Chrome 114.0.0.0","1536x864","1536x714",NA,NA,NA,"JV Task P2",11,"Anxious",132,"In",NA,2,"BCADKEJFIGH",NA,NA,"A (JV first)",NA,NA,"SS1","SS1",2,"J","Judginess","y8ii7g",1,"continue","",3679.16599990463,3664.36,3679.16599990463,3679.16599990463,3664.36,3679.16599990463,1,3679.16599990463,0,0,NA,"Click To Continue","Continue Button",1,"object-14","J","CFD-WF-036-023-N.jpg",NA,"SUPTM05489"
"12",1689005857751,"10/07/2023 16:17:37",1689009457751,1,"10/07/2023 18:17:37",137495,33,"task-dwq4",NA,30599977,9085338,NA,"complete",NA,NA,"computer","Desktop or Laptop","Windows 10","Chrome 114.0.0.0","1536x864","1536x714",NA,NA,NA,"JV Task P2",11,"Anxious",132,"In",NA,2,"BCADKEJFIGH",NA,NA,"A (JV first)",NA,NA,"SS1","SS1",2,"J","Judginess","y8ii7g",1,"response","42",3114.979,3664.36,3679.36599995232,3114.979,3664.36,3679.36599995232,1,3114.979,564.386999952316,0,NA,"Slider","J",3,"object-18","J","CFD-WF-036-023-N.jpg",NA,"SUPTM05489"
"13",1689005858702,"10/07/2023 16:17:38",1689009458702,1,"10/07/2023 18:17:38",137495,33,"task-dwq4",NA,30599977,9085338,NA,"complete",NA,NA,"computer","Desktop or Laptop","Windows 10","Chrome 114.0.0.0","1536x864","1536x714",NA,NA,NA,"JV Task P2",11,"Anxious",132,"In",NA,2,"BCADKEJFIGH",NA,NA,"A (JV first)",NA,NA,"SS1","SS1",2,"J","Fixation","w9zir9",2,"continue","",966.115,966.115,966.115,966.115,966.115,966.115,1,966.115,0,0,NA,"Fixation Timing","Fixation",1,"object-65","J","CFD-WF-036-023-N.jpg",NA,"SUPTM05489"
"14",1689005861612,"10/07/2023 16:17:41",1689009461612,1,"10/07/2023 18:17:41",137495,33,"task-dwq4",NA,30599977,9085338,NA,"complete",NA,NA,"computer","Desktop or Laptop","Windows 10","Chrome 114.0.0.0","1536x864","1536x714",NA,NA,NA,"JV Task P2",11,"Anxious",132,"In",NA,2,"BCADKEJFIGH",NA,NA,"A (JV first)",NA,NA,"SS1","SS1",3,"V","Valence","xyoebq",1,"continue","",2910.39099995232,2898.684,2910.39099995232,2910.39099995232,2898.684,2910.39099995232,1,2910.39099995232,0,0,NA,"Click To Continue","Continue Button",1,"object-25","V","CFD-WF-030-002-S.jpeg",NA,"SUPTM05489"
"15",1689005861613,"10/07/2023 16:17:41",1689009461613,1,"10/07/2023 18:17:41",137495,33,"task-dwq4",NA,30599977,9085338,NA,"complete",NA,NA,"computer","Desktop or Laptop","Windows 10","Chrome 114.0.0.0","1536x864","1536x714",NA,NA,NA,"JV Task P2",11,"Anxious",132,"In",NA,2,"BCADKEJFIGH",NA,NA,"A (JV first)",NA,NA,"SS1","SS1",3,"V","Valence","xyoebq",1,"response","38",1982.642,2898.684,2910.89099995232,1982.642,2898.684,2910.89099995232,1,1982.642,928.248999952317,0,NA,"Slider","J",3,"object-27","V","CFD-WF-030-002-S.jpeg",NA,"SUPTM05489"
"16",1689005862567,"10/07/2023 16:17:42",1689009462567,1,"10/07/2023 18:17:42",137495,33,"task-dwq4",NA,30599977,9085338,NA,"complete",NA,NA,"computer","Desktop or Laptop","Windows 10","Chrome 114.0.0.0","1536x864","1536x714",NA,NA,NA,"JV Task P2",11,"Anxious",132,"In",NA,2,"BCADKEJFIGH",NA,NA,"A (JV first)",NA,NA,"SS1","SS1",3,"V","Fixation","68owkj",2,"continue","",966.175999999999,966.175999999999,966.175999999999,966.175999999999,966.175999999999,966.175999999999,1,966.175999999999,0,0,NA,"Fixation Timing","Fixation",1,"object-21","V","CFD-WF-030-002-S.jpeg",NA,"SUPTM05489"
"17",1689005864476,"10/07/2023 16:17:44",1689009464476,1,"10/07/2023 18:17:44",137495,33,"task-dwq4",NA,30599977,9085338,NA,"complete",NA,NA,"computer","Desktop or Laptop","Windows 10","Chrome 114.0.0.0","1536x864","1536x714",NA,NA,NA,"JV Task P2",11,"Anxious",132,"In",NA,2,"BCADKEJFIGH",NA,NA,"A (JV first)",NA,NA,"SS1","SS1",3,"J","Judginess","y8ii7g",1,"continue","",1908.93099980926,1898.701,1908.93099980926,1908.93099980926,1898.701,1908.93099980926,1,1908.93099980926,0,0,NA,"Click To Continue","Continue Button",1,"object-14","J","CFD-BM-028-002-S.jpeg",NA,"SUPTM05489"
"18",1689005864479,"10/07/2023 16:17:44",1689009464479,1,"10/07/2023 18:17:44",137495,33,"task-dwq4",NA,30599977,9085338,NA,"complete",NA,NA,"computer","Desktop or Laptop","Windows 10","Chrome 114.0.0.0","1536x864","1536x714",NA,NA,NA,"JV Task P2",11,"Anxious",132,"In",NA,2,"BCADKEJFIGH",NA,NA,"A (JV first)",NA,NA,"SS1","SS1",3,"J","Judginess","y8ii7g",1,"response","43",1065.842,1898.701,1912.03099995232,1065.842,1898.701,1912.03099995232,1,1065.842,846.188999952315,0,NA,"Slider","J",3,"object-18","J","CFD-BM-028-002-S.jpeg",NA,"SUPTM05489"
"19",1689005865433,"10/07/2023 16:17:45",1689009465433,1,"10/07/2023 18:17:45",137495,33,"task-dwq4",NA,30599977,9085338,NA,"complete",NA,NA,"computer","Desktop or Laptop","Windows 10","Chrome 114.0.0.0","1536x864","1536x714",NA,NA,NA,"JV Task P2",11,"Anxious",132,"In",NA,2,"BCADKEJFIGH",NA,NA,"A (JV first)",NA,NA,"SS1","SS1",3,"J","Fixation","w9zir9",2,"continue","",966.384999999998,966.384999999998,966.384999999998,966.384999999998,966.384999999998,966.384999999998,1,966.384999999998,0,0,NA,"Fixation Timing","Fixation",1,"object-65","J","CFD-BM-028-002-S.jpeg",NA,"SUPTM05489"
"20",1689005868002,"10/07/2023 16:17:48",1689009468002,1,"10/07/2023 18:17:48",137495,33,"task-dwq4",NA,30599977,9085338,NA,"complete",NA,NA,"computer","Desktop or Laptop","Windows 10","Chrome 114.0.0.0","1536x864","1536x714",NA,NA,NA,"JV Task P2",11,"Anxious",132,"In",NA,2,"BCADKEJFIGH",NA,NA,"A (JV first)",NA,NA,"SS1","SS1",4,"J","Judginess","y8ii7g",1,"continue","",2569.645,2564.959,2569.645,2569.645,2564.959,2569.645,1,2569.645,0,0,NA,"Click To Continue","Continue Button",1,"object-14","J","CFD-WM-037-025-S.jpeg",NA,"SUPTM05489"
"21",1689005868002,"10/07/2023 16:17:48",1689009468002,1,"10/07/2023 18:17:48",137495,33,"task-dwq4",NA,30599977,9085338,NA,"complete",NA,NA,"computer","Desktop or Laptop","Windows 10","Chrome 114.0.0.0","1536x864","1536x714",NA,NA,NA,"JV Task P2",11,"Anxious",132,"In",NA,2,"BCADKEJFIGH",NA,NA,"A (JV first)",NA,NA,"SS1","SS1",4,"J","Judginess","y8ii7g",1,"response","40",1981.995,2564.959,2569.94499995232,1981.995,2564.959,2569.94499995232,1,1981.995,587.949999952318,0,NA,"Slider","J",3,"object-18","J","CFD-WM-037-025-S.jpeg",NA,"SUPTM05489"
"22",1689005868964,"10/07/2023 16:17:48",1689009468964,1,"10/07/2023 18:17:48",137495,33,"task-dwq4",NA,30599977,9085338,NA,"complete",NA,NA,"computer","Desktop or Laptop","Windows 10","Chrome 114.0.0.0","1536x864","1536x714",NA,NA,NA,"JV Task P2",11,"Anxious",132,"In",NA,2,"BCADKEJFIGH",NA,NA,"A (JV first)",NA,NA,"SS1","SS1",4,"J","Fixation","w9zir9",2,"continue","",966.418000000001,966.418000000001,966.418000000001,966.418000000001,966.418000000001,966.418000000001,1,966.418000000001,0,0,NA,"Fixation Timing","Fixation",1,"object-65","J","CFD-WM-037-025-S.jpeg",NA,"SUPTM05489"
"23",1689005870569,"10/07/2023 16:17:50",1689009470569,1,"10/07/2023 18:17:50",137495,33,"task-dwq4",NA,30599977,9085338,NA,"complete",NA,NA,"computer","Desktop or Laptop","Windows 10","Chrome 114.0.0.0","1536x864","1536x714",NA,NA,NA,"JV Task P2",11,"Anxious",132,"In",NA,2,"BCADKEJFIGH",NA,NA,"A (JV first)",NA,NA,"SS1","SS1",5,"J","Judginess","y8ii7g",1,"continue","",1605.86799990463,1598.787,1605.86799990463,1605.86799990463,1598.787,1605.86799990463,1,1605.86799990463,0,0,NA,"Click To Continue","Continue Button",1,"object-14","J","CFD-BF-030-002-S.jpeg",NA,"SUPTM05489"
"24",1689005870570,"10/07/2023 16:17:50",1689009470570,1,"10/07/2023 18:17:50",137495,33,"task-dwq4",NA,30599977,9085338,NA,"complete",NA,NA,"computer","Desktop or Laptop","Windows 10","Chrome 114.0.0.0","1536x864","1536x714",NA,NA,NA,"JV Task P2",11,"Anxious",132,"In",NA,2,"BCADKEJFIGH",NA,NA,"A (JV first)",NA,NA,"SS1","SS1",5,"J","Judginess","y8ii7g",1,"response","38",1166.058,1598.787,1606.56799995232,1166.058,1598.787,1606.56799995232,1,1166.058,440.509999952315,0,NA,"Slider","J",3,"object-18","J","CFD-BF-030-002-S.jpeg",NA,"SUPTM05489"
"25",1689005871529,"10/07/2023 16:17:51",1689009471529,1,"10/07/2023 18:17:51",137495,33,"task-dwq4",NA,30599977,9085338,NA,"complete",NA,NA,"computer","Desktop or Laptop","Windows 10","Chrome 114.0.0.0","1536x864","1536x714",NA,NA,NA,"JV Task P2",11,"Anxious",132,"In",NA,2,"BCADKEJFIGH",NA,NA,"A (JV first)",NA,NA,"SS1","SS1",5,"J","Fixation","w9zir9",2,"continue","",966.154999999999,966.154999999999,966.154999999999,966.154999999999,966.154999999999,966.154999999999,1,966.154999999999,0,0,NA,"Fixation Timing","Fixation",1,"object-65","J","CFD-BF-030-002-S.jpeg",NA,"SUPTM05489"
"26",1689005874895,"10/07/2023 16:17:54",1689009474895,1,"10/07/2023 18:17:54",137495,33,"task-dwq4",NA,30599977,9085338,NA,"complete",NA,NA,"computer","Desktop or Laptop","Windows 10","Chrome 114.0.0.0","1536x864","1536x714",NA,NA,NA,"JV Task P2",11,"Anxious",132,"In",NA,2,"BCADKEJFIGH",NA,NA,"A (JV first)",NA,NA,"SS1","SS1",4,"V","Valence","xyoebq",1,"continue","",3367.12599995232,3365.177,3367.12599995232,3367.12599995232,3365.177,3367.12599995232,1,3367.12599995232,0,0,NA,"Click To Continue","Continue Button",1,"object-25","V","CFD-WM-009-002-H.jpeg",NA,"SUPTM05489"
"27",1689005874899,"10/07/2023 16:17:54",1689009474899,1,"10/07/2023 18:17:54",137495,33,"task-dwq4",NA,30599977,9085338,NA,"complete",NA,NA,"computer","Desktop or Laptop","Windows 10","Chrome 114.0.0.0","1536x864","1536x714",NA,NA,NA,"JV Task P2",11,"Anxious",132,"In",NA,2,"BCADKEJFIGH",NA,NA,"A (JV first)",NA,NA,"SS1","SS1",4,"V","Valence","xyoebq",1,"response","70",1299.599,3365.177,3371.12599995232,1299.599,3365.177,3371.12599995232,1,1299.599,2071.52699995232,0,NA,"Slider","J",3,"object-27","V","CFD-WM-009-002-H.jpeg",NA,"SUPTM05489"
"28",1689005875860,"10/07/2023 16:17:55",1689009475860,1,"10/07/2023 18:17:55",137495,33,"task-dwq4",NA,30599977,9085338,NA,"complete",NA,NA,"computer","Desktop or Laptop","Windows 10","Chrome 114.0.0.0","1536x864","1536x714",NA,NA,NA,"JV Task P2",11,"Anxious",132,"In",NA,2,"BCADKEJFIGH",NA,NA,"A (JV first)",NA,NA,"SS1","SS1",4,"V","Fixation","68owkj",2,"continue","",966.083999999999,966.083999999999,966.083999999999,966.083999999999,966.083999999999,966.083999999999,1,966.083999999999,0,0,NA,"Fixation Timing","Fixation",1,"object-21","V","CFD-WM-009-002-H.jpeg",NA,"SUPTM05489"
"29",1689005879429,"10/07/2023 16:17:59",1689009479429,1,"10/07/2023 18:17:59",137495,33,"task-dwq4",NA,30599977,9085338,NA,"complete",NA,NA,"computer","Desktop or Laptop","Windows 10","Chrome 114.0.0.0","1536x864","1536x714",NA,NA,NA,"JV Task P2",11,"Anxious",132,"In",NA,2,"BCADKEJFIGH",NA,NA,"A (JV first)",NA,NA,"SS1","SS1",6,"J","Judginess","y8ii7g",1,"continue","",3569.565,3564.744,3569.565,3569.565,3564.744,3569.565,1,3569.565,0,0,NA,"Click To Continue","Continue Button",1,"object-14","J","CFD-BF-030-002-N.jpg",NA,"SUPTM05489"
"30",1689005879429,"10/07/2023 16:17:59",1689009479429,1,"10/07/2023 18:17:59",137495,33,"task-dwq4",NA,30599977,9085338,NA,"complete",NA,NA,"computer","Desktop or Laptop","Windows 10","Chrome 114.0.0.0","1536x864","1536x714",NA,NA,NA,"JV Task P2",11,"Anxious",132,"In",NA,2,"BCADKEJFIGH",NA,NA,"A (JV first)",NA,NA,"SS1","SS1",6,"J","Judginess","y8ii7g",1,"response","32",2298.773,3564.744,3569.96499985695,2298.773,3564.744,3569.96499985695,1,2298.773,1271.19199985695,0,NA,"Slider","J",3,"object-18","J","CFD-BF-030-002-N.jpg",NA,"SUPTM05489"
"31",1689005880391,"10/07/2023 16:18:00",1689009480391,1,"10/07/2023 18:18:00",137495,33,"task-dwq4",NA,30599977,9085338,NA,"complete",NA,NA,"computer","Desktop or Laptop","Windows 10","Chrome 114.0.0.0","1536x864","1536x714",NA,NA,NA,"JV Task P2",11,"Anxious",132,"In",NA,2,"BCADKEJFIGH",NA,NA,"A (JV first)",NA,NA,"SS1","SS1",6,"J","Fixation","w9zir9",2,"continue","",965.801000000007,965.801000000007,965.801000000007,965.801000000007,965.801000000007,965.801000000007,1,965.801000000007,0,0,NA,"Fixation Timing","Fixation",1,"object-65","J","CFD-BF-030-002-N.jpg",NA,"SUPTM05489"
"32",1689005884882,"10/07/2023 16:18:04",1689009484882,1,"10/07/2023 18:18:04",137495,33,"task-dwq4",NA,30599977,9085338,NA,"complete",NA,NA,"computer","Desktop or Laptop","Windows 10","Chrome 114.0.0.0","1536x864","1536x714",NA,NA,NA,"JV Task P2",11,"Anxious",132,"In",NA,2,"BCADKEJFIGH",NA,NA,"A (JV first)",NA,NA,"SS1","SS1",7,"J","Judginess","y8ii7g",1,"continue","",4483.91999985695,4481.20699999999,4483.91999985695,4483.91999985695,4481.20699999999,4483.91999985695,1,4483.91999985695,0,0,NA,"Click To Continue","Continue Button",1,"object-14","J","CFD-WF-036-023-H.jpeg",NA,"SUPTM05489"
"33",1689005884882,"10/07/2023 16:18:04",1689009484882,1,"10/07/2023 18:18:04",137495,33,"task-dwq4",NA,30599977,9085338,NA,"complete",NA,NA,"computer","Desktop or Laptop","Windows 10","Chrome 114.0.0.0","1536x864","1536x714",NA,NA,NA,"JV Task P2",11,"Anxious",132,"In",NA,2,"BCADKEJFIGH",NA,NA,"A (JV first)",NA,NA,"SS1","SS1",7,"J","Judginess","y8ii7g",1,"response","60",3598.357,4481.20699999999,4484.21999980926,3598.357,4481.20699999999,4484.21999980926,1,3598.357,885.862999809266,0,NA,"Slider","J",3,"object-18","J","CFD-WF-036-023-H.jpeg",NA,"SUPTM05489"
"34",1689005885846,"10/07/2023 16:18:05",1689009485846,1,"10/07/2023 18:18:05",137495,33,"task-dwq4",NA,30599977,9085338,NA,"complete",NA,NA,"computer","Desktop or Laptop","Windows 10","Chrome 114.0.0.0","1536x864","1536x714",NA,NA,NA,"JV Task P2",11,"Anxious",132,"In",NA,2,"BCADKEJFIGH",NA,NA,"A (JV first)",NA,NA,"SS1","SS1",7,"J","Fixation","w9zir9",2,"continue","",966.145000000004,966.145000000004,966.145000000004,966.145000000004,966.145000000004,966.145000000004,1,966.145000000004,0,0,NA,"Fixation Timing","Fixation",1,"object-65","J","CFD-WF-036-023-H.jpeg",NA,"SUPTM05489"
"35",1689005889217,"10/07/2023 16:18:09",1689009489217,1,"10/07/2023 18:18:09",137495,33,"task-dwq4",NA,30599977,9085338,NA,"complete",NA,NA,"computer","Desktop or Laptop","Windows 10","Chrome 114.0.0.0","1536x864","1536x714",NA,NA,NA,"JV Task P2",11,"Anxious",132,"In",NA,2,"BCADKEJFIGH",NA,NA,"A (JV first)",NA,NA,"SS1","SS1",5,"V","Valence","xyoebq",1,"continue","",3371.36799980926,3364.803,3371.36799980926,3371.36799980926,3364.803,3371.36799980926,1,3371.36799980926,0,0,NA,"Click To Continue","Continue Button",1,"object-25","V","CFD-WF-027-003-N.jpg",NA,"SUPTM05489"
"36",1689005889217,"10/07/2023 16:18:09",1689009489217,1,"10/07/2023 18:18:09",137495,33,"task-dwq4",NA,30599977,9085338,NA,"complete",NA,NA,"computer","Desktop or Laptop","Windows 10","Chrome 114.0.0.0","1536x864","1536x714",NA,NA,NA,"JV Task P2",11,"Anxious",132,"In",NA,2,"BCADKEJFIGH",NA,NA,"A (JV first)",NA,NA,"SS1","SS1",5,"V","Valence","xyoebq",1,"response","61",2865.016,3364.803,3371.668,2865.016,3364.803,3371.668,1,2865.016,506.652000000002,0,NA,"Slider","J",3,"object-27","V","CFD-WF-027-003-N.jpg",NA,"SUPTM05489"
"37",1689005890177,"10/07/2023 16:18:10",1689009490177,1,"10/07/2023 18:18:10",137495,33,"task-dwq4",NA,30599977,9085338,NA,"complete",NA,NA,"computer","Desktop or Laptop","Windows 10","Chrome 114.0.0.0","1536x864","1536x714",NA,NA,NA,"JV Task P2",11,"Anxious",132,"In",NA,2,"BCADKEJFIGH",NA,NA,"A (JV first)",NA,NA,"SS1","SS1",5,"V","Fixation","68owkj",2,"continue","",966.161,966.161,966.161,966.161,966.161,966.161,1,966.161,0,0,NA,"Fixation Timing","Fixation",1,"object-21","V","CFD-WF-027-003-N.jpg",NA,"SUPTM05489"
"38",1689005893655,"10/07/2023 16:18:13",1689009493655,1,"10/07/2023 18:18:13",137495,33,"task-dwq4",NA,30599977,9085338,NA,"complete",NA,NA,"computer","Desktop or Laptop","Windows 10","Chrome 114.0.0.0","1536x864","1536x714",NA,NA,NA,"JV Task P2",11,"Anxious",132,"In",NA,2,"BCADKEJFIGH",NA,NA,"A (JV first)",NA,NA,"SS1","SS1",6,"V","Valence","xyoebq",1,"continue","",3478.90399980926,3464.433,3478.90399980926,3478.90399980926,3464.433,3478.90399980926,1,3478.90399980926,0,0,NA,"Click To Continue","Continue Button",1,"object-25","V","CFD-WM-037-025-H.jpeg",NA,"SUPTM05489"
"39",1689005893656,"10/07/2023 16:18:13",1689009493656,1,"10/07/2023 18:18:13",137495,33,"task-dwq4",NA,30599977,9085338,NA,"complete",NA,NA,"computer","Desktop or Laptop","Windows 10","Chrome 114.0.0.0","1536x864","1536x714",NA,NA,NA,"JV Task P2",11,"Anxious",132,"In",NA,2,"BCADKEJFIGH",NA,NA,"A (JV first)",NA,NA,"SS1","SS1",6,"V","Valence","xyoebq",1,"response","75",1198.952,3464.433,3479.30399990463,1198.952,3464.433,3479.30399990463,1,1198.952,2280.35199990463,0,NA,"Slider","J",3,"object-27","V","CFD-WM-037-025-H.jpeg",NA,"SUPTM05489"
"40",1689005894608,"10/07/2023 16:18:14",1689009494608,1,"10/07/2023 18:18:14",137495,33,"task-dwq4",NA,30599977,9085338,NA,"complete",NA,NA,"computer","Desktop or Laptop","Windows 10","Chrome 114.0.0.0","1536x864","1536x714",NA,NA,NA,"JV Task P2",11,"Anxious",132,"In",NA,2,"BCADKEJFIGH",NA,NA,"A (JV first)",NA,NA,"SS1","SS1",6,"V","Fixation","68owkj",2,"continue","",966.442000000003,966.442000000003,966.442000000003,966.442000000003,966.442000000003,966.442000000003,1,966.442000000003,0,0,NA,"Fixation Timing","Fixation",1,"object-21","V","CFD-WM-037-025-H.jpeg",NA,"SUPTM05489"
"41",1689005897300,"10/07/2023 16:18:17",1689009497300,1,"10/07/2023 18:18:17",137495,33,"task-dwq4",NA,30599977,9085338,NA,"complete",NA,NA,"computer","Desktop or Laptop","Windows 10","Chrome 114.0.0.0","1536x864","1536x714",NA,NA,NA,"JV Task P2",11,"Anxious",132,"In",NA,2,"BCADKEJFIGH",NA,NA,"A (JV first)",NA,NA,"SS1","SS1",8,"J","Judginess","y8ii7g",1,"continue","",2693.22899985695,2681.506,2693.22899985695,2693.22899985695,2681.506,2693.22899985695,1,2693.22899985695,0,0,NA,"Click To Continue","Continue Button",1,"object-14","J","CFD-BM-016-036-N.jpg",NA,"SUPTM05489"
"42",1689005897302,"10/07/2023 16:18:17",1689009497302,1,"10/07/2023 18:18:17",137495,33,"task-dwq4",NA,30599977,9085338,NA,"complete",NA,NA,"computer","Desktop or Laptop","Windows 10","Chrome 114.0.0.0","1536x864","1536x714",NA,NA,NA,"JV Task P2",11,"Anxious",132,"In",NA,2,"BCADKEJFIGH",NA,NA,"A (JV first)",NA,NA,"SS1","SS1",8,"J","Judginess","y8ii7g",1,"response","43",1865.357,2681.506,2695.329,1865.357,2681.506,2695.329,1,1865.357,829.972000000002,0,NA,"Slider","J",3,"object-18","J","CFD-BM-016-036-N.jpg",NA,"SUPTM05489"
"43",1689005898256,"10/07/2023 16:18:18",1689009498256,1,"10/07/2023 18:18:18",137495,33,"task-dwq4",NA,30599977,9085338,NA,"complete",NA,NA,"computer","Desktop or Laptop","Windows 10","Chrome 114.0.0.0","1536x864","1536x714",NA,NA,NA,"JV Task P2",11,"Anxious",132,"In",NA,2,"BCADKEJFIGH",NA,NA,"A (JV first)",NA,NA,"SS1","SS1",8,"J","Fixation","w9zir9",2,"continue","",966.484999999993,966.484999999993,966.484999999993,966.484999999993,966.484999999993,966.484999999993,1,966.484999999993,0,0,NA,"Fixation Timing","Fixation",1,"object-65","J","CFD-BM-016-036-N.jpg",NA,"SUPTM05489"
"44",1689005900388,"10/07/2023 16:18:20",1689009500388,1,"10/07/2023 18:18:20",137495,33,"task-dwq4",NA,30599977,9085338,NA,"complete",NA,NA,"computer","Desktop or Laptop","Windows 10","Chrome 114.0.0.0","1536x864","1536x714",NA,NA,NA,"JV Task P2",11,"Anxious",132,"In",NA,2,"BCADKEJFIGH",NA,NA,"A (JV first)",NA,NA,"SS1","SS1",9,"J","Judginess","y8ii7g",1,"continue","",2132.05700000001,2115.31800000001,2132.05700000001,2132.05700000001,2115.31800000001,2132.05700000001,1,2132.05700000001,0,0,NA,"Click To Continue","Continue Button",1,"object-14","J","CFD-WF-017-003-N.jpg",NA,"SUPTM05489"
"45",1689005900388,"10/07/2023 16:18:20",1689009500388,1,"10/07/2023 18:18:20",137495,33,"task-dwq4",NA,30599977,9085338,NA,"complete",NA,NA,"computer","Desktop or Laptop","Windows 10","Chrome 114.0.0.0","1536x864","1536x714",NA,NA,NA,"JV Task P2",11,"Anxious",132,"In",NA,2,"BCADKEJFIGH",NA,NA,"A (JV first)",NA,NA,"SS1","SS1",9,"J","Judginess","y8ii7g",1,"response","45",1565.50900000001,2115.31800000001,2132.05700000001,1565.50900000001,2115.31800000001,2132.05700000001,1,1565.50900000001,566.548000000003,0,NA,"Slider","J",3,"object-18","J","CFD-WF-017-003-N.jpg",NA,"SUPTM05489"
"46",1689005901337,"10/07/2023 16:18:21",1689009501337,1,"10/07/2023 18:18:21",137495,33,"task-dwq4",NA,30599977,9085338,NA,"complete",NA,NA,"computer","Desktop or Laptop","Windows 10","Chrome 114.0.0.0","1536x864","1536x714",NA,NA,NA,"JV Task P2",11,"Anxious",132,"In",NA,2,"BCADKEJFIGH",NA,NA,"A (JV first)",NA,NA,"SS1","SS1",9,"J","Fixation","w9zir9",2,"continue","",966.317999999999,966.317999999999,966.317999999999,966.317999999999,966.317999999999,966.317999999999,1,966.317999999999,0,0,NA,"Fixation Timing","Fixation",1,"object-65","J","CFD-WF-017-003-N.jpg",NA,"SUPTM05489"
"47",1689005905458,"10/07/2023 16:18:25",1689009505458,1,"10/07/2023 18:18:25",137495,33,"task-dwq4",NA,30599977,9085338,NA,"complete",NA,NA,"computer","Desktop or Laptop","Windows 10","Chrome 114.0.0.0","1536x864","1536x714",NA,NA,NA,"JV Task P2",11,"Anxious",132,"In",NA,2,"BCADKEJFIGH",NA,NA,"A (JV first)",NA,NA,"SS1","SS1",7,"V","Valence","xyoebq",1,"continue","",4120.60199985695,4114.136,4120.60199985695,4120.60199985695,4114.136,4120.60199985695,1,4120.60199985695,0,0,NA,"Click To Continue","Continue Button",1,"object-25","V","CFD-WF-009-001-N.jpg",NA,"SUPTM05489"
"48",1689005905458,"10/07/2023 16:18:25",1689009505458,1,"10/07/2023 18:18:25",137495,33,"task-dwq4",NA,30599977,9085338,NA,"complete",NA,NA,"computer","Desktop or Laptop","Windows 10","Chrome 114.0.0.0","1536x864","1536x714",NA,NA,NA,"JV Task P2",11,"Anxious",132,"In",NA,2,"BCADKEJFIGH",NA,NA,"A (JV first)",NA,NA,"SS1","SS1",7,"V","Valence","xyoebq",1,"response","39",3131.70499999999,4114.136,4121.202,3131.70499999999,4114.136,4121.202,1,3131.70499999999,989.497000000003,0,NA,"Slider","J",3,"object-27","V","CFD-WF-009-001-N.jpg",NA,"SUPTM05489"
"49",1689005906418,"10/07/2023 16:18:26",1689009506418,1,"10/07/2023 18:18:26",137495,33,"task-dwq4",NA,30599977,9085338,NA,"complete",NA,NA,"computer","Desktop or Laptop","Windows 10","Chrome 114.0.0.0","1536x864","1536x714",NA,NA,NA,"JV Task P2",11,"Anxious",132,"In",NA,2,"BCADKEJFIGH",NA,NA,"A (JV first)",NA,NA,"SS1","SS1",7,"V","Fixation","68owkj",2,"continue","",966.004999999997,966.004999999997,966.004999999997,966.004999999997,966.004999999997,966.004999999997,1,966.004999999997,0,0,NA,"Fixation Timing","Fixation",1,"object-21","V","CFD-WF-009-001-N.jpg",NA,"SUPTM05489"
"50",1689005910135,"10/07/2023 16:18:30",1689009510135,1,"10/07/2023 18:18:30",137495,33,"task-dwq4",NA,30599977,9085338,NA,"complete",NA,NA,"computer","Desktop or Laptop","Windows 10","Chrome 114.0.0.0","1536x864","1536x714",NA,NA,NA,"JV Task P2",11,"Anxious",132,"In",NA,2,"BCADKEJFIGH",NA,NA,"A (JV first)",NA,NA,"SS1","SS1",10,"J","Judginess","y8ii7g",1,"continue","",3717.66099990463,3714.999,3717.66099990463,3717.66099990463,3714.999,3717.66099990463,1,3717.66099990463,0,0,NA,"Click To Continue","Continue Button",1,"object-14","J","CFD-IF-693-172-H.jpeg",NA,"SUPTM05489"
"51",1689005910138,"10/07/2023 16:18:30",1689009510138,1,"10/07/2023 18:18:30",137495,33,"task-dwq4",NA,30599977,9085338,NA,"complete",NA,NA,"computer","Desktop or Laptop","Windows 10","Chrome 114.0.0.0","1536x864","1536x714",NA,NA,NA,"JV Task P2",11,"Anxious",132,"In",NA,2,"BCADKEJFIGH",NA,NA,"A (JV first)",NA,NA,"SS1","SS1",10,"J","Judginess","y8ii7g",1,"response","63",2382.428,3714.999,3721.061,2382.428,3714.999,3721.061,1,2382.428,1338.633,0,NA,"Slider","J",3,"object-18","J","CFD-IF-693-172-H.jpeg",NA,"SUPTM05489"
"52",1689005911098,"10/07/2023 16:18:31",1689009511098,1,"10/07/2023 18:18:31",137495,33,"task-dwq4",NA,30599977,9085338,NA,"complete",NA,NA,"computer","Desktop or Laptop","Windows 10","Chrome 114.0.0.0","1536x864","1536x714",NA,NA,NA,"JV Task P2",11,"Anxious",132,"In",NA,2,"BCADKEJFIGH",NA,NA,"A (JV first)",NA,NA,"SS1","SS1",10,"J","Fixation","w9zir9",2,"continue","",965.813000000009,965.813000000009,965.813000000009,965.813000000009,965.813000000009,965.813000000009,1,965.813000000009,0,0,NA,"Fixation Timing","Fixation",1,"object-65","J","CFD-IF-693-172-H.jpeg",NA,"SUPTM05489"
"53",1689005915181,"10/07/2023 16:18:35",1689009515181,1,"10/07/2023 18:18:35",137495,33,"task-dwq4",NA,30599977,9085338,NA,"complete",NA,NA,"computer","Desktop or Laptop","Windows 10","Chrome 114.0.0.0","1536x864","1536x714",NA,NA,NA,"JV Task P2",11,"Anxious",132,"In",NA,2,"BCADKEJFIGH",NA,NA,"A (JV first)",NA,NA,"SS1","SS1",8,"V","Valence","xyoebq",1,"continue","",4083.44899980926,4081.11,4083.44899980926,4083.44899980926,4081.11,4083.44899980926,1,4083.44899980926,0,0,NA,"Click To Continue","Continue Button",1,"object-25","V","CFD-WF-022-017-N.jpg",NA,"SUPTM05489"
"54",1689005915182,"10/07/2023 16:18:35",1689009515182,1,"10/07/2023 18:18:35",137495,33,"task-dwq4",NA,30599977,9085338,NA,"complete",NA,NA,"computer","Desktop or Laptop","Windows 10","Chrome 114.0.0.0","1536x864","1536x714",NA,NA,NA,"JV Task P2",11,"Anxious",132,"In",NA,2,"BCADKEJFIGH",NA,NA,"A (JV first)",NA,NA,"SS1","SS1",8,"V","Valence","xyoebq",1,"response","53",3664.75999999999,4081.11,4083.84899990463,3664.75999999999,4081.11,4083.84899990463,1,3664.75999999999,419.088999904634,0,NA,"Slider","J",3,"object-27","V","CFD-WF-022-017-N.jpg",NA,"SUPTM05489"
"55",1689005916146,"10/07/2023 16:18:36",1689009516146,1,"10/07/2023 18:18:36",137495,33,"task-dwq4",NA,30599977,9085338,NA,"complete",NA,NA,"computer","Desktop or Laptop","Windows 10","Chrome 114.0.0.0","1536x864","1536x714",NA,NA,NA,"JV Task P2",11,"Anxious",132,"In",NA,2,"BCADKEJFIGH",NA,NA,"A (JV first)",NA,NA,"SS1","SS1",8,"V","Fixation","68owkj",2,"continue","",966.498999999996,966.498999999996,966.498999999996,966.498999999996,966.498999999996,966.498999999996,1,966.498999999996,0,0,NA,"Fixation Timing","Fixation",1,"object-21","V","CFD-WF-022-017-N.jpg",NA,"SUPTM05489"
"56",1689005919747,"10/07/2023 16:18:39",1689009519747,1,"10/07/2023 18:18:39",137495,33,"task-dwq4",NA,30599977,9085338,NA,"complete",NA,NA,"computer","Desktop or Laptop","Windows 10","Chrome 114.0.0.0","1536x864","1536x714",NA,NA,NA,"JV Task P2",11,"Anxious",132,"In",NA,2,"BCADKEJFIGH",NA,NA,"A (JV first)",NA,NA,"SS1","SS1",9,"V","Valence","xyoebq",1,"continue","",3601.64,3597.98299999999,3601.64,3601.64,3597.98299999999,3601.64,1,3601.64,0,0,NA,"Click To Continue","Continue Button",1,"object-25","V","CFD-WF-011-002-N.jpg",NA,"SUPTM05489"
"57",1689005919747,"10/07/2023 16:18:39",1689009519747,1,"10/07/2023 18:18:39",137495,33,"task-dwq4",NA,30599977,9085338,NA,"complete",NA,NA,"computer","Desktop or Laptop","Windows 10","Chrome 114.0.0.0","1536x864","1536x714",NA,NA,NA,"JV Task P2",11,"Anxious",132,"In",NA,2,"BCADKEJFIGH",NA,NA,"A (JV first)",NA,NA,"SS1","SS1",9,"V","Valence","xyoebq",1,"response","52",2448.609,3597.98299999999,3601.83999980926,2448.609,3597.98299999999,3601.83999980926,1,2448.609,1153.23099980927,0,NA,"Slider","J",3,"object-27","V","CFD-WF-011-002-N.jpg",NA,"SUPTM05489"
"58",1689005920710,"10/07/2023 16:18:40",1689009520710,1,"10/07/2023 18:18:40",137495,33,"task-dwq4",NA,30599977,9085338,NA,"complete",NA,NA,"computer","Desktop or Laptop","Windows 10","Chrome 114.0.0.0","1536x864","1536x714",NA,NA,NA,"JV Task P2",11,"Anxious",132,"In",NA,2,"BCADKEJFIGH",NA,NA,"A (JV first)",NA,NA,"SS1","SS1",9,"V","Fixation","68owkj",2,"continue","",966.141000000003,966.141000000003,966.141000000003,966.141000000003,966.141000000003,966.141000000003,1,966.141000000003,0,0,NA,"Fixation Timing","Fixation",1,"object-21","V","CFD-WF-011-002-N.jpg",NA,"SUPTM05489"
"59",1689005923290,"10/07/2023 16:18:43",1689009523290,1,"10/07/2023 18:18:43",137495,33,"task-dwq4",NA,30599977,9085338,NA,"complete",NA,NA,"computer","Desktop or Laptop","Windows 10","Chrome 114.0.0.0","1536x864","1536x714",NA,NA,NA,"JV Task P2",11,"Anxious",132,"In",NA,2,"BCADKEJFIGH",NA,NA,"A (JV first)",NA,NA,"SS1","SS1",11,"J","Judginess","y8ii7g",1,"continue","",2580.61599990464,2565.268,2580.61599990464,2580.61599990464,2565.268,2580.61599990464,1,2580.61599990464,0,0,NA,"Click To Continue","Continue Button",1,"object-14","J","CFD-WF-039-025-N.jpg",NA,"SUPTM05489"
"60",1689005923290,"10/07/2023 16:18:43",1689009523290,1,"10/07/2023 18:18:43",137495,33,"task-dwq4",NA,30599977,9085338,NA,"complete",NA,NA,"computer","Desktop or Laptop","Windows 10","Chrome 114.0.0.0","1536x864","1536x714",NA,NA,NA,"JV Task P2",11,"Anxious",132,"In",NA,2,"BCADKEJFIGH",NA,NA,"A (JV first)",NA,NA,"SS1","SS1",11,"J","Judginess","y8ii7g",1,"response","37",1882.04700000001,2565.268,2580.91599985695,1882.04700000001,2565.268,2580.91599985695,1,1882.04700000001,698.868999856946,0,NA,"Slider","J",3,"object-18","J","CFD-WF-039-025-N.jpg",NA,"SUPTM05489"
"61",1689005924241,"10/07/2023 16:18:44",1689009524241,1,"10/07/2023 18:18:44",137495,33,"task-dwq4",NA,30599977,9085338,NA,"complete",NA,NA,"computer","Desktop or Laptop","Windows 10","Chrome 114.0.0.0","1536x864","1536x714",NA,NA,NA,"JV Task P2",11,"Anxious",132,"In",NA,2,"BCADKEJFIGH",NA,NA,"A (JV first)",NA,NA,"SS1","SS1",11,"J","Fixation","w9zir9",2,"continue","",966.124000000011,966.124000000011,966.124000000011,966.124000000011,966.124000000011,966.124000000011,1,966.124000000011,0,0,NA,"Fixation Timing","Fixation",1,"object-65","J","CFD-WF-039-025-N.jpg",NA,"SUPTM05489"
"62",1689005929959,"10/07/2023 16:18:49",1689009529959,1,"10/07/2023 18:18:49",137495,33,"task-dwq4",NA,30599977,9085338,NA,"complete",NA,NA,"computer","Desktop or Laptop","Windows 10","Chrome 114.0.0.0","1536x864","1536x714",NA,NA,NA,"JV Task P2",11,"Anxious",132,"In",NA,2,"BCADKEJFIGH",NA,NA,"A (JV first)",NA,NA,"SS1","SS1",12,"J","Judginess","y8ii7g",1,"continue","",5718.52399985695,5713.52899999999,5718.52399985695,5718.52399985695,5713.52899999999,5718.52399985695,1,5718.52399985695,0,0,NA,"Click To Continue","Continue Button",1,"object-14","J","CFD-WF-012-002-H.jpeg",NA,"SUPTM05489"
"63",1689005929960,"10/07/2023 16:18:49",1689009529960,1,"10/07/2023 18:18:49",137495,33,"task-dwq4",NA,30599977,9085338,NA,"complete",NA,NA,"computer","Desktop or Laptop","Windows 10","Chrome 114.0.0.0","1536x864","1536x714",NA,NA,NA,"JV Task P2",11,"Anxious",132,"In",NA,2,"BCADKEJFIGH",NA,NA,"A (JV first)",NA,NA,"SS1","SS1",12,"J","Judginess","y8ii7g",1,"response","64",2198.51699999999,5713.52899999999,5718.72399990463,2198.51699999999,5713.52899999999,5718.72399990463,1,2198.51699999999,3520.20699990464,0,NA,"Slider","J",3,"object-18","J","CFD-WF-012-002-H.jpeg",NA,"SUPTM05489"
"64",1689005930921,"10/07/2023 16:18:50",1689009530921,1,"10/07/2023 18:18:50",137495,33,"task-dwq4",NA,30599977,9085338,NA,"complete",NA,NA,"computer","Desktop or Laptop","Windows 10","Chrome 114.0.0.0","1536x864","1536x714",NA,NA,NA,"JV Task P2",11,"Anxious",132,"In",NA,2,"BCADKEJFIGH",NA,NA,"A (JV first)",NA,NA,"SS1","SS1",12,"J","Fixation","w9zir9",2,"continue","",965.831000000006,965.831000000006,965.831000000006,965.831000000006,965.831000000006,965.831000000006,1,965.831000000006,0,0,NA,"Fixation Timing","Fixation",1,"object-65","J","CFD-WF-012-002-H.jpeg",NA,"SUPTM05489"
"65",1689005935165,"10/07/2023 16:18:55",1689009535165,1,"10/07/2023 18:18:55",137495,33,"task-dwq4",NA,30599977,9085338,NA,"complete",NA,NA,"computer","Desktop or Laptop","Windows 10","Chrome 114.0.0.0","1536x864","1536x714",NA,NA,NA,"JV Task P2",11,"Anxious",132,"In",NA,2,"BCADKEJFIGH",NA,NA,"A (JV first)",NA,NA,"SS1","SS1",10,"V","Valence","xyoebq",1,"continue","",4245.264,4231.44499999999,4245.264,4245.264,4231.44499999999,4245.264,1,4245.264,0,0,NA,"Click To Continue","Continue Button",1,"object-25","V","CFD-WF-006-002-S.jpeg",NA,"SUPTM05489"
"66",1689005935166,"10/07/2023 16:18:55",1689009535166,1,"10/07/2023 18:18:55",137495,33,"task-dwq4",NA,30599977,9085338,NA,"complete",NA,NA,"computer","Desktop or Laptop","Windows 10","Chrome 114.0.0.0","1536x864","1536x714",NA,NA,NA,"JV Task P2",11,"Anxious",132,"In",NA,2,"BCADKEJFIGH",NA,NA,"A (JV first)",NA,NA,"SS1","SS1",10,"V","Valence","xyoebq",1,"response","38",3731.28999999999,4231.44499999999,4245.46399980926,3731.28999999999,4231.44499999999,4245.46399980926,1,3731.28999999999,514.173999809267,0,NA,"Slider","J",3,"object-27","V","CFD-WF-006-002-S.jpeg",NA,"SUPTM05489"
"67",1689005936118,"10/07/2023 16:18:56",1689009536118,1,"10/07/2023 18:18:56",137495,33,"task-dwq4",NA,30599977,9085338,NA,"complete",NA,NA,"computer","Desktop or Laptop","Windows 10","Chrome 114.0.0.0","1536x864","1536x714",NA,NA,NA,"JV Task P2",11,"Anxious",132,"In",NA,2,"BCADKEJFIGH",NA,NA,"A (JV first)",NA,NA,"SS1","SS1",10,"V","Fixation","68owkj",2,"continue","",965.991999999998,965.991999999998,965.991999999998,965.991999999998,965.991999999998,965.991999999998,1,965.991999999998,0,0,NA,"Fixation Timing","Fixation",1,"object-21","V","CFD-WF-006-002-S.jpeg",NA,"SUPTM05489"
"68",1689005942448,"10/07/2023 16:19:02",1689009542448,1,"10/07/2023 18:19:02",137495,33,"task-dwq4",NA,30599977,9085338,NA,"complete",NA,NA,"computer","Desktop or Laptop","Windows 10","Chrome 114.0.0.0","1536x864","1536x714",NA,NA,NA,"JV Task P2",11,"Anxious",132,"In",NA,2,"BCADKEJFIGH",NA,NA,"A (JV first)",NA,NA,"SS1","SS1",13,"J","Judginess","y8ii7g",1,"continue","",6323.62699995232,6312.92200000001,6323.62699995232,6323.62699995232,6312.92200000001,6323.62699995232,1,6323.62699995232,0,0,NA,"Click To Continue","Continue Button",1,"object-14","J","CFD-WM-037-025-N.jpg",NA,"SUPTM05489"
"69",1689005942450,"10/07/2023 16:19:02",1689009542450,1,"10/07/2023 18:19:02",137495,33,"task-dwq4",NA,30599977,9085338,NA,"complete",NA,NA,"computer","Desktop or Laptop","Windows 10","Chrome 114.0.0.0","1536x864","1536x714",NA,NA,NA,"JV Task P2",11,"Anxious",132,"In",NA,2,"BCADKEJFIGH",NA,NA,"A (JV first)",NA,NA,"SS1","SS1",13,"J","Judginess","y8ii7g",1,"response","40",4747.14200000001,6312.92200000001,6325.52699980927,4747.14200000001,6312.92200000001,6325.52699980927,1,4747.14200000001,1578.38499980926,0,NA,"Slider","J",3,"object-18","J","CFD-WM-037-025-N.jpg",NA,"SUPTM05489"
"70",1689005943405,"10/07/2023 16:19:03",1689009543405,1,"10/07/2023 18:19:03",137495,33,"task-dwq4",NA,30599977,9085338,NA,"complete",NA,NA,"computer","Desktop or Laptop","Windows 10","Chrome 114.0.0.0","1536x864","1536x714",NA,NA,NA,"JV Task P2",11,"Anxious",132,"In",NA,2,"BCADKEJFIGH",NA,NA,"A (JV first)",NA,NA,"SS1","SS1",13,"J","Fixation","w9zir9",2,"continue","",966.434999999998,966.434999999998,966.434999999998,966.434999999998,966.434999999998,966.434999999998,1,966.434999999998,0,0,NA,"Fixation Timing","Fixation",1,"object-65","J","CFD-WM-037-025-N.jpg",NA,"SUPTM05489"
"71",1689005946120,"10/07/2023 16:19:06",1689009546120,1,"10/07/2023 18:19:06",137495,33,"task-dwq4",NA,30599977,9085338,NA,"complete",NA,NA,"computer","Desktop or Laptop","Windows 10","Chrome 114.0.0.0","1536x864","1536x714",NA,NA,NA,"JV Task P2",11,"Anxious",132,"In",NA,2,"BCADKEJFIGH",NA,NA,"A (JV first)",NA,NA,"SS1","SS1",11,"V","Valence","xyoebq",1,"continue","",2715.86999985695,2714.81,2715.86999985695,2715.86999985695,2714.81,2715.86999985695,1,2715.86999985695,0,0,NA,"Click To Continue","Continue Button",1,"object-25","V","CFD-MM-313-002-S.jpeg",NA,"SUPTM05489"
"72",1689005946120,"10/07/2023 16:19:06",1689009546120,1,"10/07/2023 18:19:06",137495,33,"task-dwq4",NA,30599977,9085338,NA,"complete",NA,NA,"computer","Desktop or Laptop","Windows 10","Chrome 114.0.0.0","1536x864","1536x714",NA,NA,NA,"JV Task P2",11,"Anxious",132,"In",NA,2,"BCADKEJFIGH",NA,NA,"A (JV first)",NA,NA,"SS1","SS1",11,"V","Valence","xyoebq",1,"response","35",2215.125,2714.81,2716.16999980927,2215.125,2714.81,2716.16999980927,1,2215.125,501.044999809266,0,NA,"Slider","J",3,"object-27","V","CFD-MM-313-002-S.jpeg",NA,"SUPTM05489"
"73",1689005947086,"10/07/2023 16:19:07",1689009547086,1,"10/07/2023 18:19:07",137495,33,"task-dwq4",NA,30599977,9085338,NA,"complete",NA,NA,"computer","Desktop or Laptop","Windows 10","Chrome 114.0.0.0","1536x864","1536x714",NA,NA,NA,"JV Task P2",11,"Anxious",132,"In",NA,2,"BCADKEJFIGH",NA,NA,"A (JV first)",NA,NA,"SS1","SS1",11,"V","Fixation","68owkj",2,"continue","",966.486000000004,966.486000000004,966.486000000004,966.486000000004,966.486000000004,966.486000000004,1,966.486000000004,0,0,NA,"Fixation Timing","Fixation",1,"object-21","V","CFD-MM-313-002-S.jpeg",NA,"SUPTM05489"
"74",1689005950894,"10/07/2023 16:19:10",1689009550894,1,"10/07/2023 18:19:10",137495,33,"task-dwq4",NA,30599977,9085338,NA,"complete",NA,NA,"computer","Desktop or Laptop","Windows 10","Chrome 114.0.0.0","1536x864","1536x714",NA,NA,NA,"JV Task P2",11,"Anxious",132,"In",NA,2,"BCADKEJFIGH",NA,NA,"A (JV first)",NA,NA,"SS1","SS1",12,"V","Valence","xyoebq",1,"continue","",3808.37399980926,3797.916,3808.37399980926,3808.37399980926,3797.916,3808.37399980926,1,3808.37399980926,0,0,NA,"Click To Continue","Continue Button",1,"object-25","V","CFD-MF-315-002-N.jpg",NA,"SUPTM05489"
"75",1689005950894,"10/07/2023 16:19:10",1689009550894,1,"10/07/2023 18:19:10",137495,33,"task-dwq4",NA,30599977,9085338,NA,"complete",NA,NA,"computer","Desktop or Laptop","Windows 10","Chrome 114.0.0.0","1536x864","1536x714",NA,NA,NA,"JV Task P2",11,"Anxious",132,"In",NA,2,"BCADKEJFIGH",NA,NA,"A (JV first)",NA,NA,"SS1","SS1",12,"V","Valence","xyoebq",1,"response","40",3381.48,3797.916,3808.97399995232,3381.48,3797.916,3808.97399995232,1,3381.48,427.493999952319,0,NA,"Slider","J",3,"object-27","V","CFD-MF-315-002-N.jpg",NA,"SUPTM05489"
"76",1689005951850,"10/07/2023 16:19:11",1689009551850,1,"10/07/2023 18:19:11",137495,33,"task-dwq4",NA,30599977,9085338,NA,"complete",NA,NA,"computer","Desktop or Laptop","Windows 10","Chrome 114.0.0.0","1536x864","1536x714",NA,NA,NA,"JV Task P2",11,"Anxious",132,"In",NA,2,"BCADKEJFIGH",NA,NA,"A (JV first)",NA,NA,"SS1","SS1",12,"V","Fixation","68owkj",2,"continue","",965.775999999998,965.775999999998,965.775999999998,965.775999999998,965.775999999998,965.775999999998,1,965.775999999998,0,0,NA,"Fixation Timing","Fixation",1,"object-21","V","CFD-MF-315-002-N.jpg",NA,"SUPTM05489"
"77",1689005954372,"10/07/2023 16:19:14",1689009554372,1,"10/07/2023 18:19:14",137495,33,"task-dwq4",NA,30599977,9085338,NA,"complete",NA,NA,"computer","Desktop or Laptop","Windows 10","Chrome 114.0.0.0","1536x864","1536x714",NA,NA,NA,"JV Task P2",11,"Anxious",132,"In",NA,2,"BCADKEJFIGH",NA,NA,"A (JV first)",NA,NA,"SS1","SS1",13,"V","Valence","xyoebq",1,"continue","",2522.78199995232,2515.338,2522.78199995232,2522.78199995232,2515.338,2522.78199995232,1,2522.78199995232,0,0,NA,"Click To Continue","Continue Button",1,"object-25","V","CFD-AM-225-102-S.jpeg",NA,"SUPTM05489"
"78",1689005954374,"10/07/2023 16:19:14",1689009554374,1,"10/07/2023 18:19:14",137495,33,"task-dwq4",NA,30599977,9085338,NA,"complete",NA,NA,"computer","Desktop or Laptop","Windows 10","Chrome 114.0.0.0","1536x864","1536x714",NA,NA,NA,"JV Task P2",11,"Anxious",132,"In",NA,2,"BCADKEJFIGH",NA,NA,"A (JV first)",NA,NA,"SS1","SS1",13,"V","Valence","xyoebq",1,"response","30",2048.928,2515.338,2525.58199990464,2048.928,2515.338,2525.58199990464,1,2048.928,476.653999904636,0,NA,"Slider","J",3,"object-27","V","CFD-AM-225-102-S.jpeg",NA,"SUPTM05489"
"79",1689005955331,"10/07/2023 16:19:15",1689009555331,1,"10/07/2023 18:19:15",137495,33,"task-dwq4",NA,30599977,9085338,NA,"complete",NA,NA,"computer","Desktop or Laptop","Windows 10","Chrome 114.0.0.0","1536x864","1536x714",NA,NA,NA,"JV Task P2",11,"Anxious",132,"In",NA,2,"BCADKEJFIGH",NA,NA,"A (JV first)",NA,NA,"SS1","SS1",13,"V","Fixation","68owkj",2,"continue","",966.111999999994,966.111999999994,966.111999999994,966.111999999994,966.111999999994,966.111999999994,1,966.111999999994,0,0,NA,"Fixation Timing","Fixation",1,"object-21","V","CFD-AM-225-102-S.jpeg",NA,"SUPTM05489"
"80",1689005959633,"10/07/2023 16:19:19",1689009559633,1,"10/07/2023 18:19:19",137495,33,"task-dwq4",NA,30599977,9085338,NA,"complete",NA,NA,"computer","Desktop or Laptop","Windows 10","Chrome 114.0.0.0","1536x864","1536x714",NA,NA,NA,"JV Task P2",11,"Anxious",132,"In",NA,2,"BCADKEJFIGH",NA,NA,"A (JV first)",NA,NA,"SS1","SS1",14,"V","Valence","xyoebq",1,"continue","",4303.03200000001,4297.97500000001,4303.03200000001,4303.03200000001,4297.97500000001,4303.03200000001,1,4303.03200000001,0,0,NA,"Click To Continue","Continue Button",1,"object-25","V","CFD-BF-029-031-N.jpg",NA,"SUPTM05489"
"81",1689005959634,"10/07/2023 16:19:19",1689009559634,1,"10/07/2023 18:19:19",137495,33,"task-dwq4",NA,30599977,9085338,NA,"complete",NA,NA,"computer","Desktop or Laptop","Windows 10","Chrome 114.0.0.0","1536x864","1536x714",NA,NA,NA,"JV Task P2",11,"Anxious",132,"In",NA,2,"BCADKEJFIGH",NA,NA,"A (JV first)",NA,NA,"SS1","SS1",14,"V","Valence","xyoebq",1,"response","24",1515.94900000001,4297.97500000001,4303.43199985696,1515.94900000001,4297.97500000001,4303.43199985696,1,1515.94900000001,2787.48299985695,0,NA,"Slider","J",3,"object-27","V","CFD-BF-029-031-N.jpg",NA,"SUPTM05489"
"82",1689005960595,"10/07/2023 16:19:20",1689009560595,1,"10/07/2023 18:19:20",137495,33,"task-dwq4",NA,30599977,9085338,NA,"complete",NA,NA,"computer","Desktop or Laptop","Windows 10","Chrome 114.0.0.0","1536x864","1536x714",NA,NA,NA,"JV Task P2",11,"Anxious",132,"In",NA,2,"BCADKEJFIGH",NA,NA,"A (JV first)",NA,NA,"SS1","SS1",14,"V","Fixation","68owkj",2,"continue","",965.907000000007,965.907000000007,965.907000000007,965.907000000007,965.907000000007,965.907000000007,1,965.907000000007,0,0,NA,"Fixation Timing","Fixation",1,"object-21","V","CFD-BF-029-031-N.jpg",NA,"SUPTM05489"
"83",1689005963615,"10/07/2023 16:19:23",1689009563615,1,"10/07/2023 18:19:23",137495,33,"task-dwq4",NA,30599977,9085338,NA,"complete",NA,NA,"computer","Desktop or Laptop","Windows 10","Chrome 114.0.0.0","1536x864","1536x714",NA,NA,NA,"JV Task P2",11,"Anxious",132,"In",NA,2,"BCADKEJFIGH",NA,NA,"A (JV first)",NA,NA,"SS1","SS1",14,"J","Judginess","y8ii7g",1,"continue","",3021.04999985694,3015.105,3021.04999985694,3021.04999985694,3015.105,3021.04999985694,1,3021.04999985694,0,0,NA,"Click To Continue","Continue Button",1,"object-14","J","CFD-WM-026-001-N.jpg",NA,"SUPTM05489"
"84",1689005963616,"10/07/2023 16:19:23",1689009563616,1,"10/07/2023 18:19:23",137495,33,"task-dwq4",NA,30599977,9085338,NA,"complete",NA,NA,"computer","Desktop or Laptop","Windows 10","Chrome 114.0.0.0","1536x864","1536x714",NA,NA,NA,"JV Task P2",11,"Anxious",132,"In",NA,2,"BCADKEJFIGH",NA,NA,"A (JV first)",NA,NA,"SS1","SS1",14,"J","Judginess","y8ii7g",1,"response","34",2631.864,3015.105,3021.54999985694,2631.864,3015.105,3021.54999985694,1,2631.864,389.685999856942,0,NA,"Slider","J",3,"object-18","J","CFD-WM-026-001-N.jpg",NA,"SUPTM05489"
"85",1689005964576,"10/07/2023 16:19:24",1689009564576,1,"10/07/2023 18:19:24",137495,33,"task-dwq4",NA,30599977,9085338,NA,"complete",NA,NA,"computer","Desktop or Laptop","Windows 10","Chrome 114.0.0.0","1536x864","1536x714",NA,NA,NA,"JV Task P2",11,"Anxious",132,"In",NA,2,"BCADKEJFIGH",NA,NA,"A (JV first)",NA,NA,"SS1","SS1",14,"J","Fixation","w9zir9",2,"continue","",966.266999999993,966.266999999993,966.266999999993,966.266999999993,966.266999999993,966.266999999993,1,966.266999999993,0,0,NA,"Fixation Timing","Fixation",1,"object-65","J","CFD-WM-026-001-N.jpg",NA,"SUPTM05489"
"86",1689005968069,"10/07/2023 16:19:28",1689009568069,1,"10/07/2023 18:19:28",137495,33,"task-dwq4",NA,30599977,9085338,NA,"complete",NA,NA,"computer","Desktop or Laptop","Windows 10","Chrome 114.0.0.0","1536x864","1536x714",NA,NA,NA,"JV Task P2",11,"Anxious",132,"In",NA,2,"BCADKEJFIGH",NA,NA,"A (JV first)",NA,NA,"SS1","SS1",15,"V","Valence","xyoebq",1,"continue","",3493.67799985695,3481.409,3493.67799985695,3493.67799985695,3481.409,3493.67799985695,1,3493.67799985695,0,0,NA,"Click To Continue","Continue Button",1,"object-25","V","CFD-WM-019-003-H.jpeg",NA,"SUPTM05489"
"87",1689005968070,"10/07/2023 16:19:28",1689009568070,1,"10/07/2023 18:19:28",137495,33,"task-dwq4",NA,30599977,9085338,NA,"complete",NA,NA,"computer","Desktop or Laptop","Windows 10","Chrome 114.0.0.0","1536x864","1536x714",NA,NA,NA,"JV Task P2",11,"Anxious",132,"In",NA,2,"BCADKEJFIGH",NA,NA,"A (JV first)",NA,NA,"SS1","SS1",15,"V","Valence","xyoebq",1,"response","70",2015.24500000001,3481.409,3494.17799985695,2015.24500000001,3481.409,3494.17799985695,1,2015.24500000001,1478.93299985694,0,NA,"Slider","J",3,"object-27","V","CFD-WM-019-003-H.jpeg",NA,"SUPTM05489"
"88",1689005969023,"10/07/2023 16:19:29",1689009569023,1,"10/07/2023 18:19:29",137495,33,"task-dwq4",NA,30599977,9085338,NA,"complete",NA,NA,"computer","Desktop or Laptop","Windows 10","Chrome 114.0.0.0","1536x864","1536x714",NA,NA,NA,"JV Task P2",11,"Anxious",132,"In",NA,2,"BCADKEJFIGH",NA,NA,"A (JV first)",NA,NA,"SS1","SS1",15,"V","Fixation","68owkj",2,"continue","",965.919000000009,965.919000000009,965.919000000009,965.919000000009,965.919000000009,965.919000000009,1,965.919000000009,0,0,NA,"Fixation Timing","Fixation",1,"object-21","V","CFD-WM-019-003-H.jpeg",NA,"SUPTM05489"
"89",1689005972379,"10/07/2023 16:19:32",1689009572379,1,"10/07/2023 18:19:32",137495,33,"task-dwq4",NA,30599977,9085338,NA,"complete",NA,NA,"computer","Desktop or Laptop","Windows 10","Chrome 114.0.0.0","1536x864","1536x714",NA,NA,NA,"JV Task P2",11,"Anxious",132,"In",NA,2,"BCADKEJFIGH",NA,NA,"A (JV first)",NA,NA,"SS1","SS1",16,"V","Valence","xyoebq",1,"continue","",3355.64999980926,3348.02099999999,3355.64999980926,3355.64999980926,3348.02099999999,3355.64999980926,1,3355.64999980926,0,0,NA,"Click To Continue","Continue Button",1,"object-25","V","CFD-BM-045-004-S.jpeg",NA,"SUPTM05489"
"90",1689005972379,"10/07/2023 16:19:32",1689009572379,1,"10/07/2023 18:19:32",137495,33,"task-dwq4",NA,30599977,9085338,NA,"complete",NA,NA,"computer","Desktop or Laptop","Windows 10","Chrome 114.0.0.0","1536x864","1536x714",NA,NA,NA,"JV Task P2",11,"Anxious",132,"In",NA,2,"BCADKEJFIGH",NA,NA,"A (JV first)",NA,NA,"SS1","SS1",16,"V","Valence","xyoebq",1,"response","24",2298.92999999999,3348.02099999999,3355.95,2298.92999999999,3348.02099999999,3355.95,1,2298.92999999999,1057.02,0,NA,"Slider","J",3,"object-27","V","CFD-BM-045-004-S.jpeg",NA,"SUPTM05489"
"91",1689005973337,"10/07/2023 16:19:33",1689009573337,1,"10/07/2023 18:19:33",137495,33,"task-dwq4",NA,30599977,9085338,NA,"complete",NA,NA,"computer","Desktop or Laptop","Windows 10","Chrome 114.0.0.0","1536x864","1536x714",NA,NA,NA,"JV Task P2",11,"Anxious",132,"In",NA,2,"BCADKEJFIGH",NA,NA,"A (JV first)",NA,NA,"SS1","SS1",16,"V","Fixation","68owkj",2,"continue","",966.141000000003,966.141000000003,966.141000000003,966.141000000003,966.141000000003,966.141000000003,1,966.141000000003,0,0,NA,"Fixation Timing","Fixation",1,"object-21","V","CFD-BM-045-004-S.jpeg",NA,"SUPTM05489"
"92",1689005977169,"10/07/2023 16:19:37",1689009577169,1,"10/07/2023 18:19:37",137495,33,"task-dwq4",NA,30599977,9085338,NA,"complete",NA,NA,"computer","Desktop or Laptop","Windows 10","Chrome 114.0.0.0","1536x864","1536x714",NA,NA,NA,"JV Task P2",11,"Anxious",132,"In",NA,2,"BCADKEJFIGH",NA,NA,"A (JV first)",NA,NA,"SS1","SS1",15,"J","Judginess","y8ii7g",1,"continue","",3831.42299999998,3814.69899999999,3831.42299999998,3831.42299999998,3814.69899999999,3831.42299999998,1,3831.42299999998,0,0,NA,"Click To Continue","Continue Button",1,"object-14","J","CFD-WM-026-001-N.jpg",NA,"SUPTM05489"
"93",1689005977172,"10/07/2023 16:19:37",1689009577172,1,"10/07/2023 18:19:37",137495,33,"task-dwq4",NA,30599977,9085338,NA,"complete",NA,NA,"computer","Desktop or Laptop","Windows 10","Chrome 114.0.0.0","1536x864","1536x714",NA,NA,NA,"JV Task P2",11,"Anxious",132,"In",NA,2,"BCADKEJFIGH",NA,NA,"A (JV first)",NA,NA,"SS1","SS1",15,"J","Judginess","y8ii7g",1,"response","33",3032.00200000001,3814.69899999999,3831.42299999998,3032.00200000001,3814.69899999999,3831.42299999998,1,3032.00200000001,799.420999999973,0,NA,"Slider","J",3,"object-18","J","CFD-WM-026-001-N.jpg",NA,"SUPTM05489"
"94",1689005978119,"10/07/2023 16:19:38",1689009578119,1,"10/07/2023 18:19:38",137495,33,"task-dwq4",NA,30599977,9085338,NA,"complete",NA,NA,"computer","Desktop or Laptop","Windows 10","Chrome 114.0.0.0","1536x864","1536x714",NA,NA,NA,"JV Task P2",11,"Anxious",132,"In",NA,2,"BCADKEJFIGH",NA,NA,"A (JV first)",NA,NA,"SS1","SS1",15,"J","Fixation","w9zir9",2,"continue","",966.371000000014,966.371000000014,966.371000000014,966.371000000014,966.371000000014,966.371000000014,1,966.371000000014,0,0,NA,"Fixation Timing","Fixation",1,"object-65","J","CFD-WM-026-001-N.jpg",NA,"SUPTM05489"
"95",1689005981823,"10/07/2023 16:19:41",1689009581823,1,"10/07/2023 18:19:41",137495,33,"task-dwq4",NA,30599977,9085338,NA,"complete",NA,NA,"computer","Desktop or Laptop","Windows 10","Chrome 114.0.0.0","1536x864","1536x714",NA,NA,NA,"JV Task P2",11,"Anxious",132,"In",NA,2,"BCADKEJFIGH",NA,NA,"A (JV first)",NA,NA,"SS1","SS1",16,"J","Judginess","y8ii7g",1,"continue","",3704.71799999999,3697.64499999999,3704.71799999999,3704.71799999999,3697.64499999999,3704.71799999999,1,3704.71799999999,0,0,NA,"Click To Continue","Continue Button",1,"object-14","J","CFD-WF-011-002-S.jpeg",NA,"SUPTM05489"
"96",1689005981823,"10/07/2023 16:19:41",1689009581823,1,"10/07/2023 18:19:41",137495,33,"task-dwq4",NA,30599977,9085338,NA,"complete",NA,NA,"computer","Desktop or Laptop","Windows 10","Chrome 114.0.0.0","1536x864","1536x714",NA,NA,NA,"JV Task P2",11,"Anxious",132,"In",NA,2,"BCADKEJFIGH",NA,NA,"A (JV first)",NA,NA,"SS1","SS1",16,"J","Judginess","y8ii7g",1,"response","56",1532.16,3697.64499999999,3705.11799985694,1532.16,3697.64499999999,3705.11799985694,1,1532.16,2172.95799985694,0,NA,"Slider","J",3,"object-18","J","CFD-WF-011-002-S.jpeg",NA,"SUPTM05489"
"97",1689005982782,"10/07/2023 16:19:42",1689009582782,1,"10/07/2023 18:19:42",137495,33,"task-dwq4",NA,30599977,9085338,NA,"complete",NA,NA,"computer","Desktop or Laptop","Windows 10","Chrome 114.0.0.0","1536x864","1536x714",NA,NA,NA,"JV Task P2",11,"Anxious",132,"In",NA,2,"BCADKEJFIGH",NA,NA,"A (JV first)",NA,NA,"SS1","SS1",16,"J","Fixation","w9zir9",2,"continue","",966.097999999998,966.097999999998,966.097999999998,966.097999999998,966.097999999998,966.097999999998,1,966.097999999998,0,0,NA,"Fixation Timing","Fixation",1,"object-65","J","CFD-WF-011-002-S.jpeg",NA,"SUPTM05489"
"98",1689005985654,"10/07/2023 16:19:45",1689009585654,1,"10/07/2023 18:19:45",137495,33,"task-dwq4",NA,30599977,9085338,NA,"complete",NA,NA,"computer","Desktop or Laptop","Windows 10","Chrome 114.0.0.0","1536x864","1536x714",NA,NA,NA,"JV Task P2",11,"Anxious",132,"In",NA,2,"BCADKEJFIGH",NA,NA,"A (JV first)",NA,NA,"SS1","SS1",17,"J","Judginess","y8ii7g",1,"continue","",2872.27499995232,2865.44,2872.27499995232,2872.27499995232,2865.44,2872.27499995232,1,2872.27499995232,0,0,NA,"Click To Continue","Continue Button",1,"object-14","J","CFD-IF-734-108-S.jpeg",NA,"SUPTM05489"
"99",1689005985655,"10/07/2023 16:19:45",1689009585655,1,"10/07/2023 18:19:45",137495,33,"task-dwq4",NA,30599977,9085338,NA,"complete",NA,NA,"computer","Desktop or Laptop","Windows 10","Chrome 114.0.0.0","1536x864","1536x714",NA,NA,NA,"JV Task P2",11,"Anxious",132,"In",NA,2,"BCADKEJFIGH",NA,NA,"A (JV first)",NA,NA,"SS1","SS1",17,"J","Judginess","y8ii7g",1,"response","62",1682.47100000002,2865.44,2872.87499985695,1682.47100000002,2865.44,2872.87499985695,1,1682.47100000002,1190.40399985694,0,NA,"Slider","J",3,"object-18","J","CFD-IF-734-108-S.jpeg",NA,"SUPTM05489"
"100",1689005986614,"10/07/2023 16:19:46",1689009586614,1,"10/07/2023 18:19:46",137495,33,"task-dwq4",NA,30599977,9085338,NA,"complete",NA,NA,"computer","Desktop or Laptop","Windows 10","Chrome 114.0.0.0","1536x864","1536x714",NA,NA,NA,"JV Task P2",11,"Anxious",132,"In",NA,2,"BCADKEJFIGH",NA,NA,"A (JV first)",NA,NA,"SS1","SS1",17,"J","Fixation","w9zir9",2,"continue","",966.089999999997,966.089999999997,966.089999999997,966.089999999997,966.089999999997,966.089999999997,1,966.089999999997,0,0,NA,"Fixation Timing","Fixation",1,"object-65","J","CFD-IF-734-108-S.jpeg",NA,"SUPTM05489"
"101",1689005990060,"10/07/2023 16:19:50",1689009590060,1,"10/07/2023 18:19:50",137495,33,"task-dwq4",NA,30599977,9085338,NA,"complete",NA,NA,"computer","Desktop or Laptop","Windows 10","Chrome 114.0.0.0","1536x864","1536x714",NA,NA,NA,"JV Task P2",11,"Anxious",132,"In",NA,2,"BCADKEJFIGH",NA,NA,"A (JV first)",NA,NA,"SS1","SS1",17,"V","Valence","xyoebq",1,"continue","",3446.74499995232,3431.20300000001,3446.74499995232,3446.74499995232,3431.20300000001,3446.74499995232,1,3446.74499995232,0,0,NA,"Click To Continue","Continue Button",1,"object-25","V","CFD-BF-029-031-S.jpeg",NA,"SUPTM05489"
"102",1689005990064,"10/07/2023 16:19:50",1689009590064,1,"10/07/2023 18:19:50",137495,33,"task-dwq4",NA,30599977,9085338,NA,"complete",NA,NA,"computer","Desktop or Laptop","Windows 10","Chrome 114.0.0.0","1536x864","1536x714",NA,NA,NA,"JV Task P2",11,"Anxious",132,"In",NA,2,"BCADKEJFIGH",NA,NA,"A (JV first)",NA,NA,"SS1","SS1",17,"V","Valence","xyoebq",1,"response","21",2614.95600000001,3431.20300000001,3447.875,2614.95600000001,3431.20300000001,3447.875,1,2614.95600000001,832.918999999994,0,NA,"Slider","J",3,"object-27","V","CFD-BF-029-031-S.jpeg",NA,"SUPTM05489"
"103",1689005991012,"10/07/2023 16:19:51",1689009591012,1,"10/07/2023 18:19:51",137495,33,"task-dwq4",NA,30599977,9085338,NA,"complete",NA,NA,"computer","Desktop or Laptop","Windows 10","Chrome 114.0.0.0","1536x864","1536x714",NA,NA,NA,"JV Task P2",11,"Anxious",132,"In",NA,2,"BCADKEJFIGH",NA,NA,"A (JV first)",NA,NA,"SS1","SS1",17,"V","Fixation","68owkj",2,"continue","",966.124000000011,966.124000000011,966.124000000011,966.124000000011,966.124000000011,966.124000000011,1,966.124000000011,0,0,NA,"Fixation Timing","Fixation",1,"object-21","V","CFD-BF-029-031-S.jpeg",NA,"SUPTM05489"
"104",1689005993491,"10/07/2023 16:19:53",1689009593491,1,"10/07/2023 18:19:53",137495,33,"task-dwq4",NA,30599977,9085338,NA,"complete",NA,NA,"computer","Desktop or Laptop","Windows 10","Chrome 114.0.0.0","1536x864","1536x714",NA,NA,NA,"JV Task P2",11,"Anxious",132,"In",NA,2,"BCADKEJFIGH",NA,NA,"A (JV first)",NA,NA,"SS1","SS1",18,"V","Valence","xyoebq",1,"continue","",2479.81799980925,2465.34999999998,2479.81799980925,2479.81799980925,2465.34999999998,2479.81799980925,1,2479.81799980925,0,0,NA,"Click To Continue","Continue Button",1,"object-25","V","CFD-AM-220-134-S.jpeg",NA,"SUPTM05489"
"105",1689005993491,"10/07/2023 16:19:53",1689009593491,1,"10/07/2023 18:19:53",137495,33,"task-dwq4",NA,30599977,9085338,NA,"complete",NA,NA,"computer","Desktop or Laptop","Windows 10","Chrome 114.0.0.0","1536x864","1536x714",NA,NA,NA,"JV Task P2",11,"Anxious",132,"In",NA,2,"BCADKEJFIGH",NA,NA,"A (JV first)",NA,NA,"SS1","SS1",18,"V","Valence","xyoebq",1,"response","19",1999.19999999998,2465.34999999998,2480.11799999999,1999.19999999998,2465.34999999998,2480.11799999999,1,1999.19999999998,480.918000000005,0,NA,"Slider","J",3,"object-27","V","CFD-AM-220-134-S.jpeg",NA,"SUPTM05489"
"106",1689005994443,"10/07/2023 16:19:54",1689009594443,1,"10/07/2023 18:19:54",137495,33,"task-dwq4",NA,30599977,9085338,NA,"complete",NA,NA,"computer","Desktop or Laptop","Windows 10","Chrome 114.0.0.0","1536x864","1536x714",NA,NA,NA,"JV Task P2",11,"Anxious",132,"In",NA,2,"BCADKEJFIGH",NA,NA,"A (JV first)",NA,NA,"SS1","SS1",18,"V","Fixation","68owkj",2,"continue","",966.054000000004,966.054000000004,966.054000000004,966.054000000004,966.054000000004,966.054000000004,1,966.054000000004,0,0,NA,"Fixation Timing","Fixation",1,"object-21","V","CFD-AM-220-134-S.jpeg",NA,"SUPTM05489"
"107",1689005997369,"10/07/2023 16:19:57",1689009597369,1,"10/07/2023 18:19:57",137495,33,"task-dwq4",NA,30599977,9085338,NA,"complete",NA,NA,"computer","Desktop or Laptop","Windows 10","Chrome 114.0.0.0","1536x864","1536x714",NA,NA,NA,"JV Task P2",11,"Anxious",132,"In",NA,2,"BCADKEJFIGH",NA,NA,"A (JV first)",NA,NA,"SS1","SS1",18,"J","Judginess","y8ii7g",1,"continue","",2926.81399990464,2915.39999999999,2926.81399990464,2926.81399990464,2915.39999999999,2926.81399990464,1,2926.81399990464,0,0,NA,"Click To Continue","Continue Button",1,"object-14","J","CFD-WF-030-002-N.jpg",NA,"SUPTM05489"
"108",1689005997370,"10/07/2023 16:19:57",1689009597370,1,"10/07/2023 18:19:57",137495,33,"task-dwq4",NA,30599977,9085338,NA,"complete",NA,NA,"computer","Desktop or Laptop","Windows 10","Chrome 114.0.0.0","1536x864","1536x714",NA,NA,NA,"JV Task P2",11,"Anxious",132,"In",NA,2,"BCADKEJFIGH",NA,NA,"A (JV first)",NA,NA,"SS1","SS1",18,"J","Judginess","y8ii7g",1,"response","33",2399.00100000002,2915.39999999999,2927.51399995232,2399.00100000002,2915.39999999999,2927.51399995232,1,2399.00100000002,528.512999952305,0,NA,"Slider","J",3,"object-18","J","CFD-WF-030-002-N.jpg",NA,"SUPTM05489"
"109",1689005998324,"10/07/2023 16:19:58",1689009598324,1,"10/07/2023 18:19:58",137495,33,"task-dwq4",NA,30599977,9085338,NA,"complete",NA,NA,"computer","Desktop or Laptop","Windows 10","Chrome 114.0.0.0","1536x864","1536x714",NA,NA,NA,"JV Task P2",11,"Anxious",132,"In",NA,2,"BCADKEJFIGH",NA,NA,"A (JV first)",NA,NA,"SS1","SS1",18,"J","Fixation","w9zir9",2,"continue","",966.142000000022,966.142000000022,966.142000000022,966.142000000022,966.142000000022,966.142000000022,1,966.142000000022,0,0,NA,"Fixation Timing","Fixation",1,"object-65","J","CFD-WF-030-002-N.jpg",NA,"SUPTM05489"
"110",1689006001871,"10/07/2023 16:20:01",1689009601871,1,"10/07/2023 18:20:01",137495,33,"task-dwq4",NA,30599977,9085338,NA,"complete",NA,NA,"computer","Desktop or Laptop","Windows 10","Chrome 114.0.0.0","1536x864","1536x714",NA,NA,NA,"JV Task P2",11,"Anxious",132,"In",NA,2,"BCADKEJFIGH",NA,NA,"A (JV first)",NA,NA,"SS1","SS1",19,"J","Judginess","y8ii7g",1,"continue","",3547.47199995231,3531.39999999999,3547.47199995231,3547.47199995231,3531.39999999999,3547.47199995231,1,3547.47199995231,0,0,NA,"Click To Continue","Continue Button",1,"object-14","J","CFD-BM-028-002-N.jpg",NA,"SUPTM05489"
"111",1689006001874,"10/07/2023 16:20:01",1689009601874,1,"10/07/2023 18:20:01",137495,33,"task-dwq4",NA,30599977,9085338,NA,"complete",NA,NA,"computer","Desktop or Laptop","Windows 10","Chrome 114.0.0.0","1536x864","1536x714",NA,NA,NA,"JV Task P2",11,"Anxious",132,"In",NA,2,"BCADKEJFIGH",NA,NA,"A (JV first)",NA,NA,"SS1","SS1",19,"J","Judginess","y8ii7g",1,"response","33",3081.761,3531.39999999999,3548.06700000001,3081.761,3531.39999999999,3548.06700000001,1,3081.761,466.306000000011,0,NA,"Slider","J",3,"object-18","J","CFD-BM-028-002-N.jpg",NA,"SUPTM05489"
"112",1689006002829,"10/07/2023 16:20:02",1689009602829,1,"10/07/2023 18:20:02",137495,33,"task-dwq4",NA,30599977,9085338,NA,"complete",NA,NA,"computer","Desktop or Laptop","Windows 10","Chrome 114.0.0.0","1536x864","1536x714",NA,NA,NA,"JV Task P2",11,"Anxious",132,"In",NA,2,"BCADKEJFIGH",NA,NA,"A (JV first)",NA,NA,"SS1","SS1",19,"J","Fixation","w9zir9",2,"continue","",966.127000000008,966.127000000008,966.127000000008,966.127000000008,966.127000000008,966.127000000008,1,966.127000000008,0,0,NA,"Fixation Timing","Fixation",1,"object-65","J","CFD-BM-028-002-N.jpg",NA,"SUPTM05489"
"113",1689006005293,"10/07/2023 16:20:05",1689009605293,1,"10/07/2023 18:20:05",137495,33,"task-dwq4",NA,30599977,9085338,NA,"complete",NA,NA,"computer","Desktop or Laptop","Windows 10","Chrome 114.0.0.0","1536x864","1536x714",NA,NA,NA,"JV Task P2",11,"Anxious",132,"In",NA,2,"BCADKEJFIGH",NA,NA,"A (JV first)",NA,NA,"SS1","SS1",20,"J","Judginess","y8ii7g",1,"continue","",2463.84499980925,2448.65599999999,2463.84499980925,2463.84499980925,2448.65599999999,2463.84499980925,1,2463.84499980925,0,0,NA,"Click To Continue","Continue Button",1,"object-14","J","CFD-WM-037-025-N.jpg",NA,"SUPTM05489"
"114",1689006005293,"10/07/2023 16:20:05",1689009605293,1,"10/07/2023 18:20:05",137495,33,"task-dwq4",NA,30599977,9085338,NA,"complete",NA,NA,"computer","Desktop or Laptop","Windows 10","Chrome 114.0.0.0","1536x864","1536x714",NA,NA,NA,"JV Task P2",11,"Anxious",132,"In",NA,2,"BCADKEJFIGH",NA,NA,"A (JV first)",NA,NA,"SS1","SS1",20,"J","Judginess","y8ii7g",1,"response","38",1682.163,2448.65599999999,2464.34499980925,1682.163,2448.65599999999,2464.34499980925,1,1682.163,782.181999809254,0,NA,"Slider","J",3,"object-18","J","CFD-WM-037-025-N.jpg",NA,"SUPTM05489"
"115",1689006006244,"10/07/2023 16:20:06",1689009606244,1,"10/07/2023 18:20:06",137495,33,"task-dwq4",NA,30599977,9085338,NA,"complete",NA,NA,"computer","Desktop or Laptop","Windows 10","Chrome 114.0.0.0","1536x864","1536x714",NA,NA,NA,"JV Task P2",11,"Anxious",132,"In",NA,2,"BCADKEJFIGH",NA,NA,"A (JV first)",NA,NA,"SS1","SS1",20,"J","Fixation","w9zir9",2,"continue","",965.804999999993,965.804999999993,965.804999999993,965.804999999993,965.804999999993,965.804999999993,1,965.804999999993,0,0,NA,"Fixation Timing","Fixation",1,"object-65","J","CFD-WM-037-025-N.jpg",NA,"SUPTM05489"
"116",1689006009267,"10/07/2023 16:20:09",1689009609267,1,"10/07/2023 18:20:09",137495,33,"task-dwq4",NA,30599977,9085338,NA,"complete",NA,NA,"computer","Desktop or Laptop","Windows 10","Chrome 114.0.0.0","1536x864","1536x714",NA,NA,NA,"JV Task P2",11,"Anxious",132,"In",NA,2,"BCADKEJFIGH",NA,NA,"A (JV first)",NA,NA,"SS1","SS1",19,"V","Valence","xyoebq",1,"continue","",3023.68400000001,3015.06299999999,3023.68400000001,3023.68400000001,3015.06299999999,3023.68400000001,1,3023.68400000001,0,0,NA,"Click To Continue","Continue Button",1,"object-25","V","CFD-BM-045-004-N.jpg",NA,"SUPTM05489"
"117",1689006009267,"10/07/2023 16:20:09",1689009609267,1,"10/07/2023 18:20:09",137495,33,"task-dwq4",NA,30599977,9085338,NA,"complete",NA,NA,"computer","Desktop or Laptop","Windows 10","Chrome 114.0.0.0","1536x864","1536x714",NA,NA,NA,"JV Task P2",11,"Anxious",132,"In",NA,2,"BCADKEJFIGH",NA,NA,"A (JV first)",NA,NA,"SS1","SS1",19,"V","Valence","xyoebq",1,"response","32",2182.20200000002,3015.06299999999,3024.08399985696,2182.20200000002,3015.06299999999,3024.08399985696,1,2182.20200000002,841.881999856938,0,NA,"Slider","J",3,"object-27","V","CFD-BM-045-004-N.jpg",NA,"SUPTM05489"
"118",1689006010225,"10/07/2023 16:20:10",1689009610225,1,"10/07/2023 18:20:10",137495,33,"task-dwq4",NA,30599977,9085338,NA,"complete",NA,NA,"computer","Desktop or Laptop","Windows 10","Chrome 114.0.0.0","1536x864","1536x714",NA,NA,NA,"JV Task P2",11,"Anxious",132,"In",NA,2,"BCADKEJFIGH",NA,NA,"A (JV first)",NA,NA,"SS1","SS1",19,"V","Fixation","68owkj",2,"continue","",966.425000000017,966.425000000017,966.425000000017,966.425000000017,966.425000000017,966.425000000017,1,966.425000000017,0,0,NA,"Fixation Timing","Fixation",1,"object-21","V","CFD-BM-045-004-N.jpg",NA,"SUPTM05489"
"119",1689006012425,"10/07/2023 16:20:12",1689009612425,1,"10/07/2023 18:20:12",137495,33,"task-dwq4",NA,30599977,9085338,NA,"complete",NA,NA,"computer","Desktop or Laptop","Windows 10","Chrome 114.0.0.0","1536x864","1536x714",NA,NA,NA,"JV Task P2",11,"Anxious",132,"In",NA,2,"BCADKEJFIGH",NA,NA,"A (JV first)",NA,NA,"SS1","SS1",21,"J","Judginess","y8ii7g",1,"continue","",2200.196,2198.359,2200.196,2200.196,2198.359,2200.196,1,2200.196,0,0,NA,"Click To Continue","Continue Button",1,"object-14","J","CFD-IM-711-011-S.jpeg",NA,"SUPTM05489"
"120",1689006012427,"10/07/2023 16:20:12",1689009612427,1,"10/07/2023 18:20:12",137495,33,"task-dwq4",NA,30599977,9085338,NA,"complete",NA,NA,"computer","Desktop or Laptop","Windows 10","Chrome 114.0.0.0","1536x864","1536x714",NA,NA,NA,"JV Task P2",11,"Anxious",132,"In",NA,2,"BCADKEJFIGH",NA,NA,"A (JV first)",NA,NA,"SS1","SS1",21,"J","Judginess","y8ii7g",1,"response","58",1615.76300000001,2198.359,2202.696,1615.76300000001,2198.359,2202.696,1,1615.76300000001,586.93299999999,0,NA,"Slider","J",3,"object-18","J","CFD-IM-711-011-S.jpeg",NA,"SUPTM05489"
"121",1689006013390,"10/07/2023 16:20:13",1689009613390,1,"10/07/2023 18:20:13",137495,33,"task-dwq4",NA,30599977,9085338,NA,"complete",NA,NA,"computer","Desktop or Laptop","Windows 10","Chrome 114.0.0.0","1536x864","1536x714",NA,NA,NA,"JV Task P2",11,"Anxious",132,"In",NA,2,"BCADKEJFIGH",NA,NA,"A (JV first)",NA,NA,"SS1","SS1",21,"J","Fixation","w9zir9",2,"continue","",966.203000000009,966.203000000009,966.203000000009,966.203000000009,966.203000000009,966.203000000009,1,966.203000000009,0,0,NA,"Fixation Timing","Fixation",1,"object-65","J","CFD-IM-711-011-S.jpeg",NA,"SUPTM05489"
"122",1689006015856,"10/07/2023 16:20:15",1689009615856,1,"10/07/2023 18:20:15",137495,33,"task-dwq4",NA,30599977,9085338,NA,"complete",NA,NA,"computer","Desktop or Laptop","Windows 10","Chrome 114.0.0.0","1536x864","1536x714",NA,NA,NA,"JV Task P2",11,"Anxious",132,"In",NA,2,"BCADKEJFIGH",NA,NA,"A (JV first)",NA,NA,"SS1","SS1",20,"V","Valence","xyoebq",1,"continue","",2466.43399995231,2465.34299999999,2466.43399995231,2466.43399995231,2465.34299999999,2466.43399995231,1,2466.43399995231,0,0,NA,"Click To Continue","Continue Button",1,"object-25","V","CFD-WF-039-025-S.jpeg",NA,"SUPTM05489"
"123",1689006015856,"10/07/2023 16:20:15",1689009615856,1,"10/07/2023 18:20:15",137495,33,"task-dwq4",NA,30599977,9085338,NA,"complete",NA,NA,"computer","Desktop or Laptop","Windows 10","Chrome 114.0.0.0","1536x864","1536x714",NA,NA,NA,"JV Task P2",11,"Anxious",132,"In",NA,2,"BCADKEJFIGH",NA,NA,"A (JV first)",NA,NA,"SS1","SS1",20,"V","Valence","xyoebq",1,"response","38",1216.38999999998,2465.34299999999,2466.73399990462,1216.38999999998,2465.34299999999,2466.73399990462,1,1216.38999999998,1250.34399990464,0,NA,"Slider","J",3,"object-27","V","CFD-WF-039-025-S.jpeg",NA,"SUPTM05489"
"124",1689006016822,"10/07/2023 16:20:16",1689009616822,1,"10/07/2023 18:20:16",137495,33,"task-dwq4",NA,30599977,9085338,NA,"complete",NA,NA,"computer","Desktop or Laptop","Windows 10","Chrome 114.0.0.0","1536x864","1536x714",NA,NA,NA,"JV Task P2",11,"Anxious",132,"In",NA,2,"BCADKEJFIGH",NA,NA,"A (JV first)",NA,NA,"SS1","SS1",20,"V","Fixation","68owkj",2,"continue","",966.478000000003,966.478000000003,966.478000000003,966.478000000003,966.478000000003,966.478000000003,1,966.478000000003,0,0,NA,"Fixation Timing","Fixation",1,"object-21","V","CFD-WF-039-025-S.jpeg",NA,"SUPTM05489"
"125",1689006019415,"10/07/2023 16:20:19",1689009619415,1,"10/07/2023 18:20:19",137495,33,"task-dwq4",NA,30599977,9085338,NA,"complete",NA,NA,"computer","Desktop or Laptop","Windows 10","Chrome 114.0.0.0","1536x864","1536x714",NA,NA,NA,"JV Task P2",11,"Anxious",132,"In",NA,2,"BCADKEJFIGH",NA,NA,"A (JV first)",NA,NA,"SS1","SS1",21,"V","Valence","xyoebq",1,"continue","",2594.01299980926,2581.58299999998,2594.01299980926,2594.01299980926,2581.58299999998,2594.01299980926,1,2594.01299980926,0,0,NA,"Click To Continue","Continue Button",1,"object-25","V","CFD-BM-036-003-N.jpg",NA,"SUPTM05489"
"126",1689006019415,"10/07/2023 16:20:19",1689009619415,1,"10/07/2023 18:20:19",137495,33,"task-dwq4",NA,30599977,9085338,NA,"complete",NA,NA,"computer","Desktop or Laptop","Windows 10","Chrome 114.0.0.0","1536x864","1536x714",NA,NA,NA,"JV Task P2",11,"Anxious",132,"In",NA,2,"BCADKEJFIGH",NA,NA,"A (JV first)",NA,NA,"SS1","SS1",21,"V","Valence","xyoebq",1,"response","37",1665.72099999999,2581.58299999998,2594.41299990463,1665.72099999999,2581.58299999998,2594.41299990463,1,1665.72099999999,928.691999904637,0,NA,"Slider","J",3,"object-27","V","CFD-BM-036-003-N.jpg",NA,"SUPTM05489"
"127",1689006020370,"10/07/2023 16:20:20",1689009620370,1,"10/07/2023 18:20:20",137495,33,"task-dwq4",NA,30599977,9085338,NA,"complete",NA,NA,"computer","Desktop or Laptop","Windows 10","Chrome 114.0.0.0","1536x864","1536x714",NA,NA,NA,"JV Task P2",11,"Anxious",132,"In",NA,2,"BCADKEJFIGH",NA,NA,"A (JV first)",NA,NA,"SS1","SS1",21,"V","Fixation","68owkj",2,"continue","",966.453999999998,966.453999999998,966.453999999998,966.453999999998,966.453999999998,966.453999999998,1,966.453999999998,0,0,NA,"Fixation Timing","Fixation",1,"object-21","V","CFD-BM-036-003-N.jpg",NA,"SUPTM05489"
"128",1689006023397,"10/07/2023 16:20:23",1689009623397,1,"10/07/2023 18:20:23",137495,33,"task-dwq4",NA,30599977,9085338,NA,"complete",NA,NA,"computer","Desktop or Laptop","Windows 10","Chrome 114.0.0.0","1536x864","1536x714",NA,NA,NA,"JV Task P2",11,"Anxious",132,"In",NA,2,"BCADKEJFIGH",NA,NA,"A (JV first)",NA,NA,"SS1","SS1",22,"J","Judginess","y8ii7g",1,"continue","",3027.97599980928,3014.81400000001,3027.97599980928,3027.97599980928,3014.81400000001,3027.97599980928,1,3027.97599980928,0,0,NA,"Click To Continue","Continue Button",1,"object-14","J","CFD-WF-024-003-H.jpeg",NA,"SUPTM05489"
"129",1689006023400,"10/07/2023 16:20:23",1689009623400,1,"10/07/2023 18:20:23",137495,33,"task-dwq4",NA,30599977,9085338,NA,"complete",NA,NA,"computer","Desktop or Laptop","Windows 10","Chrome 114.0.0.0","1536x864","1536x714",NA,NA,NA,"JV Task P2",11,"Anxious",132,"In",NA,2,"BCADKEJFIGH",NA,NA,"A (JV first)",NA,NA,"SS1","SS1",22,"J","Judginess","y8ii7g",1,"response","70",1615.77100000001,3014.81400000001,3031.27600000001,1615.77100000001,3014.81400000001,3031.27600000001,1,1615.77100000001,1415.505,0,NA,"Slider","J",3,"object-18","J","CFD-WF-024-003-H.jpeg",NA,"SUPTM05489"
"130",1689006024351,"10/07/2023 16:20:24",1689009624351,1,"10/07/2023 18:20:24",137495,33,"task-dwq4",NA,30599977,9085338,NA,"complete",NA,NA,"computer","Desktop or Laptop","Windows 10","Chrome 114.0.0.0","1536x864","1536x714",NA,NA,NA,"JV Task P2",11,"Anxious",132,"In",NA,2,"BCADKEJFIGH",NA,NA,"A (JV first)",NA,NA,"SS1","SS1",22,"J","Fixation","w9zir9",2,"continue","",966.285000000003,966.285000000003,966.285000000003,966.285000000003,966.285000000003,966.285000000003,1,966.285000000003,0,0,NA,"Fixation Timing","Fixation",1,"object-65","J","CFD-WF-024-003-H.jpeg",NA,"SUPTM05489"
"131",1689006027180,"10/07/2023 16:20:27",1689009627180,1,"10/07/2023 18:20:27",137495,33,"task-dwq4",NA,30599977,9085338,NA,"complete",NA,NA,"computer","Desktop or Laptop","Windows 10","Chrome 114.0.0.0","1536x864","1536x714",NA,NA,NA,"JV Task P2",11,"Anxious",132,"In",NA,2,"BCADKEJFIGH",NA,NA,"A (JV first)",NA,NA,"SS1","SS1",22,"V","Valence","xyoebq",1,"continue","",2829.677,2814.82800000001,2829.677,2829.677,2814.82800000001,2829.677,1,2829.677,0,0,NA,"Click To Continue","Continue Button",1,"object-25","V","CFD-AM-225-102-N.jpg",NA,"SUPTM05489"
"132",1689006027180,"10/07/2023 16:20:27",1689009627180,1,"10/07/2023 18:20:27",137495,33,"task-dwq4",NA,30599977,9085338,NA,"complete",NA,NA,"computer","Desktop or Laptop","Windows 10","Chrome 114.0.0.0","1536x864","1536x714",NA,NA,NA,"JV Task P2",11,"Anxious",132,"In",NA,2,"BCADKEJFIGH",NA,NA,"A (JV first)",NA,NA,"SS1","SS1",22,"V","Valence","xyoebq",1,"response","45",2232.13999999998,2814.82800000001,2830.177,2232.13999999998,2814.82800000001,2830.177,1,2232.13999999998,598.037000000011,0,NA,"Slider","J",3,"object-27","V","CFD-AM-225-102-N.jpg",NA,"SUPTM05489"
"133",1689006028131,"10/07/2023 16:20:28",1689009628131,1,"10/07/2023 18:20:28",137495,33,"task-dwq4",NA,30599977,9085338,NA,"complete",NA,NA,"computer","Desktop or Laptop","Windows 10","Chrome 114.0.0.0","1536x864","1536x714",NA,NA,NA,"JV Task P2",11,"Anxious",132,"In",NA,2,"BCADKEJFIGH",NA,NA,"A (JV first)",NA,NA,"SS1","SS1",22,"V","Fixation","68owkj",2,"continue","",966.093999999983,966.093999999983,966.093999999983,966.093999999983,966.093999999983,966.093999999983,1,966.093999999983,0,0,NA,"Fixation Timing","Fixation",1,"object-21","V","CFD-AM-225-102-N.jpg",NA,"SUPTM05489"
"134",1689006030626,"10/07/2023 16:20:30",1689009630626,1,"10/07/2023 18:20:30",137495,33,"task-dwq4",NA,30599977,9085338,NA,"complete",NA,NA,"computer","Desktop or Laptop","Windows 10","Chrome 114.0.0.0","1536x864","1536x714",NA,NA,NA,"JV Task P2",11,"Anxious",132,"In",NA,2,"BCADKEJFIGH",NA,NA,"A (JV first)",NA,NA,"SS1","SS1",23,"V","Valence","xyoebq",1,"continue","",2494.45499980927,2482.02300000002,2494.45499980927,2494.45499980927,2482.02300000002,2494.45499980927,1,2494.45499980927,0,0,NA,"Click To Continue","Continue Button",1,"object-25","V","CFD-WM-009-002-H.jpeg",NA,"SUPTM05489"
"135",1689006030626,"10/07/2023 16:20:30",1689009630626,1,"10/07/2023 18:20:30",137495,33,"task-dwq4",NA,30599977,9085338,NA,"complete",NA,NA,"computer","Desktop or Laptop","Windows 10","Chrome 114.0.0.0","1536x864","1536x714",NA,NA,NA,"JV Task P2",11,"Anxious",132,"In",NA,2,"BCADKEJFIGH",NA,NA,"A (JV first)",NA,NA,"SS1","SS1",23,"V","Valence","xyoebq",1,"response","72",1749.41099999999,2482.02300000002,2494.95499980927,1749.41099999999,2482.02300000002,2494.95499980927,1,1749.41099999999,745.543999809277,0,NA,"Slider","J",3,"object-27","V","CFD-WM-009-002-H.jpeg",NA,"SUPTM05489"
"136",1689006031580,"10/07/2023 16:20:31",1689009631580,1,"10/07/2023 18:20:31",137495,33,"task-dwq4",NA,30599977,9085338,NA,"complete",NA,NA,"computer","Desktop or Laptop","Windows 10","Chrome 114.0.0.0","1536x864","1536x714",NA,NA,NA,"JV Task P2",11,"Anxious",132,"In",NA,2,"BCADKEJFIGH",NA,NA,"A (JV first)",NA,NA,"SS1","SS1",23,"V","Fixation","68owkj",2,"continue","",966.460999999981,966.460999999981,966.460999999981,966.460999999981,966.460999999981,966.460999999981,1,966.460999999981,0,0,NA,"Fixation Timing","Fixation",1,"object-21","V","CFD-WM-009-002-H.jpeg",NA,"SUPTM05489"
"137",1689006036879,"10/07/2023 16:20:36",1689009636879,1,"10/07/2023 18:20:36",137495,33,"task-dwq4",NA,30599977,9085338,NA,"complete",NA,NA,"computer","Desktop or Laptop","Windows 10","Chrome 114.0.0.0","1536x864","1536x714",NA,NA,NA,"JV Task P2",11,"Anxious",132,"In",NA,2,"BCADKEJFIGH",NA,NA,"A (JV first)",NA,NA,"SS1","SS1",23,"J","Judginess","y8ii7g",1,"continue","",5299.27100000001,5297.10000000001,5299.27100000001,5299.27100000001,5297.10000000001,5299.27100000001,1,5299.27100000001,0,0,NA,"Click To Continue","Continue Button",1,"object-14","J","CFD-WM-025-002-H.jpeg",NA,"SUPTM05489"
"138",1689006036882,"10/07/2023 16:20:36",1689009636882,1,"10/07/2023 18:20:36",137495,33,"task-dwq4",NA,30599977,9085338,NA,"complete",NA,NA,"computer","Desktop or Laptop","Windows 10","Chrome 114.0.0.0","1536x864","1536x714",NA,NA,NA,"JV Task P2",11,"Anxious",132,"In",NA,2,"BCADKEJFIGH",NA,NA,"A (JV first)",NA,NA,"SS1","SS1",23,"J","Judginess","y8ii7g",1,"response","64",4880.728,5297.10000000001,5302.47099980927,4880.728,5297.10000000001,5302.47099980927,1,4880.728,421.74299980927,0,NA,"Slider","J",3,"object-18","J","CFD-WM-025-002-H.jpeg",NA,"SUPTM05489"
"139",1689006037843,"10/07/2023 16:20:37",1689009637843,1,"10/07/2023 18:20:37",137495,33,"task-dwq4",NA,30599977,9085338,NA,"complete",NA,NA,"computer","Desktop or Laptop","Windows 10","Chrome 114.0.0.0","1536x864","1536x714",NA,NA,NA,"JV Task P2",11,"Anxious",132,"In",NA,2,"BCADKEJFIGH",NA,NA,"A (JV first)",NA,NA,"SS1","SS1",23,"J","Fixation","w9zir9",2,"continue","",966.113000000012,966.113000000012,966.113000000012,966.113000000012,966.113000000012,966.113000000012,1,966.113000000012,0,0,NA,"Fixation Timing","Fixation",1,"object-65","J","CFD-WM-025-002-H.jpeg",NA,"SUPTM05489"
"140",1689006040589,"10/07/2023 16:20:40",1689009640589,1,"10/07/2023 18:20:40",137495,33,"task-dwq4",NA,30599977,9085338,NA,"complete",NA,NA,"computer","Desktop or Laptop","Windows 10","Chrome 114.0.0.0","1536x864","1536x714",NA,NA,NA,"JV Task P2",11,"Anxious",132,"In",NA,2,"BCADKEJFIGH",NA,NA,"A (JV first)",NA,NA,"SS1","SS1",24,"J","Judginess","y8ii7g",1,"continue","",2746.65799990462,2731.823,2746.65799990462,2746.65799990462,2731.823,2746.65799990462,1,2746.65799990462,0,0,NA,"Click To Continue","Continue Button",1,"object-14","J","CFD-BF-008-001-H.jpeg",NA,"SUPTM05489"
"141",1689006040590,"10/07/2023 16:20:40",1689009640590,1,"10/07/2023 18:20:40",137495,33,"task-dwq4",NA,30599977,9085338,NA,"complete",NA,NA,"computer","Desktop or Laptop","Windows 10","Chrome 114.0.0.0","1536x864","1536x714",NA,NA,NA,"JV Task P2",11,"Anxious",132,"In",NA,2,"BCADKEJFIGH",NA,NA,"A (JV first)",NA,NA,"SS1","SS1",24,"J","Judginess","y8ii7g",1,"response","60",1898.723,2731.823,2746.85799995231,1898.723,2731.823,2746.85799995231,1,1898.723,848.134999952308,0,NA,"Slider","J",3,"object-18","J","CFD-BF-008-001-H.jpeg",NA,"SUPTM05489"
"142",1689006041541,"10/07/2023 16:20:41",1689009641541,1,"10/07/2023 18:20:41",137495,33,"task-dwq4",NA,30599977,9085338,NA,"complete",NA,NA,"computer","Desktop or Laptop","Windows 10","Chrome 114.0.0.0","1536x864","1536x714",NA,NA,NA,"JV Task P2",11,"Anxious",132,"In",NA,2,"BCADKEJFIGH",NA,NA,"A (JV first)",NA,NA,"SS1","SS1",24,"J","Fixation","w9zir9",2,"continue","",966.132999999973,966.132999999973,966.132999999973,966.132999999973,966.132999999973,966.132999999973,1,966.132999999973,0,0,NA,"Fixation Timing","Fixation",1,"object-65","J","CFD-BF-008-001-H.jpeg",NA,"SUPTM05489"
"143",1689006045739,"10/07/2023 16:20:45",1689009645739,1,"10/07/2023 18:20:45",137495,33,"task-dwq4",NA,30599977,9085338,NA,"complete",NA,NA,"computer","Desktop or Laptop","Windows 10","Chrome 114.0.0.0","1536x864","1536x714",NA,NA,NA,"JV Task P2",11,"Anxious",132,"In",NA,2,"BCADKEJFIGH",NA,NA,"A (JV first)",NA,NA,"SS1","SS1",25,"J","Judginess","y8ii7g",1,"continue","",4197.44200000001,4180.71600000001,4197.44200000001,4197.44200000001,4180.71600000001,4197.44200000001,1,4197.44200000001,0,0,NA,"Click To Continue","Continue Button",1,"object-14","J","CFD-WF-027-003-S.jpeg",NA,"SUPTM05489"
"144",1689006045739,"10/07/2023 16:20:45",1689009645739,1,"10/07/2023 18:20:45",137495,33,"task-dwq4",NA,30599977,9085338,NA,"complete",NA,NA,"computer","Desktop or Laptop","Windows 10","Chrome 114.0.0.0","1536x864","1536x714",NA,NA,NA,"JV Task P2",11,"Anxious",132,"In",NA,2,"BCADKEJFIGH",NA,NA,"A (JV first)",NA,NA,"SS1","SS1",25,"J","Judginess","y8ii7g",1,"response","38",3781.05000000002,4180.71600000001,4197.44200000001,3781.05000000002,4180.71600000001,4197.44200000001,1,3781.05000000002,416.391999999993,0,NA,"Slider","J",3,"object-18","J","CFD-WF-027-003-S.jpeg",NA,"SUPTM05489"
"145",1689006046689,"10/07/2023 16:20:46",1689009646689,1,"10/07/2023 18:20:46",137495,33,"task-dwq4",NA,30599977,9085338,NA,"complete",NA,NA,"computer","Desktop or Laptop","Windows 10","Chrome 114.0.0.0","1536x864","1536x714",NA,NA,NA,"JV Task P2",11,"Anxious",132,"In",NA,2,"BCADKEJFIGH",NA,NA,"A (JV first)",NA,NA,"SS1","SS1",25,"J","Fixation","w9zir9",2,"continue","",966.206999999995,966.206999999995,966.206999999995,966.206999999995,966.206999999995,966.206999999995,1,966.206999999995,0,0,NA,"Fixation Timing","Fixation",1,"object-65","J","CFD-WF-027-003-S.jpeg",NA,"SUPTM05489"
"146",1689006052297,"10/07/2023 16:20:52",1689009652297,1,"10/07/2023 18:20:52",137495,33,"task-dwq4",NA,30599977,9085338,NA,"complete",NA,NA,"computer","Desktop or Laptop","Windows 10","Chrome 114.0.0.0","1536x864","1536x714",NA,NA,NA,"JV Task P2",11,"Anxious",132,"In",NA,2,"BCADKEJFIGH",NA,NA,"A (JV first)",NA,NA,"SS1","SS1",26,"J","Judginess","y8ii7g",1,"continue","",5609.27899990464,5597.12599999999,5609.27899990464,5609.27899990464,5597.12599999999,5609.27899990464,1,5609.27899990464,0,0,NA,"Click To Continue","Continue Button",1,"object-14","J","CFD-MF-309-002-H.jpeg",NA,"SUPTM05489"
"147",1689006052301,"10/07/2023 16:20:52",1689009652301,1,"10/07/2023 18:20:52",137495,33,"task-dwq4",NA,30599977,9085338,NA,"complete",NA,NA,"computer","Desktop or Laptop","Windows 10","Chrome 114.0.0.0","1536x864","1536x714",NA,NA,NA,"JV Task P2",11,"Anxious",132,"In",NA,2,"BCADKEJFIGH",NA,NA,"A (JV first)",NA,NA,"SS1","SS1",26,"J","Judginess","y8ii7g",1,"response","60",4847.595,5597.12599999999,5613.179,4847.595,5597.12599999999,5613.179,1,4847.595,765.584000000003,0,NA,"Slider","J",3,"object-18","J","CFD-MF-309-002-H.jpeg",NA,"SUPTM05489"
"148",1689006053251,"10/07/2023 16:20:53",1689009653251,1,"10/07/2023 18:20:53",137495,33,"task-dwq4",NA,30599977,9085338,NA,"complete",NA,NA,"computer","Desktop or Laptop","Windows 10","Chrome 114.0.0.0","1536x864","1536x714",NA,NA,NA,"JV Task P2",11,"Anxious",132,"In",NA,2,"BCADKEJFIGH",NA,NA,"A (JV first)",NA,NA,"SS1","SS1",26,"J","Fixation","w9zir9",2,"continue","",965.974000000017,965.974000000017,965.974000000017,965.974000000017,965.974000000017,965.974000000017,1,965.974000000017,0,0,NA,"Fixation Timing","Fixation",1,"object-65","J","CFD-MF-309-002-H.jpeg",NA,"SUPTM05489"
"149",1689006057191,"10/07/2023 16:20:57",1689009657191,1,"10/07/2023 18:20:57",137495,33,"task-dwq4",NA,30599977,9085338,NA,"complete",NA,NA,"computer","Desktop or Laptop","Windows 10","Chrome 114.0.0.0","1536x864","1536x714",NA,NA,NA,"JV Task P2",11,"Anxious",132,"In",NA,2,"BCADKEJFIGH",NA,NA,"A (JV first)",NA,NA,"SS1","SS1",27,"J","Judginess","y8ii7g",1,"continue","",3939.87899995231,3931.04199999999,3939.87899995231,3939.87899995231,3931.04199999999,3939.87899995231,1,3939.87899995231,0,0,NA,"Click To Continue","Continue Button",1,"object-14","J","CFD-WM-035-032-N.jpg",NA,"SUPTM05489"
"150",1689006057191,"10/07/2023 16:20:57",1689009657191,1,"10/07/2023 18:20:57",137495,33,"task-dwq4",NA,30599977,9085338,NA,"complete",NA,NA,"computer","Desktop or Laptop","Windows 10","Chrome 114.0.0.0","1536x864","1536x714",NA,NA,NA,"JV Task P2",11,"Anxious",132,"In",NA,2,"BCADKEJFIGH",NA,NA,"A (JV first)",NA,NA,"SS1","SS1",27,"J","Judginess","y8ii7g",1,"response","39",2981.924,3931.04199999999,3940.27899980926,2981.924,3931.04199999999,3940.27899980926,1,2981.924,958.354999809264,0,NA,"Slider","J",3,"object-18","J","CFD-WM-035-032-N.jpg",NA,"SUPTM05489"
"151",1689006058149,"10/07/2023 16:20:58",1689009658149,1,"10/07/2023 18:20:58",137495,33,"task-dwq4",NA,30599977,9085338,NA,"complete",NA,NA,"computer","Desktop or Laptop","Windows 10","Chrome 114.0.0.0","1536x864","1536x714",NA,NA,NA,"JV Task P2",11,"Anxious",132,"In",NA,2,"BCADKEJFIGH",NA,NA,"A (JV first)",NA,NA,"SS1","SS1",27,"J","Fixation","w9zir9",2,"continue","",966.267000000022,966.267000000022,966.267000000022,966.267000000022,966.267000000022,966.267000000022,1,966.267000000022,0,0,NA,"Fixation Timing","Fixation",1,"object-65","J","CFD-WM-035-032-N.jpg",NA,"SUPTM05489"
"152",1689006062915,"10/07/2023 16:21:02",1689009662915,1,"10/07/2023 18:21:02",137495,33,"task-dwq4",NA,30599977,9085338,NA,"complete",NA,NA,"computer","Desktop or Laptop","Windows 10","Chrome 114.0.0.0","1536x864","1536x714",NA,NA,NA,"JV Task P2",11,"Anxious",132,"In",NA,2,"BCADKEJFIGH",NA,NA,"A (JV first)",NA,NA,"SS1","SS1",28,"J","Judginess","y8ii7g",1,"continue","",4759.56999995231,4747.27499999999,4759.56999995231,4759.56999995231,4747.27499999999,4759.56999995231,1,4759.56999995231,0,0,NA,"Click To Continue","Continue Button",1,"object-14","J","CFD-WM-035-032-H.jpeg",NA,"SUPTM05489"
"153",1689006062917,"10/07/2023 16:21:02",1689009662917,1,"10/07/2023 18:21:02",137495,33,"task-dwq4",NA,30599977,9085338,NA,"complete",NA,NA,"computer","Desktop or Laptop","Windows 10","Chrome 114.0.0.0","1536x864","1536x714",NA,NA,NA,"JV Task P2",11,"Anxious",132,"In",NA,2,"BCADKEJFIGH",NA,NA,"A (JV first)",NA,NA,"SS1","SS1",28,"J","Judginess","y8ii7g",1,"response","56",2898.552,4747.27499999999,4762.16999985694,2898.552,4747.27499999999,4762.16999985694,1,2898.552,1863.61799985694,0,NA,"Slider","J",3,"object-18","J","CFD-WM-035-032-H.jpeg",NA,"SUPTM05489"
"154",1689006063869,"10/07/2023 16:21:03",1689009663869,1,"10/07/2023 18:21:03",137495,33,"task-dwq4",NA,30599977,9085338,NA,"complete",NA,NA,"computer","Desktop or Laptop","Windows 10","Chrome 114.0.0.0","1536x864","1536x714",NA,NA,NA,"JV Task P2",11,"Anxious",132,"In",NA,2,"BCADKEJFIGH",NA,NA,"A (JV first)",NA,NA,"SS1","SS1",28,"J","Fixation","w9zir9",2,"continue","",966.141000000003,966.141000000003,966.141000000003,966.141000000003,966.141000000003,966.141000000003,1,966.141000000003,0,0,NA,"Fixation Timing","Fixation",1,"object-65","J","CFD-WM-035-032-H.jpeg",NA,"SUPTM05489"
"155",1689006068017,"10/07/2023 16:21:08",1689009668017,1,"10/07/2023 18:21:08",137495,33,"task-dwq4",NA,30599977,9085338,NA,"complete",NA,NA,"computer","Desktop or Laptop","Windows 10","Chrome 114.0.0.0","1536x864","1536x714",NA,NA,NA,"JV Task P2",11,"Anxious",132,"In",NA,2,"BCADKEJFIGH",NA,NA,"A (JV first)",NA,NA,"SS1","SS1",29,"J","Judginess","y8ii7g",1,"continue","",4147.82800000001,4131.13099999999,4147.82800000001,4147.82800000001,4131.13099999999,4147.82800000001,1,4147.82800000001,0,0,NA,"Click To Continue","Continue Button",1,"object-14","J","CFD-WM-034-030-H.jpeg",NA,"SUPTM05489"
"156",1689006068017,"10/07/2023 16:21:08",1689009668017,1,"10/07/2023 18:21:08",137495,33,"task-dwq4",NA,30599977,9085338,NA,"complete",NA,NA,"computer","Desktop or Laptop","Windows 10","Chrome 114.0.0.0","1536x864","1536x714",NA,NA,NA,"JV Task P2",11,"Anxious",132,"In",NA,2,"BCADKEJFIGH",NA,NA,"A (JV first)",NA,NA,"SS1","SS1",29,"J","Judginess","y8ii7g",1,"response","59",3048.435,4131.13099999999,4147.82800000001,3048.435,4131.13099999999,4147.82800000001,1,3048.435,1099.39300000001,0,NA,"Slider","J",3,"object-18","J","CFD-WM-034-030-H.jpeg",NA,"SUPTM05489"
"157",1689006068968,"10/07/2023 16:21:08",1689009668968,1,"10/07/2023 18:21:08",137495,33,"task-dwq4",NA,30599977,9085338,NA,"complete",NA,NA,"computer","Desktop or Laptop","Windows 10","Chrome 114.0.0.0","1536x864","1536x714",NA,NA,NA,"JV Task P2",11,"Anxious",132,"In",NA,2,"BCADKEJFIGH",NA,NA,"A (JV first)",NA,NA,"SS1","SS1",29,"J","Fixation","w9zir9",2,"continue","",966.111000000004,966.111000000004,966.111000000004,966.111000000004,966.111000000004,966.111000000004,1,966.111000000004,0,0,NA,"Fixation Timing","Fixation",1,"object-65","J","CFD-WM-034-030-H.jpeg",NA,"SUPTM05489"
"158",1689006074301,"10/07/2023 16:21:14",1689009674301,1,"10/07/2023 18:21:14",137495,33,"task-dwq4",NA,30599977,9085338,NA,"complete",NA,NA,"computer","Desktop or Laptop","Windows 10","Chrome 114.0.0.0","1536x864","1536x714",NA,NA,NA,"JV Task P2",11,"Anxious",132,"In",NA,2,"BCADKEJFIGH",NA,NA,"A (JV first)",NA,NA,"SS1","SS1",24,"V","Valence","xyoebq",1,"continue","",5335.71199990463,5330.70600000001,5335.71199990463,5335.71199990463,5330.70600000001,5335.71199990463,1,5335.71199990463,0,0,NA,"Click To Continue","Continue Button",1,"object-25","V","CFD-WM-026-001-H.jpeg",NA,"SUPTM05489"
"159",1689006074304,"10/07/2023 16:21:14",1689009674304,1,"10/07/2023 18:21:14",137495,33,"task-dwq4",NA,30599977,9085338,NA,"complete",NA,NA,"computer","Desktop or Laptop","Windows 10","Chrome 114.0.0.0","1536x864","1536x714",NA,NA,NA,"JV Task P2",11,"Anxious",132,"In",NA,2,"BCADKEJFIGH",NA,NA,"A (JV first)",NA,NA,"SS1","SS1",24,"V","Valence","xyoebq",1,"response","64",4630.78099999999,5330.70600000001,5338.71199990463,4630.78099999999,5330.70600000001,5338.71199990463,1,4630.78099999999,707.930999904638,0,NA,"Slider","J",3,"object-27","V","CFD-WM-026-001-H.jpeg",NA,"SUPTM05489"
"160",1689006075263,"10/07/2023 16:21:15",1689009675263,1,"10/07/2023 18:21:15",137495,33,"task-dwq4",NA,30599977,9085338,NA,"complete",NA,NA,"computer","Desktop or Laptop","Windows 10","Chrome 114.0.0.0","1536x864","1536x714",NA,NA,NA,"JV Task P2",11,"Anxious",132,"In",NA,2,"BCADKEJFIGH",NA,NA,"A (JV first)",NA,NA,"SS1","SS1",24,"V","Fixation","68owkj",2,"continue","",965.851999999984,965.851999999984,965.851999999984,965.851999999984,965.851999999984,965.851999999984,1,965.851999999984,0,0,NA,"Fixation Timing","Fixation",1,"object-21","V","CFD-WM-026-001-H.jpeg",NA,"SUPTM05489"
"161",1689006079548,"10/07/2023 16:21:19",1689009679548,1,"10/07/2023 18:21:19",137495,33,"task-dwq4",NA,30599977,9085338,NA,"complete",NA,NA,"computer","Desktop or Laptop","Windows 10","Chrome 114.0.0.0","1536x864","1536x714",NA,NA,NA,"JV Task P2",11,"Anxious",132,"In",NA,2,"BCADKEJFIGH",NA,NA,"A (JV first)",NA,NA,"SS1","SS1",30,"J","Judginess","y8ii7g",1,"continue","",4285.45399985695,4281.10399999999,4285.45399985695,4285.45399985695,4281.10399999999,4285.45399985695,1,4285.45399985695,0,0,NA,"Click To Continue","Continue Button",1,"object-14","J","CFD-AF-250-200-N.jpg",NA,"SUPTM05489"
"162",1689006079548,"10/07/2023 16:21:19",1689009679548,1,"10/07/2023 18:21:19",137495,33,"task-dwq4",NA,30599977,9085338,NA,"complete",NA,NA,"computer","Desktop or Laptop","Windows 10","Chrome 114.0.0.0","1536x864","1536x714",NA,NA,NA,"JV Task P2",11,"Anxious",132,"In",NA,2,"BCADKEJFIGH",NA,NA,"A (JV first)",NA,NA,"SS1","SS1",30,"J","Judginess","y8ii7g",1,"response","55",3731.484,4281.10399999999,4285.75399980927,3731.484,4281.10399999999,4285.75399980927,1,3731.484,554.269999809272,0,NA,"Slider","J",3,"object-18","J","CFD-AF-250-200-N.jpg",NA,"SUPTM05489"
"163",1689006080510,"10/07/2023 16:21:20",1689009680510,1,"10/07/2023 18:21:20",137495,33,"task-dwq4",NA,30599977,9085338,NA,"complete",NA,NA,"computer","Desktop or Laptop","Windows 10","Chrome 114.0.0.0","1536x864","1536x714",NA,NA,NA,"JV Task P2",11,"Anxious",132,"In",NA,2,"BCADKEJFIGH",NA,NA,"A (JV first)",NA,NA,"SS1","SS1",30,"J","Fixation","w9zir9",2,"continue","",965.947000000015,965.947000000015,965.947000000015,965.947000000015,965.947000000015,965.947000000015,1,965.947000000015,0,0,NA,"Fixation Timing","Fixation",1,"object-65","J","CFD-AF-250-200-N.jpg",NA,"SUPTM05489"
"164",1689006083090,"10/07/2023 16:21:23",1689009683090,1,"10/07/2023 18:21:23",137495,33,"task-dwq4",NA,30599977,9085338,NA,"complete",NA,NA,"computer","Desktop or Laptop","Windows 10","Chrome 114.0.0.0","1536x864","1536x714",NA,NA,NA,"JV Task P2",11,"Anxious",132,"In",NA,2,"BCADKEJFIGH",NA,NA,"A (JV first)",NA,NA,"SS1","SS1",31,"J","Judginess","y8ii7g",1,"continue","",2580.60299990463,2565.29800000001,2580.60299990463,2580.60299990463,2565.29800000001,2580.60299990463,1,2580.60299990463,0,0,NA,"Click To Continue","Continue Button",1,"object-14","J","CFD-WF-037-029-N.jpg",NA,"SUPTM05489"
"165",1689006083091,"10/07/2023 16:21:23",1689009683091,1,"10/07/2023 18:21:23",137495,33,"task-dwq4",NA,30599977,9085338,NA,"complete",NA,NA,"computer","Desktop or Laptop","Windows 10","Chrome 114.0.0.0","1536x864","1536x714",NA,NA,NA,"JV Task P2",11,"Anxious",132,"In",NA,2,"BCADKEJFIGH",NA,NA,"A (JV first)",NA,NA,"SS1","SS1",31,"J","Judginess","y8ii7g",1,"response","42",1582.478,2565.29800000001,2581.20299980926,1582.478,2565.29800000001,2581.20299980926,1,1582.478,998.724999809259,0,NA,"Slider","J",3,"object-18","J","CFD-WF-037-029-N.jpg",NA,"SUPTM05489"
"166",1689006084041,"10/07/2023 16:21:24",1689009684041,1,"10/07/2023 18:21:24",137495,33,"task-dwq4",NA,30599977,9085338,NA,"complete",NA,NA,"computer","Desktop or Laptop","Windows 10","Chrome 114.0.0.0","1536x864","1536x714",NA,NA,NA,"JV Task P2",11,"Anxious",132,"In",NA,2,"BCADKEJFIGH",NA,NA,"A (JV first)",NA,NA,"SS1","SS1",31,"J","Fixation","w9zir9",2,"continue","",966.205999999976,966.205999999976,966.205999999976,966.205999999976,966.205999999976,966.205999999976,1,966.205999999976,0,0,NA,"Fixation Timing","Fixation",1,"object-65","J","CFD-WF-037-029-N.jpg",NA,"SUPTM05489"
"167",1689006090095,"10/07/2023 16:21:30",1689009690095,1,"10/07/2023 18:21:30",137495,33,"task-dwq4",NA,30599977,9085338,NA,"complete",NA,NA,"computer","Desktop or Laptop","Windows 10","Chrome 114.0.0.0","1536x864","1536x714",NA,NA,NA,"JV Task P2",11,"Anxious",132,"In",NA,2,"BCADKEJFIGH",NA,NA,"A (JV first)",NA,NA,"SS1","SS1",25,"V","Valence","xyoebq",1,"continue","",6053.89899985696,6046.65600000002,6053.89899985696,6053.89899985696,6046.65600000002,6053.89899985696,1,6053.89899985696,0,0,NA,"Click To Continue","Continue Button",1,"object-25","V","CFD-AF-233-190-H.jpeg",NA,"SUPTM05489"
"168",1689006090098,"10/07/2023 16:21:30",1689009690098,1,"10/07/2023 18:21:30",137495,33,"task-dwq4",NA,30599977,9085338,NA,"complete",NA,NA,"computer","Desktop or Laptop","Windows 10","Chrome 114.0.0.0","1536x864","1536x714",NA,NA,NA,"JV Task P2",11,"Anxious",132,"In",NA,2,"BCADKEJFIGH",NA,NA,"A (JV first)",NA,NA,"SS1","SS1",25,"V","Valence","xyoebq",1,"response","82",2165.42700000003,6046.65600000002,6056.89899985696,2165.42700000003,6046.65600000002,6056.89899985696,1,2165.42700000003,3891.47199985693,0,NA,"Slider","J",3,"object-27","V","CFD-AF-233-190-H.jpeg",NA,"SUPTM05489"
"169",1689006091054,"10/07/2023 16:21:31",1689009691054,1,"10/07/2023 18:21:31",137495,33,"task-dwq4",NA,30599977,9085338,NA,"complete",NA,NA,"computer","Desktop or Laptop","Windows 10","Chrome 114.0.0.0","1536x864","1536x714",NA,NA,NA,"JV Task P2",11,"Anxious",132,"In",NA,2,"BCADKEJFIGH",NA,NA,"A (JV first)",NA,NA,"SS1","SS1",25,"V","Fixation","68owkj",2,"continue","",966.054000000004,966.054000000004,966.054000000004,966.054000000004,966.054000000004,966.054000000004,1,966.054000000004,0,0,NA,"Fixation Timing","Fixation",1,"object-21","V","CFD-AF-233-190-H.jpeg",NA,"SUPTM05489"
"170",1689006093805,"10/07/2023 16:21:33",1689009693805,1,"10/07/2023 18:21:33",137495,33,"task-dwq4",NA,30599977,9085338,NA,"complete",NA,NA,"computer","Desktop or Laptop","Windows 10","Chrome 114.0.0.0","1536x864","1536x714",NA,NA,NA,"JV Task P2",11,"Anxious",132,"In",NA,2,"BCADKEJFIGH",NA,NA,"A (JV first)",NA,NA,"SS1","SS1",26,"V","Valence","xyoebq",1,"continue","",2751.98899980925,2748.81999999998,2751.98899980925,2751.98899980925,2748.81999999998,2751.98899980925,1,2751.98899980925,0,0,NA,"Click To Continue","Continue Button",1,"object-25","V","CFD-WF-012-002-H.jpeg",NA,"SUPTM05489"
"171",1689006093806,"10/07/2023 16:21:33",1689009693806,1,"10/07/2023 18:21:33",137495,33,"task-dwq4",NA,30599977,9085338,NA,"complete",NA,NA,"computer","Desktop or Laptop","Windows 10","Chrome 114.0.0.0","1536x864","1536x714",NA,NA,NA,"JV Task P2",11,"Anxious",132,"In",NA,2,"BCADKEJFIGH",NA,NA,"A (JV first)",NA,NA,"SS1","SS1",26,"V","Valence","xyoebq",1,"response","76",1666.054,2748.81999999998,2752.28899999999,1666.054,2748.81999999998,2752.28899999999,1,1666.054,1086.23499999999,0,NA,"Slider","J",3,"object-27","V","CFD-WF-012-002-H.jpeg",NA,"SUPTM05489"
