"Event.Index","UTC.Timestamp","UTC.Date.and.Time","Local.Timestamp","Local.Timezone","Local.Date.and.Time","Experiment.ID","Experiment.Version","Tree.Node.Key","Repeat.Key","Schedule.ID","Participant.Private.ID","Participant.Starting.Group","Participant.Status","Participant.Completion.Code","Participant.External.Session.ID","Participant.Device.Type","Participant.Device","Participant.OS","Participant.Browser","Participant.Monitor.Size","Participant.Viewport.Size","Checkpoint","Room.ID","Room.Order","Task.Name","Task.Version","branch.ln1a","randomiser.vzsr","branch.hkzp","randomiser.ywar","randomiser.q6ah","order.ot79","randomiser.ahe2","randomiser.ckhi","randomiser.lqqr","randomiser.pobd","randomiser.8gdj","Spreadsheet","Current.Spreadsheet","Trial.Number","Display","Screen","Screen.ID","Screen.Counter","Response.Type","Response","Onset.Time","Clock.Time","Reaction.Time","Absolute.Onset.Time","Absolute.Clock.Time","Absolute.Reaction.Time","Correct","Response.Onset","Response.Duration","Proportion","Tag","Component.Name","Object.Name","Object.Number","Object.ID","Spreadsheet..display","Spreadsheet..stimulus","Manipulation..Spreadsheet","Random_ID"
"1",1689007056056,"10/07/2023 16:37:36",1689010656056,1,"10/07/2023 18:37:36",137495,33,"task-hr3w",NA,30600284,9085500,NA,"complete",NA,NA,"computer","Desktop or Laptop","Windows 10","Firefox 115.0","1920x1080","958x954",NA,NA,NA,"JV Task P2",11,"Anxious",NA,"In",NA,NA,"DECFBGAHKIJ",NA,NA,"B (MDot First)",1,231,"SS1","SS1",NA,"","","",NA,"5","BEGIN",NA,NA,NA,NA,NA,NA,0,NA,NA,NA,NA,"","",NA,"","","",NA,"SUPTM05151"
"2",1689007062493,"10/07/2023 16:37:42",1689010662493,1,"10/07/2023 18:37:42",137495,33,"task-hr3w",NA,30600284,9085500,NA,"complete",NA,NA,"computer","Desktop or Laptop","Windows 10","Firefox 115.0","1920x1080","958x954",NA,NA,NA,"JV Task P2",11,"Anxious",NA,"In",NA,NA,"DECFBGAHKIJ",NA,NA,"B (MDot First)",1,231,"SS1","SS1",1,"V","Valence","xyoebq",1,"continue","",4980.7,4966.66,4980.7,4980.7,4966.66,4980.7,1,4980.7,0,0,NA,"Click To Continue","Continue Button",1,"object-25","V","CFD-WM-026-001-N.jpg",NA,"SUPTM05151"
"3",1689007062494,"10/07/2023 16:37:42",1689010662494,1,"10/07/2023 18:37:42",137495,33,"task-hr3w",NA,30600284,9085500,NA,"complete",NA,NA,"computer","Desktop or Laptop","Windows 10","Firefox 115.0","1920x1080","958x954",NA,NA,NA,"JV Task P2",11,"Anxious",NA,"In",NA,NA,"DECFBGAHKIJ",NA,NA,"B (MDot First)",1,231,"SS1","SS1",1,"V","Valence","xyoebq",1,"response","47",3433.32,4966.66,4981.7,3433.32,4966.66,4981.7,1,3433.32,1548.38,0,NA,"Slider","J",3,"object-27","V","CFD-WM-026-001-N.jpg",NA,"SUPTM05151"
"4",1689007063446,"10/07/2023 16:37:43",1689010663446,1,"10/07/2023 18:37:43",137495,33,"task-hr3w",NA,30600284,9085500,NA,"complete",NA,NA,"computer","Desktop or Laptop","Windows 10","Firefox 115.0","1920x1080","958x954",NA,NA,NA,"JV Task P2",11,"Anxious",NA,"In",NA,NA,"DECFBGAHKIJ",NA,NA,"B (MDot First)",1,231,"SS1","SS1",1,"V","Fixation","68owkj",2,"continue","",966.660000000001,966.660000000001,966.660000000001,966.660000000001,966.660000000001,966.660000000001,1,966.660000000001,0,0,NA,"Fixation Timing","Fixation",1,"object-21","V","CFD-WM-026-001-N.jpg",NA,"SUPTM05151"
"5",1689007066683,"10/07/2023 16:37:46",1689010666683,1,"10/07/2023 18:37:46",137495,33,"task-hr3w",NA,30600284,9085500,NA,"complete",NA,NA,"computer","Desktop or Laptop","Windows 10","Firefox 115.0","1920x1080","958x954",NA,NA,NA,"JV Task P2",11,"Anxious",NA,"In",NA,NA,"DECFBGAHKIJ",NA,NA,"B (MDot First)",1,231,"SS1","SS1",2,"V","Valence","xyoebq",1,"continue","",3237.38,3233.36,3237.38,3237.38,3233.36,3237.38,1,3237.38,0,0,NA,"Click To Continue","Continue Button",1,"object-25","V","CFD-BF-030-002-S.jpeg",NA,"SUPTM05151"
"6",1689007066686,"10/07/2023 16:37:46",1689010666686,1,"10/07/2023 18:37:46",137495,33,"task-hr3w",NA,30600284,9085500,NA,"complete",NA,NA,"computer","Desktop or Laptop","Windows 10","Firefox 115.0","1920x1080","958x954",NA,NA,NA,"JV Task P2",11,"Anxious",NA,"In",NA,NA,"DECFBGAHKIJ",NA,NA,"B (MDot First)",1,231,"SS1","SS1",2,"V","Valence","xyoebq",1,"response","40",2000.04,3233.36,3240.38,2000.04,3233.36,3240.38,1,2000.04,1240.34,0,NA,"Slider","J",3,"object-27","V","CFD-BF-030-002-S.jpeg",NA,"SUPTM05151"
"7",1689007067647,"10/07/2023 16:37:47",1689010667647,1,"10/07/2023 18:37:47",137495,33,"task-hr3w",NA,30600284,9085500,NA,"complete",NA,NA,"computer","Desktop or Laptop","Windows 10","Firefox 115.0","1920x1080","958x954",NA,NA,NA,"JV Task P2",11,"Anxious",NA,"In",NA,NA,"DECFBGAHKIJ",NA,NA,"B (MDot First)",1,231,"SS1","SS1",2,"V","Fixation","68owkj",2,"continue","",966.66,966.66,966.66,966.66,966.66,966.66,1,966.66,0,0,NA,"Fixation Timing","Fixation",1,"object-21","V","CFD-BF-030-002-S.jpeg",NA,"SUPTM05151"
"8",1689007070387,"10/07/2023 16:37:50",1689010670387,1,"10/07/2023 18:37:50",137495,33,"task-hr3w",NA,30600284,9085500,NA,"complete",NA,NA,"computer","Desktop or Laptop","Windows 10","Firefox 115.0","1920x1080","958x954",NA,NA,NA,"JV Task P2",11,"Anxious",NA,"In",NA,NA,"DECFBGAHKIJ",NA,NA,"B (MDot First)",1,231,"SS1","SS1",3,"V","Valence","xyoebq",1,"continue","",2742.36,2733.34,2742.36,2742.36,2733.34,2742.36,1,2742.36,0,0,NA,"Click To Continue","Continue Button",1,"object-25","V","CFD-IF-693-172-H.jpeg",NA,"SUPTM05151"
"9",1689007070388,"10/07/2023 16:37:50",1689010670388,1,"10/07/2023 18:37:50",137495,33,"task-hr3w",NA,30600284,9085500,NA,"complete",NA,NA,"computer","Desktop or Laptop","Windows 10","Firefox 115.0","1920x1080","958x954",NA,NA,NA,"JV Task P2",11,"Anxious",NA,"In",NA,NA,"DECFBGAHKIJ",NA,NA,"B (MDot First)",1,231,"SS1","SS1",3,"V","Valence","xyoebq",1,"response","74",1200,2733.34,2742.36,1200,2733.34,2742.36,1,1200,1542.36,0,NA,"Slider","J",3,"object-27","V","CFD-IF-693-172-H.jpeg",NA,"SUPTM05151"
"10",1689007071346,"10/07/2023 16:37:51",1689010671346,1,"10/07/2023 18:37:51",137495,33,"task-hr3w",NA,30600284,9085500,NA,"complete",NA,NA,"computer","Desktop or Laptop","Windows 10","Firefox 115.0","1920x1080","958x954",NA,NA,NA,"JV Task P2",11,"Anxious",NA,"In",NA,NA,"DECFBGAHKIJ",NA,NA,"B (MDot First)",1,231,"SS1","SS1",3,"V","Fixation","68owkj",2,"continue","",966.66,966.66,966.66,966.66,966.66,966.66,1,966.66,0,0,NA,"Fixation Timing","Fixation",1,"object-21","V","CFD-IF-693-172-H.jpeg",NA,"SUPTM05151"
"11",1689007077101,"10/07/2023 16:37:57",1689010677101,1,"10/07/2023 18:37:57",137495,33,"task-hr3w",NA,30600284,9085500,NA,"complete",NA,NA,"computer","Desktop or Laptop","Windows 10","Firefox 115.0","1920x1080","958x954",NA,NA,NA,"JV Task P2",11,"Anxious",NA,"In",NA,NA,"DECFBGAHKIJ",NA,NA,"B (MDot First)",1,231,"SS1","SS1",4,"V","Valence","xyoebq",1,"continue","",5755.36,5750,5755.36,5755.36,5750,5755.36,1,5755.36,0,0,NA,"Click To Continue","Continue Button",1,"object-25","V","CFD-IF-693-172-H.jpeg",NA,"SUPTM05151"
"12",1689007077103,"10/07/2023 16:37:57",1689010677103,1,"10/07/2023 18:37:57",137495,33,"task-hr3w",NA,30600284,9085500,NA,"complete",NA,NA,"computer","Desktop or Laptop","Windows 10","Firefox 115.0","1920x1080","958x954",NA,NA,NA,"JV Task P2",11,"Anxious",NA,"In",NA,NA,"DECFBGAHKIJ",NA,NA,"B (MDot First)",1,231,"SS1","SS1",4,"V","Valence","xyoebq",1,"response","81",3416.66,5750,5757.36,3416.66,5750,5757.36,1,3416.66,2340.7,0,NA,"Slider","J",3,"object-27","V","CFD-IF-693-172-H.jpeg",NA,"SUPTM05151"
"13",1689007078063,"10/07/2023 16:37:58",1689010678063,1,"10/07/2023 18:37:58",137495,33,"task-hr3w",NA,30600284,9085500,NA,"complete",NA,NA,"computer","Desktop or Laptop","Windows 10","Firefox 115.0","1920x1080","958x954",NA,NA,NA,"JV Task P2",11,"Anxious",NA,"In",NA,NA,"DECFBGAHKIJ",NA,NA,"B (MDot First)",1,231,"SS1","SS1",4,"V","Fixation","68owkj",2,"continue","",966.66,966.66,966.66,966.66,966.66,966.66,1,966.66,0,0,NA,"Fixation Timing","Fixation",1,"object-21","V","CFD-IF-693-172-H.jpeg",NA,"SUPTM05151"
"14",1689007080853,"10/07/2023 16:38:00",1689010680853,1,"10/07/2023 18:38:00",137495,33,"task-hr3w",NA,30600284,9085500,NA,"complete",NA,NA,"computer","Desktop or Laptop","Windows 10","Firefox 115.0","1920x1080","958x954",NA,NA,NA,"JV Task P2",11,"Anxious",NA,"In",NA,NA,"DECFBGAHKIJ",NA,NA,"B (MDot First)",1,231,"SS1","SS1",5,"V","Valence","xyoebq",1,"continue","",2789.7,2783.34,2789.7,2789.7,2783.34,2789.7,1,2789.7,0,0,NA,"Click To Continue","Continue Button",1,"object-25","V","CFD-AM-225-102-S.jpeg",NA,"SUPTM05151"
"15",1689007080854,"10/07/2023 16:38:00",1689010680854,1,"10/07/2023 18:38:00",137495,33,"task-hr3w",NA,30600284,9085500,NA,"complete",NA,NA,"computer","Desktop or Laptop","Windows 10","Firefox 115.0","1920x1080","958x954",NA,NA,NA,"JV Task P2",11,"Anxious",NA,"In",NA,NA,"DECFBGAHKIJ",NA,NA,"B (MDot First)",1,231,"SS1","SS1",5,"V","Valence","xyoebq",1,"response","0",1550,2783.34,2790.7,1550,2783.34,2790.7,1,1550,1240.7,0,NA,"Slider","J",3,"object-27","V","CFD-AM-225-102-S.jpeg",NA,"SUPTM05151"
"16",1689007081813,"10/07/2023 16:38:01",1689010681813,1,"10/07/2023 18:38:01",137495,33,"task-hr3w",NA,30600284,9085500,NA,"complete",NA,NA,"computer","Desktop or Laptop","Windows 10","Firefox 115.0","1920x1080","958x954",NA,NA,NA,"JV Task P2",11,"Anxious",NA,"In",NA,NA,"DECFBGAHKIJ",NA,NA,"B (MDot First)",1,231,"SS1","SS1",5,"V","Fixation","68owkj",2,"continue","",966.66,966.66,966.66,966.66,966.66,966.66,1,966.66,0,0,NA,"Fixation Timing","Fixation",1,"object-21","V","CFD-AM-225-102-S.jpeg",NA,"SUPTM05151"
"17",1689007087314,"10/07/2023 16:38:07",1689010687314,1,"10/07/2023 18:38:07",137495,33,"task-hr3w",NA,30600284,9085500,NA,"complete",NA,NA,"computer","Desktop or Laptop","Windows 10","Firefox 115.0","1920x1080","958x954",NA,NA,NA,"JV Task P2",11,"Anxious",NA,"In",NA,NA,"DECFBGAHKIJ",NA,NA,"B (MDot First)",1,231,"SS1","SS1",1,"J","Judginess","y8ii7g",1,"continue","",5501.7,5500,5501.7,5501.7,5500,5501.7,1,5501.7,0,0,NA,"Click To Continue","Continue Button",1,"object-14","J","CFD-WM-035-032-N.jpg",NA,"SUPTM05151"
"18",1689007087317,"10/07/2023 16:38:07",1689010687317,1,"10/07/2023 18:38:07",137495,33,"task-hr3w",NA,30600284,9085500,NA,"complete",NA,NA,"computer","Desktop or Laptop","Windows 10","Firefox 115.0","1920x1080","958x954",NA,NA,NA,"JV Task P2",11,"Anxious",NA,"In",NA,NA,"DECFBGAHKIJ",NA,NA,"B (MDot First)",1,231,"SS1","SS1",1,"J","Judginess","y8ii7g",1,"response","20",4383.34,5500,5504.7,4383.34,5500,5504.7,1,4383.34,1121.36,0,NA,"Slider","J",3,"object-18","J","CFD-WM-035-032-N.jpg",NA,"SUPTM05151"
"19",1689007088280,"10/07/2023 16:38:08",1689010688280,1,"10/07/2023 18:38:08",137495,33,"task-hr3w",NA,30600284,9085500,NA,"complete",NA,NA,"computer","Desktop or Laptop","Windows 10","Firefox 115.0","1920x1080","958x954",NA,NA,NA,"JV Task P2",11,"Anxious",NA,"In",NA,NA,"DECFBGAHKIJ",NA,NA,"B (MDot First)",1,231,"SS1","SS1",1,"J","Fixation","w9zir9",2,"continue","",966.680000000004,966.680000000004,966.680000000004,966.680000000004,966.680000000004,966.680000000004,1,966.680000000004,0,0,NA,"Fixation Timing","Fixation",1,"object-65","J","CFD-WM-035-032-N.jpg",NA,"SUPTM05151"
"20",1689007090691,"10/07/2023 16:38:10",1689010690691,1,"10/07/2023 18:38:10",137495,33,"task-hr3w",NA,30600284,9085500,NA,"complete",NA,NA,"computer","Desktop or Laptop","Windows 10","Firefox 115.0","1920x1080","958x954",NA,NA,NA,"JV Task P2",11,"Anxious",NA,"In",NA,NA,"DECFBGAHKIJ",NA,NA,"B (MDot First)",1,231,"SS1","SS1",2,"J","Judginess","y8ii7g",1,"continue","",2412.02,2400,2412.02,2412.02,2400,2412.02,1,2412.02,0,0,NA,"Click To Continue","Continue Button",1,"object-14","J","CFD-WM-025-002-H.jpeg",NA,"SUPTM05151"
"21",1689007090692,"10/07/2023 16:38:10",1689010690692,1,"10/07/2023 18:38:10",137495,33,"task-hr3w",NA,30600284,9085500,NA,"complete",NA,NA,"computer","Desktop or Laptop","Windows 10","Firefox 115.0","1920x1080","958x954",NA,NA,NA,"JV Task P2",11,"Anxious",NA,"In",NA,NA,"DECFBGAHKIJ",NA,NA,"B (MDot First)",1,231,"SS1","SS1",2,"J","Judginess","y8ii7g",1,"response","100",1333.34,2400,2413.02,1333.34,2400,2413.02,1,1333.34,1079.68,0,NA,"Slider","J",3,"object-18","J","CFD-WM-025-002-H.jpeg",NA,"SUPTM05151"
"22",1689007091646,"10/07/2023 16:38:11",1689010691646,1,"10/07/2023 18:38:11",137495,33,"task-hr3w",NA,30600284,9085500,NA,"complete",NA,NA,"computer","Desktop or Laptop","Windows 10","Firefox 115.0","1920x1080","958x954",NA,NA,NA,"JV Task P2",11,"Anxious",NA,"In",NA,NA,"DECFBGAHKIJ",NA,NA,"B (MDot First)",1,231,"SS1","SS1",2,"J","Fixation","w9zir9",2,"continue","",966.659999999996,966.659999999996,966.659999999996,966.659999999996,966.659999999996,966.659999999996,1,966.659999999996,0,0,NA,"Fixation Timing","Fixation",1,"object-65","J","CFD-WM-025-002-H.jpeg",NA,"SUPTM05151"
"23",1689007096152,"10/07/2023 16:38:16",1689010696152,1,"10/07/2023 18:38:16",137495,33,"task-hr3w",NA,30600284,9085500,NA,"complete",NA,NA,"computer","Desktop or Laptop","Windows 10","Firefox 115.0","1920x1080","958x954",NA,NA,NA,"JV Task P2",11,"Anxious",NA,"In",NA,NA,"DECFBGAHKIJ",NA,NA,"B (MDot First)",1,231,"SS1","SS1",3,"J","Judginess","y8ii7g",1,"continue","",4505.36,4500,4505.36,4505.36,4500,4505.36,1,4505.36,0,0,NA,"Click To Continue","Continue Button",1,"object-14","J","CFD-WF-037-029-N.jpg",NA,"SUPTM05151"
"24",1689007096152,"10/07/2023 16:38:16",1689010696152,1,"10/07/2023 18:38:16",137495,33,"task-hr3w",NA,30600284,9085500,NA,"complete",NA,NA,"computer","Desktop or Laptop","Windows 10","Firefox 115.0","1920x1080","958x954",NA,NA,NA,"JV Task P2",11,"Anxious",NA,"In",NA,NA,"DECFBGAHKIJ",NA,NA,"B (MDot First)",1,231,"SS1","SS1",3,"J","Judginess","y8ii7g",1,"response","36",1866.68,4500,4506.36,1866.68,4500,4506.36,1,1866.68,2639.68,0,NA,"Slider","J",3,"object-18","J","CFD-WF-037-029-N.jpg",NA,"SUPTM05151"
"25",1689007097113,"10/07/2023 16:38:17",1689010697113,1,"10/07/2023 18:38:17",137495,33,"task-hr3w",NA,30600284,9085500,NA,"complete",NA,NA,"computer","Desktop or Laptop","Windows 10","Firefox 115.0","1920x1080","958x954",NA,NA,NA,"JV Task P2",11,"Anxious",NA,"In",NA,NA,"DECFBGAHKIJ",NA,NA,"B (MDot First)",1,231,"SS1","SS1",3,"J","Fixation","w9zir9",2,"continue","",966.68,966.68,966.68,966.68,966.68,966.68,1,966.68,0,0,NA,"Fixation Timing","Fixation",1,"object-65","J","CFD-WF-037-029-N.jpg",NA,"SUPTM05151"
"26",1689007100544,"10/07/2023 16:38:20",1689010700544,1,"10/07/2023 18:38:20",137495,33,"task-hr3w",NA,30600284,9085500,NA,"complete",NA,NA,"computer","Desktop or Laptop","Windows 10","Firefox 115.0","1920x1080","958x954",NA,NA,NA,"JV Task P2",11,"Anxious",NA,"In",NA,NA,"DECFBGAHKIJ",NA,NA,"B (MDot First)",1,231,"SS1","SS1",4,"J","Judginess","y8ii7g",1,"continue","",3431.68,3416.66,3431.68,3431.68,3416.66,3431.68,1,3431.68,0,0,NA,"Click To Continue","Continue Button",1,"object-14","J","CFD-WM-001-014-H.jpeg",NA,"SUPTM05151"
"27",1689007100546,"10/07/2023 16:38:20",1689010700546,1,"10/07/2023 18:38:20",137495,33,"task-hr3w",NA,30600284,9085500,NA,"complete",NA,NA,"computer","Desktop or Laptop","Windows 10","Firefox 115.0","1920x1080","958x954",NA,NA,NA,"JV Task P2",11,"Anxious",NA,"In",NA,NA,"DECFBGAHKIJ",NA,NA,"B (MDot First)",1,231,"SS1","SS1",4,"J","Judginess","y8ii7g",1,"response","72",1716.66,3416.66,3432.68,1716.66,3416.66,3432.68,1,1716.66,1716.02,0,NA,"Slider","J",3,"object-18","J","CFD-WM-001-014-H.jpeg",NA,"SUPTM05151"
"28",1689007101497,"10/07/2023 16:38:21",1689010701497,1,"10/07/2023 18:38:21",137495,33,"task-hr3w",NA,30600284,9085500,NA,"complete",NA,NA,"computer","Desktop or Laptop","Windows 10","Firefox 115.0","1920x1080","958x954",NA,NA,NA,"JV Task P2",11,"Anxious",NA,"In",NA,NA,"DECFBGAHKIJ",NA,NA,"B (MDot First)",1,231,"SS1","SS1",4,"J","Fixation","w9zir9",2,"continue","",966.659999999996,966.659999999996,966.659999999996,966.659999999996,966.659999999996,966.659999999996,1,966.659999999996,0,0,NA,"Fixation Timing","Fixation",1,"object-65","J","CFD-WM-001-014-H.jpeg",NA,"SUPTM05151"
"29",1689007104365,"10/07/2023 16:38:24",1689010704365,1,"10/07/2023 18:38:24",137495,33,"task-hr3w",NA,30600284,9085500,NA,"complete",NA,NA,"computer","Desktop or Laptop","Windows 10","Firefox 115.0","1920x1080","958x954",NA,NA,NA,"JV Task P2",11,"Anxious",NA,"In",NA,NA,"DECFBGAHKIJ",NA,NA,"B (MDot First)",1,231,"SS1","SS1",6,"V","Valence","xyoebq",1,"continue","",2868.36,2866.68,2868.36,2868.36,2866.68,2868.36,1,2868.36,0,0,NA,"Click To Continue","Continue Button",1,"object-25","V","CFD-WM-024-015-S.jpeg",NA,"SUPTM05151"
"30",1689007104365,"10/07/2023 16:38:24",1689010704365,1,"10/07/2023 18:38:24",137495,33,"task-hr3w",NA,30600284,9085500,NA,"complete",NA,NA,"computer","Desktop or Laptop","Windows 10","Firefox 115.0","1920x1080","958x954",NA,NA,NA,"JV Task P2",11,"Anxious",NA,"In",NA,NA,"DECFBGAHKIJ",NA,NA,"B (MDot First)",1,231,"SS1","SS1",6,"V","Valence","xyoebq",1,"response","22",1500,2866.68,2869.36,1500,2866.68,2869.36,1,1500,1369.36,0,NA,"Slider","J",3,"object-27","V","CFD-WM-024-015-S.jpeg",NA,"SUPTM05151"
"31",1689007105331,"10/07/2023 16:38:25",1689010705331,1,"10/07/2023 18:38:25",137495,33,"task-hr3w",NA,30600284,9085500,NA,"complete",NA,NA,"computer","Desktop or Laptop","Windows 10","Firefox 115.0","1920x1080","958x954",NA,NA,NA,"JV Task P2",11,"Anxious",NA,"In",NA,NA,"DECFBGAHKIJ",NA,NA,"B (MDot First)",1,231,"SS1","SS1",6,"V","Fixation","68owkj",2,"continue","",966.660000000003,966.660000000003,966.660000000003,966.660000000003,966.660000000003,966.660000000003,1,966.660000000003,0,0,NA,"Fixation Timing","Fixation",1,"object-21","V","CFD-WM-024-015-S.jpeg",NA,"SUPTM05151"
"32",1689007108996,"10/07/2023 16:38:28",1689010708996,1,"10/07/2023 18:38:28",137495,33,"task-hr3w",NA,30600284,9085500,NA,"complete",NA,NA,"computer","Desktop or Laptop","Windows 10","Firefox 115.0","1920x1080","958x954",NA,NA,NA,"JV Task P2",11,"Anxious",NA,"In",NA,NA,"DECFBGAHKIJ",NA,NA,"B (MDot First)",1,231,"SS1","SS1",5,"J","Judginess","y8ii7g",1,"continue","",3666.02,3650,3666.02,3666.02,3650,3666.02,1,3666.02,0,0,NA,"Click To Continue","Continue Button",1,"object-14","J","CFD-WF-011-002-N.jpg",NA,"SUPTM05151"
"33",1689007108996,"10/07/2023 16:38:28",1689010708996,1,"10/07/2023 18:38:28",137495,33,"task-hr3w",NA,30600284,9085500,NA,"complete",NA,NA,"computer","Desktop or Laptop","Windows 10","Firefox 115.0","1920x1080","958x954",NA,NA,NA,"JV Task P2",11,"Anxious",NA,"In",NA,NA,"DECFBGAHKIJ",NA,NA,"B (MDot First)",1,231,"SS1","SS1",5,"J","Judginess","y8ii7g",1,"response","54",1700,3650,3666.66,1700,3650,3666.66,1,1700,1966.66,0,NA,"Slider","J",3,"object-18","J","CFD-WF-011-002-N.jpg",NA,"SUPTM05151"
"34",1689007109947,"10/07/2023 16:38:29",1689010709947,1,"10/07/2023 18:38:29",137495,33,"task-hr3w",NA,30600284,9085500,NA,"complete",NA,NA,"computer","Desktop or Laptop","Windows 10","Firefox 115.0","1920x1080","958x954",NA,NA,NA,"JV Task P2",11,"Anxious",NA,"In",NA,NA,"DECFBGAHKIJ",NA,NA,"B (MDot First)",1,231,"SS1","SS1",5,"J","Fixation","w9zir9",2,"continue","",966.659999999996,966.659999999996,966.659999999996,966.659999999996,966.659999999996,966.659999999996,1,966.659999999996,0,0,NA,"Fixation Timing","Fixation",1,"object-65","J","CFD-WF-011-002-N.jpg",NA,"SUPTM05151"
"35",1689007112370,"10/07/2023 16:38:32",1689010712370,1,"10/07/2023 18:38:32",137495,33,"task-hr3w",NA,30600284,9085500,NA,"complete",NA,NA,"computer","Desktop or Laptop","Windows 10","Firefox 115.0","1920x1080","958x954",NA,NA,NA,"JV Task P2",11,"Anxious",NA,"In",NA,NA,"DECFBGAHKIJ",NA,NA,"B (MDot First)",1,231,"SS1","SS1",6,"J","Judginess","y8ii7g",1,"continue","",2424.36,2416.68,2424.36,2424.36,2416.68,2424.36,1,2424.36,0,0,NA,"Click To Continue","Continue Button",1,"object-14","J","CFD-WM-031-003-S.jpeg",NA,"SUPTM05151"
"36",1689007112372,"10/07/2023 16:38:32",1689010712372,1,"10/07/2023 18:38:32",137495,33,"task-hr3w",NA,30600284,9085500,NA,"complete",NA,NA,"computer","Desktop or Laptop","Windows 10","Firefox 115.0","1920x1080","958x954",NA,NA,NA,"JV Task P2",11,"Anxious",NA,"In",NA,NA,"DECFBGAHKIJ",NA,NA,"B (MDot First)",1,231,"SS1","SS1",6,"J","Judginess","y8ii7g",1,"response","18",1433.34,2416.68,2426.36,1433.34,2416.68,2426.36,1,1433.34,993.019999999997,0,NA,"Slider","J",3,"object-18","J","CFD-WM-031-003-S.jpeg",NA,"SUPTM05151"
"37",1689007113330,"10/07/2023 16:38:33",1689010713330,1,"10/07/2023 18:38:33",137495,33,"task-hr3w",NA,30600284,9085500,NA,"complete",NA,NA,"computer","Desktop or Laptop","Windows 10","Firefox 115.0","1920x1080","958x954",NA,NA,NA,"JV Task P2",11,"Anxious",NA,"In",NA,NA,"DECFBGAHKIJ",NA,NA,"B (MDot First)",1,231,"SS1","SS1",6,"J","Fixation","w9zir9",2,"continue","",966.660000000003,966.660000000003,966.660000000003,966.660000000003,966.660000000003,966.660000000003,1,966.660000000003,0,0,NA,"Fixation Timing","Fixation",1,"object-65","J","CFD-WM-031-003-S.jpeg",NA,"SUPTM05151"
"38",1689007115757,"10/07/2023 16:38:35",1689010715757,1,"10/07/2023 18:38:35",137495,33,"task-hr3w",NA,30600284,9085500,NA,"complete",NA,NA,"computer","Desktop or Laptop","Windows 10","Firefox 115.0","1920x1080","958x954",NA,NA,NA,"JV Task P2",11,"Anxious",NA,"In",NA,NA,"DECFBGAHKIJ",NA,NA,"B (MDot First)",1,231,"SS1","SS1",7,"J","Judginess","y8ii7g",1,"continue","",2428.02,2416.66,2428.02,2428.02,2416.66,2428.02,1,2428.02,0,0,NA,"Click To Continue","Continue Button",1,"object-14","J","CFD-WF-024-003-H.jpeg",NA,"SUPTM05151"
"39",1689007115757,"10/07/2023 16:38:35",1689010715757,1,"10/07/2023 18:38:35",137495,33,"task-hr3w",NA,30600284,9085500,NA,"complete",NA,NA,"computer","Desktop or Laptop","Windows 10","Firefox 115.0","1920x1080","958x954",NA,NA,NA,"JV Task P2",11,"Anxious",NA,"In",NA,NA,"DECFBGAHKIJ",NA,NA,"B (MDot First)",1,231,"SS1","SS1",7,"J","Judginess","y8ii7g",1,"response","85",1500,2416.66,2428.02,1500,2416.66,2428.02,1,1500,928.019999999997,0,NA,"Slider","J",3,"object-18","J","CFD-WF-024-003-H.jpeg",NA,"SUPTM05151"
"40",1689007116713,"10/07/2023 16:38:36",1689010716713,1,"10/07/2023 18:38:36",137495,33,"task-hr3w",NA,30600284,9085500,NA,"complete",NA,NA,"computer","Desktop or Laptop","Windows 10","Firefox 115.0","1920x1080","958x954",NA,NA,NA,"JV Task P2",11,"Anxious",NA,"In",NA,NA,"DECFBGAHKIJ",NA,NA,"B (MDot First)",1,231,"SS1","SS1",7,"J","Fixation","w9zir9",2,"continue","",966.68,966.68,966.68,966.68,966.68,966.68,1,966.68,0,0,NA,"Fixation Timing","Fixation",1,"object-65","J","CFD-WF-024-003-H.jpeg",NA,"SUPTM05151"
"41",1689007119374,"10/07/2023 16:38:39",1689010719374,1,"10/07/2023 18:38:39",137495,33,"task-hr3w",NA,30600284,9085500,NA,"complete",NA,NA,"computer","Desktop or Laptop","Windows 10","Firefox 115.0","1920x1080","958x954",NA,NA,NA,"JV Task P2",11,"Anxious",NA,"In",NA,NA,"DECFBGAHKIJ",NA,NA,"B (MDot First)",1,231,"SS1","SS1",8,"J","Judginess","y8ii7g",1,"continue","",2660.68,2650,2660.68,2660.68,2650,2660.68,1,2660.68,0,0,NA,"Click To Continue","Continue Button",1,"object-14","J","CFD-WM-037-025-N.jpg",NA,"SUPTM05151"
"42",1689007119375,"10/07/2023 16:38:39",1689010719375,1,"10/07/2023 18:38:39",137495,33,"task-hr3w",NA,30600284,9085500,NA,"complete",NA,NA,"computer","Desktop or Laptop","Windows 10","Firefox 115.0","1920x1080","958x954",NA,NA,NA,"JV Task P2",11,"Anxious",NA,"In",NA,NA,"DECFBGAHKIJ",NA,NA,"B (MDot First)",1,231,"SS1","SS1",8,"J","Judginess","y8ii7g",1,"response","24",1433.32,2650,2662.68,1433.32,2650,2662.68,1,1433.32,1229.36,0,NA,"Slider","J",3,"object-18","J","CFD-WM-037-025-N.jpg",NA,"SUPTM05151"
"43",1689007120329,"10/07/2023 16:38:40",1689010720329,1,"10/07/2023 18:38:40",137495,33,"task-hr3w",NA,30600284,9085500,NA,"complete",NA,NA,"computer","Desktop or Laptop","Windows 10","Firefox 115.0","1920x1080","958x954",NA,NA,NA,"JV Task P2",11,"Anxious",NA,"In",NA,NA,"DECFBGAHKIJ",NA,NA,"B (MDot First)",1,231,"SS1","SS1",8,"J","Fixation","w9zir9",2,"continue","",966.660000000003,966.660000000003,966.660000000003,966.660000000003,966.660000000003,966.660000000003,1,966.660000000003,0,0,NA,"Fixation Timing","Fixation",1,"object-65","J","CFD-WM-037-025-N.jpg",NA,"SUPTM05151"
"44",1689007122705,"10/07/2023 16:38:42",1689010722705,1,"10/07/2023 18:38:42",137495,33,"task-hr3w",NA,30600284,9085500,NA,"complete",NA,NA,"computer","Desktop or Laptop","Windows 10","Firefox 115.0","1920x1080","958x954",NA,NA,NA,"JV Task P2",11,"Anxious",NA,"In",NA,NA,"DECFBGAHKIJ",NA,NA,"B (MDot First)",1,231,"SS1","SS1",9,"J","Judginess","y8ii7g",1,"continue","",2376.02,2366.66,2376.02,2376.02,2366.66,2376.02,1,2376.02,0,0,NA,"Click To Continue","Continue Button",1,"object-14","J","CFD-WM-001-014-S.jpeg",NA,"SUPTM05151"
"45",1689007122708,"10/07/2023 16:38:42",1689010722708,1,"10/07/2023 18:38:42",137495,33,"task-hr3w",NA,30600284,9085500,NA,"complete",NA,NA,"computer","Desktop or Laptop","Windows 10","Firefox 115.0","1920x1080","958x954",NA,NA,NA,"JV Task P2",11,"Anxious",NA,"In",NA,NA,"DECFBGAHKIJ",NA,NA,"B (MDot First)",1,231,"SS1","SS1",9,"J","Judginess","y8ii7g",1,"response","17",1433.34,2366.66,2379.02,1433.34,2366.66,2379.02,1,1433.34,945.679999999993,0,NA,"Slider","J",3,"object-18","J","CFD-WM-001-014-S.jpeg",NA,"SUPTM05151"
"46",1689007123662,"10/07/2023 16:38:43",1689010723662,1,"10/07/2023 18:38:43",137495,33,"task-hr3w",NA,30600284,9085500,NA,"complete",NA,NA,"computer","Desktop or Laptop","Windows 10","Firefox 115.0","1920x1080","958x954",NA,NA,NA,"JV Task P2",11,"Anxious",NA,"In",NA,NA,"DECFBGAHKIJ",NA,NA,"B (MDot First)",1,231,"SS1","SS1",9,"J","Fixation","w9zir9",2,"continue","",966.680000000008,966.680000000008,966.680000000008,966.680000000008,966.680000000008,966.680000000008,1,966.680000000008,0,0,NA,"Fixation Timing","Fixation",1,"object-65","J","CFD-WM-001-014-S.jpeg",NA,"SUPTM05151"
"47",1689007126677,"10/07/2023 16:38:46",1689010726677,1,"10/07/2023 18:38:46",137495,33,"task-hr3w",NA,30600284,9085500,NA,"complete",NA,NA,"computer","Desktop or Laptop","Windows 10","Firefox 115.0","1920x1080","958x954",NA,NA,NA,"JV Task P2",11,"Anxious",NA,"In",NA,NA,"DECFBGAHKIJ",NA,NA,"B (MDot First)",1,231,"SS1","SS1",7,"V","Valence","xyoebq",1,"continue","",3013.67999999999,3000,3013.67999999999,3013.67999999999,3000,3013.67999999999,1,3013.67999999999,0,0,NA,"Click To Continue","Continue Button",1,"object-25","V","CFD-WM-037-025-S.jpeg",NA,"SUPTM05151"
"48",1689007126677,"10/07/2023 16:38:46",1689010726677,1,"10/07/2023 18:38:46",137495,33,"task-hr3w",NA,30600284,9085500,NA,"complete",NA,NA,"computer","Desktop or Laptop","Windows 10","Firefox 115.0","1920x1080","958x954",NA,NA,NA,"JV Task P2",11,"Anxious",NA,"In",NA,NA,"DECFBGAHKIJ",NA,NA,"B (MDot First)",1,231,"SS1","SS1",7,"V","Valence","xyoebq",1,"response","0",1550,3000,3014.67999999999,1550,3000,3014.67999999999,1,1550,1464.67999999999,0,NA,"Slider","J",3,"object-27","V","CFD-WM-037-025-S.jpeg",NA,"SUPTM05151"
"49",1689007127629,"10/07/2023 16:38:47",1689010727629,1,"10/07/2023 18:38:47",137495,33,"task-hr3w",NA,30600284,9085500,NA,"complete",NA,NA,"computer","Desktop or Laptop","Windows 10","Firefox 115.0","1920x1080","958x954",NA,NA,NA,"JV Task P2",11,"Anxious",NA,"In",NA,NA,"DECFBGAHKIJ",NA,NA,"B (MDot First)",1,231,"SS1","SS1",7,"V","Fixation","68owkj",2,"continue","",966.659999999989,966.659999999989,966.659999999989,966.659999999989,966.659999999989,966.659999999989,1,966.659999999989,0,0,NA,"Fixation Timing","Fixation",1,"object-21","V","CFD-WM-037-025-S.jpeg",NA,"SUPTM05151"
"50",1689007131152,"10/07/2023 16:38:51",1689010731152,1,"10/07/2023 18:38:51",137495,33,"task-hr3w",NA,30600284,9085500,NA,"complete",NA,NA,"computer","Desktop or Laptop","Windows 10","Firefox 115.0","1920x1080","958x954",NA,NA,NA,"JV Task P2",11,"Anxious",NA,"In",NA,NA,"DECFBGAHKIJ",NA,NA,"B (MDot First)",1,231,"SS1","SS1",10,"J","Judginess","y8ii7g",1,"continue","",3522.02,3516.66,3522.02,3522.02,3516.66,3522.02,1,3522.02,0,0,NA,"Click To Continue","Continue Button",1,"object-14","J","CFD-WF-009-001-N.jpg",NA,"SUPTM05151"
"51",1689007131152,"10/07/2023 16:38:51",1689010731152,1,"10/07/2023 18:38:51",137495,33,"task-hr3w",NA,30600284,9085500,NA,"complete",NA,NA,"computer","Desktop or Laptop","Windows 10","Firefox 115.0","1920x1080","958x954",NA,NA,NA,"JV Task P2",11,"Anxious",NA,"In",NA,NA,"DECFBGAHKIJ",NA,NA,"B (MDot First)",1,231,"SS1","SS1",10,"J","Judginess","y8ii7g",1,"response","30",2000,3516.66,3523.02,2000,3516.66,3523.02,1,2000,1523.02,0,NA,"Slider","J",3,"object-18","J","CFD-WF-009-001-N.jpg",NA,"SUPTM05151"
"52",1689007132113,"10/07/2023 16:38:52",1689010732113,1,"10/07/2023 18:38:52",137495,33,"task-hr3w",NA,30600284,9085500,NA,"complete",NA,NA,"computer","Desktop or Laptop","Windows 10","Firefox 115.0","1920x1080","958x954",NA,NA,NA,"JV Task P2",11,"Anxious",NA,"In",NA,NA,"DECFBGAHKIJ",NA,NA,"B (MDot First)",1,231,"SS1","SS1",10,"J","Fixation","w9zir9",2,"continue","",966.680000000008,966.680000000008,966.680000000008,966.680000000008,966.680000000008,966.680000000008,1,966.680000000008,0,0,NA,"Fixation Timing","Fixation",1,"object-65","J","CFD-WF-009-001-N.jpg",NA,"SUPTM05151"
"53",1689007134785,"10/07/2023 16:38:54",1689010734785,1,"10/07/2023 18:38:54",137495,33,"task-hr3w",NA,30600284,9085500,NA,"complete",NA,NA,"computer","Desktop or Laptop","Windows 10","Firefox 115.0","1920x1080","958x954",NA,NA,NA,"JV Task P2",11,"Anxious",NA,"In",NA,NA,"DECFBGAHKIJ",NA,NA,"B (MDot First)",1,231,"SS1","SS1",11,"J","Judginess","y8ii7g",1,"continue","",2671.67999999999,2666.67999999999,2671.67999999999,2671.67999999999,2666.67999999999,2671.67999999999,1,2671.67999999999,0,0,NA,"Click To Continue","Continue Button",1,"object-14","J","CFD-WF-027-003-H.jpeg",NA,"SUPTM05151"
"54",1689007134788,"10/07/2023 16:38:54",1689010734788,1,"10/07/2023 18:38:54",137495,33,"task-hr3w",NA,30600284,9085500,NA,"complete",NA,NA,"computer","Desktop or Laptop","Windows 10","Firefox 115.0","1920x1080","958x954",NA,NA,NA,"JV Task P2",11,"Anxious",NA,"In",NA,NA,"DECFBGAHKIJ",NA,NA,"B (MDot First)",1,231,"SS1","SS1",11,"J","Judginess","y8ii7g",1,"response","100",1650,2666.67999999999,2675.67999999999,1650,2666.67999999999,2675.67999999999,1,1650,1025.67999999999,0,NA,"Slider","J",3,"object-18","J","CFD-WF-027-003-H.jpeg",NA,"SUPTM05151"
"55",1689007135746,"10/07/2023 16:38:55",1689010735746,1,"10/07/2023 18:38:55",137495,33,"task-hr3w",NA,30600284,9085500,NA,"complete",NA,NA,"computer","Desktop or Laptop","Windows 10","Firefox 115.0","1920x1080","958x954",NA,NA,NA,"JV Task P2",11,"Anxious",NA,"In",NA,NA,"DECFBGAHKIJ",NA,NA,"B (MDot First)",1,231,"SS1","SS1",11,"J","Fixation","w9zir9",2,"continue","",966.660000000003,966.660000000003,966.660000000003,966.660000000003,966.660000000003,966.660000000003,1,966.660000000003,0,0,NA,"Fixation Timing","Fixation",1,"object-65","J","CFD-WF-027-003-H.jpeg",NA,"SUPTM05151"
"56",1689007138847,"10/07/2023 16:38:58",1689010738847,1,"10/07/2023 18:38:58",137495,33,"task-hr3w",NA,30600284,9085500,NA,"complete",NA,NA,"computer","Desktop or Laptop","Windows 10","Firefox 115.0","1920x1080","958x954",NA,NA,NA,"JV Task P2",11,"Anxious",NA,"In",NA,NA,"DECFBGAHKIJ",NA,NA,"B (MDot First)",1,231,"SS1","SS1",12,"J","Judginess","y8ii7g",1,"continue","",3100,3083.34,3100,3100,3083.34,3100,1,3100,0,0,NA,"Click To Continue","Continue Button",1,"object-14","J","CFD-WM-034-030-H.jpeg",NA,"SUPTM05151"
"57",1689007138847,"10/07/2023 16:38:58",1689010738847,1,"10/07/2023 18:38:58",137495,33,"task-hr3w",NA,30600284,9085500,NA,"complete",NA,NA,"computer","Desktop or Laptop","Windows 10","Firefox 115.0","1920x1080","958x954",NA,NA,NA,"JV Task P2",11,"Anxious",NA,"In",NA,NA,"DECFBGAHKIJ",NA,NA,"B (MDot First)",1,231,"SS1","SS1",12,"J","Judginess","y8ii7g",1,"response","98",1300,3083.34,3100,1300,3083.34,3100,1,1300,1800,0,NA,"Slider","J",3,"object-18","J","CFD-WM-034-030-H.jpeg",NA,"SUPTM05151"
"58",1689007139796,"10/07/2023 16:38:59",1689010739796,1,"10/07/2023 18:38:59",137495,33,"task-hr3w",NA,30600284,9085500,NA,"complete",NA,NA,"computer","Desktop or Laptop","Windows 10","Firefox 115.0","1920x1080","958x954",NA,NA,NA,"JV Task P2",11,"Anxious",NA,"In",NA,NA,"DECFBGAHKIJ",NA,NA,"B (MDot First)",1,231,"SS1","SS1",12,"J","Fixation","w9zir9",2,"continue","",966.679999999993,966.679999999993,966.679999999993,966.679999999993,966.679999999993,966.679999999993,1,966.679999999993,0,0,NA,"Fixation Timing","Fixation",1,"object-65","J","CFD-WM-034-030-H.jpeg",NA,"SUPTM05151"
"59",1689007144332,"10/07/2023 16:39:04",1689010744332,1,"10/07/2023 18:39:04",137495,33,"task-hr3w",NA,30600284,9085500,NA,"complete",NA,NA,"computer","Desktop or Laptop","Windows 10","Firefox 115.0","1920x1080","958x954",NA,NA,NA,"JV Task P2",11,"Anxious",NA,"In",NA,NA,"DECFBGAHKIJ",NA,NA,"B (MDot First)",1,231,"SS1","SS1",8,"V","Valence","xyoebq",1,"continue","",4535.32000000001,4533.32000000001,4535.32000000001,4535.32000000001,4533.32000000001,4535.32000000001,1,4535.32000000001,0,0,NA,"Click To Continue","Continue Button",1,"object-25","V","CFD-BM-045-004-N.jpg",NA,"SUPTM05151"
"60",1689007144332,"10/07/2023 16:39:04",1689010744332,1,"10/07/2023 18:39:04",137495,33,"task-hr3w",NA,30600284,9085500,NA,"complete",NA,NA,"computer","Desktop or Laptop","Windows 10","Firefox 115.0","1920x1080","958x954",NA,NA,NA,"JV Task P2",11,"Anxious",NA,"In",NA,NA,"DECFBGAHKIJ",NA,NA,"B (MDot First)",1,231,"SS1","SS1",8,"V","Valence","xyoebq",1,"response","48",1916.66,4533.32000000001,4536.32000000001,1916.66,4533.32000000001,4536.32000000001,1,1916.66,2619.66,0,NA,"Slider","J",3,"object-27","V","CFD-BM-045-004-N.jpg",NA,"SUPTM05151"
"61",1689007145296,"10/07/2023 16:39:05",1689010745296,1,"10/07/2023 18:39:05",137495,33,"task-hr3w",NA,30600284,9085500,NA,"complete",NA,NA,"computer","Desktop or Laptop","Windows 10","Firefox 115.0","1920x1080","958x954",NA,NA,NA,"JV Task P2",11,"Anxious",NA,"In",NA,NA,"DECFBGAHKIJ",NA,NA,"B (MDot First)",1,231,"SS1","SS1",8,"V","Fixation","68owkj",2,"continue","",966.679999999993,966.679999999993,966.679999999993,966.679999999993,966.679999999993,966.679999999993,1,966.679999999993,0,0,NA,"Fixation Timing","Fixation",1,"object-21","V","CFD-BM-045-004-N.jpg",NA,"SUPTM05151"
"62",1689007148019,"10/07/2023 16:39:08",1689010748019,1,"10/07/2023 18:39:08",137495,33,"task-hr3w",NA,30600284,9085500,NA,"complete",NA,NA,"computer","Desktop or Laptop","Windows 10","Firefox 115.0","1920x1080","958x954",NA,NA,NA,"JV Task P2",11,"Anxious",NA,"In",NA,NA,"DECFBGAHKIJ",NA,NA,"B (MDot First)",1,231,"SS1","SS1",9,"V","Valence","xyoebq",1,"continue","",2722.32000000001,2716.66,2722.32000000001,2722.32000000001,2716.66,2722.32000000001,1,2722.32000000001,0,0,NA,"Click To Continue","Continue Button",1,"object-25","V","CFD-BM-016-036-N.jpg",NA,"SUPTM05151"
"63",1689007148019,"10/07/2023 16:39:08",1689010748019,1,"10/07/2023 18:39:08",137495,33,"task-hr3w",NA,30600284,9085500,NA,"complete",NA,NA,"computer","Desktop or Laptop","Windows 10","Firefox 115.0","1920x1080","958x954",NA,NA,NA,"JV Task P2",11,"Anxious",NA,"In",NA,NA,"DECFBGAHKIJ",NA,NA,"B (MDot First)",1,231,"SS1","SS1",9,"V","Valence","xyoebq",1,"response","55",1550,2716.66,2723.32000000001,1550,2716.66,2723.32000000001,1,1550,1173.32000000001,0,NA,"Slider","J",3,"object-27","V","CFD-BM-016-036-N.jpg",NA,"SUPTM05151"
"64",1689007148980,"10/07/2023 16:39:08",1689010748980,1,"10/07/2023 18:39:08",137495,33,"task-hr3w",NA,30600284,9085500,NA,"complete",NA,NA,"computer","Desktop or Laptop","Windows 10","Firefox 115.0","1920x1080","958x954",NA,NA,NA,"JV Task P2",11,"Anxious",NA,"In",NA,NA,"DECFBGAHKIJ",NA,NA,"B (MDot First)",1,231,"SS1","SS1",9,"V","Fixation","68owkj",2,"continue","",966.660000000003,966.660000000003,966.660000000003,966.660000000003,966.660000000003,966.660000000003,1,966.660000000003,0,0,NA,"Fixation Timing","Fixation",1,"object-21","V","CFD-BM-016-036-N.jpg",NA,"SUPTM05151"
"65",1689007153034,"10/07/2023 16:39:13",1689010753034,1,"10/07/2023 18:39:13",137495,33,"task-hr3w",NA,30600284,9085500,NA,"complete",NA,NA,"computer","Desktop or Laptop","Windows 10","Firefox 115.0","1920x1080","958x954",NA,NA,NA,"JV Task P2",11,"Anxious",NA,"In",NA,NA,"DECFBGAHKIJ",NA,NA,"B (MDot First)",1,231,"SS1","SS1",13,"J","Judginess","y8ii7g",1,"continue","",4055,4050,4055,4055,4050,4055,1,4055,0,0,NA,"Click To Continue","Continue Button",1,"object-14","J","CFD-WM-025-002-S.jpeg",NA,"SUPTM05151"
"66",1689007153035,"10/07/2023 16:39:13",1689010753035,1,"10/07/2023 18:39:13",137495,33,"task-hr3w",NA,30600284,9085500,NA,"complete",NA,NA,"computer","Desktop or Laptop","Windows 10","Firefox 115.0","1920x1080","958x954",NA,NA,NA,"JV Task P2",11,"Anxious",NA,"In",NA,NA,"DECFBGAHKIJ",NA,NA,"B (MDot First)",1,231,"SS1","SS1",13,"J","Judginess","y8ii7g",1,"response","35",1766.67999999999,4050,4056,1766.67999999999,4050,4056,1,1766.67999999999,2289.32000000001,0,NA,"Slider","J",3,"object-18","J","CFD-WM-025-002-S.jpeg",NA,"SUPTM05151"
"67",1689007153996,"10/07/2023 16:39:13",1689010753996,1,"10/07/2023 18:39:13",137495,33,"task-hr3w",NA,30600284,9085500,NA,"complete",NA,NA,"computer","Desktop or Laptop","Windows 10","Firefox 115.0","1920x1080","958x954",NA,NA,NA,"JV Task P2",11,"Anxious",NA,"In",NA,NA,"DECFBGAHKIJ",NA,NA,"B (MDot First)",1,231,"SS1","SS1",13,"J","Fixation","w9zir9",2,"continue","",966.679999999993,966.679999999993,966.679999999993,966.679999999993,966.679999999993,966.679999999993,1,966.679999999993,0,0,NA,"Fixation Timing","Fixation",1,"object-65","J","CFD-WM-025-002-S.jpeg",NA,"SUPTM05151"
"68",1689007156080,"10/07/2023 16:39:16",1689010756080,1,"10/07/2023 18:39:16",137495,33,"task-hr3w",NA,30600284,9085500,NA,"complete",NA,NA,"computer","Desktop or Laptop","Windows 10","Firefox 115.0","1920x1080","958x954",NA,NA,NA,"JV Task P2",11,"Anxious",NA,"In",NA,NA,"DECFBGAHKIJ",NA,NA,"B (MDot First)",1,231,"SS1","SS1",10,"V","Valence","xyoebq",1,"continue","",2083.32000000001,2066.66,2083.32000000001,2083.32000000001,2066.66,2083.32000000001,1,2083.32000000001,0,0,NA,"Click To Continue","Continue Button",1,"object-25","V","CFD-WF-039-025-H.jpeg",NA,"SUPTM05151"
"69",1689007156083,"10/07/2023 16:39:16",1689010756083,1,"10/07/2023 18:39:16",137495,33,"task-hr3w",NA,30600284,9085500,NA,"complete",NA,NA,"computer","Desktop or Laptop","Windows 10","Firefox 115.0","1920x1080","958x954",NA,NA,NA,"JV Task P2",11,"Anxious",NA,"In",NA,NA,"DECFBGAHKIJ",NA,NA,"B (MDot First)",1,231,"SS1","SS1",10,"V","Valence","xyoebq",1,"response","88",1250,2066.66,2083.32000000001,1250,2066.66,2083.32000000001,1,1250,833.320000000007,0,NA,"Slider","J",3,"object-27","V","CFD-WF-039-025-H.jpeg",NA,"SUPTM05151"
"70",1689007157030,"10/07/2023 16:39:17",1689010757030,1,"10/07/2023 18:39:17",137495,33,"task-hr3w",NA,30600284,9085500,NA,"complete",NA,NA,"computer","Desktop or Laptop","Windows 10","Firefox 115.0","1920x1080","958x954",NA,NA,NA,"JV Task P2",11,"Anxious",NA,"In",NA,NA,"DECFBGAHKIJ",NA,NA,"B (MDot First)",1,231,"SS1","SS1",10,"V","Fixation","68owkj",2,"continue","",966.660000000003,966.660000000003,966.660000000003,966.660000000003,966.660000000003,966.660000000003,1,966.660000000003,0,0,NA,"Fixation Timing","Fixation",1,"object-21","V","CFD-WF-039-025-H.jpeg",NA,"SUPTM05151"
"71",1689007159067,"10/07/2023 16:39:19",1689010759067,1,"10/07/2023 18:39:19",137495,33,"task-hr3w",NA,30600284,9085500,NA,"complete",NA,NA,"computer","Desktop or Laptop","Windows 10","Firefox 115.0","1920x1080","958x954",NA,NA,NA,"JV Task P2",11,"Anxious",NA,"In",NA,NA,"DECFBGAHKIJ",NA,NA,"B (MDot First)",1,231,"SS1","SS1",11,"V","Valence","xyoebq",1,"continue","",2037,2033.34,2037,2037,2033.34,2037,1,2037,0,0,NA,"Click To Continue","Continue Button",1,"object-25","V","CFD-WM-037-025-H.jpeg",NA,"SUPTM05151"
"72",1689007159067,"10/07/2023 16:39:19",1689010759067,1,"10/07/2023 18:39:19",137495,33,"task-hr3w",NA,30600284,9085500,NA,"complete",NA,NA,"computer","Desktop or Laptop","Windows 10","Firefox 115.0","1920x1080","958x954",NA,NA,NA,"JV Task P2",11,"Anxious",NA,"In",NA,NA,"DECFBGAHKIJ",NA,NA,"B (MDot First)",1,231,"SS1","SS1",11,"V","Valence","xyoebq",1,"response","98",916.679999999993,2033.34,2038,916.679999999993,2033.34,2038,1,916.679999999993,1121.32000000001,0,NA,"Slider","J",3,"object-27","V","CFD-WM-037-025-H.jpeg",NA,"SUPTM05151"
"73",1689007160030,"10/07/2023 16:39:20",1689010760030,1,"10/07/2023 18:39:20",137495,33,"task-hr3w",NA,30600284,9085500,NA,"complete",NA,NA,"computer","Desktop or Laptop","Windows 10","Firefox 115.0","1920x1080","958x954",NA,NA,NA,"JV Task P2",11,"Anxious",NA,"In",NA,NA,"DECFBGAHKIJ",NA,NA,"B (MDot First)",1,231,"SS1","SS1",11,"V","Fixation","68owkj",2,"continue","",966.660000000003,966.660000000003,966.660000000003,966.660000000003,966.660000000003,966.660000000003,1,966.660000000003,0,0,NA,"Fixation Timing","Fixation",1,"object-21","V","CFD-WM-037-025-H.jpeg",NA,"SUPTM05151"
"74",1689007161898,"10/07/2023 16:39:21",1689010761898,1,"10/07/2023 18:39:21",137495,33,"task-hr3w",NA,30600284,9085500,NA,"complete",NA,NA,"computer","Desktop or Laptop","Windows 10","Firefox 115.0","1920x1080","958x954",NA,NA,NA,"JV Task P2",11,"Anxious",NA,"In",NA,NA,"DECFBGAHKIJ",NA,NA,"B (MDot First)",1,231,"SS1","SS1",12,"V","Valence","xyoebq",1,"continue","",1868,1866.67999999999,1868,1868,1866.67999999999,1868,1,1868,0,0,NA,"Click To Continue","Continue Button",1,"object-25","V","CFD-WM-009-002-H.jpeg",NA,"SUPTM05151"
"75",1689007161899,"10/07/2023 16:39:21",1689010761899,1,"10/07/2023 18:39:21",137495,33,"task-hr3w",NA,30600284,9085500,NA,"complete",NA,NA,"computer","Desktop or Laptop","Windows 10","Firefox 115.0","1920x1080","958x954",NA,NA,NA,"JV Task P2",11,"Anxious",NA,"In",NA,NA,"DECFBGAHKIJ",NA,NA,"B (MDot First)",1,231,"SS1","SS1",12,"V","Valence","xyoebq",1,"response","97",1083.34,1866.67999999999,1869,1083.34,1866.67999999999,1869,1,1083.34,785.660000000003,0,NA,"Slider","J",3,"object-27","V","CFD-WM-009-002-H.jpeg",NA,"SUPTM05151"
"76",1689007162863,"10/07/2023 16:39:22",1689010762863,1,"10/07/2023 18:39:22",137495,33,"task-hr3w",NA,30600284,9085500,NA,"complete",NA,NA,"computer","Desktop or Laptop","Windows 10","Firefox 115.0","1920x1080","958x954",NA,NA,NA,"JV Task P2",11,"Anxious",NA,"In",NA,NA,"DECFBGAHKIJ",NA,NA,"B (MDot First)",1,231,"SS1","SS1",12,"V","Fixation","68owkj",2,"continue","",966.660000000003,966.660000000003,966.660000000003,966.660000000003,966.660000000003,966.660000000003,1,966.660000000003,0,0,NA,"Fixation Timing","Fixation",1,"object-21","V","CFD-WM-009-002-H.jpeg",NA,"SUPTM05151"
"77",1689007165869,"10/07/2023 16:39:25",1689010765869,1,"10/07/2023 18:39:25",137495,33,"task-hr3w",NA,30600284,9085500,NA,"complete",NA,NA,"computer","Desktop or Laptop","Windows 10","Firefox 115.0","1920x1080","958x954",NA,NA,NA,"JV Task P2",11,"Anxious",NA,"In",NA,NA,"DECFBGAHKIJ",NA,NA,"B (MDot First)",1,231,"SS1","SS1",14,"J","Judginess","y8ii7g",1,"continue","",3006.66,3000,3006.66,3006.66,3000,3006.66,1,3006.66,0,0,NA,"Click To Continue","Continue Button",1,"object-14","J","CFD-WF-027-003-S.jpeg",NA,"SUPTM05151"
"78",1689007165870,"10/07/2023 16:39:25",1689010765870,1,"10/07/2023 18:39:25",137495,33,"task-hr3w",NA,30600284,9085500,NA,"complete",NA,NA,"computer","Desktop or Laptop","Windows 10","Firefox 115.0","1920x1080","958x954",NA,NA,NA,"JV Task P2",11,"Anxious",NA,"In",NA,NA,"DECFBGAHKIJ",NA,NA,"B (MDot First)",1,231,"SS1","SS1",14,"J","Judginess","y8ii7g",1,"response","0",1466.66,3000,3007.66,1466.66,3000,3007.66,1,1466.66,1541,0,NA,"Slider","J",3,"object-18","J","CFD-WF-027-003-S.jpeg",NA,"SUPTM05151"
"79",1689007166829,"10/07/2023 16:39:26",1689010766829,1,"10/07/2023 18:39:26",137495,33,"task-hr3w",NA,30600284,9085500,NA,"complete",NA,NA,"computer","Desktop or Laptop","Windows 10","Firefox 115.0","1920x1080","958x954",NA,NA,NA,"JV Task P2",11,"Anxious",NA,"In",NA,NA,"DECFBGAHKIJ",NA,NA,"B (MDot First)",1,231,"SS1","SS1",14,"J","Fixation","w9zir9",2,"continue","",966.660000000003,966.660000000003,966.660000000003,966.660000000003,966.660000000003,966.660000000003,1,966.660000000003,0,0,NA,"Fixation Timing","Fixation",1,"object-65","J","CFD-WF-027-003-S.jpeg",NA,"SUPTM05151"
"80",1689007171193,"10/07/2023 16:39:31",1689010771193,1,"10/07/2023 18:39:31",137495,33,"task-hr3w",NA,30600284,9085500,NA,"complete",NA,NA,"computer","Desktop or Laptop","Windows 10","Firefox 115.0","1920x1080","958x954",NA,NA,NA,"JV Task P2",11,"Anxious",NA,"In",NA,NA,"DECFBGAHKIJ",NA,NA,"B (MDot First)",1,231,"SS1","SS1",13,"V","Valence","xyoebq",1,"continue","",4362,4350,4362,4362,4350,4362,1,4362,0,0,NA,"Click To Continue","Continue Button",1,"object-25","V","CFD-WM-026-001-N.jpg",NA,"SUPTM05151"
"81",1689007171195,"10/07/2023 16:39:31",1689010771195,1,"10/07/2023 18:39:31",137495,33,"task-hr3w",NA,30600284,9085500,NA,"complete",NA,NA,"computer","Desktop or Laptop","Windows 10","Firefox 115.0","1920x1080","958x954",NA,NA,NA,"JV Task P2",11,"Anxious",NA,"In",NA,NA,"DECFBGAHKIJ",NA,NA,"B (MDot First)",1,231,"SS1","SS1",13,"V","Valence","xyoebq",1,"response","33",1616.67999999999,4350,4366,1616.67999999999,4350,4366,1,1616.67999999999,2749.32000000001,0,NA,"Slider","J",3,"object-27","V","CFD-WM-026-001-N.jpg",NA,"SUPTM05151"
"82",1689007172147,"10/07/2023 16:39:32",1689010772147,1,"10/07/2023 18:39:32",137495,33,"task-hr3w",NA,30600284,9085500,NA,"complete",NA,NA,"computer","Desktop or Laptop","Windows 10","Firefox 115.0","1920x1080","958x954",NA,NA,NA,"JV Task P2",11,"Anxious",NA,"In",NA,NA,"DECFBGAHKIJ",NA,NA,"B (MDot First)",1,231,"SS1","SS1",13,"V","Fixation","68owkj",2,"continue","",966.679999999993,966.679999999993,966.679999999993,966.679999999993,966.679999999993,966.679999999993,1,966.679999999993,0,0,NA,"Fixation Timing","Fixation",1,"object-21","V","CFD-WM-026-001-N.jpg",NA,"SUPTM05151"
"83",1689007174694,"10/07/2023 16:39:34",1689010774694,1,"10/07/2023 18:39:34",137495,33,"task-hr3w",NA,30600284,9085500,NA,"complete",NA,NA,"computer","Desktop or Laptop","Windows 10","Firefox 115.0","1920x1080","958x954",NA,NA,NA,"JV Task P2",11,"Anxious",NA,"In",NA,NA,"DECFBGAHKIJ",NA,NA,"B (MDot First)",1,231,"SS1","SS1",15,"J","Judginess","y8ii7g",1,"continue","",2548.32000000001,2533.32000000001,2548.32000000001,2548.32000000001,2533.32000000001,2548.32000000001,1,2548.32000000001,0,0,NA,"Click To Continue","Continue Button",1,"object-14","J","CFD-WM-009-002-S.jpeg",NA,"SUPTM05151"
"84",1689007174695,"10/07/2023 16:39:34",1689010774695,1,"10/07/2023 18:39:34",137495,33,"task-hr3w",NA,30600284,9085500,NA,"complete",NA,NA,"computer","Desktop or Laptop","Windows 10","Firefox 115.0","1920x1080","958x954",NA,NA,NA,"JV Task P2",11,"Anxious",NA,"In",NA,NA,"DECFBGAHKIJ",NA,NA,"B (MDot First)",1,231,"SS1","SS1",15,"J","Judginess","y8ii7g",1,"response","1",1350,2533.32000000001,2549.32000000001,1350,2533.32000000001,2549.32000000001,1,1350,1199.32000000001,0,NA,"Slider","J",3,"object-18","J","CFD-WM-009-002-S.jpeg",NA,"SUPTM05151"
"85",1689007175647,"10/07/2023 16:39:35",1689010775647,1,"10/07/2023 18:39:35",137495,33,"task-hr3w",NA,30600284,9085500,NA,"complete",NA,NA,"computer","Desktop or Laptop","Windows 10","Firefox 115.0","1920x1080","958x954",NA,NA,NA,"JV Task P2",11,"Anxious",NA,"In",NA,NA,"DECFBGAHKIJ",NA,NA,"B (MDot First)",1,231,"SS1","SS1",15,"J","Fixation","w9zir9",2,"continue","",966.679999999993,966.679999999993,966.679999999993,966.679999999993,966.679999999993,966.679999999993,1,966.679999999993,0,0,NA,"Fixation Timing","Fixation",1,"object-65","J","CFD-WM-009-002-S.jpeg",NA,"SUPTM05151"
"86",1689007179562,"10/07/2023 16:39:39",1689010779562,1,"10/07/2023 18:39:39",137495,33,"task-hr3w",NA,30600284,9085500,NA,"complete",NA,NA,"computer","Desktop or Laptop","Windows 10","Firefox 115.0","1920x1080","958x954",NA,NA,NA,"JV Task P2",11,"Anxious",NA,"In",NA,NA,"DECFBGAHKIJ",NA,NA,"B (MDot First)",1,231,"SS1","SS1",14,"V","Valence","xyoebq",1,"continue","",3916.32000000001,3900,3916.32000000001,3916.32000000001,3900,3916.32000000001,1,3916.32000000001,0,0,NA,"Click To Continue","Continue Button",1,"object-25","V","CFD-MM-313-002-S.jpeg",NA,"SUPTM05151"
"87",1689007179565,"10/07/2023 16:39:39",1689010779565,1,"10/07/2023 18:39:39",137495,33,"task-hr3w",NA,30600284,9085500,NA,"complete",NA,NA,"computer","Desktop or Laptop","Windows 10","Firefox 115.0","1920x1080","958x954",NA,NA,NA,"JV Task P2",11,"Anxious",NA,"In",NA,NA,"DECFBGAHKIJ",NA,NA,"B (MDot First)",1,231,"SS1","SS1",14,"V","Valence","xyoebq",1,"response","45",1950,3900,3916.67999999999,1950,3900,3916.67999999999,1,1950,1966.67999999999,0,NA,"Slider","J",3,"object-27","V","CFD-MM-313-002-S.jpeg",NA,"SUPTM05151"
"88",1689007180513,"10/07/2023 16:39:40",1689010780513,1,"10/07/2023 18:39:40",137495,33,"task-hr3w",NA,30600284,9085500,NA,"complete",NA,NA,"computer","Desktop or Laptop","Windows 10","Firefox 115.0","1920x1080","958x954",NA,NA,NA,"JV Task P2",11,"Anxious",NA,"In",NA,NA,"DECFBGAHKIJ",NA,NA,"B (MDot First)",1,231,"SS1","SS1",14,"V","Fixation","68owkj",2,"continue","",966.660000000003,966.660000000003,966.660000000003,966.660000000003,966.660000000003,966.660000000003,1,966.660000000003,0,0,NA,"Fixation Timing","Fixation",1,"object-21","V","CFD-MM-313-002-S.jpeg",NA,"SUPTM05151"
"89",1689007183750,"10/07/2023 16:39:43",1689010783750,1,"10/07/2023 18:39:43",137495,33,"task-hr3w",NA,30600284,9085500,NA,"complete",NA,NA,"computer","Desktop or Laptop","Windows 10","Firefox 115.0","1920x1080","958x954",NA,NA,NA,"JV Task P2",11,"Anxious",NA,"In",NA,NA,"DECFBGAHKIJ",NA,NA,"B (MDot First)",1,231,"SS1","SS1",15,"V","Valence","xyoebq",1,"continue","",3236.66,3233.34,3236.66,3236.66,3233.34,3236.66,1,3236.66,0,0,NA,"Click To Continue","Continue Button",1,"object-25","V","CFD-IM-711-011-N.jpg",NA,"SUPTM05151"
"90",1689007183751,"10/07/2023 16:39:43",1689010783751,1,"10/07/2023 18:39:43",137495,33,"task-hr3w",NA,30600284,9085500,NA,"complete",NA,NA,"computer","Desktop or Laptop","Windows 10","Firefox 115.0","1920x1080","958x954",NA,NA,NA,"JV Task P2",11,"Anxious",NA,"In",NA,NA,"DECFBGAHKIJ",NA,NA,"B (MDot First)",1,231,"SS1","SS1",15,"V","Valence","xyoebq",1,"response","46",1633.34,3233.34,3238.66,1633.34,3233.34,3238.66,1,1633.34,1605.32000000001,0,NA,"Slider","J",3,"object-27","V","CFD-IM-711-011-N.jpg",NA,"SUPTM05151"
"91",1689007184713,"10/07/2023 16:39:44",1689010784713,1,"10/07/2023 18:39:44",137495,33,"task-hr3w",NA,30600284,9085500,NA,"complete",NA,NA,"computer","Desktop or Laptop","Windows 10","Firefox 115.0","1920x1080","958x954",NA,NA,NA,"JV Task P2",11,"Anxious",NA,"In",NA,NA,"DECFBGAHKIJ",NA,NA,"B (MDot First)",1,231,"SS1","SS1",15,"V","Fixation","68owkj",2,"continue","",966.660000000003,966.660000000003,966.660000000003,966.660000000003,966.660000000003,966.660000000003,1,966.660000000003,0,0,NA,"Fixation Timing","Fixation",1,"object-21","V","CFD-IM-711-011-N.jpg",NA,"SUPTM05151"
"92",1689007186843,"10/07/2023 16:39:46",1689010786843,1,"10/07/2023 18:39:46",137495,33,"task-hr3w",NA,30600284,9085500,NA,"complete",NA,NA,"computer","Desktop or Laptop","Windows 10","Firefox 115.0","1920x1080","958x954",NA,NA,NA,"JV Task P2",11,"Anxious",NA,"In",NA,NA,"DECFBGAHKIJ",NA,NA,"B (MDot First)",1,231,"SS1","SS1",16,"J","Judginess","y8ii7g",1,"continue","",2130.66,2116.66,2130.66,2130.66,2116.66,2130.66,1,2130.66,0,0,NA,"Click To Continue","Continue Button",1,"object-14","J","CFD-WF-035-024-H.jpeg",NA,"SUPTM05151"
"93",1689007186844,"10/07/2023 16:39:46",1689010786844,1,"10/07/2023 18:39:46",137495,33,"task-hr3w",NA,30600284,9085500,NA,"complete",NA,NA,"computer","Desktop or Laptop","Windows 10","Firefox 115.0","1920x1080","958x954",NA,NA,NA,"JV Task P2",11,"Anxious",NA,"In",NA,NA,"DECFBGAHKIJ",NA,NA,"B (MDot First)",1,231,"SS1","SS1",16,"J","Judginess","y8ii7g",1,"response","79",1216.66,2116.66,2130.66,1216.66,2116.66,2130.66,1,1216.66,914,0,NA,"Slider","J",3,"object-18","J","CFD-WF-035-024-H.jpeg",NA,"SUPTM05151"
"94",1689007187796,"10/07/2023 16:39:47",1689010787796,1,"10/07/2023 18:39:47",137495,33,"task-hr3w",NA,30600284,9085500,NA,"complete",NA,NA,"computer","Desktop or Laptop","Windows 10","Firefox 115.0","1920x1080","958x954",NA,NA,NA,"JV Task P2",11,"Anxious",NA,"In",NA,NA,"DECFBGAHKIJ",NA,NA,"B (MDot First)",1,231,"SS1","SS1",16,"J","Fixation","w9zir9",2,"continue","",966.679999999993,966.679999999993,966.679999999993,966.679999999993,966.679999999993,966.679999999993,1,966.679999999993,0,0,NA,"Fixation Timing","Fixation",1,"object-65","J","CFD-WF-035-024-H.jpeg",NA,"SUPTM05151"
"95",1689007189877,"10/07/2023 16:39:49",1689010789877,1,"10/07/2023 18:39:49",137495,33,"task-hr3w",NA,30600284,9085500,NA,"complete",NA,NA,"computer","Desktop or Laptop","Windows 10","Firefox 115.0","1920x1080","958x954",NA,NA,NA,"JV Task P2",11,"Anxious",NA,"In",NA,NA,"DECFBGAHKIJ",NA,NA,"B (MDot First)",1,231,"SS1","SS1",17,"J","Judginess","y8ii7g",1,"continue","",2081.32000000001,2066.66,2081.32000000001,2081.32000000001,2066.66,2081.32000000001,1,2081.32000000001,0,0,NA,"Click To Continue","Continue Button",1,"object-14","J","CFD-MF-309-002-H.jpeg",NA,"SUPTM05151"
"96",1689007189881,"10/07/2023 16:39:49",1689010789881,1,"10/07/2023 18:39:49",137495,33,"task-hr3w",NA,30600284,9085500,NA,"complete",NA,NA,"computer","Desktop or Laptop","Windows 10","Firefox 115.0","1920x1080","958x954",NA,NA,NA,"JV Task P2",11,"Anxious",NA,"In",NA,NA,"DECFBGAHKIJ",NA,NA,"B (MDot First)",1,231,"SS1","SS1",17,"J","Judginess","y8ii7g",1,"response","81",1100,2066.66,2083.32000000001,1100,2066.66,2083.32000000001,1,1100,983.320000000007,0,NA,"Slider","J",3,"object-18","J","CFD-MF-309-002-H.jpeg",NA,"SUPTM05151"
"97",1689007190830,"10/07/2023 16:39:50",1689010790830,1,"10/07/2023 18:39:50",137495,33,"task-hr3w",NA,30600284,9085500,NA,"complete",NA,NA,"computer","Desktop or Laptop","Windows 10","Firefox 115.0","1920x1080","958x954",NA,NA,NA,"JV Task P2",11,"Anxious",NA,"In",NA,NA,"DECFBGAHKIJ",NA,NA,"B (MDot First)",1,231,"SS1","SS1",17,"J","Fixation","w9zir9",2,"continue","",966.660000000003,966.660000000003,966.660000000003,966.660000000003,966.660000000003,966.660000000003,1,966.660000000003,0,0,NA,"Fixation Timing","Fixation",1,"object-65","J","CFD-MF-309-002-H.jpeg",NA,"SUPTM05151"
"98",1689007194063,"10/07/2023 16:39:54",1689010794063,1,"10/07/2023 18:39:54",137495,33,"task-hr3w",NA,30600284,9085500,NA,"complete",NA,NA,"computer","Desktop or Laptop","Windows 10","Firefox 115.0","1920x1080","958x954",NA,NA,NA,"JV Task P2",11,"Anxious",NA,"In",NA,NA,"DECFBGAHKIJ",NA,NA,"B (MDot First)",1,231,"SS1","SS1",16,"V","Valence","xyoebq",1,"continue","",3233,3216.67999999999,3233,3233,3216.67999999999,3233,1,3233,0,0,NA,"Click To Continue","Continue Button",1,"object-25","V","CFD-AM-223-138-H.jpeg",NA,"SUPTM05151"
"99",1689007194064,"10/07/2023 16:39:54",1689010794064,1,"10/07/2023 18:39:54",137495,33,"task-hr3w",NA,30600284,9085500,NA,"complete",NA,NA,"computer","Desktop or Laptop","Windows 10","Firefox 115.0","1920x1080","958x954",NA,NA,NA,"JV Task P2",11,"Anxious",NA,"In",NA,NA,"DECFBGAHKIJ",NA,NA,"B (MDot First)",1,231,"SS1","SS1",16,"V","Valence","xyoebq",1,"response","85",1133.34,3216.67999999999,3233.35999999999,1133.34,3216.67999999999,3233.35999999999,1,1133.34,2100.01999999999,0,NA,"Slider","J",3,"object-27","V","CFD-AM-223-138-H.jpeg",NA,"SUPTM05151"
"100",1689007195013,"10/07/2023 16:39:55",1689010795013,1,"10/07/2023 18:39:55",137495,33,"task-hr3w",NA,30600284,9085500,NA,"complete",NA,NA,"computer","Desktop or Laptop","Windows 10","Firefox 115.0","1920x1080","958x954",NA,NA,NA,"JV Task P2",11,"Anxious",NA,"In",NA,NA,"DECFBGAHKIJ",NA,NA,"B (MDot First)",1,231,"SS1","SS1",16,"V","Fixation","68owkj",2,"continue","",966.660000000003,966.660000000003,966.660000000003,966.660000000003,966.660000000003,966.660000000003,1,966.660000000003,0,0,NA,"Fixation Timing","Fixation",1,"object-21","V","CFD-AM-223-138-H.jpeg",NA,"SUPTM05151"
"101",1689007199898,"10/07/2023 16:39:59",1689010799898,1,"10/07/2023 18:39:59",137495,33,"task-hr3w",NA,30600284,9085500,NA,"complete",NA,NA,"computer","Desktop or Laptop","Windows 10","Firefox 115.0","1920x1080","958x954",NA,NA,NA,"JV Task P2",11,"Anxious",NA,"In",NA,NA,"DECFBGAHKIJ",NA,NA,"B (MDot First)",1,231,"SS1","SS1",18,"J","Judginess","y8ii7g",1,"continue","",4885.66,4883.34,4885.66,4885.66,4883.34,4885.66,1,4885.66,0,0,NA,"Click To Continue","Continue Button",1,"object-14","J","CFD-BF-030-002-N.jpg",NA,"SUPTM05151"
"102",1689007199901,"10/07/2023 16:39:59",1689010799901,1,"10/07/2023 18:39:59",137495,33,"task-hr3w",NA,30600284,9085500,NA,"complete",NA,NA,"computer","Desktop or Laptop","Windows 10","Firefox 115.0","1920x1080","958x954",NA,NA,NA,"JV Task P2",11,"Anxious",NA,"In",NA,NA,"DECFBGAHKIJ",NA,NA,"B (MDot First)",1,231,"SS1","SS1",18,"J","Judginess","y8ii7g",1,"response","55",1816.66,4883.34,4887.66,1816.66,4883.34,4887.66,1,1816.66,3071,0,NA,"Slider","J",3,"object-18","J","CFD-BF-030-002-N.jpg",NA,"SUPTM05151"
"103",1689007200863,"10/07/2023 16:40:00",1689010800863,1,"10/07/2023 18:40:00",137495,33,"task-hr3w",NA,30600284,9085500,NA,"complete",NA,NA,"computer","Desktop or Laptop","Windows 10","Firefox 115.0","1920x1080","958x954",NA,NA,NA,"JV Task P2",11,"Anxious",NA,"In",NA,NA,"DECFBGAHKIJ",NA,NA,"B (MDot First)",1,231,"SS1","SS1",18,"J","Fixation","w9zir9",2,"continue","",966.660000000003,966.660000000003,966.660000000003,966.660000000003,966.660000000003,966.660000000003,1,966.660000000003,0,0,NA,"Fixation Timing","Fixation",1,"object-65","J","CFD-BF-030-002-N.jpg",NA,"SUPTM05151"
"104",1689007203463,"10/07/2023 16:40:03",1689010803463,1,"10/07/2023 18:40:03",137495,33,"task-hr3w",NA,30600284,9085500,NA,"complete",NA,NA,"computer","Desktop or Laptop","Windows 10","Firefox 115.0","1920x1080","958x954",NA,NA,NA,"JV Task P2",11,"Anxious",NA,"In",NA,NA,"DECFBGAHKIJ",NA,NA,"B (MDot First)",1,231,"SS1","SS1",17,"V","Valence","xyoebq",1,"continue","",2599.66,2583.34,2599.66,2599.66,2583.34,2599.66,1,2599.66,0,0,NA,"Click To Continue","Continue Button",1,"object-25","V","CFD-MM-313-002-H.jpeg",NA,"SUPTM05151"
"105",1689007203463,"10/07/2023 16:40:03",1689010803463,1,"10/07/2023 18:40:03",137495,33,"task-hr3w",NA,30600284,9085500,NA,"complete",NA,NA,"computer","Desktop or Laptop","Windows 10","Firefox 115.0","1920x1080","958x954",NA,NA,NA,"JV Task P2",11,"Anxious",NA,"In",NA,NA,"DECFBGAHKIJ",NA,NA,"B (MDot First)",1,231,"SS1","SS1",17,"V","Valence","xyoebq",1,"response","79",1283.34,2583.34,2600.01999999999,1283.34,2583.34,2600.01999999999,1,1283.34,1316.67999999999,0,NA,"Slider","J",3,"object-27","V","CFD-MM-313-002-H.jpeg",NA,"SUPTM05151"
"106",1689007204413,"10/07/2023 16:40:04",1689010804413,1,"10/07/2023 18:40:04",137495,33,"task-hr3w",NA,30600284,9085500,NA,"complete",NA,NA,"computer","Desktop or Laptop","Windows 10","Firefox 115.0","1920x1080","958x954",NA,NA,NA,"JV Task P2",11,"Anxious",NA,"In",NA,NA,"DECFBGAHKIJ",NA,NA,"B (MDot First)",1,231,"SS1","SS1",17,"V","Fixation","68owkj",2,"continue","",966.660000000003,966.660000000003,966.660000000003,966.660000000003,966.660000000003,966.660000000003,1,966.660000000003,0,0,NA,"Fixation Timing","Fixation",1,"object-21","V","CFD-MM-313-002-H.jpeg",NA,"SUPTM05151"
"107",1689007209165,"10/07/2023 16:40:09",1689010809165,1,"10/07/2023 18:40:09",137495,33,"task-hr3w",NA,30600284,9085500,NA,"complete",NA,NA,"computer","Desktop or Laptop","Windows 10","Firefox 115.0","1920x1080","958x954",NA,NA,NA,"JV Task P2",11,"Anxious",NA,"In",NA,NA,"DECFBGAHKIJ",NA,NA,"B (MDot First)",1,231,"SS1","SS1",19,"J","Judginess","y8ii7g",1,"continue","",4752.66,4750,4752.66,4752.66,4750,4752.66,1,4752.66,0,0,NA,"Click To Continue","Continue Button",1,"object-14","J","CFD-BM-045-004-S.jpeg",NA,"SUPTM05151"
"108",1689007209165,"10/07/2023 16:40:09",1689010809165,1,"10/07/2023 18:40:09",137495,33,"task-hr3w",NA,30600284,9085500,NA,"complete",NA,NA,"computer","Desktop or Laptop","Windows 10","Firefox 115.0","1920x1080","958x954",NA,NA,NA,"JV Task P2",11,"Anxious",NA,"In",NA,NA,"DECFBGAHKIJ",NA,NA,"B (MDot First)",1,231,"SS1","SS1",19,"J","Judginess","y8ii7g",1,"response","30",1616.66,4750,4752.66,1616.66,4750,4752.66,1,1616.66,3136,0,NA,"Slider","J",3,"object-18","J","CFD-BM-045-004-S.jpeg",NA,"SUPTM05151"
"109",1689007210129,"10/07/2023 16:40:10",1689010810129,1,"10/07/2023 18:40:10",137495,33,"task-hr3w",NA,30600284,9085500,NA,"complete",NA,NA,"computer","Desktop or Laptop","Windows 10","Firefox 115.0","1920x1080","958x954",NA,NA,NA,"JV Task P2",11,"Anxious",NA,"In",NA,NA,"DECFBGAHKIJ",NA,NA,"B (MDot First)",1,231,"SS1","SS1",19,"J","Fixation","w9zir9",2,"continue","",966.660000000003,966.660000000003,966.660000000003,966.660000000003,966.660000000003,966.660000000003,1,966.660000000003,0,0,NA,"Fixation Timing","Fixation",1,"object-65","J","CFD-BM-045-004-S.jpeg",NA,"SUPTM05151"
"110",1689007212483,"10/07/2023 16:40:12",1689010812483,1,"10/07/2023 18:40:12",137495,33,"task-hr3w",NA,30600284,9085500,NA,"complete",NA,NA,"computer","Desktop or Laptop","Windows 10","Firefox 115.0","1920x1080","958x954",NA,NA,NA,"JV Task P2",11,"Anxious",NA,"In",NA,NA,"DECFBGAHKIJ",NA,NA,"B (MDot First)",1,231,"SS1","SS1",20,"J","Judginess","y8ii7g",1,"continue","",2354,2350,2354,2354,2350,2354,1,2354,0,0,NA,"Click To Continue","Continue Button",1,"object-14","J","CFD-WM-019-003-H.jpeg",NA,"SUPTM05151"
"111",1689007212484,"10/07/2023 16:40:12",1689010812484,1,"10/07/2023 18:40:12",137495,33,"task-hr3w",NA,30600284,9085500,NA,"complete",NA,NA,"computer","Desktop or Laptop","Windows 10","Firefox 115.0","1920x1080","958x954",NA,NA,NA,"JV Task P2",11,"Anxious",NA,"In",NA,NA,"DECFBGAHKIJ",NA,NA,"B (MDot First)",1,231,"SS1","SS1",20,"J","Judginess","y8ii7g",1,"response","89",1266.67999999999,2350,2355,1266.67999999999,2350,2355,1,1266.67999999999,1088.32000000001,0,NA,"Slider","J",3,"object-18","J","CFD-WM-019-003-H.jpeg",NA,"SUPTM05151"
"112",1689007213446,"10/07/2023 16:40:13",1689010813446,1,"10/07/2023 18:40:13",137495,33,"task-hr3w",NA,30600284,9085500,NA,"complete",NA,NA,"computer","Desktop or Laptop","Windows 10","Firefox 115.0","1920x1080","958x954",NA,NA,NA,"JV Task P2",11,"Anxious",NA,"In",NA,NA,"DECFBGAHKIJ",NA,NA,"B (MDot First)",1,231,"SS1","SS1",20,"J","Fixation","w9zir9",2,"continue","",966.679999999993,966.679999999993,966.679999999993,966.679999999993,966.679999999993,966.679999999993,1,966.679999999993,0,0,NA,"Fixation Timing","Fixation",1,"object-65","J","CFD-WM-019-003-H.jpeg",NA,"SUPTM05151"
"113",1689007215974,"10/07/2023 16:40:15",1689010815974,1,"10/07/2023 18:40:15",137495,33,"task-hr3w",NA,30600284,9085500,NA,"complete",NA,NA,"computer","Desktop or Laptop","Windows 10","Firefox 115.0","1920x1080","958x954",NA,NA,NA,"JV Task P2",11,"Anxious",NA,"In",NA,NA,"DECFBGAHKIJ",NA,NA,"B (MDot First)",1,231,"SS1","SS1",21,"J","Judginess","y8ii7g",1,"continue","",2527.32000000001,2516.66,2527.32000000001,2527.32000000001,2516.66,2527.32000000001,1,2527.32000000001,0,0,NA,"Click To Continue","Continue Button",1,"object-14","J","CFD-BM-028-002-N.jpg",NA,"SUPTM05151"
"114",1689007215974,"10/07/2023 16:40:15",1689010815974,1,"10/07/2023 18:40:15",137495,33,"task-hr3w",NA,30600284,9085500,NA,"complete",NA,NA,"computer","Desktop or Laptop","Windows 10","Firefox 115.0","1920x1080","958x954",NA,NA,NA,"JV Task P2",11,"Anxious",NA,"In",NA,NA,"DECFBGAHKIJ",NA,NA,"B (MDot First)",1,231,"SS1","SS1",21,"J","Judginess","y8ii7g",1,"response","9",1400,2516.66,2528.32000000001,1400,2516.66,2528.32000000001,1,1400,1128.32000000001,0,NA,"Slider","J",3,"object-18","J","CFD-BM-028-002-N.jpg",NA,"SUPTM05151"
"115",1689007216930,"10/07/2023 16:40:16",1689010816930,1,"10/07/2023 18:40:16",137495,33,"task-hr3w",NA,30600284,9085500,NA,"complete",NA,NA,"computer","Desktop or Laptop","Windows 10","Firefox 115.0","1920x1080","958x954",NA,NA,NA,"JV Task P2",11,"Anxious",NA,"In",NA,NA,"DECFBGAHKIJ",NA,NA,"B (MDot First)",1,231,"SS1","SS1",21,"J","Fixation","w9zir9",2,"continue","",966.660000000003,966.660000000003,966.660000000003,966.660000000003,966.660000000003,966.660000000003,1,966.660000000003,0,0,NA,"Fixation Timing","Fixation",1,"object-65","J","CFD-BM-028-002-N.jpg",NA,"SUPTM05151"
"116",1689007219786,"10/07/2023 16:40:19",1689010819786,1,"10/07/2023 18:40:19",137495,33,"task-hr3w",NA,30600284,9085500,NA,"complete",NA,NA,"computer","Desktop or Laptop","Windows 10","Firefox 115.0","1920x1080","958x954",NA,NA,NA,"JV Task P2",11,"Anxious",NA,"In",NA,NA,"DECFBGAHKIJ",NA,NA,"B (MDot First)",1,231,"SS1","SS1",22,"J","Judginess","y8ii7g",1,"continue","",2856,2850,2856,2856,2850,2856,1,2856,0,0,NA,"Click To Continue","Continue Button",1,"object-14","J","CFD-WF-022-017-N.jpg",NA,"SUPTM05151"
"117",1689007219786,"10/07/2023 16:40:19",1689010819786,1,"10/07/2023 18:40:19",137495,33,"task-hr3w",NA,30600284,9085500,NA,"complete",NA,NA,"computer","Desktop or Laptop","Windows 10","Firefox 115.0","1920x1080","958x954",NA,NA,NA,"JV Task P2",11,"Anxious",NA,"In",NA,NA,"DECFBGAHKIJ",NA,NA,"B (MDot First)",1,231,"SS1","SS1",22,"J","Judginess","y8ii7g",1,"response","34",1533.34,2850,2857,1533.34,2850,2857,1,1533.34,1323.66,0,NA,"Slider","J",3,"object-18","J","CFD-WF-022-017-N.jpg",NA,"SUPTM05151"
"118",1689007220746,"10/07/2023 16:40:20",1689010820746,1,"10/07/2023 18:40:20",137495,33,"task-hr3w",NA,30600284,9085500,NA,"complete",NA,NA,"computer","Desktop or Laptop","Windows 10","Firefox 115.0","1920x1080","958x954",NA,NA,NA,"JV Task P2",11,"Anxious",NA,"In",NA,NA,"DECFBGAHKIJ",NA,NA,"B (MDot First)",1,231,"SS1","SS1",22,"J","Fixation","w9zir9",2,"continue","",966.679999999993,966.679999999993,966.679999999993,966.679999999993,966.679999999993,966.679999999993,1,966.679999999993,0,0,NA,"Fixation Timing","Fixation",1,"object-65","J","CFD-WF-022-017-N.jpg",NA,"SUPTM05151"
"119",1689007224021,"10/07/2023 16:40:24",1689010824021,1,"10/07/2023 18:40:24",137495,33,"task-hr3w",NA,30600284,9085500,NA,"complete",NA,NA,"computer","Desktop or Laptop","Windows 10","Firefox 115.0","1920x1080","958x954",NA,NA,NA,"JV Task P2",11,"Anxious",NA,"In",NA,NA,"DECFBGAHKIJ",NA,NA,"B (MDot First)",1,231,"SS1","SS1",18,"V","Valence","xyoebq",1,"continue","",3275.32000000001,3266.66,3275.32000000001,3275.32000000001,3266.66,3275.32000000001,1,3275.32000000001,0,0,NA,"Click To Continue","Continue Button",1,"object-25","V","CFD-WM-028-003-S.jpeg",NA,"SUPTM05151"
"120",1689007224022,"10/07/2023 16:40:24",1689010824022,1,"10/07/2023 18:40:24",137495,33,"task-hr3w",NA,30600284,9085500,NA,"complete",NA,NA,"computer","Desktop or Laptop","Windows 10","Firefox 115.0","1920x1080","958x954",NA,NA,NA,"JV Task P2",11,"Anxious",NA,"In",NA,NA,"DECFBGAHKIJ",NA,NA,"B (MDot First)",1,231,"SS1","SS1",18,"V","Valence","xyoebq",1,"response","34",1233.32000000001,3266.66,3276.32000000001,1233.32000000001,3266.66,3276.32000000001,1,1233.32000000001,2043,0,NA,"Slider","J",3,"object-27","V","CFD-WM-028-003-S.jpeg",NA,"SUPTM05151"
"121",1689007224979,"10/07/2023 16:40:24",1689010824979,1,"10/07/2023 18:40:24",137495,33,"task-hr3w",NA,30600284,9085500,NA,"complete",NA,NA,"computer","Desktop or Laptop","Windows 10","Firefox 115.0","1920x1080","958x954",NA,NA,NA,"JV Task P2",11,"Anxious",NA,"In",NA,NA,"DECFBGAHKIJ",NA,NA,"B (MDot First)",1,231,"SS1","SS1",18,"V","Fixation","68owkj",2,"continue","",966.660000000003,966.660000000003,966.660000000003,966.660000000003,966.660000000003,966.660000000003,1,966.660000000003,0,0,NA,"Fixation Timing","Fixation",1,"object-21","V","CFD-WM-028-003-S.jpeg",NA,"SUPTM05151"
"122",1689007227310,"10/07/2023 16:40:27",1689010827310,1,"10/07/2023 18:40:27",137495,33,"task-hr3w",NA,30600284,9085500,NA,"complete",NA,NA,"computer","Desktop or Laptop","Windows 10","Firefox 115.0","1920x1080","958x954",NA,NA,NA,"JV Task P2",11,"Anxious",NA,"In",NA,NA,"DECFBGAHKIJ",NA,NA,"B (MDot First)",1,231,"SS1","SS1",19,"V","Valence","xyoebq",1,"continue","",2331,2316.67999999999,2331,2331,2316.67999999999,2331,1,2331,0,0,NA,"Click To Continue","Continue Button",1,"object-25","V","CFD-AF-233-190-H.jpeg",NA,"SUPTM05151"
"123",1689007227311,"10/07/2023 16:40:27",1689010827311,1,"10/07/2023 18:40:27",137495,33,"task-hr3w",NA,30600284,9085500,NA,"complete",NA,NA,"computer","Desktop or Laptop","Windows 10","Firefox 115.0","1920x1080","958x954",NA,NA,NA,"JV Task P2",11,"Anxious",NA,"In",NA,NA,"DECFBGAHKIJ",NA,NA,"B (MDot First)",1,231,"SS1","SS1",19,"V","Valence","xyoebq",1,"response","76",1216.67999999999,2316.67999999999,2332,1216.67999999999,2316.67999999999,2332,1,1216.67999999999,1115.32000000001,0,NA,"Slider","J",3,"object-27","V","CFD-AF-233-190-H.jpeg",NA,"SUPTM05151"
"124",1689007228263,"10/07/2023 16:40:28",1689010828263,1,"10/07/2023 18:40:28",137495,33,"task-hr3w",NA,30600284,9085500,NA,"complete",NA,NA,"computer","Desktop or Laptop","Windows 10","Firefox 115.0","1920x1080","958x954",NA,NA,NA,"JV Task P2",11,"Anxious",NA,"In",NA,NA,"DECFBGAHKIJ",NA,NA,"B (MDot First)",1,231,"SS1","SS1",19,"V","Fixation","68owkj",2,"continue","",966.660000000003,966.660000000003,966.660000000003,966.660000000003,966.660000000003,966.660000000003,1,966.660000000003,0,0,NA,"Fixation Timing","Fixation",1,"object-21","V","CFD-AF-233-190-H.jpeg",NA,"SUPTM05151"
"125",1689007232249,"10/07/2023 16:40:32",1689010832249,1,"10/07/2023 18:40:32",137495,33,"task-hr3w",NA,30600284,9085500,NA,"complete",NA,NA,"computer","Desktop or Laptop","Windows 10","Firefox 115.0","1920x1080","958x954",NA,NA,NA,"JV Task P2",11,"Anxious",NA,"In",NA,NA,"DECFBGAHKIJ",NA,NA,"B (MDot First)",1,231,"SS1","SS1",20,"V","Valence","xyoebq",1,"continue","",3986.66,3983.34,3986.66,3986.66,3983.34,3986.66,1,3986.66,0,0,NA,"Click To Continue","Continue Button",1,"object-25","V","CFD-BF-030-002-S.jpeg",NA,"SUPTM05151"
"126",1689007232251,"10/07/2023 16:40:32",1689010832251,1,"10/07/2023 18:40:32",137495,33,"task-hr3w",NA,30600284,9085500,NA,"complete",NA,NA,"computer","Desktop or Laptop","Windows 10","Firefox 115.0","1920x1080","958x954",NA,NA,NA,"JV Task P2",11,"Anxious",NA,"In",NA,NA,"DECFBGAHKIJ",NA,NA,"B (MDot First)",1,231,"SS1","SS1",20,"V","Valence","xyoebq",1,"response","45",1850,3983.34,3988.66,1850,3983.34,3988.66,1,1850,2138.66,0,NA,"Slider","J",3,"object-27","V","CFD-BF-030-002-S.jpeg",NA,"SUPTM05151"
"127",1689007233213,"10/07/2023 16:40:33",1689010833213,1,"10/07/2023 18:40:33",137495,33,"task-hr3w",NA,30600284,9085500,NA,"complete",NA,NA,"computer","Desktop or Laptop","Windows 10","Firefox 115.0","1920x1080","958x954",NA,NA,NA,"JV Task P2",11,"Anxious",NA,"In",NA,NA,"DECFBGAHKIJ",NA,NA,"B (MDot First)",1,231,"SS1","SS1",20,"V","Fixation","68owkj",2,"continue","",966.660000000003,966.660000000003,966.660000000003,966.660000000003,966.660000000003,966.660000000003,1,966.660000000003,0,0,NA,"Fixation Timing","Fixation",1,"object-21","V","CFD-BF-030-002-S.jpeg",NA,"SUPTM05151"
"128",1689007235735,"10/07/2023 16:40:35",1689010835735,1,"10/07/2023 18:40:35",137495,33,"task-hr3w",NA,30600284,9085500,NA,"complete",NA,NA,"computer","Desktop or Laptop","Windows 10","Firefox 115.0","1920x1080","958x954",NA,NA,NA,"JV Task P2",11,"Anxious",NA,"In",NA,NA,"DECFBGAHKIJ",NA,NA,"B (MDot First)",1,231,"SS1","SS1",21,"V","Valence","xyoebq",1,"continue","",2520.66,2516.67999999999,2520.66,2520.66,2516.67999999999,2520.66,1,2520.66,0,0,NA,"Click To Continue","Continue Button",1,"object-25","V","CFD-WM-026-001-H.jpeg",NA,"SUPTM05151"
"129",1689007235738,"10/07/2023 16:40:35",1689010835738,1,"10/07/2023 18:40:35",137495,33,"task-hr3w",NA,30600284,9085500,NA,"complete",NA,NA,"computer","Desktop or Laptop","Windows 10","Firefox 115.0","1920x1080","958x954",NA,NA,NA,"JV Task P2",11,"Anxious",NA,"In",NA,NA,"DECFBGAHKIJ",NA,NA,"B (MDot First)",1,231,"SS1","SS1",21,"V","Valence","xyoebq",1,"response","79",1300,2516.67999999999,2525.66,1300,2516.67999999999,2525.66,1,1300,1225.66,0,NA,"Slider","J",3,"object-27","V","CFD-WM-026-001-H.jpeg",NA,"SUPTM05151"
"130",1689007236696,"10/07/2023 16:40:36",1689010836696,1,"10/07/2023 18:40:36",137495,33,"task-hr3w",NA,30600284,9085500,NA,"complete",NA,NA,"computer","Desktop or Laptop","Windows 10","Firefox 115.0","1920x1080","958x954",NA,NA,NA,"JV Task P2",11,"Anxious",NA,"In",NA,NA,"DECFBGAHKIJ",NA,NA,"B (MDot First)",1,231,"SS1","SS1",21,"V","Fixation","68owkj",2,"continue","",966.660000000003,966.660000000003,966.660000000003,966.660000000003,966.660000000003,966.660000000003,1,966.660000000003,0,0,NA,"Fixation Timing","Fixation",1,"object-21","V","CFD-WM-026-001-H.jpeg",NA,"SUPTM05151"
"131",1689007239035,"10/07/2023 16:40:39",1689010839035,1,"10/07/2023 18:40:39",137495,33,"task-hr3w",NA,30600284,9085500,NA,"complete",NA,NA,"computer","Desktop or Laptop","Windows 10","Firefox 115.0","1920x1080","958x954",NA,NA,NA,"JV Task P2",11,"Anxious",NA,"In",NA,NA,"DECFBGAHKIJ",NA,NA,"B (MDot First)",1,231,"SS1","SS1",22,"V","Valence","xyoebq",1,"continue","",2338.32000000001,2333.34,2338.32000000001,2338.32000000001,2333.34,2338.32000000001,1,2338.32000000001,0,0,NA,"Click To Continue","Continue Button",1,"object-25","V","CFD-IM-711-011-S.jpeg",NA,"SUPTM05151"
"132",1689007239035,"10/07/2023 16:40:39",1689010839035,1,"10/07/2023 18:40:39",137495,33,"task-hr3w",NA,30600284,9085500,NA,"complete",NA,NA,"computer","Desktop or Laptop","Windows 10","Firefox 115.0","1920x1080","958x954",NA,NA,NA,"JV Task P2",11,"Anxious",NA,"In",NA,NA,"DECFBGAHKIJ",NA,NA,"B (MDot First)",1,231,"SS1","SS1",22,"V","Valence","xyoebq",1,"response","45",1250,2333.34,2339.32000000001,1250,2333.34,2339.32000000001,1,1250,1089.32000000001,0,NA,"Slider","J",3,"object-27","V","CFD-IM-711-011-S.jpeg",NA,"SUPTM05151"
"133",1689007239996,"10/07/2023 16:40:39",1689010839996,1,"10/07/2023 18:40:39",137495,33,"task-hr3w",NA,30600284,9085500,NA,"complete",NA,NA,"computer","Desktop or Laptop","Windows 10","Firefox 115.0","1920x1080","958x954",NA,NA,NA,"JV Task P2",11,"Anxious",NA,"In",NA,NA,"DECFBGAHKIJ",NA,NA,"B (MDot First)",1,231,"SS1","SS1",22,"V","Fixation","68owkj",2,"continue","",966.660000000003,966.660000000003,966.660000000003,966.660000000003,966.660000000003,966.660000000003,1,966.660000000003,0,0,NA,"Fixation Timing","Fixation",1,"object-21","V","CFD-IM-711-011-S.jpeg",NA,"SUPTM05151"
"134",1689007243917,"10/07/2023 16:40:43",1689010843917,1,"10/07/2023 18:40:43",137495,33,"task-hr3w",NA,30600284,9085500,NA,"complete",NA,NA,"computer","Desktop or Laptop","Windows 10","Firefox 115.0","1920x1080","958x954",NA,NA,NA,"JV Task P2",11,"Anxious",NA,"In",NA,NA,"DECFBGAHKIJ",NA,NA,"B (MDot First)",1,231,"SS1","SS1",23,"J","Judginess","y8ii7g",1,"continue","",3920.32000000001,3916.66,3920.32000000001,3920.32000000001,3916.66,3920.32000000001,1,3920.32000000001,0,0,NA,"Click To Continue","Continue Button",1,"object-14","J","CFD-WF-030-002-S.jpeg",NA,"SUPTM05151"
"135",1689007243919,"10/07/2023 16:40:43",1689010843919,1,"10/07/2023 18:40:43",137495,33,"task-hr3w",NA,30600284,9085500,NA,"complete",NA,NA,"computer","Desktop or Laptop","Windows 10","Firefox 115.0","1920x1080","958x954",NA,NA,NA,"JV Task P2",11,"Anxious",NA,"In",NA,NA,"DECFBGAHKIJ",NA,NA,"B (MDot First)",1,231,"SS1","SS1",23,"J","Judginess","y8ii7g",1,"response","30",1316.66,3916.66,3923.32000000001,1316.66,3916.66,3923.32000000001,1,1316.66,2606.66,0,NA,"Slider","J",3,"object-18","J","CFD-WF-030-002-S.jpeg",NA,"SUPTM05151"
"136",1689007244879,"10/07/2023 16:40:44",1689010844879,1,"10/07/2023 18:40:44",137495,33,"task-hr3w",NA,30600284,9085500,NA,"complete",NA,NA,"computer","Desktop or Laptop","Windows 10","Firefox 115.0","1920x1080","958x954",NA,NA,NA,"JV Task P2",11,"Anxious",NA,"In",NA,NA,"DECFBGAHKIJ",NA,NA,"B (MDot First)",1,231,"SS1","SS1",23,"J","Fixation","w9zir9",2,"continue","",966.679999999993,966.679999999993,966.679999999993,966.679999999993,966.679999999993,966.679999999993,1,966.679999999993,0,0,NA,"Fixation Timing","Fixation",1,"object-65","J","CFD-WF-030-002-S.jpeg",NA,"SUPTM05151"
"137",1689007247803,"10/07/2023 16:40:47",1689010847803,1,"10/07/2023 18:40:47",137495,33,"task-hr3w",NA,30600284,9085500,NA,"complete",NA,NA,"computer","Desktop or Laptop","Windows 10","Firefox 115.0","1920x1080","958x954",NA,NA,NA,"JV Task P2",11,"Anxious",NA,"In",NA,NA,"DECFBGAHKIJ",NA,NA,"B (MDot First)",1,231,"SS1","SS1",23,"V","Valence","xyoebq",1,"continue","",2923.98000000001,2916.66,2923.98000000001,2923.98000000001,2916.66,2923.98000000001,1,2923.98000000001,0,0,NA,"Click To Continue","Continue Button",1,"object-25","V","CFD-BF-008-001-H.jpeg",NA,"SUPTM05151"
"138",1689007247805,"10/07/2023 16:40:47",1689010847805,1,"10/07/2023 18:40:47",137495,33,"task-hr3w",NA,30600284,9085500,NA,"complete",NA,NA,"computer","Desktop or Laptop","Windows 10","Firefox 115.0","1920x1080","958x954",NA,NA,NA,"JV Task P2",11,"Anxious",NA,"In",NA,NA,"DECFBGAHKIJ",NA,NA,"B (MDot First)",1,231,"SS1","SS1",23,"V","Valence","xyoebq",1,"response","73",1266.66,2916.66,2925.98000000001,1266.66,2916.66,2925.98000000001,1,1266.66,1659.32000000001,0,NA,"Slider","J",3,"object-27","V","CFD-BF-008-001-H.jpeg",NA,"SUPTM05151"
"139",1689007248763,"10/07/2023 16:40:48",1689010848763,1,"10/07/2023 18:40:48",137495,33,"task-hr3w",NA,30600284,9085500,NA,"complete",NA,NA,"computer","Desktop or Laptop","Windows 10","Firefox 115.0","1920x1080","958x954",NA,NA,NA,"JV Task P2",11,"Anxious",NA,"In",NA,NA,"DECFBGAHKIJ",NA,NA,"B (MDot First)",1,231,"SS1","SS1",23,"V","Fixation","68owkj",2,"continue","",966.660000000003,966.660000000003,966.660000000003,966.660000000003,966.660000000003,966.660000000003,1,966.660000000003,0,0,NA,"Fixation Timing","Fixation",1,"object-21","V","CFD-BF-008-001-H.jpeg",NA,"SUPTM05151"
"140",1689007253287,"10/07/2023 16:40:53",1689010853287,1,"10/07/2023 18:40:53",137495,33,"task-hr3w",NA,30600284,9085500,NA,"complete",NA,NA,"computer","Desktop or Laptop","Windows 10","Firefox 115.0","1920x1080","958x954",NA,NA,NA,"JV Task P2",11,"Anxious",NA,"In",NA,NA,"DECFBGAHKIJ",NA,NA,"B (MDot First)",1,231,"SS1","SS1",24,"J","Judginess","y8ii7g",1,"continue","",4524.66,4516.67999999999,4524.66,4524.66,4516.67999999999,4524.66,1,4524.66,0,0,NA,"Click To Continue","Continue Button",1,"object-14","J","CFD-WF-035-024-S.jpeg",NA,"SUPTM05151"
"141",1689007253288,"10/07/2023 16:40:53",1689010853288,1,"10/07/2023 18:40:53",137495,33,"task-hr3w",NA,30600284,9085500,NA,"complete",NA,NA,"computer","Desktop or Laptop","Windows 10","Firefox 115.0","1920x1080","958x954",NA,NA,NA,"JV Task P2",11,"Anxious",NA,"In",NA,NA,"DECFBGAHKIJ",NA,NA,"B (MDot First)",1,231,"SS1","SS1",24,"J","Judginess","y8ii7g",1,"response","33",1716.67999999999,4516.67999999999,4525.66,1716.67999999999,4516.67999999999,4525.66,1,1716.67999999999,2808.98000000001,0,NA,"Slider","J",3,"object-18","J","CFD-WF-035-024-S.jpeg",NA,"SUPTM05151"
"142",1689007254246,"10/07/2023 16:40:54",1689010854246,1,"10/07/2023 18:40:54",137495,33,"task-hr3w",NA,30600284,9085500,NA,"complete",NA,NA,"computer","Desktop or Laptop","Windows 10","Firefox 115.0","1920x1080","958x954",NA,NA,NA,"JV Task P2",11,"Anxious",NA,"In",NA,NA,"DECFBGAHKIJ",NA,NA,"B (MDot First)",1,231,"SS1","SS1",24,"J","Fixation","w9zir9",2,"continue","",966.660000000003,966.660000000003,966.660000000003,966.660000000003,966.660000000003,966.660000000003,1,966.660000000003,0,0,NA,"Fixation Timing","Fixation",1,"object-65","J","CFD-WF-035-024-S.jpeg",NA,"SUPTM05151"
"143",1689007256555,"10/07/2023 16:40:56",1689010856555,1,"10/07/2023 18:40:56",137495,33,"task-hr3w",NA,30600284,9085500,NA,"complete",NA,NA,"computer","Desktop or Laptop","Windows 10","Firefox 115.0","1920x1080","958x954",NA,NA,NA,"JV Task P2",11,"Anxious",NA,"In",NA,NA,"DECFBGAHKIJ",NA,NA,"B (MDot First)",1,231,"SS1","SS1",24,"V","Valence","xyoebq",1,"continue","",2309.32000000001,2300,2309.32000000001,2309.32000000001,2300,2309.32000000001,1,2309.32000000001,0,0,NA,"Click To Continue","Continue Button",1,"object-25","V","CFD-WF-012-002-H.jpeg",NA,"SUPTM05151"
"144",1689007256556,"10/07/2023 16:40:56",1689010856556,1,"10/07/2023 18:40:56",137495,33,"task-hr3w",NA,30600284,9085500,NA,"complete",NA,NA,"computer","Desktop or Laptop","Windows 10","Firefox 115.0","1920x1080","958x954",NA,NA,NA,"JV Task P2",11,"Anxious",NA,"In",NA,NA,"DECFBGAHKIJ",NA,NA,"B (MDot First)",1,231,"SS1","SS1",24,"V","Valence","xyoebq",1,"response","82",1200,2300,2310.32000000001,1200,2300,2310.32000000001,1,1200,1110.32000000001,0,NA,"Slider","J",3,"object-27","V","CFD-WF-012-002-H.jpeg",NA,"SUPTM05151"
"145",1689007257513,"10/07/2023 16:40:57",1689010857513,1,"10/07/2023 18:40:57",137495,33,"task-hr3w",NA,30600284,9085500,NA,"complete",NA,NA,"computer","Desktop or Laptop","Windows 10","Firefox 115.0","1920x1080","958x954",NA,NA,NA,"JV Task P2",11,"Anxious",NA,"In",NA,NA,"DECFBGAHKIJ",NA,NA,"B (MDot First)",1,231,"SS1","SS1",24,"V","Fixation","68owkj",2,"continue","",966.660000000003,966.660000000003,966.660000000003,966.660000000003,966.660000000003,966.660000000003,1,966.660000000003,0,0,NA,"Fixation Timing","Fixation",1,"object-21","V","CFD-WF-012-002-H.jpeg",NA,"SUPTM05151"
"146",1689007259887,"10/07/2023 16:40:59",1689010859887,1,"10/07/2023 18:40:59",137495,33,"task-hr3w",NA,30600284,9085500,NA,"complete",NA,NA,"computer","Desktop or Laptop","Windows 10","Firefox 115.0","1920x1080","958x954",NA,NA,NA,"JV Task P2",11,"Anxious",NA,"In",NA,NA,"DECFBGAHKIJ",NA,NA,"B (MDot First)",1,231,"SS1","SS1",25,"J","Judginess","y8ii7g",1,"continue","",2375.66,2366.67999999999,2375.66,2375.66,2366.67999999999,2375.66,1,2375.66,0,0,NA,"Click To Continue","Continue Button",1,"object-14","J","CFD-WF-036-023-H.jpeg",NA,"SUPTM05151"
"147",1689007259888,"10/07/2023 16:40:59",1689010859888,1,"10/07/2023 18:40:59",137495,33,"task-hr3w",NA,30600284,9085500,NA,"complete",NA,NA,"computer","Desktop or Laptop","Windows 10","Firefox 115.0","1920x1080","958x954",NA,NA,NA,"JV Task P2",11,"Anxious",NA,"In",NA,NA,"DECFBGAHKIJ",NA,NA,"B (MDot First)",1,231,"SS1","SS1",25,"J","Judginess","y8ii7g",1,"response","75",1333.34,2366.67999999999,2375.66,1333.34,2366.67999999999,2375.66,1,1333.34,1042.32000000001,0,NA,"Slider","J",3,"object-18","J","CFD-WF-036-023-H.jpeg",NA,"SUPTM05151"
"148",1689007260846,"10/07/2023 16:41:00",1689010860846,1,"10/07/2023 18:41:00",137495,33,"task-hr3w",NA,30600284,9085500,NA,"complete",NA,NA,"computer","Desktop or Laptop","Windows 10","Firefox 115.0","1920x1080","958x954",NA,NA,NA,"JV Task P2",11,"Anxious",NA,"In",NA,NA,"DECFBGAHKIJ",NA,NA,"B (MDot First)",1,231,"SS1","SS1",25,"J","Fixation","w9zir9",2,"continue","",966.660000000003,966.660000000003,966.660000000003,966.660000000003,966.660000000003,966.660000000003,1,966.660000000003,0,0,NA,"Fixation Timing","Fixation",1,"object-65","J","CFD-WF-036-023-H.jpeg",NA,"SUPTM05151"
"149",1689007263308,"10/07/2023 16:41:03",1689010863308,1,"10/07/2023 18:41:03",137495,33,"task-hr3w",NA,30600284,9085500,NA,"complete",NA,NA,"computer","Desktop or Laptop","Windows 10","Firefox 115.0","1920x1080","958x954",NA,NA,NA,"JV Task P2",11,"Anxious",NA,"In",NA,NA,"DECFBGAHKIJ",NA,NA,"B (MDot First)",1,231,"SS1","SS1",26,"J","Judginess","y8ii7g",1,"continue","",2462.32000000001,2450,2462.32000000001,2462.32000000001,2450,2462.32000000001,1,2462.32000000001,0,0,NA,"Click To Continue","Continue Button",1,"object-14","J","CFD-WM-031-003-H.jpeg",NA,"SUPTM05151"
"150",1689007263308,"10/07/2023 16:41:03",1689010863308,1,"10/07/2023 18:41:03",137495,33,"task-hr3w",NA,30600284,9085500,NA,"complete",NA,NA,"computer","Desktop or Laptop","Windows 10","Firefox 115.0","1920x1080","958x954",NA,NA,NA,"JV Task P2",11,"Anxious",NA,"In",NA,NA,"DECFBGAHKIJ",NA,NA,"B (MDot First)",1,231,"SS1","SS1",26,"J","Judginess","y8ii7g",1,"response","71",1216.66,2450,2462.32000000001,1216.66,2450,2462.32000000001,1,1216.66,1245.66,0,NA,"Slider","J",3,"object-18","J","CFD-WM-031-003-H.jpeg",NA,"SUPTM05151"
"151",1689007264262,"10/07/2023 16:41:04",1689010864262,1,"10/07/2023 18:41:04",137495,33,"task-hr3w",NA,30600284,9085500,NA,"complete",NA,NA,"computer","Desktop or Laptop","Windows 10","Firefox 115.0","1920x1080","958x954",NA,NA,NA,"JV Task P2",11,"Anxious",NA,"In",NA,NA,"DECFBGAHKIJ",NA,NA,"B (MDot First)",1,231,"SS1","SS1",26,"J","Fixation","w9zir9",2,"continue","",966.660000000003,966.660000000003,966.660000000003,966.660000000003,966.660000000003,966.660000000003,1,966.660000000003,0,0,NA,"Fixation Timing","Fixation",1,"object-65","J","CFD-WM-031-003-H.jpeg",NA,"SUPTM05151"
"152",1689007266642,"10/07/2023 16:41:06",1689010866642,1,"10/07/2023 18:41:06",137495,33,"task-hr3w",NA,30600284,9085500,NA,"complete",NA,NA,"computer","Desktop or Laptop","Windows 10","Firefox 115.0","1920x1080","958x954",NA,NA,NA,"JV Task P2",11,"Anxious",NA,"In",NA,NA,"DECFBGAHKIJ",NA,NA,"B (MDot First)",1,231,"SS1","SS1",27,"J","Judginess","y8ii7g",1,"continue","",2379.66,2366.67999999999,2379.66,2379.66,2366.67999999999,2379.66,1,2379.66,0,0,NA,"Click To Continue","Continue Button",1,"object-14","J","CFD-BF-030-002-H.jpeg",NA,"SUPTM05151"
"153",1689007266643,"10/07/2023 16:41:06",1689010866643,1,"10/07/2023 18:41:06",137495,33,"task-hr3w",NA,30600284,9085500,NA,"complete",NA,NA,"computer","Desktop or Laptop","Windows 10","Firefox 115.0","1920x1080","958x954",NA,NA,NA,"JV Task P2",11,"Anxious",NA,"In",NA,NA,"DECFBGAHKIJ",NA,NA,"B (MDot First)",1,231,"SS1","SS1",27,"J","Judginess","y8ii7g",1,"response","100",1233.34,2366.67999999999,2380.66,1233.34,2366.67999999999,2380.66,1,1233.34,1147.32000000001,0,NA,"Slider","J",3,"object-18","J","CFD-BF-030-002-H.jpeg",NA,"SUPTM05151"
"154",1689007267596,"10/07/2023 16:41:07",1689010867596,1,"10/07/2023 18:41:07",137495,33,"task-hr3w",NA,30600284,9085500,NA,"complete",NA,NA,"computer","Desktop or Laptop","Windows 10","Firefox 115.0","1920x1080","958x954",NA,NA,NA,"JV Task P2",11,"Anxious",NA,"In",NA,NA,"DECFBGAHKIJ",NA,NA,"B (MDot First)",1,231,"SS1","SS1",27,"J","Fixation","w9zir9",2,"continue","",966.660000000003,966.660000000003,966.660000000003,966.660000000003,966.660000000003,966.660000000003,1,966.660000000003,0,0,NA,"Fixation Timing","Fixation",1,"object-65","J","CFD-BF-030-002-H.jpeg",NA,"SUPTM05151"
"155",1689007271034,"10/07/2023 16:41:11",1689010871034,1,"10/07/2023 18:41:11",137495,33,"task-hr3w",NA,30600284,9085500,NA,"complete",NA,NA,"computer","Desktop or Laptop","Windows 10","Firefox 115.0","1920x1080","958x954",NA,NA,NA,"JV Task P2",11,"Anxious",NA,"In",NA,NA,"DECFBGAHKIJ",NA,NA,"B (MDot First)",1,231,"SS1","SS1",25,"V","Valence","xyoebq",1,"continue","",3438.32000000001,3433.34,3438.32000000001,3438.32000000001,3433.34,3438.32000000001,1,3438.32000000001,0,0,NA,"Click To Continue","Continue Button",1,"object-25","V","CFD-MF-309-002-N.jpg",NA,"SUPTM05151"
"156",1689007271035,"10/07/2023 16:41:11",1689010871035,1,"10/07/2023 18:41:11",137495,33,"task-hr3w",NA,30600284,9085500,NA,"complete",NA,NA,"computer","Desktop or Laptop","Windows 10","Firefox 115.0","1920x1080","958x954",NA,NA,NA,"JV Task P2",11,"Anxious",NA,"In",NA,NA,"DECFBGAHKIJ",NA,NA,"B (MDot First)",1,231,"SS1","SS1",25,"V","Valence","xyoebq",1,"response","39",1483.34,3433.34,3438.32000000001,1483.34,3433.34,3438.32000000001,1,1483.34,1954.98000000001,0,NA,"Slider","J",3,"object-27","V","CFD-MF-309-002-N.jpg",NA,"SUPTM05151"
"157",1689007271996,"10/07/2023 16:41:11",1689010871996,1,"10/07/2023 18:41:11",137495,33,"task-hr3w",NA,30600284,9085500,NA,"complete",NA,NA,"computer","Desktop or Laptop","Windows 10","Firefox 115.0","1920x1080","958x954",NA,NA,NA,"JV Task P2",11,"Anxious",NA,"In",NA,NA,"DECFBGAHKIJ",NA,NA,"B (MDot First)",1,231,"SS1","SS1",25,"V","Fixation","68owkj",2,"continue","",966.660000000003,966.660000000003,966.660000000003,966.660000000003,966.660000000003,966.660000000003,1,966.660000000003,0,0,NA,"Fixation Timing","Fixation",1,"object-21","V","CFD-MF-309-002-N.jpg",NA,"SUPTM05151"
"158",1689007275478,"10/07/2023 16:41:15",1689010875478,1,"10/07/2023 18:41:15",137495,33,"task-hr3w",NA,30600284,9085500,NA,"complete",NA,NA,"computer","Desktop or Laptop","Windows 10","Firefox 115.0","1920x1080","958x954",NA,NA,NA,"JV Task P2",11,"Anxious",NA,"In",NA,NA,"DECFBGAHKIJ",NA,NA,"B (MDot First)",1,231,"SS1","SS1",26,"V","Valence","xyoebq",1,"continue","",3481.32000000001,3466.66,3481.32000000001,3481.32000000001,3466.66,3481.32000000001,1,3481.32000000001,0,0,NA,"Click To Continue","Continue Button",1,"object-25","V","CFD-MF-315-002-N.jpg",NA,"SUPTM05151"
"159",1689007275479,"10/07/2023 16:41:15",1689010875479,1,"10/07/2023 18:41:15",137495,33,"task-hr3w",NA,30600284,9085500,NA,"complete",NA,NA,"computer","Desktop or Laptop","Windows 10","Firefox 115.0","1920x1080","958x954",NA,NA,NA,"JV Task P2",11,"Anxious",NA,"In",NA,NA,"DECFBGAHKIJ",NA,NA,"B (MDot First)",1,231,"SS1","SS1",26,"V","Valence","xyoebq",1,"response","43",1683.34,3466.66,3483.32000000001,1683.34,3466.66,3483.32000000001,1,1683.34,1799.98000000001,0,NA,"Slider","J",3,"object-27","V","CFD-MF-315-002-N.jpg",NA,"SUPTM05151"
"160",1689007276430,"10/07/2023 16:41:16",1689010876430,1,"10/07/2023 18:41:16",137495,33,"task-hr3w",NA,30600284,9085500,NA,"complete",NA,NA,"computer","Desktop or Laptop","Windows 10","Firefox 115.0","1920x1080","958x954",NA,NA,NA,"JV Task P2",11,"Anxious",NA,"In",NA,NA,"DECFBGAHKIJ",NA,NA,"B (MDot First)",1,231,"SS1","SS1",26,"V","Fixation","68owkj",2,"continue","",966.679999999993,966.679999999993,966.679999999993,966.679999999993,966.679999999993,966.679999999993,1,966.679999999993,0,0,NA,"Fixation Timing","Fixation",1,"object-21","V","CFD-MF-315-002-N.jpg",NA,"SUPTM05151"
"161",1689007280815,"10/07/2023 16:41:20",1689010880815,1,"10/07/2023 18:41:20",137495,33,"task-hr3w",NA,30600284,9085500,NA,"complete",NA,NA,"computer","Desktop or Laptop","Windows 10","Firefox 115.0","1920x1080","958x954",NA,NA,NA,"JV Task P2",11,"Anxious",NA,"In",NA,NA,"DECFBGAHKIJ",NA,NA,"B (MDot First)",1,231,"SS1","SS1",28,"J","Judginess","y8ii7g",1,"continue","",4386.98000000001,4383.20000000001,4386.98000000001,4386.98000000001,4383.20000000001,4386.98000000001,1,4386.98000000001,0,0,NA,"Click To Continue","Continue Button",1,"object-14","J","CFD-WF-015-006-S.jpeg",NA,"SUPTM05151"
"162",1689007280815,"10/07/2023 16:41:20",1689010880815,1,"10/07/2023 18:41:20",137495,33,"task-hr3w",NA,30600284,9085500,NA,"complete",NA,NA,"computer","Desktop or Laptop","Windows 10","Firefox 115.0","1920x1080","958x954",NA,NA,NA,"JV Task P2",11,"Anxious",NA,"In",NA,NA,"DECFBGAHKIJ",NA,NA,"B (MDot First)",1,231,"SS1","SS1",28,"J","Judginess","y8ii7g",1,"response","35",1183.20000000001,4383.20000000001,4386.98000000001,1183.20000000001,4383.20000000001,4386.98000000001,1,1183.20000000001,3203.78,0,NA,"Slider","J",3,"object-18","J","CFD-WF-015-006-S.jpeg",NA,"SUPTM05151"
"163",1689007281779,"10/07/2023 16:41:21",1689010881779,1,"10/07/2023 18:41:21",137495,33,"task-hr3w",NA,30600284,9085500,NA,"complete",NA,NA,"computer","Desktop or Laptop","Windows 10","Firefox 115.0","1920x1080","958x954",NA,NA,NA,"JV Task P2",11,"Anxious",NA,"In",NA,NA,"DECFBGAHKIJ",NA,NA,"B (MDot First)",1,231,"SS1","SS1",28,"J","Fixation","w9zir9",2,"continue","",966.660000000003,966.660000000003,966.660000000003,966.660000000003,966.660000000003,966.660000000003,1,966.660000000003,0,0,NA,"Fixation Timing","Fixation",1,"object-65","J","CFD-WF-015-006-S.jpeg",NA,"SUPTM05151"
"164",1689007283945,"10/07/2023 16:41:23",1689010883945,1,"10/07/2023 18:41:23",137495,33,"task-hr3w",NA,30600284,9085500,NA,"complete",NA,NA,"computer","Desktop or Laptop","Windows 10","Firefox 115.0","1920x1080","958x954",NA,NA,NA,"JV Task P2",11,"Anxious",NA,"In",NA,NA,"DECFBGAHKIJ",NA,NA,"B (MDot First)",1,231,"SS1","SS1",27,"V","Valence","xyoebq",1,"continue","",2165.12,2150,2165.12,2165.12,2150,2165.12,1,2165.12,0,0,NA,"Click To Continue","Continue Button",1,"object-25","V","CFD-MF-309-002-H.jpeg",NA,"SUPTM05151"
"165",1689007283945,"10/07/2023 16:41:23",1689010883945,1,"10/07/2023 18:41:23",137495,33,"task-hr3w",NA,30600284,9085500,NA,"complete",NA,NA,"computer","Desktop or Laptop","Windows 10","Firefox 115.0","1920x1080","958x954",NA,NA,NA,"JV Task P2",11,"Anxious",NA,"In",NA,NA,"DECFBGAHKIJ",NA,NA,"B (MDot First)",1,231,"SS1","SS1",27,"V","Valence","xyoebq",1,"response","83",1016.67999999999,2150,2166.12,1016.67999999999,2150,2166.12,1,1016.67999999999,1149.44,0,NA,"Slider","J",3,"object-27","V","CFD-MF-309-002-H.jpeg",NA,"SUPTM05151"
"166",1689007284895,"10/07/2023 16:41:24",1689010884895,1,"10/07/2023 18:41:24",137495,33,"task-hr3w",NA,30600284,9085500,NA,"complete",NA,NA,"computer","Desktop or Laptop","Windows 10","Firefox 115.0","1920x1080","958x954",NA,NA,NA,"JV Task P2",11,"Anxious",NA,"In",NA,NA,"DECFBGAHKIJ",NA,NA,"B (MDot First)",1,231,"SS1","SS1",27,"V","Fixation","68owkj",2,"continue","",966.679999999993,966.679999999993,966.679999999993,966.679999999993,966.679999999993,966.679999999993,1,966.679999999993,0,0,NA,"Fixation Timing","Fixation",1,"object-21","V","CFD-MF-309-002-H.jpeg",NA,"SUPTM05151"
"167",1689007287708,"10/07/2023 16:41:27",1689010887708,1,"10/07/2023 18:41:27",137495,33,"task-hr3w",NA,30600284,9085500,NA,"complete",NA,NA,"computer","Desktop or Laptop","Windows 10","Firefox 115.0","1920x1080","958x954",NA,NA,NA,"JV Task P2",11,"Anxious",NA,"In",NA,NA,"DECFBGAHKIJ",NA,NA,"B (MDot First)",1,231,"SS1","SS1",29,"J","Judginess","y8ii7g",1,"continue","",2812.44,2800,2812.44,2812.44,2800,2812.44,1,2812.44,0,0,NA,"Click To Continue","Continue Button",1,"object-14","J","CFD-WM-036-031-S.jpeg",NA,"SUPTM05151"
"168",1689007287711,"10/07/2023 16:41:27",1689010887711,1,"10/07/2023 18:41:27",137495,33,"task-hr3w",NA,30600284,9085500,NA,"complete",NA,NA,"computer","Desktop or Laptop","Windows 10","Firefox 115.0","1920x1080","958x954",NA,NA,NA,"JV Task P2",11,"Anxious",NA,"In",NA,NA,"DECFBGAHKIJ",NA,NA,"B (MDot First)",1,231,"SS1","SS1",29,"J","Judginess","y8ii7g",1,"response","6",1800,2800,2814.44,1800,2800,2814.44,1,1800,1014.44,0,NA,"Slider","J",3,"object-18","J","CFD-WM-036-031-S.jpeg",NA,"SUPTM05151"
"169",1689007288663,"10/07/2023 16:41:28",1689010888663,1,"10/07/2023 18:41:28",137495,33,"task-hr3w",NA,30600284,9085500,NA,"complete",NA,NA,"computer","Desktop or Laptop","Windows 10","Firefox 115.0","1920x1080","958x954",NA,NA,NA,"JV Task P2",11,"Anxious",NA,"In",NA,NA,"DECFBGAHKIJ",NA,NA,"B (MDot First)",1,231,"SS1","SS1",29,"J","Fixation","w9zir9",2,"continue","",966.660000000003,966.660000000003,966.660000000003,966.660000000003,966.660000000003,966.660000000003,1,966.660000000003,0,0,NA,"Fixation Timing","Fixation",1,"object-65","J","CFD-WM-036-031-S.jpeg",NA,"SUPTM05151"
"170",1689007290990,"10/07/2023 16:41:30",1689010890990,1,"10/07/2023 18:41:30",137495,33,"task-hr3w",NA,30600284,9085500,NA,"complete",NA,NA,"computer","Desktop or Laptop","Windows 10","Firefox 115.0","1920x1080","958x954",NA,NA,NA,"JV Task P2",11,"Anxious",NA,"In",NA,NA,"DECFBGAHKIJ",NA,NA,"B (MDot First)",1,231,"SS1","SS1",30,"J","Judginess","y8ii7g",1,"continue","",2327.78,2316.66,2327.78,2327.78,2316.66,2327.78,1,2327.78,0,0,NA,"Click To Continue","Continue Button",1,"object-14","J","CFD-WF-015-006-S.jpeg",NA,"SUPTM05151"
"171",1689007290991,"10/07/2023 16:41:30",1689010890991,1,"10/07/2023 18:41:30",137495,33,"task-hr3w",NA,30600284,9085500,NA,"complete",NA,NA,"computer","Desktop or Laptop","Windows 10","Firefox 115.0","1920x1080","958x954",NA,NA,NA,"JV Task P2",11,"Anxious",NA,"In",NA,NA,"DECFBGAHKIJ",NA,NA,"B (MDot First)",1,231,"SS1","SS1",30,"J","Judginess","y8ii7g",1,"response","0",1383.34,2316.66,2327.78,1383.34,2316.66,2327.78,1,1383.34,944.440000000002,0,NA,"Slider","J",3,"object-18","J","CFD-WF-015-006-S.jpeg",NA,"SUPTM05151"
"172",1689007291946,"10/07/2023 16:41:31",1689010891946,1,"10/07/2023 18:41:31",137495,33,"task-hr3w",NA,30600284,9085500,NA,"complete",NA,NA,"computer","Desktop or Laptop","Windows 10","Firefox 115.0","1920x1080","958x954",NA,NA,NA,"JV Task P2",11,"Anxious",NA,"In",NA,NA,"DECFBGAHKIJ",NA,NA,"B (MDot First)",1,231,"SS1","SS1",30,"J","Fixation","w9zir9",2,"continue","",966.679999999993,966.679999999993,966.679999999993,966.679999999993,966.679999999993,966.679999999993,1,966.679999999993,0,0,NA,"Fixation Timing","Fixation",1,"object-65","J","CFD-WF-015-006-S.jpeg",NA,"SUPTM05151"
"173",1689007294053,"10/07/2023 16:41:34",1689010894053,1,"10/07/2023 18:41:34",137495,33,"task-hr3w",NA,30600284,9085500,NA,"complete",NA,NA,"computer","Desktop or Laptop","Windows 10","Firefox 115.0","1920x1080","958x954",NA,NA,NA,"JV Task P2",11,"Anxious",NA,"In",NA,NA,"DECFBGAHKIJ",NA,NA,"B (MDot First)",1,231,"SS1","SS1",31,"J","Judginess","y8ii7g",1,"continue","",2107.44,2100,2107.44,2107.44,2100,2107.44,1,2107.44,0,0,NA,"Click To Continue","Continue Button",1,"object-14","J","CFD-WM-028-003-N.jpg",NA,"SUPTM05151"
"174",1689007294054,"10/07/2023 16:41:34",1689010894054,1,"10/07/2023 18:41:34",137495,33,"task-hr3w",NA,30600284,9085500,NA,"complete",NA,NA,"computer","Desktop or Laptop","Windows 10","Firefox 115.0","1920x1080","958x954",NA,NA,NA,"JV Task P2",11,"Anxious",NA,"In",NA,NA,"DECFBGAHKIJ",NA,NA,"B (MDot First)",1,231,"SS1","SS1",31,"J","Judginess","y8ii7g",1,"response","43",1333.32000000001,2100,2108.44,1333.32000000001,2100,2108.44,1,1333.32000000001,775.119999999995,0,NA,"Slider","J",3,"object-18","J","CFD-WM-028-003-N.jpg",NA,"SUPTM05151"
"175",1689007295013,"10/07/2023 16:41:35",1689010895013,1,"10/07/2023 18:41:35",137495,33,"task-hr3w",NA,30600284,9085500,NA,"complete",NA,NA,"computer","Desktop or Laptop","Windows 10","Firefox 115.0","1920x1080","958x954",NA,NA,NA,"JV Task P2",11,"Anxious",NA,"In",NA,NA,"DECFBGAHKIJ",NA,NA,"B (MDot First)",1,231,"SS1","SS1",31,"J","Fixation","w9zir9",2,"continue","",966.660000000003,966.660000000003,966.660000000003,966.660000000003,966.660000000003,966.660000000003,1,966.660000000003,0,0,NA,"Fixation Timing","Fixation",1,"object-65","J","CFD-WM-028-003-N.jpg",NA,"SUPTM05151"
"176",1689007297144,"10/07/2023 16:41:37",1689010897144,1,"10/07/2023 18:41:37",137495,33,"task-hr3w",NA,30600284,9085500,NA,"complete",NA,NA,"computer","Desktop or Laptop","Windows 10","Firefox 115.0","1920x1080","958x954",NA,NA,NA,"JV Task P2",11,"Anxious",NA,"In",NA,NA,"DECFBGAHKIJ",NA,NA,"B (MDot First)",1,231,"SS1","SS1",28,"V","Valence","xyoebq",1,"continue","",2131.78,2116.66,2131.78,2131.78,2116.66,2131.78,1,2131.78,0,0,NA,"Click To Continue","Continue Button",1,"object-25","V","CFD-WM-028-003-H.jpeg",NA,"SUPTM05151"
"177",1689007297145,"10/07/2023 16:41:37",1689010897145,1,"10/07/2023 18:41:37",137495,33,"task-hr3w",NA,30600284,9085500,NA,"complete",NA,NA,"computer","Desktop or Laptop","Windows 10","Firefox 115.0","1920x1080","958x954",NA,NA,NA,"JV Task P2",11,"Anxious",NA,"In",NA,NA,"DECFBGAHKIJ",NA,NA,"B (MDot First)",1,231,"SS1","SS1",28,"V","Valence","xyoebq",1,"response","84",1366.66,2116.66,2132.78,1366.66,2116.66,2132.78,1,1366.66,766.119999999995,0,NA,"Slider","J",3,"object-27","V","CFD-WM-028-003-H.jpeg",NA,"SUPTM05151"
"178",1689007298099,"10/07/2023 16:41:38",1689010898099,1,"10/07/2023 18:41:38",137495,33,"task-hr3w",NA,30600284,9085500,NA,"complete",NA,NA,"computer","Desktop or Laptop","Windows 10","Firefox 115.0","1920x1080","958x954",NA,NA,NA,"JV Task P2",11,"Anxious",NA,"In",NA,NA,"DECFBGAHKIJ",NA,NA,"B (MDot First)",1,231,"SS1","SS1",28,"V","Fixation","68owkj",2,"continue","",966.679999999993,966.679999999993,966.679999999993,966.679999999993,966.679999999993,966.679999999993,1,966.679999999993,0,0,NA,"Fixation Timing","Fixation",1,"object-21","V","CFD-WM-028-003-H.jpeg",NA,"SUPTM05151"
"179",1689007300221,"10/07/2023 16:41:40",1689010900221,1,"10/07/2023 18:41:40",137495,33,"task-hr3w",NA,30600284,9085500,NA,"complete",NA,NA,"computer","Desktop or Laptop","Windows 10","Firefox 115.0","1920x1080","958x954",NA,NA,NA,"JV Task P2",11,"Anxious",NA,"In",NA,NA,"DECFBGAHKIJ",NA,NA,"B (MDot First)",1,231,"SS1","SS1",32,"J","Judginess","y8ii7g",1,"continue","",2125.44,2116.66,2125.44,2125.44,2116.66,2125.44,1,2125.44,0,0,NA,"Click To Continue","Continue Button",1,"object-14","J","CFD-WF-030-002-N.jpg",NA,"SUPTM05151"
"180",1689007300222,"10/07/2023 16:41:40",1689010900222,1,"10/07/2023 18:41:40",137495,33,"task-hr3w",NA,30600284,9085500,NA,"complete",NA,NA,"computer","Desktop or Laptop","Windows 10","Firefox 115.0","1920x1080","958x954",NA,NA,NA,"JV Task P2",11,"Anxious",NA,"In",NA,NA,"DECFBGAHKIJ",NA,NA,"B (MDot First)",1,231,"SS1","SS1",32,"J","Judginess","y8ii7g",1,"response","28",1383.32000000001,2116.66,2126.44,1383.32000000001,2116.66,2126.44,1,1383.32000000001,743.119999999995,0,NA,"Slider","J",3,"object-18","J","CFD-WF-030-002-N.jpg",NA,"SUPTM05151"
