"Event.Index","UTC.Timestamp","UTC.Date.and.Time","Local.Timestamp","Local.Timezone","Local.Date.and.Time","Experiment.ID","Experiment.Version","Tree.Node.Key","Repeat.Key","Schedule.ID","Participant.Private.ID","Participant.Starting.Group","Participant.Status","Participant.Completion.Code","Participant.External.Session.ID","Participant.Device.Type","Participant.Device","Participant.OS","Participant.Browser","Participant.Monitor.Size","Participant.Viewport.Size","Checkpoint","Room.ID","Room.Order","Task.Name","Task.Version","branch.ln1a","randomiser.vzsr","branch.hkzp","randomiser.ywar","randomiser.q6ah","order.ot79","randomiser.ahe2","randomiser.ckhi","randomiser.lqqr","randomiser.pobd","randomiser.8gdj","Spreadsheet","Current.Spreadsheet","Trial.Number","Display","Screen","Screen.ID","Screen.Counter","Response.Type","Response","Onset.Time","Clock.Time","Reaction.Time","Absolute.Onset.Time","Absolute.Clock.Time","Absolute.Reaction.Time","Correct","Response.Onset","Response.Duration","Proportion","Tag","Component.Name","Object.Name","Object.Number","Object.ID","Spreadsheet..display","Spreadsheet..stimulus","Manipulation..Spreadsheet","Random_ID"
"1",1689020551373,"10/07/2023 20:22:31",1689024151373,1,"10/07/2023 22:22:31",137495,33,"task-v6vm",NA,30603502,9086165,NA,"complete",NA,NA,"computer","Desktop or Laptop","Windows 10","Chrome 114.0.0.0","1041x586","1157x494",NA,NA,NA,"JV Task P3 (Updated)",4,"Anxious",NA,"In",NA,NA,"GHFIEJDKCAB",NA,NA,"B (MDot First)",1,213,"SS1","SS1",NA,"","","",NA,"5","BEGIN",NA,NA,NA,NA,NA,NA,0,NA,NA,NA,NA,"","",NA,"","","",NA,"SUPTM84507"
"2",1689020559528,"10/07/2023 20:22:39",1689024159528,1,"10/07/2023 22:22:39",137495,33,"task-v6vm",NA,30603502,9086165,NA,"complete",NA,NA,"computer","Desktop or Laptop","Windows 10","Chrome 114.0.0.0","1041x586","1157x494",NA,NA,NA,"JV Task P3 (Updated)",4,"Anxious",NA,"In",NA,NA,"GHFIEJDKCAB",NA,NA,"B (MDot First)",1,213,"SS1","SS1",1,"J","Judginess","y8ii7g",1,"continue","",6392.81099999991,6382.637,6392.81099999991,6392.81099999991,6382.637,6392.81099999991,1,6392.81099999991,0,0,NA,"Click To Continue","Continue Button",1,"object-14","J","CFD-AM-220-134-N.jpg",NA,"SUPTM84507"
"3",1689020559529,"10/07/2023 20:22:39",1689024159529,1,"10/07/2023 22:22:39",137495,33,"task-v6vm",NA,30603502,9086165,NA,"complete",NA,NA,"computer","Desktop or Laptop","Windows 10","Chrome 114.0.0.0","1041x586","1157x494",NA,NA,NA,"JV Task P3 (Updated)",4,"Anxious",NA,"In",NA,NA,"GHFIEJDKCAB",NA,NA,"B (MDot First)",1,213,"SS1","SS1",1,"J","Judginess","y8ii7g",1,"response","16",5499.527,6382.637,6394.11099999972,5499.527,6382.637,6394.11099999972,1,5499.527,894.583999999721,0,NA,"Slider","J",3,"object-18","J","CFD-AM-220-134-N.jpg",NA,"SUPTM84507"
"4",1689020560484,"10/07/2023 20:22:40",1689024160484,1,"10/07/2023 22:22:40",137495,33,"task-v6vm",NA,30603502,9086165,NA,"complete",NA,NA,"computer","Desktop or Laptop","Windows 10","Chrome 114.0.0.0","1041x586","1157x494",NA,NA,NA,"JV Task P3 (Updated)",4,"Anxious",NA,"In",NA,NA,"GHFIEJDKCAB",NA,NA,"B (MDot First)",1,213,"SS1","SS1",1,"J","Fixation","w9zir9",2,"continue","",966.295,966.295,966.295,966.295,966.295,966.295,1,966.295,0,0,NA,"Fixation Timing","Fixation",1,"object-65","J","CFD-AM-220-134-N.jpg",NA,"SUPTM84507"
"5",1689020562700,"10/07/2023 20:22:42",1689024162700,1,"10/07/2023 22:22:42",137495,33,"task-v6vm",NA,30603502,9086165,NA,"complete",NA,NA,"computer","Desktop or Laptop","Windows 10","Chrome 114.0.0.0","1041x586","1157x494",NA,NA,NA,"JV Task P3 (Updated)",4,"Anxious",NA,"In",NA,NA,"GHFIEJDKCAB",NA,NA,"B (MDot First)",1,213,"SS1","SS1",2,"J","Judginess","y8ii7g",1,"continue","",2216.37899999991,2199.732,2216.37899999991,2216.37899999991,2199.732,2216.37899999991,1,2216.37899999991,0,0,NA,"Click To Continue","Continue Button",1,"object-14","J","CFD-WF-011-002-N.jpg",NA,"SUPTM84507"
"6",1689020562703,"10/07/2023 20:22:42",1689024162703,1,"10/07/2023 22:22:42",137495,33,"task-v6vm",NA,30603502,9086165,NA,"complete",NA,NA,"computer","Desktop or Laptop","Windows 10","Chrome 114.0.0.0","1041x586","1157x494",NA,NA,NA,"JV Task P3 (Updated)",4,"Anxious",NA,"In",NA,NA,"GHFIEJDKCAB",NA,NA,"B (MDot First)",1,213,"SS1","SS1",2,"J","Judginess","y8ii7g",1,"response","89",1399.892,2199.732,2216.437,1399.892,2199.732,2216.437,1,1399.892,816.545,0,NA,"Slider","J",3,"object-18","J","CFD-WF-011-002-N.jpg",NA,"SUPTM84507"
"7",1689020563651,"10/07/2023 20:22:43",1689024163651,1,"10/07/2023 22:22:43",137495,33,"task-v6vm",NA,30603502,9086165,NA,"complete",NA,NA,"computer","Desktop or Laptop","Windows 10","Chrome 114.0.0.0","1041x586","1157x494",NA,NA,NA,"JV Task P3 (Updated)",4,"Anxious",NA,"In",NA,NA,"GHFIEJDKCAB",NA,NA,"B (MDot First)",1,213,"SS1","SS1",2,"J","Fixation","w9zir9",2,"continue","",966.567999999999,966.567999999999,966.567999999999,966.567999999999,966.567999999999,966.567999999999,1,966.567999999999,0,0,NA,"Fixation Timing","Fixation",1,"object-65","J","CFD-WF-011-002-N.jpg",NA,"SUPTM84507"
"8",1689020573144,"10/07/2023 20:22:53",1689024173144,1,"10/07/2023 22:22:53",137495,33,"task-v6vm",NA,30603502,9086165,NA,"complete",NA,NA,"computer","Desktop or Laptop","Windows 10","Chrome 114.0.0.0","1041x586","1157x494",NA,NA,NA,"JV Task P3 (Updated)",4,"Anxious",NA,"In",NA,NA,"GHFIEJDKCAB",NA,NA,"B (MDot First)",1,213,"SS1","SS1",3,"J","Judginess","y8ii7g",1,"continue","",9494.27899999963,9482.255,9494.27899999963,9494.27899999963,9482.255,9494.27899999963,1,9494.27899999963,0,0,NA,"Click To Continue","Continue Button",1,"object-14","J","CFD-AF-233-190-N.jpg",NA,"SUPTM84507"
"9",1689020573148,"10/07/2023 20:22:53",1689024173148,1,"10/07/2023 22:22:53",137495,33,"task-v6vm",NA,30603502,9086165,NA,"complete",NA,NA,"computer","Desktop or Laptop","Windows 10","Chrome 114.0.0.0","1041x586","1157x494",NA,NA,NA,"JV Task P3 (Updated)",4,"Anxious",NA,"In",NA,NA,"GHFIEJDKCAB",NA,NA,"B (MDot First)",1,213,"SS1","SS1",3,"J","Judginess","y8ii7g",1,"response","81",2749.628,9482.255,9497.37899999972,2749.628,9482.255,9497.37899999972,1,2749.628,6747.75099999972,0,NA,"Slider","J",3,"object-18","J","CFD-AF-233-190-N.jpg",NA,"SUPTM84507"
"10",1689020574100,"10/07/2023 20:22:54",1689024174100,1,"10/07/2023 22:22:54",137495,33,"task-v6vm",NA,30603502,9086165,NA,"complete",NA,NA,"computer","Desktop or Laptop","Windows 10","Chrome 114.0.0.0","1041x586","1157x494",NA,NA,NA,"JV Task P3 (Updated)",4,"Anxious",NA,"In",NA,NA,"GHFIEJDKCAB",NA,NA,"B (MDot First)",1,213,"SS1","SS1",3,"J","Fixation","w9zir9",2,"continue","",966.605,966.605,966.605,966.605,966.605,966.605,1,966.605,0,0,NA,"Fixation Timing","Fixation",1,"object-65","J","CFD-AF-233-190-N.jpg",NA,"SUPTM84507"
"11",1689020577217,"10/07/2023 20:22:57",1689024177217,1,"10/07/2023 22:22:57",137495,33,"task-v6vm",NA,30603502,9086165,NA,"complete",NA,NA,"computer","Desktop or Laptop","Windows 10","Chrome 114.0.0.0","1041x586","1157x494",NA,NA,NA,"JV Task P3 (Updated)",4,"Anxious",NA,"In",NA,NA,"GHFIEJDKCAB",NA,NA,"B (MDot First)",1,213,"SS1","SS1",1,"V","Valence","xyoebq",1,"continue","",3115.961,3099.355,3115.961,3115.961,3099.355,3115.961,1,3115.961,0,0,NA,"Click To Continue","Continue Button",1,"object-25","V","CFD-BM-036-003-S.jpeg",NA,"SUPTM84507"
"12",1689020577217,"10/07/2023 20:22:57",1689024177217,1,"10/07/2023 22:22:57",137495,33,"task-v6vm",NA,30603502,9086165,NA,"complete",NA,NA,"computer","Desktop or Laptop","Windows 10","Chrome 114.0.0.0","1041x586","1157x494",NA,NA,NA,"JV Task P3 (Updated)",4,"Anxious",NA,"In",NA,NA,"GHFIEJDKCAB",NA,NA,"B (MDot First)",1,213,"SS1","SS1",1,"V","Valence","xyoebq",1,"response","88",2249.442,3099.355,3115.961,2249.442,3099.355,3115.961,1,2249.442,866.519,0,NA,"Slider","J",3,"object-27","V","CFD-BM-036-003-S.jpeg",NA,"SUPTM84507"
"13",1689020578166,"10/07/2023 20:22:58",1689024178166,1,"10/07/2023 22:22:58",137495,33,"task-v6vm",NA,30603502,9086165,NA,"complete",NA,NA,"computer","Desktop or Laptop","Windows 10","Chrome 114.0.0.0","1041x586","1157x494",NA,NA,NA,"JV Task P3 (Updated)",4,"Anxious",NA,"In",NA,NA,"GHFIEJDKCAB",NA,NA,"B (MDot First)",1,213,"SS1","SS1",1,"V","Fixation","68owkj",2,"continue","",966.554,966.554,966.554,966.554,966.554,966.554,1,966.554,0,0,NA,"Fixation Timing","Fixation",1,"object-21","V","CFD-BM-036-003-S.jpeg",NA,"SUPTM84507"
"14",1689020581713,"10/07/2023 20:23:01",1689024181713,1,"10/07/2023 22:23:01",137495,33,"task-v6vm",NA,30603502,9086165,NA,"complete",NA,NA,"computer","Desktop or Laptop","Windows 10","Chrome 114.0.0.0","1041x586","1157x494",NA,NA,NA,"JV Task P3 (Updated)",4,"Anxious",NA,"In",NA,NA,"GHFIEJDKCAB",NA,NA,"B (MDot First)",1,213,"SS1","SS1",4,"J","Judginess","y8ii7g",1,"continue","",3547.70999999981,3532.91,3547.70999999981,3547.70999999981,3532.91,3547.70999999981,1,3547.70999999981,0,0,NA,"Click To Continue","Continue Button",1,"object-14","J","CFD-WF-015-006-H.jpeg",NA,"SUPTM84507"
"15",1689020581713,"10/07/2023 20:23:01",1689024181713,1,"10/07/2023 22:23:01",137495,33,"task-v6vm",NA,30603502,9086165,NA,"complete",NA,NA,"computer","Desktop or Laptop","Windows 10","Chrome 114.0.0.0","1041x586","1157x494",NA,NA,NA,"JV Task P3 (Updated)",4,"Anxious",NA,"In",NA,NA,"GHFIEJDKCAB",NA,NA,"B (MDot First)",1,213,"SS1","SS1",4,"J","Judginess","y8ii7g",1,"response","87",2266.32,3532.91,3548.50999999963,2266.32,3532.91,3548.50999999963,1,2266.32,1282.18999999963,0,NA,"Slider","J",3,"object-18","J","CFD-WF-015-006-H.jpeg",NA,"SUPTM84507"
"16",1689020582665,"10/07/2023 20:23:02",1689024182665,1,"10/07/2023 22:23:02",137495,33,"task-v6vm",NA,30603502,9086165,NA,"complete",NA,NA,"computer","Desktop or Laptop","Windows 10","Chrome 114.0.0.0","1041x586","1157x494",NA,NA,NA,"JV Task P3 (Updated)",4,"Anxious",NA,"In",NA,NA,"GHFIEJDKCAB",NA,NA,"B (MDot First)",1,213,"SS1","SS1",4,"J","Fixation","w9zir9",2,"continue","",966.468000000001,966.468000000001,966.468000000001,966.468000000001,966.468000000001,966.468000000001,1,966.468000000001,0,0,NA,"Fixation Timing","Fixation",1,"object-65","J","CFD-WF-015-006-H.jpeg",NA,"SUPTM84507"
"17",1689020589253,"10/07/2023 20:23:09",1689024189253,1,"10/07/2023 22:23:09",137495,33,"task-v6vm",NA,30603502,9086165,NA,"complete",NA,NA,"computer","Desktop or Laptop","Windows 10","Chrome 114.0.0.0","1041x586","1157x494",NA,NA,NA,"JV Task P3 (Updated)",4,"Anxious",NA,"In",NA,NA,"GHFIEJDKCAB",NA,NA,"B (MDot First)",1,213,"SS1","SS1",5,"J","Judginess","y8ii7g",1,"continue","",6588.33199999981,6582.581,6588.33199999981,6588.33199999981,6582.581,6588.33199999981,1,6588.33199999981,0,0,NA,"Click To Continue","Continue Button",1,"object-14","J","CFD-WF-011-002-H.jpeg",NA,"SUPTM84507"
"18",1689020589259,"10/07/2023 20:23:09",1689024189259,1,"10/07/2023 22:23:09",137495,33,"task-v6vm",NA,30603502,9086165,NA,"complete",NA,NA,"computer","Desktop or Laptop","Windows 10","Chrome 114.0.0.0","1041x586","1157x494",NA,NA,NA,"JV Task P3 (Updated)",4,"Anxious",NA,"In",NA,NA,"GHFIEJDKCAB",NA,NA,"B (MDot First)",1,213,"SS1","SS1",5,"J","Judginess","y8ii7g",1,"response","90",5066.011,6582.581,6594.43199999991,5066.011,6582.581,6594.43199999991,1,5066.011,1528.42099999991,0,NA,"Slider","J",3,"object-18","J","CFD-WF-011-002-H.jpeg",NA,"SUPTM84507"
"19",1689020590214,"10/07/2023 20:23:10",1689024190214,1,"10/07/2023 22:23:10",137495,33,"task-v6vm",NA,30603502,9086165,NA,"complete",NA,NA,"computer","Desktop or Laptop","Windows 10","Chrome 114.0.0.0","1041x586","1157x494",NA,NA,NA,"JV Task P3 (Updated)",4,"Anxious",NA,"In",NA,NA,"GHFIEJDKCAB",NA,NA,"B (MDot First)",1,213,"SS1","SS1",5,"J","Fixation","w9zir9",2,"continue","",966.813000000002,966.813000000002,966.813000000002,966.813000000002,966.813000000002,966.813000000002,1,966.813000000002,0,0,NA,"Fixation Timing","Fixation",1,"object-65","J","CFD-WF-011-002-H.jpeg",NA,"SUPTM84507"
"20",1689020597923,"10/07/2023 20:23:17",1689024197923,1,"10/07/2023 22:23:17",137495,33,"task-v6vm",NA,30603502,9086165,NA,"complete",NA,NA,"computer","Desktop or Laptop","Windows 10","Chrome 114.0.0.0","1041x586","1157x494",NA,NA,NA,"JV Task P3 (Updated)",4,"Anxious",NA,"In",NA,NA,"GHFIEJDKCAB",NA,NA,"B (MDot First)",1,213,"SS1","SS1",6,"J","Judginess","y8ii7g",1,"continue","",7708.83799999972,7698.656,7708.83799999972,7708.83799999972,7698.656,7708.83799999972,1,7708.83799999972,0,0,NA,"Click To Continue","Continue Button",1,"object-14","J","CFD-MM-308-001-H.jpeg",NA,"SUPTM84507"
"21",1689020597923,"10/07/2023 20:23:17",1689024197923,1,"10/07/2023 22:23:17",137495,33,"task-v6vm",NA,30603502,9086165,NA,"complete",NA,NA,"computer","Desktop or Laptop","Windows 10","Chrome 114.0.0.0","1041x586","1157x494",NA,NA,NA,"JV Task P3 (Updated)",4,"Anxious",NA,"In",NA,NA,"GHFIEJDKCAB",NA,NA,"B (MDot First)",1,213,"SS1","SS1",6,"J","Judginess","y8ii7g",1,"response","71",6315.56,7698.656,7709.53799999991,6315.56,7698.656,7709.53799999991,1,6315.56,1393.97799999991,0,NA,"Slider","J",3,"object-18","J","CFD-MM-308-001-H.jpeg",NA,"SUPTM84507"
"22",1689020598880,"10/07/2023 20:23:18",1689024198880,1,"10/07/2023 22:23:18",137495,33,"task-v6vm",NA,30603502,9086165,NA,"complete",NA,NA,"computer","Desktop or Laptop","Windows 10","Chrome 114.0.0.0","1041x586","1157x494",NA,NA,NA,"JV Task P3 (Updated)",4,"Anxious",NA,"In",NA,NA,"GHFIEJDKCAB",NA,NA,"B (MDot First)",1,213,"SS1","SS1",6,"J","Fixation","w9zir9",2,"continue","",966.563000000002,966.563000000002,966.563000000002,966.563000000002,966.563000000002,966.563000000002,1,966.563000000002,0,0,NA,"Fixation Timing","Fixation",1,"object-65","J","CFD-MM-308-001-H.jpeg",NA,"SUPTM84507"
"23",1689020601493,"10/07/2023 20:23:21",1689024201493,1,"10/07/2023 22:23:21",137495,33,"task-v6vm",NA,30603502,9086165,NA,"complete",NA,NA,"computer","Desktop or Laptop","Windows 10","Chrome 114.0.0.0","1041x586","1157x494",NA,NA,NA,"JV Task P3 (Updated)",4,"Anxious",NA,"In",NA,NA,"GHFIEJDKCAB",NA,NA,"B (MDot First)",1,213,"SS1","SS1",7,"J","Judginess","y8ii7g",1,"continue","",2614.21899999982,2599.705,2614.21899999982,2614.21899999982,2599.705,2614.21899999982,1,2614.21899999982,0,0,NA,"Click To Continue","Continue Button",1,"object-14","J","CFD-WF-009-001-S.jpeg",NA,"SUPTM84507"
"24",1689020601498,"10/07/2023 20:23:21",1689024201498,1,"10/07/2023 22:23:21",137495,33,"task-v6vm",NA,30603502,9086165,NA,"complete",NA,NA,"computer","Desktop or Laptop","Windows 10","Chrome 114.0.0.0","1041x586","1157x494",NA,NA,NA,"JV Task P3 (Updated)",4,"Anxious",NA,"In",NA,NA,"GHFIEJDKCAB",NA,NA,"B (MDot First)",1,213,"SS1","SS1",7,"J","Judginess","y8ii7g",1,"response","95",1633.218,2599.705,2616.477,1633.218,2599.705,2616.477,1,1633.218,983.258999999998,0,NA,"Slider","J",3,"object-18","J","CFD-WF-009-001-S.jpeg",NA,"SUPTM84507"
"25",1689020602446,"10/07/2023 20:23:22",1689024202446,1,"10/07/2023 22:23:22",137495,33,"task-v6vm",NA,30603502,9086165,NA,"complete",NA,NA,"computer","Desktop or Laptop","Windows 10","Chrome 114.0.0.0","1041x586","1157x494",NA,NA,NA,"JV Task P3 (Updated)",4,"Anxious",NA,"In",NA,NA,"GHFIEJDKCAB",NA,NA,"B (MDot First)",1,213,"SS1","SS1",7,"J","Fixation","w9zir9",2,"continue","",966.552000000003,966.552000000003,966.552000000003,966.552000000003,966.552000000003,966.552000000003,1,966.552000000003,0,0,NA,"Fixation Timing","Fixation",1,"object-65","J","CFD-WF-009-001-S.jpeg",NA,"SUPTM84507"
"26",1689020605210,"10/07/2023 20:23:25",1689024205210,1,"10/07/2023 22:23:25",137495,33,"task-v6vm",NA,30603502,9086165,NA,"complete",NA,NA,"computer","Desktop or Laptop","Windows 10","Chrome 114.0.0.0","1041x586","1157x494",NA,NA,NA,"JV Task P3 (Updated)",4,"Anxious",NA,"In",NA,NA,"GHFIEJDKCAB",NA,NA,"B (MDot First)",1,213,"SS1","SS1",2,"V","Valence","xyoebq",1,"continue","",2764.46199999981,2749.592,2764.46199999981,2764.46199999981,2749.592,2764.46199999981,1,2764.46199999981,0,0,NA,"Click To Continue","Continue Button",1,"object-25","V","CFD-WM-026-001-H.jpeg",NA,"SUPTM84507"
"27",1689020605210,"10/07/2023 20:23:25",1689024205210,1,"10/07/2023 22:23:25",137495,33,"task-v6vm",NA,30603502,9086165,NA,"complete",NA,NA,"computer","Desktop or Laptop","Windows 10","Chrome 114.0.0.0","1041x586","1157x494",NA,NA,NA,"JV Task P3 (Updated)",4,"Anxious",NA,"In",NA,NA,"GHFIEJDKCAB",NA,NA,"B (MDot First)",1,213,"SS1","SS1",2,"V","Valence","xyoebq",1,"response","81",1999.789,2749.592,2764.96199999981,1999.789,2749.592,2764.96199999981,1,1999.789,765.172999999813,0,NA,"Slider","J",3,"object-27","V","CFD-WM-026-001-H.jpeg",NA,"SUPTM84507"
"28",1689020606162,"10/07/2023 20:23:26",1689024206162,1,"10/07/2023 22:23:26",137495,33,"task-v6vm",NA,30603502,9086165,NA,"complete",NA,NA,"computer","Desktop or Laptop","Windows 10","Chrome 114.0.0.0","1041x586","1157x494",NA,NA,NA,"JV Task P3 (Updated)",4,"Anxious",NA,"In",NA,NA,"GHFIEJDKCAB",NA,NA,"B (MDot First)",1,213,"SS1","SS1",2,"V","Fixation","68owkj",2,"continue","",966.497000000003,966.497000000003,966.497000000003,966.497000000003,966.497000000003,966.497000000003,1,966.497000000003,0,0,NA,"Fixation Timing","Fixation",1,"object-21","V","CFD-WM-026-001-H.jpeg",NA,"SUPTM84507"
"29",1689020621198,"10/07/2023 20:23:41",1689024221198,1,"10/07/2023 22:23:41",137495,33,"task-v6vm",NA,30603502,9086165,NA,"complete",NA,NA,"computer","Desktop or Laptop","Windows 10","Chrome 114.0.0.0","1041x586","1157x494",NA,NA,NA,"JV Task P3 (Updated)",4,"Anxious",NA,"In",NA,NA,"GHFIEJDKCAB",NA,NA,"B (MDot First)",1,213,"SS1","SS1",3,"V","Valence","xyoebq",1,"continue","",15036.6729999996,15031.456,15036.6729999996,15036.6729999996,15031.456,15036.6729999996,1,15036.6729999996,0,0,NA,"Click To Continue","Continue Button",1,"object-25","V","CFD-AF-211-066-N.jpg",NA,"SUPTM84507"
"30",1689020621201,"10/07/2023 20:23:41",1689024221201,1,"10/07/2023 22:23:41",137495,33,"task-v6vm",NA,30603502,9086165,NA,"complete",NA,NA,"computer","Desktop or Laptop","Windows 10","Chrome 114.0.0.0","1041x586","1157x494",NA,NA,NA,"JV Task P3 (Updated)",4,"Anxious",NA,"In",NA,NA,"GHFIEJDKCAB",NA,NA,"B (MDot First)",1,213,"SS1","SS1",3,"V","Valence","xyoebq",1,"response","91",2882.899,15031.456,15040.1729999996,2882.899,15031.456,15040.1729999996,1,2882.899,12157.2739999996,0,NA,"Slider","J",3,"object-27","V","CFD-AF-211-066-N.jpg",NA,"SUPTM84507"
"31",1689020622160,"10/07/2023 20:23:42",1689024222160,1,"10/07/2023 22:23:42",137495,33,"task-v6vm",NA,30603502,9086165,NA,"complete",NA,NA,"computer","Desktop or Laptop","Windows 10","Chrome 114.0.0.0","1041x586","1157x494",NA,NA,NA,"JV Task P3 (Updated)",4,"Anxious",NA,"In",NA,NA,"GHFIEJDKCAB",NA,NA,"B (MDot First)",1,213,"SS1","SS1",3,"V","Fixation","68owkj",2,"continue","",966.486999999994,966.486999999994,966.486999999994,966.486999999994,966.486999999994,966.486999999994,1,966.486999999994,0,0,NA,"Fixation Timing","Fixation",1,"object-21","V","CFD-AF-211-066-N.jpg",NA,"SUPTM84507"
"32",1689020626441,"10/07/2023 20:23:46",1689024226441,1,"10/07/2023 22:23:46",137495,33,"task-v6vm",NA,30603502,9086165,NA,"complete",NA,NA,"computer","Desktop or Laptop","Windows 10","Chrome 114.0.0.0","1041x586","1157x494",NA,NA,NA,"JV Task P3 (Updated)",4,"Anxious",NA,"In",NA,NA,"GHFIEJDKCAB",NA,NA,"B (MDot First)",1,213,"SS1","SS1",8,"J","Judginess","y8ii7g",1,"continue","",4281.52999999991,4266.092,4281.52999999991,4281.52999999991,4266.092,4281.52999999991,1,4281.52999999991,0,0,NA,"Click To Continue","Continue Button",1,"object-14","J","CFD-AF-211-066-H.jpeg",NA,"SUPTM84507"
"33",1689020626441,"10/07/2023 20:23:46",1689024226441,1,"10/07/2023 22:23:46",137495,33,"task-v6vm",NA,30603502,9086165,NA,"complete",NA,NA,"computer","Desktop or Laptop","Windows 10","Chrome 114.0.0.0","1041x586","1157x494",NA,NA,NA,"JV Task P3 (Updated)",4,"Anxious",NA,"In",NA,NA,"GHFIEJDKCAB",NA,NA,"B (MDot First)",1,213,"SS1","SS1",8,"J","Judginess","y8ii7g",1,"response","95",3416.223,4266.092,4282.02999999991,3416.223,4266.092,4282.02999999991,1,3416.223,865.806999999913,0,NA,"Slider","J",3,"object-18","J","CFD-AF-211-066-H.jpeg",NA,"SUPTM84507"
"34",1689020627393,"10/07/2023 20:23:47",1689024227393,1,"10/07/2023 22:23:47",137495,33,"task-v6vm",NA,30603502,9086165,NA,"complete",NA,NA,"computer","Desktop or Laptop","Windows 10","Chrome 114.0.0.0","1041x586","1157x494",NA,NA,NA,"JV Task P3 (Updated)",4,"Anxious",NA,"In",NA,NA,"GHFIEJDKCAB",NA,NA,"B (MDot First)",1,213,"SS1","SS1",8,"J","Fixation","w9zir9",2,"continue","",966.563999999998,966.563999999998,966.563999999998,966.563999999998,966.563999999998,966.563999999998,1,966.563999999998,0,0,NA,"Fixation Timing","Fixation",1,"object-65","J","CFD-AF-211-066-H.jpeg",NA,"SUPTM84507"
"35",1689020644575,"10/07/2023 20:24:04",1689024244575,1,"10/07/2023 22:24:04",137495,33,"task-v6vm",NA,30603502,9086165,NA,"complete",NA,NA,"computer","Desktop or Laptop","Windows 10","Chrome 114.0.0.0","1041x586","1157x494",NA,NA,NA,"JV Task P3 (Updated)",4,"Anxious",NA,"In",NA,NA,"GHFIEJDKCAB",NA,NA,"B (MDot First)",1,213,"SS1","SS1",9,"J","Judginess","y8ii7g",1,"continue","",17182.6739999997,17181.06,17182.6739999997,17182.6739999997,17181.06,17182.6739999997,1,17182.6739999997,0,0,NA,"Click To Continue","Continue Button",1,"object-14","J","CFD-BF-040-003-N.jpg",NA,"SUPTM84507"
"36",1689020644579,"10/07/2023 20:24:04",1689024244579,1,"10/07/2023 22:24:04",137495,33,"task-v6vm",NA,30603502,9086165,NA,"complete",NA,NA,"computer","Desktop or Laptop","Windows 10","Chrome 114.0.0.0","1041x586","1157x494",NA,NA,NA,"JV Task P3 (Updated)",4,"Anxious",NA,"In",NA,NA,"GHFIEJDKCAB",NA,NA,"B (MDot First)",1,213,"SS1","SS1",9,"J","Judginess","y8ii7g",1,"response","85",15947.933,17181.06,17187.0739999996,15947.933,17181.06,17187.0739999996,1,15947.933,1239.14099999962,0,NA,"Slider","J",3,"object-18","J","CFD-BF-040-003-N.jpg",NA,"SUPTM84507"
"37",1689020645541,"10/07/2023 20:24:05",1689024245541,1,"10/07/2023 22:24:05",137495,33,"task-v6vm",NA,30603502,9086165,NA,"complete",NA,NA,"computer","Desktop or Laptop","Windows 10","Chrome 114.0.0.0","1041x586","1157x494",NA,NA,NA,"JV Task P3 (Updated)",4,"Anxious",NA,"In",NA,NA,"GHFIEJDKCAB",NA,NA,"B (MDot First)",1,213,"SS1","SS1",9,"J","Fixation","w9zir9",2,"continue","",966.603000000003,966.603000000003,966.603000000003,966.603000000003,966.603000000003,966.603000000003,1,966.603000000003,0,0,NA,"Fixation Timing","Fixation",1,"object-65","J","CFD-BF-040-003-N.jpg",NA,"SUPTM84507"
"38",1689020653189,"10/07/2023 20:24:13",1689024253189,1,"10/07/2023 22:24:13",137495,33,"task-v6vm",NA,30603502,9086165,NA,"complete",NA,NA,"computer","Desktop or Laptop","Windows 10","Chrome 114.0.0.0","1041x586","1157x494",NA,NA,NA,"JV Task P3 (Updated)",4,"Anxious",NA,"In",NA,NA,"GHFIEJDKCAB",NA,NA,"B (MDot First)",1,213,"SS1","SS1",10,"J","Judginess","y8ii7g",1,"continue","",7648.617,7632.307,7648.617,7648.617,7632.307,7648.617,1,7648.617,0,0,NA,"Click To Continue","Continue Button",1,"object-14","J","CFD-MM-313-002-H.jpeg",NA,"SUPTM84507"
"39",1689020653189,"10/07/2023 20:24:13",1689024253189,1,"10/07/2023 22:24:13",137495,33,"task-v6vm",NA,30603502,9086165,NA,"complete",NA,NA,"computer","Desktop or Laptop","Windows 10","Chrome 114.0.0.0","1041x586","1157x494",NA,NA,NA,"JV Task P3 (Updated)",4,"Anxious",NA,"In",NA,NA,"GHFIEJDKCAB",NA,NA,"B (MDot First)",1,213,"SS1","SS1",10,"J","Judginess","y8ii7g",1,"response","84",6665.764,7632.307,7648.617,6665.764,7632.307,7648.617,1,6665.764,982.853000000003,0,NA,"Slider","J",3,"object-18","J","CFD-MM-313-002-H.jpeg",NA,"SUPTM84507"
"40",1689020654139,"10/07/2023 20:24:14",1689024254139,1,"10/07/2023 22:24:14",137495,33,"task-v6vm",NA,30603502,9086165,NA,"complete",NA,NA,"computer","Desktop or Laptop","Windows 10","Chrome 114.0.0.0","1041x586","1157x494",NA,NA,NA,"JV Task P3 (Updated)",4,"Anxious",NA,"In",NA,NA,"GHFIEJDKCAB",NA,NA,"B (MDot First)",1,213,"SS1","SS1",10,"J","Fixation","w9zir9",2,"continue","",966.565000000002,966.565000000002,966.565000000002,966.565000000002,966.565000000002,966.565000000002,1,966.565000000002,0,0,NA,"Fixation Timing","Fixation",1,"object-65","J","CFD-MM-313-002-H.jpeg",NA,"SUPTM84507"
"41",1689020656875,"10/07/2023 20:24:16",1689024256875,1,"10/07/2023 22:24:16",137495,33,"task-v6vm",NA,30603502,9086165,NA,"complete",NA,NA,"computer","Desktop or Laptop","Windows 10","Chrome 114.0.0.0","1041x586","1157x494",NA,NA,NA,"JV Task P3 (Updated)",4,"Anxious",NA,"In",NA,NA,"GHFIEJDKCAB",NA,NA,"B (MDot First)",1,213,"SS1","SS1",4,"V","Valence","xyoebq",1,"continue","",2736.63899999972,2733.14,2736.63899999972,2736.63899999972,2733.14,2736.63899999972,1,2736.63899999972,0,0,NA,"Click To Continue","Continue Button",1,"object-25","V","CFD-WF-037-029-H.jpeg",NA,"SUPTM84507"
"42",1689020656879,"10/07/2023 20:24:16",1689024256879,1,"10/07/2023 22:24:16",137495,33,"task-v6vm",NA,30603502,9086165,NA,"complete",NA,NA,"computer","Desktop or Laptop","Windows 10","Chrome 114.0.0.0","1041x586","1157x494",NA,NA,NA,"JV Task P3 (Updated)",4,"Anxious",NA,"In",NA,NA,"GHFIEJDKCAB",NA,NA,"B (MDot First)",1,213,"SS1","SS1",4,"V","Valence","xyoebq",1,"response","90",1833.121,2733.14,2740.439,1833.121,2733.14,2740.439,1,1833.121,907.317999999999,0,NA,"Slider","J",3,"object-27","V","CFD-WF-037-029-H.jpeg",NA,"SUPTM84507"
"43",1689020657840,"10/07/2023 20:24:17",1689024257840,1,"10/07/2023 22:24:17",137495,33,"task-v6vm",NA,30603502,9086165,NA,"complete",NA,NA,"computer","Desktop or Laptop","Windows 10","Chrome 114.0.0.0","1041x586","1157x494",NA,NA,NA,"JV Task P3 (Updated)",4,"Anxious",NA,"In",NA,NA,"GHFIEJDKCAB",NA,NA,"B (MDot First)",1,213,"SS1","SS1",4,"V","Fixation","68owkj",2,"continue","",966.763999999996,966.763999999996,966.763999999996,966.763999999996,966.763999999996,966.763999999996,1,966.763999999996,0,0,NA,"Fixation Timing","Fixation",1,"object-21","V","CFD-WF-037-029-H.jpeg",NA,"SUPTM84507"
"44",1689020659979,"10/07/2023 20:24:19",1689024259979,1,"10/07/2023 22:24:19",137495,33,"task-v6vm",NA,30603502,9086165,NA,"complete",NA,NA,"computer","Desktop or Laptop","Windows 10","Chrome 114.0.0.0","1041x586","1157x494",NA,NA,NA,"JV Task P3 (Updated)",4,"Anxious",NA,"In",NA,NA,"GHFIEJDKCAB",NA,NA,"B (MDot First)",1,213,"SS1","SS1",5,"V","Valence","xyoebq",1,"continue","",2139.83499999982,2132.611,2139.83499999982,2139.83499999982,2132.611,2139.83499999982,1,2139.83499999982,0,0,NA,"Click To Continue","Continue Button",1,"object-25","V","CFD-WF-022-017-H.jpeg",NA,"SUPTM84507"
"45",1689020659979,"10/07/2023 20:24:19",1689024259979,1,"10/07/2023 22:24:19",137495,33,"task-v6vm",NA,30603502,9086165,NA,"complete",NA,NA,"computer","Desktop or Laptop","Windows 10","Chrome 114.0.0.0","1041x586","1157x494",NA,NA,NA,"JV Task P3 (Updated)",4,"Anxious",NA,"In",NA,NA,"GHFIEJDKCAB",NA,NA,"B (MDot First)",1,213,"SS1","SS1",5,"V","Valence","xyoebq",1,"response","79",1233.25,2132.611,2140.43499999991,1233.25,2132.611,2140.43499999991,1,1233.25,907.18499999991,0,NA,"Slider","J",3,"object-27","V","CFD-WF-022-017-H.jpeg",NA,"SUPTM84507"
"46",1689020660939,"10/07/2023 20:24:20",1689024260939,1,"10/07/2023 22:24:20",137495,33,"task-v6vm",NA,30603502,9086165,NA,"complete",NA,NA,"computer","Desktop or Laptop","Windows 10","Chrome 114.0.0.0","1041x586","1157x494",NA,NA,NA,"JV Task P3 (Updated)",4,"Anxious",NA,"In",NA,NA,"GHFIEJDKCAB",NA,NA,"B (MDot First)",1,213,"SS1","SS1",5,"V","Fixation","68owkj",2,"continue","",966.626000000004,966.626000000004,966.626000000004,966.626000000004,966.626000000004,966.626000000004,1,966.626000000004,0,0,NA,"Fixation Timing","Fixation",1,"object-21","V","CFD-WF-022-017-H.jpeg",NA,"SUPTM84507"
"47",1689020667158,"10/07/2023 20:24:27",1689024267158,1,"10/07/2023 22:24:27",137495,33,"task-v6vm",NA,30603502,9086165,NA,"complete",NA,NA,"computer","Desktop or Laptop","Windows 10","Chrome 114.0.0.0","1041x586","1157x494",NA,NA,NA,"JV Task P3 (Updated)",4,"Anxious",NA,"In",NA,NA,"GHFIEJDKCAB",NA,NA,"B (MDot First)",1,213,"SS1","SS1",11,"J","Judginess","y8ii7g",1,"continue","",6219.89799999962,6215.75199999999,6219.89799999962,6219.89799999962,6215.75199999999,6219.89799999962,1,6219.89799999962,0,0,NA,"Click To Continue","Continue Button",1,"object-14","J","CFD-WM-037-025-S.jpeg",NA,"SUPTM84507"
"48",1689020667160,"10/07/2023 20:24:27",1689024267160,1,"10/07/2023 22:24:27",137495,33,"task-v6vm",NA,30603502,9086165,NA,"complete",NA,NA,"computer","Desktop or Laptop","Windows 10","Chrome 114.0.0.0","1041x586","1157x494",NA,NA,NA,"JV Task P3 (Updated)",4,"Anxious",NA,"In",NA,NA,"GHFIEJDKCAB",NA,NA,"B (MDot First)",1,213,"SS1","SS1",11,"J","Judginess","y8ii7g",1,"response","87",5232.815,6215.75199999999,6221.798,5232.815,6215.75199999999,6221.798,1,5232.815,988.982999999993,0,NA,"Slider","J",3,"object-18","J","CFD-WM-037-025-S.jpeg",NA,"SUPTM84507"
"49",1689020668121,"10/07/2023 20:24:28",1689024268121,1,"10/07/2023 22:24:28",137495,33,"task-v6vm",NA,30603502,9086165,NA,"complete",NA,NA,"computer","Desktop or Laptop","Windows 10","Chrome 114.0.0.0","1041x586","1157x494",NA,NA,NA,"JV Task P3 (Updated)",4,"Anxious",NA,"In",NA,NA,"GHFIEJDKCAB",NA,NA,"B (MDot First)",1,213,"SS1","SS1",11,"J","Fixation","w9zir9",2,"continue","",966.551999999996,966.551999999996,966.551999999996,966.551999999996,966.551999999996,966.551999999996,1,966.551999999996,0,0,NA,"Fixation Timing","Fixation",1,"object-65","J","CFD-WM-037-025-S.jpeg",NA,"SUPTM84507"
"50",1689020671060,"10/07/2023 20:24:31",1689024271060,1,"10/07/2023 22:24:31",137495,33,"task-v6vm",NA,30603502,9086165,NA,"complete",NA,NA,"computer","Desktop or Laptop","Windows 10","Chrome 114.0.0.0","1041x586","1157x494",NA,NA,NA,"JV Task P3 (Updated)",4,"Anxious",NA,"In",NA,NA,"GHFIEJDKCAB",NA,NA,"B (MDot First)",1,213,"SS1","SS1",6,"V","Valence","xyoebq",1,"continue","",2939.49400000001,2933.06300000001,2939.49400000001,2939.49400000001,2933.06300000001,2939.49400000001,1,2939.49400000001,0,0,NA,"Click To Continue","Continue Button",1,"object-25","V","CFD-WF-024-003-N.jpg",NA,"SUPTM84507"
"51",1689020671060,"10/07/2023 20:24:31",1689024271060,1,"10/07/2023 22:24:31",137495,33,"task-v6vm",NA,30603502,9086165,NA,"complete",NA,NA,"computer","Desktop or Laptop","Windows 10","Chrome 114.0.0.0","1041x586","1157x494",NA,NA,NA,"JV Task P3 (Updated)",4,"Anxious",NA,"In",NA,NA,"GHFIEJDKCAB",NA,NA,"B (MDot First)",1,213,"SS1","SS1",6,"V","Valence","xyoebq",1,"response","90",1849.81200000001,2933.06300000001,2939.99400000001,1849.81200000001,2933.06300000001,2939.99400000001,1,1849.81200000001,1090.182,0,NA,"Slider","J",3,"object-27","V","CFD-WF-024-003-N.jpg",NA,"SUPTM84507"
"52",1689020672021,"10/07/2023 20:24:32",1689024272021,1,"10/07/2023 22:24:32",137495,33,"task-v6vm",NA,30603502,9086165,NA,"complete",NA,NA,"computer","Desktop or Laptop","Windows 10","Chrome 114.0.0.0","1041x586","1157x494",NA,NA,NA,"JV Task P3 (Updated)",4,"Anxious",NA,"In",NA,NA,"GHFIEJDKCAB",NA,NA,"B (MDot First)",1,213,"SS1","SS1",6,"V","Fixation","68owkj",2,"continue","",966.997999999992,966.997999999992,966.997999999992,966.997999999992,966.997999999992,966.997999999992,1,966.997999999992,0,0,NA,"Fixation Timing","Fixation",1,"object-21","V","CFD-WF-024-003-N.jpg",NA,"SUPTM84507"
"53",1689020674871,"10/07/2023 20:24:34",1689024274871,1,"10/07/2023 22:24:34",137495,33,"task-v6vm",NA,30603502,9086165,NA,"complete",NA,NA,"computer","Desktop or Laptop","Windows 10","Chrome 114.0.0.0","1041x586","1157x494",NA,NA,NA,"JV Task P3 (Updated)",4,"Anxious",NA,"In",NA,NA,"GHFIEJDKCAB",NA,NA,"B (MDot First)",1,213,"SS1","SS1",12,"J","Judginess","y8ii7g",1,"continue","",2848.814,2832.432,2848.814,2848.814,2832.432,2848.814,1,2848.814,0,0,NA,"Click To Continue","Continue Button",1,"object-14","J","CFD-BM-028-002-H.jpeg",NA,"SUPTM84507"
"54",1689020674871,"10/07/2023 20:24:34",1689024274871,1,"10/07/2023 22:24:34",137495,33,"task-v6vm",NA,30603502,9086165,NA,"complete",NA,NA,"computer","Desktop or Laptop","Windows 10","Chrome 114.0.0.0","1041x586","1157x494",NA,NA,NA,"JV Task P3 (Updated)",4,"Anxious",NA,"In",NA,NA,"GHFIEJDKCAB",NA,NA,"B (MDot First)",1,213,"SS1","SS1",12,"J","Judginess","y8ii7g",1,"response","85",1949.46000000001,2832.432,2848.814,1949.46000000001,2832.432,2848.814,1,1949.46000000001,899.353999999992,0,NA,"Slider","J",3,"object-18","J","CFD-BM-028-002-H.jpeg",NA,"SUPTM84507"
"55",1689020675820,"10/07/2023 20:24:35",1689024275820,1,"10/07/2023 22:24:35",137495,33,"task-v6vm",NA,30603502,9086165,NA,"complete",NA,NA,"computer","Desktop or Laptop","Windows 10","Chrome 114.0.0.0","1041x586","1157x494",NA,NA,NA,"JV Task P3 (Updated)",4,"Anxious",NA,"In",NA,NA,"GHFIEJDKCAB",NA,NA,"B (MDot First)",1,213,"SS1","SS1",12,"J","Fixation","w9zir9",2,"continue","",966.603000000003,966.603000000003,966.603000000003,966.603000000003,966.603000000003,966.603000000003,1,966.603000000003,0,0,NA,"Fixation Timing","Fixation",1,"object-65","J","CFD-BM-028-002-H.jpeg",NA,"SUPTM84507"
"56",1689020683022,"10/07/2023 20:24:43",1689024283022,1,"10/07/2023 22:24:43",137495,33,"task-v6vm",NA,30603502,9086165,NA,"complete",NA,NA,"computer","Desktop or Laptop","Windows 10","Chrome 114.0.0.0","1041x586","1157x494",NA,NA,NA,"JV Task P3 (Updated)",4,"Anxious",NA,"In",NA,NA,"GHFIEJDKCAB",NA,NA,"B (MDot First)",1,213,"SS1","SS1",7,"V","Valence","xyoebq",1,"continue","",7202.59799999972,7199.05500000001,7202.59799999972,7202.59799999972,7199.05500000001,7202.59799999972,1,7202.59799999972,0,0,NA,"Click To Continue","Continue Button",1,"object-25","V","CFD-MF-315-002-H.jpeg",NA,"SUPTM84507"
"57",1689020683027,"10/07/2023 20:24:43",1689024283027,1,"10/07/2023 22:24:43",137495,33,"task-v6vm",NA,30603502,9086165,NA,"complete",NA,NA,"computer","Desktop or Laptop","Windows 10","Chrome 114.0.0.0","1041x586","1157x494",NA,NA,NA,"JV Task P3 (Updated)",4,"Anxious",NA,"In",NA,NA,"GHFIEJDKCAB",NA,NA,"B (MDot First)",1,213,"SS1","SS1",7,"V","Valence","xyoebq",1,"response","81",4216.201,7199.05500000001,7207.898,4216.201,7199.05500000001,7207.898,1,4216.201,2991.697,0,NA,"Slider","J",3,"object-27","V","CFD-MF-315-002-H.jpeg",NA,"SUPTM84507"
"58",1689020683985,"10/07/2023 20:24:43",1689024283985,1,"10/07/2023 22:24:43",137495,33,"task-v6vm",NA,30603502,9086165,NA,"complete",NA,NA,"computer","Desktop or Laptop","Windows 10","Chrome 114.0.0.0","1041x586","1157x494",NA,NA,NA,"JV Task P3 (Updated)",4,"Anxious",NA,"In",NA,NA,"GHFIEJDKCAB",NA,NA,"B (MDot First)",1,213,"SS1","SS1",7,"V","Fixation","68owkj",2,"continue","",966.511999999988,966.511999999988,966.511999999988,966.511999999988,966.511999999988,966.511999999988,1,966.511999999988,0,0,NA,"Fixation Timing","Fixation",1,"object-21","V","CFD-MF-315-002-H.jpeg",NA,"SUPTM84507"
"59",1689020686892,"10/07/2023 20:24:46",1689024286892,1,"10/07/2023 22:24:46",137495,33,"task-v6vm",NA,30603502,9086165,NA,"complete",NA,NA,"computer","Desktop or Laptop","Windows 10","Chrome 114.0.0.0","1041x586","1157x494",NA,NA,NA,"JV Task P3 (Updated)",4,"Anxious",NA,"In",NA,NA,"GHFIEJDKCAB",NA,NA,"B (MDot First)",1,213,"SS1","SS1",13,"J","Judginess","y8ii7g",1,"continue","",2907.23099999991,2899.84100000001,2907.23099999991,2907.23099999991,2899.84100000001,2907.23099999991,1,2907.23099999991,0,0,NA,"Click To Continue","Continue Button",1,"object-14","J","CFD-WF-012-002-S.jpeg",NA,"SUPTM84507"
"60",1689020686893,"10/07/2023 20:24:46",1689024286893,1,"10/07/2023 22:24:46",137495,33,"task-v6vm",NA,30603502,9086165,NA,"complete",NA,NA,"computer","Desktop or Laptop","Windows 10","Chrome 114.0.0.0","1041x586","1157x494",NA,NA,NA,"JV Task P3 (Updated)",4,"Anxious",NA,"In",NA,NA,"GHFIEJDKCAB",NA,NA,"B (MDot First)",1,213,"SS1","SS1",13,"J","Judginess","y8ii7g",1,"response","91",1916.364,2899.84100000001,2907.83100000001,1916.364,2899.84100000001,2907.83100000001,1,1916.364,991.467000000004,0,NA,"Slider","J",3,"object-18","J","CFD-WF-012-002-S.jpeg",NA,"SUPTM84507"
"61",1689020687852,"10/07/2023 20:24:47",1689024287852,1,"10/07/2023 22:24:47",137495,33,"task-v6vm",NA,30603502,9086165,NA,"complete",NA,NA,"computer","Desktop or Laptop","Windows 10","Chrome 114.0.0.0","1041x586","1157x494",NA,NA,NA,"JV Task P3 (Updated)",4,"Anxious",NA,"In",NA,NA,"GHFIEJDKCAB",NA,NA,"B (MDot First)",1,213,"SS1","SS1",13,"J","Fixation","w9zir9",2,"continue","",966.600999999995,966.600999999995,966.600999999995,966.600999999995,966.600999999995,966.600999999995,1,966.600999999995,0,0,NA,"Fixation Timing","Fixation",1,"object-65","J","CFD-WF-012-002-S.jpeg",NA,"SUPTM84507"
"62",1689020690572,"10/07/2023 20:24:50",1689024290572,1,"10/07/2023 22:24:50",137495,33,"task-v6vm",NA,30603502,9086165,NA,"complete",NA,NA,"computer","Desktop or Laptop","Windows 10","Chrome 114.0.0.0","1041x586","1157x494",NA,NA,NA,"JV Task P3 (Updated)",4,"Anxious",NA,"In",NA,NA,"GHFIEJDKCAB",NA,NA,"B (MDot First)",1,213,"SS1","SS1",14,"J","Judginess","y8ii7g",1,"continue","",2720.2889999999,2716.321,2720.2889999999,2720.2889999999,2716.321,2720.2889999999,1,2720.2889999999,0,0,NA,"Click To Continue","Continue Button",1,"object-14","J","CFD-WF-031-027-S.jpeg",NA,"SUPTM84507"
"63",1689020690572,"10/07/2023 20:24:50",1689024290572,1,"10/07/2023 22:24:50",137495,33,"task-v6vm",NA,30603502,9086165,NA,"complete",NA,NA,"computer","Desktop or Laptop","Windows 10","Chrome 114.0.0.0","1041x586","1157x494",NA,NA,NA,"JV Task P3 (Updated)",4,"Anxious",NA,"In",NA,NA,"GHFIEJDKCAB",NA,NA,"B (MDot First)",1,213,"SS1","SS1",14,"J","Judginess","y8ii7g",1,"response","89",1832.85999999999,2716.321,2720.889,1832.85999999999,2716.321,2720.889,1,1832.85999999999,888.02900000001,0,NA,"Slider","J",3,"object-18","J","CFD-WF-031-027-S.jpeg",NA,"SUPTM84507"
"64",1689020691534,"10/07/2023 20:24:51",1689024291534,1,"10/07/2023 22:24:51",137495,33,"task-v6vm",NA,30603502,9086165,NA,"complete",NA,NA,"computer","Desktop or Laptop","Windows 10","Chrome 114.0.0.0","1041x586","1157x494",NA,NA,NA,"JV Task P3 (Updated)",4,"Anxious",NA,"In",NA,NA,"GHFIEJDKCAB",NA,NA,"B (MDot First)",1,213,"SS1","SS1",14,"J","Fixation","w9zir9",2,"continue","",966.329999999987,966.329999999987,966.329999999987,966.329999999987,966.329999999987,966.329999999987,1,966.329999999987,0,0,NA,"Fixation Timing","Fixation",1,"object-65","J","CFD-WF-031-027-S.jpeg",NA,"SUPTM84507"
"65",1689020695162,"10/07/2023 20:24:55",1689024295162,1,"10/07/2023 22:24:55",137495,33,"task-v6vm",NA,30603502,9086165,NA,"complete",NA,NA,"computer","Desktop or Laptop","Windows 10","Chrome 114.0.0.0","1041x586","1157x494",NA,NA,NA,"JV Task P3 (Updated)",4,"Anxious",NA,"In",NA,NA,"GHFIEJDKCAB",NA,NA,"B (MDot First)",1,213,"SS1","SS1",8,"V","Valence","xyoebq",1,"continue","",3628.03799999983,3616.06300000002,3628.03799999983,3628.03799999983,3616.06300000002,3628.03799999983,1,3628.03799999983,0,0,NA,"Click To Continue","Continue Button",1,"object-25","V","CFD-WF-022-017-H.jpeg",NA,"SUPTM84507"
"66",1689020695165,"10/07/2023 20:24:55",1689024295165,1,"10/07/2023 22:24:55",137495,33,"task-v6vm",NA,30603502,9086165,NA,"complete",NA,NA,"computer","Desktop or Laptop","Windows 10","Chrome 114.0.0.0","1041x586","1157x494",NA,NA,NA,"JV Task P3 (Updated)",4,"Anxious",NA,"In",NA,NA,"GHFIEJDKCAB",NA,NA,"B (MDot First)",1,213,"SS1","SS1",8,"V","Valence","xyoebq",1,"response","90",2716.23400000003,3616.06300000002,3631.23800000001,2716.23400000003,3616.06300000002,3631.23800000001,1,2716.23400000003,915.003999999986,0,NA,"Slider","J",3,"object-27","V","CFD-WF-022-017-H.jpeg",NA,"SUPTM84507"
"67",1689020696117,"10/07/2023 20:24:56",1689024296117,1,"10/07/2023 22:24:56",137495,33,"task-v6vm",NA,30603502,9086165,NA,"complete",NA,NA,"computer","Desktop or Laptop","Windows 10","Chrome 114.0.0.0","1041x586","1157x494",NA,NA,NA,"JV Task P3 (Updated)",4,"Anxious",NA,"In",NA,NA,"GHFIEJDKCAB",NA,NA,"B (MDot First)",1,213,"SS1","SS1",8,"V","Fixation","68owkj",2,"continue","",966.64499999999,966.64499999999,966.64499999999,966.64499999999,966.64499999999,966.64499999999,1,966.64499999999,0,0,NA,"Fixation Timing","Fixation",1,"object-21","V","CFD-WF-022-017-H.jpeg",NA,"SUPTM84507"
"68",1689020700791,"10/07/2023 20:25:00",1689024300791,1,"10/07/2023 22:25:00",137495,33,"task-v6vm",NA,30603502,9086165,NA,"complete",NA,NA,"computer","Desktop or Laptop","Windows 10","Chrome 114.0.0.0","1041x586","1157x494",NA,NA,NA,"JV Task P3 (Updated)",4,"Anxious",NA,"In",NA,NA,"GHFIEJDKCAB",NA,NA,"B (MDot First)",1,213,"SS1","SS1",9,"V","Valence","xyoebq",1,"continue","",4674.82999999981,4666.04500000001,4674.82999999981,4674.82999999981,4666.04500000001,4674.82999999981,1,4674.82999999981,0,0,NA,"Click To Continue","Continue Button",1,"object-25","V","CFD-IM-695-001-S.jpeg",NA,"SUPTM84507"
"69",1689020700792,"10/07/2023 20:25:00",1689024300792,1,"10/07/2023 22:25:00",137495,33,"task-v6vm",NA,30603502,9086165,NA,"complete",NA,NA,"computer","Desktop or Laptop","Windows 10","Chrome 114.0.0.0","1041x586","1157x494",NA,NA,NA,"JV Task P3 (Updated)",4,"Anxious",NA,"In",NA,NA,"GHFIEJDKCAB",NA,NA,"B (MDot First)",1,213,"SS1","SS1",9,"V","Valence","xyoebq",1,"response","84",3682.802,4666.04500000001,4675.32999999981,3682.802,4666.04500000001,4675.32999999981,1,3682.802,992.527999999817,0,NA,"Slider","J",3,"object-27","V","CFD-IM-695-001-S.jpeg",NA,"SUPTM84507"
"70",1689020701750,"10/07/2023 20:25:01",1689024301750,1,"10/07/2023 22:25:01",137495,33,"task-v6vm",NA,30603502,9086165,NA,"complete",NA,NA,"computer","Desktop or Laptop","Windows 10","Chrome 114.0.0.0","1041x586","1157x494",NA,NA,NA,"JV Task P3 (Updated)",4,"Anxious",NA,"In",NA,NA,"GHFIEJDKCAB",NA,NA,"B (MDot First)",1,213,"SS1","SS1",9,"V","Fixation","68owkj",2,"continue","",966.614999999991,966.614999999991,966.614999999991,966.614999999991,966.614999999991,966.614999999991,1,966.614999999991,0,0,NA,"Fixation Timing","Fixation",1,"object-21","V","CFD-IM-695-001-S.jpeg",NA,"SUPTM84507"
"71",1689020706195,"10/07/2023 20:25:06",1689024306195,1,"10/07/2023 22:25:06",137495,33,"task-v6vm",NA,30603502,9086165,NA,"complete",NA,NA,"computer","Desktop or Laptop","Windows 10","Chrome 114.0.0.0","1041x586","1157x494",NA,NA,NA,"JV Task P3 (Updated)",4,"Anxious",NA,"In",NA,NA,"GHFIEJDKCAB",NA,NA,"B (MDot First)",1,213,"SS1","SS1",15,"J","Judginess","y8ii7g",1,"continue","",4445.56999999972,4432.91399999999,4445.56999999972,4445.56999999972,4432.91399999999,4445.56999999972,1,4445.56999999972,0,0,NA,"Click To Continue","Continue Button",1,"object-14","J","CFD-AF-211-066-S.jpeg",NA,"SUPTM84507"
"72",1689020706200,"10/07/2023 20:25:06",1689024306200,1,"10/07/2023 22:25:06",137495,33,"task-v6vm",NA,30603502,9086165,NA,"complete",NA,NA,"computer","Desktop or Laptop","Windows 10","Chrome 114.0.0.0","1041x586","1157x494",NA,NA,NA,"JV Task P3 (Updated)",4,"Anxious",NA,"In",NA,NA,"GHFIEJDKCAB",NA,NA,"B (MDot First)",1,213,"SS1","SS1",15,"J","Judginess","y8ii7g",1,"response","85",3416.18299999999,4432.91399999999,4449.54699999999,3416.18299999999,4432.91399999999,4449.54699999999,1,3416.18299999999,1033.364,0,NA,"Slider","J",3,"object-18","J","CFD-AF-211-066-S.jpeg",NA,"SUPTM84507"
"73",1689020707149,"10/07/2023 20:25:07",1689024307149,1,"10/07/2023 22:25:07",137495,33,"task-v6vm",NA,30603502,9086165,NA,"complete",NA,NA,"computer","Desktop or Laptop","Windows 10","Chrome 114.0.0.0","1041x586","1157x494",NA,NA,NA,"JV Task P3 (Updated)",4,"Anxious",NA,"In",NA,NA,"GHFIEJDKCAB",NA,NA,"B (MDot First)",1,213,"SS1","SS1",15,"J","Fixation","w9zir9",2,"continue","",966.342000000004,966.342000000004,966.342000000004,966.342000000004,966.342000000004,966.342000000004,1,966.342000000004,0,0,NA,"Fixation Timing","Fixation",1,"object-65","J","CFD-AF-211-066-S.jpeg",NA,"SUPTM84507"
"74",1689020712341,"10/07/2023 20:25:12",1689024312341,1,"10/07/2023 22:25:12",137495,33,"task-v6vm",NA,30603502,9086165,NA,"complete",NA,NA,"computer","Desktop or Laptop","Windows 10","Chrome 114.0.0.0","1041x586","1157x494",NA,NA,NA,"JV Task P3 (Updated)",4,"Anxious",NA,"In",NA,NA,"GHFIEJDKCAB",NA,NA,"B (MDot First)",1,213,"SS1","SS1",10,"V","Valence","xyoebq",1,"continue","",5192.81399999972,5182.86000000002,5192.81399999972,5192.81399999972,5182.86000000002,5192.81399999972,1,5192.81399999972,0,0,NA,"Click To Continue","Continue Button",1,"object-25","V","CFD-AM-220-134-H.jpeg",NA,"SUPTM84507"
"75",1689020712342,"10/07/2023 20:25:12",1689024312342,1,"10/07/2023 22:25:12",137495,33,"task-v6vm",NA,30603502,9086165,NA,"complete",NA,NA,"computer","Desktop or Laptop","Windows 10","Chrome 114.0.0.0","1041x586","1157x494",NA,NA,NA,"JV Task P3 (Updated)",4,"Anxious",NA,"In",NA,NA,"GHFIEJDKCAB",NA,NA,"B (MDot First)",1,213,"SS1","SS1",10,"V","Valence","xyoebq",1,"response","84",4116.084,5182.86000000002,5193.31399999972,4116.084,5182.86000000002,5193.31399999972,1,4116.084,1077.22999999972,0,NA,"Slider","J",3,"object-27","V","CFD-AM-220-134-H.jpeg",NA,"SUPTM84507"
"76",1689020713298,"10/07/2023 20:25:13",1689024313298,1,"10/07/2023 22:25:13",137495,33,"task-v6vm",NA,30603502,9086165,NA,"complete",NA,NA,"computer","Desktop or Laptop","Windows 10","Chrome 114.0.0.0","1041x586","1157x494",NA,NA,NA,"JV Task P3 (Updated)",4,"Anxious",NA,"In",NA,NA,"GHFIEJDKCAB",NA,NA,"B (MDot First)",1,213,"SS1","SS1",10,"V","Fixation","68owkj",2,"continue","",966.319999999978,966.319999999978,966.319999999978,966.319999999978,966.319999999978,966.319999999978,1,966.319999999978,0,0,NA,"Fixation Timing","Fixation",1,"object-21","V","CFD-AM-220-134-H.jpeg",NA,"SUPTM84507"
"77",1689020720898,"10/07/2023 20:25:20",1689024320898,1,"10/07/2023 22:25:20",137495,33,"task-v6vm",NA,30603502,9086165,NA,"complete",NA,NA,"computer","Desktop or Laptop","Windows 10","Chrome 114.0.0.0","1041x586","1157x494",NA,NA,NA,"JV Task P3 (Updated)",4,"Anxious",NA,"In",NA,NA,"GHFIEJDKCAB",NA,NA,"B (MDot First)",1,213,"SS1","SS1",11,"V","Valence","xyoebq",1,"continue","",7598.976,7582.285,7598.976,7598.976,7582.285,7598.976,1,7598.976,0,0,NA,"Click To Continue","Continue Button",1,"object-25","V","CFD-WF-024-003-H.jpeg",NA,"SUPTM84507"
"78",1689020720902,"10/07/2023 20:25:20",1689024320902,1,"10/07/2023 22:25:20",137495,33,"task-v6vm",NA,30603502,9086165,NA,"complete",NA,NA,"computer","Desktop or Laptop","Windows 10","Chrome 114.0.0.0","1041x586","1157x494",NA,NA,NA,"JV Task P3 (Updated)",4,"Anxious",NA,"In",NA,NA,"GHFIEJDKCAB",NA,NA,"B (MDot First)",1,213,"SS1","SS1",11,"V","Valence","xyoebq",1,"response","89",6582.41200000001,7582.285,7598.976,6582.41200000001,7582.285,7598.976,1,6582.41200000001,1016.56399999998,0,NA,"Slider","J",3,"object-27","V","CFD-WF-024-003-H.jpeg",NA,"SUPTM84507"
"79",1689020721847,"10/07/2023 20:25:21",1689024321847,1,"10/07/2023 22:25:21",137495,33,"task-v6vm",NA,30603502,9086165,NA,"complete",NA,NA,"computer","Desktop or Laptop","Windows 10","Chrome 114.0.0.0","1041x586","1157x494",NA,NA,NA,"JV Task P3 (Updated)",4,"Anxious",NA,"In",NA,NA,"GHFIEJDKCAB",NA,NA,"B (MDot First)",1,213,"SS1","SS1",11,"V","Fixation","68owkj",2,"continue","",966.587,966.587,966.587,966.587,966.587,966.587,1,966.587,0,0,NA,"Fixation Timing","Fixation",1,"object-21","V","CFD-WF-024-003-H.jpeg",NA,"SUPTM84507"
"80",1689020724607,"10/07/2023 20:25:24",1689024324607,1,"10/07/2023 22:25:24",137495,33,"task-v6vm",NA,30603502,9086165,NA,"complete",NA,NA,"computer","Desktop or Laptop","Windows 10","Chrome 114.0.0.0","1041x586","1157x494",NA,NA,NA,"JV Task P3 (Updated)",4,"Anxious",NA,"In",NA,NA,"GHFIEJDKCAB",NA,NA,"B (MDot First)",1,213,"SS1","SS1",12,"V","Valence","xyoebq",1,"continue","",2760.06200000001,2749.63800000001,2760.06200000001,2760.06200000001,2749.63800000001,2760.06200000001,1,2760.06200000001,0,0,NA,"Click To Continue","Continue Button",1,"object-25","V","CFD-AF-211-066-N.jpg",NA,"SUPTM84507"
"81",1689020724607,"10/07/2023 20:25:24",1689024324607,1,"10/07/2023 22:25:24",137495,33,"task-v6vm",NA,30603502,9086165,NA,"complete",NA,NA,"computer","Desktop or Laptop","Windows 10","Chrome 114.0.0.0","1041x586","1157x494",NA,NA,NA,"JV Task P3 (Updated)",4,"Anxious",NA,"In",NA,NA,"GHFIEJDKCAB",NA,NA,"B (MDot First)",1,213,"SS1","SS1",12,"V","Valence","xyoebq",1,"response","85",1816.42500000002,2749.63800000001,2760.56200000001,1816.42500000002,2749.63800000001,2760.56200000001,1,1816.42500000002,944.136999999988,0,NA,"Slider","J",3,"object-27","V","CFD-AF-211-066-N.jpg",NA,"SUPTM84507"
"82",1689020725564,"10/07/2023 20:25:25",1689024325564,1,"10/07/2023 22:25:25",137495,33,"task-v6vm",NA,30603502,9086165,NA,"complete",NA,NA,"computer","Desktop or Laptop","Windows 10","Chrome 114.0.0.0","1041x586","1157x494",NA,NA,NA,"JV Task P3 (Updated)",4,"Anxious",NA,"In",NA,NA,"GHFIEJDKCAB",NA,NA,"B (MDot First)",1,213,"SS1","SS1",12,"V","Fixation","68owkj",2,"continue","",966.736999999994,966.736999999994,966.736999999994,966.736999999994,966.736999999994,966.736999999994,1,966.736999999994,0,0,NA,"Fixation Timing","Fixation",1,"object-21","V","CFD-AF-211-066-N.jpg",NA,"SUPTM84507"
"83",1689020727484,"10/07/2023 20:25:27",1689024327484,1,"10/07/2023 22:25:27",137495,33,"task-v6vm",NA,30603502,9086165,NA,"complete",NA,NA,"computer","Desktop or Laptop","Windows 10","Chrome 114.0.0.0","1041x586","1157x494",NA,NA,NA,"JV Task P3 (Updated)",4,"Anxious",NA,"In",NA,NA,"GHFIEJDKCAB",NA,NA,"B (MDot First)",1,213,"SS1","SS1",16,"J","Judginess","y8ii7g",1,"continue","",1921.28699999963,1916.27000000002,1921.28699999963,1921.28699999963,1916.27000000002,1921.28699999963,1,1921.28699999963,0,0,NA,"Click To Continue","Continue Button",1,"object-14","J","CFD-IF-734-108-N.jpg",NA,"SUPTM84507"
"84",1689020727485,"10/07/2023 20:25:27",1689024327485,1,"10/07/2023 22:25:27",137495,33,"task-v6vm",NA,30603502,9086165,NA,"complete",NA,NA,"computer","Desktop or Laptop","Windows 10","Chrome 114.0.0.0","1041x586","1157x494",NA,NA,NA,"JV Task P3 (Updated)",4,"Anxious",NA,"In",NA,NA,"GHFIEJDKCAB",NA,NA,"B (MDot First)",1,213,"SS1","SS1",16,"J","Judginess","y8ii7g",1,"response","89",999.882000000012,1916.27000000002,1921.78699999963,999.882000000012,1916.27000000002,1921.78699999963,1,999.882000000012,921.90499999962,0,NA,"Slider","J",3,"object-18","J","CFD-IF-734-108-N.jpg",NA,"SUPTM84507"
"85",1689020728446,"10/07/2023 20:25:28",1689024328446,1,"10/07/2023 22:25:28",137495,33,"task-v6vm",NA,30603502,9086165,NA,"complete",NA,NA,"computer","Desktop or Laptop","Windows 10","Chrome 114.0.0.0","1041x586","1157x494",NA,NA,NA,"JV Task P3 (Updated)",4,"Anxious",NA,"In",NA,NA,"GHFIEJDKCAB",NA,NA,"B (MDot First)",1,213,"SS1","SS1",16,"J","Fixation","w9zir9",2,"continue","",966.543999999994,966.543999999994,966.543999999994,966.543999999994,966.543999999994,966.543999999994,1,966.543999999994,0,0,NA,"Fixation Timing","Fixation",1,"object-65","J","CFD-IF-734-108-N.jpg",NA,"SUPTM84507"
"86",1689020732607,"10/07/2023 20:25:32",1689024332607,1,"10/07/2023 22:25:32",137495,33,"task-v6vm",NA,30603502,9086165,NA,"complete",NA,NA,"computer","Desktop or Laptop","Windows 10","Chrome 114.0.0.0","1041x586","1157x494",NA,NA,NA,"JV Task P3 (Updated)",4,"Anxious",NA,"In",NA,NA,"GHFIEJDKCAB",NA,NA,"B (MDot First)",1,213,"SS1","SS1",13,"V","Valence","xyoebq",1,"continue","",4161.2729999999,4149.38499999998,4161.2729999999,4161.2729999999,4149.38499999998,4161.2729999999,1,4161.2729999999,0,0,NA,"Click To Continue","Continue Button",1,"object-25","V","CFD-BF-008-001-S.jpeg",NA,"SUPTM84507"
"87",1689020732612,"10/07/2023 20:25:32",1689024332612,1,"10/07/2023 22:25:32",137495,33,"task-v6vm",NA,30603502,9086165,NA,"complete",NA,NA,"computer","Desktop or Laptop","Windows 10","Chrome 114.0.0.0","1041x586","1157x494",NA,NA,NA,"JV Task P3 (Updated)",4,"Anxious",NA,"In",NA,NA,"GHFIEJDKCAB",NA,NA,"B (MDot First)",1,213,"SS1","SS1",13,"V","Valence","xyoebq",1,"response","94",1333.30299999999,4149.38499999998,4165.96599999996,1333.30299999999,4149.38499999998,4165.96599999996,1,1333.30299999999,2832.66299999997,0,NA,"Slider","J",3,"object-27","V","CFD-BF-008-001-S.jpeg",NA,"SUPTM84507"
"88",1689020733562,"10/07/2023 20:25:33",1689024333562,1,"10/07/2023 22:25:33",137495,33,"task-v6vm",NA,30603502,9086165,NA,"complete",NA,NA,"computer","Desktop or Laptop","Windows 10","Chrome 114.0.0.0","1041x586","1157x494",NA,NA,NA,"JV Task P3 (Updated)",4,"Anxious",NA,"In",NA,NA,"GHFIEJDKCAB",NA,NA,"B (MDot First)",1,213,"SS1","SS1",13,"V","Fixation","68owkj",2,"continue","",966.534000000014,966.534000000014,966.534000000014,966.534000000014,966.534000000014,966.534000000014,1,966.534000000014,0,0,NA,"Fixation Timing","Fixation",1,"object-21","V","CFD-BF-008-001-S.jpeg",NA,"SUPTM84507"
"89",1689020737255,"10/07/2023 20:25:37",1689024337255,1,"10/07/2023 22:25:37",137495,33,"task-v6vm",NA,30603502,9086165,NA,"complete",NA,NA,"computer","Desktop or Laptop","Windows 10","Chrome 114.0.0.0","1041x586","1157x494",NA,NA,NA,"JV Task P3 (Updated)",4,"Anxious",NA,"In",NA,NA,"GHFIEJDKCAB",NA,NA,"B (MDot First)",1,213,"SS1","SS1",17,"J","Judginess","y8ii7g",1,"continue","",3693.55399999963,3682.82000000001,3693.55399999963,3693.55399999963,3682.82000000001,3693.55399999963,1,3693.55399999963,0,0,NA,"Click To Continue","Continue Button",1,"object-14","J","CFD-WF-017-003-H.jpeg",NA,"SUPTM84507"
"90",1689020737255,"10/07/2023 20:25:37",1689024337255,1,"10/07/2023 22:25:37",137495,33,"task-v6vm",NA,30603502,9086165,NA,"complete",NA,NA,"computer","Desktop or Laptop","Windows 10","Chrome 114.0.0.0","1041x586","1157x494",NA,NA,NA,"JV Task P3 (Updated)",4,"Anxious",NA,"In",NA,NA,"GHFIEJDKCAB",NA,NA,"B (MDot First)",1,213,"SS1","SS1",17,"J","Judginess","y8ii7g",1,"response","34",1983.03,3682.82000000001,3693.8539999999,1983.03,3682.82000000001,3693.8539999999,1,1983.03,1710.82399999991,0,NA,"Slider","J",3,"object-18","J","CFD-WF-017-003-H.jpeg",NA,"SUPTM84507"
"91",1689020738211,"10/07/2023 20:25:38",1689024338211,1,"10/07/2023 22:25:38",137495,33,"task-v6vm",NA,30603502,9086165,NA,"complete",NA,NA,"computer","Desktop or Laptop","Windows 10","Chrome 114.0.0.0","1041x586","1157x494",NA,NA,NA,"JV Task P3 (Updated)",4,"Anxious",NA,"In",NA,NA,"GHFIEJDKCAB",NA,NA,"B (MDot First)",1,213,"SS1","SS1",17,"J","Fixation","w9zir9",2,"continue","",966.563999999984,966.563999999984,966.563999999984,966.563999999984,966.563999999984,966.563999999984,1,966.563999999984,0,0,NA,"Fixation Timing","Fixation",1,"object-65","J","CFD-WF-017-003-H.jpeg",NA,"SUPTM84507"
"92",1689020744308,"10/07/2023 20:25:44",1689024344308,1,"10/07/2023 22:25:44",137495,33,"task-v6vm",NA,30603502,9086165,NA,"complete",NA,NA,"computer","Desktop or Laptop","Windows 10","Chrome 114.0.0.0","1041x586","1157x494",NA,NA,NA,"JV Task P3 (Updated)",4,"Anxious",NA,"In",NA,NA,"GHFIEJDKCAB",NA,NA,"B (MDot First)",1,213,"SS1","SS1",14,"V","Valence","xyoebq",1,"continue","",6097.26999999973,6082.804,6097.26999999973,6097.26999999973,6082.804,6097.26999999973,1,6097.26999999973,0,0,NA,"Click To Continue","Continue Button",1,"object-25","V","CFD-WF-039-025-H.jpeg",NA,"SUPTM84507"
"93",1689020744313,"10/07/2023 20:25:44",1689024344313,1,"10/07/2023 22:25:44",137495,33,"task-v6vm",NA,30603502,9086165,NA,"complete",NA,NA,"computer","Desktop or Laptop","Windows 10","Chrome 114.0.0.0","1041x586","1157x494",NA,NA,NA,"JV Task P3 (Updated)",4,"Anxious",NA,"In",NA,NA,"GHFIEJDKCAB",NA,NA,"B (MDot First)",1,213,"SS1","SS1",14,"V","Valence","xyoebq",1,"response","92",5166.32800000001,6082.804,6099.68700000001,5166.32800000001,6082.804,6099.68700000001,1,5166.32800000001,933.358999999997,0,NA,"Slider","J",3,"object-27","V","CFD-WF-039-025-H.jpeg",NA,"SUPTM84507"
"94",1689020745262,"10/07/2023 20:25:45",1689024345262,1,"10/07/2023 22:25:45",137495,33,"task-v6vm",NA,30603502,9086165,NA,"complete",NA,NA,"computer","Desktop or Laptop","Windows 10","Chrome 114.0.0.0","1041x586","1157x494",NA,NA,NA,"JV Task P3 (Updated)",4,"Anxious",NA,"In",NA,NA,"GHFIEJDKCAB",NA,NA,"B (MDot First)",1,213,"SS1","SS1",14,"V","Fixation","68owkj",2,"continue","",966.524000000005,966.524000000005,966.524000000005,966.524000000005,966.524000000005,966.524000000005,1,966.524000000005,0,0,NA,"Fixation Timing","Fixation",1,"object-21","V","CFD-WF-039-025-H.jpeg",NA,"SUPTM84507"
"95",1689020748089,"10/07/2023 20:25:48",1689024348089,1,"10/07/2023 22:25:48",137495,33,"task-v6vm",NA,30603502,9086165,NA,"complete",NA,NA,"computer","Desktop or Laptop","Windows 10","Chrome 114.0.0.0","1041x586","1157x494",NA,NA,NA,"JV Task P3 (Updated)",4,"Anxious",NA,"In",NA,NA,"GHFIEJDKCAB",NA,NA,"B (MDot First)",1,213,"SS1","SS1",18,"J","Judginess","y8ii7g",1,"continue","",2828.34199999963,2816.08199999999,2828.34199999963,2828.34199999963,2816.08199999999,2828.34199999963,1,2828.34199999963,0,0,NA,"Click To Continue","Continue Button",1,"object-14","J","CFD-BF-040-003-H.jpeg",NA,"SUPTM84507"
"96",1689020748089,"10/07/2023 20:25:48",1689024348089,1,"10/07/2023 22:25:48",137495,33,"task-v6vm",NA,30603502,9086165,NA,"complete",NA,NA,"computer","Desktop or Laptop","Windows 10","Chrome 114.0.0.0","1041x586","1157x494",NA,NA,NA,"JV Task P3 (Updated)",4,"Anxious",NA,"In",NA,NA,"GHFIEJDKCAB",NA,NA,"B (MDot First)",1,213,"SS1","SS1",18,"J","Judginess","y8ii7g",1,"response","81",1733.111,2816.08199999999,2828.94199999972,1733.111,2816.08199999999,2828.94199999972,1,1733.111,1095.83099999971,0,NA,"Slider","J",3,"object-18","J","CFD-BF-040-003-H.jpeg",NA,"SUPTM84507"
"97",1689020749043,"10/07/2023 20:25:49",1689024349043,1,"10/07/2023 22:25:49",137495,33,"task-v6vm",NA,30603502,9086165,NA,"complete",NA,NA,"computer","Desktop or Laptop","Windows 10","Chrome 114.0.0.0","1041x586","1157x494",NA,NA,NA,"JV Task P3 (Updated)",4,"Anxious",NA,"In",NA,NA,"GHFIEJDKCAB",NA,NA,"B (MDot First)",1,213,"SS1","SS1",18,"J","Fixation","w9zir9",2,"continue","",966.532000000007,966.532000000007,966.532000000007,966.532000000007,966.532000000007,966.532000000007,1,966.532000000007,0,0,NA,"Fixation Timing","Fixation",1,"object-65","J","CFD-BF-040-003-H.jpeg",NA,"SUPTM84507"
"98",1689020751258,"10/07/2023 20:25:51",1689024351258,1,"10/07/2023 22:25:51",137495,33,"task-v6vm",NA,30603502,9086165,NA,"complete",NA,NA,"computer","Desktop or Laptop","Windows 10","Chrome 114.0.0.0","1041x586","1157x494",NA,NA,NA,"JV Task P3 (Updated)",4,"Anxious",NA,"In",NA,NA,"GHFIEJDKCAB",NA,NA,"B (MDot First)",1,213,"SS1","SS1",15,"V","Valence","xyoebq",1,"continue","",2214.92799999981,2199.74799999999,2214.92799999981,2214.92799999981,2199.74799999999,2214.92799999981,1,2214.92799999981,0,0,NA,"Click To Continue","Continue Button",1,"object-25","V","CFD-WF-015-006-N.jpg",NA,"SUPTM84507"
"99",1689020751258,"10/07/2023 20:25:51",1689024351258,1,"10/07/2023 22:25:51",137495,33,"task-v6vm",NA,30603502,9086165,NA,"complete",NA,NA,"computer","Desktop or Laptop","Windows 10","Chrome 114.0.0.0","1041x586","1157x494",NA,NA,NA,"JV Task P3 (Updated)",4,"Anxious",NA,"In",NA,NA,"GHFIEJDKCAB",NA,NA,"B (MDot First)",1,213,"SS1","SS1",15,"V","Valence","xyoebq",1,"response","84",1233.42199999999,2199.74799999999,2215.42799999981,1233.42199999999,2199.74799999999,2215.42799999981,1,1233.42199999999,982.005999999819,0,NA,"Slider","J",3,"object-27","V","CFD-WF-015-006-N.jpg",NA,"SUPTM84507"
"100",1689020752210,"10/07/2023 20:25:52",1689024352210,1,"10/07/2023 22:25:52",137495,33,"task-v6vm",NA,30603502,9086165,NA,"complete",NA,NA,"computer","Desktop or Laptop","Windows 10","Chrome 114.0.0.0","1041x586","1157x494",NA,NA,NA,"JV Task P3 (Updated)",4,"Anxious",NA,"In",NA,NA,"GHFIEJDKCAB",NA,NA,"B (MDot First)",1,213,"SS1","SS1",15,"V","Fixation","68owkj",2,"continue","",966.559000000008,966.559000000008,966.559000000008,966.559000000008,966.559000000008,966.559000000008,1,966.559000000008,0,0,NA,"Fixation Timing","Fixation",1,"object-21","V","CFD-WF-015-006-N.jpg",NA,"SUPTM84507"
"101",1689020759868,"10/07/2023 20:25:59",1689024359868,1,"10/07/2023 22:25:59",137495,33,"task-v6vm",NA,30603502,9086165,NA,"complete",NA,NA,"computer","Desktop or Laptop","Windows 10","Chrome 114.0.0.0","1041x586","1157x494",NA,NA,NA,"JV Task P3 (Updated)",4,"Anxious",NA,"In",NA,NA,"GHFIEJDKCAB",NA,NA,"B (MDot First)",1,213,"SS1","SS1",16,"V","Valence","xyoebq",1,"continue","",7659.52100000018,7648.959,7659.52100000018,7659.52100000018,7648.959,7659.52100000018,1,7659.52100000018,0,0,NA,"Click To Continue","Continue Button",1,"object-25","V","CFD-WM-019-003-N.jpg",NA,"SUPTM84507"
"102",1689020759873,"10/07/2023 20:25:59",1689024359873,1,"10/07/2023 22:25:59",137495,33,"task-v6vm",NA,30603502,9086165,NA,"complete",NA,NA,"computer","Desktop or Laptop","Windows 10","Chrome 114.0.0.0","1041x586","1157x494",NA,NA,NA,"JV Task P3 (Updated)",4,"Anxious",NA,"In",NA,NA,"GHFIEJDKCAB",NA,NA,"B (MDot First)",1,213,"SS1","SS1",16,"V","Valence","xyoebq",1,"response","88",3849.39999999999,7648.959,7663.92099999962,3849.39999999999,7648.959,7663.92099999962,1,3849.39999999999,3814.52099999963,0,NA,"Slider","J",3,"object-27","V","CFD-WM-019-003-N.jpg",NA,"SUPTM84507"
"103",1689020760825,"10/07/2023 20:26:00",1689024360825,1,"10/07/2023 22:26:00",137495,33,"task-v6vm",NA,30603502,9086165,NA,"complete",NA,NA,"computer","Desktop or Laptop","Windows 10","Chrome 114.0.0.0","1041x586","1157x494",NA,NA,NA,"JV Task P3 (Updated)",4,"Anxious",NA,"In",NA,NA,"GHFIEJDKCAB",NA,NA,"B (MDot First)",1,213,"SS1","SS1",16,"V","Fixation","68owkj",2,"continue","",966.611999999994,966.611999999994,966.611999999994,966.611999999994,966.611999999994,966.611999999994,1,966.611999999994,0,0,NA,"Fixation Timing","Fixation",1,"object-21","V","CFD-WM-019-003-N.jpg",NA,"SUPTM84507"
"104",1689020768125,"10/07/2023 20:26:08",1689024368125,1,"10/07/2023 22:26:08",137495,33,"task-v6vm",NA,30603502,9086165,NA,"complete",NA,NA,"computer","Desktop or Laptop","Windows 10","Chrome 114.0.0.0","1041x586","1157x494",NA,NA,NA,"JV Task P3 (Updated)",4,"Anxious",NA,"In",NA,NA,"GHFIEJDKCAB",NA,NA,"B (MDot First)",1,213,"SS1","SS1",19,"J","Judginess","y8ii7g",1,"continue","",7299.57399999999,7282.63399999999,7299.57399999999,7299.57399999999,7282.63399999999,7299.57399999999,1,7299.57399999999,0,0,NA,"Click To Continue","Continue Button",1,"object-14","J","CFD-WF-037-029-S.jpeg",NA,"SUPTM84507"
"105",1689020768126,"10/07/2023 20:26:08",1689024368126,1,"10/07/2023 22:26:08",137495,33,"task-v6vm",NA,30603502,9086165,NA,"complete",NA,NA,"computer","Desktop or Laptop","Windows 10","Chrome 114.0.0.0","1041x586","1157x494",NA,NA,NA,"JV Task P3 (Updated)",4,"Anxious",NA,"In",NA,NA,"GHFIEJDKCAB",NA,NA,"B (MDot First)",1,213,"SS1","SS1",19,"J","Judginess","y8ii7g",1,"response","81",4233.02100000001,7282.63399999999,7299.57399999999,4233.02100000001,7282.63399999999,7299.57399999999,1,4233.02100000001,3066.55299999999,0,NA,"Slider","J",3,"object-18","J","CFD-WF-037-029-S.jpeg",NA,"SUPTM84507"
"106",1689020769074,"10/07/2023 20:26:09",1689024369074,1,"10/07/2023 22:26:09",137495,33,"task-v6vm",NA,30603502,9086165,NA,"complete",NA,NA,"computer","Desktop or Laptop","Windows 10","Chrome 114.0.0.0","1041x586","1157x494",NA,NA,NA,"JV Task P3 (Updated)",4,"Anxious",NA,"In",NA,NA,"GHFIEJDKCAB",NA,NA,"B (MDot First)",1,213,"SS1","SS1",19,"J","Fixation","w9zir9",2,"continue","",966.198000000004,966.198000000004,966.198000000004,966.198000000004,966.198000000004,966.198000000004,1,966.198000000004,0,0,NA,"Fixation Timing","Fixation",1,"object-65","J","CFD-WF-037-029-S.jpeg",NA,"SUPTM84507"
"107",1689020772731,"10/07/2023 20:26:12",1689024372731,1,"10/07/2023 22:26:12",137495,33,"task-v6vm",NA,30603502,9086165,NA,"complete",NA,NA,"computer","Desktop or Laptop","Windows 10","Chrome 114.0.0.0","1041x586","1157x494",NA,NA,NA,"JV Task P3 (Updated)",4,"Anxious",NA,"In",NA,NA,"GHFIEJDKCAB",NA,NA,"B (MDot First)",1,213,"SS1","SS1",17,"V","Valence","xyoebq",1,"continue","",3657.81799999945,3649.54500000001,3657.81799999945,3657.81799999945,3649.54500000001,3657.81799999945,1,3657.81799999945,0,0,NA,"Click To Continue","Continue Button",1,"object-25","V","CFD-WF-031-027-H.jpeg",NA,"SUPTM84507"
"108",1689020772735,"10/07/2023 20:26:12",1689024372735,1,"10/07/2023 22:26:12",137495,33,"task-v6vm",NA,30603502,9086165,NA,"complete",NA,NA,"computer","Desktop or Laptop","Windows 10","Chrome 114.0.0.0","1041x586","1157x494",NA,NA,NA,"JV Task P3 (Updated)",4,"Anxious",NA,"In",NA,NA,"GHFIEJDKCAB",NA,NA,"B (MDot First)",1,213,"SS1","SS1",17,"V","Valence","xyoebq",1,"response","79",2833.04500000001,3649.54500000001,3661.91800000001,2833.04500000001,3649.54500000001,3661.91800000001,1,2833.04500000001,828.872999999992,0,NA,"Slider","J",3,"object-27","V","CFD-WF-031-027-H.jpeg",NA,"SUPTM84507"
"109",1689020773690,"10/07/2023 20:26:13",1689024373690,1,"10/07/2023 22:26:13",137495,33,"task-v6vm",NA,30603502,9086165,NA,"complete",NA,NA,"computer","Desktop or Laptop","Windows 10","Chrome 114.0.0.0","1041x586","1157x494",NA,NA,NA,"JV Task P3 (Updated)",4,"Anxious",NA,"In",NA,NA,"GHFIEJDKCAB",NA,NA,"B (MDot First)",1,213,"SS1","SS1",17,"V","Fixation","68owkj",2,"continue","",966.710999999981,966.710999999981,966.710999999981,966.710999999981,966.710999999981,966.710999999981,1,966.710999999981,0,0,NA,"Fixation Timing","Fixation",1,"object-21","V","CFD-WF-031-027-H.jpeg",NA,"SUPTM84507"
"110",1689020780613,"10/07/2023 20:26:20",1689024380613,1,"10/07/2023 22:26:20",137495,33,"task-v6vm",NA,30603502,9086165,NA,"complete",NA,NA,"computer","Desktop or Laptop","Windows 10","Chrome 114.0.0.0","1041x586","1157x494",NA,NA,NA,"JV Task P3 (Updated)",4,"Anxious",NA,"In",NA,NA,"GHFIEJDKCAB",NA,NA,"B (MDot First)",1,213,"SS1","SS1",18,"V","Valence","xyoebq",1,"continue","",6923.76199999964,6915.55200000003,6923.76199999964,6923.76199999964,6915.55200000003,6923.76199999964,1,6923.76199999964,0,0,NA,"Click To Continue","Continue Button",1,"object-25","V","CFD-BM-045-004-N.jpg",NA,"SUPTM84507"
"111",1689020780614,"10/07/2023 20:26:20",1689024380614,1,"10/07/2023 22:26:20",137495,33,"task-v6vm",NA,30603502,9086165,NA,"complete",NA,NA,"computer","Desktop or Laptop","Windows 10","Chrome 114.0.0.0","1041x586","1157x494",NA,NA,NA,"JV Task P3 (Updated)",4,"Anxious",NA,"In",NA,NA,"GHFIEJDKCAB",NA,NA,"B (MDot First)",1,213,"SS1","SS1",18,"V","Valence","xyoebq",1,"response","84",4799.23500000002,6915.55200000003,6924.06199999945,4799.23500000002,6915.55200000003,6924.06199999945,1,4799.23500000002,2124.82699999944,0,NA,"Slider","J",3,"object-27","V","CFD-BM-045-004-N.jpg",NA,"SUPTM84507"
"112",1689020781573,"10/07/2023 20:26:21",1689024381573,1,"10/07/2023 22:26:21",137495,33,"task-v6vm",NA,30603502,9086165,NA,"complete",NA,NA,"computer","Desktop or Laptop","Windows 10","Chrome 114.0.0.0","1041x586","1157x494",NA,NA,NA,"JV Task P3 (Updated)",4,"Anxious",NA,"In",NA,NA,"GHFIEJDKCAB",NA,NA,"B (MDot First)",1,213,"SS1","SS1",18,"V","Fixation","68owkj",2,"continue","",966.877999999997,966.877999999997,966.877999999997,966.877999999997,966.877999999997,966.877999999997,1,966.877999999997,0,0,NA,"Fixation Timing","Fixation",1,"object-21","V","CFD-BM-045-004-N.jpg",NA,"SUPTM84507"
"113",1689020795469,"10/07/2023 20:26:35",1689024395469,1,"10/07/2023 22:26:35",137495,33,"task-v6vm",NA,30603502,9086165,NA,"complete",NA,NA,"computer","Desktop or Laptop","Windows 10","Chrome 114.0.0.0","1041x586","1157x494",NA,NA,NA,"JV Task P3 (Updated)",4,"Anxious",NA,"In",NA,NA,"GHFIEJDKCAB",NA,NA,"B (MDot First)",1,213,"SS1","SS1",20,"J","Judginess","y8ii7g",1,"continue","",13896.6319999994,13881.184,13896.6319999994,13896.6319999994,13881.184,13896.6319999994,1,13896.6319999994,0,0,NA,"Click To Continue","Continue Button",1,"object-14","J","CFD-WM-025-002-N.jpg",NA,"SUPTM84507"
"114",1689020795473,"10/07/2023 20:26:35",1689024395473,1,"10/07/2023 22:26:35",137495,33,"task-v6vm",NA,30603502,9086165,NA,"complete",NA,NA,"computer","Desktop or Laptop","Windows 10","Chrome 114.0.0.0","1041x586","1157x494",NA,NA,NA,"JV Task P3 (Updated)",4,"Anxious",NA,"In",NA,NA,"GHFIEJDKCAB",NA,NA,"B (MDot First)",1,213,"SS1","SS1",20,"J","Judginess","y8ii7g",1,"response","83",12214.789,13881.184,13897.816,12214.789,13881.184,13897.816,1,12214.789,1683.02699999997,0,NA,"Slider","J",3,"object-18","J","CFD-WM-025-002-N.jpg",NA,"SUPTM84507"
"115",1689020796420,"10/07/2023 20:26:36",1689024396420,1,"10/07/2023 22:26:36",137495,33,"task-v6vm",NA,30603502,9086165,NA,"complete",NA,NA,"computer","Desktop or Laptop","Windows 10","Chrome 114.0.0.0","1041x586","1157x494",NA,NA,NA,"JV Task P3 (Updated)",4,"Anxious",NA,"In",NA,NA,"GHFIEJDKCAB",NA,NA,"B (MDot First)",1,213,"SS1","SS1",20,"J","Fixation","w9zir9",2,"continue","",966.703000000009,966.703000000009,966.703000000009,966.703000000009,966.703000000009,966.703000000009,1,966.703000000009,0,0,NA,"Fixation Timing","Fixation",1,"object-65","J","CFD-WM-025-002-N.jpg",NA,"SUPTM84507"
"116",1689020798717,"10/07/2023 20:26:38",1689024398717,1,"10/07/2023 22:26:38",137495,33,"task-v6vm",NA,30603502,9086165,NA,"complete",NA,NA,"computer","Desktop or Laptop","Windows 10","Chrome 114.0.0.0","1041x586","1157x494",NA,NA,NA,"JV Task P3 (Updated)",4,"Anxious",NA,"In",NA,NA,"GHFIEJDKCAB",NA,NA,"B (MDot First)",1,213,"SS1","SS1",19,"V","Valence","xyoebq",1,"continue","",2297.04500000019,2282.99900000001,2297.04500000019,2297.04500000019,2282.99900000001,2297.04500000019,1,2297.04500000019,0,0,NA,"Click To Continue","Continue Button",1,"object-25","V","CFD-AF-233-190-H.jpeg",NA,"SUPTM84507"
"117",1689020798717,"10/07/2023 20:26:38",1689024398717,1,"10/07/2023 22:26:38",137495,33,"task-v6vm",NA,30603502,9086165,NA,"complete",NA,NA,"computer","Desktop or Laptop","Windows 10","Chrome 114.0.0.0","1041x586","1157x494",NA,NA,NA,"JV Task P3 (Updated)",4,"Anxious",NA,"In",NA,NA,"GHFIEJDKCAB",NA,NA,"B (MDot First)",1,213,"SS1","SS1",19,"V","Valence","xyoebq",1,"response","74",1149.74299999999,2282.99900000001,2297.54500000019,1149.74299999999,2282.99900000001,2297.54500000019,1,1149.74299999999,1147.8020000002,0,NA,"Slider","J",3,"object-27","V","CFD-AF-233-190-H.jpeg",NA,"SUPTM84507"
"118",1689020799670,"10/07/2023 20:26:39",1689024399670,1,"10/07/2023 22:26:39",137495,33,"task-v6vm",NA,30603502,9086165,NA,"complete",NA,NA,"computer","Desktop or Laptop","Windows 10","Chrome 114.0.0.0","1041x586","1157x494",NA,NA,NA,"JV Task P3 (Updated)",4,"Anxious",NA,"In",NA,NA,"GHFIEJDKCAB",NA,NA,"B (MDot First)",1,213,"SS1","SS1",19,"V","Fixation","68owkj",2,"continue","",966.747999999992,966.747999999992,966.747999999992,966.747999999992,966.747999999992,966.747999999992,1,966.747999999992,0,0,NA,"Fixation Timing","Fixation",1,"object-21","V","CFD-AF-233-190-H.jpeg",NA,"SUPTM84507"
"119",1689020802330,"10/07/2023 20:26:42",1689024402330,1,"10/07/2023 22:26:42",137495,33,"task-v6vm",NA,30603502,9086165,NA,"complete",NA,NA,"computer","Desktop or Laptop","Windows 10","Chrome 114.0.0.0","1041x586","1157x494",NA,NA,NA,"JV Task P3 (Updated)",4,"Anxious",NA,"In",NA,NA,"GHFIEJDKCAB",NA,NA,"B (MDot First)",1,213,"SS1","SS1",21,"J","Judginess","y8ii7g",1,"continue","",2660.49799999944,2649.35000000001,2660.49799999944,2660.49799999944,2649.35000000001,2660.49799999944,1,2660.49799999944,0,0,NA,"Click To Continue","Continue Button",1,"object-14","J","CFD-AF-233-190-S.jpeg",NA,"SUPTM84507"
"120",1689020802331,"10/07/2023 20:26:42",1689024402331,1,"10/07/2023 22:26:42",137495,33,"task-v6vm",NA,30603502,9086165,NA,"complete",NA,NA,"computer","Desktop or Laptop","Windows 10","Chrome 114.0.0.0","1041x586","1157x494",NA,NA,NA,"JV Task P3 (Updated)",4,"Anxious",NA,"In",NA,NA,"GHFIEJDKCAB",NA,NA,"B (MDot First)",1,213,"SS1","SS1",21,"J","Judginess","y8ii7g",1,"response","74",833.097000000009,2649.35000000001,2661.19799999963,833.097000000009,2649.35000000001,2661.19799999963,1,833.097000000009,1828.10099999962,0,NA,"Slider","J",3,"object-18","J","CFD-AF-233-190-S.jpeg",NA,"SUPTM84507"
"121",1689020803286,"10/07/2023 20:26:43",1689024403286,1,"10/07/2023 22:26:43",137495,33,"task-v6vm",NA,30603502,9086165,NA,"complete",NA,NA,"computer","Desktop or Laptop","Windows 10","Chrome 114.0.0.0","1041x586","1157x494",NA,NA,NA,"JV Task P3 (Updated)",4,"Anxious",NA,"In",NA,NA,"GHFIEJDKCAB",NA,NA,"B (MDot First)",1,213,"SS1","SS1",21,"J","Fixation","w9zir9",2,"continue","",966.565999999992,966.565999999992,966.565999999992,966.565999999992,966.565999999992,966.565999999992,1,966.565999999992,0,0,NA,"Fixation Timing","Fixation",1,"object-65","J","CFD-AF-233-190-S.jpeg",NA,"SUPTM84507"
"122",1689020821567,"10/07/2023 20:27:01",1689024421567,1,"10/07/2023 22:27:01",137495,33,"task-v6vm",NA,30603502,9086165,NA,"complete",NA,NA,"computer","Desktop or Laptop","Windows 10","Chrome 114.0.0.0","1041x586","1157x494",NA,NA,NA,"JV Task P3 (Updated)",4,"Anxious",NA,"In",NA,NA,"GHFIEJDKCAB",NA,NA,"B (MDot First)",1,213,"SS1","SS1",20,"V","Valence","xyoebq",1,"continue","",18280.9429999999,18264.412,18280.9429999999,18280.9429999999,18264.412,18280.9429999999,1,18280.9429999999,0,0,NA,"Click To Continue","Continue Button",1,"object-25","V","CFD-WM-034-030-S.jpeg",NA,"SUPTM84507"
"123",1689020821572,"10/07/2023 20:27:01",1689024421572,1,"10/07/2023 22:27:01",137495,33,"task-v6vm",NA,30603502,9086165,NA,"complete",NA,NA,"computer","Desktop or Laptop","Windows 10","Chrome 114.0.0.0","1041x586","1157x494",NA,NA,NA,"JV Task P3 (Updated)",4,"Anxious",NA,"In",NA,NA,"GHFIEJDKCAB",NA,NA,"B (MDot First)",1,213,"SS1","SS1",20,"V","Valence","xyoebq",1,"response","63",17547.708,18264.412,18280.9429999999,17547.708,18264.412,18280.9429999999,1,17547.708,733.234999999928,0,NA,"Slider","J",3,"object-27","V","CFD-WM-034-030-S.jpeg",NA,"SUPTM84507"
"124",1689020822517,"10/07/2023 20:27:02",1689024422517,1,"10/07/2023 22:27:02",137495,33,"task-v6vm",NA,30603502,9086165,NA,"complete",NA,NA,"computer","Desktop or Laptop","Windows 10","Chrome 114.0.0.0","1041x586","1157x494",NA,NA,NA,"JV Task P3 (Updated)",4,"Anxious",NA,"In",NA,NA,"GHFIEJDKCAB",NA,NA,"B (MDot First)",1,213,"SS1","SS1",20,"V","Fixation","68owkj",2,"continue","",966.644000000029,966.644000000029,966.644000000029,966.644000000029,966.644000000029,966.644000000029,1,966.644000000029,0,0,NA,"Fixation Timing","Fixation",1,"object-21","V","CFD-WM-034-030-S.jpeg",NA,"SUPTM84507"
"125",1689020828946,"10/07/2023 20:27:08",1689024428946,1,"10/07/2023 22:27:08",137495,33,"task-v6vm",NA,30603502,9086165,NA,"complete",NA,NA,"computer","Desktop or Laptop","Windows 10","Chrome 114.0.0.0","1041x586","1157x494",NA,NA,NA,"JV Task P3 (Updated)",4,"Anxious",NA,"In",NA,NA,"GHFIEJDKCAB",NA,NA,"B (MDot First)",1,213,"SS1","SS1",22,"J","Judginess","y8ii7g",1,"continue","",6426.02599999943,6415.739,6426.02599999943,6426.02599999943,6415.739,6426.02599999943,1,6426.02599999943,0,0,NA,"Click To Continue","Continue Button",1,"object-14","J","CFD-IF-734-108-N.jpg",NA,"SUPTM84507"
"126",1689020836329,"10/07/2023 20:27:16",1689024436329,1,"10/07/2023 22:27:16",137495,33,"task-v6vm",NA,30603502,9086165,NA,"complete",NA,NA,"computer","Desktop or Laptop","Windows 10","Chrome 114.0.0.0","1041x586","1157x494",NA,NA,NA,"JV Task P3 (Updated)",4,"Anxious",NA,"In",NA,NA,"GHFIEJDKCAB",NA,NA,"B (MDot First)",1,213,"SS1","SS1",22,"J","Judginess","y8ii7g",1,"continue","",13812.3260000002,13798.049,13812.3260000002,13812.3260000002,13798.049,13812.3260000002,1,13812.3260000002,0,0,NA,"Click To Continue","Continue Button",1,"object-14","J","CFD-IF-734-108-N.jpg",NA,"SUPTM84507"
"127",1689020836332,"10/07/2023 20:27:16",1689024436332,1,"10/07/2023 22:27:16",137495,33,"task-v6vm",NA,30603502,9086165,NA,"complete",NA,NA,"computer","Desktop or Laptop","Windows 10","Chrome 114.0.0.0","1041x586","1157x494",NA,NA,NA,"JV Task P3 (Updated)",4,"Anxious",NA,"In",NA,NA,"GHFIEJDKCAB",NA,NA,"B (MDot First)",1,213,"SS1","SS1",22,"J","Judginess","y8ii7g",1,"response","77",8098.91099999996,13798.049,13814.719,8098.91099999996,13798.049,13814.719,1,8098.91099999996,5715.80800000002,0,NA,"Slider","J",3,"object-18","J","CFD-IF-734-108-N.jpg",NA,"SUPTM84507"
"128",1689020837281,"10/07/2023 20:27:17",1689024437281,1,"10/07/2023 22:27:17",137495,33,"task-v6vm",NA,30603502,9086165,NA,"complete",NA,NA,"computer","Desktop or Laptop","Windows 10","Chrome 114.0.0.0","1041x586","1157x494",NA,NA,NA,"JV Task P3 (Updated)",4,"Anxious",NA,"In",NA,NA,"GHFIEJDKCAB",NA,NA,"B (MDot First)",1,213,"SS1","SS1",22,"J","Fixation","w9zir9",2,"continue","",966.582999999984,966.582999999984,966.582999999984,966.582999999984,966.582999999984,966.582999999984,1,966.582999999984,0,0,NA,"Fixation Timing","Fixation",1,"object-65","J","CFD-IF-734-108-N.jpg",NA,"SUPTM84507"
"129",1689020839533,"10/07/2023 20:27:19",1689024439533,1,"10/07/2023 22:27:19",137495,33,"task-v6vm",NA,30603502,9086165,NA,"complete",NA,NA,"computer","Desktop or Laptop","Windows 10","Chrome 114.0.0.0","1041x586","1157x494",NA,NA,NA,"JV Task P3 (Updated)",4,"Anxious",NA,"In",NA,NA,"GHFIEJDKCAB",NA,NA,"B (MDot First)",1,213,"SS1","SS1",21,"V","Valence","xyoebq",1,"continue","",2252.09399999963,2249.614,2252.09399999963,2252.09399999963,2249.614,2252.09399999963,1,2252.09399999963,0,0,NA,"Click To Continue","Continue Button",1,"object-25","V","CFD-BM-045-004-H.jpeg",NA,"SUPTM84507"
"130",1689020839534,"10/07/2023 20:27:19",1689024439534,1,"10/07/2023 22:27:19",137495,33,"task-v6vm",NA,30603502,9086165,NA,"complete",NA,NA,"computer","Desktop or Laptop","Windows 10","Chrome 114.0.0.0","1041x586","1157x494",NA,NA,NA,"JV Task P3 (Updated)",4,"Anxious",NA,"In",NA,NA,"GHFIEJDKCAB",NA,NA,"B (MDot First)",1,213,"SS1","SS1",21,"V","Valence","xyoebq",1,"response","86",1399.76299999998,2249.614,2252.69400000019,1399.76299999998,2249.614,2252.69400000019,1,1399.76299999998,852.931000000215,0,NA,"Slider","J",3,"object-27","V","CFD-BM-045-004-H.jpeg",NA,"SUPTM84507"
"131",1689020840498,"10/07/2023 20:27:20",1689024440498,1,"10/07/2023 22:27:20",137495,33,"task-v6vm",NA,30603502,9086165,NA,"complete",NA,NA,"computer","Desktop or Laptop","Windows 10","Chrome 114.0.0.0","1041x586","1157x494",NA,NA,NA,"JV Task P3 (Updated)",4,"Anxious",NA,"In",NA,NA,"GHFIEJDKCAB",NA,NA,"B (MDot First)",1,213,"SS1","SS1",21,"V","Fixation","68owkj",2,"continue","",966.581000000006,966.581000000006,966.581000000006,966.581000000006,966.581000000006,966.581000000006,1,966.581000000006,0,0,NA,"Fixation Timing","Fixation",1,"object-21","V","CFD-BM-045-004-H.jpeg",NA,"SUPTM84507"
"132",1689020843738,"10/07/2023 20:27:23",1689024443738,1,"10/07/2023 22:27:23",137495,33,"task-v6vm",NA,30603502,9086165,NA,"complete",NA,NA,"computer","Desktop or Laptop","Windows 10","Chrome 114.0.0.0","1041x586","1157x494",NA,NA,NA,"JV Task P3 (Updated)",4,"Anxious",NA,"In",NA,NA,"GHFIEJDKCAB",NA,NA,"B (MDot First)",1,213,"SS1","SS1",23,"J","Judginess","y8ii7g",1,"continue","",3240.49900000019,3232.84999999998,3240.49900000019,3240.49900000019,3232.84999999998,3240.49900000019,1,3240.49900000019,0,0,NA,"Click To Continue","Continue Button",1,"object-14","J","CFD-AF-211-066-S.jpeg",NA,"SUPTM84507"
"133",1689020843738,"10/07/2023 20:27:23",1689024443738,1,"10/07/2023 22:27:23",137495,33,"task-v6vm",NA,30603502,9086165,NA,"complete",NA,NA,"computer","Desktop or Laptop","Windows 10","Chrome 114.0.0.0","1041x586","1157x494",NA,NA,NA,"JV Task P3 (Updated)",4,"Anxious",NA,"In",NA,NA,"GHFIEJDKCAB",NA,NA,"B (MDot First)",1,213,"SS1","SS1",23,"J","Judginess","y8ii7g",1,"response","70",2549.85200000001,3232.84999999998,3241.09899999981,2549.85200000001,3232.84999999998,3241.09899999981,1,2549.85200000001,691.246999999799,0,NA,"Slider","J",3,"object-18","J","CFD-AF-211-066-S.jpeg",NA,"SUPTM84507"
"134",1689020844697,"10/07/2023 20:27:24",1689024444697,1,"10/07/2023 22:27:24",137495,33,"task-v6vm",NA,30603502,9086165,NA,"complete",NA,NA,"computer","Desktop or Laptop","Windows 10","Chrome 114.0.0.0","1041x586","1157x494",NA,NA,NA,"JV Task P3 (Updated)",4,"Anxious",NA,"In",NA,NA,"GHFIEJDKCAB",NA,NA,"B (MDot First)",1,213,"SS1","SS1",23,"J","Fixation","w9zir9",2,"continue","",966.79700000002,966.79700000002,966.79700000002,966.79700000002,966.79700000002,966.79700000002,1,966.79700000002,0,0,NA,"Fixation Timing","Fixation",1,"object-65","J","CFD-AF-211-066-S.jpeg",NA,"SUPTM84507"
"135",1689020856782,"10/07/2023 20:27:36",1689024456782,1,"10/07/2023 22:27:36",137495,33,"task-v6vm",NA,30603502,9086165,NA,"complete",NA,NA,"computer","Desktop or Laptop","Windows 10","Chrome 114.0.0.0","1041x586","1157x494",NA,NA,NA,"JV Task P3 (Updated)",4,"Anxious",NA,"In",NA,NA,"GHFIEJDKCAB",NA,NA,"B (MDot First)",1,213,"SS1","SS1",24,"J","Judginess","y8ii7g",1,"continue","",12085.152,12081.552,12085.152,12085.152,12081.552,12085.152,1,12085.152,0,0,NA,"Click To Continue","Continue Button",1,"object-14","J","CFD-WM-019-003-S.jpeg",NA,"SUPTM84507"
"136",1689020856786,"10/07/2023 20:27:36",1689024456786,1,"10/07/2023 22:27:36",137495,33,"task-v6vm",NA,30603502,9086165,NA,"complete",NA,NA,"computer","Desktop or Laptop","Windows 10","Chrome 114.0.0.0","1041x586","1157x494",NA,NA,NA,"JV Task P3 (Updated)",4,"Anxious",NA,"In",NA,NA,"GHFIEJDKCAB",NA,NA,"B (MDot First)",1,213,"SS1","SS1",24,"J","Judginess","y8ii7g",1,"response","76",11431.847,12081.552,12089.152,11431.847,12081.552,12089.152,1,11431.847,657.304999999993,0,NA,"Slider","J",3,"object-18","J","CFD-WM-019-003-S.jpeg",NA,"SUPTM84507"
"137",1689020857745,"10/07/2023 20:27:37",1689024457745,1,"10/07/2023 22:27:37",137495,33,"task-v6vm",NA,30603502,9086165,NA,"complete",NA,NA,"computer","Desktop or Laptop","Windows 10","Chrome 114.0.0.0","1041x586","1157x494",NA,NA,NA,"JV Task P3 (Updated)",4,"Anxious",NA,"In",NA,NA,"GHFIEJDKCAB",NA,NA,"B (MDot First)",1,213,"SS1","SS1",24,"J","Fixation","w9zir9",2,"continue","",966.467999999993,966.467999999993,966.467999999993,966.467999999993,966.467999999993,966.467999999993,1,966.467999999993,0,0,NA,"Fixation Timing","Fixation",1,"object-65","J","CFD-WM-019-003-S.jpeg",NA,"SUPTM84507"
"138",1689020859424,"10/07/2023 20:27:39",1689024459424,1,"10/07/2023 22:27:39",137495,33,"task-v6vm",NA,30603502,9086165,NA,"complete",NA,NA,"computer","Desktop or Laptop","Windows 10","Chrome 114.0.0.0","1041x586","1157x494",NA,NA,NA,"JV Task P3 (Updated)",4,"Anxious",NA,"In",NA,NA,"GHFIEJDKCAB",NA,NA,"B (MDot First)",1,213,"SS1","SS1",25,"J","Judginess","y8ii7g",1,"continue","",1678.83200000017,1666.58499999996,1678.83200000017,1678.83200000017,1666.58499999996,1678.83200000017,1,1678.83200000017,0,0,NA,"Click To Continue","Continue Button",1,"object-14","J","CFD-WF-024-003-N.jpg",NA,"SUPTM84507"
"139",1689020859424,"10/07/2023 20:27:39",1689024459424,1,"10/07/2023 22:27:39",137495,33,"task-v6vm",NA,30603502,9086165,NA,"complete",NA,NA,"computer","Desktop or Laptop","Windows 10","Chrome 114.0.0.0","1041x586","1157x494",NA,NA,NA,"JV Task P3 (Updated)",4,"Anxious",NA,"In",NA,NA,"GHFIEJDKCAB",NA,NA,"B (MDot First)",1,213,"SS1","SS1",25,"J","Judginess","y8ii7g",1,"response","73",916.892999999982,1666.58499999996,1679.23199999961,916.892999999982,1666.58499999996,1679.23199999961,1,916.892999999982,762.338999999629,0,NA,"Slider","J",3,"object-18","J","CFD-WF-024-003-N.jpg",NA,"SUPTM84507"
"140",1689020860378,"10/07/2023 20:27:40",1689024460378,1,"10/07/2023 22:27:40",137495,33,"task-v6vm",NA,30603502,9086165,NA,"complete",NA,NA,"computer","Desktop or Laptop","Windows 10","Chrome 114.0.0.0","1041x586","1157x494",NA,NA,NA,"JV Task P3 (Updated)",4,"Anxious",NA,"In",NA,NA,"GHFIEJDKCAB",NA,NA,"B (MDot First)",1,213,"SS1","SS1",25,"J","Fixation","w9zir9",2,"continue","",966.413,966.413,966.413,966.413,966.413,966.413,1,966.413,0,0,NA,"Fixation Timing","Fixation",1,"object-65","J","CFD-WF-024-003-N.jpg",NA,"SUPTM84507"
"141",1689020876016,"10/07/2023 20:27:56",1689024476016,1,"10/07/2023 22:27:56",137495,33,"task-v6vm",NA,30603502,9086165,NA,"complete",NA,NA,"computer","Desktop or Laptop","Windows 10","Chrome 114.0.0.0","1041x586","1157x494",NA,NA,NA,"JV Task P3 (Updated)",4,"Anxious",NA,"In",NA,NA,"GHFIEJDKCAB",NA,NA,"B (MDot First)",1,213,"SS1","SS1",22,"V","Valence","xyoebq",1,"continue","",15637.5339999995,15631.399,15637.5339999995,15637.5339999995,15631.399,15637.5339999995,1,15637.5339999995,0,0,NA,"Click To Continue","Continue Button",1,"object-25","V","CFD-WF-035-024-S.jpeg",NA,"SUPTM84507"
"142",1689020876020,"10/07/2023 20:27:56",1689024476020,1,"10/07/2023 22:27:56",137495,33,"task-v6vm",NA,30603502,9086165,NA,"complete",NA,NA,"computer","Desktop or Laptop","Windows 10","Chrome 114.0.0.0","1041x586","1157x494",NA,NA,NA,"JV Task P3 (Updated)",4,"Anxious",NA,"In",NA,NA,"GHFIEJDKCAB",NA,NA,"B (MDot First)",1,213,"SS1","SS1",22,"V","Valence","xyoebq",1,"response","86",10332.052,15631.399,15641.5339999995,10332.052,15631.399,15641.5339999995,1,10332.052,5309.48199999944,0,NA,"Slider","J",3,"object-27","V","CFD-WF-035-024-S.jpeg",NA,"SUPTM84507"
"143",1689020876978,"10/07/2023 20:27:56",1689024476978,1,"10/07/2023 22:27:56",137495,33,"task-v6vm",NA,30603502,9086165,NA,"complete",NA,NA,"computer","Desktop or Laptop","Windows 10","Chrome 114.0.0.0","1041x586","1157x494",NA,NA,NA,"JV Task P3 (Updated)",4,"Anxious",NA,"In",NA,NA,"GHFIEJDKCAB",NA,NA,"B (MDot First)",1,213,"SS1","SS1",22,"V","Fixation","68owkj",2,"continue","",966.429000000004,966.429000000004,966.429000000004,966.429000000004,966.429000000004,966.429000000004,1,966.429000000004,0,0,NA,"Fixation Timing","Fixation",1,"object-21","V","CFD-WF-035-024-S.jpeg",NA,"SUPTM84507"
"144",1689020879409,"10/07/2023 20:27:59",1689024479409,1,"10/07/2023 22:27:59",137495,33,"task-v6vm",NA,30603502,9086165,NA,"complete",NA,NA,"computer","Desktop or Laptop","Windows 10","Chrome 114.0.0.0","1041x586","1157x494",NA,NA,NA,"JV Task P3 (Updated)",4,"Anxious",NA,"In",NA,NA,"GHFIEJDKCAB",NA,NA,"B (MDot First)",1,213,"SS1","SS1",26,"J","Judginess","y8ii7g",1,"continue","",2432.50600000017,2416.34599999996,2432.50600000017,2432.50600000017,2416.34599999996,2432.50600000017,1,2432.50600000017,0,0,NA,"Click To Continue","Continue Button",1,"object-14","J","CFD-IM-711-011-S.jpeg",NA,"SUPTM84507"
"145",1689020879409,"10/07/2023 20:27:59",1689024479409,1,"10/07/2023 22:27:59",137495,33,"task-v6vm",NA,30603502,9086165,NA,"complete",NA,NA,"computer","Desktop or Laptop","Windows 10","Chrome 114.0.0.0","1041x586","1157x494",NA,NA,NA,"JV Task P3 (Updated)",4,"Anxious",NA,"In",NA,NA,"GHFIEJDKCAB",NA,NA,"B (MDot First)",1,213,"SS1","SS1",26,"J","Judginess","y8ii7g",1,"response","83",1533.47200000001,2416.34599999996,2432.80599999998,1533.47200000001,2416.34599999996,2432.80599999998,1,1533.47200000001,899.333999999973,0,NA,"Slider","J",3,"object-18","J","CFD-IM-711-011-S.jpeg",NA,"SUPTM84507"
"146",1689020880360,"10/07/2023 20:28:00",1689024480360,1,"10/07/2023 22:28:00",137495,33,"task-v6vm",NA,30603502,9086165,NA,"complete",NA,NA,"computer","Desktop or Laptop","Windows 10","Chrome 114.0.0.0","1041x586","1157x494",NA,NA,NA,"JV Task P3 (Updated)",4,"Anxious",NA,"In",NA,NA,"GHFIEJDKCAB",NA,NA,"B (MDot First)",1,213,"SS1","SS1",26,"J","Fixation","w9zir9",2,"continue","",966.551000000036,966.551000000036,966.551000000036,966.551000000036,966.551000000036,966.551000000036,1,966.551000000036,0,0,NA,"Fixation Timing","Fixation",1,"object-65","J","CFD-IM-711-011-S.jpeg",NA,"SUPTM84507"
"147",1689020882388,"10/07/2023 20:28:02",1689024482388,1,"10/07/2023 22:28:02",137495,33,"task-v6vm",NA,30603502,9086165,NA,"complete",NA,NA,"computer","Desktop or Laptop","Windows 10","Chrome 114.0.0.0","1041x586","1157x494",NA,NA,NA,"JV Task P3 (Updated)",4,"Anxious",NA,"In",NA,NA,"GHFIEJDKCAB",NA,NA,"B (MDot First)",1,213,"SS1","SS1",27,"J","Judginess","y8ii7g",1,"continue","",2028.40899999999,2016.50699999998,2028.40899999999,2028.40899999999,2016.50699999998,2028.40899999999,1,2028.40899999999,0,0,NA,"Click To Continue","Continue Button",1,"object-14","J","CFD-AF-250-200-H.jpeg",NA,"SUPTM84507"
"148",1689020882388,"10/07/2023 20:28:02",1689024482388,1,"10/07/2023 22:28:02",137495,33,"task-v6vm",NA,30603502,9086165,NA,"complete",NA,NA,"computer","Desktop or Laptop","Windows 10","Chrome 114.0.0.0","1041x586","1157x494",NA,NA,NA,"JV Task P3 (Updated)",4,"Anxious",NA,"In",NA,NA,"GHFIEJDKCAB",NA,NA,"B (MDot First)",1,213,"SS1","SS1",27,"J","Judginess","y8ii7g",1,"response","82",1033.50099999999,2016.50699999998,2029.30899999943,1033.50099999999,2016.50699999998,2029.30899999943,1,1033.50099999999,995.807999999437,0,NA,"Slider","J",3,"object-18","J","CFD-AF-250-200-H.jpeg",NA,"SUPTM84507"
"149",1689020883343,"10/07/2023 20:28:03",1689024483343,1,"10/07/2023 22:28:03",137495,33,"task-v6vm",NA,30603502,9086165,NA,"complete",NA,NA,"computer","Desktop or Laptop","Windows 10","Chrome 114.0.0.0","1041x586","1157x494",NA,NA,NA,"JV Task P3 (Updated)",4,"Anxious",NA,"In",NA,NA,"GHFIEJDKCAB",NA,NA,"B (MDot First)",1,213,"SS1","SS1",27,"J","Fixation","w9zir9",2,"continue","",966.436999999976,966.436999999976,966.436999999976,966.436999999976,966.436999999976,966.436999999976,1,966.436999999976,0,0,NA,"Fixation Timing","Fixation",1,"object-65","J","CFD-AF-250-200-H.jpeg",NA,"SUPTM84507"
"150",1689020886346,"10/07/2023 20:28:06",1689024486346,1,"10/07/2023 22:28:06",137495,33,"task-v6vm",NA,30603502,9086165,NA,"complete",NA,NA,"computer","Desktop or Laptop","Windows 10","Chrome 114.0.0.0","1041x586","1157x494",NA,NA,NA,"JV Task P3 (Updated)",4,"Anxious",NA,"In",NA,NA,"GHFIEJDKCAB",NA,NA,"B (MDot First)",1,213,"SS1","SS1",28,"J","Judginess","y8ii7g",1,"continue","",3003.86499999947,3000.36000000004,3003.86499999947,3003.86499999947,3000.36000000004,3003.86499999947,1,3003.86499999947,0,0,NA,"Click To Continue","Continue Button",1,"object-14","J","CFD-MF-315-002-S.jpeg",NA,"SUPTM84507"
"151",1689020886351,"10/07/2023 20:28:06",1689024486351,1,"10/07/2023 22:28:06",137495,33,"task-v6vm",NA,30603502,9086165,NA,"complete",NA,NA,"computer","Desktop or Laptop","Windows 10","Chrome 114.0.0.0","1041x586","1157x494",NA,NA,NA,"JV Task P3 (Updated)",4,"Anxious",NA,"In",NA,NA,"GHFIEJDKCAB",NA,NA,"B (MDot First)",1,213,"SS1","SS1",28,"J","Judginess","y8ii7g",1,"response","19",1966.47400000005,3000.36000000004,3009.46500000003,1966.47400000005,3000.36000000004,3009.46500000003,1,1966.47400000005,1042.99099999998,0,NA,"Slider","J",3,"object-18","J","CFD-MF-315-002-S.jpeg",NA,"SUPTM84507"
"152",1689020887309,"10/07/2023 20:28:07",1689024487309,1,"10/07/2023 22:28:07",137495,33,"task-v6vm",NA,30603502,9086165,NA,"complete",NA,NA,"computer","Desktop or Laptop","Windows 10","Chrome 114.0.0.0","1041x586","1157x494",NA,NA,NA,"JV Task P3 (Updated)",4,"Anxious",NA,"In",NA,NA,"GHFIEJDKCAB",NA,NA,"B (MDot First)",1,213,"SS1","SS1",28,"J","Fixation","w9zir9",2,"continue","",965.837999999989,965.837999999989,965.837999999989,965.837999999989,965.837999999989,965.837999999989,1,965.837999999989,0,0,NA,"Fixation Timing","Fixation",1,"object-65","J","CFD-MF-315-002-S.jpeg",NA,"SUPTM84507"
"153",1689020889608,"10/07/2023 20:28:09",1689024489608,1,"10/07/2023 22:28:09",137495,33,"task-v6vm",NA,30603502,9086165,NA,"complete",NA,NA,"computer","Desktop or Laptop","Windows 10","Chrome 114.0.0.0","1041x586","1157x494",NA,NA,NA,"JV Task P3 (Updated)",4,"Anxious",NA,"In",NA,NA,"GHFIEJDKCAB",NA,NA,"B (MDot First)",1,213,"SS1","SS1",23,"V","Valence","xyoebq",1,"continue","",2299.86800000002,2283.10200000001,2299.86800000002,2299.86800000002,2283.10200000001,2299.86800000002,1,2299.86800000002,0,0,NA,"Click To Continue","Continue Button",1,"object-25","V","CFD-BF-008-001-N.jpg",NA,"SUPTM84507"
"154",1689020889609,"10/07/2023 20:28:09",1689024489609,1,"10/07/2023 22:28:09",137495,33,"task-v6vm",NA,30603502,9086165,NA,"complete",NA,NA,"computer","Desktop or Laptop","Windows 10","Chrome 114.0.0.0","1041x586","1157x494",NA,NA,NA,"JV Task P3 (Updated)",4,"Anxious",NA,"In",NA,NA,"GHFIEJDKCAB",NA,NA,"B (MDot First)",1,213,"SS1","SS1",23,"V","Valence","xyoebq",1,"response","88",1450.03100000002,2283.10200000001,2299.86800000002,1450.03100000002,2283.10200000001,2299.86800000002,1,1450.03100000002,849.837,0,NA,"Slider","J",3,"object-27","V","CFD-BF-008-001-N.jpg",NA,"SUPTM84507"
"155",1689020890558,"10/07/2023 20:28:10",1689024490558,1,"10/07/2023 22:28:10",137495,33,"task-v6vm",NA,30603502,9086165,NA,"complete",NA,NA,"computer","Desktop or Laptop","Windows 10","Chrome 114.0.0.0","1041x586","1157x494",NA,NA,NA,"JV Task P3 (Updated)",4,"Anxious",NA,"In",NA,NA,"GHFIEJDKCAB",NA,NA,"B (MDot First)",1,213,"SS1","SS1",23,"V","Fixation","68owkj",2,"continue","",966.479999999981,966.479999999981,966.479999999981,966.479999999981,966.479999999981,966.479999999981,1,966.479999999981,0,0,NA,"Fixation Timing","Fixation",1,"object-21","V","CFD-BF-008-001-N.jpg",NA,"SUPTM84507"
"156",1689020905347,"10/07/2023 20:28:25",1689024505347,1,"10/07/2023 22:28:25",137495,33,"task-v6vm",NA,30603502,9086165,NA,"complete",NA,NA,"computer","Desktop or Laptop","Windows 10","Chrome 114.0.0.0","1041x586","1157x494",NA,NA,NA,"JV Task P3 (Updated)",4,"Anxious",NA,"In",NA,NA,"GHFIEJDKCAB",NA,NA,"B (MDot First)",1,213,"SS1","SS1",24,"V","Valence","xyoebq",1,"continue","",14789.5849999994,14781.376,14789.5849999994,14789.5849999994,14781.376,14789.5849999994,1,14789.5849999994,0,0,NA,"Click To Continue","Continue Button",1,"object-25","V","CFD-IM-711-011-N.jpg",NA,"SUPTM84507"
"157",1689020905351,"10/07/2023 20:28:25",1689024505351,1,"10/07/2023 22:28:25",137495,33,"task-v6vm",NA,30603502,9086165,NA,"complete",NA,NA,"computer","Desktop or Laptop","Windows 10","Chrome 114.0.0.0","1041x586","1157x494",NA,NA,NA,"JV Task P3 (Updated)",4,"Anxious",NA,"In",NA,NA,"GHFIEJDKCAB",NA,NA,"B (MDot First)",1,213,"SS1","SS1",24,"V","Valence","xyoebq",1,"response","82",14198.132,14781.376,14793.185,14198.132,14781.376,14793.185,1,14198.132,595.053000000014,0,NA,"Slider","J",3,"object-27","V","CFD-IM-711-011-N.jpg",NA,"SUPTM84507"
"158",1689020906307,"10/07/2023 20:28:26",1689024506307,1,"10/07/2023 22:28:26",137495,33,"task-v6vm",NA,30603502,9086165,NA,"complete",NA,NA,"computer","Desktop or Laptop","Windows 10","Chrome 114.0.0.0","1041x586","1157x494",NA,NA,NA,"JV Task P3 (Updated)",4,"Anxious",NA,"In",NA,NA,"GHFIEJDKCAB",NA,NA,"B (MDot First)",1,213,"SS1","SS1",24,"V","Fixation","68owkj",2,"continue","",966.77899999998,966.77899999998,966.77899999998,966.77899999998,966.77899999998,966.77899999998,1,966.77899999998,0,0,NA,"Fixation Timing","Fixation",1,"object-21","V","CFD-IM-711-011-N.jpg",NA,"SUPTM84507"
"159",1689020907967,"10/07/2023 20:28:27",1689024507967,1,"10/07/2023 22:28:27",137495,33,"task-v6vm",NA,30603502,9086165,NA,"complete",NA,NA,"computer","Desktop or Laptop","Windows 10","Chrome 114.0.0.0","1041x586","1157x494",NA,NA,NA,"JV Task P3 (Updated)",4,"Anxious",NA,"In",NA,NA,"GHFIEJDKCAB",NA,NA,"B (MDot First)",1,213,"SS1","SS1",29,"J","Judginess","y8ii7g",1,"continue","",1661.53000000003,1649.63500000001,1661.53000000003,1661.53000000003,1649.63500000001,1661.53000000003,1,1661.53000000003,0,0,NA,"Click To Continue","Continue Button",1,"object-14","J","CFD-WM-025-002-S.jpeg",NA,"SUPTM84507"
"160",1689020907968,"10/07/2023 20:28:27",1689024507968,1,"10/07/2023 22:28:27",137495,33,"task-v6vm",NA,30603502,9086165,NA,"complete",NA,NA,"computer","Desktop or Laptop","Windows 10","Chrome 114.0.0.0","1041x586","1157x494",NA,NA,NA,"JV Task P3 (Updated)",4,"Anxious",NA,"In",NA,NA,"GHFIEJDKCAB",NA,NA,"B (MDot First)",1,213,"SS1","SS1",29,"J","Judginess","y8ii7g",1,"response","85",999.664000000048,1649.63500000001,1662.03000000003,999.664000000048,1649.63500000001,1662.03000000003,1,999.664000000048,662.36599999998,0,NA,"Slider","J",3,"object-18","J","CFD-WM-025-002-S.jpeg",NA,"SUPTM84507"
"161",1689020908923,"10/07/2023 20:28:28",1689024508923,1,"10/07/2023 22:28:28",137495,33,"task-v6vm",NA,30603502,9086165,NA,"complete",NA,NA,"computer","Desktop or Laptop","Windows 10","Chrome 114.0.0.0","1041x586","1157x494",NA,NA,NA,"JV Task P3 (Updated)",4,"Anxious",NA,"In",NA,NA,"GHFIEJDKCAB",NA,NA,"B (MDot First)",1,213,"SS1","SS1",29,"J","Fixation","w9zir9",2,"continue","",966.42200000002,966.42200000002,966.42200000002,966.42200000002,966.42200000002,966.42200000002,1,966.42200000002,0,0,NA,"Fixation Timing","Fixation",1,"object-65","J","CFD-WM-025-002-S.jpeg",NA,"SUPTM84507"
"162",1689020911785,"10/07/2023 20:28:31",1689024511785,1,"10/07/2023 22:28:31",137495,33,"task-v6vm",NA,30603502,9086165,NA,"complete",NA,NA,"computer","Desktop or Laptop","Windows 10","Chrome 114.0.0.0","1041x586","1157x494",NA,NA,NA,"JV Task P3 (Updated)",4,"Anxious",NA,"In",NA,NA,"GHFIEJDKCAB",NA,NA,"B (MDot First)",1,213,"SS1","SS1",25,"V","Valence","xyoebq",1,"continue","",2863.37299999944,2849.72600000002,2863.37299999944,2863.37299999944,2849.72600000002,2863.37299999944,1,2863.37299999944,0,0,NA,"Click To Continue","Continue Button",1,"object-25","V","CFD-WF-031-027-S.jpeg",NA,"SUPTM84507"
"163",1689020911786,"10/07/2023 20:28:31",1689024511786,1,"10/07/2023 22:28:31",137495,33,"task-v6vm",NA,30603502,9086165,NA,"complete",NA,NA,"computer","Desktop or Laptop","Windows 10","Chrome 114.0.0.0","1041x586","1157x494",NA,NA,NA,"JV Task P3 (Updated)",4,"Anxious",NA,"In",NA,NA,"GHFIEJDKCAB",NA,NA,"B (MDot First)",1,213,"SS1","SS1",25,"V","Valence","xyoebq",1,"response","89",1549.96799999999,2849.72600000002,2863.973,1549.96799999999,2849.72600000002,2863.973,1,1549.96799999999,1314.005,0,NA,"Slider","J",3,"object-27","V","CFD-WF-031-027-S.jpeg",NA,"SUPTM84507"
"164",1689020912739,"10/07/2023 20:28:32",1689024512739,1,"10/07/2023 22:28:32",137495,33,"task-v6vm",NA,30603502,9086165,NA,"complete",NA,NA,"computer","Desktop or Laptop","Windows 10","Chrome 114.0.0.0","1041x586","1157x494",NA,NA,NA,"JV Task P3 (Updated)",4,"Anxious",NA,"In",NA,NA,"GHFIEJDKCAB",NA,NA,"B (MDot First)",1,213,"SS1","SS1",25,"V","Fixation","68owkj",2,"continue","",966.453999999969,966.453999999969,966.453999999969,966.453999999969,966.453999999969,966.453999999969,1,966.453999999969,0,0,NA,"Fixation Timing","Fixation",1,"object-21","V","CFD-WF-031-027-S.jpeg",NA,"SUPTM84507"
"165",1689020919125,"10/07/2023 20:28:39",1689024519125,1,"10/07/2023 22:28:39",137495,33,"task-v6vm",NA,30603502,9086165,NA,"complete",NA,NA,"computer","Desktop or Laptop","Windows 10","Chrome 114.0.0.0","1041x586","1157x494",NA,NA,NA,"JV Task P3 (Updated)",4,"Anxious",NA,"In",NA,NA,"GHFIEJDKCAB",NA,NA,"B (MDot First)",1,213,"SS1","SS1",30,"J","Judginess","y8ii7g",1,"continue","",6386.99300000019,6382.522,6386.99300000019,6386.99300000019,6382.522,6386.99300000019,1,6386.99300000019,0,0,NA,"Click To Continue","Continue Button",1,"object-14","J","CFD-WM-025-002-N.jpg",NA,"SUPTM84507"
"166",1689020919128,"10/07/2023 20:28:39",1689024519128,1,"10/07/2023 22:28:39",137495,33,"task-v6vm",NA,30603502,9086165,NA,"complete",NA,NA,"computer","Desktop or Laptop","Windows 10","Chrome 114.0.0.0","1041x586","1157x494",NA,NA,NA,"JV Task P3 (Updated)",4,"Anxious",NA,"In",NA,NA,"GHFIEJDKCAB",NA,NA,"B (MDot First)",1,213,"SS1","SS1",30,"J","Judginess","y8ii7g",1,"response","85",4732.908,6382.522,6390.09299999982,4732.908,6382.522,6390.09299999982,1,4732.908,1657.18499999982,0,NA,"Slider","J",3,"object-18","J","CFD-WM-025-002-N.jpg",NA,"SUPTM84507"
"167",1689020920088,"10/07/2023 20:28:40",1689024520088,1,"10/07/2023 22:28:40",137495,33,"task-v6vm",NA,30603502,9086165,NA,"complete",NA,NA,"computer","Desktop or Laptop","Windows 10","Chrome 114.0.0.0","1041x586","1157x494",NA,NA,NA,"JV Task P3 (Updated)",4,"Anxious",NA,"In",NA,NA,"GHFIEJDKCAB",NA,NA,"B (MDot First)",1,213,"SS1","SS1",30,"J","Fixation","w9zir9",2,"continue","",966.597000000009,966.597000000009,966.597000000009,966.597000000009,966.597000000009,966.597000000009,1,966.597000000009,0,0,NA,"Fixation Timing","Fixation",1,"object-65","J","CFD-WM-025-002-N.jpg",NA,"SUPTM84507"
"168",1689020924477,"10/07/2023 20:28:44",1689024524477,1,"10/07/2023 22:28:44",137495,33,"task-v6vm",NA,30603502,9086165,NA,"complete",NA,NA,"computer","Desktop or Laptop","Windows 10","Chrome 114.0.0.0","1041x586","1157x494",NA,NA,NA,"JV Task P3 (Updated)",4,"Anxious",NA,"In",NA,NA,"GHFIEJDKCAB",NA,NA,"B (MDot First)",1,213,"SS1","SS1",31,"J","Judginess","y8ii7g",1,"continue","",4389.57399999944,4382.87699999998,4389.57399999944,4389.57399999944,4382.87699999998,4389.57399999944,1,4389.57399999944,0,0,NA,"Click To Continue","Continue Button",1,"object-14","J","CFD-WM-009-002-N.jpg",NA,"SUPTM84507"
