"Event.Index","UTC.Timestamp","UTC.Date.and.Time","Local.Timestamp","Local.Timezone","Local.Date.and.Time","Experiment.ID","Experiment.Version","Tree.Node.Key","Repeat.Key","Schedule.ID","Participant.Private.ID","Participant.Starting.Group","Participant.Status","Participant.Completion.Code","Participant.External.Session.ID","Participant.Device.Type","Participant.Device","Participant.OS","Participant.Browser","Participant.Monitor.Size","Participant.Viewport.Size","Checkpoint","Room.ID","Room.Order","Task.Name","Task.Version","branch.ln1a","randomiser.vzsr","branch.hkzp","randomiser.ywar","randomiser.q6ah","order.ot79","randomiser.ahe2","randomiser.ckhi","randomiser.lqqr","randomiser.pobd","randomiser.8gdj","Spreadsheet","Current.Spreadsheet","Trial.Number","Display","Screen","Screen.ID","Screen.Counter","Response.Type","Response","Onset.Time","Clock.Time","Reaction.Time","Absolute.Onset.Time","Absolute.Clock.Time","Absolute.Reaction.Time","Correct","Response.Onset","Response.Duration","Proportion","Tag","Component.Name","Object.Name","Object.Number","Object.ID","Spreadsheet..display","Spreadsheet..stimulus","Spreadsheet..P","Spreadsheet..N","Manipulation..Spreadsheet","Random_ID"
"1",1688988216460,"10/07/2023 11:23:36",1688991816460,1,"10/07/2023 13:23:36",137495,33,"task-p9mv",NA,30591175,9082357,NA,"complete",NA,NA,"computer","Desktop or Laptop","Windows 10","Chrome 114.0.0.0","1366x768","1366x657",NA,NA,NA,"Video Feedback Task",13,"NonAnxious",NA,"In",NA,NA,"BCADKEJFIGH","B","B",NA,NA,NA,1,1,NA,"","","",NA,"5","BEGIN",NA,NA,NA,NA,NA,NA,0,NA,NA,NA,NA,"","",NA,"","","","","",NA,"SUPTM45532"
"2",1688988351586,"10/07/2023 11:25:51",1688991951586,1,"10/07/2023 13:25:51",137495,33,"task-p9mv",NA,30591175,9082357,NA,"complete",NA,NA,"computer","Desktop or Laptop","Windows 10","Chrome 114.0.0.0","1366x768","1366x657",NA,NA,NA,"Video Feedback Task",13,"NonAnxious",NA,"In",NA,NA,"BCADKEJFIGH","B","B",NA,NA,NA,1,1,NA,"","","",NA,"5","BEGIN",NA,NA,NA,NA,NA,NA,0,NA,NA,NA,NA,"","",NA,"","","","","",NA,"SUPTM45532"
"3",1688988405669,"10/07/2023 11:26:45",1688992005669,1,"10/07/2023 13:26:45",137495,33,"task-p9mv",NA,30591175,9082357,NA,"complete",NA,NA,"computer","Desktop or Laptop","Windows 10","Chrome 114.0.0.0","1366x768","1366x657",NA,NA,NA,"Video Feedback Task",13,"NonAnxious",NA,"In",NA,NA,"BCADKEJFIGH","B","B",NA,NA,NA,1,1,1,"Neutral Feedback","Screen 1","3zrml3",1,"continue","",48682.8370000477,48676.166,48682.8370000477,48682.8370000477,48676.166,48682.8370000477,1,48682.8370000477,0,0,NA,"Click To Continue","Continue Button",1,"object-155","Neutral Feedback","P2_N.mp4","Screenshot 2023-06-30 at 15.00.42.png","Screenshot 2023-06-30 at 15.02.01.png",NA,"SUPTM45532"
"4",1688988418981,"10/07/2023 11:26:58",1688992018981,1,"10/07/2023 13:26:58",137495,33,"task-p9mv",NA,30591175,9082357,NA,"complete",NA,NA,"computer","Desktop or Laptop","Windows 10","Chrome 114.0.0.0","1366x768","1366x657",NA,NA,NA,"Video Feedback Task",13,"NonAnxious",NA,"In",NA,NA,"BCADKEJFIGH","B","B",NA,NA,NA,1,1,1,"Neutral Feedback","Screen 1","3zrml3",1,"continue","",62000.0369999762,61991.079,62000.0369999762,62000.0369999762,61991.079,62000.0369999762,1,62000.0369999762,0,0,NA,"Click To Continue","Continue Button",1,"object-155","Neutral Feedback","P2_N.mp4","Screenshot 2023-06-30 at 15.00.42.png","Screenshot 2023-06-30 at 15.02.01.png",NA,"SUPTM45532"
"5",1688988419000,"10/07/2023 11:26:59",1688992019000,1,"10/07/2023 13:26:59",137495,33,"task-p9mv",NA,30591175,9082357,NA,"complete",NA,NA,"computer","Desktop or Laptop","Windows 10","Chrome 114.0.0.0","1366x768","1366x657",NA,NA,NA,"Video Feedback Task",13,"NonAnxious",NA,"In",NA,NA,"BCADKEJFIGH","B","B",NA,NA,NA,1,1,1,"Neutral Feedback","Screen 1","3zrml3",1,"response","Higher than usual",52442.42,61991.079,62007.743,52442.42,61991.079,62007.743,1,52442.42,9565.32299999998,0,NA,"Text Entry","Text Entry",4,"object-158","Neutral Feedback","P2_N.mp4","Screenshot 2023-06-30 at 15.00.42.png","Screenshot 2023-06-30 at 15.02.01.png",NA,"SUPTM45532"
"6",1688988419001,"10/07/2023 11:26:59",1688992019001,1,"10/07/2023 13:26:59",137495,33,"task-p9mv",NA,30591175,9082357,NA,"complete",NA,NA,"computer","Desktop or Laptop","Windows 10","Chrome 114.0.0.0","1366x768","1366x657",NA,NA,NA,"Video Feedback Task",13,"NonAnxious",NA,"In",NA,NA,"BCADKEJFIGH","B","B",NA,NA,NA,1,1,1,"Neutral Feedback","Screen 1","3zrml3",1,"response","Astonishing",31345.511,61991.079,62007.743,31345.511,61991.079,62007.743,1,31345.511,30662.232,0,NA,"Text Entry","Text Entry",5,"object-159","Neutral Feedback","P2_N.mp4","Screenshot 2023-06-30 at 15.00.42.png","Screenshot 2023-06-30 at 15.02.01.png",NA,"SUPTM45532"
"7",1688988419938,"10/07/2023 11:26:59",1688992019938,1,"10/07/2023 13:26:59",137495,33,"task-p9mv",NA,30591175,9082357,NA,"complete",NA,NA,"computer","Desktop or Laptop","Windows 10","Chrome 114.0.0.0","1366x768","1366x657",NA,NA,NA,"Video Feedback Task",13,"NonAnxious",NA,"In",NA,NA,"BCADKEJFIGH","B","B",NA,NA,NA,1,1,1,"Neutral Feedback","Screen 2","vv4mhq",2,"continue","",966.425000000003,966.425000000003,966.425000000003,966.425000000003,966.425000000003,966.425000000003,1,966.425000000003,0,0,NA,"Fixation Timing","Fixation",1,"object-153","Neutral Feedback","P2_N.mp4","Screenshot 2023-06-30 at 15.00.42.png","Screenshot 2023-06-30 at 15.02.01.png",NA,"SUPTM45532"
"8",1688988439852,"10/07/2023 11:27:19",1688992039852,1,"10/07/2023 13:27:19",137495,33,"task-p9mv",NA,30591175,9082357,NA,"complete",NA,NA,"computer","Desktop or Laptop","Windows 10","Chrome 114.0.0.0","1366x768","1366x657",NA,NA,NA,"Video Feedback Task",13,"NonAnxious",NA,"In",NA,NA,"BCADKEJFIGH","B","B",NA,NA,NA,1,1,1,"Positive Feedback","Video","w2ir4b",1,"continue","",19913.697,19897.104,19913.697,19913.697,19897.104,19913.697,1,19913.697,0,0,NA,"Click To Continue","Continue Button",1,"object-14","Positive Feedback","P5_P.mp4","Screenshot 2023-06-30 at 15.01.08.png","Screenshot 2023-06-30 at 15.00.55.png",NA,"SUPTM45532"
"9",1688988439862,"10/07/2023 11:27:19",1688992039862,1,"10/07/2023 13:27:19",137495,33,"task-p9mv",NA,30591175,9082357,NA,"complete",NA,NA,"computer","Desktop or Laptop","Windows 10","Chrome 114.0.0.0","1366x768","1366x657",NA,NA,NA,"Video Feedback Task",13,"NonAnxious",NA,"In",NA,NA,"BCADKEJFIGH","B","B",NA,NA,NA,1,1,1,"Positive Feedback","Video","w2ir4b",1,"response","Favourable",13664.68,19897.104,19913.697,13664.68,19897.104,19913.697,1,13664.68,6249.01700000001,0,NA,"Text Entry","Text Entry",4,"object-19","Positive Feedback","P5_P.mp4","Screenshot 2023-06-30 at 15.01.08.png","Screenshot 2023-06-30 at 15.00.55.png",NA,"SUPTM45532"
"10",1688988439864,"10/07/2023 11:27:19",1688992039864,1,"10/07/2023 13:27:19",137495,33,"task-p9mv",NA,30591175,9082357,NA,"complete",NA,NA,"computer","Desktop or Laptop","Windows 10","Chrome 114.0.0.0","1366x768","1366x657",NA,NA,NA,"Video Feedback Task",13,"NonAnxious",NA,"In",NA,NA,"BCADKEJFIGH","B","B",NA,NA,NA,1,1,1,"Positive Feedback","Video","w2ir4b",1,"response","Great job",5265.84300000001,19897.104,19913.697,5265.84300000001,19897.104,19913.697,1,5265.84300000001,14647.854,0,NA,"Text Entry","Text Entry",5,"object-20","Positive Feedback","P5_P.mp4","Screenshot 2023-06-30 at 15.01.08.png","Screenshot 2023-06-30 at 15.00.55.png",NA,"SUPTM45532"
"11",1688988440802,"10/07/2023 11:27:20",1688992040802,1,"10/07/2023 13:27:20",137495,33,"task-p9mv",NA,30591175,9082357,NA,"complete",NA,NA,"computer","Desktop or Laptop","Windows 10","Chrome 114.0.0.0","1366x768","1366x657",NA,NA,NA,"Video Feedback Task",13,"NonAnxious",NA,"In",NA,NA,"BCADKEJFIGH","B","B",NA,NA,NA,1,1,1,"Positive Feedback","Fixation","mtm832",2,"continue","",966.527000000002,966.527000000002,966.527000000002,966.527000000002,966.527000000002,966.527000000002,1,966.527000000002,0,0,NA,"Fixation Timing","Fixation",1,"object-65","Positive Feedback","P5_P.mp4","Screenshot 2023-06-30 at 15.01.08.png","Screenshot 2023-06-30 at 15.00.55.png",NA,"SUPTM45532"
"12",1688988463028,"10/07/2023 11:27:43",1688992063028,1,"10/07/2023 13:27:43",137495,33,"task-p9mv",NA,30591175,9082357,NA,"complete",NA,NA,"computer","Desktop or Laptop","Windows 10","Chrome 114.0.0.0","1366x768","1366x657",NA,NA,NA,"Video Feedback Task",13,"NonAnxious",NA,"In",NA,NA,"BCADKEJFIGH","B","B",NA,NA,NA,1,1,2,"Positive Feedback","Video","w2ir4b",1,"continue","",22226.502,22213.344,22226.502,22226.502,22213.344,22226.502,1,22226.502,0,0,NA,"Click To Continue","Continue Button",1,"object-14","Positive Feedback","P2_P.mp4","Screenshot 2023-06-30 at 15.00.42.png","Screenshot 2023-06-30 at 15.00.55.png",NA,"SUPTM45532"
"13",1688988463036,"10/07/2023 11:27:43",1688992063036,1,"10/07/2023 13:27:43",137495,33,"task-p9mv",NA,30591175,9082357,NA,"complete",NA,NA,"computer","Desktop or Laptop","Windows 10","Chrome 114.0.0.0","1366x768","1366x657",NA,NA,NA,"Video Feedback Task",13,"NonAnxious",NA,"In",NA,NA,"BCADKEJFIGH","B","B",NA,NA,NA,1,1,2,"Positive Feedback","Video","w2ir4b",1,"response","Easy to understand",12481.49,22213.344,22229.987,12481.49,22213.344,22229.987,1,12481.49,9748.49700000002,0,NA,"Text Entry","Text Entry",4,"object-19","Positive Feedback","P2_P.mp4","Screenshot 2023-06-30 at 15.00.42.png","Screenshot 2023-06-30 at 15.00.55.png",NA,"SUPTM45532"
"14",1688988463039,"10/07/2023 11:27:43",1688992063039,1,"10/07/2023 13:27:43",137495,33,"task-p9mv",NA,30591175,9082357,NA,"complete",NA,NA,"computer","Desktop or Laptop","Windows 10","Chrome 114.0.0.0","1366x768","1366x657",NA,NA,NA,"Video Feedback Task",13,"NonAnxious",NA,"In",NA,NA,"BCADKEJFIGH","B","B",NA,NA,NA,1,1,2,"Positive Feedback","Video","w2ir4b",1,"response","Job well done",5782.39799999999,22213.344,22229.987,5782.39799999999,22213.344,22229.987,1,5782.39799999999,16447.589,0,NA,"Text Entry","Text Entry",5,"object-20","Positive Feedback","P2_P.mp4","Screenshot 2023-06-30 at 15.00.42.png","Screenshot 2023-06-30 at 15.00.55.png",NA,"SUPTM45532"
"15",1688988463982,"10/07/2023 11:27:43",1688992063982,1,"10/07/2023 13:27:43",137495,33,"task-p9mv",NA,30591175,9082357,NA,"complete",NA,NA,"computer","Desktop or Laptop","Windows 10","Chrome 114.0.0.0","1366x768","1366x657",NA,NA,NA,"Video Feedback Task",13,"NonAnxious",NA,"In",NA,NA,"BCADKEJFIGH","B","B",NA,NA,NA,1,1,2,"Positive Feedback","Fixation","mtm832",2,"continue","",966.614000000001,966.614000000001,966.614000000001,966.614000000001,966.614000000001,966.614000000001,1,966.614000000001,0,0,NA,"Fixation Timing","Fixation",1,"object-65","Positive Feedback","P2_P.mp4","Screenshot 2023-06-30 at 15.00.42.png","Screenshot 2023-06-30 at 15.00.55.png",NA,"SUPTM45532"
"16",1688988488436,"10/07/2023 11:28:08",1688992088436,1,"10/07/2023 13:28:08",137495,33,"task-p9mv",NA,30591175,9082357,NA,"complete",NA,NA,"computer","Desktop or Laptop","Windows 10","Chrome 114.0.0.0","1366x768","1366x657",NA,NA,NA,"Video Feedback Task",13,"NonAnxious",NA,"In",NA,NA,"BCADKEJFIGH","B","B",NA,NA,NA,1,1,2,"Neutral Feedback","Screen 1","3zrml3",1,"continue","",24454.9439999762,24446.343,24454.9439999762,24454.9439999762,24446.343,24454.9439999762,1,24454.9439999762,0,0,NA,"Click To Continue","Continue Button",1,"object-155","Neutral Feedback","P3_N.mp4","Screenshot 2023-06-30 at 15.00.42.png","Screenshot 2023-06-30 at 15.02.01.png",NA,"SUPTM45532"
"17",1688988488446,"10/07/2023 11:28:08",1688992088446,1,"10/07/2023 13:28:08",137495,33,"task-p9mv",NA,30591175,9082357,NA,"complete",NA,NA,"computer","Desktop or Laptop","Windows 10","Chrome 114.0.0.0","1366x768","1366x657",NA,NA,NA,"Video Feedback Task",13,"NonAnxious",NA,"In",NA,NA,"BCADKEJFIGH","B","B",NA,NA,NA,1,1,2,"Neutral Feedback","Screen 1","3zrml3",1,"response","Normal stuff",16947.493,24446.343,24462.979,16947.493,24446.343,24462.979,1,16947.493,7515.486,0,NA,"Text Entry","Text Entry",4,"object-158","Neutral Feedback","P3_N.mp4","Screenshot 2023-06-30 at 15.00.42.png","Screenshot 2023-06-30 at 15.02.01.png",NA,"SUPTM45532"
"18",1688988488448,"10/07/2023 11:28:08",1688992088448,1,"10/07/2023 13:28:08",137495,33,"task-p9mv",NA,30591175,9082357,NA,"complete",NA,NA,"computer","Desktop or Laptop","Windows 10","Chrome 114.0.0.0","1366x768","1366x657",NA,NA,NA,"Video Feedback Task",13,"NonAnxious",NA,"In",NA,NA,"BCADKEJFIGH","B","B",NA,NA,NA,1,1,2,"Neutral Feedback","Screen 1","3zrml3",1,"response","Nothing extra",8681.961,24446.343,24462.979,8681.961,24446.343,24462.979,1,8681.961,15781.018,0,NA,"Text Entry","Text Entry",5,"object-159","Neutral Feedback","P3_N.mp4","Screenshot 2023-06-30 at 15.00.42.png","Screenshot 2023-06-30 at 15.02.01.png",NA,"SUPTM45532"
"19",1688988489394,"10/07/2023 11:28:09",1688992089394,1,"10/07/2023 13:28:09",137495,33,"task-p9mv",NA,30591175,9082357,NA,"complete",NA,NA,"computer","Desktop or Laptop","Windows 10","Chrome 114.0.0.0","1366x768","1366x657",NA,NA,NA,"Video Feedback Task",13,"NonAnxious",NA,"In",NA,NA,"BCADKEJFIGH","B","B",NA,NA,NA,1,1,2,"Neutral Feedback","Screen 2","vv4mhq",2,"continue","",966.519,966.519,966.519,966.519,966.519,966.519,1,966.519,0,0,NA,"Fixation Timing","Fixation",1,"object-153","Neutral Feedback","P3_N.mp4","Screenshot 2023-06-30 at 15.00.42.png","Screenshot 2023-06-30 at 15.02.01.png",NA,"SUPTM45532"
"20",1688988520340,"10/07/2023 11:28:40",1688992120340,1,"10/07/2023 13:28:40",137495,33,"task-p9mv",NA,30591175,9082357,NA,"complete",NA,NA,"computer","Desktop or Laptop","Windows 10","Chrome 114.0.0.0","1366x768","1366x657",NA,NA,NA,"Video Feedback Task",13,"NonAnxious",NA,"In",NA,NA,"BCADKEJFIGH","B","B",NA,NA,NA,1,1,3,"Positive Feedback","Video","w2ir4b",1,"continue","",30945.525,30928.854,30945.525,30945.525,30928.854,30945.525,1,30945.525,0,0,NA,"Click To Continue","Continue Button",1,"object-14","Positive Feedback","P1_P.mp4","Screenshot 2023-06-30 at 15.00.42.png","Screenshot 2023-06-30 at 15.00.55.png",NA,"SUPTM45532"
"21",1688988520348,"10/07/2023 11:28:40",1688992120348,1,"10/07/2023 13:28:40",137495,33,"task-p9mv",NA,30591175,9082357,NA,"complete",NA,NA,"computer","Desktop or Laptop","Windows 10","Chrome 114.0.0.0","1366x768","1366x657",NA,NA,NA,"Video Feedback Task",13,"NonAnxious",NA,"In",NA,NA,"BCADKEJFIGH","B","B",NA,NA,NA,1,1,3,"Positive Feedback","Video","w2ir4b",1,"response","Great work",26729.446,30928.854,30945.525,26729.446,30928.854,30945.525,1,26729.446,4216.079,0,NA,"Text Entry","Text Entry",4,"object-19","Positive Feedback","P1_P.mp4","Screenshot 2023-06-30 at 15.00.42.png","Screenshot 2023-06-30 at 15.00.55.png",NA,"SUPTM45532"
"22",1688988520350,"10/07/2023 11:28:40",1688992120350,1,"10/07/2023 13:28:40",137495,33,"task-p9mv",NA,30591175,9082357,NA,"complete",NA,NA,"computer","Desktop or Laptop","Windows 10","Chrome 114.0.0.0","1366x768","1366x657",NA,NA,NA,"Video Feedback Task",13,"NonAnxious",NA,"In",NA,NA,"BCADKEJFIGH","B","B",NA,NA,NA,1,1,3,"Positive Feedback","Video","w2ir4b",1,"response","Job well done",16980.751,30928.854,30945.525,16980.751,30928.854,30945.525,1,16980.751,13964.774,0,NA,"Text Entry","Text Entry",5,"object-20","Positive Feedback","P1_P.mp4","Screenshot 2023-06-30 at 15.00.42.png","Screenshot 2023-06-30 at 15.00.55.png",NA,"SUPTM45532"
"23",1688988521289,"10/07/2023 11:28:41",1688992121289,1,"10/07/2023 13:28:41",137495,33,"task-p9mv",NA,30591175,9082357,NA,"complete",NA,NA,"computer","Desktop or Laptop","Windows 10","Chrome 114.0.0.0","1366x768","1366x657",NA,NA,NA,"Video Feedback Task",13,"NonAnxious",NA,"In",NA,NA,"BCADKEJFIGH","B","B",NA,NA,NA,1,1,3,"Positive Feedback","Fixation","mtm832",2,"continue","",966.440000000002,966.440000000002,966.440000000002,966.440000000002,966.440000000002,966.440000000002,1,966.440000000002,0,0,NA,"Fixation Timing","Fixation",1,"object-65","Positive Feedback","P1_P.mp4","Screenshot 2023-06-30 at 15.00.42.png","Screenshot 2023-06-30 at 15.00.55.png",NA,"SUPTM45532"
"24",1688988547929,"10/07/2023 11:29:07",1688992147929,1,"10/07/2023 13:29:07",137495,33,"task-p9mv",NA,30591175,9082357,NA,"complete",NA,NA,"computer","Desktop or Laptop","Windows 10","Chrome 114.0.0.0","1366x768","1366x657",NA,NA,NA,"Video Feedback Task",13,"NonAnxious",NA,"In",NA,NA,"BCADKEJFIGH","B","B",NA,NA,NA,1,1,3,"Neutral Feedback","Screen 1","3zrml3",1,"continue","",26639.7879999762,26629.402,26639.7879999762,26639.7879999762,26629.402,26639.7879999762,1,26639.7879999762,0,0,NA,"Click To Continue","Continue Button",1,"object-155","Neutral Feedback","P4_N.mp4","Screenshot 2023-06-30 at 15.00.42.png","Screenshot 2023-06-30 at 15.02.01.png",NA,"SUPTM45532"
"25",1688988547933,"10/07/2023 11:29:07",1688992147933,1,"10/07/2023 13:29:07",137495,33,"task-p9mv",NA,30591175,9082357,NA,"complete",NA,NA,"computer","Desktop or Laptop","Windows 10","Chrome 114.0.0.0","1366x768","1366x657",NA,NA,NA,"Video Feedback Task",13,"NonAnxious",NA,"In",NA,NA,"BCADKEJFIGH","B","B",NA,NA,NA,1,1,3,"Neutral Feedback","Screen 1","3zrml3",1,"response","In between the ethics ",14181.217,26629.402,26643.388,14181.217,26629.402,26643.388,1,14181.217,12462.171,0,NA,"Text Entry","Text Entry",4,"object-158","Neutral Feedback","P4_N.mp4","Screenshot 2023-06-30 at 15.00.42.png","Screenshot 2023-06-30 at 15.02.01.png",NA,"SUPTM45532"
"26",1688988547933,"10/07/2023 11:29:07",1688992147933,1,"10/07/2023 13:29:07",137495,33,"task-p9mv",NA,30591175,9082357,NA,"complete",NA,NA,"computer","Desktop or Laptop","Windows 10","Chrome 114.0.0.0","1366x768","1366x657",NA,NA,NA,"Video Feedback Task",13,"NonAnxious",NA,"In",NA,NA,"BCADKEJFIGH","B","B",NA,NA,NA,1,1,3,"Neutral Feedback","Screen 1","3zrml3",1,"response","Mid stuff",3632.82800000001,26629.402,26644.0880000477,3632.82800000001,26629.402,26644.0880000477,1,3632.82800000001,23011.2600000477,0,NA,"Text Entry","Text Entry",5,"object-159","Neutral Feedback","P4_N.mp4","Screenshot 2023-06-30 at 15.00.42.png","Screenshot 2023-06-30 at 15.02.01.png",NA,"SUPTM45532"
"27",1688988547933,"10/07/2023 11:29:07",1688992147933,1,"10/07/2023 13:29:07",137495,33,"task-p9mv",NA,30591175,9082357,NA,"complete",NA,NA,"computer","Desktop or Laptop","Windows 10","Chrome 114.0.0.0","1366x768","1366x657",NA,NA,NA,"Video Feedback Task",13,"NonAnxious",NA,"In",NA,NA,"BCADKEJFIGH","B","B",NA,NA,NA,1,1,3,"Neutral Feedback","Screen 1","3zrml3",1,"response","In between the ethics ",14181.217,26629.402,26643.388,14181.217,26629.402,26643.388,1,14181.217,12462.171,0,NA,"Text Entry","Text Entry",4,"object-158","Neutral Feedback","P4_N.mp4","Screenshot 2023-06-30 at 15.00.42.png","Screenshot 2023-06-30 at 15.02.01.png",NA,"SUPTM45532"
"28",1688988547933,"10/07/2023 11:29:07",1688992147933,1,"10/07/2023 13:29:07",137495,33,"task-p9mv",NA,30591175,9082357,NA,"complete",NA,NA,"computer","Desktop or Laptop","Windows 10","Chrome 114.0.0.0","1366x768","1366x657",NA,NA,NA,"Video Feedback Task",13,"NonAnxious",NA,"In",NA,NA,"BCADKEJFIGH","B","B",NA,NA,NA,1,1,3,"Neutral Feedback","Screen 1","3zrml3",1,"response","Mid stuff",3632.82800000001,26629.402,26644.0880000477,3632.82800000001,26629.402,26644.0880000477,1,3632.82800000001,23011.2600000477,0,NA,"Text Entry","Text Entry",5,"object-159","Neutral Feedback","P4_N.mp4","Screenshot 2023-06-30 at 15.00.42.png","Screenshot 2023-06-30 at 15.02.01.png",NA,"SUPTM45532"
"29",1688988548886,"10/07/2023 11:29:08",1688992148886,1,"10/07/2023 13:29:08",137495,33,"task-p9mv",NA,30591175,9082357,NA,"complete",NA,NA,"computer","Desktop or Laptop","Windows 10","Chrome 114.0.0.0","1366x768","1366x657",NA,NA,NA,"Video Feedback Task",13,"NonAnxious",NA,"In",NA,NA,"BCADKEJFIGH","B","B",NA,NA,NA,1,1,3,"Neutral Feedback","Screen 2","vv4mhq",2,"continue","",966.626000000018,966.626000000018,966.626000000018,966.626000000018,966.626000000018,966.626000000018,1,966.626000000018,0,0,NA,"Fixation Timing","Fixation",1,"object-153","Neutral Feedback","P4_N.mp4","Screenshot 2023-06-30 at 15.00.42.png","Screenshot 2023-06-30 at 15.02.01.png",NA,"SUPTM45532"
"30",1688988548886,"10/07/2023 11:29:08",1688992148886,1,"10/07/2023 13:29:08",137495,33,"task-p9mv",NA,30591175,9082357,NA,"complete",NA,NA,"computer","Desktop or Laptop","Windows 10","Chrome 114.0.0.0","1366x768","1366x657",NA,NA,NA,"Video Feedback Task",13,"NonAnxious",NA,"In",NA,NA,"BCADKEJFIGH","B","B",NA,NA,NA,1,1,3,"Neutral Feedback","Screen 2","vv4mhq",2,"continue","",966.626000000018,966.626000000018,966.626000000018,966.626000000018,966.626000000018,966.626000000018,1,966.626000000018,0,0,NA,"Fixation Timing","Fixation",1,"object-153","Neutral Feedback","P4_N.mp4","Screenshot 2023-06-30 at 15.00.42.png","Screenshot 2023-06-30 at 15.02.01.png",NA,"SUPTM45532"
"31",1688988571521,"10/07/2023 11:29:31",1688992171521,1,"10/07/2023 13:29:31",137495,33,"task-p9mv",NA,30591175,9082357,NA,"complete",NA,NA,"computer","Desktop or Laptop","Windows 10","Chrome 114.0.0.0","1366x768","1366x657",NA,NA,NA,"Video Feedback Task",13,"NonAnxious",NA,"In",NA,NA,"BCADKEJFIGH","B","B",NA,NA,NA,1,1,4,"Positive Feedback","Video","w2ir4b",1,"continue","",22635.86,22629.911,22635.86,22635.86,22629.911,22635.86,1,22635.86,0,0,NA,"Click To Continue","Continue Button",1,"object-14","Positive Feedback","P3_P.mp4","Screenshot 2023-06-30 at 15.01.08.png","Screenshot 2023-06-30 at 15.02.01.png",NA,"SUPTM45532"
"32",1688988571521,"10/07/2023 11:29:31",1688992171521,1,"10/07/2023 13:29:31",137495,33,"task-p9mv",NA,30591175,9082357,NA,"complete",NA,NA,"computer","Desktop or Laptop","Windows 10","Chrome 114.0.0.0","1366x768","1366x657",NA,NA,NA,"Video Feedback Task",13,"NonAnxious",NA,"In",NA,NA,"BCADKEJFIGH","B","B",NA,NA,NA,1,1,4,"Positive Feedback","Video","w2ir4b",1,"continue","",22635.86,22629.911,22635.86,22635.86,22629.911,22635.86,1,22635.86,0,0,NA,"Click To Continue","Continue Button",1,"object-14","Positive Feedback","P3_P.mp4","Screenshot 2023-06-30 at 15.01.08.png","Screenshot 2023-06-30 at 15.02.01.png",NA,"SUPTM45532"
"33",1688988571524,"10/07/2023 11:29:31",1688992171524,1,"10/07/2023 13:29:31",137495,33,"task-p9mv",NA,30591175,9082357,NA,"complete",NA,NA,"computer","Desktop or Laptop","Windows 10","Chrome 114.0.0.0","1366x768","1366x657",NA,NA,NA,"Video Feedback Task",13,"NonAnxious",NA,"In",NA,NA,"BCADKEJFIGH","B","B",NA,NA,NA,1,1,4,"Positive Feedback","Video","w2ir4b",1,"response","Top notch",17680.658,22629.911,22638.6599999523,17680.658,22629.911,22638.6599999523,1,17680.658,4958.00199995231,0,NA,"Text Entry","Text Entry",4,"object-19","Positive Feedback","P3_P.mp4","Screenshot 2023-06-30 at 15.01.08.png","Screenshot 2023-06-30 at 15.02.01.png",NA,"SUPTM45532"
"34",1688988571525,"10/07/2023 11:29:31",1688992171525,1,"10/07/2023 13:29:31",137495,33,"task-p9mv",NA,30591175,9082357,NA,"complete",NA,NA,"computer","Desktop or Laptop","Windows 10","Chrome 114.0.0.0","1366x768","1366x657",NA,NA,NA,"Video Feedback Task",13,"NonAnxious",NA,"In",NA,NA,"BCADKEJFIGH","B","B",NA,NA,NA,1,1,4,"Positive Feedback","Video","w2ir4b",1,"response","Outstanding",3632.72999999998,22629.911,22639.36,3632.72999999998,22629.911,22639.36,1,3632.72999999998,19006.63,0,NA,"Text Entry","Text Entry",5,"object-20","Positive Feedback","P3_P.mp4","Screenshot 2023-06-30 at 15.01.08.png","Screenshot 2023-06-30 at 15.02.01.png",NA,"SUPTM45532"
"35",1688988572482,"10/07/2023 11:29:32",1688992172482,1,"10/07/2023 13:29:32",137495,33,"task-p9mv",NA,30591175,9082357,NA,"complete",NA,NA,"computer","Desktop or Laptop","Windows 10","Chrome 114.0.0.0","1366x768","1366x657",NA,NA,NA,"Video Feedback Task",13,"NonAnxious",NA,"In",NA,NA,"BCADKEJFIGH","B","B",NA,NA,NA,1,1,4,"Positive Feedback","Fixation","mtm832",2,"continue","",966.527999999991,966.527999999991,966.527999999991,966.527999999991,966.527999999991,966.527999999991,1,966.527999999991,0,0,NA,"Fixation Timing","Fixation",1,"object-65","Positive Feedback","P3_P.mp4","Screenshot 2023-06-30 at 15.01.08.png","Screenshot 2023-06-30 at 15.02.01.png",NA,"SUPTM45532"
"36",1688988698621,"10/07/2023 11:31:38",1688992298621,1,"10/07/2023 13:31:38",137495,33,"task-p9mv",NA,30591175,9082357,NA,"complete",NA,NA,"computer","Desktop or Laptop","Windows 10","Chrome 114.0.0.0","1366x768","1366x657",NA,NA,NA,"Video Feedback Task",13,"NonAnxious",NA,"In",NA,NA,"BCADKEJFIGH","B","B",NA,NA,NA,1,1,4,"Neutral Feedback","Screen 1","3zrml3",1,"continue","",126146.121000048,126131.568,126146.121000048,126146.121000048,126131.568,126146.121000048,1,126146.121000048,0,0,NA,"Click To Continue","Continue Button",1,"object-155","Neutral Feedback","P5_N.mp4","Screenshot 2023-06-30 at 15.01.08.png","Screenshot 2023-06-30 at 15.00.55.png",NA,"SUPTM45532"
"37",1688988698626,"10/07/2023 11:31:38",1688992298626,1,"10/07/2023 13:31:38",137495,33,"task-p9mv",NA,30591175,9082357,NA,"complete",NA,NA,"computer","Desktop or Laptop","Windows 10","Chrome 114.0.0.0","1366x768","1366x657",NA,NA,NA,"Video Feedback Task",13,"NonAnxious",NA,"In",NA,NA,"BCADKEJFIGH","B","B",NA,NA,NA,1,1,4,"Neutral Feedback","Screen 1","3zrml3",1,"response","Mid result",27129.487,126131.568,126148.241,27129.487,126131.568,126148.241,1,27129.487,99018.754,0,NA,"Text Entry","Text Entry",4,"object-158","Neutral Feedback","P5_N.mp4","Screenshot 2023-06-30 at 15.01.08.png","Screenshot 2023-06-30 at 15.00.55.png",NA,"SUPTM45532"
"38",1688988698627,"10/07/2023 11:31:38",1688992298627,1,"10/07/2023 13:31:38",137495,33,"task-p9mv",NA,30591175,9082357,NA,"complete",NA,NA,"computer","Desktop or Laptop","Windows 10","Chrome 114.0.0.0","1366x768","1366x657",NA,NA,NA,"Video Feedback Task",13,"NonAnxious",NA,"In",NA,NA,"BCADKEJFIGH","B","B",NA,NA,NA,1,1,4,"Neutral Feedback","Screen 1","3zrml3",1,"response","Normal standard",14114.601,126131.568,126148.241,14114.601,126131.568,126148.241,1,14114.601,112033.64,0,NA,"Text Entry","Text Entry",5,"object-159","Neutral Feedback","P5_N.mp4","Screenshot 2023-06-30 at 15.01.08.png","Screenshot 2023-06-30 at 15.00.55.png",NA,"SUPTM45532"
"39",1688988699573,"10/07/2023 11:31:39",1688992299573,1,"10/07/2023 13:31:39",137495,33,"task-p9mv",NA,30591175,9082357,NA,"complete",NA,NA,"computer","Desktop or Laptop","Windows 10","Chrome 114.0.0.0","1366x768","1366x657",NA,NA,NA,"Video Feedback Task",13,"NonAnxious",NA,"In",NA,NA,"BCADKEJFIGH","B","B",NA,NA,NA,1,1,4,"Neutral Feedback","Screen 2","vv4mhq",2,"continue","",966.542000000016,966.542000000016,966.542000000016,966.542000000016,966.542000000016,966.542000000016,1,966.542000000016,0,0,NA,"Fixation Timing","Fixation",1,"object-153","Neutral Feedback","P5_N.mp4","Screenshot 2023-06-30 at 15.01.08.png","Screenshot 2023-06-30 at 15.00.55.png",NA,"SUPTM45532"
"40",1688988733678,"10/07/2023 11:32:13",1688992333678,1,"10/07/2023 13:32:13",137495,33,"task-p9mv",NA,30591175,9082357,NA,"complete",NA,NA,"computer","Desktop or Laptop","Windows 10","Chrome 114.0.0.0","1366x768","1366x657",NA,NA,NA,"Video Feedback Task",13,"NonAnxious",NA,"In",NA,NA,"BCADKEJFIGH","B","B",NA,NA,NA,1,1,5,"Neutral Feedback","Screen 1","3zrml3",1,"continue","",34094.409,34078.39,34094.409,34094.409,34078.39,34094.409,1,34094.409,0,0,NA,"Click To Continue","Continue Button",1,"object-155","Neutral Feedback","P1_N.mp4","Screenshot 2023-06-30 at 15.01.08.png","Screenshot 2023-06-30 at 15.00.55.png",NA,"SUPTM45532"
"41",1688988733684,"10/07/2023 11:32:13",1688992333684,1,"10/07/2023 13:32:13",137495,33,"task-p9mv",NA,30591175,9082357,NA,"complete",NA,NA,"computer","Desktop or Laptop","Windows 10","Chrome 114.0.0.0","1366x768","1366x657",NA,NA,NA,"Video Feedback Task",13,"NonAnxious",NA,"In",NA,NA,"BCADKEJFIGH","B","B",NA,NA,NA,1,1,5,"Neutral Feedback","Screen 1","3zrml3",1,"response","Normal flow",16980.934,34078.39,34094.409,16980.934,34078.39,34094.409,1,16980.934,17113.475,0,NA,"Text Entry","Text Entry",4,"object-158","Neutral Feedback","P1_N.mp4","Screenshot 2023-06-30 at 15.01.08.png","Screenshot 2023-06-30 at 15.00.55.png",NA,"SUPTM45532"
"42",1688988733686,"10/07/2023 11:32:13",1688992333686,1,"10/07/2023 13:32:13",137495,33,"task-p9mv",NA,30591175,9082357,NA,"complete",NA,NA,"computer","Desktop or Laptop","Windows 10","Chrome 114.0.0.0","1366x768","1366x657",NA,NA,NA,"Video Feedback Task",13,"NonAnxious",NA,"In",NA,NA,"BCADKEJFIGH","B","B",NA,NA,NA,1,1,5,"Neutral Feedback","Screen 1","3zrml3",1,"response","Average",4849.20699999999,34078.39,34094.409,4849.20699999999,34078.39,34094.409,1,4849.20699999999,29245.202,0,NA,"Text Entry","Text Entry",5,"object-159","Neutral Feedback","P1_N.mp4","Screenshot 2023-06-30 at 15.01.08.png","Screenshot 2023-06-30 at 15.00.55.png",NA,"SUPTM45532"
"43",1688988734626,"10/07/2023 11:32:14",1688992334626,1,"10/07/2023 13:32:14",137495,33,"task-p9mv",NA,30591175,9082357,NA,"complete",NA,NA,"computer","Desktop or Laptop","Windows 10","Chrome 114.0.0.0","1366x768","1366x657",NA,NA,NA,"Video Feedback Task",13,"NonAnxious",NA,"In",NA,NA,"BCADKEJFIGH","B","B",NA,NA,NA,1,1,5,"Neutral Feedback","Screen 2","vv4mhq",2,"continue","",966.466999999946,966.466999999946,966.466999999946,966.466999999946,966.466999999946,966.466999999946,1,966.466999999946,0,0,NA,"Fixation Timing","Fixation",1,"object-153","Neutral Feedback","P1_N.mp4","Screenshot 2023-06-30 at 15.01.08.png","Screenshot 2023-06-30 at 15.00.55.png",NA,"SUPTM45532"
"44",1688988918003,"10/07/2023 11:35:18",1688992518003,1,"10/07/2023 13:35:18",137495,33,"task-p9mv",NA,30591175,9082357,NA,"complete",NA,NA,"computer","Desktop or Laptop","Windows 10","Chrome 114.0.0.0","1366x768","1366x657",NA,NA,NA,"Video Feedback Task",13,"NonAnxious",NA,"In",NA,NA,"BCADKEJFIGH","B","B",NA,NA,NA,1,1,NA,"","","",NA,"5","BEGIN",NA,NA,NA,NA,NA,NA,0,NA,NA,NA,NA,"","",NA,"","","","","",NA,"SUPTM45532"
"45",1688988946512,"10/07/2023 11:35:46",1688992546512,1,"10/07/2023 13:35:46",137495,33,"task-p9mv",NA,30591175,9082357,NA,"complete",NA,NA,"computer","Desktop or Laptop","Windows 10","Chrome 114.0.0.0","1366x768","1366x657",NA,NA,NA,"Video Feedback Task",13,"NonAnxious",NA,"In",NA,NA,"BCADKEJFIGH","B","B",NA,NA,NA,1,1,5,"Positive Feedback","Video","w2ir4b",1,"continue","",25962.3719999762,25946.339,25962.3719999762,25962.3719999762,25946.339,25962.3719999762,1,25962.3719999762,0,0,NA,"Click To Continue","Continue Button",1,"object-14","Positive Feedback","P4_P.mp4","Screenshot 2023-06-30 at 15.01.08.png","Screenshot 2023-06-30 at 15.02.01.png",NA,"SUPTM45532"
"46",1688988946519,"10/07/2023 11:35:46",1688992546519,1,"10/07/2023 13:35:46",137495,33,"task-p9mv",NA,30591175,9082357,NA,"complete",NA,NA,"computer","Desktop or Laptop","Windows 10","Chrome 114.0.0.0","1366x768","1366x657",NA,NA,NA,"Video Feedback Task",13,"NonAnxious",NA,"In",NA,NA,"BCADKEJFIGH","B","B",NA,NA,NA,1,1,5,"Positive Feedback","Video","w2ir4b",1,"response","Nice approach",14197.962,25946.339,25962.963,14197.962,25946.339,25962.963,1,14197.962,11765.001,0,NA,"Text Entry","Text Entry",4,"object-19","Positive Feedback","P4_P.mp4","Screenshot 2023-06-30 at 15.01.08.png","Screenshot 2023-06-30 at 15.02.01.png",NA,"SUPTM45532"
"47",1688988946520,"10/07/2023 11:35:46",1688992546520,1,"10/07/2023 13:35:46",137495,33,"task-p9mv",NA,30591175,9082357,NA,"complete",NA,NA,"computer","Desktop or Laptop","Windows 10","Chrome 114.0.0.0","1366x768","1366x657",NA,NA,NA,"Video Feedback Task",13,"NonAnxious",NA,"In",NA,NA,"BCADKEJFIGH","B","B",NA,NA,NA,1,1,5,"Positive Feedback","Video","w2ir4b",1,"response","Job well done",6149.081,25946.339,25962.963,6149.081,25946.339,25962.963,1,6149.081,19813.882,0,NA,"Text Entry","Text Entry",5,"object-20","Positive Feedback","P4_P.mp4","Screenshot 2023-06-30 at 15.01.08.png","Screenshot 2023-06-30 at 15.02.01.png",NA,"SUPTM45532"
"48",1688988947461,"10/07/2023 11:35:47",1688992547461,1,"10/07/2023 13:35:47",137495,33,"task-p9mv",NA,30591175,9082357,NA,"complete",NA,NA,"computer","Desktop or Laptop","Windows 10","Chrome 114.0.0.0","1366x768","1366x657",NA,NA,NA,"Video Feedback Task",13,"NonAnxious",NA,"In",NA,NA,"BCADKEJFIGH","B","B",NA,NA,NA,1,1,5,"Positive Feedback","Fixation","mtm832",2,"continue","",966.553,966.553,966.553,966.553,966.553,966.553,1,966.553,0,0,NA,"Fixation Timing","Fixation",1,"object-65","Positive Feedback","P4_P.mp4","Screenshot 2023-06-30 at 15.01.08.png","Screenshot 2023-06-30 at 15.02.01.png",NA,"SUPTM45532"
"49",1688988947473,"10/07/2023 11:35:47",1688992547473,1,"10/07/2023 13:35:47",137495,33,"task-p9mv",NA,30591175,9082357,NA,"complete",NA,NA,"computer","Desktop or Laptop","Windows 10","Chrome 114.0.0.0","1366x768","1366x657",NA,NA,NA,"Video Feedback Task",13,"NonAnxious",NA,"In",NA,NA,"BCADKEJFIGH","B","B",NA,NA,NA,1,1,NA,"","","",NA,"5","END",NA,NA,NA,NA,NA,NA,0,NA,NA,NA,NA,"","",NA,"","","","","",NA,"SUPTM45532"
"1",1688996293876,"10/07/2023 13:38:13",1688981893876,-4,"10/07/2023 05:38:13",137495,33,"task-p9mv",NA,30594626,9083342,NA,"complete",NA,NA,"computer","Desktop or Laptop","Windows 10","Chrome 114.0.0.0","1920x1080","1920x927",NA,NA,NA,"Video Feedback Task",13,"NonAnxious",NA,"In",NA,NA,"HIGJFKEADBC","B","B",NA,NA,NA,1,1,NA,"","","",NA,"5","BEGIN",NA,NA,NA,NA,NA,NA,0,NA,NA,NA,NA,"","",NA,"","","","","",NA,"SUPTM14619"
"2",1688998125503,"10/07/2023 14:08:45",1688983725503,-4,"10/07/2023 06:08:45",137495,33,"task-p9mv",NA,30594626,9083342,NA,"complete",NA,NA,"computer","Desktop or Laptop","Windows 10","Chrome 114.0.0.0","1920x1080","1920x927",NA,NA,NA,"Video Feedback Task",13,"NonAnxious",NA,"In",NA,NA,"HIGJFKEADBC","B","B",NA,NA,NA,1,1,NA,"","","",NA,"5","BEGIN",NA,NA,NA,NA,NA,NA,0,NA,NA,NA,NA,"","",NA,"","","","","",NA,"SUPTM14619"
"3",1688998445496,"10/07/2023 14:14:05",1688984045496,-4,"10/07/2023 06:14:05",137495,33,"task-p9mv",NA,30594626,9083342,NA,"complete",NA,NA,"computer","Desktop or Laptop","Windows 10","Chrome 114.0.0.0","1920x1080","1920x927",NA,NA,NA,"Video Feedback Task",13,"NonAnxious",NA,"In",NA,NA,"HIGJFKEADBC","B","B",NA,NA,NA,1,1,1,"Neutral Feedback","Screen 1","3zrml3",1,"continue","",319258.725,319247.036,319258.725,319258.725,319247.036,319258.725,1,319258.725,0,0,NA,"Click To Continue","Continue Button",1,"object-155","Neutral Feedback","P2_N.mp4","Screenshot 2023-06-30 at 15.01.08.png","Screenshot 2023-06-30 at 15.02.01.png",NA,"SUPTM14619"
"4",1688998445499,"10/07/2023 14:14:05",1688984045499,-4,"10/07/2023 06:14:05",137495,33,"task-p9mv",NA,30594626,9083342,NA,"complete",NA,NA,"computer","Desktop or Laptop","Windows 10","Chrome 114.0.0.0","1920x1080","1920x927",NA,NA,NA,"Video Feedback Task",13,"NonAnxious",NA,"In",NA,NA,"HIGJFKEADBC","B","B",NA,NA,NA,1,1,1,"Neutral Feedback","Screen 1","3zrml3",1,"response","People",316646.925,319247.036,319263.741,316646.925,319247.036,319263.741,1,316646.925,2616.81600000005,0,NA,"Text Entry","Text Entry",4,"object-158","Neutral Feedback","P2_N.mp4","Screenshot 2023-06-30 at 15.01.08.png","Screenshot 2023-06-30 at 15.02.01.png",NA,"SUPTM14619"
"5",1688998445499,"10/07/2023 14:14:05",1688984045499,-4,"10/07/2023 06:14:05",137495,33,"task-p9mv",NA,30594626,9083342,NA,"complete",NA,NA,"computer","Desktop or Laptop","Windows 10","Chrome 114.0.0.0","1920x1080","1920x927",NA,NA,NA,"Video Feedback Task",13,"NonAnxious",NA,"In",NA,NA,"HIGJFKEADBC","B","B",NA,NA,NA,1,1,1,"Neutral Feedback","Screen 1","3zrml3",1,"response","Friendship",257577.68,319247.036,319263.741,257577.68,319247.036,319263.741,1,257577.68,61686.061,0,NA,"Text Entry","Text Entry",5,"object-159","Neutral Feedback","P2_N.mp4","Screenshot 2023-06-30 at 15.01.08.png","Screenshot 2023-06-30 at 15.02.01.png",NA,"SUPTM14619"
"6",1688998446448,"10/07/2023 14:14:06",1688984046448,-4,"10/07/2023 06:14:06",137495,33,"task-p9mv",NA,30594626,9083342,NA,"complete",NA,NA,"computer","Desktop or Laptop","Windows 10","Chrome 114.0.0.0","1920x1080","1920x927",NA,NA,NA,"Video Feedback Task",13,"NonAnxious",NA,"In",NA,NA,"HIGJFKEADBC","B","B",NA,NA,NA,1,1,1,"Neutral Feedback","Screen 2","vv4mhq",2,"continue","",966.693999999959,966.693999999959,966.693999999959,966.693999999959,966.693999999959,966.693999999959,1,966.693999999959,0,0,NA,"Fixation Timing","Fixation",1,"object-153","Neutral Feedback","P2_N.mp4","Screenshot 2023-06-30 at 15.01.08.png","Screenshot 2023-06-30 at 15.02.01.png",NA,"SUPTM14619"
"7",1688999125362,"10/07/2023 14:25:25",1688984725362,-4,"10/07/2023 06:25:25",137495,33,"task-p9mv",NA,30594626,9083342,NA,"complete",NA,NA,"computer","Desktop or Laptop","Windows 10","Chrome 114.0.0.0","1920x1080","1920x927",NA,NA,NA,"Video Feedback Task",13,"NonAnxious",NA,"In",NA,NA,"HIGJFKEADBC","B","B",NA,NA,NA,1,1,1,"Positive Feedback","Video","w2ir4b",1,"continue","",678911.795,678895.676,678911.795,678911.795,678895.676,678911.795,1,678911.795,0,0,NA,"Click To Continue","Continue Button",1,"object-14","Positive Feedback","P5_P.mp4","Screenshot 2023-06-30 at 15.00.42.png","Screenshot 2023-06-30 at 15.00.55.png",NA,"SUPTM14619"
"8",1688999125366,"10/07/2023 14:25:25",1688984725366,-4,"10/07/2023 06:25:25",137495,33,"task-p9mv",NA,30594626,9083342,NA,"complete",NA,NA,"computer","Desktop or Laptop","Windows 10","Chrome 114.0.0.0","1920x1080","1920x927",NA,NA,NA,"Video Feedback Task",13,"NonAnxious",NA,"In",NA,NA,"HIGJFKEADBC","B","B",NA,NA,NA,1,1,1,"Positive Feedback","Video","w2ir4b",1,"response","Everything is in harmony and with good vibes.",678728.961,678895.676,678912.345,678728.961,678895.676,678912.345,1,678728.961,183.383999999962,0,NA,"Text Entry","Text Entry",4,"object-19","Positive Feedback","P5_P.mp4","Screenshot 2023-06-30 at 15.00.42.png","Screenshot 2023-06-30 at 15.00.55.png",NA,"SUPTM14619"
"9",1688999125367,"10/07/2023 14:25:25",1688984725367,-4,"10/07/2023 06:25:25",137495,33,"task-p9mv",NA,30594626,9083342,NA,"complete",NA,NA,"computer","Desktop or Laptop","Windows 10","Chrome 114.0.0.0","1920x1080","1920x927",NA,NA,NA,"Video Feedback Task",13,"NonAnxious",NA,"In",NA,NA,"HIGJFKEADBC","B","B",NA,NA,NA,1,1,1,"Positive Feedback","Video","w2ir4b",1,"response","People coming together who are in a very nice situation.",661161.592,678895.676,678912.345,661161.592,678895.676,678912.345,1,661161.592,17750.7529999999,0,NA,"Text Entry","Text Entry",5,"object-20","Positive Feedback","P5_P.mp4","Screenshot 2023-06-30 at 15.00.42.png","Screenshot 2023-06-30 at 15.00.55.png",NA,"SUPTM14619"
"10",1688999126310,"10/07/2023 14:25:26",1688984726310,-4,"10/07/2023 06:25:26",137495,33,"task-p9mv",NA,30594626,9083342,NA,"complete",NA,NA,"computer","Desktop or Laptop","Windows 10","Chrome 114.0.0.0","1920x1080","1920x927",NA,NA,NA,"Video Feedback Task",13,"NonAnxious",NA,"In",NA,NA,"HIGJFKEADBC","B","B",NA,NA,NA,1,1,1,"Positive Feedback","Fixation","mtm832",2,"continue","",966.698000000091,966.698000000091,966.698000000091,966.698000000091,966.698000000091,966.698000000091,1,966.698000000091,0,0,NA,"Fixation Timing","Fixation",1,"object-65","Positive Feedback","P5_P.mp4","Screenshot 2023-06-30 at 15.00.42.png","Screenshot 2023-06-30 at 15.00.55.png",NA,"SUPTM14619"
"11",1688999419705,"10/07/2023 14:30:19",1688985019705,-4,"10/07/2023 06:30:19",137495,33,"task-p9mv",NA,30594626,9083342,NA,"complete",NA,NA,"computer","Desktop or Laptop","Windows 10","Chrome 114.0.0.0","1920x1080","1920x927",NA,NA,NA,"Video Feedback Task",13,"NonAnxious",NA,"In",NA,NA,"HIGJFKEADBC","B","B",NA,NA,NA,1,1,2,"Positive Feedback","Video","w2ir4b",1,"continue","",293394.421,293379.154,293394.421,293394.421,293379.154,293394.421,1,293394.421,0,0,NA,"Click To Continue","Continue Button",1,"object-14","Positive Feedback","P2_P.mp4","Screenshot 2023-06-30 at 15.01.08.png","Screenshot 2023-06-30 at 15.02.01.png",NA,"SUPTM14619"
"12",1688999419707,"10/07/2023 14:30:19",1688985019707,-4,"10/07/2023 06:30:19",137495,33,"task-p9mv",NA,30594626,9083342,NA,"complete",NA,NA,"computer","Desktop or Laptop","Windows 10","Chrome 114.0.0.0","1920x1080","1920x927",NA,NA,NA,"Video Feedback Task",13,"NonAnxious",NA,"In",NA,NA,"HIGJFKEADBC","B","B",NA,NA,NA,1,1,2,"Positive Feedback","Video","w2ir4b",1,"response","They are watching something they really like.",293079.126,293379.154,293395.805,293079.126,293379.154,293395.805,1,293079.126,316.678999999771,0,NA,"Text Entry","Text Entry",4,"object-19","Positive Feedback","P2_P.mp4","Screenshot 2023-06-30 at 15.01.08.png","Screenshot 2023-06-30 at 15.02.01.png",NA,"SUPTM14619"
"13",1688999419707,"10/07/2023 14:30:19",1688985019707,-4,"10/07/2023 06:30:19",137495,33,"task-p9mv",NA,30594626,9083342,NA,"complete",NA,NA,"computer","Desktop or Laptop","Windows 10","Chrome 114.0.0.0","1920x1080","1920x927",NA,NA,NA,"Video Feedback Task",13,"NonAnxious",NA,"In",NA,NA,"HIGJFKEADBC","B","B",NA,NA,NA,1,1,2,"Positive Feedback","Video","w2ir4b",1,"response","people are very excited.",206125.492,293379.154,293395.805,206125.492,293379.154,293395.805,1,206125.492,87270.3129999998,0,NA,"Text Entry","Text Entry",5,"object-20","Positive Feedback","P2_P.mp4","Screenshot 2023-06-30 at 15.01.08.png","Screenshot 2023-06-30 at 15.02.01.png",NA,"SUPTM14619"
"14",1688999420657,"10/07/2023 14:30:20",1688985020657,-4,"10/07/2023 06:30:20",137495,33,"task-p9mv",NA,30594626,9083342,NA,"complete",NA,NA,"computer","Desktop or Laptop","Windows 10","Chrome 114.0.0.0","1920x1080","1920x927",NA,NA,NA,"Video Feedback Task",13,"NonAnxious",NA,"In",NA,NA,"HIGJFKEADBC","B","B",NA,NA,NA,1,1,2,"Positive Feedback","Fixation","mtm832",2,"continue","",966.756000000052,966.756000000052,966.756000000052,966.756000000052,966.756000000052,966.756000000052,1,966.756000000052,0,0,NA,"Fixation Timing","Fixation",1,"object-65","Positive Feedback","P2_P.mp4","Screenshot 2023-06-30 at 15.01.08.png","Screenshot 2023-06-30 at 15.02.01.png",NA,"SUPTM14619"
"15",1688999627816,"10/07/2023 14:33:47",1688985227816,-4,"10/07/2023 06:33:47",137495,33,"task-p9mv",NA,30594626,9083342,NA,"complete",NA,NA,"computer","Desktop or Laptop","Windows 10","Chrome 114.0.0.0","1920x1080","1920x927",NA,NA,NA,"Video Feedback Task",13,"NonAnxious",NA,"In",NA,NA,"HIGJFKEADBC","B","B",NA,NA,NA,1,1,2,"Neutral Feedback","Screen 1","3zrml3",1,"continue","",207160.411,207158.786,207160.411,207160.411,207158.786,207160.411,1,207160.411,0,0,NA,"Click To Continue","Continue Button",1,"object-155","Neutral Feedback","P3_N.mp4","Screenshot 2023-06-30 at 15.01.08.png","Screenshot 2023-06-30 at 15.00.55.png",NA,"SUPTM14619"
"16",1688999627819,"10/07/2023 14:33:47",1688985227819,-4,"10/07/2023 06:33:47",137495,33,"task-p9mv",NA,30594626,9083342,NA,"complete",NA,NA,"computer","Desktop or Laptop","Windows 10","Chrome 114.0.0.0","1920x1080","1920x927",NA,NA,NA,"Video Feedback Task",13,"NonAnxious",NA,"In",NA,NA,"HIGJFKEADBC","B","B",NA,NA,NA,1,1,2,"Neutral Feedback","Screen 1","3zrml3",1,"response","many people tasting food..",155289.966,207158.786,207162.611,155289.966,207158.786,207162.611,1,155289.966,51872.645,0,NA,"Text Entry","Text Entry",4,"object-158","Neutral Feedback","P3_N.mp4","Screenshot 2023-06-30 at 15.01.08.png","Screenshot 2023-06-30 at 15.00.55.png",NA,"SUPTM14619"
"17",1688999627819,"10/07/2023 14:33:47",1688985227819,-4,"10/07/2023 06:33:47",137495,33,"task-p9mv",NA,30594626,9083342,NA,"complete",NA,NA,"computer","Desktop or Laptop","Windows 10","Chrome 114.0.0.0","1920x1080","1920x927",NA,NA,NA,"Video Feedback Task",13,"NonAnxious",NA,"In",NA,NA,"HIGJFKEADBC","B","B",NA,NA,NA,1,1,2,"Neutral Feedback","Screen 1","3zrml3",1,"response","just people eating.",125805.381,207158.786,207163.011,125805.381,207158.786,207163.011,1,125805.381,81357.6299999999,0,NA,"Text Entry","Text Entry",5,"object-159","Neutral Feedback","P3_N.mp4","Screenshot 2023-06-30 at 15.01.08.png","Screenshot 2023-06-30 at 15.00.55.png",NA,"SUPTM14619"
"18",1688999628782,"10/07/2023 14:33:48",1688985228782,-4,"10/07/2023 06:33:48",137495,33,"task-p9mv",NA,30594626,9083342,NA,"complete",NA,NA,"computer","Desktop or Laptop","Windows 10","Chrome 114.0.0.0","1920x1080","1920x927",NA,NA,NA,"Video Feedback Task",13,"NonAnxious",NA,"In",NA,NA,"HIGJFKEADBC","B","B",NA,NA,NA,1,1,2,"Neutral Feedback","Screen 2","vv4mhq",2,"continue","",966.749000000069,966.749000000069,966.749000000069,966.749000000069,966.749000000069,966.749000000069,1,966.749000000069,0,0,NA,"Fixation Timing","Fixation",1,"object-153","Neutral Feedback","P3_N.mp4","Screenshot 2023-06-30 at 15.01.08.png","Screenshot 2023-06-30 at 15.00.55.png",NA,"SUPTM14619"
"19",1688999858714,"10/07/2023 14:37:38",1688985458714,-4,"10/07/2023 06:37:38",137495,33,"task-p9mv",NA,30594626,9083342,NA,"complete",NA,NA,"computer","Desktop or Laptop","Windows 10","Chrome 114.0.0.0","1920x1080","1920x927",NA,NA,NA,"Video Feedback Task",13,"NonAnxious",NA,"In",NA,NA,"HIGJFKEADBC","B","B",NA,NA,NA,1,1,3,"Positive Feedback","Video","w2ir4b",1,"continue","",229933.076,229926.465,229933.076,229933.076,229926.465,229933.076,1,229933.076,0,0,NA,"Click To Continue","Continue Button",1,"object-14","Positive Feedback","P1_P.mp4","Screenshot 2023-06-30 at 15.00.42.png","Screenshot 2023-06-30 at 15.02.01.png",NA,"SUPTM14619"
"20",1688999858716,"10/07/2023 14:37:38",1688985458716,-4,"10/07/2023 06:37:38",137495,33,"task-p9mv",NA,30594626,9083342,NA,"complete",NA,NA,"computer","Desktop or Laptop","Windows 10","Chrome 114.0.0.0","1920x1080","1920x927",NA,NA,NA,"Video Feedback Task",13,"NonAnxious",NA,"In",NA,NA,"HIGJFKEADBC","B","B",NA,NA,NA,1,1,3,"Positive Feedback","Video","w2ir4b",1,"response","Everyone speaks in a very kind and friendly manner.",229376.385,229926.465,229934.776,229376.385,229926.465,229934.776,1,229376.385,558.390999999829,0,NA,"Text Entry","Text Entry",4,"object-19","Positive Feedback","P1_P.mp4","Screenshot 2023-06-30 at 15.00.42.png","Screenshot 2023-06-30 at 15.02.01.png",NA,"SUPTM14619"
"21",1688999858716,"10/07/2023 14:37:38",1688985458716,-4,"10/07/2023 06:37:38",137495,33,"task-p9mv",NA,30594626,9083342,NA,"complete",NA,NA,"computer","Desktop or Laptop","Windows 10","Chrome 114.0.0.0","1920x1080","1920x927",NA,NA,NA,"Video Feedback Task",13,"NonAnxious",NA,"In",NA,NA,"HIGJFKEADBC","B","B",NA,NA,NA,1,1,3,"Positive Feedback","Video","w2ir4b",1,"response","People inside a room talking among friends.",203875.367,229926.465,229935.076,203875.367,229926.465,229935.076,1,203875.367,26059.709,0,NA,"Text Entry","Text Entry",5,"object-20","Positive Feedback","P1_P.mp4","Screenshot 2023-06-30 at 15.00.42.png","Screenshot 2023-06-30 at 15.02.01.png",NA,"SUPTM14619"
"22",1688999859674,"10/07/2023 14:37:39",1688985459674,-4,"10/07/2023 06:37:39",137495,33,"task-p9mv",NA,30594626,9083342,NA,"complete",NA,NA,"computer","Desktop or Laptop","Windows 10","Chrome 114.0.0.0","1920x1080","1920x927",NA,NA,NA,"Video Feedback Task",13,"NonAnxious",NA,"In",NA,NA,"HIGJFKEADBC","B","B",NA,NA,NA,1,1,3,"Positive Feedback","Fixation","mtm832",2,"continue","",966.709999999963,966.709999999963,966.709999999963,966.709999999963,966.709999999963,966.709999999963,1,966.709999999963,0,0,NA,"Fixation Timing","Fixation",1,"object-65","Positive Feedback","P1_P.mp4","Screenshot 2023-06-30 at 15.00.42.png","Screenshot 2023-06-30 at 15.02.01.png",NA,"SUPTM14619"
"23",1689000062239,"10/07/2023 14:41:02",1688985662239,-4,"10/07/2023 06:41:02",137495,33,"task-p9mv",NA,30594626,9083342,NA,"complete",NA,NA,"computer","Desktop or Laptop","Windows 10","Chrome 114.0.0.0","1920x1080","1920x927",NA,NA,NA,"Video Feedback Task",13,"NonAnxious",NA,"In",NA,NA,"HIGJFKEADBC","B","B",NA,NA,NA,1,1,3,"Neutral Feedback","Screen 1","3zrml3",1,"continue","",202564.401,202558.674,202564.401,202564.401,202558.674,202564.401,1,202564.401,0,0,NA,"Click To Continue","Continue Button",1,"object-155","Neutral Feedback","P4_N.mp4","Screenshot 2023-06-30 at 15.00.42.png","Screenshot 2023-06-30 at 15.00.55.png",NA,"SUPTM14619"
"24",1689000062241,"10/07/2023 14:41:02",1688985662241,-4,"10/07/2023 06:41:02",137495,33,"task-p9mv",NA,30594626,9083342,NA,"complete",NA,NA,"computer","Desktop or Laptop","Windows 10","Chrome 114.0.0.0","1920x1080","1920x927",NA,NA,NA,"Video Feedback Task",13,"NonAnxious",NA,"In",NA,NA,"HIGJFKEADBC","B","B",NA,NA,NA,1,1,3,"Neutral Feedback","Screen 1","3zrml3",1,"response","In a place with lighting...",202191.917,202558.674,202566.301,202191.917,202558.674,202566.301,1,202191.917,374.383999999845,0,NA,"Text Entry","Text Entry",4,"object-158","Neutral Feedback","P4_N.mp4","Screenshot 2023-06-30 at 15.00.42.png","Screenshot 2023-06-30 at 15.00.55.png",NA,"SUPTM14619"
"25",1689000062241,"10/07/2023 14:41:02",1688985662241,-4,"10/07/2023 06:41:02",137495,33,"task-p9mv",NA,30594626,9083342,NA,"complete",NA,NA,"computer","Desktop or Laptop","Windows 10","Chrome 114.0.0.0","1920x1080","1920x927",NA,NA,NA,"Video Feedback Task",13,"NonAnxious",NA,"In",NA,NA,"HIGJFKEADBC","B","B",NA,NA,NA,1,1,3,"Neutral Feedback","Screen 1","3zrml3",1,"response","people doing things together.
",199391.786,202558.674,202566.501,199391.786,202558.674,202566.501,1,199391.786,3174.71500000008,0,NA,"Text Entry","Text Entry",5,"object-159","Neutral Feedback","P4_N.mp4","Screenshot 2023-06-30 at 15.00.42.png","Screenshot 2023-06-30 at 15.00.55.png",NA,"SUPTM14619"
"26",1689000063200,"10/07/2023 14:41:03",1688985663200,-4,"10/07/2023 06:41:03",137495,33,"task-p9mv",NA,30594626,9083342,NA,"complete",NA,NA,"computer","Desktop or Laptop","Windows 10","Chrome 114.0.0.0","1920x1080","1920x927",NA,NA,NA,"Video Feedback Task",13,"NonAnxious",NA,"In",NA,NA,"HIGJFKEADBC","B","B",NA,NA,NA,1,1,3,"Neutral Feedback","Screen 2","vv4mhq",2,"continue","",966.663999999873,966.663999999873,966.663999999873,966.663999999873,966.663999999873,966.663999999873,1,966.663999999873,0,0,NA,"Fixation Timing","Fixation",1,"object-153","Neutral Feedback","P4_N.mp4","Screenshot 2023-06-30 at 15.00.42.png","Screenshot 2023-06-30 at 15.00.55.png",NA,"SUPTM14619"
"27",1689000155961,"10/07/2023 14:42:35",1688985755961,-4,"10/07/2023 06:42:35",137495,33,"task-p9mv",NA,30594626,9083342,NA,"complete",NA,NA,"computer","Desktop or Laptop","Windows 10","Chrome 114.0.0.0","1920x1080","1920x927",NA,NA,NA,"Video Feedback Task",13,"NonAnxious",NA,"In",NA,NA,"HIGJFKEADBC","B","B",NA,NA,NA,1,1,4,"Positive Feedback","Video","w2ir4b",1,"continue","",92761.0630000001,92753.966,92761.0630000001,92761.0630000001,92753.966,92761.0630000001,1,92761.0630000001,0,0,NA,"Click To Continue","Continue Button",1,"object-14","Positive Feedback","P3_P.mp4","Screenshot 2023-06-30 at 15.00.42.png","Screenshot 2023-06-30 at 15.02.01.png",NA,"SUPTM14619"
"28",1689000155963,"10/07/2023 14:42:35",1688985755963,-4,"10/07/2023 06:42:35",137495,33,"task-p9mv",NA,30594626,9083342,NA,"complete",NA,NA,"computer","Desktop or Laptop","Windows 10","Chrome 114.0.0.0","1920x1080","1920x927",NA,NA,NA,"Video Feedback Task",13,"NonAnxious",NA,"In",NA,NA,"HIGJFKEADBC","B","B",NA,NA,NA,1,1,4,"Positive Feedback","Video","w2ir4b",1,"response","Around a table on Christmas Eve.",60635.996,92753.966,92762.6630000002,60635.996,92753.966,92762.6630000002,1,60635.996,32126.6670000001,0,NA,"Text Entry","Text Entry",4,"object-19","Positive Feedback","P3_P.mp4","Screenshot 2023-06-30 at 15.00.42.png","Screenshot 2023-06-30 at 15.02.01.png",NA,"SUPTM14619"
"29",1689000155963,"10/07/2023 14:42:35",1688985755963,-4,"10/07/2023 06:42:35",137495,33,"task-p9mv",NA,30594626,9083342,NA,"complete",NA,NA,"computer","Desktop or Laptop","Windows 10","Chrome 114.0.0.0","1920x1080","1920x927",NA,NA,NA,"Video Feedback Task",13,"NonAnxious",NA,"In",NA,NA,"HIGJFKEADBC","B","B",NA,NA,NA,1,1,4,"Positive Feedback","Video","w2ir4b",1,"response","A very happy family around a christmas tree.",44201.9070000001,92753.966,92762.963,44201.9070000001,92753.966,92762.963,1,44201.9070000001,48561.0559999999,0,NA,"Text Entry","Text Entry",5,"object-20","Positive Feedback","P3_P.mp4","Screenshot 2023-06-30 at 15.00.42.png","Screenshot 2023-06-30 at 15.02.01.png",NA,"SUPTM14619"
"30",1689000156921,"10/07/2023 14:42:36",1688985756921,-4,"10/07/2023 06:42:36",137495,33,"task-p9mv",NA,30594626,9083342,NA,"complete",NA,NA,"computer","Desktop or Laptop","Windows 10","Chrome 114.0.0.0","1920x1080","1920x927",NA,NA,NA,"Video Feedback Task",13,"NonAnxious",NA,"In",NA,NA,"HIGJFKEADBC","B","B",NA,NA,NA,1,1,4,"Positive Feedback","Fixation","mtm832",2,"continue","",966.705000000075,966.705000000075,966.705000000075,966.705000000075,966.705000000075,966.705000000075,1,966.705000000075,0,0,NA,"Fixation Timing","Fixation",1,"object-65","Positive Feedback","P3_P.mp4","Screenshot 2023-06-30 at 15.00.42.png","Screenshot 2023-06-30 at 15.02.01.png",NA,"SUPTM14619"
"31",1689000298929,"10/07/2023 14:44:58",1688985898929,-4,"10/07/2023 06:44:58",137495,33,"task-p9mv",NA,30594626,9083342,NA,"complete",NA,NA,"computer","Desktop or Laptop","Windows 10","Chrome 114.0.0.0","1920x1080","1920x927",NA,NA,NA,"Video Feedback Task",13,"NonAnxious",NA,"In",NA,NA,"HIGJFKEADBC","B","B",NA,NA,NA,1,1,4,"Neutral Feedback","Screen 1","3zrml3",1,"continue","",142008.192,142005.982,142008.192,142008.192,142005.982,142008.192,1,142008.192,0,0,NA,"Click To Continue","Continue Button",1,"object-155","Neutral Feedback","P5_N.mp4","Screenshot 2023-06-30 at 15.00.42.png","Screenshot 2023-06-30 at 15.00.55.png",NA,"SUPTM14619"
"32",1689000298930,"10/07/2023 14:44:58",1688985898930,-4,"10/07/2023 06:44:58",137495,33,"task-p9mv",NA,30594626,9083342,NA,"complete",NA,NA,"computer","Desktop or Laptop","Windows 10","Chrome 114.0.0.0","1920x1080","1920x927",NA,NA,NA,"Video Feedback Task",13,"NonAnxious",NA,"In",NA,NA,"HIGJFKEADBC","B","B",NA,NA,NA,1,1,4,"Neutral Feedback","Screen 1","3zrml3",1,"response","talking about things in life.",140472.649,142005.982,142009.892,140472.649,142005.982,142009.892,1,140472.649,1537.24299999978,0,NA,"Text Entry","Text Entry",4,"object-158","Neutral Feedback","P5_N.mp4","Screenshot 2023-06-30 at 15.00.42.png","Screenshot 2023-06-30 at 15.00.55.png",NA,"SUPTM14619"
"33",1689000298931,"10/07/2023 14:44:58",1688985898931,-4,"10/07/2023 06:44:58",137495,33,"task-p9mv",NA,30594626,9083342,NA,"complete",NA,NA,"computer","Desktop or Laptop","Windows 10","Chrome 114.0.0.0","1920x1080","1920x927",NA,NA,NA,"Video Feedback Task",13,"NonAnxious",NA,"In",NA,NA,"HIGJFKEADBC","B","B",NA,NA,NA,1,1,4,"Neutral Feedback","Screen 1","3zrml3",1,"response","A meeting among friends.",125288.612,142005.982,142009.992,125288.612,142005.982,142009.992,1,125288.612,16721.3799999999,0,NA,"Text Entry","Text Entry",5,"object-159","Neutral Feedback","P5_N.mp4","Screenshot 2023-06-30 at 15.00.42.png","Screenshot 2023-06-30 at 15.00.55.png",NA,"SUPTM14619"
"34",1689000299894,"10/07/2023 14:44:59",1688985899894,-4,"10/07/2023 06:44:59",137495,33,"task-p9mv",NA,30594626,9083342,NA,"complete",NA,NA,"computer","Desktop or Laptop","Windows 10","Chrome 114.0.0.0","1920x1080","1920x927",NA,NA,NA,"Video Feedback Task",13,"NonAnxious",NA,"In",NA,NA,"HIGJFKEADBC","B","B",NA,NA,NA,1,1,4,"Neutral Feedback","Screen 2","vv4mhq",2,"continue","",966.742000000086,966.742000000086,966.742000000086,966.742000000086,966.742000000086,966.742000000086,1,966.742000000086,0,0,NA,"Fixation Timing","Fixation",1,"object-153","Neutral Feedback","P5_N.mp4","Screenshot 2023-06-30 at 15.00.42.png","Screenshot 2023-06-30 at 15.00.55.png",NA,"SUPTM14619"
"35",1689000423347,"10/07/2023 14:47:03",1688986023347,-4,"10/07/2023 06:47:03",137495,33,"task-p9mv",NA,30594626,9083342,NA,"complete",NA,NA,"computer","Desktop or Laptop","Windows 10","Chrome 114.0.0.0","1920x1080","1920x927",NA,NA,NA,"Video Feedback Task",13,"NonAnxious",NA,"In",NA,NA,"HIGJFKEADBC","B","B",NA,NA,NA,1,1,5,"Neutral Feedback","Screen 1","3zrml3",1,"continue","",123453.768,123438.624,123453.768,123453.768,123438.624,123453.768,1,123453.768,0,0,NA,"Click To Continue","Continue Button",1,"object-155","Neutral Feedback","P1_N.mp4","Screenshot 2023-06-30 at 15.01.08.png","Screenshot 2023-06-30 at 15.02.01.png",NA,"SUPTM14619"
"36",1689000423349,"10/07/2023 14:47:03",1688986023349,-4,"10/07/2023 06:47:03",137495,33,"task-p9mv",NA,30594626,9083342,NA,"complete",NA,NA,"computer","Desktop or Laptop","Windows 10","Chrome 114.0.0.0","1920x1080","1920x927",NA,NA,NA,"Video Feedback Task",13,"NonAnxious",NA,"In",NA,NA,"HIGJFKEADBC","B","B",NA,NA,NA,1,1,5,"Neutral Feedback","Screen 1","3zrml3",1,"response","they are looking at something that keeps them entertained.",122921.871,123438.624,123455.277,122921.871,123438.624,123455.277,1,122921.871,533.405999999493,0,NA,"Text Entry","Text Entry",4,"object-158","Neutral Feedback","P1_N.mp4","Screenshot 2023-06-30 at 15.01.08.png","Screenshot 2023-06-30 at 15.02.01.png",NA,"SUPTM14619"
"37",1689000423350,"10/07/2023 14:47:03",1688986023350,-4,"10/07/2023 06:47:03",137495,33,"task-p9mv",NA,30594626,9083342,NA,"complete",NA,NA,"computer","Desktop or Laptop","Windows 10","Chrome 114.0.0.0","1920x1080","1920x927",NA,NA,NA,"Video Feedback Task",13,"NonAnxious",NA,"In",NA,NA,"HIGJFKEADBC","B","B",NA,NA,NA,1,1,5,"Neutral Feedback","Screen 1","3zrml3",1,"response","people talking together.",74719.8859999999,123438.624,123455.277,74719.8859999999,123438.624,123455.277,1,74719.8859999999,48735.3909999998,0,NA,"Text Entry","Text Entry",5,"object-159","Neutral Feedback","P1_N.mp4","Screenshot 2023-06-30 at 15.01.08.png","Screenshot 2023-06-30 at 15.02.01.png",NA,"SUPTM14619"
"38",1689000424299,"10/07/2023 14:47:04",1688986024299,-4,"10/07/2023 06:47:04",137495,33,"task-p9mv",NA,30594626,9083342,NA,"complete",NA,NA,"computer","Desktop or Laptop","Windows 10","Chrome 114.0.0.0","1920x1080","1920x927",NA,NA,NA,"Video Feedback Task",13,"NonAnxious",NA,"In",NA,NA,"HIGJFKEADBC","B","B",NA,NA,NA,1,1,5,"Neutral Feedback","Screen 2","vv4mhq",2,"continue","",966.69000000041,966.69000000041,966.69000000041,966.69000000041,966.69000000041,966.69000000041,1,966.69000000041,0,0,NA,"Fixation Timing","Fixation",1,"object-153","Neutral Feedback","P1_N.mp4","Screenshot 2023-06-30 at 15.01.08.png","Screenshot 2023-06-30 at 15.02.01.png",NA,"SUPTM14619"
"39",1689000583682,"10/07/2023 14:49:43",1688986183682,-4,"10/07/2023 06:49:43",137495,33,"task-p9mv",NA,30594626,9083342,NA,"complete",NA,NA,"computer","Desktop or Laptop","Windows 10","Chrome 114.0.0.0","1920x1080","1920x927",NA,NA,NA,"Video Feedback Task",13,"NonAnxious",NA,"In",NA,NA,"HIGJFKEADBC","B","B",NA,NA,NA,1,1,5,"Positive Feedback","Video","w2ir4b",1,"continue","",159382.754,159373.469,159382.754,159382.754,159373.469,159382.754,1,159382.754,0,0,NA,"Click To Continue","Continue Button",1,"object-14","Positive Feedback","P4_P.mp4","Screenshot 2023-06-30 at 15.01.08.png","Screenshot 2023-06-30 at 15.00.55.png",NA,"SUPTM14619"
"40",1689000583683,"10/07/2023 14:49:43",1688986183683,-4,"10/07/2023 06:49:43",137495,33,"task-p9mv",NA,30594626,9083342,NA,"complete",NA,NA,"computer","Desktop or Laptop","Windows 10","Chrome 114.0.0.0","1920x1080","1920x927",NA,NA,NA,"Video Feedback Task",13,"NonAnxious",NA,"In",NA,NA,"HIGJFKEADBC","B","B",NA,NA,NA,1,1,5,"Positive Feedback","Video","w2ir4b",1,"response","They enjoy the company of friends.",158806.786,159373.469,159384.354,158806.786,159373.469,159384.354,1,158806.786,577.56799999997,0,NA,"Text Entry","Text Entry",4,"object-19","Positive Feedback","P4_P.mp4","Screenshot 2023-06-30 at 15.01.08.png","Screenshot 2023-06-30 at 15.00.55.png",NA,"SUPTM14619"
"41",1689000583683,"10/07/2023 14:49:43",1688986183683,-4,"10/07/2023 06:49:43",137495,33,"task-p9mv",NA,30594626,9083342,NA,"complete",NA,NA,"computer","Desktop or Laptop","Windows 10","Chrome 114.0.0.0","1920x1080","1920x927",NA,NA,NA,"Video Feedback Task",13,"NonAnxious",NA,"In",NA,NA,"HIGJFKEADBC","B","B",NA,NA,NA,1,1,5,"Positive Feedback","Video","w2ir4b",1,"response","6 people inside an office talking like good friends.",116121.618,159373.469,159384.554,116121.618,159373.469,159384.554,1,116121.618,43262.9359999998,0,NA,"Text Entry","Text Entry",5,"object-20","Positive Feedback","P4_P.mp4","Screenshot 2023-06-30 at 15.01.08.png","Screenshot 2023-06-30 at 15.00.55.png",NA,"SUPTM14619"
"42",1689000584639,"10/07/2023 14:49:44",1688986184639,-4,"10/07/2023 06:49:44",137495,33,"task-p9mv",NA,30594626,9083342,NA,"complete",NA,NA,"computer","Desktop or Laptop","Windows 10","Chrome 114.0.0.0","1920x1080","1920x927",NA,NA,NA,"Video Feedback Task",13,"NonAnxious",NA,"In",NA,NA,"HIGJFKEADBC","B","B",NA,NA,NA,1,1,5,"Positive Feedback","Fixation","mtm832",2,"continue","",966.685999999754,966.685999999754,966.685999999754,966.685999999754,966.685999999754,966.685999999754,1,966.685999999754,0,0,NA,"Fixation Timing","Fixation",1,"object-65","Positive Feedback","P4_P.mp4","Screenshot 2023-06-30 at 15.01.08.png","Screenshot 2023-06-30 at 15.00.55.png",NA,"SUPTM14619"
"43",1689000584641,"10/07/2023 14:49:44",1688986184641,-4,"10/07/2023 06:49:44",137495,33,"task-p9mv",NA,30594626,9083342,NA,"complete",NA,NA,"computer","Desktop or Laptop","Windows 10","Chrome 114.0.0.0","1920x1080","1920x927",NA,NA,NA,"Video Feedback Task",13,"NonAnxious",NA,"In",NA,NA,"HIGJFKEADBC","B","B",NA,NA,NA,1,1,NA,"","","",NA,"5","END",NA,NA,NA,NA,NA,NA,0,NA,NA,NA,NA,"","",NA,"","","","","",NA,"SUPTM14619"
