"Event.Index","UTC.Timestamp","UTC.Date.and.Time","Local.Timestamp","Local.Timezone","Local.Date.and.Time","Experiment.ID","Experiment.Version","Tree.Node.Key","Repeat.Key","Schedule.ID","Participant.Private.ID","Participant.Starting.Group","Participant.Status","Participant.Completion.Code","Participant.External.Session.ID","Participant.Device.Type","Participant.Device","Participant.OS","Participant.Browser","Participant.Monitor.Size","Participant.Viewport.Size","Checkpoint","Room.ID","Room.Order","Task.Name","Task.Version","order.ot79","branch.g31k","branch.5gtn","Spreadsheet","Trial.Number","Display","Screen","Screen.ID","Screen.Counter","Response.Type","Response","Onset.Time","Clock.Time","Reaction.Time","Absolute.Onset.Time","Absolute.Clock.Time","Absolute.Reaction.Time","Correct","Response.Onset","Response.Duration","Proportion","Tag","Component.Name","Object.Name","Object.Number","Object.ID","Spreadsheet..display","Manipulation..Spreadsheet","Random_ID"
"1",1697545666335,"17/10/2023 12:27:46",1697549266335,1,"17/10/2023 14:27:46",147682,3,"task-gjqt",NA,32290856,9549837,NA,"complete",NA,NA,"computer","Desktop or Laptop","Mac OS 10.15.7","Chrome 116.0.0.0","1440x900","1440x815",NA,NA,0,"BIQ (Charlotte)",3,"CDBEAFJGIH","Passed AC2",NA,"Spreadsheet1",NA,"","","",NA,"5","BEGIN",NA,NA,NA,NA,NA,NA,0,NA,NA,NA,NA,"","",NA,"","",NA,"SUPPRF43420"
"2",1697545683115,"17/10/2023 12:28:03",1697549283115,1,"17/10/2023 14:28:03",147682,3,"task-gjqt",NA,32290856,9549837,NA,"complete",NA,NA,"computer","Desktop or Laptop","Mac OS 10.15.7","Chrome 116.0.0.0","1440x900","1440x815",NA,NA,0,"BIQ (Charlotte)",3,"CDBEAFJGIH","Passed AC2",NA,"Spreadsheet1",1,"BIQ","Screen 1","9dh6eq",1,"continue","",16809.386,16800.414,16809.386,16809.386,16800.414,16809.386,1,16809.386,0,0,NA,"Click To Continue","Continue Button",23,"object-48","BIQ",NA,"SUPPRF43420"
"3",1697545683117,"17/10/2023 12:28:03",1697549283117,1,"17/10/2023 14:28:03",147682,3,"task-gjqt",NA,32290856,9549837,NA,"complete",NA,NA,"computer","Desktop or Laptop","Mac OS 10.15.7","Chrome 116.0.0.0","1440x900","1440x815",NA,NA,0,"BIQ (Charlotte)",3,"CDBEAFJGIH","Passed AC2",NA,"Spreadsheet1",1,"BIQ","Screen 1","9dh6eq",1,"response","3",8233.326,16800.414,16811.6860000715,8233.326,16800.414,16811.6860000715,1,8233.326,8578.36000007152,0,NA,"Rating Scale","Rating Scale",3,"object-5","BIQ",NA,"SUPPRF43420"
"4",1697545683117,"17/10/2023 12:28:03",1697549283117,1,"17/10/2023 14:28:03",147682,3,"task-gjqt",NA,32290856,9549837,NA,"complete",NA,NA,"computer","Desktop or Laptop","Mac OS 10.15.7","Chrome 116.0.0.0","1440x900","1440x815",NA,NA,0,"BIQ (Charlotte)",3,"CDBEAFJGIH","Passed AC2",NA,"Spreadsheet1",1,"BIQ","Screen 1","9dh6eq",1,"response","6",13283.124,16800.414,16811.886,13283.124,16800.414,16811.886,1,13283.124,3528.762,0,NA,"Rating Scale","Rating Scale",10,"object-18","BIQ",NA,"SUPPRF43420"
"5",1697545683118,"17/10/2023 12:28:03",1697549283118,1,"17/10/2023 14:28:03",147682,3,"task-gjqt",NA,32290856,9549837,NA,"complete",NA,NA,"computer","Desktop or Laptop","Mac OS 10.15.7","Chrome 116.0.0.0","1440x900","1440x815",NA,NA,0,"BIQ (Charlotte)",3,"CDBEAFJGIH","Passed AC2",NA,"Spreadsheet1",1,"BIQ","Screen 1","9dh6eq",1,"response","4",14733.83,16800.414,16812.0860000477,14733.83,16800.414,16812.0860000477,1,14733.83,2078.25600004768,0,NA,"Rating Scale","Rating Scale",17,"object-80","BIQ",NA,"SUPPRF43420"
"6",1697545701947,"17/10/2023 12:28:21",1697549301947,1,"17/10/2023 14:28:21",147682,3,"task-gjqt",NA,32290856,9549837,NA,"complete",NA,NA,"computer","Desktop or Laptop","Mac OS 10.15.7","Chrome 116.0.0.0","1440x900","1440x815",NA,NA,0,"BIQ (Charlotte)",3,"CDBEAFJGIH","Passed AC2",NA,"Spreadsheet1",1,"BIQ","Screen 2","o21mwi",2,"continue","",18841.2720000715,18833.679,18841.2720000715,18841.2720000715,18833.679,18841.2720000715,1,18841.2720000715,0,0,NA,"Click To Continue","Continue Button",22,"object-50","BIQ",NA,"SUPPRF43420"
"7",1697545701950,"17/10/2023 12:28:21",1697549301950,1,"17/10/2023 14:28:21",147682,3,"task-gjqt",NA,32290856,9549837,NA,"complete",NA,NA,"computer","Desktop or Laptop","Mac OS 10.15.7","Chrome 116.0.0.0","1440x900","1440x815",NA,NA,0,"BIQ (Charlotte)",3,"CDBEAFJGIH","Passed AC2",NA,"Spreadsheet1",1,"BIQ","Screen 2","o21mwi",2,"response","4",7216.378,18833.679,18844.472,7216.378,18833.679,18844.472,1,7216.378,11628.094,0,NA,"Rating Scale","Rating Scale",2,"object-259","BIQ",NA,"SUPPRF43420"
"8",1697545701951,"17/10/2023 12:28:21",1697549301951,1,"17/10/2023 14:28:21",147682,3,"task-gjqt",NA,32290856,9549837,NA,"complete",NA,NA,"computer","Desktop or Laptop","Mac OS 10.15.7","Chrome 116.0.0.0","1440x900","1440x815",NA,NA,0,"BIQ (Charlotte)",3,"CDBEAFJGIH","Passed AC2",NA,"Spreadsheet1",1,"BIQ","Screen 2","o21mwi",2,"response","5",9950.142,18833.679,18844.8720000954,9950.142,18833.679,18844.8720000954,1,9950.142,8894.73000009537,0,NA,"Rating Scale","Rating Scale",9,"object-36","BIQ",NA,"SUPPRF43420"
"9",1697545701951,"17/10/2023 12:28:21",1697549301951,1,"17/10/2023 14:28:21",147682,3,"task-gjqt",NA,32290856,9549837,NA,"complete",NA,NA,"computer","Desktop or Laptop","Mac OS 10.15.7","Chrome 116.0.0.0","1440x900","1440x815",NA,NA,0,"BIQ (Charlotte)",3,"CDBEAFJGIH","Passed AC2",NA,"Spreadsheet1",1,"BIQ","Screen 2","o21mwi",2,"response","4",17717.057,18833.679,18845.1720000477,17717.057,18833.679,18845.1720000477,1,17717.057,1128.11500004768,0,NA,"Rating Scale","Rating Scale",16,"object-86","BIQ",NA,"SUPPRF43420"
"10",1697545712663,"17/10/2023 12:28:32",1697549312663,1,"17/10/2023 14:28:32",147682,3,"task-gjqt",NA,32290856,9549837,NA,"complete",NA,NA,"computer","Desktop or Laptop","Mac OS 10.15.7","Chrome 116.0.0.0","1440x900","1440x815",NA,NA,0,"BIQ (Charlotte)",3,"CDBEAFJGIH","Passed AC2",NA,"Spreadsheet1",1,"BIQ","Screen 3","iz3the",3,"continue","",10723.8930000238,10716.779,10723.8930000238,10723.8930000238,10716.779,10723.8930000238,1,10723.8930000238,0,0,NA,"Click To Continue","Continue Button",22,"object-73","BIQ",NA,"SUPPRF43420"
"11",1697545712665,"17/10/2023 12:28:32",1697549312665,1,"17/10/2023 14:28:32",147682,3,"task-gjqt",NA,32290856,9549837,NA,"complete",NA,NA,"computer","Desktop or Laptop","Mac OS 10.15.7","Chrome 116.0.0.0","1440x900","1440x815",NA,NA,0,"BIQ (Charlotte)",3,"CDBEAFJGIH","Passed AC2",NA,"Spreadsheet1",1,"BIQ","Screen 3","iz3the",3,"response","1",4649.814,10716.779,10725.793,4649.814,10716.779,10725.793,1,4649.814,6075.979,0,NA,"Rating Scale","Rating Scale",2,"object-53","BIQ",NA,"SUPPRF43420"
"12",1697545712665,"17/10/2023 12:28:32",1697549312665,1,"17/10/2023 14:28:32",147682,3,"task-gjqt",NA,32290856,9549837,NA,"complete",NA,NA,"computer","Desktop or Laptop","Mac OS 10.15.7","Chrome 116.0.0.0","1440x900","1440x815",NA,NA,0,"BIQ (Charlotte)",3,"CDBEAFJGIH","Passed AC2",NA,"Spreadsheet1",1,"BIQ","Screen 3","iz3the",3,"response","2",6599.736,10716.779,10726.0930000715,6599.736,10716.779,10726.0930000715,1,6599.736,4126.35700007153,0,NA,"Rating Scale","Rating Scale",9,"object-60","BIQ",NA,"SUPPRF43420"
"13",1697545712666,"17/10/2023 12:28:32",1697549312666,1,"17/10/2023 14:28:32",147682,3,"task-gjqt",NA,32290856,9549837,NA,"complete",NA,NA,"computer","Desktop or Laptop","Mac OS 10.15.7","Chrome 116.0.0.0","1440x900","1440x815",NA,NA,0,"BIQ (Charlotte)",3,"CDBEAFJGIH","Passed AC2",NA,"Spreadsheet1",1,"BIQ","Screen 3","iz3the",3,"response","4",9800.149,10716.779,10726.293,9800.149,10716.779,10726.293,1,9800.149,926.144,0,NA,"Rating Scale","Rating Scale",16,"object-67","BIQ",NA,"SUPPRF43420"
"14",1697545712667,"17/10/2023 12:28:32",1697549312667,1,"17/10/2023 14:28:32",147682,3,"task-gjqt",NA,32290856,9549837,NA,"complete",NA,NA,"computer","Desktop or Laptop","Mac OS 10.15.7","Chrome 116.0.0.0","1440x900","1440x815",NA,NA,0,"BIQ (Charlotte)",3,"CDBEAFJGIH","Passed AC2",NA,"Spreadsheet1",NA,"","","",NA,"5","END",NA,NA,NA,NA,NA,NA,0,NA,NA,NA,NA,"","",NA,"","",NA,"SUPPRF43420"
"1",1697545800457,"17/10/2023 12:30:00",1697549400457,1,"17/10/2023 14:30:00",147682,3,"task-gjqt",NA,32290901,9549831,NA,"complete",NA,NA,"computer","Desktop or Laptop","Windows 10","Firefox 118.0","2560x1440","2560x1279",NA,NA,0,"BIQ (Charlotte)",3,"ABJCIDHEGF","Passed AC2",NA,"Spreadsheet1",NA,"","","",NA,"5","BEGIN",NA,NA,NA,NA,NA,NA,0,NA,NA,NA,NA,"","",NA,"","",NA,"SUPPRF96180"
"2",1697545827000,"17/10/2023 12:30:27",1697549427000,1,"17/10/2023 14:30:27",147682,3,"task-gjqt",NA,32290901,9549831,NA,"complete",NA,NA,"computer","Desktop or Laptop","Windows 10","Firefox 118.0","2560x1440","2560x1279",NA,NA,0,"BIQ (Charlotte)",3,"ABJCIDHEGF","Passed AC2",NA,"Spreadsheet1",1,"BIQ","Screen 1","9dh6eq",1,"continue","",26545.26,26534.8,26545.26,26545.26,26534.8,26545.26,1,26545.26,0,0,NA,"Click To Continue","Continue Button",23,"object-48","BIQ",NA,"SUPPRF96180"
"3",1697545827007,"17/10/2023 12:30:27",1697549427007,1,"17/10/2023 14:30:27",147682,3,"task-gjqt",NA,32290901,9549831,NA,"complete",NA,NA,"computer","Desktop or Laptop","Windows 10","Firefox 118.0","2560x1440","2560x1279",NA,NA,0,"BIQ (Charlotte)",3,"ABJCIDHEGF","Passed AC2",NA,"Spreadsheet1",1,"BIQ","Screen 1","9dh6eq",1,"response","7",14124.68,26534.8,26551.48,14124.68,26534.8,26551.48,1,14124.68,12426.8,0,NA,"Rating Scale","Rating Scale",3,"object-5","BIQ",NA,"SUPPRF96180"
"4",1697545827007,"17/10/2023 12:30:27",1697549427007,1,"17/10/2023 14:30:27",147682,3,"task-gjqt",NA,32290901,9549831,NA,"complete",NA,NA,"computer","Desktop or Laptop","Windows 10","Firefox 118.0","2560x1440","2560x1279",NA,NA,0,"BIQ (Charlotte)",3,"ABJCIDHEGF","Passed AC2",NA,"Spreadsheet1",1,"BIQ","Screen 1","9dh6eq",1,"response","5",20128.8,26534.8,26551.48,20128.8,26534.8,26551.48,1,20128.8,6422.68,0,NA,"Rating Scale","Rating Scale",10,"object-18","BIQ",NA,"SUPPRF96180"
"5",1697545827008,"17/10/2023 12:30:27",1697549427008,1,"17/10/2023 14:30:27",147682,3,"task-gjqt",NA,32290901,9549831,NA,"complete",NA,NA,"computer","Desktop or Laptop","Windows 10","Firefox 118.0","2560x1440","2560x1279",NA,NA,0,"BIQ (Charlotte)",3,"ABJCIDHEGF","Passed AC2",NA,"Spreadsheet1",1,"BIQ","Screen 1","9dh6eq",1,"response","1",26017.78,26534.8,26551.48,26017.78,26534.8,26551.48,1,26017.78,533.700000000001,0,NA,"Rating Scale","Rating Scale",17,"object-80","BIQ",NA,"SUPPRF96180"
"6",1697545846057,"17/10/2023 12:30:46",1697549446057,1,"17/10/2023 14:30:46",147682,3,"task-gjqt",NA,32290901,9549831,NA,"complete",NA,NA,"computer","Desktop or Laptop","Windows 10","Firefox 118.0","2560x1440","2560x1279",NA,NA,0,"BIQ (Charlotte)",3,"ABJCIDHEGF","Passed AC2",NA,"Spreadsheet1",1,"BIQ","Screen 2","o21mwi",2,"continue","",19064.58,19047.9,19064.58,19064.58,19047.9,19064.58,1,19064.58,0,0,NA,"Click To Continue","Continue Button",22,"object-50","BIQ",NA,"SUPPRF96180"
"7",1697545846060,"17/10/2023 12:30:46",1697549446060,1,"17/10/2023 14:30:46",147682,3,"task-gjqt",NA,32290901,9549831,NA,"complete",NA,NA,"computer","Desktop or Laptop","Windows 10","Firefox 118.0","2560x1440","2560x1279",NA,NA,0,"BIQ (Charlotte)",3,"ABJCIDHEGF","Passed AC2",NA,"Spreadsheet1",1,"BIQ","Screen 2","o21mwi",2,"response","6",3785.92,19047.9,19064.58,3785.92,19047.9,19064.58,1,3785.92,15278.66,0,NA,"Rating Scale","Rating Scale",2,"object-259","BIQ",NA,"SUPPRF96180"
"8",1697545846061,"17/10/2023 12:30:46",1697549446061,1,"17/10/2023 14:30:46",147682,3,"task-gjqt",NA,32290901,9549831,NA,"complete",NA,NA,"computer","Desktop or Laptop","Windows 10","Firefox 118.0","2560x1440","2560x1279",NA,NA,0,"BIQ (Charlotte)",3,"ABJCIDHEGF","Passed AC2",NA,"Spreadsheet1",1,"BIQ","Screen 2","o21mwi",2,"response","0",9407.96,19047.9,19064.58,9407.96,19047.9,19064.58,1,9407.96,9656.62,0,NA,"Rating Scale","Rating Scale",9,"object-36","BIQ",NA,"SUPPRF96180"
"9",1697545846061,"17/10/2023 12:30:46",1697549446061,1,"17/10/2023 14:30:46",147682,3,"task-gjqt",NA,32290901,9549831,NA,"complete",NA,NA,"computer","Desktop or Laptop","Windows 10","Firefox 118.0","2560x1440","2560x1279",NA,NA,0,"BIQ (Charlotte)",3,"ABJCIDHEGF","Passed AC2",NA,"Spreadsheet1",1,"BIQ","Screen 2","o21mwi",2,"response","4",11442.68,19047.9,19064.58,11442.68,19047.9,19064.58,1,11442.68,7621.9,0,NA,"Rating Scale","Rating Scale",16,"object-86","BIQ",NA,"SUPPRF96180"
"10",1697545857722,"17/10/2023 12:30:57",1697549457722,1,"17/10/2023 14:30:57",147682,3,"task-gjqt",NA,32290901,9549831,NA,"complete",NA,NA,"computer","Desktop or Laptop","Windows 10","Firefox 118.0","2560x1440","2560x1279",NA,NA,0,"BIQ (Charlotte)",3,"ABJCIDHEGF","Passed AC2",NA,"Spreadsheet1",1,"BIQ","Screen 3","iz3the",3,"continue","",11683.56,11676.26,11683.56,11683.56,11676.26,11683.56,1,11683.56,0,0,NA,"Click To Continue","Continue Button",22,"object-73","BIQ",NA,"SUPPRF96180"
"11",1697545857725,"17/10/2023 12:30:57",1697549457725,1,"17/10/2023 14:30:57",147682,3,"task-gjqt",NA,32290901,9549831,NA,"complete",NA,NA,"computer","Desktop or Laptop","Windows 10","Firefox 118.0","2560x1440","2560x1279",NA,NA,0,"BIQ (Charlotte)",3,"ABJCIDHEGF","Passed AC2",NA,"Spreadsheet1",1,"BIQ","Screen 3","iz3the",3,"response","0",3235.54,11676.26,11688.56,3235.54,11676.26,11688.56,1,3235.54,8453.02,0,NA,"Rating Scale","Rating Scale",2,"object-53","BIQ",NA,"SUPPRF96180"
"12",1697545857726,"17/10/2023 12:30:57",1697549457726,1,"17/10/2023 14:30:57",147682,3,"task-gjqt",NA,32290901,9549831,NA,"complete",NA,NA,"computer","Desktop or Laptop","Windows 10","Firefox 118.0","2560x1440","2560x1279",NA,NA,0,"BIQ (Charlotte)",3,"ABJCIDHEGF","Passed AC2",NA,"Spreadsheet1",1,"BIQ","Screen 3","iz3the",3,"response","0",7339.96,11676.26,11688.56,7339.96,11676.26,11688.56,1,7339.96,4348.6,0,NA,"Rating Scale","Rating Scale",9,"object-60","BIQ",NA,"SUPPRF96180"
"13",1697545857726,"17/10/2023 12:30:57",1697549457726,1,"17/10/2023 14:30:57",147682,3,"task-gjqt",NA,32290901,9549831,NA,"complete",NA,NA,"computer","Desktop or Laptop","Windows 10","Firefox 118.0","2560x1440","2560x1279",NA,NA,0,"BIQ (Charlotte)",3,"ABJCIDHEGF","Passed AC2",NA,"Spreadsheet1",1,"BIQ","Screen 3","iz3the",3,"response","1",10608.88,11676.26,11689.56,10608.88,11676.26,11689.56,1,10608.88,1080.68,0,NA,"Rating Scale","Rating Scale",16,"object-67","BIQ",NA,"SUPPRF96180"
"14",1697545857727,"17/10/2023 12:30:57",1697549457727,1,"17/10/2023 14:30:57",147682,3,"task-gjqt",NA,32290901,9549831,NA,"complete",NA,NA,"computer","Desktop or Laptop","Windows 10","Firefox 118.0","2560x1440","2560x1279",NA,NA,0,"BIQ (Charlotte)",3,"ABJCIDHEGF","Passed AC2",NA,"Spreadsheet1",NA,"","","",NA,"5","END",NA,NA,NA,NA,NA,NA,0,NA,NA,NA,NA,"","",NA,"","",NA,"SUPPRF96180"
"1",1697546170115,"17/10/2023 12:36:10",1697549770115,1,"17/10/2023 14:36:10",147682,3,"task-gjqt",NA,32291078,9549844,NA,"complete",NA,NA,"computer","Desktop or Laptop","Windows 10","Chrome 118.0.0.0","1920x1080","1920x955",NA,NA,0,"BIQ (Charlotte)",3,"BCADJEIFHG","Passed AC2",NA,"Spreadsheet1",NA,"","","",NA,"5","BEGIN",NA,NA,NA,NA,NA,NA,0,NA,NA,NA,NA,"","",NA,"","",NA,"SUPPRF31218"
"2",1697546221655,"17/10/2023 12:37:01",1697549821655,1,"17/10/2023 14:37:01",147682,3,"task-gjqt",NA,32291078,9549844,NA,"complete",NA,NA,"computer","Desktop or Laptop","Windows 10","Chrome 118.0.0.0","1920x1080","1920x955",NA,NA,0,"BIQ (Charlotte)",3,"BCADJEIFHG","Passed AC2",NA,"Spreadsheet1",1,"BIQ","Screen 1","9dh6eq",1,"continue","",51545.237,51541.775,51545.237,51545.237,51541.775,51545.237,1,51545.237,0,0,NA,"Click To Continue","Continue Button",23,"object-48","BIQ",NA,"SUPPRF31218"
"3",1697546221656,"17/10/2023 12:37:01",1697549821656,1,"17/10/2023 14:37:01",147682,3,"task-gjqt",NA,32291078,9549844,NA,"complete",NA,NA,"computer","Desktop or Laptop","Windows 10","Chrome 118.0.0.0","1920x1080","1920x955",NA,NA,0,"BIQ (Charlotte)",3,"BCADJEIFHG","Passed AC2",NA,"Spreadsheet1",1,"BIQ","Screen 1","9dh6eq",1,"response","6",31895.722,51541.775,51546.8370000238,31895.722,51541.775,51546.8370000238,1,31895.722,19651.1150000238,0,NA,"Rating Scale","Rating Scale",3,"object-5","BIQ",NA,"SUPPRF31218"
"4",1697546221656,"17/10/2023 12:37:01",1697549821656,1,"17/10/2023 14:37:01",147682,3,"task-gjqt",NA,32291078,9549844,NA,"complete",NA,NA,"computer","Desktop or Laptop","Windows 10","Chrome 118.0.0.0","1920x1080","1920x955",NA,NA,0,"BIQ (Charlotte)",3,"BCADJEIFHG","Passed AC2",NA,"Spreadsheet1",1,"BIQ","Screen 1","9dh6eq",1,"response","6",43944.319,51541.775,51547.0370000119,43944.319,51541.775,51547.0370000119,1,43944.319,7602.71800001192,0,NA,"Rating Scale","Rating Scale",10,"object-18","BIQ",NA,"SUPPRF31218"
"5",1697546221657,"17/10/2023 12:37:01",1697549821657,1,"17/10/2023 14:37:01",147682,3,"task-gjqt",NA,32291078,9549844,NA,"complete",NA,NA,"computer","Desktop or Laptop","Windows 10","Chrome 118.0.0.0","1920x1080","1920x955",NA,NA,0,"BIQ (Charlotte)",3,"BCADJEIFHG","Passed AC2",NA,"Spreadsheet1",1,"BIQ","Screen 1","9dh6eq",1,"response","4",49502.974,51541.775,51547.237,49502.974,51541.775,51547.237,1,49502.974,2044.263,0,NA,"Rating Scale","Rating Scale",17,"object-80","BIQ",NA,"SUPPRF31218"
"6",1697546247230,"17/10/2023 12:37:27",1697549847230,1,"17/10/2023 14:37:27",147682,3,"task-gjqt",NA,32291078,9549844,NA,"complete",NA,NA,"computer","Desktop or Laptop","Windows 10","Chrome 118.0.0.0","1920x1080","1920x955",NA,NA,0,"BIQ (Charlotte)",3,"BCADJEIFHG","Passed AC2",NA,"Spreadsheet1",1,"BIQ","Screen 2","o21mwi",2,"continue","",25578.6620000477,25576.576,25578.6620000477,25578.6620000477,25576.576,25578.6620000477,1,25578.6620000477,0,0,NA,"Click To Continue","Continue Button",22,"object-50","BIQ",NA,"SUPPRF31218"
"7",1697546247231,"17/10/2023 12:37:27",1697549847231,1,"17/10/2023 14:37:27",147682,3,"task-gjqt",NA,32291078,9549844,NA,"complete",NA,NA,"computer","Desktop or Laptop","Windows 10","Chrome 118.0.0.0","1920x1080","1920x955",NA,NA,0,"BIQ (Charlotte)",3,"BCADJEIFHG","Passed AC2",NA,"Spreadsheet1",1,"BIQ","Screen 2","o21mwi",2,"response","3",8388.996,25576.576,25580.0620000238,8388.996,25576.576,25580.0620000238,1,8388.996,17191.0660000238,0,NA,"Rating Scale","Rating Scale",2,"object-259","BIQ",NA,"SUPPRF31218"
"8",1697546247232,"17/10/2023 12:37:27",1697549847232,1,"17/10/2023 14:37:27",147682,3,"task-gjqt",NA,32291078,9549844,NA,"complete",NA,NA,"computer","Desktop or Laptop","Windows 10","Chrome 118.0.0.0","1920x1080","1920x955",NA,NA,0,"BIQ (Charlotte)",3,"BCADJEIFHG","Passed AC2",NA,"Spreadsheet1",1,"BIQ","Screen 2","o21mwi",2,"response","2",12965.101,25576.576,25580.3620000358,12965.101,25576.576,25580.3620000358,1,12965.101,12615.2610000358,0,NA,"Rating Scale","Rating Scale",9,"object-36","BIQ",NA,"SUPPRF31218"
"9",1697546247232,"17/10/2023 12:37:27",1697549847232,1,"17/10/2023 14:37:27",147682,3,"task-gjqt",NA,32291078,9549844,NA,"complete",NA,NA,"computer","Desktop or Laptop","Windows 10","Chrome 118.0.0.0","1920x1080","1920x955",NA,NA,0,"BIQ (Charlotte)",3,"BCADJEIFHG","Passed AC2",NA,"Spreadsheet1",1,"BIQ","Screen 2","o21mwi",2,"response","0",22200.565,25576.576,25580.5620000238,22200.565,25576.576,25580.5620000238,1,22200.565,3379.99700002384,0,NA,"Rating Scale","Rating Scale",16,"object-86","BIQ",NA,"SUPPRF31218"
"10",1697546264705,"17/10/2023 12:37:44",1697549864705,1,"17/10/2023 14:37:44",147682,3,"task-gjqt",NA,32291078,9549844,NA,"complete",NA,NA,"computer","Desktop or Laptop","Windows 10","Chrome 118.0.0.0","1920x1080","1920x955",NA,NA,0,"BIQ (Charlotte)",3,"BCADJEIFHG","Passed AC2",NA,"Spreadsheet1",1,"BIQ","Screen 3","iz3the",3,"continue","",17477.5860000477,17474.673,17477.5860000477,17477.5860000477,17474.673,17477.5860000477,1,17477.5860000477,0,0,NA,"Click To Continue","Continue Button",22,"object-73","BIQ",NA,"SUPPRF31218"
"11",1697546264707,"17/10/2023 12:37:44",1697549864707,1,"17/10/2023 14:37:44",147682,3,"task-gjqt",NA,32291078,9549844,NA,"complete",NA,NA,"computer","Desktop or Laptop","Windows 10","Chrome 118.0.0.0","1920x1080","1920x955",NA,NA,0,"BIQ (Charlotte)",3,"BCADJEIFHG","Passed AC2",NA,"Spreadsheet1",1,"BIQ","Screen 3","iz3the",3,"response","1",5620.402,17474.673,17478.6860000119,5620.402,17474.673,17478.6860000119,1,5620.402,11858.2840000119,0,NA,"Rating Scale","Rating Scale",2,"object-53","BIQ",NA,"SUPPRF31218"
"12",1697546264707,"17/10/2023 12:37:44",1697549864707,1,"17/10/2023 14:37:44",147682,3,"task-gjqt",NA,32291078,9549844,NA,"complete",NA,NA,"computer","Desktop or Laptop","Windows 10","Chrome 118.0.0.0","1920x1080","1920x955",NA,NA,0,"BIQ (Charlotte)",3,"BCADJEIFHG","Passed AC2",NA,"Spreadsheet1",1,"BIQ","Screen 3","iz3the",3,"response","2",13478.753,17474.673,17478.9860000238,13478.753,17474.673,17478.9860000238,1,13478.753,4000.23300002384,0,NA,"Rating Scale","Rating Scale",9,"object-60","BIQ",NA,"SUPPRF31218"
"13",1697546264707,"17/10/2023 12:37:44",1697549864707,1,"17/10/2023 14:37:44",147682,3,"task-gjqt",NA,32291078,9549844,NA,"complete",NA,NA,"computer","Desktop or Laptop","Windows 10","Chrome 118.0.0.0","1920x1080","1920x955",NA,NA,0,"BIQ (Charlotte)",3,"BCADJEIFHG","Passed AC2",NA,"Spreadsheet1",1,"BIQ","Screen 3","iz3the",3,"response","1",16493.261,17474.673,17479.1860000119,16493.261,17474.673,17479.1860000119,1,16493.261,985.925000011921,0,NA,"Rating Scale","Rating Scale",16,"object-67","BIQ",NA,"SUPPRF31218"
"14",1697546264709,"17/10/2023 12:37:44",1697549864709,1,"17/10/2023 14:37:44",147682,3,"task-gjqt",NA,32291078,9549844,NA,"complete",NA,NA,"computer","Desktop or Laptop","Windows 10","Chrome 118.0.0.0","1920x1080","1920x955",NA,NA,0,"BIQ (Charlotte)",3,"BCADJEIFHG","Passed AC2",NA,"Spreadsheet1",NA,"","","",NA,"5","END",NA,NA,NA,NA,NA,NA,0,NA,NA,NA,NA,"","",NA,"","",NA,"SUPPRF31218"
"1",1697546263213,"17/10/2023 12:37:43",1697549863213,1,"17/10/2023 14:37:43",147682,3,"task-gjqt",NA,32291120,9550001,NA,"complete",NA,NA,"computer","Desktop or Laptop","Windows 10","Edge 117.0.2045.31","1280x720","1272x598",NA,NA,0,"BIQ (Charlotte)",3,"FGEHDICJBA","Passed AC2",NA,"Spreadsheet1",NA,"","","",NA,"5","BEGIN",NA,NA,NA,NA,NA,NA,0,NA,NA,NA,NA,"","",NA,"","",NA,"SUPPRF66122"
"2",1697546407572,"17/10/2023 12:40:07",1697550007572,1,"17/10/2023 14:40:07",147682,3,"task-gjqt",NA,32291120,9550001,NA,"complete",NA,NA,"computer","Desktop or Laptop","Windows 10","Edge 117.0.2045.31","1280x720","1272x598",NA,NA,0,"BIQ (Charlotte)",3,"FGEHDICJBA","Passed AC2",NA,"Spreadsheet1",1,"BIQ","Screen 1","9dh6eq",1,"continue","",144380.477000095,144364.935,144380.477000095,144380.477000095,144364.935,144380.477000095,1,144380.477000095,0,0,NA,"Click To Continue","Continue Button",23,"object-48","BIQ",NA,"SUPPRF66122"
"3",1697546407616,"17/10/2023 12:40:07",1697550007616,1,"17/10/2023 14:40:07",147682,3,"task-gjqt",NA,32291120,9550001,NA,"complete",NA,NA,"computer","Desktop or Laptop","Windows 10","Edge 117.0.2045.31","1280x720","1272x598",NA,NA,0,"BIQ (Charlotte)",3,"FGEHDICJBA","Passed AC2",NA,"Spreadsheet1",1,"BIQ","Screen 1","9dh6eq",1,"response","6",131292.33,144364.935,144381.599,131292.33,144364.935,144381.599,1,131292.33,13089.269,0,NA,"Rating Scale","Rating Scale",3,"object-5","BIQ",NA,"SUPPRF66122"
"4",1697546407616,"17/10/2023 12:40:07",1697550007616,1,"17/10/2023 14:40:07",147682,3,"task-gjqt",NA,32291120,9550001,NA,"complete",NA,NA,"computer","Desktop or Laptop","Windows 10","Edge 117.0.2045.31","1280x720","1272x598",NA,NA,0,"BIQ (Charlotte)",3,"FGEHDICJBA","Passed AC2",NA,"Spreadsheet1",1,"BIQ","Screen 1","9dh6eq",1,"response","6",132891.004,144364.935,144381.599,132891.004,144364.935,144381.599,1,132891.004,11490.595,0,NA,"Rating Scale","Rating Scale",10,"object-18","BIQ",NA,"SUPPRF66122"
"5",1697546407617,"17/10/2023 12:40:07",1697550007617,1,"17/10/2023 14:40:07",147682,3,"task-gjqt",NA,32291120,9550001,NA,"complete",NA,NA,"computer","Desktop or Laptop","Windows 10","Edge 117.0.2045.31","1280x720","1272x598",NA,NA,0,"BIQ (Charlotte)",3,"FGEHDICJBA","Passed AC2",NA,"Spreadsheet1",1,"BIQ","Screen 1","9dh6eq",1,"response","7",143365.567,144364.935,144381.599,143365.567,144364.935,144381.599,1,143365.567,1016.03200000004,0,NA,"Rating Scale","Rating Scale",17,"object-80","BIQ",NA,"SUPPRF66122"
"6",1697546535885,"17/10/2023 12:42:15",1697550135885,1,"17/10/2023 14:42:15",147682,3,"task-gjqt",NA,32291120,9550001,NA,"complete",NA,NA,"computer","Desktop or Laptop","Windows 10","Edge 117.0.2045.31","1280x720","1272x598",NA,NA,0,"BIQ (Charlotte)",3,"FGEHDICJBA","Passed AC2",NA,"Spreadsheet1",1,"BIQ","Screen 2","o21mwi",2,"continue","",128337.542000095,128327.672,128337.542000095,128337.542000095,128327.672,128337.542000095,1,128337.542000095,0,0,NA,"Click To Continue","Continue Button",22,"object-50","BIQ",NA,"SUPPRF66122"
"7",1697546535889,"17/10/2023 12:42:15",1697550135889,1,"17/10/2023 14:42:15",147682,3,"task-gjqt",NA,32291120,9550001,NA,"complete",NA,NA,"computer","Desktop or Laptop","Windows 10","Edge 117.0.2045.31","1280x720","1272x598",NA,NA,0,"BIQ (Charlotte)",3,"FGEHDICJBA","Passed AC2",NA,"Spreadsheet1",1,"BIQ","Screen 2","o21mwi",2,"response","4",112690.673,128327.672,128341.942000191,112690.673,128327.672,128341.942000191,1,112690.673,15651.2690001907,0,NA,"Rating Scale","Rating Scale",2,"object-259","BIQ",NA,"SUPPRF66122"
"8",1697546535890,"17/10/2023 12:42:15",1697550135890,1,"17/10/2023 14:42:15",147682,3,"task-gjqt",NA,32291120,9550001,NA,"complete",NA,NA,"computer","Desktop or Laptop","Windows 10","Edge 117.0.2045.31","1280x720","1272x598",NA,NA,0,"BIQ (Charlotte)",3,"FGEHDICJBA","Passed AC2",NA,"Spreadsheet1",1,"BIQ","Screen 2","o21mwi",2,"response","6",115421.818,128327.672,128342.842000048,115421.818,128327.672,128342.842000048,1,115421.818,12921.0240000477,0,NA,"Rating Scale","Rating Scale",9,"object-36","BIQ",NA,"SUPPRF66122"
"9",1697546535891,"17/10/2023 12:42:15",1697550135891,1,"17/10/2023 14:42:15",147682,3,"task-gjqt",NA,32291120,9550001,NA,"complete",NA,NA,"computer","Desktop or Laptop","Windows 10","Edge 117.0.2045.31","1280x720","1272x598",NA,NA,0,"BIQ (Charlotte)",3,"FGEHDICJBA","Passed AC2",NA,"Spreadsheet1",1,"BIQ","Screen 2","o21mwi",2,"response","1",127678.517,128327.672,128343.342000048,127678.517,128327.672,128343.342000048,1,127678.517,664.825000047684,0,NA,"Rating Scale","Rating Scale",16,"object-86","BIQ",NA,"SUPPRF66122"
"10",1697546548616,"17/10/2023 12:42:28",1697550148616,1,"17/10/2023 14:42:28",147682,3,"task-gjqt",NA,32291120,9550001,NA,"complete",NA,NA,"computer","Desktop or Laptop","Windows 10","Edge 117.0.2045.31","1280x720","1272x598",NA,NA,0,"BIQ (Charlotte)",3,"FGEHDICJBA","Passed AC2",NA,"Spreadsheet1",1,"BIQ","Screen 3","iz3the",3,"continue","",12741.2700001907,12739.533,12741.2700001907,12741.2700001907,12739.533,12741.2700001907,1,12741.2700001907,0,0,NA,"Click To Continue","Continue Button",22,"object-73","BIQ",NA,"SUPPRF66122"
"11",1697546548620,"17/10/2023 12:42:28",1697550148620,1,"17/10/2023 14:42:28",147682,3,"task-gjqt",NA,32291120,9550001,NA,"complete",NA,NA,"computer","Desktop or Laptop","Windows 10","Edge 117.0.2045.31","1280x720","1272x598",NA,NA,0,"BIQ (Charlotte)",3,"FGEHDICJBA","Passed AC2",NA,"Spreadsheet1",1,"BIQ","Screen 3","iz3the",3,"response","0",6061.85399999999,12739.533,12744.6700000477,6061.85399999999,12739.533,12744.6700000477,1,6061.85399999999,6682.81600004766,0,NA,"Rating Scale","Rating Scale",2,"object-53","BIQ",NA,"SUPPRF66122"
"12",1697546548620,"17/10/2023 12:42:28",1697550148620,1,"17/10/2023 14:42:28",147682,3,"task-gjqt",NA,32291120,9550001,NA,"complete",NA,NA,"computer","Desktop or Laptop","Windows 10","Edge 117.0.2045.31","1280x720","1272x598",NA,NA,0,"BIQ (Charlotte)",3,"FGEHDICJBA","Passed AC2",NA,"Spreadsheet1",1,"BIQ","Screen 3","iz3the",3,"response","2",9359.16599999997,12739.533,12745.2700001907,9359.16599999997,12739.533,12745.2700001907,1,9359.16599999997,3386.10400019074,0,NA,"Rating Scale","Rating Scale",9,"object-60","BIQ",NA,"SUPPRF66122"
"13",1697546548621,"17/10/2023 12:42:28",1697550148621,1,"17/10/2023 14:42:28",147682,3,"task-gjqt",NA,32291120,9550001,NA,"complete",NA,NA,"computer","Desktop or Laptop","Windows 10","Edge 117.0.2045.31","1280x720","1272x598",NA,NA,0,"BIQ (Charlotte)",3,"FGEHDICJBA","Passed AC2",NA,"Spreadsheet1",1,"BIQ","Screen 3","iz3the",3,"response","7",11207.55,12739.533,12746.1700000477,11207.55,12739.533,12746.1700000477,1,11207.55,1538.62000004767,0,NA,"Rating Scale","Rating Scale",16,"object-67","BIQ",NA,"SUPPRF66122"
"14",1697546548627,"17/10/2023 12:42:28",1697550148627,1,"17/10/2023 14:42:28",147682,3,"task-gjqt",NA,32291120,9550001,NA,"complete",NA,NA,"computer","Desktop or Laptop","Windows 10","Edge 117.0.2045.31","1280x720","1272x598",NA,NA,0,"BIQ (Charlotte)",3,"FGEHDICJBA","Passed AC2",NA,"Spreadsheet1",NA,"","","",NA,"5","END",NA,NA,NA,NA,NA,NA,0,NA,NA,NA,NA,"","",NA,"","",NA,"SUPPRF66122"
"1",1697546744246,"17/10/2023 12:45:44",1697550344246,1,"17/10/2023 14:45:44",147682,3,"task-gjqt",NA,32291709,9550140,NA,"complete",NA,NA,"computer","Desktop or Laptop","Windows 10","Chrome 117.0.0.0","1536x864","1536x739",NA,NA,0,"BIQ (Charlotte)",3,"GHFIEJDACB","Passed AC2",NA,"Spreadsheet1",NA,"","","",NA,"5","BEGIN",NA,NA,NA,NA,NA,NA,0,NA,NA,NA,NA,"","",NA,"","",NA,"SUPPRF75168"
"2",1697546757922,"17/10/2023 12:45:57",1697550357922,1,"17/10/2023 14:45:57",147682,3,"task-gjqt",NA,32291709,9550140,NA,"complete",NA,NA,"computer","Desktop or Laptop","Windows 10","Chrome 117.0.0.0","1536x864","1536x739",NA,NA,0,"BIQ (Charlotte)",3,"GHFIEJDACB","Passed AC2",NA,"Spreadsheet1",1,"BIQ","Screen 1","9dh6eq",1,"continue","",13685.977,13669.38,13685.977,13685.977,13669.38,13685.977,1,13685.977,0,0,NA,"Click To Continue","Continue Button",23,"object-48","BIQ",NA,"SUPPRF75168"
"3",1697546757924,"17/10/2023 12:45:57",1697550357924,1,"17/10/2023 14:45:57",147682,3,"task-gjqt",NA,32291709,9550140,NA,"complete",NA,NA,"computer","Desktop or Laptop","Windows 10","Chrome 117.0.0.0","1536x864","1536x739",NA,NA,0,"BIQ (Charlotte)",3,"GHFIEJDACB","Passed AC2",NA,"Spreadsheet1",1,"BIQ","Screen 1","9dh6eq",1,"response","2",5840.581,13669.38,13685.977,5840.581,13669.38,13685.977,1,5840.581,7845.396,0,NA,"Rating Scale","Rating Scale",3,"object-5","BIQ",NA,"SUPPRF75168"
"4",1697546757924,"17/10/2023 12:45:57",1697550357924,1,"17/10/2023 14:45:57",147682,3,"task-gjqt",NA,32291709,9550140,NA,"complete",NA,NA,"computer","Desktop or Laptop","Windows 10","Chrome 117.0.0.0","1536x864","1536x739",NA,NA,0,"BIQ (Charlotte)",3,"GHFIEJDACB","Passed AC2",NA,"Spreadsheet1",1,"BIQ","Screen 1","9dh6eq",1,"response","4",9655.285,13669.38,13685.977,9655.285,13669.38,13685.977,1,9655.285,4030.692,0,NA,"Rating Scale","Rating Scale",10,"object-18","BIQ",NA,"SUPPRF75168"
"5",1697546757925,"17/10/2023 12:45:57",1697550357925,1,"17/10/2023 14:45:57",147682,3,"task-gjqt",NA,32291709,9550140,NA,"complete",NA,NA,"computer","Desktop or Laptop","Windows 10","Chrome 117.0.0.0","1536x864","1536x739",NA,NA,0,"BIQ (Charlotte)",3,"GHFIEJDACB","Passed AC2",NA,"Spreadsheet1",1,"BIQ","Screen 1","9dh6eq",1,"response","6",13153.003,13669.38,13685.977,13153.003,13669.38,13685.977,1,13153.003,532.973999999998,0,NA,"Rating Scale","Rating Scale",17,"object-80","BIQ",NA,"SUPPRF75168"
"6",1697546771764,"17/10/2023 12:46:11",1697550371764,1,"17/10/2023 14:46:11",147682,3,"task-gjqt",NA,32291709,9550140,NA,"complete",NA,NA,"computer","Desktop or Laptop","Windows 10","Chrome 117.0.0.0","1536x864","1536x739",NA,NA,0,"BIQ (Charlotte)",3,"GHFIEJDACB","Passed AC2",NA,"Spreadsheet1",1,"BIQ","Screen 2","o21mwi",2,"continue","",13859.282,13842.55,13859.282,13859.282,13842.55,13859.282,1,13859.282,0,0,NA,"Click To Continue","Continue Button",22,"object-50","BIQ",NA,"SUPPRF75168"
"7",1697546771766,"17/10/2023 12:46:11",1697550371766,1,"17/10/2023 14:46:11",147682,3,"task-gjqt",NA,32291709,9550140,NA,"complete",NA,NA,"computer","Desktop or Laptop","Windows 10","Chrome 117.0.0.0","1536x864","1536x739",NA,NA,0,"BIQ (Charlotte)",3,"GHFIEJDACB","Passed AC2",NA,"Spreadsheet1",1,"BIQ","Screen 2","o21mwi",2,"response","4",4164.764,13842.55,13859.282,4164.764,13842.55,13859.282,1,4164.764,9694.518,0,NA,"Rating Scale","Rating Scale",2,"object-259","BIQ",NA,"SUPPRF75168"
"8",1697546771767,"17/10/2023 12:46:11",1697550371767,1,"17/10/2023 14:46:11",147682,3,"task-gjqt",NA,32291709,9550140,NA,"complete",NA,NA,"computer","Desktop or Laptop","Windows 10","Chrome 117.0.0.0","1536x864","1536x739",NA,NA,0,"BIQ (Charlotte)",3,"GHFIEJDACB","Passed AC2",NA,"Spreadsheet1",1,"BIQ","Screen 2","o21mwi",2,"response","5",6912.791,13842.55,13859.282,6912.791,13842.55,13859.282,1,6912.791,6946.491,0,NA,"Rating Scale","Rating Scale",9,"object-36","BIQ",NA,"SUPPRF75168"
"9",1697546771767,"17/10/2023 12:46:11",1697550371767,1,"17/10/2023 14:46:11",147682,3,"task-gjqt",NA,32291709,9550140,NA,"complete",NA,NA,"computer","Desktop or Laptop","Windows 10","Chrome 117.0.0.0","1536x864","1536x739",NA,NA,0,"BIQ (Charlotte)",3,"GHFIEJDACB","Passed AC2",NA,"Spreadsheet1",1,"BIQ","Screen 2","o21mwi",2,"response","7",13126.468,13842.55,13859.282,13126.468,13842.55,13859.282,1,13126.468,732.813999999998,0,NA,"Rating Scale","Rating Scale",16,"object-86","BIQ",NA,"SUPPRF75168"
"10",1697546784236,"17/10/2023 12:46:24",1697550384236,1,"17/10/2023 14:46:24",147682,3,"task-gjqt",NA,32291709,9550140,NA,"complete",NA,NA,"computer","Desktop or Laptop","Windows 10","Chrome 117.0.0.0","1536x864","1536x739",NA,NA,0,"BIQ (Charlotte)",3,"GHFIEJDACB","Passed AC2",NA,"Spreadsheet1",1,"BIQ","Screen 3","iz3the",3,"continue","",12489.7170000119,12476.72,12489.7170000119,12489.7170000119,12476.72,12489.7170000119,1,12489.7170000119,0,0,NA,"Click To Continue","Continue Button",22,"object-73","BIQ",NA,"SUPPRF75168"
"11",1697546784239,"17/10/2023 12:46:24",1697550384239,1,"17/10/2023 14:46:24",147682,3,"task-gjqt",NA,32291709,9550140,NA,"complete",NA,NA,"computer","Desktop or Laptop","Windows 10","Chrome 117.0.0.0","1536x864","1536x739",NA,NA,0,"BIQ (Charlotte)",3,"GHFIEJDACB","Passed AC2",NA,"Spreadsheet1",1,"BIQ","Screen 3","iz3the",3,"response","3",5213.625,12476.72,12492.3169999762,5213.625,12476.72,12492.3169999762,1,5213.625,7278.69199997616,0,NA,"Rating Scale","Rating Scale",2,"object-53","BIQ",NA,"SUPPRF75168"
"12",1697546784239,"17/10/2023 12:46:24",1697550384239,1,"17/10/2023 14:46:24",147682,3,"task-gjqt",NA,32291709,9550140,NA,"complete",NA,NA,"computer","Desktop or Laptop","Windows 10","Chrome 117.0.0.0","1536x864","1536x739",NA,NA,0,"BIQ (Charlotte)",3,"GHFIEJDACB","Passed AC2",NA,"Spreadsheet1",1,"BIQ","Screen 3","iz3the",3,"response","6",9361.377,12476.72,12493.0169999642,9361.377,12476.72,12493.0169999642,1,9361.377,3131.63999996424,0,NA,"Rating Scale","Rating Scale",9,"object-60","BIQ",NA,"SUPPRF75168"
"13",1697546784239,"17/10/2023 12:46:24",1697550384239,1,"17/10/2023 14:46:24",147682,3,"task-gjqt",NA,32291709,9550140,NA,"complete",NA,NA,"computer","Desktop or Laptop","Windows 10","Chrome 117.0.0.0","1536x864","1536x739",NA,NA,0,"BIQ (Charlotte)",3,"GHFIEJDACB","Passed AC2",NA,"Spreadsheet1",1,"BIQ","Screen 3","iz3the",3,"response","5",11976.711,12476.72,12493.378,11976.711,12476.72,12493.378,1,11976.711,516.667000000001,0,NA,"Rating Scale","Rating Scale",16,"object-67","BIQ",NA,"SUPPRF75168"
"14",1697546784243,"17/10/2023 12:46:24",1697550384243,1,"17/10/2023 14:46:24",147682,3,"task-gjqt",NA,32291709,9550140,NA,"complete",NA,NA,"computer","Desktop or Laptop","Windows 10","Chrome 117.0.0.0","1536x864","1536x739",NA,NA,0,"BIQ (Charlotte)",3,"GHFIEJDACB","Passed AC2",NA,"Spreadsheet1",NA,"","","",NA,"5","END",NA,NA,NA,NA,NA,NA,0,NA,NA,NA,NA,"","",NA,"","",NA,"SUPPRF75168"
"1",1697547239099,"17/10/2023 12:53:59",1697550839099,1,"17/10/2023 14:53:59",147682,3,"task-gjqt",NA,32292271,9550288,NA,"complete",NA,NA,"computer","Desktop or Laptop","Windows 10","Chrome 118.0.0.0","1920x1080","1920x941",NA,NA,0,"BIQ (Charlotte)",3,"HIGJFAEBDC","Passed AC2",NA,"Spreadsheet1",NA,"","","",NA,"5","BEGIN",NA,NA,NA,NA,NA,NA,0,NA,NA,NA,NA,"","",NA,"","",NA,"SUPPRF71510"
"2",1697547259536,"17/10/2023 12:54:19",1697550859536,1,"17/10/2023 14:54:19",147682,3,"task-gjqt",NA,32292271,9550288,NA,"complete",NA,NA,"computer","Desktop or Laptop","Windows 10","Chrome 118.0.0.0","1920x1080","1920x941",NA,NA,0,"BIQ (Charlotte)",3,"HIGJFAEBDC","Passed AC2",NA,"Spreadsheet1",1,"BIQ","Screen 1","9dh6eq",1,"continue","",20444,20437,20444,20444,20437,20444,1,20444,0,0,NA,"Click To Continue","Continue Button",23,"object-48","BIQ",NA,"SUPPRF71510"
"3",1697547259537,"17/10/2023 12:54:19",1697550859537,1,"17/10/2023 14:54:19",147682,3,"task-gjqt",NA,32292271,9550288,NA,"complete",NA,NA,"computer","Desktop or Laptop","Windows 10","Chrome 118.0.0.0","1920x1080","1920x941",NA,NA,0,"BIQ (Charlotte)",3,"HIGJFAEBDC","Passed AC2",NA,"Spreadsheet1",1,"BIQ","Screen 1","9dh6eq",1,"response","8",7965,20437,20444,7965,20437,20444,1,7965,12479,0,NA,"Rating Scale","Rating Scale",3,"object-5","BIQ",NA,"SUPPRF71510"
"4",1697547259537,"17/10/2023 12:54:19",1697550859537,1,"17/10/2023 14:54:19",147682,3,"task-gjqt",NA,32292271,9550288,NA,"complete",NA,NA,"computer","Desktop or Laptop","Windows 10","Chrome 118.0.0.0","1920x1080","1920x941",NA,NA,0,"BIQ (Charlotte)",3,"HIGJFAEBDC","Passed AC2",NA,"Spreadsheet1",1,"BIQ","Screen 1","9dh6eq",1,"response","4",14271,20437,20444,14271,20437,20444,1,14271,6173,0,NA,"Rating Scale","Rating Scale",10,"object-18","BIQ",NA,"SUPPRF71510"
"5",1697547259538,"17/10/2023 12:54:19",1697550859538,1,"17/10/2023 14:54:19",147682,3,"task-gjqt",NA,32292271,9550288,NA,"complete",NA,NA,"computer","Desktop or Laptop","Windows 10","Chrome 118.0.0.0","1920x1080","1920x941",NA,NA,0,"BIQ (Charlotte)",3,"HIGJFAEBDC","Passed AC2",NA,"Spreadsheet1",1,"BIQ","Screen 1","9dh6eq",1,"response","0",18847,20437,20444,18847,20437,20444,1,18847,1597,0,NA,"Rating Scale","Rating Scale",17,"object-80","BIQ",NA,"SUPPRF71510"
"6",1697547284658,"17/10/2023 12:54:44",1697550884658,1,"17/10/2023 14:54:44",147682,3,"task-gjqt",NA,32292271,9550288,NA,"complete",NA,NA,"computer","Desktop or Laptop","Windows 10","Chrome 118.0.0.0","1920x1080","1920x941",NA,NA,0,"BIQ (Charlotte)",3,"HIGJFAEBDC","Passed AC2",NA,"Spreadsheet1",1,"BIQ","Screen 2","o21mwi",2,"continue","",25133,25126,25133,25133,25126,25133,1,25133,0,0,NA,"Click To Continue","Continue Button",22,"object-50","BIQ",NA,"SUPPRF71510"
"7",1697547284660,"17/10/2023 12:54:44",1697550884660,1,"17/10/2023 14:54:44",147682,3,"task-gjqt",NA,32292271,9550288,NA,"complete",NA,NA,"computer","Desktop or Laptop","Windows 10","Chrome 118.0.0.0","1920x1080","1920x941",NA,NA,0,"BIQ (Charlotte)",3,"HIGJFAEBDC","Passed AC2",NA,"Spreadsheet1",1,"BIQ","Screen 2","o21mwi",2,"response","6",3910,25126,25133,3910,25126,25133,1,3910,21223,0,NA,"Rating Scale","Rating Scale",2,"object-259","BIQ",NA,"SUPPRF71510"
"8",1697547284661,"17/10/2023 12:54:44",1697550884661,1,"17/10/2023 14:54:44",147682,3,"task-gjqt",NA,32292271,9550288,NA,"complete",NA,NA,"computer","Desktop or Laptop","Windows 10","Chrome 118.0.0.0","1920x1080","1920x941",NA,NA,0,"BIQ (Charlotte)",3,"HIGJFAEBDC","Passed AC2",NA,"Spreadsheet1",1,"BIQ","Screen 2","o21mwi",2,"response","0",17848,25126,25133,17848,25126,25133,1,17848,7285,0,NA,"Rating Scale","Rating Scale",9,"object-36","BIQ",NA,"SUPPRF71510"
"9",1697547284661,"17/10/2023 12:54:44",1697550884661,1,"17/10/2023 14:54:44",147682,3,"task-gjqt",NA,32292271,9550288,NA,"complete",NA,NA,"computer","Desktop or Laptop","Windows 10","Chrome 118.0.0.0","1920x1080","1920x941",NA,NA,0,"BIQ (Charlotte)",3,"HIGJFAEBDC","Passed AC2",NA,"Spreadsheet1",1,"BIQ","Screen 2","o21mwi",2,"response","4",20334,25126,25133,20334,25126,25133,1,20334,4799,0,NA,"Rating Scale","Rating Scale",16,"object-86","BIQ",NA,"SUPPRF71510"
"10",1697547332271,"17/10/2023 12:55:32",1697550932271,1,"17/10/2023 14:55:32",147682,3,"task-gjqt",NA,32292271,9550288,NA,"complete",NA,NA,"computer","Desktop or Laptop","Windows 10","Chrome 118.0.0.0","1920x1080","1920x941",NA,NA,0,"BIQ (Charlotte)",3,"HIGJFAEBDC","Passed AC2",NA,"Spreadsheet1",1,"BIQ","Screen 3","iz3the",3,"continue","",47621,47618,47621,47621,47618,47621,1,47621,0,0,NA,"Click To Continue","Continue Button",22,"object-73","BIQ",NA,"SUPPRF71510"
"11",1697547332274,"17/10/2023 12:55:32",1697550932274,1,"17/10/2023 14:55:32",147682,3,"task-gjqt",NA,32292271,9550288,NA,"complete",NA,NA,"computer","Desktop or Laptop","Windows 10","Chrome 118.0.0.0","1920x1080","1920x941",NA,NA,0,"BIQ (Charlotte)",3,"HIGJFAEBDC","Passed AC2",NA,"Spreadsheet1",1,"BIQ","Screen 3","iz3the",3,"response","0",16958,47618,47623,16958,47618,47623,1,16958,30665,0,NA,"Rating Scale","Rating Scale",2,"object-53","BIQ",NA,"SUPPRF71510"
"12",1697547332274,"17/10/2023 12:55:32",1697550932274,1,"17/10/2023 14:55:32",147682,3,"task-gjqt",NA,32292271,9550288,NA,"complete",NA,NA,"computer","Desktop or Laptop","Windows 10","Chrome 118.0.0.0","1920x1080","1920x941",NA,NA,0,"BIQ (Charlotte)",3,"HIGJFAEBDC","Passed AC2",NA,"Spreadsheet1",1,"BIQ","Screen 3","iz3the",3,"response","0",19389,47618,47624,19389,47618,47624,1,19389,28235,0,NA,"Rating Scale","Rating Scale",9,"object-60","BIQ",NA,"SUPPRF71510"
"13",1697547332275,"17/10/2023 12:55:32",1697550932275,1,"17/10/2023 14:55:32",147682,3,"task-gjqt",NA,32292271,9550288,NA,"complete",NA,NA,"computer","Desktop or Laptop","Windows 10","Chrome 118.0.0.0","1920x1080","1920x941",NA,NA,0,"BIQ (Charlotte)",3,"HIGJFAEBDC","Passed AC2",NA,"Spreadsheet1",1,"BIQ","Screen 3","iz3the",3,"response","0",46799,47618,47624,46799,47618,47624,1,46799,825,0,NA,"Rating Scale","Rating Scale",16,"object-67","BIQ",NA,"SUPPRF71510"
"14",1697547332280,"17/10/2023 12:55:32",1697550932280,1,"17/10/2023 14:55:32",147682,3,"task-gjqt",NA,32292271,9550288,NA,"complete",NA,NA,"computer","Desktop or Laptop","Windows 10","Chrome 118.0.0.0","1920x1080","1920x941",NA,NA,0,"BIQ (Charlotte)",3,"HIGJFAEBDC","Passed AC2",NA,"Spreadsheet1",NA,"","","",NA,"5","END",NA,NA,NA,NA,NA,NA,0,NA,NA,NA,NA,"","",NA,"","",NA,"SUPPRF71510"
"1",1697565799858,"17/10/2023 18:03:19",1697551399858,-4,"17/10/2023 10:03:19",147682,3,"task-gjqt",NA,32292808,9550439,NA,"complete",NA,NA,"computer","Desktop or Laptop","Mac OS 10.15.7","Chrome 118.0.0.0","1440x900","1440x705",NA,NA,0,"BIQ (Charlotte)",3,"IJHAGBFCED","Passed AC2",NA,"Spreadsheet1",NA,"","","",NA,"5","BEGIN",NA,NA,NA,NA,NA,NA,0,NA,NA,NA,NA,"","",NA,"","",NA,"SUPPRF51583"
"2",1697565821720,"17/10/2023 18:03:41",1697551421720,-4,"17/10/2023 10:03:41",147682,3,"task-gjqt",NA,32292808,9550439,NA,"complete",NA,NA,"computer","Desktop or Laptop","Mac OS 10.15.7","Chrome 118.0.0.0","1440x900","1440x705",NA,NA,0,"BIQ (Charlotte)",3,"IJHAGBFCED","Passed AC2",NA,"Spreadsheet1",1,"BIQ","Screen 1","9dh6eq",1,"continue","",21873.6489999285,21866.596,21873.6489999285,21873.6489999285,21866.596,21873.6489999285,1,21873.6489999285,0,0,NA,"Click To Continue","Continue Button",23,"object-48","BIQ",NA,"SUPPRF51583"
"3",1697565821723,"17/10/2023 18:03:41",1697551421723,-4,"17/10/2023 10:03:41",147682,3,"task-gjqt",NA,32292808,9550439,NA,"complete",NA,NA,"computer","Desktop or Laptop","Mac OS 10.15.7","Chrome 118.0.0.0","1440x900","1440x705",NA,NA,0,"BIQ (Charlotte)",3,"IJHAGBFCED","Passed AC2",NA,"Spreadsheet1",1,"BIQ","Screen 1","9dh6eq",1,"response","7",10716.634,21866.596,21877.949,10716.634,21866.596,21877.949,1,10716.634,11161.315,0,NA,"Rating Scale","Rating Scale",3,"object-5","BIQ",NA,"SUPPRF51583"
"4",1697565821724,"17/10/2023 18:03:41",1697551421724,-4,"17/10/2023 10:03:41",147682,3,"task-gjqt",NA,32292808,9550439,NA,"complete",NA,NA,"computer","Desktop or Laptop","Mac OS 10.15.7","Chrome 118.0.0.0","1440x900","1440x705",NA,NA,0,"BIQ (Charlotte)",3,"IJHAGBFCED","Passed AC2",NA,"Spreadsheet1",1,"BIQ","Screen 1","9dh6eq",1,"response","4",16083.086,21866.596,21878.2489999523,16083.086,21866.596,21878.2489999523,1,16083.086,5795.16299995232,0,NA,"Rating Scale","Rating Scale",10,"object-18","BIQ",NA,"SUPPRF51583"
"5",1697565821724,"17/10/2023 18:03:41",1697551421724,-4,"17/10/2023 10:03:41",147682,3,"task-gjqt",NA,32292808,9550439,NA,"complete",NA,NA,"computer","Desktop or Laptop","Mac OS 10.15.7","Chrome 118.0.0.0","1440x900","1440x705",NA,NA,0,"BIQ (Charlotte)",3,"IJHAGBFCED","Passed AC2",NA,"Spreadsheet1",1,"BIQ","Screen 1","9dh6eq",1,"response","2",20949.966,21866.596,21878.5490000238,20949.966,21866.596,21878.5490000238,1,20949.966,928.583000023842,0,NA,"Rating Scale","Rating Scale",17,"object-80","BIQ",NA,"SUPPRF51583"
"6",1697565846802,"17/10/2023 18:04:06",1697551446802,-4,"17/10/2023 10:04:06",147682,3,"task-gjqt",NA,32292808,9550439,NA,"complete",NA,NA,"computer","Desktop or Laptop","Mac OS 10.15.7","Chrome 118.0.0.0","1440x900","1440x705",NA,NA,0,"BIQ (Charlotte)",3,"IJHAGBFCED","Passed AC2",NA,"Spreadsheet1",1,"BIQ","Screen 2","o21mwi",2,"continue","",25089.6529999523,25083.554,25089.6529999523,25089.6529999523,25083.554,25089.6529999523,1,25089.6529999523,0,0,NA,"Click To Continue","Continue Button",22,"object-50","BIQ",NA,"SUPPRF51583"
"7",1697565846805,"17/10/2023 18:04:06",1697551446805,-4,"17/10/2023 10:04:06",147682,3,"task-gjqt",NA,32292808,9550439,NA,"complete",NA,NA,"computer","Desktop or Laptop","Mac OS 10.15.7","Chrome 118.0.0.0","1440x900","1440x705",NA,NA,0,"BIQ (Charlotte)",3,"IJHAGBFCED","Passed AC2",NA,"Spreadsheet1",1,"BIQ","Screen 2","o21mwi",2,"response","6",5333.523,25083.554,25093.0529999285,5333.523,25083.554,25093.0529999285,1,5333.523,19759.5299999285,0,NA,"Rating Scale","Rating Scale",2,"object-259","BIQ",NA,"SUPPRF51583"
"8",1697565846805,"17/10/2023 18:04:06",1697551446805,-4,"17/10/2023 10:04:06",147682,3,"task-gjqt",NA,32292808,9550439,NA,"complete",NA,NA,"computer","Desktop or Laptop","Mac OS 10.15.7","Chrome 118.0.0.0","1440x900","1440x705",NA,NA,0,"BIQ (Charlotte)",3,"IJHAGBFCED","Passed AC2",NA,"Spreadsheet1",1,"BIQ","Screen 2","o21mwi",2,"response","2",11316.617,25083.554,25093.4530000238,11316.617,25083.554,25093.4530000238,1,11316.617,13776.8360000238,0,NA,"Rating Scale","Rating Scale",9,"object-36","BIQ",NA,"SUPPRF51583"
"9",1697565846806,"17/10/2023 18:04:06",1697551446806,-4,"17/10/2023 10:04:06",147682,3,"task-gjqt",NA,32292808,9550439,NA,"complete",NA,NA,"computer","Desktop or Laptop","Mac OS 10.15.7","Chrome 118.0.0.0","1440x900","1440x705",NA,NA,0,"BIQ (Charlotte)",3,"IJHAGBFCED","Passed AC2",NA,"Spreadsheet1",1,"BIQ","Screen 2","o21mwi",2,"response","3",24166.506,25083.554,25094.0529999285,24166.506,25083.554,25094.0529999285,1,24166.506,927.546999928476,0,NA,"Rating Scale","Rating Scale",16,"object-86","BIQ",NA,"SUPPRF51583"
"10",1697565857868,"17/10/2023 18:04:17",1697551457868,-4,"17/10/2023 10:04:17",147682,3,"task-gjqt",NA,32292808,9550439,NA,"complete",NA,NA,"computer","Desktop or Laptop","Mac OS 10.15.7","Chrome 118.0.0.0","1440x900","1440x705",NA,NA,0,"BIQ (Charlotte)",3,"IJHAGBFCED","Passed AC2",NA,"Spreadsheet1",1,"BIQ","Screen 3","iz3the",3,"continue","",11072.299,11066.616,11072.299,11072.299,11066.616,11072.299,1,11072.299,0,0,NA,"Click To Continue","Continue Button",22,"object-73","BIQ",NA,"SUPPRF51583"
"11",1697565857871,"17/10/2023 18:04:17",1697551457871,-4,"17/10/2023 10:04:17",147682,3,"task-gjqt",NA,32292808,9550439,NA,"complete",NA,NA,"computer","Desktop or Laptop","Mac OS 10.15.7","Chrome 118.0.0.0","1440x900","1440x705",NA,NA,0,"BIQ (Charlotte)",3,"IJHAGBFCED","Passed AC2",NA,"Spreadsheet1",1,"BIQ","Screen 3","iz3the",3,"response","0",4649.814,11066.616,11075.6989999762,4649.814,11066.616,11075.6989999762,1,4649.814,6425.88499997616,0,NA,"Rating Scale","Rating Scale",2,"object-53","BIQ",NA,"SUPPRF51583"
"12",1697565857872,"17/10/2023 18:04:17",1697551457872,-4,"17/10/2023 10:04:17",147682,3,"task-gjqt",NA,32292808,9550439,NA,"complete",NA,NA,"computer","Desktop or Laptop","Mac OS 10.15.7","Chrome 118.0.0.0","1440x900","1440x705",NA,NA,0,"BIQ (Charlotte)",3,"IJHAGBFCED","Passed AC2",NA,"Spreadsheet1",1,"BIQ","Screen 3","iz3the",3,"response","2",7983.014,11066.616,11076.1989999762,7983.014,11066.616,11076.1989999762,1,7983.014,3093.18499997616,0,NA,"Rating Scale","Rating Scale",9,"object-60","BIQ",NA,"SUPPRF51583"
"13",1697565857872,"17/10/2023 18:04:17",1697551457872,-4,"17/10/2023 10:04:17",147682,3,"task-gjqt",NA,32292808,9550439,NA,"complete",NA,NA,"computer","Desktop or Laptop","Mac OS 10.15.7","Chrome 118.0.0.0","1440x900","1440x705",NA,NA,0,"BIQ (Charlotte)",3,"IJHAGBFCED","Passed AC2",NA,"Spreadsheet1",1,"BIQ","Screen 3","iz3the",3,"response","3",10249.982,11066.616,11076.5989999523,10249.982,11066.616,11076.5989999523,1,10249.982,826.616999952319,0,NA,"Rating Scale","Rating Scale",16,"object-67","BIQ",NA,"SUPPRF51583"
"14",1697565857877,"17/10/2023 18:04:17",1697551457877,-4,"17/10/2023 10:04:17",147682,3,"task-gjqt",NA,32292808,9550439,NA,"complete",NA,NA,"computer","Desktop or Laptop","Mac OS 10.15.7","Chrome 118.0.0.0","1440x900","1440x705",NA,NA,0,"BIQ (Charlotte)",3,"IJHAGBFCED","Passed AC2",NA,"Spreadsheet1",NA,"","","",NA,"5","END",NA,NA,NA,NA,NA,NA,0,NA,NA,NA,NA,"","",NA,"","",NA,"SUPPRF51583"
"1",1697566876105,"17/10/2023 18:21:16",1697552476105,-4,"17/10/2023 10:21:16",147682,3,"task-gjqt",NA,32293730,9550543,NA,"complete",NA,NA,"computer","Desktop or Laptop","Mac OS 10.15.7","Chrome 117.0.0.0","1440x900","1440x733",NA,NA,0,"BIQ (Charlotte)",3,"ABJCIDHEGF","Passed AC2",NA,"Spreadsheet1",NA,"","","",NA,"5","BEGIN",NA,NA,NA,NA,NA,NA,0,NA,NA,NA,NA,"","",NA,"","",NA,"SUPPRF16716"
"2",1697566901195,"17/10/2023 18:21:41",1697552501195,-4,"17/10/2023 10:21:41",147682,3,"task-gjqt",NA,32293730,9550543,NA,"complete",NA,NA,"computer","Desktop or Laptop","Mac OS 10.15.7","Chrome 117.0.0.0","1440x900","1440x733",NA,NA,0,"BIQ (Charlotte)",3,"ABJCIDHEGF","Passed AC2",NA,"Spreadsheet1",1,"BIQ","Screen 1","9dh6eq",1,"continue","",25103.959,25087.29,25103.959,25103.959,25087.29,25103.959,1,25103.959,0,0,NA,"Click To Continue","Continue Button",23,"object-48","BIQ",NA,"SUPPRF16716"
"3",1697566901197,"17/10/2023 18:21:41",1697552501197,-4,"17/10/2023 10:21:41",147682,3,"task-gjqt",NA,32293730,9550543,NA,"complete",NA,NA,"computer","Desktop or Laptop","Mac OS 10.15.7","Chrome 117.0.0.0","1440x900","1440x733",NA,NA,0,"BIQ (Charlotte)",3,"ABJCIDHEGF","Passed AC2",NA,"Spreadsheet1",1,"BIQ","Screen 1","9dh6eq",1,"response","2",14252.217,25087.29,25103.959,14252.217,25087.29,25103.959,1,14252.217,10851.742,0,NA,"Rating Scale","Rating Scale",3,"object-5","BIQ",NA,"SUPPRF16716"
"4",1697566901198,"17/10/2023 18:21:41",1697552501198,-4,"17/10/2023 10:21:41",147682,3,"task-gjqt",NA,32293730,9550543,NA,"complete",NA,NA,"computer","Desktop or Laptop","Mac OS 10.15.7","Chrome 117.0.0.0","1440x900","1440x733",NA,NA,0,"BIQ (Charlotte)",3,"ABJCIDHEGF","Passed AC2",NA,"Spreadsheet1",1,"BIQ","Screen 1","9dh6eq",1,"response","2",20336.625,25087.29,25103.959,20336.625,25087.29,25103.959,1,20336.625,4767.334,0,NA,"Rating Scale","Rating Scale",10,"object-18","BIQ",NA,"SUPPRF16716"
"5",1697566901198,"17/10/2023 18:21:41",1697552501198,-4,"17/10/2023 10:21:41",147682,3,"task-gjqt",NA,32293730,9550543,NA,"complete",NA,NA,"computer","Desktop or Laptop","Mac OS 10.15.7","Chrome 117.0.0.0","1440x900","1440x733",NA,NA,0,"BIQ (Charlotte)",3,"ABJCIDHEGF","Passed AC2",NA,"Spreadsheet1",1,"BIQ","Screen 1","9dh6eq",1,"response","8",24203.833,25087.29,25103.959,24203.833,25087.29,25103.959,1,24203.833,900.126000000004,0,NA,"Rating Scale","Rating Scale",17,"object-80","BIQ",NA,"SUPPRF16716"
"6",1697566923262,"17/10/2023 18:22:03",1697552523262,-4,"17/10/2023 10:22:03",147682,3,"task-gjqt",NA,32293730,9550543,NA,"complete",NA,NA,"computer","Desktop or Laptop","Mac OS 10.15.7","Chrome 117.0.0.0","1440x900","1440x733",NA,NA,0,"BIQ (Charlotte)",3,"ABJCIDHEGF","Passed AC2",NA,"Spreadsheet1",1,"BIQ","Screen 2","o21mwi",2,"continue","",22087.093,22070.424,22087.093,22087.093,22070.424,22087.093,1,22087.093,0,0,NA,"Click To Continue","Continue Button",22,"object-50","BIQ",NA,"SUPPRF16716"
"7",1697566923264,"17/10/2023 18:22:03",1697552523264,-4,"17/10/2023 10:22:03",147682,3,"task-gjqt",NA,32293730,9550543,NA,"complete",NA,NA,"computer","Desktop or Laptop","Mac OS 10.15.7","Chrome 117.0.0.0","1440x900","1440x733",NA,NA,0,"BIQ (Charlotte)",3,"ABJCIDHEGF","Passed AC2",NA,"Spreadsheet1",1,"BIQ","Screen 2","o21mwi",2,"response","3",9484.884,22070.424,22087.093,9484.884,22070.424,22087.093,1,9484.884,12602.209,0,NA,"Rating Scale","Rating Scale",2,"object-259","BIQ",NA,"SUPPRF16716"
"8",1697566923265,"17/10/2023 18:22:03",1697552523265,-4,"17/10/2023 10:22:03",147682,3,"task-gjqt",NA,32293730,9550543,NA,"complete",NA,NA,"computer","Desktop or Laptop","Mac OS 10.15.7","Chrome 117.0.0.0","1440x900","1440x733",NA,NA,0,"BIQ (Charlotte)",3,"ABJCIDHEGF","Passed AC2",NA,"Spreadsheet1",1,"BIQ","Screen 2","o21mwi",2,"response","8",15135.898,22070.424,22087.093,15135.898,22070.424,22087.093,1,15135.898,6951.19500000001,0,NA,"Rating Scale","Rating Scale",9,"object-36","BIQ",NA,"SUPPRF16716"
"9",1697566923265,"17/10/2023 18:22:03",1697552523265,-4,"17/10/2023 10:22:03",147682,3,"task-gjqt",NA,32293730,9550543,NA,"complete",NA,NA,"computer","Desktop or Laptop","Mac OS 10.15.7","Chrome 117.0.0.0","1440x900","1440x733",NA,NA,0,"BIQ (Charlotte)",3,"ABJCIDHEGF","Passed AC2",NA,"Spreadsheet1",1,"BIQ","Screen 2","o21mwi",2,"response","8",21353.435,22070.424,22087.093,21353.435,22070.424,22087.093,1,21353.435,733.658000000003,0,NA,"Rating Scale","Rating Scale",16,"object-86","BIQ",NA,"SUPPRF16716"
"10",1697566935280,"17/10/2023 18:22:15",1697552535280,-4,"17/10/2023 10:22:15",147682,3,"task-gjqt",NA,32293730,9550543,NA,"complete",NA,NA,"computer","Desktop or Laptop","Mac OS 10.15.7","Chrome 117.0.0.0","1440x900","1440x733",NA,NA,0,"BIQ (Charlotte)",3,"ABJCIDHEGF","Passed AC2",NA,"Spreadsheet1",1,"BIQ","Screen 3","iz3the",3,"continue","",12037.7560000477,12035.241,12037.7560000477,12037.7560000477,12035.241,12037.7560000477,1,12037.7560000477,0,0,NA,"Click To Continue","Continue Button",22,"object-73","BIQ",NA,"SUPPRF16716"
"11",1697566935283,"17/10/2023 18:22:15",1697552535283,-4,"17/10/2023 10:22:15",147682,3,"task-gjqt",NA,32293730,9550543,NA,"complete",NA,NA,"computer","Desktop or Laptop","Mac OS 10.15.7","Chrome 117.0.0.0","1440x900","1440x733",NA,NA,0,"BIQ (Charlotte)",3,"ABJCIDHEGF","Passed AC2",NA,"Spreadsheet1",1,"BIQ","Screen 3","iz3the",3,"response","6",5284.073,12035.241,12040.7560000477,5284.073,12035.241,12040.7560000477,1,5284.073,6756.68300004768,0,NA,"Rating Scale","Rating Scale",2,"object-53","BIQ",NA,"SUPPRF16716"
"12",1697566935283,"17/10/2023 18:22:15",1697552535283,-4,"17/10/2023 10:22:15",147682,3,"task-gjqt",NA,32293730,9550543,NA,"complete",NA,NA,"computer","Desktop or Laptop","Mac OS 10.15.7","Chrome 117.0.0.0","1440x900","1440x733",NA,NA,0,"BIQ (Charlotte)",3,"ABJCIDHEGF","Passed AC2",NA,"Spreadsheet1",1,"BIQ","Screen 3","iz3the",3,"response","7",9284.63299999999,12035.241,12041.2560000477,9284.63299999999,12035.241,12041.2560000477,1,9284.63299999999,2756.62300004769,0,NA,"Rating Scale","Rating Scale",9,"object-60","BIQ",NA,"SUPPRF16716"
"13",1697566935284,"17/10/2023 18:22:15",1697552535284,-4,"17/10/2023 10:22:15",147682,3,"task-gjqt",NA,32293730,9550543,NA,"complete",NA,NA,"computer","Desktop or Laptop","Mac OS 10.15.7","Chrome 117.0.0.0","1440x900","1440x733",NA,NA,0,"BIQ (Charlotte)",3,"ABJCIDHEGF","Passed AC2",NA,"Spreadsheet1",1,"BIQ","Screen 3","iz3the",3,"response","8",11335.143,12035.241,12041.6559999046,11335.143,12035.241,12041.6559999046,1,11335.143,706.512999904633,0,NA,"Rating Scale","Rating Scale",16,"object-67","BIQ",NA,"SUPPRF16716"
"14",1697566935288,"17/10/2023 18:22:15",1697552535288,-4,"17/10/2023 10:22:15",147682,3,"task-gjqt",NA,32293730,9550543,NA,"complete",NA,NA,"computer","Desktop or Laptop","Mac OS 10.15.7","Chrome 117.0.0.0","1440x900","1440x733",NA,NA,0,"BIQ (Charlotte)",3,"ABJCIDHEGF","Passed AC2",NA,"Spreadsheet1",NA,"","","",NA,"5","END",NA,NA,NA,NA,NA,NA,0,NA,NA,NA,NA,"","",NA,"","",NA,"SUPPRF16716"
"1",1697576932586,"17/10/2023 21:08:52",1697562532586,-4,"17/10/2023 13:08:52",147682,3,"task-gjqt",NA,32306732,9553290,NA,"rejected - time limit reached",NA,NA,"computer","Desktop or Laptop","Windows 10","Chrome 117.0.0.0","1280x720","1280x610",NA,NA,0,"BIQ (Charlotte)",3,"DECFBGAHJI","Passed AC2",NA,"Spreadsheet1",NA,"","","",NA,"5","BEGIN",NA,NA,NA,NA,NA,NA,0,NA,NA,NA,NA,"","",NA,"","",NA,"SUPPRF34589"
"2",1697576948024,"17/10/2023 21:09:08",1697562548024,-4,"17/10/2023 13:09:08",147682,3,"task-gjqt",NA,32306732,9553290,NA,"rejected - time limit reached",NA,NA,"computer","Desktop or Laptop","Windows 10","Chrome 117.0.0.0","1280x720","1280x610",NA,NA,0,"BIQ (Charlotte)",3,"DECFBGAHJI","Passed AC2",NA,"Spreadsheet1",1,"BIQ","Screen 1","9dh6eq",1,"continue","",15447.6910000119,15433.053,15447.6910000119,15447.6910000119,15433.053,15447.6910000119,1,15447.6910000119,0,0,NA,"Click To Continue","Continue Button",23,"object-48","BIQ",NA,"SUPPRF34589"
"3",1697576948026,"17/10/2023 21:09:08",1697562548026,-4,"17/10/2023 13:09:08",147682,3,"task-gjqt",NA,32306732,9553290,NA,"rejected - time limit reached",NA,NA,"computer","Desktop or Laptop","Windows 10","Chrome 117.0.0.0","1280x720","1280x610",NA,NA,0,"BIQ (Charlotte)",3,"DECFBGAHJI","Passed AC2",NA,"Spreadsheet1",1,"BIQ","Screen 1","9dh6eq",1,"response","7",9083.179,15433.053,15449.706,9083.179,15433.053,15449.706,1,9083.179,6366.527,0,NA,"Rating Scale","Rating Scale",3,"object-5","BIQ",NA,"SUPPRF34589"
"4",1697576948027,"17/10/2023 21:09:08",1697562548027,-4,"17/10/2023 13:09:08",147682,3,"task-gjqt",NA,32306732,9553290,NA,"rejected - time limit reached",NA,NA,"computer","Desktop or Laptop","Windows 10","Chrome 117.0.0.0","1280x720","1280x610",NA,NA,0,"BIQ (Charlotte)",3,"DECFBGAHJI","Passed AC2",NA,"Spreadsheet1",1,"BIQ","Screen 1","9dh6eq",1,"response","3",12549.774,15433.053,15449.706,12549.774,15433.053,15449.706,1,12549.774,2899.932,0,NA,"Rating Scale","Rating Scale",10,"object-18","BIQ",NA,"SUPPRF34589"
"5",1697576948027,"17/10/2023 21:09:08",1697562548027,-4,"17/10/2023 13:09:08",147682,3,"task-gjqt",NA,32306732,9553290,NA,"rejected - time limit reached",NA,NA,"computer","Desktop or Laptop","Windows 10","Chrome 117.0.0.0","1280x720","1280x610",NA,NA,0,"BIQ (Charlotte)",3,"DECFBGAHJI","Passed AC2",NA,"Spreadsheet1",1,"BIQ","Screen 1","9dh6eq",1,"response","6",13733.082,15433.053,15449.706,13733.082,15433.053,15449.706,1,13733.082,1716.624,0,NA,"Rating Scale","Rating Scale",17,"object-80","BIQ",NA,"SUPPRF34589"
"6",1697576955900,"17/10/2023 21:09:15",1697562555900,-4,"17/10/2023 13:09:15",147682,3,"task-gjqt",NA,32306732,9553290,NA,"rejected - time limit reached",NA,NA,"computer","Desktop or Laptop","Windows 10","Chrome 117.0.0.0","1280x720","1280x610",NA,NA,0,"BIQ (Charlotte)",3,"DECFBGAHJI","Passed AC2",NA,"Spreadsheet1",1,"BIQ","Screen 2","o21mwi",2,"continue","",7891.23800003576,7883.182,7891.23800003576,7891.23800003576,7883.182,7891.23800003576,1,7891.23800003576,0,0,NA,"Click To Continue","Continue Button",22,"object-50","BIQ",NA,"SUPPRF34589"
"7",1697576955900,"17/10/2023 21:09:15",1697562555900,-4,"17/10/2023 13:09:15",147682,3,"task-gjqt",NA,32306732,9553290,NA,"rejected - time limit reached",NA,NA,"computer","Desktop or Laptop","Windows 10","Chrome 117.0.0.0","1280x720","1280x610",NA,NA,0,"BIQ (Charlotte)",3,"DECFBGAHJI","Passed AC2",NA,"Spreadsheet1",1,"BIQ","Screen 2","o21mwi",2,"response","4",4383.269,7883.182,7891.63800001192,4383.269,7883.182,7891.63800001192,1,4383.269,3508.36900001192,0,NA,"Rating Scale","Rating Scale",2,"object-259","BIQ",NA,"SUPPRF34589"
"8",1697576955900,"17/10/2023 21:09:15",1697562555900,-4,"17/10/2023 13:09:15",147682,3,"task-gjqt",NA,32306732,9553290,NA,"rejected - time limit reached",NA,NA,"computer","Desktop or Laptop","Windows 10","Chrome 117.0.0.0","1280x720","1280x610",NA,NA,0,"BIQ (Charlotte)",3,"DECFBGAHJI","Passed AC2",NA,"Spreadsheet1",1,"BIQ","Screen 2","o21mwi",2,"response","3",5333.244,7883.182,7892.03799998808,5333.244,7883.182,7892.03799998808,1,5333.244,2558.79399998808,0,NA,"Rating Scale","Rating Scale",9,"object-36","BIQ",NA,"SUPPRF34589"
"9",1697576955901,"17/10/2023 21:09:15",1697562555901,-4,"17/10/2023 13:09:15",147682,3,"task-gjqt",NA,32306732,9553290,NA,"rejected - time limit reached",NA,NA,"computer","Desktop or Laptop","Windows 10","Chrome 117.0.0.0","1280x720","1280x610",NA,NA,0,"BIQ (Charlotte)",3,"DECFBGAHJI","Passed AC2",NA,"Spreadsheet1",1,"BIQ","Screen 2","o21mwi",2,"response","5",6833.099,7883.182,7892.53799998808,6833.099,7883.182,7892.53799998808,1,6833.099,1059.43899998808,0,NA,"Rating Scale","Rating Scale",16,"object-86","BIQ",NA,"SUPPRF34589"
"10",1697576963724,"17/10/2023 21:09:23",1697562563724,-4,"17/10/2023 13:09:23",147682,3,"task-gjqt",NA,32306732,9553290,NA,"rejected - time limit reached",NA,NA,"computer","Desktop or Laptop","Windows 10","Chrome 117.0.0.0","1280x720","1280x610",NA,NA,0,"BIQ (Charlotte)",3,"DECFBGAHJI","Passed AC2",NA,"Spreadsheet1",1,"BIQ","Screen 3","iz3the",3,"continue","",7832.05600003576,7816.519,7832.05600003576,7832.05600003576,7816.519,7832.05600003576,1,7832.05600003576,0,0,NA,"Click To Continue","Continue Button",22,"object-73","BIQ",NA,"SUPPRF34589"
"11",1697576963727,"17/10/2023 21:09:23",1697562563727,-4,"17/10/2023 13:09:23",147682,3,"task-gjqt",NA,32306732,9553290,NA,"rejected - time limit reached",NA,NA,"computer","Desktop or Laptop","Windows 10","Chrome 117.0.0.0","1280x720","1280x610",NA,NA,0,"BIQ (Charlotte)",3,"DECFBGAHJI","Passed AC2",NA,"Spreadsheet1",1,"BIQ","Screen 3","iz3the",3,"response","5",3149.922,7816.519,7833.174,3149.922,7816.519,7833.174,1,3149.922,4683.252,0,NA,"Rating Scale","Rating Scale",2,"object-53","BIQ",NA,"SUPPRF34589"
"12",1697576963728,"17/10/2023 21:09:23",1697562563728,-4,"17/10/2023 13:09:23",147682,3,"task-gjqt",NA,32306732,9553290,NA,"rejected - time limit reached",NA,NA,"computer","Desktop or Laptop","Windows 10","Chrome 117.0.0.0","1280x720","1280x610",NA,NA,0,"BIQ (Charlotte)",3,"DECFBGAHJI","Passed AC2",NA,"Spreadsheet1",1,"BIQ","Screen 3","iz3the",3,"response","6",4399.913,7816.519,7833.174,4399.913,7816.519,7833.174,1,4399.913,3433.26099999999,0,NA,"Rating Scale","Rating Scale",9,"object-60","BIQ",NA,"SUPPRF34589"
"13",1697576963729,"17/10/2023 21:09:23",1697562563729,-4,"17/10/2023 13:09:23",147682,3,"task-gjqt",NA,32306732,9553290,NA,"rejected - time limit reached",NA,NA,"computer","Desktop or Laptop","Windows 10","Chrome 117.0.0.0","1280x720","1280x610",NA,NA,0,"BIQ (Charlotte)",3,"DECFBGAHJI","Passed AC2",NA,"Spreadsheet1",1,"BIQ","Screen 3","iz3the",3,"response","4",5683.24,7816.519,7833.174,5683.24,7816.519,7833.174,1,5683.24,2149.934,0,NA,"Rating Scale","Rating Scale",16,"object-67","BIQ",NA,"SUPPRF34589"
"14",1697576963734,"17/10/2023 21:09:23",1697562563734,-4,"17/10/2023 13:09:23",147682,3,"task-gjqt",NA,32306732,9553290,NA,"rejected - time limit reached",NA,NA,"computer","Desktop or Laptop","Windows 10","Chrome 117.0.0.0","1280x720","1280x610",NA,NA,0,"BIQ (Charlotte)",3,"DECFBGAHJI","Passed AC2",NA,"Spreadsheet1",NA,"","","",NA,"5","END",NA,NA,NA,NA,NA,NA,0,NA,NA,NA,NA,"","",NA,"","",NA,"SUPPRF34589"
"1",1697560263224,"17/10/2023 16:31:03",1697563863224,1,"17/10/2023 18:31:03",147682,3,"task-gjqt",NA,32310071,9554018,NA,"rejected - time limit reached",NA,NA,"computer","Desktop or Laptop","Windows 10","Chrome 117.0.0.0","1280x720","1280x563",NA,NA,0,"BIQ (Charlotte)",3,"EFDGCHBIAJ","Passed AC2",NA,"Spreadsheet1",NA,"","","",NA,"5","BEGIN",NA,NA,NA,NA,NA,NA,0,NA,NA,NA,NA,"","",NA,"","",NA,"SUPPRF08202"
"2",1697560292233,"17/10/2023 16:31:32",1697563892233,1,"17/10/2023 18:31:32",147682,3,"task-gjqt",NA,32310071,9554018,NA,"rejected - time limit reached",NA,NA,"computer","Desktop or Laptop","Windows 10","Chrome 117.0.0.0","1280x720","1280x563",NA,NA,0,"BIQ (Charlotte)",3,"EFDGCHBIAJ","Passed AC2",NA,"Spreadsheet1",1,"BIQ","Screen 1","9dh6eq",1,"continue","",29015.434,28998.593,29015.434,29015.434,28998.593,29015.434,1,29015.434,0,0,NA,"Click To Continue","Continue Button",23,"object-48","BIQ",NA,"SUPPRF08202"
"3",1697560292236,"17/10/2023 16:31:32",1697563892236,1,"17/10/2023 18:31:32",147682,3,"task-gjqt",NA,32310071,9554018,NA,"rejected - time limit reached",NA,NA,"computer","Desktop or Laptop","Windows 10","Chrome 117.0.0.0","1280x720","1280x563",NA,NA,0,"BIQ (Charlotte)",3,"EFDGCHBIAJ","Passed AC2",NA,"Spreadsheet1",1,"BIQ","Screen 1","9dh6eq",1,"response","5",13349.318,28998.593,29015.434,13349.318,28998.593,29015.434,1,13349.318,15666.116,0,NA,"Rating Scale","Rating Scale",3,"object-5","BIQ",NA,"SUPPRF08202"
"4",1697560292237,"17/10/2023 16:31:32",1697563892237,1,"17/10/2023 18:31:32",147682,3,"task-gjqt",NA,32310071,9554018,NA,"rejected - time limit reached",NA,NA,"computer","Desktop or Laptop","Windows 10","Chrome 117.0.0.0","1280x720","1280x563",NA,NA,0,"BIQ (Charlotte)",3,"EFDGCHBIAJ","Passed AC2",NA,"Spreadsheet1",1,"BIQ","Screen 1","9dh6eq",1,"response","5",22065.531,28998.593,29015.434,22065.531,28998.593,29015.434,1,22065.531,6949.903,0,NA,"Rating Scale","Rating Scale",10,"object-18","BIQ",NA,"SUPPRF08202"
"5",1697560292237,"17/10/2023 16:31:32",1697563892237,1,"17/10/2023 18:31:32",147682,3,"task-gjqt",NA,32310071,9554018,NA,"rejected - time limit reached",NA,NA,"computer","Desktop or Laptop","Windows 10","Chrome 117.0.0.0","1280x720","1280x563",NA,NA,0,"BIQ (Charlotte)",3,"EFDGCHBIAJ","Passed AC2",NA,"Spreadsheet1",1,"BIQ","Screen 1","9dh6eq",1,"response","4",27898.593,28998.593,29015.434,27898.593,28998.593,29015.434,1,27898.593,1116.841,0,NA,"Rating Scale","Rating Scale",17,"object-80","BIQ",NA,"SUPPRF08202"
"6",1697560317382,"17/10/2023 16:31:57",1697563917382,1,"17/10/2023 18:31:57",147682,3,"task-gjqt",NA,32310071,9554018,NA,"rejected - time limit reached",NA,NA,"computer","Desktop or Laptop","Windows 10","Chrome 117.0.0.0","1280x720","1280x563",NA,NA,0,"BIQ (Charlotte)",3,"EFDGCHBIAJ","Passed AC2",NA,"Spreadsheet1",1,"BIQ","Screen 2","o21mwi",2,"continue","",25169.024,25165.182,25169.024,25169.024,25165.182,25169.024,1,25169.024,0,0,NA,"Click To Continue","Continue Button",22,"object-50","BIQ",NA,"SUPPRF08202"
"7",1697560317386,"17/10/2023 16:31:57",1697563917386,1,"17/10/2023 18:31:57",147682,3,"task-gjqt",NA,32310071,9554018,NA,"rejected - time limit reached",NA,NA,"computer","Desktop or Laptop","Windows 10","Chrome 117.0.0.0","1280x720","1280x563",NA,NA,0,"BIQ (Charlotte)",3,"EFDGCHBIAJ","Passed AC2",NA,"Spreadsheet1",1,"BIQ","Screen 2","o21mwi",2,"response","5",10282.481,25165.182,25173.8240000119,10282.481,25165.182,25173.8240000119,1,10282.481,14891.3430000119,0,NA,"Rating Scale","Rating Scale",2,"object-259","BIQ",NA,"SUPPRF08202"
"8",1697560317387,"17/10/2023 16:31:57",1697563917387,1,"17/10/2023 18:31:57",147682,3,"task-gjqt",NA,32310071,9554018,NA,"rejected - time limit reached",NA,NA,"computer","Desktop or Laptop","Windows 10","Chrome 117.0.0.0","1280x720","1280x563",NA,NA,0,"BIQ (Charlotte)",3,"EFDGCHBIAJ","Passed AC2",NA,"Spreadsheet1",1,"BIQ","Screen 2","o21mwi",2,"response","4",14232.344,25165.182,25174.524,14232.344,25165.182,25174.524,1,14232.344,10942.18,0,NA,"Rating Scale","Rating Scale",9,"object-36","BIQ",NA,"SUPPRF08202"
"9",1697560317388,"17/10/2023 16:31:57",1697563917388,1,"17/10/2023 18:31:57",147682,3,"task-gjqt",NA,32310071,9554018,NA,"rejected - time limit reached",NA,NA,"computer","Desktop or Laptop","Windows 10","Chrome 117.0.0.0","1280x720","1280x563",NA,NA,0,"BIQ (Charlotte)",3,"EFDGCHBIAJ","Passed AC2",NA,"Spreadsheet1",1,"BIQ","Screen 2","o21mwi",2,"response","5",23265.321,25165.182,25175.2239999881,23265.321,25165.182,25175.2239999881,1,23265.321,1909.90299998808,0,NA,"Rating Scale","Rating Scale",16,"object-86","BIQ",NA,"SUPPRF08202"
"10",1697560331190,"17/10/2023 16:32:11",1697563931190,1,"17/10/2023 18:32:11",147682,3,"task-gjqt",NA,32310071,9554018,NA,"rejected - time limit reached",NA,NA,"computer","Desktop or Laptop","Windows 10","Chrome 117.0.0.0","1280x720","1280x563",NA,NA,0,"BIQ (Charlotte)",3,"EFDGCHBIAJ","Passed AC2",NA,"Spreadsheet1",1,"BIQ","Screen 3","iz3the",3,"continue","",13812.2419999762,13799.168,13812.2419999762,13812.2419999762,13799.168,13812.2419999762,1,13812.2419999762,0,0,NA,"Click To Continue","Continue Button",22,"object-73","BIQ",NA,"SUPPRF08202"
"11",1697560331196,"17/10/2023 16:32:11",1697563931196,1,"17/10/2023 18:32:11",147682,3,"task-gjqt",NA,32310071,9554018,NA,"rejected - time limit reached",NA,NA,"computer","Desktop or Laptop","Windows 10","Chrome 117.0.0.0","1280x720","1280x563",NA,NA,0,"BIQ (Charlotte)",3,"EFDGCHBIAJ","Passed AC2",NA,"Spreadsheet1",1,"BIQ","Screen 3","iz3the",3,"response","2",4299.691,13799.168,13815.883,4299.691,13799.168,13815.883,1,4299.691,9516.192,0,NA,"Rating Scale","Rating Scale",2,"object-53","BIQ",NA,"SUPPRF08202"
"12",1697560331196,"17/10/2023 16:32:11",1697563931196,1,"17/10/2023 18:32:11",147682,3,"task-gjqt",NA,32310071,9554018,NA,"rejected - time limit reached",NA,NA,"computer","Desktop or Laptop","Windows 10","Chrome 117.0.0.0","1280x720","1280x563",NA,NA,0,"BIQ (Charlotte)",3,"EFDGCHBIAJ","Passed AC2",NA,"Spreadsheet1",1,"BIQ","Screen 3","iz3the",3,"response","2",10082.821,13799.168,13815.883,10082.821,13799.168,13815.883,1,10082.821,3733.062,0,NA,"Rating Scale","Rating Scale",9,"object-60","BIQ",NA,"SUPPRF08202"
"13",1697560331197,"17/10/2023 16:32:11",1697563931197,1,"17/10/2023 18:32:11",147682,3,"task-gjqt",NA,32310071,9554018,NA,"rejected - time limit reached",NA,NA,"computer","Desktop or Laptop","Windows 10","Chrome 117.0.0.0","1280x720","1280x563",NA,NA,0,"BIQ (Charlotte)",3,"EFDGCHBIAJ","Passed AC2",NA,"Spreadsheet1",1,"BIQ","Screen 3","iz3the",3,"response","4",11915.89,13799.168,13815.883,11915.89,13799.168,13815.883,1,11915.89,1899.993,0,NA,"Rating Scale","Rating Scale",16,"object-67","BIQ",NA,"SUPPRF08202"
"14",1697560331204,"17/10/2023 16:32:11",1697563931204,1,"17/10/2023 18:32:11",147682,3,"task-gjqt",NA,32310071,9554018,NA,"rejected - time limit reached",NA,NA,"computer","Desktop or Laptop","Windows 10","Chrome 117.0.0.0","1280x720","1280x563",NA,NA,0,"BIQ (Charlotte)",3,"EFDGCHBIAJ","Passed AC2",NA,"Spreadsheet1",NA,"","","",NA,"5","END",NA,NA,NA,NA,NA,NA,0,NA,NA,NA,NA,"","",NA,"","",NA,"SUPPRF08202"
"1",1697563321987,"17/10/2023 17:22:01",1697566921987,1,"17/10/2023 19:22:01",147682,3,"task-gjqt",NA,32312857,9554768,NA,"complete",NA,NA,"computer","Desktop or Laptop","Mac OS 10.15.7","Chrome 116.0.0.0","1440x900","1440x815",NA,NA,0,"BIQ (Charlotte)",3,"FGEHDICJBA","Passed AC2",NA,"Spreadsheet1",NA,"","","",NA,"5","BEGIN",NA,NA,NA,NA,NA,NA,0,NA,NA,NA,NA,"","",NA,"","",NA,"SUPPRF98941"
"2",1697563333518,"17/10/2023 17:22:13",1697566933518,1,"17/10/2023 19:22:13",147682,3,"task-gjqt",NA,32312857,9554768,NA,"complete",NA,NA,"computer","Desktop or Laptop","Mac OS 10.15.7","Chrome 116.0.0.0","1440x900","1440x815",NA,NA,0,"BIQ (Charlotte)",3,"FGEHDICJBA","Passed AC2",NA,"Spreadsheet1",1,"BIQ","Screen 1","9dh6eq",1,"continue","",11554.2590000358,11550.726,11554.2590000358,11554.2590000358,11550.726,11554.2590000358,1,11554.2590000358,0,0,NA,"Click To Continue","Continue Button",23,"object-48","BIQ",NA,"SUPPRF98941"
"3",1697563333521,"17/10/2023 17:22:13",1697566933521,1,"17/10/2023 19:22:13",147682,3,"task-gjqt",NA,32312857,9554768,NA,"complete",NA,NA,"computer","Desktop or Laptop","Mac OS 10.15.7","Chrome 116.0.0.0","1440x900","1440x815",NA,NA,0,"BIQ (Charlotte)",3,"FGEHDICJBA","Passed AC2",NA,"Spreadsheet1",1,"BIQ","Screen 1","9dh6eq",1,"response","6",4733.428,11550.726,11557.6590000119,4733.428,11550.726,11557.6590000119,1,4733.428,6824.23100001192,0,NA,"Rating Scale","Rating Scale",3,"object-5","BIQ",NA,"SUPPRF98941"
"4",1697563333522,"17/10/2023 17:22:13",1697566933522,1,"17/10/2023 19:22:13",147682,3,"task-gjqt",NA,32312857,9554768,NA,"complete",NA,NA,"computer","Desktop or Laptop","Mac OS 10.15.7","Chrome 116.0.0.0","1440x900","1440x815",NA,NA,0,"BIQ (Charlotte)",3,"FGEHDICJBA","Passed AC2",NA,"Spreadsheet1",1,"BIQ","Screen 1","9dh6eq",1,"response","4",8000.655,11550.726,11558.4590000238,8000.655,11550.726,11558.4590000238,1,8000.655,3557.80400002384,0,NA,"Rating Scale","Rating Scale",10,"object-18","BIQ",NA,"SUPPRF98941"
"5",1697563333523,"17/10/2023 17:22:13",1697566933523,1,"17/10/2023 19:22:13",147682,3,"task-gjqt",NA,32312857,9554768,NA,"complete",NA,NA,"computer","Desktop or Laptop","Mac OS 10.15.7","Chrome 116.0.0.0","1440x900","1440x815",NA,NA,0,"BIQ (Charlotte)",3,"FGEHDICJBA","Passed AC2",NA,"Spreadsheet1",1,"BIQ","Screen 1","9dh6eq",1,"response","4",10900.713,11550.726,11559.359,10900.713,11550.726,11559.359,1,10900.713,658.646000000001,0,NA,"Rating Scale","Rating Scale",17,"object-80","BIQ",NA,"SUPPRF98941"
"6",1697563343649,"17/10/2023 17:22:23",1697566943649,1,"17/10/2023 19:22:23",147682,3,"task-gjqt",NA,32312857,9554768,NA,"complete",NA,NA,"computer","Desktop or Laptop","Mac OS 10.15.7","Chrome 116.0.0.0","1440x900","1440x815",NA,NA,0,"BIQ (Charlotte)",3,"FGEHDICJBA","Passed AC2",NA,"Spreadsheet1",1,"BIQ","Screen 2","o21mwi",2,"continue","",10134.123,10117.456,10134.123,10134.123,10117.456,10134.123,1,10134.123,0,0,NA,"Click To Continue","Continue Button",22,"object-50","BIQ",NA,"SUPPRF98941"
"7",1697563343656,"17/10/2023 17:22:23",1697566943656,1,"17/10/2023 19:22:23",147682,3,"task-gjqt",NA,32312857,9554768,NA,"complete",NA,NA,"computer","Desktop or Laptop","Mac OS 10.15.7","Chrome 116.0.0.0","1440x900","1440x815",NA,NA,0,"BIQ (Charlotte)",3,"FGEHDICJBA","Passed AC2",NA,"Spreadsheet1",1,"BIQ","Screen 2","o21mwi",2,"response","4",3616.739,10117.456,10134.123,3616.739,10117.456,10134.123,1,3616.739,6517.384,0,NA,"Rating Scale","Rating Scale",2,"object-259","BIQ",NA,"SUPPRF98941"
"8",1697563343657,"17/10/2023 17:22:23",1697566943657,1,"17/10/2023 19:22:23",147682,3,"task-gjqt",NA,32312857,9554768,NA,"complete",NA,NA,"computer","Desktop or Laptop","Mac OS 10.15.7","Chrome 116.0.0.0","1440x900","1440x815",NA,NA,0,"BIQ (Charlotte)",3,"FGEHDICJBA","Passed AC2",NA,"Spreadsheet1",1,"BIQ","Screen 2","o21mwi",2,"response","5",6467.383,10117.456,10134.123,6467.383,10117.456,10134.123,1,6467.383,3666.74,0,NA,"Rating Scale","Rating Scale",9,"object-36","BIQ",NA,"SUPPRF98941"
"9",1697563343658,"17/10/2023 17:22:23",1697566943658,1,"17/10/2023 19:22:23",147682,3,"task-gjqt",NA,32312857,9554768,NA,"complete",NA,NA,"computer","Desktop or Laptop","Mac OS 10.15.7","Chrome 116.0.0.0","1440x900","1440x815",NA,NA,0,"BIQ (Charlotte)",3,"FGEHDICJBA","Passed AC2",NA,"Spreadsheet1",1,"BIQ","Screen 2","o21mwi",2,"response","5",9417.442,10117.456,10134.123,9417.442,10117.456,10134.123,1,9417.442,716.681,0,NA,"Rating Scale","Rating Scale",16,"object-86","BIQ",NA,"SUPPRF98941"
"10",1697563359418,"17/10/2023 17:22:39",1697566959418,1,"17/10/2023 19:22:39",147682,3,"task-gjqt",NA,32312857,9554768,NA,"complete",NA,NA,"computer","Desktop or Laptop","Mac OS 10.15.7","Chrome 116.0.0.0","1440x900","1440x815",NA,NA,0,"BIQ (Charlotte)",3,"FGEHDICJBA","Passed AC2",NA,"Spreadsheet1",1,"BIQ","Screen 3","iz3the",3,"continue","",15784.575,15767.908,15784.575,15784.575,15767.908,15784.575,1,15784.575,0,0,NA,"Click To Continue","Continue Button",22,"object-73","BIQ",NA,"SUPPRF98941"
"11",1697563359423,"17/10/2023 17:22:39",1697566959423,1,"17/10/2023 19:22:39",147682,3,"task-gjqt",NA,32312857,9554768,NA,"complete",NA,NA,"computer","Desktop or Laptop","Mac OS 10.15.7","Chrome 116.0.0.0","1440x900","1440x815",NA,NA,0,"BIQ (Charlotte)",3,"FGEHDICJBA","Passed AC2",NA,"Spreadsheet1",1,"BIQ","Screen 3","iz3the",3,"response","2",7367.209,15767.908,15784.575,7367.209,15767.908,15784.575,1,7367.209,8417.366,0,NA,"Rating Scale","Rating Scale",2,"object-53","BIQ",NA,"SUPPRF98941"
"12",1697563359425,"17/10/2023 17:22:39",1697566959425,1,"17/10/2023 19:22:39",147682,3,"task-gjqt",NA,32312857,9554768,NA,"complete",NA,NA,"computer","Desktop or Laptop","Mac OS 10.15.7","Chrome 116.0.0.0","1440x900","1440x815",NA,NA,0,"BIQ (Charlotte)",3,"FGEHDICJBA","Passed AC2",NA,"Spreadsheet1",1,"BIQ","Screen 3","iz3the",3,"response","6",10317.268,15767.908,15784.575,10317.268,15767.908,15784.575,1,10317.268,5467.307,0,NA,"Rating Scale","Rating Scale",9,"object-60","BIQ",NA,"SUPPRF98941"
"13",1697563359426,"17/10/2023 17:22:39",1697566959426,1,"17/10/2023 19:22:39",147682,3,"task-gjqt",NA,32312857,9554768,NA,"complete",NA,NA,"computer","Desktop or Laptop","Mac OS 10.15.7","Chrome 116.0.0.0","1440x900","1440x815",NA,NA,0,"BIQ (Charlotte)",3,"FGEHDICJBA","Passed AC2",NA,"Spreadsheet1",1,"BIQ","Screen 3","iz3the",3,"response","3",15051.227,15767.908,15784.575,15051.227,15767.908,15784.575,1,15051.227,733.347999999998,0,NA,"Rating Scale","Rating Scale",16,"object-67","BIQ",NA,"SUPPRF98941"
"14",1697563359429,"17/10/2023 17:22:39",1697566959429,1,"17/10/2023 19:22:39",147682,3,"task-gjqt",NA,32312857,9554768,NA,"complete",NA,NA,"computer","Desktop or Laptop","Mac OS 10.15.7","Chrome 116.0.0.0","1440x900","1440x815",NA,NA,0,"BIQ (Charlotte)",3,"FGEHDICJBA","Passed AC2",NA,"Spreadsheet1",NA,"","","",NA,"5","END",NA,NA,NA,NA,NA,NA,0,NA,NA,NA,NA,"","",NA,"","",NA,"SUPPRF98941"
"1",1697565059503,"17/10/2023 17:50:59",1697568659503,1,"17/10/2023 19:50:59",147682,3,"task-gjqt",NA,32314075,9555080,NA,"complete",NA,NA,"computer","Desktop or Laptop","Mac OS 10.15.7","Safari 15.4","1440x900","1440x820",NA,NA,0,"BIQ (Charlotte)",3,"GHFIEJDACB","Passed AC2",NA,"Spreadsheet1",NA,"","","",NA,"5","BEGIN",NA,NA,NA,NA,NA,NA,0,NA,NA,NA,NA,"","",NA,"","",NA,"SUPPRF73880"
"2",1697565103938,"17/10/2023 17:51:43",1697568703938,1,"17/10/2023 19:51:43",147682,3,"task-gjqt",NA,32314075,9555080,NA,"complete",NA,NA,"computer","Desktop or Laptop","Mac OS 10.15.7","Safari 15.4","1440x900","1440x820",NA,NA,0,"BIQ (Charlotte)",3,"GHFIEJDACB","Passed AC2",NA,"Spreadsheet1",1,"BIQ","Screen 1","9dh6eq",1,"continue","",44444,44428,44444,44444,44428,44444,1,44444,0,0,NA,"Click To Continue","Continue Button",23,"object-48","BIQ",NA,"SUPPRF73880"
"3",1697565103945,"17/10/2023 17:51:43",1697568703945,1,"17/10/2023 19:51:43",147682,3,"task-gjqt",NA,32314075,9555080,NA,"complete",NA,NA,"computer","Desktop or Laptop","Mac OS 10.15.7","Safari 15.4","1440x900","1440x820",NA,NA,0,"BIQ (Charlotte)",3,"GHFIEJDACB","Passed AC2",NA,"Spreadsheet1",1,"BIQ","Screen 1","9dh6eq",1,"response","6",26174,44428,44445,26174,44428,44445,1,26174,18271,0,NA,"Rating Scale","Rating Scale",3,"object-5","BIQ",NA,"SUPPRF73880"
"4",1697565103947,"17/10/2023 17:51:43",1697568703947,1,"17/10/2023 19:51:43",147682,3,"task-gjqt",NA,32314075,9555080,NA,"complete",NA,NA,"computer","Desktop or Laptop","Mac OS 10.15.7","Safari 15.4","1440x900","1440x820",NA,NA,0,"BIQ (Charlotte)",3,"GHFIEJDACB","Passed AC2",NA,"Spreadsheet1",1,"BIQ","Screen 1","9dh6eq",1,"response","6",32003,44428,44445,32003,44428,44445,1,32003,12442,0,NA,"Rating Scale","Rating Scale",10,"object-18","BIQ",NA,"SUPPRF73880"
"5",1697565103949,"17/10/2023 17:51:43",1697568703949,1,"17/10/2023 19:51:43",147682,3,"task-gjqt",NA,32314075,9555080,NA,"complete",NA,NA,"computer","Desktop or Laptop","Mac OS 10.15.7","Safari 15.4","1440x900","1440x820",NA,NA,0,"BIQ (Charlotte)",3,"GHFIEJDACB","Passed AC2",NA,"Spreadsheet1",1,"BIQ","Screen 1","9dh6eq",1,"response","1",43545,44428,44445,43545,44428,44445,1,43545,900,0,NA,"Rating Scale","Rating Scale",17,"object-80","BIQ",NA,"SUPPRF73880"
"6",1697565124722,"17/10/2023 17:52:04",1697568724722,1,"17/10/2023 19:52:04",147682,3,"task-gjqt",NA,32314075,9555080,NA,"complete",NA,NA,"computer","Desktop or Laptop","Mac OS 10.15.7","Safari 15.4","1440x900","1440x820",NA,NA,0,"BIQ (Charlotte)",3,"GHFIEJDACB","Passed AC2",NA,"Spreadsheet1",1,"BIQ","Screen 2","o21mwi",2,"continue","",20802,20787,20802,20802,20787,20802,1,20802,0,0,NA,"Click To Continue","Continue Button",22,"object-50","BIQ",NA,"SUPPRF73880"
"7",1697565124729,"17/10/2023 17:52:04",1697568724729,1,"17/10/2023 19:52:04",147682,3,"task-gjqt",NA,32314075,9555080,NA,"complete",NA,NA,"computer","Desktop or Laptop","Mac OS 10.15.7","Safari 15.4","1440x900","1440x820",NA,NA,0,"BIQ (Charlotte)",3,"GHFIEJDACB","Passed AC2",NA,"Spreadsheet1",1,"BIQ","Screen 2","o21mwi",2,"response","7",6312,20787,20805,6312,20787,20805,1,6312,14493,0,NA,"Rating Scale","Rating Scale",2,"object-259","BIQ",NA,"SUPPRF73880"
"8",1697565124730,"17/10/2023 17:52:04",1697568724730,1,"17/10/2023 19:52:04",147682,3,"task-gjqt",NA,32314075,9555080,NA,"complete",NA,NA,"computer","Desktop or Laptop","Mac OS 10.15.7","Safari 15.4","1440x900","1440x820",NA,NA,0,"BIQ (Charlotte)",3,"GHFIEJDACB","Passed AC2",NA,"Spreadsheet1",1,"BIQ","Screen 2","o21mwi",2,"response","0",10777,20787,20805,10777,20787,20805,1,10777,10028,0,NA,"Rating Scale","Rating Scale",9,"object-36","BIQ",NA,"SUPPRF73880"
"9",1697565124731,"17/10/2023 17:52:04",1697568724731,1,"17/10/2023 19:52:04",147682,3,"task-gjqt",NA,32314075,9555080,NA,"complete",NA,NA,"computer","Desktop or Laptop","Mac OS 10.15.7","Safari 15.4","1440x900","1440x820",NA,NA,0,"BIQ (Charlotte)",3,"GHFIEJDACB","Passed AC2",NA,"Spreadsheet1",1,"BIQ","Screen 2","o21mwi",2,"response","0",19486,20787,20805,19486,20787,20805,1,19486,1319,0,NA,"Rating Scale","Rating Scale",16,"object-86","BIQ",NA,"SUPPRF73880"
"10",1697565180123,"17/10/2023 17:53:00",1697568780123,1,"17/10/2023 19:53:00",147682,3,"task-gjqt",NA,32314075,9555080,NA,"complete",NA,NA,"computer","Desktop or Laptop","Mac OS 10.15.7","Safari 15.4","1440x900","1440x820",NA,NA,0,"BIQ (Charlotte)",3,"GHFIEJDACB","Passed AC2",NA,"Spreadsheet1",1,"BIQ","Screen 3","iz3the",3,"continue","",55411,55395,55411,55411,55395,55411,1,55411,0,0,NA,"Click To Continue","Continue Button",22,"object-73","BIQ",NA,"SUPPRF73880"
"11",1697565180129,"17/10/2023 17:53:00",1697568780129,1,"17/10/2023 19:53:00",147682,3,"task-gjqt",NA,32314075,9555080,NA,"complete",NA,NA,"computer","Desktop or Laptop","Mac OS 10.15.7","Safari 15.4","1440x900","1440x820",NA,NA,0,"BIQ (Charlotte)",3,"GHFIEJDACB","Passed AC2",NA,"Spreadsheet1",1,"BIQ","Screen 3","iz3the",3,"response","0",46402,55395,55411,46402,55395,55411,1,46402,9009,0,NA,"Rating Scale","Rating Scale",2,"object-53","BIQ",NA,"SUPPRF73880"
"12",1697565180130,"17/10/2023 17:53:00",1697568780130,1,"17/10/2023 19:53:00",147682,3,"task-gjqt",NA,32314075,9555080,NA,"complete",NA,NA,"computer","Desktop or Laptop","Mac OS 10.15.7","Safari 15.4","1440x900","1440x820",NA,NA,0,"BIQ (Charlotte)",3,"GHFIEJDACB","Passed AC2",NA,"Spreadsheet1",1,"BIQ","Screen 3","iz3the",3,"response","0",47884,55395,55411,47884,55395,55411,1,47884,7527,0,NA,"Rating Scale","Rating Scale",9,"object-60","BIQ",NA,"SUPPRF73880"
"13",1697565180133,"17/10/2023 17:53:00",1697568780133,1,"17/10/2023 19:53:00",147682,3,"task-gjqt",NA,32314075,9555080,NA,"complete",NA,NA,"computer","Desktop or Laptop","Mac OS 10.15.7","Safari 15.4","1440x900","1440x820",NA,NA,0,"BIQ (Charlotte)",3,"GHFIEJDACB","Passed AC2",NA,"Spreadsheet1",1,"BIQ","Screen 3","iz3the",3,"response","0",48701,55395,55411,48701,55395,55411,1,48701,6710,0,NA,"Rating Scale","Rating Scale",16,"object-67","BIQ",NA,"SUPPRF73880"
"14",1697565180137,"17/10/2023 17:53:00",1697568780137,1,"17/10/2023 19:53:00",147682,3,"task-gjqt",NA,32314075,9555080,NA,"complete",NA,NA,"computer","Desktop or Laptop","Mac OS 10.15.7","Safari 15.4","1440x900","1440x820",NA,NA,0,"BIQ (Charlotte)",3,"GHFIEJDACB","Passed AC2",NA,"Spreadsheet1",NA,"","","",NA,"5","END",NA,NA,NA,NA,NA,NA,0,NA,NA,NA,NA,"","",NA,"","",NA,"SUPPRF73880"
"1",1697565456660,"17/10/2023 17:57:36",1697569056660,1,"17/10/2023 19:57:36",147682,3,"task-gjqt",NA,32314268,9555131,NA,"complete",NA,NA,"computer","Desktop or Laptop","Windows 10","Chrome 118.0.0.0","1536x864","1536x707",NA,NA,0,"BIQ (Charlotte)",3,"HIGJFAEBDC","Passed AC2",NA,"Spreadsheet1",NA,"","","",NA,"5","BEGIN",NA,NA,NA,NA,NA,NA,0,NA,NA,NA,NA,"","",NA,"","",NA,"SUPPRF84507"
"2",1697565480496,"17/10/2023 17:58:00",1697569080496,1,"17/10/2023 19:58:00",147682,3,"task-gjqt",NA,32314268,9555131,NA,"complete",NA,NA,"computer","Desktop or Laptop","Windows 10","Chrome 118.0.0.0","1536x864","1536x707",NA,NA,0,"BIQ (Charlotte)",3,"HIGJFAEBDC","Passed AC2",NA,"Spreadsheet1",1,"BIQ","Screen 1","9dh6eq",1,"continue","",23855.7960000004,23848.354,23855.7960000004,23855.7960000004,23848.354,23855.7960000004,1,23855.7960000004,0,0,NA,"Click To Continue","Continue Button",23,"object-48","BIQ",NA,"SUPPRF84507"
"3",1697565480499,"17/10/2023 17:58:00",1697569080499,1,"17/10/2023 19:58:00",147682,3,"task-gjqt",NA,32314268,9555131,NA,"complete",NA,NA,"computer","Desktop or Laptop","Windows 10","Chrome 118.0.0.0","1536x864","1536x707",NA,NA,0,"BIQ (Charlotte)",3,"HIGJFAEBDC","Passed AC2",NA,"Spreadsheet1",1,"BIQ","Screen 1","9dh6eq",1,"response","7",7799.443,23848.354,23859.396,7799.443,23848.354,23859.396,1,7799.443,16059.953,0,NA,"Rating Scale","Rating Scale",3,"object-5","BIQ",NA,"SUPPRF84507"
"4",1697565480499,"17/10/2023 17:58:00",1697569080499,1,"17/10/2023 19:58:00",147682,3,"task-gjqt",NA,32314268,9555131,NA,"complete",NA,NA,"computer","Desktop or Laptop","Windows 10","Chrome 118.0.0.0","1536x864","1536x707",NA,NA,0,"BIQ (Charlotte)",3,"HIGJFAEBDC","Passed AC2",NA,"Spreadsheet1",1,"BIQ","Screen 1","9dh6eq",1,"response","7",13299.076,23848.354,23859.9959999996,13299.076,23848.354,23859.9959999996,1,13299.076,10560.9199999996,0,NA,"Rating Scale","Rating Scale",10,"object-18","BIQ",NA,"SUPPRF84507"
"5",1697565480500,"17/10/2023 17:58:00",1697569080500,1,"17/10/2023 19:58:00",147682,3,"task-gjqt",NA,32314268,9555131,NA,"complete",NA,NA,"computer","Desktop or Laptop","Windows 10","Chrome 118.0.0.0","1536x864","1536x707",NA,NA,0,"BIQ (Charlotte)",3,"HIGJFAEBDC","Passed AC2",NA,"Spreadsheet1",1,"BIQ","Screen 1","9dh6eq",1,"response","2",22998.464,23848.354,23860.4959999996,22998.464,23848.354,23860.4959999996,1,22998.464,862.031999999628,0,NA,"Rating Scale","Rating Scale",17,"object-80","BIQ",NA,"SUPPRF84507"
"6",1697565499954,"17/10/2023 17:58:19",1697569099954,1,"17/10/2023 19:58:19",147682,3,"task-gjqt",NA,32314268,9555131,NA,"complete",NA,NA,"computer","Desktop or Laptop","Windows 10","Chrome 118.0.0.0","1536x864","1536x707",NA,NA,0,"BIQ (Charlotte)",3,"HIGJFAEBDC","Passed AC2",NA,"Spreadsheet1",1,"BIQ","Screen 2","o21mwi",2,"continue","",19465.331,19448.649,19465.331,19465.331,19448.649,19465.331,1,19465.331,0,0,NA,"Click To Continue","Continue Button",22,"object-50","BIQ",NA,"SUPPRF84507"
"7",1697565499957,"17/10/2023 17:58:19",1697569099957,1,"17/10/2023 19:58:19",147682,3,"task-gjqt",NA,32314268,9555131,NA,"complete",NA,NA,"computer","Desktop or Laptop","Windows 10","Chrome 118.0.0.0","1536x864","1536x707",NA,NA,0,"BIQ (Charlotte)",3,"HIGJFAEBDC","Passed AC2",NA,"Spreadsheet1",1,"BIQ","Screen 2","o21mwi",2,"response","8",8282.753,19448.649,19465.331,8282.753,19448.649,19465.331,1,8282.753,11182.578,0,NA,"Rating Scale","Rating Scale",2,"object-259","BIQ",NA,"SUPPRF84507"
"8",1697565499957,"17/10/2023 17:58:19",1697569099957,1,"17/10/2023 19:58:19",147682,3,"task-gjqt",NA,32314268,9555131,NA,"complete",NA,NA,"computer","Desktop or Laptop","Windows 10","Chrome 118.0.0.0","1536x864","1536x707",NA,NA,0,"BIQ (Charlotte)",3,"HIGJFAEBDC","Passed AC2",NA,"Spreadsheet1",1,"BIQ","Screen 2","o21mwi",2,"response","1",11499.195,19448.649,19465.331,11499.195,19448.649,19465.331,1,11499.195,7966.13600000001,0,NA,"Rating Scale","Rating Scale",9,"object-36","BIQ",NA,"SUPPRF84507"
"9",1697565499958,"17/10/2023 17:58:19",1697569099958,1,"17/10/2023 19:58:19",147682,3,"task-gjqt",NA,32314268,9555131,NA,"complete",NA,NA,"computer","Desktop or Laptop","Windows 10","Chrome 118.0.0.0","1536x864","1536x707",NA,NA,0,"BIQ (Charlotte)",3,"HIGJFAEBDC","Passed AC2",NA,"Spreadsheet1",1,"BIQ","Screen 2","o21mwi",2,"response","1",17398.796,19448.649,19465.331,17398.796,19448.649,19465.331,1,17398.796,2066.535,0,NA,"Rating Scale","Rating Scale",16,"object-86","BIQ",NA,"SUPPRF84507"
"10",1697565514825,"17/10/2023 17:58:34",1697569114825,1,"17/10/2023 19:58:34",147682,3,"task-gjqt",NA,32314268,9555131,NA,"complete",NA,NA,"computer","Desktop or Laptop","Windows 10","Chrome 118.0.0.0","1536x864","1536x707",NA,NA,0,"BIQ (Charlotte)",3,"HIGJFAEBDC","Passed AC2",NA,"Spreadsheet1",1,"BIQ","Screen 3","iz3the",3,"continue","",14888.6930000007,14882.314,14888.6930000007,14888.6930000007,14882.314,14888.6930000007,1,14888.6930000007,0,0,NA,"Click To Continue","Continue Button",22,"object-73","BIQ",NA,"SUPPRF84507"
"11",1697565514828,"17/10/2023 17:58:34",1697569114828,1,"17/10/2023 19:58:34",147682,3,"task-gjqt",NA,32314268,9555131,NA,"complete",NA,NA,"computer","Desktop or Laptop","Windows 10","Chrome 118.0.0.0","1536x864","1536x707",NA,NA,0,"BIQ (Charlotte)",3,"HIGJFAEBDC","Passed AC2",NA,"Spreadsheet1",1,"BIQ","Screen 3","iz3the",3,"response","0",2983.107,14882.314,14891.5929999993,2983.107,14882.314,14891.5929999993,1,2983.107,11908.4859999993,0,NA,"Rating Scale","Rating Scale",2,"object-53","BIQ",NA,"SUPPRF84507"
"12",1697565514829,"17/10/2023 17:58:34",1697569114829,1,"17/10/2023 19:58:34",147682,3,"task-gjqt",NA,32314268,9555131,NA,"complete",NA,NA,"computer","Desktop or Laptop","Windows 10","Chrome 118.0.0.0","1536x864","1536x707",NA,NA,0,"BIQ (Charlotte)",3,"HIGJFAEBDC","Passed AC2",NA,"Spreadsheet1",1,"BIQ","Screen 3","iz3the",3,"response","0",11432.536,14882.314,14892.2930000004,11432.536,14882.314,14892.2930000004,1,11432.536,3459.75700000038,0,NA,"Rating Scale","Rating Scale",9,"object-60","BIQ",NA,"SUPPRF84507"
"13",1697565514830,"17/10/2023 17:58:34",1697569114830,1,"17/10/2023 19:58:34",147682,3,"task-gjqt",NA,32314268,9555131,NA,"complete",NA,NA,"computer","Desktop or Laptop","Windows 10","Chrome 118.0.0.0","1536x864","1536x707",NA,NA,0,"BIQ (Charlotte)",3,"HIGJFAEBDC","Passed AC2",NA,"Spreadsheet1",1,"BIQ","Screen 3","iz3the",3,"response","1",13432.396,14882.314,14893.0929999993,13432.396,14882.314,14893.0929999993,1,13432.396,1460.69699999926,0,NA,"Rating Scale","Rating Scale",16,"object-67","BIQ",NA,"SUPPRF84507"
"14",1697565514835,"17/10/2023 17:58:34",1697569114835,1,"17/10/2023 19:58:34",147682,3,"task-gjqt",NA,32314268,9555131,NA,"complete",NA,NA,"computer","Desktop or Laptop","Windows 10","Chrome 118.0.0.0","1536x864","1536x707",NA,NA,0,"BIQ (Charlotte)",3,"HIGJFAEBDC","Passed AC2",NA,"Spreadsheet1",NA,"","","",NA,"5","END",NA,NA,NA,NA,NA,NA,0,NA,NA,NA,NA,"","",NA,"","",NA,"SUPPRF84507"
"1",1697588711287,"18/10/2023 00:25:11",1697574311287,-4,"17/10/2023 16:25:11",147682,3,"task-gjqt",NA,32316923,9555765,NA,"complete",NA,NA,"computer","Desktop or Laptop","Windows 10","Edge 118.0.2088.46","1368x912","1360x764",NA,NA,0,"BIQ (Charlotte)",3,"IJHAGBFCED","Passed AC2",NA,"Spreadsheet1",NA,"","","",NA,"5","BEGIN",NA,NA,NA,NA,NA,NA,0,NA,NA,NA,NA,"","",NA,"","",NA,"SUPPRF26288"
"2",1697588724538,"18/10/2023 00:25:24",1697574324538,-4,"17/10/2023 16:25:24",147682,3,"task-gjqt",NA,32316923,9555765,NA,"complete",NA,NA,"computer","Desktop or Laptop","Windows 10","Edge 118.0.2088.46","1368x912","1360x764",NA,NA,0,"BIQ (Charlotte)",3,"IJHAGBFCED","Passed AC2",NA,"Spreadsheet1",1,"BIQ","Screen 1","9dh6eq",1,"continue","",13263.072,13245.89,13263.072,13263.072,13245.89,13263.072,1,13263.072,0,0,NA,"Click To Continue","Continue Button",23,"object-48","BIQ",NA,"SUPPRF26288"
"3",1697588724541,"18/10/2023 00:25:24",1697574324541,-4,"17/10/2023 16:25:24",147682,3,"task-gjqt",NA,32316923,9555765,NA,"complete",NA,NA,"computer","Desktop or Laptop","Windows 10","Edge 118.0.2088.46","1368x912","1360x764",NA,NA,0,"BIQ (Charlotte)",3,"IJHAGBFCED","Passed AC2",NA,"Spreadsheet1",1,"BIQ","Screen 1","9dh6eq",1,"response","4",7608.176,13245.89,13263.072,7608.176,13245.89,13263.072,1,7608.176,5654.896,0,NA,"Rating Scale","Rating Scale",3,"object-5","BIQ",NA,"SUPPRF26288"
"4",1697588724542,"18/10/2023 00:25:24",1697574324542,-4,"17/10/2023 16:25:24",147682,3,"task-gjqt",NA,32316923,9555765,NA,"complete",NA,NA,"computer","Desktop or Laptop","Windows 10","Edge 118.0.2088.46","1368x912","1360x764",NA,NA,0,"BIQ (Charlotte)",3,"IJHAGBFCED","Passed AC2",NA,"Spreadsheet1",1,"BIQ","Screen 1","9dh6eq",1,"response","8",9959.77,13245.89,13263.072,9959.77,13245.89,13263.072,1,9959.77,3303.302,0,NA,"Rating Scale","Rating Scale",10,"object-18","BIQ",NA,"SUPPRF26288"
"5",1697588724543,"18/10/2023 00:25:24",1697574324543,-4,"17/10/2023 16:25:24",147682,3,"task-gjqt",NA,32316923,9555765,NA,"complete",NA,NA,"computer","Desktop or Laptop","Windows 10","Edge 118.0.2088.46","1368x912","1360x764",NA,NA,0,"BIQ (Charlotte)",3,"IJHAGBFCED","Passed AC2",NA,"Spreadsheet1",1,"BIQ","Screen 1","9dh6eq",1,"response","0",12811.811,13245.89,13263.072,12811.811,13245.89,13263.072,1,12811.811,451.261000000002,0,NA,"Rating Scale","Rating Scale",17,"object-80","BIQ",NA,"SUPPRF26288"
"6",1697588736089,"18/10/2023 00:25:36",1697574336089,-4,"17/10/2023 16:25:36",147682,3,"task-gjqt",NA,32316923,9555765,NA,"complete",NA,NA,"computer","Desktop or Laptop","Windows 10","Edge 118.0.2088.46","1368x912","1360x764",NA,NA,0,"BIQ (Charlotte)",3,"IJHAGBFCED","Passed AC2",NA,"Spreadsheet1",1,"BIQ","Screen 2","o21mwi",2,"continue","",11572.0449999955,11557.559,11572.0449999955,11572.0449999955,11557.559,11572.0449999955,1,11572.0449999955,0,0,NA,"Click To Continue","Continue Button",22,"object-50","BIQ",NA,"SUPPRF26288"
"7",1697588736092,"18/10/2023 00:25:36",1697574336092,-4,"17/10/2023 16:25:36",147682,3,"task-gjqt",NA,32316923,9555765,NA,"complete",NA,NA,"computer","Desktop or Laptop","Windows 10","Edge 118.0.2088.46","1368x912","1360x764",NA,NA,0,"BIQ (Charlotte)",3,"IJHAGBFCED","Passed AC2",NA,"Spreadsheet1",1,"BIQ","Screen 2","o21mwi",2,"response","8",3502.089,11557.559,11573.833,3502.089,11557.559,11573.833,1,3502.089,8071.744,0,NA,"Rating Scale","Rating Scale",2,"object-259","BIQ",NA,"SUPPRF26288"
"8",1697588736092,"18/10/2023 00:25:36",1697574336092,-4,"17/10/2023 16:25:36",147682,3,"task-gjqt",NA,32316923,9555765,NA,"complete",NA,NA,"computer","Desktop or Laptop","Windows 10","Edge 118.0.2088.46","1368x912","1360x764",NA,NA,0,"BIQ (Charlotte)",3,"IJHAGBFCED","Passed AC2",NA,"Spreadsheet1",1,"BIQ","Screen 2","o21mwi",2,"response","0",6203.837,11557.559,11573.833,6203.837,11557.559,11573.833,1,6203.837,5369.996,0,NA,"Rating Scale","Rating Scale",9,"object-36","BIQ",NA,"SUPPRF26288"
"9",1697588736092,"18/10/2023 00:25:36",1697574336092,-4,"17/10/2023 16:25:36",147682,3,"task-gjqt",NA,32316923,9555765,NA,"complete",NA,NA,"computer","Desktop or Laptop","Windows 10","Edge 118.0.2088.46","1368x912","1360x764",NA,NA,0,"BIQ (Charlotte)",3,"IJHAGBFCED","Passed AC2",NA,"Spreadsheet1",1,"BIQ","Screen 2","o21mwi",2,"response","1",10690.24,11557.559,11573.833,10690.24,11557.559,11573.833,1,10690.24,883.593000000001,0,NA,"Rating Scale","Rating Scale",16,"object-86","BIQ",NA,"SUPPRF26288"
"10",1697588743558,"18/10/2023 00:25:43",1697574343558,-4,"17/10/2023 16:25:43",147682,3,"task-gjqt",NA,32316923,9555765,NA,"complete",NA,NA,"computer","Desktop or Laptop","Windows 10","Edge 118.0.2088.46","1368x912","1360x764",NA,NA,0,"BIQ (Charlotte)",3,"IJHAGBFCED","Passed AC2",NA,"Spreadsheet1",1,"BIQ","Screen 3","iz3the",3,"continue","",7483.08599999702,7471.872,7483.08599999702,7483.08599999702,7471.872,7483.08599999702,1,7483.08599999702,0,0,NA,"Click To Continue","Continue Button",22,"object-73","BIQ",NA,"SUPPRF26288"
"11",1697588743558,"18/10/2023 00:25:43",1697574343558,-4,"17/10/2023 16:25:43",147682,3,"task-gjqt",NA,32316923,9555765,NA,"complete",NA,NA,"computer","Desktop or Laptop","Windows 10","Edge 118.0.2088.46","1368x912","1360x764",NA,NA,0,"BIQ (Charlotte)",3,"IJHAGBFCED","Passed AC2",NA,"Spreadsheet1",1,"BIQ","Screen 3","iz3the",3,"response","0",3235.616,7471.872,7483.58599999702,3235.616,7471.872,7483.58599999702,1,3235.616,4247.96999999702,0,NA,"Rating Scale","Rating Scale",2,"object-53","BIQ",NA,"SUPPRF26288"
"12",1697588743559,"18/10/2023 00:25:43",1697574343559,-4,"17/10/2023 16:25:43",147682,3,"task-gjqt",NA,32316923,9555765,NA,"complete",NA,NA,"computer","Desktop or Laptop","Windows 10","Edge 118.0.2088.46","1368x912","1360x764",NA,NA,0,"BIQ (Charlotte)",3,"IJHAGBFCED","Passed AC2",NA,"Spreadsheet1",1,"BIQ","Screen 3","iz3the",3,"response","0",3819.433,7471.872,7484.08599999702,3819.433,7471.872,7484.08599999702,1,3819.433,3664.65299999702,0,NA,"Rating Scale","Rating Scale",9,"object-60","BIQ",NA,"SUPPRF26288"
"13",1697588743559,"18/10/2023 00:25:43",1697574343559,-4,"17/10/2023 16:25:43",147682,3,"task-gjqt",NA,32316923,9555765,NA,"complete",NA,NA,"computer","Desktop or Laptop","Windows 10","Edge 118.0.2088.46","1368x912","1360x764",NA,NA,0,"BIQ (Charlotte)",3,"IJHAGBFCED","Passed AC2",NA,"Spreadsheet1",1,"BIQ","Screen 3","iz3the",3,"response","4",4703.342,7471.872,7484.58599999702,4703.342,7471.872,7484.58599999702,1,4703.342,2781.24399999702,0,NA,"Rating Scale","Rating Scale",16,"object-67","BIQ",NA,"SUPPRF26288"
"14",1697588743563,"18/10/2023 00:25:43",1697574343563,-4,"17/10/2023 16:25:43",147682,3,"task-gjqt",NA,32316923,9555765,NA,"complete",NA,NA,"computer","Desktop or Laptop","Windows 10","Edge 118.0.2088.46","1368x912","1360x764",NA,NA,0,"BIQ (Charlotte)",3,"IJHAGBFCED","Passed AC2",NA,"Spreadsheet1",NA,"","","",NA,"5","END",NA,NA,NA,NA,NA,NA,0,NA,NA,NA,NA,"","",NA,"","",NA,"SUPPRF26288"
"1",1697600138968,"18/10/2023 03:35:38",1697574938968,-7,"17/10/2023 13:35:38",147682,3,"task-gjqt",NA,32317244,9555828,NA,"complete",NA,NA,"computer","Desktop or Laptop","Windows 10","Edge 118.0.2088.46","1366x768","1366x768",NA,NA,0,"BIQ (Charlotte)",3,"JAIBHCGDFE","Passed AC2",NA,"Spreadsheet1",NA,"","","",NA,"5","BEGIN",NA,NA,NA,NA,NA,NA,0,NA,NA,NA,NA,"","",NA,"","",NA,"SUPPRF62013"
"2",1697600185926,"18/10/2023 03:36:25",1697574985926,-7,"17/10/2023 13:36:25",147682,3,"task-gjqt",NA,32317244,9555828,NA,"complete",NA,NA,"computer","Desktop or Laptop","Windows 10","Edge 118.0.2088.46","1366x768","1366x768",NA,NA,0,"BIQ (Charlotte)",3,"JAIBHCGDFE","Passed AC2",NA,"Spreadsheet1",1,"BIQ","Screen 1","9dh6eq",1,"continue","",46978.3879999881,46964.704,46978.3879999881,46978.3879999881,46964.704,46978.3879999881,1,46978.3879999881,0,0,NA,"Click To Continue","Continue Button",23,"object-48","BIQ",NA,"SUPPRF62013"
"3",1697600185929,"18/10/2023 03:36:25",1697574985929,-7,"17/10/2023 13:36:25",147682,3,"task-gjqt",NA,32317244,9555828,NA,"complete",NA,NA,"computer","Desktop or Laptop","Windows 10","Edge 118.0.2088.46","1366x768","1366x768",NA,NA,0,"BIQ (Charlotte)",3,"JAIBHCGDFE","Passed AC2",NA,"Spreadsheet1",1,"BIQ","Screen 1","9dh6eq",1,"response","3",42665.068,46964.704,46981.12,42665.068,46964.704,46981.12,1,42665.068,4316.05200000001,0,NA,"Rating Scale","Rating Scale",3,"object-5","BIQ",NA,"SUPPRF62013"
"4",1697600185930,"18/10/2023 03:36:25",1697574985930,-7,"17/10/2023 13:36:25",147682,3,"task-gjqt",NA,32317244,9555828,NA,"complete",NA,NA,"computer","Desktop or Laptop","Windows 10","Edge 118.0.2088.46","1366x768","1366x768",NA,NA,0,"BIQ (Charlotte)",3,"JAIBHCGDFE","Passed AC2",NA,"Spreadsheet1",1,"BIQ","Screen 1","9dh6eq",1,"response","4",44614.851,46964.704,46981.12,44614.851,46964.704,46981.12,1,44614.851,2366.26900000001,0,NA,"Rating Scale","Rating Scale",10,"object-18","BIQ",NA,"SUPPRF62013"
"5",1697600185931,"18/10/2023 03:36:25",1697574985931,-7,"17/10/2023 13:36:25",147682,3,"task-gjqt",NA,32317244,9555828,NA,"complete",NA,NA,"computer","Desktop or Laptop","Windows 10","Edge 118.0.2088.46","1366x768","1366x768",NA,NA,0,"BIQ (Charlotte)",3,"JAIBHCGDFE","Passed AC2",NA,"Spreadsheet1",1,"BIQ","Screen 1","9dh6eq",1,"response","2",46364.98,46964.704,46981.12,46364.98,46964.704,46981.12,1,46364.98,616.140000000007,0,NA,"Rating Scale","Rating Scale",17,"object-80","BIQ",NA,"SUPPRF62013"
"6",1697600198941,"18/10/2023 03:36:38",1697574998941,-7,"17/10/2023 13:36:38",147682,3,"task-gjqt",NA,32317244,9555828,NA,"complete",NA,NA,"computer","Desktop or Laptop","Windows 10","Edge 118.0.2088.46","1366x768","1366x768",NA,NA,0,"BIQ (Charlotte)",3,"JAIBHCGDFE","Passed AC2",NA,"Spreadsheet1",1,"BIQ","Screen 2","o21mwi",2,"continue","",13019.3839999911,13016.715,13019.3839999911,13019.3839999911,13016.715,13019.3839999911,1,13019.3839999911,0,0,NA,"Click To Continue","Continue Button",22,"object-50","BIQ",NA,"SUPPRF62013"
