"Event.Index","UTC.Timestamp","UTC.Date.and.Time","Local.Timestamp","Local.Timezone","Local.Date.and.Time","Experiment.ID","Experiment.Version","Tree.Node.Key","Repeat.Key","Schedule.ID","Participant.Private.ID","Participant.Starting.Group","Participant.Status","Participant.Completion.Code","Participant.External.Session.ID","Participant.Device.Type","Participant.Device","Participant.OS","Participant.Browser","Participant.Monitor.Size","Participant.Viewport.Size","Checkpoint","Room.ID","Room.Order","Task.Name","Task.Version","order.ot79","branch.g31k","branch.5gtn","Spreadsheet","Trial.Number","Display","Screen","Screen.ID","Screen.Counter","Response.Type","Response","Onset.Time","Clock.Time","Reaction.Time","Absolute.Onset.Time","Absolute.Clock.Time","Absolute.Reaction.Time","Correct","Response.Onset","Response.Duration","Proportion","Tag","Component.Name","Object.Name","Object.Number","Object.ID","Spreadsheet..display","Manipulation..Spreadsheet","Random_ID"
"1",1710523985851,"15/03/2024 17:33:05",1710505985851,-5,"15/03/2024 07:33:05",171533,4,"task-gjqt",NA,36132742,10670581,NA,"rejected - time limit reached",NA,"65f482fa44684c49035118d0","computer","Desktop or Laptop","Mac OS 10.15.7","Chrome 122.0.0.0","1440x900","1440x779",NA,NA,0,"BIQ (Charlotte)",3,"ABJCIDHEGF","Passed AC2","","Spreadsheet1",NA,"","","",NA,"5","BEGIN",NA,NA,NA,NA,NA,NA,0,NA,NA,NA,NA,"","",NA,"","",NA,"SUPPRF82392"
"2",1710524023500,"15/03/2024 17:33:43",1710506023500,-5,"15/03/2024 07:33:43",171533,4,"task-gjqt",NA,36132742,10670581,NA,"rejected - time limit reached",NA,"65f482fa44684c49035118d0","computer","Desktop or Laptop","Mac OS 10.15.7","Chrome 122.0.0.0","1440x900","1440x779",NA,NA,0,"BIQ (Charlotte)",3,"ABJCIDHEGF","Passed AC2","","Spreadsheet1",1,"BIQ","Screen 1","9dh6eq",1,"continue","",37665.6000000015,37649.6,37665.6000000015,37665.6000000015,37649.6,37665.6000000015,1,37665.6000000015,0,0,NA,"Click To Continue","Continue Button",23,"object-48","BIQ",NA,"SUPPRF82392"
"3",1710524023504,"15/03/2024 17:33:43",1710506023504,-5,"15/03/2024 07:33:43",171533,4,"task-gjqt",NA,36132742,10670581,NA,"rejected - time limit reached",NA,"65f482fa44684c49035118d0","computer","Desktop or Laptop","Mac OS 10.15.7","Chrome 122.0.0.0","1440x900","1440x779",NA,NA,0,"BIQ (Charlotte)",3,"ABJCIDHEGF","Passed AC2","","Spreadsheet1",1,"BIQ","Screen 1","9dh6eq",1,"response","7",19382.3,37649.6,37666.3,19382.3,37649.6,37666.3,1,19382.3,18284,0,NA,"Rating Scale","Rating Scale",3,"object-5","BIQ",NA,"SUPPRF82392"
"4",1710524023506,"15/03/2024 17:33:43",1710506023506,-5,"15/03/2024 07:33:43",171533,4,"task-gjqt",NA,36132742,10670581,NA,"rejected - time limit reached",NA,"65f482fa44684c49035118d0","computer","Desktop or Laptop","Mac OS 10.15.7","Chrome 122.0.0.0","1440x900","1440x779",NA,NA,0,"BIQ (Charlotte)",3,"ABJCIDHEGF","Passed AC2","","Spreadsheet1",1,"BIQ","Screen 1","9dh6eq",1,"response","5",24015.5,37649.6,37666.3,24015.5,37649.6,37666.3,1,24015.5,13650.8,0,NA,"Rating Scale","Rating Scale",10,"object-18","BIQ",NA,"SUPPRF82392"
"5",1710524023506,"15/03/2024 17:33:43",1710506023506,-5,"15/03/2024 07:33:43",171533,4,"task-gjqt",NA,36132742,10670581,NA,"rejected - time limit reached",NA,"65f482fa44684c49035118d0","computer","Desktop or Laptop","Mac OS 10.15.7","Chrome 122.0.0.0","1440x900","1440x779",NA,NA,0,"BIQ (Charlotte)",3,"ABJCIDHEGF","Passed AC2","","Spreadsheet1",1,"BIQ","Screen 1","9dh6eq",1,"response","2",35883,37649.6,37666.3,35883,37649.6,37666.3,1,35883,1783.3,0,NA,"Rating Scale","Rating Scale",17,"object-80","BIQ",NA,"SUPPRF82392"
"6",1710524055539,"15/03/2024 17:34:15",1710506055539,-5,"15/03/2024 07:34:15",171533,4,"task-gjqt",NA,36132742,10670581,NA,"rejected - time limit reached",NA,"65f482fa44684c49035118d0","computer","Desktop or Laptop","Mac OS 10.15.7","Chrome 122.0.0.0","1440x900","1440x779",NA,NA,0,"BIQ (Charlotte)",3,"ABJCIDHEGF","Passed AC2","","Spreadsheet1",1,"BIQ","Screen 2","o21mwi",2,"continue","",32054.4,32048.7,32054.4,32054.4,32048.7,32054.4,1,32054.4,0,0,NA,"Click To Continue","Continue Button",22,"object-50","BIQ",NA,"SUPPRF82392"
"7",1710524055543,"15/03/2024 17:34:15",1710506055543,-5,"15/03/2024 07:34:15",171533,4,"task-gjqt",NA,36132742,10670581,NA,"rejected - time limit reached",NA,"65f482fa44684c49035118d0","computer","Desktop or Laptop","Mac OS 10.15.7","Chrome 122.0.0.0","1440x900","1440x779",NA,NA,0,"BIQ (Charlotte)",3,"ABJCIDHEGF","Passed AC2","","Spreadsheet1",1,"BIQ","Screen 2","o21mwi",2,"response","7",7566.5,32048.7,32058.5999999993,7566.5,32048.7,32058.5999999993,1,7566.5,24492.0999999993,0,NA,"Rating Scale","Rating Scale",2,"object-259","BIQ",NA,"SUPPRF82392"
"8",1710524055544,"15/03/2024 17:34:15",1710506055544,-5,"15/03/2024 07:34:15",171533,4,"task-gjqt",NA,36132742,10670581,NA,"rejected - time limit reached",NA,"65f482fa44684c49035118d0","computer","Desktop or Laptop","Mac OS 10.15.7","Chrome 122.0.0.0","1440x900","1440x779",NA,NA,0,"BIQ (Charlotte)",3,"ABJCIDHEGF","Passed AC2","","Spreadsheet1",1,"BIQ","Screen 2","o21mwi",2,"response","1",13833,32048.7,32059.4,13833,32048.7,32059.4,1,13833,18226.4,0,NA,"Rating Scale","Rating Scale",9,"object-36","BIQ",NA,"SUPPRF82392"
"9",1710524055544,"15/03/2024 17:34:15",1710506055544,-5,"15/03/2024 07:34:15",171533,4,"task-gjqt",NA,36132742,10670581,NA,"rejected - time limit reached",NA,"65f482fa44684c49035118d0","computer","Desktop or Laptop","Mac OS 10.15.7","Chrome 122.0.0.0","1440x900","1440x779",NA,NA,0,"BIQ (Charlotte)",3,"ABJCIDHEGF","Passed AC2","","Spreadsheet1",1,"BIQ","Screen 2","o21mwi",2,"response","6",19265.5,32048.7,32059.7999999985,19265.5,32048.7,32059.7999999985,1,19265.5,12794.2999999985,0,NA,"Rating Scale","Rating Scale",16,"object-86","BIQ",NA,"SUPPRF82392"
"10",1710524073597,"15/03/2024 17:34:33",1710506073597,-5,"15/03/2024 07:34:33",171533,4,"task-gjqt",NA,36132742,10670581,NA,"rejected - time limit reached",NA,"65f482fa44684c49035118d0","computer","Desktop or Laptop","Mac OS 10.15.7","Chrome 122.0.0.0","1440x900","1440x779",NA,NA,0,"BIQ (Charlotte)",3,"ABJCIDHEGF","Passed AC2","","Spreadsheet1",1,"BIQ","Screen 3","iz3the",3,"continue","",18062.8999999993,18050.6,18062.8999999993,18062.8999999993,18050.6,18062.8999999993,1,18062.8999999993,0,0,NA,"Click To Continue","Continue Button",22,"object-73","BIQ",NA,"SUPPRF82392"
"11",1710524073600,"15/03/2024 17:34:33",1710506073600,-5,"15/03/2024 07:34:33",171533,4,"task-gjqt",NA,36132742,10670581,NA,"rejected - time limit reached",NA,"65f482fa44684c49035118d0","computer","Desktop or Laptop","Mac OS 10.15.7","Chrome 122.0.0.0","1440x900","1440x779",NA,NA,0,"BIQ (Charlotte)",3,"ABJCIDHEGF","Passed AC2","","Spreadsheet1",1,"BIQ","Screen 3","iz3the",3,"response","0",5600.8,18050.6,18066.3999999993,5600.8,18050.6,18066.3999999993,1,5600.8,12465.5999999992,0,NA,"Rating Scale","Rating Scale",2,"object-53","BIQ",NA,"SUPPRF82392"
"12",1710524073601,"15/03/2024 17:34:33",1710506073601,-5,"15/03/2024 07:34:33",171533,4,"task-gjqt",NA,36132742,10670581,NA,"rejected - time limit reached",NA,"65f482fa44684c49035118d0","computer","Desktop or Laptop","Mac OS 10.15.7","Chrome 122.0.0.0","1440x900","1440x779",NA,NA,0,"BIQ (Charlotte)",3,"ABJCIDHEGF","Passed AC2","","Spreadsheet1",1,"BIQ","Screen 3","iz3the",3,"response","2",11650.7,18050.6,18067.0000000007,11650.7,18050.6,18067.0000000007,1,11650.7,6416.30000000075,0,NA,"Rating Scale","Rating Scale",9,"object-60","BIQ",NA,"SUPPRF82392"
"13",1710524073601,"15/03/2024 17:34:33",1710506073601,-5,"15/03/2024 07:34:33",171533,4,"task-gjqt",NA,36132742,10670581,NA,"rejected - time limit reached",NA,"65f482fa44684c49035118d0","computer","Desktop or Laptop","Mac OS 10.15.7","Chrome 122.0.0.0","1440x900","1440x779",NA,NA,0,"BIQ (Charlotte)",3,"ABJCIDHEGF","Passed AC2","","Spreadsheet1",1,"BIQ","Screen 3","iz3the",3,"response","4",17149.6,18050.6,18067.5000000007,17149.6,18050.6,18067.5000000007,1,17149.6,917.900000000751,0,NA,"Rating Scale","Rating Scale",16,"object-67","BIQ",NA,"SUPPRF82392"
"14",1710524073606,"15/03/2024 17:34:33",1710506073606,-5,"15/03/2024 07:34:33",171533,4,"task-gjqt",NA,36132742,10670581,NA,"rejected - time limit reached",NA,"65f482fa44684c49035118d0","computer","Desktop or Laptop","Mac OS 10.15.7","Chrome 122.0.0.0","1440x900","1440x779",NA,NA,0,"BIQ (Charlotte)",3,"ABJCIDHEGF","Passed AC2","","Spreadsheet1",NA,"","","",NA,"5","END",NA,NA,NA,NA,NA,NA,0,NA,NA,NA,NA,"","",NA,"","",NA,"SUPPRF82392"
"1",1710525168649,"15/03/2024 17:52:48",1710525168649,0,"15/03/2024 17:52:48",171533,4,"task-gjqt",NA,36133579,10670779,NA,"complete",NA,"65f4890ce086774848365699","computer","Desktop or Laptop","Windows 10","Chrome 122.0.0.0","2560x1600","2560x1431",NA,NA,0,"BIQ (Charlotte)",3,"CDBEAFJGIH","Passed AC2","","Spreadsheet1",NA,"","","",NA,"5","BEGIN",NA,NA,NA,NA,NA,NA,0,NA,NA,NA,NA,"","",NA,"","",NA,"SUPPRF19125"
"2",1710525195905,"15/03/2024 17:53:15",1710525195905,0,"15/03/2024 17:53:15",171533,4,"task-gjqt",NA,36133579,10670779,NA,"complete",NA,"65f4890ce086774848365699","computer","Desktop or Laptop","Windows 10","Chrome 122.0.0.0","2560x1600","2560x1431",NA,NA,0,"BIQ (Charlotte)",3,"CDBEAFJGIH","Passed AC2","","Spreadsheet1",1,"BIQ","Screen 1","9dh6eq",1,"continue","",27272.1,27255.2,27272.1,27272.1,27255.2,27272.1,1,27272.1,0,0,NA,"Click To Continue","Continue Button",23,"object-48","BIQ",NA,"SUPPRF19125"
"3",1710525195909,"15/03/2024 17:53:15",1710525195909,0,"15/03/2024 17:53:15",171533,4,"task-gjqt",NA,36133579,10670779,NA,"complete",NA,"65f4890ce086774848365699","computer","Desktop or Laptop","Windows 10","Chrome 122.0.0.0","2560x1600","2560x1431",NA,NA,0,"BIQ (Charlotte)",3,"CDBEAFJGIH","Passed AC2","","Spreadsheet1",1,"BIQ","Screen 1","9dh6eq",1,"response","7",11953,27255.2,27272.1,11953,27255.2,27272.1,1,11953,15319.1,0,NA,"Rating Scale","Rating Scale",3,"object-5","BIQ",NA,"SUPPRF19125"
"4",1710525195909,"15/03/2024 17:53:15",1710525195909,0,"15/03/2024 17:53:15",171533,4,"task-gjqt",NA,36133579,10670779,NA,"complete",NA,"65f4890ce086774848365699","computer","Desktop or Laptop","Windows 10","Chrome 122.0.0.0","2560x1600","2560x1431",NA,NA,0,"BIQ (Charlotte)",3,"CDBEAFJGIH","Passed AC2","","Spreadsheet1",1,"BIQ","Screen 1","9dh6eq",1,"response","3",19253.4,27255.2,27272.1,19253.4,27255.2,27272.1,1,19253.4,8018.7,0,NA,"Rating Scale","Rating Scale",10,"object-18","BIQ",NA,"SUPPRF19125"
"5",1710525195909,"15/03/2024 17:53:15",1710525195909,0,"15/03/2024 17:53:15",171533,4,"task-gjqt",NA,36133579,10670779,NA,"complete",NA,"65f4890ce086774848365699","computer","Desktop or Laptop","Windows 10","Chrome 122.0.0.0","2560x1600","2560x1431",NA,NA,0,"BIQ (Charlotte)",3,"CDBEAFJGIH","Passed AC2","","Spreadsheet1",1,"BIQ","Screen 1","9dh6eq",1,"response","6",23219.3,27255.2,27272.1,23219.3,27255.2,27272.1,1,23219.3,4052.8,0,NA,"Rating Scale","Rating Scale",17,"object-80","BIQ",NA,"SUPPRF19125"
"6",1710525213253,"15/03/2024 17:53:33",1710525213253,0,"15/03/2024 17:53:33",171533,4,"task-gjqt",NA,36133579,10670779,NA,"complete",NA,"65f4890ce086774848365699","computer","Desktop or Laptop","Windows 10","Chrome 122.0.0.0","2560x1600","2560x1431",NA,NA,0,"BIQ (Charlotte)",3,"CDBEAFJGIH","Passed AC2","","Spreadsheet1",1,"BIQ","Screen 2","o21mwi",2,"continue","",17371.9000000022,17367.9,17371.9000000022,17371.9000000022,17367.9,17371.9000000022,1,17371.9000000022,0,0,NA,"Click To Continue","Continue Button",22,"object-50","BIQ",NA,"SUPPRF19125"
"7",1710525213258,"15/03/2024 17:53:33",1710525213258,0,"15/03/2024 17:53:33",171533,4,"task-gjqt",NA,36133579,10670779,NA,"complete",NA,"65f4890ce086774848365699","computer","Desktop or Laptop","Windows 10","Chrome 122.0.0.0","2560x1600","2560x1431",NA,NA,0,"BIQ (Charlotte)",3,"CDBEAFJGIH","Passed AC2","","Spreadsheet1",1,"BIQ","Screen 2","o21mwi",2,"response","2",4431.3,17367.9,17377.8000000007,4431.3,17367.9,17377.8000000007,1,4431.3,12946.5000000007,0,NA,"Rating Scale","Rating Scale",2,"object-259","BIQ",NA,"SUPPRF19125"
"8",1710525213259,"15/03/2024 17:53:33",1710525213259,0,"15/03/2024 17:53:33",171533,4,"task-gjqt",NA,36133579,10670779,NA,"complete",NA,"65f4890ce086774848365699","computer","Desktop or Laptop","Windows 10","Chrome 122.0.0.0","2560x1600","2560x1431",NA,NA,0,"BIQ (Charlotte)",3,"CDBEAFJGIH","Passed AC2","","Spreadsheet1",1,"BIQ","Screen 2","o21mwi",2,"response","3",5898,17367.9,17378.6000000015,5898,17367.9,17378.6000000015,1,5898,11480.6000000015,0,NA,"Rating Scale","Rating Scale",9,"object-36","BIQ",NA,"SUPPRF19125"
"9",1710525213261,"15/03/2024 17:53:33",1710525213261,0,"15/03/2024 17:53:33",171533,4,"task-gjqt",NA,36133579,10670779,NA,"complete",NA,"65f4890ce086774848365699","computer","Desktop or Laptop","Windows 10","Chrome 122.0.0.0","2560x1600","2560x1431",NA,NA,0,"BIQ (Charlotte)",3,"CDBEAFJGIH","Passed AC2","","Spreadsheet1",1,"BIQ","Screen 2","o21mwi",2,"response","8",9231.9,17367.9,17380.8000000007,9231.9,17367.9,17380.8000000007,1,9231.9,8148.90000000074,0,NA,"Rating Scale","Rating Scale",16,"object-86","BIQ",NA,"SUPPRF19125"
"10",1710525236721,"15/03/2024 17:53:56",1710525236721,0,"15/03/2024 17:53:56",171533,4,"task-gjqt",NA,36133579,10670779,NA,"complete",NA,"65f4890ce086774848365699","computer","Desktop or Laptop","Windows 10","Chrome 122.0.0.0","2560x1600","2560x1431",NA,NA,0,"BIQ (Charlotte)",3,"CDBEAFJGIH","Passed AC2","","Spreadsheet1",1,"BIQ","Screen 3","iz3the",3,"continue","",23472.6,23468.7,23472.6,23472.6,23468.7,23472.6,1,23472.6,0,0,NA,"Click To Continue","Continue Button",22,"object-73","BIQ",NA,"SUPPRF19125"
"11",1710525236725,"15/03/2024 17:53:56",1710525236725,0,"15/03/2024 17:53:56",171533,4,"task-gjqt",NA,36133579,10670779,NA,"complete",NA,"65f4890ce086774848365699","computer","Desktop or Laptop","Windows 10","Chrome 122.0.0.0","2560x1600","2560x1431",NA,NA,0,"BIQ (Charlotte)",3,"CDBEAFJGIH","Passed AC2","","Spreadsheet1",1,"BIQ","Screen 3","iz3the",3,"response","6",4815.3,23468.7,23476.4000000007,4815.3,23468.7,23476.4000000007,1,4815.3,18661.1000000007,0,NA,"Rating Scale","Rating Scale",2,"object-53","BIQ",NA,"SUPPRF19125"
"12",1710525236725,"15/03/2024 17:53:56",1710525236725,0,"15/03/2024 17:53:56",171533,4,"task-gjqt",NA,36133579,10670779,NA,"complete",NA,"65f4890ce086774848365699","computer","Desktop or Laptop","Windows 10","Chrome 122.0.0.0","2560x1600","2560x1431",NA,NA,0,"BIQ (Charlotte)",3,"CDBEAFJGIH","Passed AC2","","Spreadsheet1",1,"BIQ","Screen 3","iz3the",3,"response","6",8199,23468.7,23476.7999999993,8199,23468.7,23476.7999999993,1,8199,15277.7999999993,0,NA,"Rating Scale","Rating Scale",9,"object-60","BIQ",NA,"SUPPRF19125"
"13",1710525236726,"15/03/2024 17:53:56",1710525236726,0,"15/03/2024 17:53:56",171533,4,"task-gjqt",NA,36133579,10670779,NA,"complete",NA,"65f4890ce086774848365699","computer","Desktop or Laptop","Windows 10","Chrome 122.0.0.0","2560x1600","2560x1431",NA,NA,0,"BIQ (Charlotte)",3,"CDBEAFJGIH","Passed AC2","","Spreadsheet1",1,"BIQ","Screen 3","iz3the",3,"response","4",12849.9,23468.7,23477.2999999993,12849.9,23468.7,23477.2999999993,1,12849.9,10627.3999999993,0,NA,"Rating Scale","Rating Scale",16,"object-67","BIQ",NA,"SUPPRF19125"
"14",1710525236731,"15/03/2024 17:53:56",1710525236731,0,"15/03/2024 17:53:56",171533,4,"task-gjqt",NA,36133579,10670779,NA,"complete",NA,"65f4890ce086774848365699","computer","Desktop or Laptop","Windows 10","Chrome 122.0.0.0","2560x1600","2560x1431",NA,NA,0,"BIQ (Charlotte)",3,"CDBEAFJGIH","Passed AC2","","Spreadsheet1",NA,"","","",NA,"5","END",NA,NA,NA,NA,NA,NA,0,NA,NA,NA,NA,"","",NA,"","",NA,"SUPPRF19125"
"1",1710526883493,"15/03/2024 18:21:23",1710512483493,-4,"15/03/2024 10:21:23",171533,4,"task-gjqt",NA,36134664,10670897,NA,"complete",NA,"65f48c7739eb876deb45df6f","computer","Desktop or Laptop","Windows 10","Chrome 122.0.0.0","1500x1000","1500x831",NA,NA,0,"BIQ (Charlotte)",3,"DECFBGAHJI","Passed AC2","","Spreadsheet1",NA,"","","",NA,"5","BEGIN",NA,NA,NA,NA,NA,NA,0,NA,NA,NA,NA,"","",NA,"","",NA,"SUPPRF52787"
"2",1710526901264,"15/03/2024 18:21:41",1710512501264,-4,"15/03/2024 10:21:41",171533,4,"task-gjqt",NA,36134664,10670897,NA,"complete",NA,"65f48c7739eb876deb45df6f","computer","Desktop or Laptop","Windows 10","Chrome 122.0.0.0","1500x1000","1500x831",NA,NA,0,"BIQ (Charlotte)",3,"DECFBGAHJI","Passed AC2","","Spreadsheet1",1,"BIQ","Screen 1","9dh6eq",1,"continue","",17788.0999999762,17781.2,17788.0999999762,17788.0999999762,17781.2,17788.0999999762,1,17788.0999999762,0,0,NA,"Click To Continue","Continue Button",23,"object-48","BIQ",NA,"SUPPRF52787"
"3",1710526901266,"15/03/2024 18:21:41",1710512501266,-4,"15/03/2024 10:21:41",171533,4,"task-gjqt",NA,36134664,10670897,NA,"complete",NA,"65f48c7739eb876deb45df6f","computer","Desktop or Laptop","Windows 10","Chrome 122.0.0.0","1500x1000","1500x831",NA,NA,0,"BIQ (Charlotte)",3,"DECFBGAHJI","Passed AC2","","Spreadsheet1",1,"BIQ","Screen 1","9dh6eq",1,"response","5",6111.9,17781.2,17791.8999999881,6111.9,17781.2,17791.8999999881,1,6111.9,11679.9999999881,0,NA,"Rating Scale","Rating Scale",3,"object-5","BIQ",NA,"SUPPRF52787"
"4",1710526901267,"15/03/2024 18:21:41",1710512501267,-4,"15/03/2024 10:21:41",171533,4,"task-gjqt",NA,36134664,10670897,NA,"complete",NA,"65f48c7739eb876deb45df6f","computer","Desktop or Laptop","Windows 10","Chrome 122.0.0.0","1500x1000","1500x831",NA,NA,0,"BIQ (Charlotte)",3,"DECFBGAHJI","Passed AC2","","Spreadsheet1",1,"BIQ","Screen 1","9dh6eq",1,"response","2",10529.4,17781.2,17792.5999999762,10529.4,17781.2,17792.5999999762,1,10529.4,7263.19999997616,0,NA,"Rating Scale","Rating Scale",10,"object-18","BIQ",NA,"SUPPRF52787"
"5",1710526901268,"15/03/2024 18:21:41",1710512501268,-4,"15/03/2024 10:21:41",171533,4,"task-gjqt",NA,36134664,10670897,NA,"complete",NA,"65f48c7739eb876deb45df6f","computer","Desktop or Laptop","Windows 10","Chrome 122.0.0.0","1500x1000","1500x831",NA,NA,0,"BIQ (Charlotte)",3,"DECFBGAHJI","Passed AC2","","Spreadsheet1",1,"BIQ","Screen 1","9dh6eq",1,"response","6",12996.9,17781.2,17793.2,12996.9,17781.2,17793.2,1,12996.9,4796.3,0,NA,"Rating Scale","Rating Scale",17,"object-80","BIQ",NA,"SUPPRF52787"
"6",1710526921182,"15/03/2024 18:22:01",1710512521182,-4,"15/03/2024 10:22:01",171533,4,"task-gjqt",NA,36134664,10670897,NA,"complete",NA,"65f48c7739eb876deb45df6f","computer","Desktop or Laptop","Windows 10","Chrome 122.0.0.0","1500x1000","1500x831",NA,NA,0,"BIQ (Charlotte)",3,"DECFBGAHJI","Passed AC2","","Spreadsheet1",1,"BIQ","Screen 2","o21mwi",2,"continue","",19925.8999999762,19921.5,19925.8999999762,19925.8999999762,19921.5,19925.8999999762,1,19925.8999999762,0,0,NA,"Click To Continue","Continue Button",22,"object-50","BIQ",NA,"SUPPRF52787"
"7",1710526921186,"15/03/2024 18:22:01",1710512521186,-4,"15/03/2024 10:22:01",171533,4,"task-gjqt",NA,36134664,10670897,NA,"complete",NA,"65f48c7739eb876deb45df6f","computer","Desktop or Laptop","Windows 10","Chrome 122.0.0.0","1500x1000","1500x831",NA,NA,0,"BIQ (Charlotte)",3,"DECFBGAHJI","Passed AC2","","Spreadsheet1",1,"BIQ","Screen 2","o21mwi",2,"response","5",7535.3,19921.5,19930.3999999762,7535.3,19921.5,19930.3999999762,1,7535.3,12395.0999999762,0,NA,"Rating Scale","Rating Scale",2,"object-259","BIQ",NA,"SUPPRF52787"
"8",1710526921187,"15/03/2024 18:22:01",1710512521187,-4,"15/03/2024 10:22:01",171533,4,"task-gjqt",NA,36134664,10670897,NA,"complete",NA,"65f48c7739eb876deb45df6f","computer","Desktop or Laptop","Windows 10","Chrome 122.0.0.0","1500x1000","1500x831",NA,NA,0,"BIQ (Charlotte)",3,"DECFBGAHJI","Passed AC2","","Spreadsheet1",1,"BIQ","Screen 2","o21mwi",2,"response","6",10552.9,19921.5,19931.1000000238,10552.9,19921.5,19931.1000000238,1,10552.9,9378.20000002384,0,NA,"Rating Scale","Rating Scale",9,"object-36","BIQ",NA,"SUPPRF52787"
"9",1710526921187,"15/03/2024 18:22:01",1710512521187,-4,"15/03/2024 10:22:01",171533,4,"task-gjqt",NA,36134664,10670897,NA,"complete",NA,"65f48c7739eb876deb45df6f","computer","Desktop or Laptop","Windows 10","Chrome 122.0.0.0","1500x1000","1500x831",NA,NA,0,"BIQ (Charlotte)",3,"DECFBGAHJI","Passed AC2","","Spreadsheet1",1,"BIQ","Screen 2","o21mwi",2,"response","0",17604.6,19921.5,19931.6999999881,17604.6,19921.5,19931.6999999881,1,17604.6,2327.09999998808,0,NA,"Rating Scale","Rating Scale",16,"object-86","BIQ",NA,"SUPPRF52787"
"10",1710526947714,"15/03/2024 18:22:27",1710512547714,-4,"15/03/2024 10:22:27",171533,4,"task-gjqt",NA,36134664,10670897,NA,"complete",NA,"65f48c7739eb876deb45df6f","computer","Desktop or Laptop","Windows 10","Chrome 122.0.0.0","1500x1000","1500x831",NA,NA,0,"BIQ (Charlotte)",3,"DECFBGAHJI","Passed AC2","","Spreadsheet1",1,"BIQ","Screen 3","iz3the",3,"continue","",26537.1000000238,26523.2,26537.1000000238,26537.1000000238,26523.2,26537.1000000238,1,26537.1000000238,0,0,NA,"Click To Continue","Continue Button",22,"object-73","BIQ",NA,"SUPPRF52787"
"11",1710526947719,"15/03/2024 18:22:27",1710512547719,-4,"15/03/2024 10:22:27",171533,4,"task-gjqt",NA,36134664,10670897,NA,"complete",NA,"65f48c7739eb876deb45df6f","computer","Desktop or Laptop","Windows 10","Chrome 122.0.0.0","1500x1000","1500x831",NA,NA,0,"BIQ (Charlotte)",3,"DECFBGAHJI","Passed AC2","","Spreadsheet1",1,"BIQ","Screen 3","iz3the",3,"response","0",16554.6,26523.2,26540,16554.6,26523.2,26540,1,16554.6,9985.4,0,NA,"Rating Scale","Rating Scale",2,"object-53","BIQ",NA,"SUPPRF52787"
"12",1710526947719,"15/03/2024 18:22:27",1710512547719,-4,"15/03/2024 10:22:27",171533,4,"task-gjqt",NA,36134664,10670897,NA,"complete",NA,"65f48c7739eb876deb45df6f","computer","Desktop or Laptop","Windows 10","Chrome 122.0.0.0","1500x1000","1500x831",NA,NA,0,"BIQ (Charlotte)",3,"DECFBGAHJI","Passed AC2","","Spreadsheet1",1,"BIQ","Screen 3","iz3the",3,"response","3",19205,26523.2,26540,19205,26523.2,26540,1,19205,7335,0,NA,"Rating Scale","Rating Scale",9,"object-60","BIQ",NA,"SUPPRF52787"
"13",1710526947720,"15/03/2024 18:22:27",1710512547720,-4,"15/03/2024 10:22:27",171533,4,"task-gjqt",NA,36134664,10670897,NA,"complete",NA,"65f48c7739eb876deb45df6f","computer","Desktop or Laptop","Windows 10","Chrome 122.0.0.0","1500x1000","1500x831",NA,NA,0,"BIQ (Charlotte)",3,"DECFBGAHJI","Passed AC2","","Spreadsheet1",1,"BIQ","Screen 3","iz3the",3,"response","2",24006.2,26523.2,26540,24006.2,26523.2,26540,1,24006.2,2533.8,0,NA,"Rating Scale","Rating Scale",16,"object-67","BIQ",NA,"SUPPRF52787"
"14",1710526947722,"15/03/2024 18:22:27",1710512547722,-4,"15/03/2024 10:22:27",171533,4,"task-gjqt",NA,36134664,10670897,NA,"complete",NA,"65f48c7739eb876deb45df6f","computer","Desktop or Laptop","Windows 10","Chrome 122.0.0.0","1500x1000","1500x831",NA,NA,0,"BIQ (Charlotte)",3,"DECFBGAHJI","Passed AC2","","Spreadsheet1",NA,"","","",NA,"5","END",NA,NA,NA,NA,NA,NA,0,NA,NA,NA,NA,"","",NA,"","",NA,"SUPPRF52787"
"1",1710532543672,"15/03/2024 19:55:43",1710518143672,-4,"15/03/2024 11:55:43",171533,4,"task-gjqt",NA,36137479,10671677,NA,"complete",NA,"65f4a74462a3ee2f45d46c76","computer","Desktop or Laptop","Mac OS 10.15.7","Chrome 122.0.0.0","1440x900","1440x727",NA,NA,0,"BIQ (Charlotte)",3,"FGEHDICJBA","Failed AC2","Passed AC1","Spreadsheet1",NA,"","","",NA,"5","BEGIN",NA,NA,NA,NA,NA,NA,0,NA,NA,NA,NA,"","",NA,"","",NA,"SUPPRF67318"
"2",1710532611233,"15/03/2024 19:56:51",1710518211233,-4,"15/03/2024 11:56:51",171533,4,"task-gjqt",NA,36137479,10671677,NA,"complete",NA,"65f4a74462a3ee2f45d46c76","computer","Desktop or Laptop","Mac OS 10.15.7","Chrome 122.0.0.0","1440x900","1440x727",NA,NA,0,"BIQ (Charlotte)",3,"FGEHDICJBA","Failed AC2","Passed AC1","Spreadsheet1",1,"BIQ","Screen 1","9dh6eq",1,"continue","",67564.3000000007,67560,67564.3000000007,67564.3000000007,67560,67564.3000000007,1,67564.3000000007,0,0,NA,"Click To Continue","Continue Button",23,"object-48","BIQ",NA,"SUPPRF67318"
"3",1710532611235,"15/03/2024 19:56:51",1710518211235,-4,"15/03/2024 11:56:51",171533,4,"task-gjqt",NA,36137479,10671677,NA,"complete",NA,"65f4a74462a3ee2f45d46c76","computer","Desktop or Laptop","Mac OS 10.15.7","Chrome 122.0.0.0","1440x900","1440x727",NA,NA,0,"BIQ (Charlotte)",3,"FGEHDICJBA","Failed AC2","Passed AC1","Spreadsheet1",1,"BIQ","Screen 1","9dh6eq",1,"response","6",31104.7,67560,67566.8999999985,31104.7,67560,67566.8999999985,1,31104.7,36462.1999999985,0,NA,"Rating Scale","Rating Scale",3,"object-5","BIQ",NA,"SUPPRF67318"
"4",1710532611236,"15/03/2024 19:56:51",1710518211236,-4,"15/03/2024 11:56:51",171533,4,"task-gjqt",NA,36137479,10671677,NA,"complete",NA,"65f4a74462a3ee2f45d46c76","computer","Desktop or Laptop","Mac OS 10.15.7","Chrome 122.0.0.0","1440x900","1440x727",NA,NA,0,"BIQ (Charlotte)",3,"FGEHDICJBA","Failed AC2","Passed AC1","Spreadsheet1",1,"BIQ","Screen 1","9dh6eq",1,"response","4",38422.2,67560,67567.1999999993,38422.2,67560,67567.1999999993,1,38422.2,29144.9999999993,0,NA,"Rating Scale","Rating Scale",10,"object-18","BIQ",NA,"SUPPRF67318"
"5",1710532611236,"15/03/2024 19:56:51",1710518211236,-4,"15/03/2024 11:56:51",171533,4,"task-gjqt",NA,36137479,10671677,NA,"complete",NA,"65f4a74462a3ee2f45d46c76","computer","Desktop or Laptop","Mac OS 10.15.7","Chrome 122.0.0.0","1440x900","1440x727",NA,NA,0,"BIQ (Charlotte)",3,"FGEHDICJBA","Failed AC2","Passed AC1","Spreadsheet1",1,"BIQ","Screen 1","9dh6eq",1,"response","6",63759.3,67560,67567.3999999985,63759.3,67560,67567.3999999985,1,63759.3,3808.09999999851,0,NA,"Rating Scale","Rating Scale",17,"object-80","BIQ",NA,"SUPPRF67318"
"6",1710532630683,"15/03/2024 19:57:10",1710518230683,-4,"15/03/2024 11:57:10",171533,4,"task-gjqt",NA,36137479,10671677,NA,"complete",NA,"65f4a74462a3ee2f45d46c76","computer","Desktop or Laptop","Mac OS 10.15.7","Chrome 122.0.0.0","1440x900","1440x727",NA,NA,0,"BIQ (Charlotte)",3,"FGEHDICJBA","Failed AC2","Passed AC1","Spreadsheet1",1,"BIQ","Screen 2","o21mwi",2,"continue","",19454,19437.6,19454,19454,19437.6,19454,1,19454,0,0,NA,"Click To Continue","Continue Button",22,"object-50","BIQ",NA,"SUPPRF67318"
"7",1710532630686,"15/03/2024 19:57:10",1710518230686,-4,"15/03/2024 11:57:10",171533,4,"task-gjqt",NA,36137479,10671677,NA,"complete",NA,"65f4a74462a3ee2f45d46c76","computer","Desktop or Laptop","Mac OS 10.15.7","Chrome 122.0.0.0","1440x900","1440x727",NA,NA,0,"BIQ (Charlotte)",3,"FGEHDICJBA","Failed AC2","Passed AC1","Spreadsheet1",1,"BIQ","Screen 2","o21mwi",2,"response","4",6468.5,19437.6,19455.4,6468.5,19437.6,19455.4,1,6468.5,12986.9,0,NA,"Rating Scale","Rating Scale",2,"object-259","BIQ",NA,"SUPPRF67318"
"8",1710532630686,"15/03/2024 19:57:10",1710518230686,-4,"15/03/2024 11:57:10",171533,4,"task-gjqt",NA,36137479,10671677,NA,"complete",NA,"65f4a74462a3ee2f45d46c76","computer","Desktop or Laptop","Mac OS 10.15.7","Chrome 122.0.0.0","1440x900","1440x727",NA,NA,0,"BIQ (Charlotte)",3,"FGEHDICJBA","Failed AC2","Passed AC1","Spreadsheet1",1,"BIQ","Screen 2","o21mwi",2,"response","4",11852,19437.6,19455.4,11852,19437.6,19455.4,1,11852,7603.40000000001,0,NA,"Rating Scale","Rating Scale",9,"object-36","BIQ",NA,"SUPPRF67318"
"9",1710532630687,"15/03/2024 19:57:10",1710518230687,-4,"15/03/2024 11:57:10",171533,4,"task-gjqt",NA,36137479,10671677,NA,"complete",NA,"65f4a74462a3ee2f45d46c76","computer","Desktop or Laptop","Mac OS 10.15.7","Chrome 122.0.0.0","1440x900","1440x727",NA,NA,0,"BIQ (Charlotte)",3,"FGEHDICJBA","Failed AC2","Passed AC1","Spreadsheet1",1,"BIQ","Screen 2","o21mwi",2,"response","8",16569.4,19437.6,19455.4,16569.4,19437.6,19455.4,1,16569.4,2886.00000000001,0,NA,"Rating Scale","Rating Scale",16,"object-86","BIQ",NA,"SUPPRF67318"
"10",1710532651603,"15/03/2024 19:57:31",1710518251603,-4,"15/03/2024 11:57:31",171533,4,"task-gjqt",NA,36137479,10671677,NA,"complete",NA,"65f4a74462a3ee2f45d46c76","computer","Desktop or Laptop","Mac OS 10.15.7","Chrome 122.0.0.0","1440x900","1440x727",NA,NA,0,"BIQ (Charlotte)",3,"FGEHDICJBA","Failed AC2","Passed AC1","Spreadsheet1",1,"BIQ","Screen 3","iz3the",3,"continue","",20934.9,20918.9,20934.9,20934.9,20918.9,20934.9,1,20934.9,0,0,NA,"Click To Continue","Continue Button",22,"object-73","BIQ",NA,"SUPPRF67318"
"11",1710532651605,"15/03/2024 19:57:31",1710518251605,-4,"15/03/2024 11:57:31",171533,4,"task-gjqt",NA,36137479,10671677,NA,"complete",NA,"65f4a74462a3ee2f45d46c76","computer","Desktop or Laptop","Mac OS 10.15.7","Chrome 122.0.0.0","1440x900","1440x727",NA,NA,0,"BIQ (Charlotte)",3,"FGEHDICJBA","Failed AC2","Passed AC1","Spreadsheet1",1,"BIQ","Screen 3","iz3the",3,"response","1",11501.3,20918.9,20934.9,11501.3,20918.9,20934.9,1,11501.3,9433.60000000001,0,NA,"Rating Scale","Rating Scale",2,"object-53","BIQ",NA,"SUPPRF67318"
"12",1710532651605,"15/03/2024 19:57:31",1710518251605,-4,"15/03/2024 11:57:31",171533,4,"task-gjqt",NA,36137479,10671677,NA,"complete",NA,"65f4a74462a3ee2f45d46c76","computer","Desktop or Laptop","Mac OS 10.15.7","Chrome 122.0.0.0","1440x900","1440x727",NA,NA,0,"BIQ (Charlotte)",3,"FGEHDICJBA","Failed AC2","Passed AC1","Spreadsheet1",1,"BIQ","Screen 3","iz3the",3,"response","3",16334.9,20918.9,20934.9,16334.9,20918.9,20934.9,1,16334.9,4600,0,NA,"Rating Scale","Rating Scale",9,"object-60","BIQ",NA,"SUPPRF67318"
"13",1710532651605,"15/03/2024 19:57:31",1710518251605,-4,"15/03/2024 11:57:31",171533,4,"task-gjqt",NA,36137479,10671677,NA,"complete",NA,"65f4a74462a3ee2f45d46c76","computer","Desktop or Laptop","Mac OS 10.15.7","Chrome 122.0.0.0","1440x900","1440x727",NA,NA,0,"BIQ (Charlotte)",3,"FGEHDICJBA","Failed AC2","Passed AC1","Spreadsheet1",1,"BIQ","Screen 3","iz3the",3,"response","4",19002.1,20918.9,20934.9,19002.1,20918.9,20934.9,1,19002.1,1932.8,0,NA,"Rating Scale","Rating Scale",16,"object-67","BIQ",NA,"SUPPRF67318"
"14",1710532651609,"15/03/2024 19:57:31",1710518251609,-4,"15/03/2024 11:57:31",171533,4,"task-gjqt",NA,36137479,10671677,NA,"complete",NA,"65f4a74462a3ee2f45d46c76","computer","Desktop or Laptop","Mac OS 10.15.7","Chrome 122.0.0.0","1440x900","1440x727",NA,NA,0,"BIQ (Charlotte)",3,"FGEHDICJBA","Failed AC2","Passed AC1","Spreadsheet1",NA,"","","",NA,"5","END",NA,NA,NA,NA,NA,NA,0,NA,NA,NA,NA,"","",NA,"","",NA,"SUPPRF67318"
"1",1710533253454,"15/03/2024 20:07:33",1710536853454,1,"15/03/2024 22:07:33",171533,4,"task-gjqt",NA,36137845,10671719,NA,"complete",NA,"65f4a95d55f7947822ff0703","computer","Desktop or Laptop","Mac OS 10.15.7","Chrome 122.0.0.0","1440x900","1440x813",NA,NA,0,"BIQ (Charlotte)",3,"HIGJFAEBDC","Passed AC2","","Spreadsheet1",NA,"","","",NA,"5","BEGIN",NA,NA,NA,NA,NA,NA,0,NA,NA,NA,NA,"","",NA,"","",NA,"SUPPRF34851"
"2",1710533278374,"15/03/2024 20:07:58",1710536878374,1,"15/03/2024 22:07:58",171533,4,"task-gjqt",NA,36137845,10671719,NA,"complete",NA,"65f4a95d55f7947822ff0703","computer","Desktop or Laptop","Mac OS 10.15.7","Chrome 122.0.0.0","1440x900","1440x813",NA,NA,0,"BIQ (Charlotte)",3,"HIGJFAEBDC","Passed AC2","","Spreadsheet1",1,"BIQ","Screen 1","9dh6eq",1,"continue","",24933.7,24917.1,24933.7,24933.7,24917.1,24933.7,1,24933.7,0,0,NA,"Click To Continue","Continue Button",23,"object-48","BIQ",NA,"SUPPRF34851"
"3",1710533278376,"15/03/2024 20:07:58",1710536878376,1,"15/03/2024 22:07:58",171533,4,"task-gjqt",NA,36137845,10671719,NA,"complete",NA,"65f4a95d55f7947822ff0703","computer","Desktop or Laptop","Mac OS 10.15.7","Chrome 122.0.0.0","1440x900","1440x813",NA,NA,0,"BIQ (Charlotte)",3,"HIGJFAEBDC","Passed AC2","","Spreadsheet1",1,"BIQ","Screen 1","9dh6eq",1,"response","4",11266.9,24917.1,24933.7,11266.9,24917.1,24933.7,1,11266.9,13666.8,0,NA,"Rating Scale","Rating Scale",3,"object-5","BIQ",NA,"SUPPRF34851"
"4",1710533278376,"15/03/2024 20:07:58",1710536878376,1,"15/03/2024 22:07:58",171533,4,"task-gjqt",NA,36137845,10671719,NA,"complete",NA,"65f4a95d55f7947822ff0703","computer","Desktop or Laptop","Mac OS 10.15.7","Chrome 122.0.0.0","1440x900","1440x813",NA,NA,0,"BIQ (Charlotte)",3,"HIGJFAEBDC","Passed AC2","","Spreadsheet1",1,"BIQ","Screen 1","9dh6eq",1,"response","3",18533.6,24917.1,24933.7,18533.6,24917.1,24933.7,1,18533.6,6400.1,0,NA,"Rating Scale","Rating Scale",10,"object-18","BIQ",NA,"SUPPRF34851"
"5",1710533278377,"15/03/2024 20:07:58",1710536878377,1,"15/03/2024 22:07:58",171533,4,"task-gjqt",NA,36137845,10671719,NA,"complete",NA,"65f4a95d55f7947822ff0703","computer","Desktop or Laptop","Mac OS 10.15.7","Chrome 122.0.0.0","1440x900","1440x813",NA,NA,0,"BIQ (Charlotte)",3,"HIGJFAEBDC","Passed AC2","","Spreadsheet1",1,"BIQ","Screen 1","9dh6eq",1,"response","2",24083.8,24917.1,24933.7,24083.8,24917.1,24933.7,1,24083.8,849.899999999998,0,NA,"Rating Scale","Rating Scale",17,"object-80","BIQ",NA,"SUPPRF34851"
"6",1710533298750,"15/03/2024 20:08:18",1710536898750,1,"15/03/2024 22:08:18",171533,4,"task-gjqt",NA,36137845,10671719,NA,"complete",NA,"65f4a95d55f7947822ff0703","computer","Desktop or Laptop","Mac OS 10.15.7","Chrome 122.0.0.0","1440x900","1440x813",NA,NA,0,"BIQ (Charlotte)",3,"HIGJFAEBDC","Passed AC2","","Spreadsheet1",1,"BIQ","Screen 2","o21mwi",2,"continue","",20397.3999999762,20383.4,20397.3999999762,20397.3999999762,20383.4,20397.3999999762,1,20397.3999999762,0,0,NA,"Click To Continue","Continue Button",22,"object-50","BIQ",NA,"SUPPRF34851"
"7",1710533298753,"15/03/2024 20:08:18",1710536898753,1,"15/03/2024 22:08:18",171533,4,"task-gjqt",NA,36137845,10671719,NA,"complete",NA,"65f4a95d55f7947822ff0703","computer","Desktop or Laptop","Mac OS 10.15.7","Chrome 122.0.0.0","1440x900","1440x813",NA,NA,0,"BIQ (Charlotte)",3,"HIGJFAEBDC","Passed AC2","","Spreadsheet1",1,"BIQ","Screen 2","o21mwi",2,"response","7",7616.6,20383.4,20399.8,7616.6,20383.4,20399.8,1,7616.6,12783.2,0,NA,"Rating Scale","Rating Scale",2,"object-259","BIQ",NA,"SUPPRF34851"
"8",1710533298754,"15/03/2024 20:08:18",1710536898754,1,"15/03/2024 22:08:18",171533,4,"task-gjqt",NA,36137845,10671719,NA,"complete",NA,"65f4a95d55f7947822ff0703","computer","Desktop or Laptop","Mac OS 10.15.7","Chrome 122.0.0.0","1440x900","1440x813",NA,NA,0,"BIQ (Charlotte)",3,"HIGJFAEBDC","Passed AC2","","Spreadsheet1",1,"BIQ","Screen 2","o21mwi",2,"response","1",12383.6,20383.4,20399.8,12383.6,20383.4,20399.8,1,12383.6,8016.2,0,NA,"Rating Scale","Rating Scale",9,"object-36","BIQ",NA,"SUPPRF34851"
"9",1710533298754,"15/03/2024 20:08:18",1710536898754,1,"15/03/2024 22:08:18",171533,4,"task-gjqt",NA,36137845,10671719,NA,"complete",NA,"65f4a95d55f7947822ff0703","computer","Desktop or Laptop","Mac OS 10.15.7","Chrome 122.0.0.0","1440x900","1440x813",NA,NA,0,"BIQ (Charlotte)",3,"HIGJFAEBDC","Passed AC2","","Spreadsheet1",1,"BIQ","Screen 2","o21mwi",2,"response","2",19450.3,20383.4,20399.8,19450.3,20383.4,20399.8,1,19450.3,949.5,0,NA,"Rating Scale","Rating Scale",16,"object-86","BIQ",NA,"SUPPRF34851"
"10",1710533312435,"15/03/2024 20:08:32",1710536912435,1,"15/03/2024 22:08:32",171533,4,"task-gjqt",NA,36137845,10671719,NA,"complete",NA,"65f4a95d55f7947822ff0703","computer","Desktop or Laptop","Mac OS 10.15.7","Chrome 122.0.0.0","1440x900","1440x813",NA,NA,0,"BIQ (Charlotte)",3,"HIGJFAEBDC","Passed AC2","","Spreadsheet1",1,"BIQ","Screen 3","iz3the",3,"continue","",13698.6,13683.8,13698.6,13698.6,13683.8,13698.6,1,13698.6,0,0,NA,"Click To Continue","Continue Button",22,"object-73","BIQ",NA,"SUPPRF34851"
"11",1710533312438,"15/03/2024 20:08:32",1710536912438,1,"15/03/2024 22:08:32",171533,4,"task-gjqt",NA,36137845,10671719,NA,"complete",NA,"65f4a95d55f7947822ff0703","computer","Desktop or Laptop","Mac OS 10.15.7","Chrome 122.0.0.0","1440x900","1440x813",NA,NA,0,"BIQ (Charlotte)",3,"HIGJFAEBDC","Passed AC2","","Spreadsheet1",1,"BIQ","Screen 3","iz3the",3,"response","2",7433.7,13683.8,13700.5,7433.7,13683.8,13700.5,1,7433.7,6266.8,0,NA,"Rating Scale","Rating Scale",2,"object-53","BIQ",NA,"SUPPRF34851"
"12",1710533312439,"15/03/2024 20:08:32",1710536912439,1,"15/03/2024 22:08:32",171533,4,"task-gjqt",NA,36137845,10671719,NA,"complete",NA,"65f4a95d55f7947822ff0703","computer","Desktop or Laptop","Mac OS 10.15.7","Chrome 122.0.0.0","1440x900","1440x813",NA,NA,0,"BIQ (Charlotte)",3,"HIGJFAEBDC","Passed AC2","","Spreadsheet1",1,"BIQ","Screen 3","iz3the",3,"response","1",9600.4,13683.8,13700.5,9600.4,13683.8,13700.5,1,9600.4,4100.09999999999,0,NA,"Rating Scale","Rating Scale",9,"object-60","BIQ",NA,"SUPPRF34851"
"13",1710533312439,"15/03/2024 20:08:32",1710536912439,1,"15/03/2024 22:08:32",171533,4,"task-gjqt",NA,36137845,10671719,NA,"complete",NA,"65f4a95d55f7947822ff0703","computer","Desktop or Laptop","Mac OS 10.15.7","Chrome 122.0.0.0","1440x900","1440x813",NA,NA,0,"BIQ (Charlotte)",3,"HIGJFAEBDC","Passed AC2","","Spreadsheet1",1,"BIQ","Screen 3","iz3the",3,"response","3",12550.5,13683.8,13700.5,12550.5,13683.8,13700.5,1,12550.5,1149.99999999999,0,NA,"Rating Scale","Rating Scale",16,"object-67","BIQ",NA,"SUPPRF34851"
"14",1710533312446,"15/03/2024 20:08:32",1710536912446,1,"15/03/2024 22:08:32",171533,4,"task-gjqt",NA,36137845,10671719,NA,"complete",NA,"65f4a95d55f7947822ff0703","computer","Desktop or Laptop","Mac OS 10.15.7","Chrome 122.0.0.0","1440x900","1440x813",NA,NA,0,"BIQ (Charlotte)",3,"HIGJFAEBDC","Passed AC2","","Spreadsheet1",NA,"","","",NA,"5","END",NA,NA,NA,NA,NA,NA,0,NA,NA,NA,NA,"","",NA,"","",NA,"SUPPRF34851"
"1",1710534643432,"15/03/2024 20:30:43",1710509443432,-7,"15/03/2024 06:30:43",171533,4,"task-gjqt",NA,36138613,10671802,NA,"complete",NA,"65f4adc74b3b22141fd0590e","computer","Desktop or Laptop","Windows 10","Chrome 122.0.0.0","1366x768","1366x645",NA,NA,0,"BIQ (Charlotte)",3,"JAIBHCGDFE","Passed AC2","","Spreadsheet1",NA,"","","",NA,"5","BEGIN",NA,NA,NA,NA,NA,NA,0,NA,NA,NA,NA,"","",NA,"","",NA,"SUPPRF60790"
"2",1710534705781,"15/03/2024 20:31:45",1710509505781,-7,"15/03/2024 06:31:45",171533,4,"task-gjqt",NA,36138613,10671802,NA,"complete",NA,"65f4adc74b3b22141fd0590e","computer","Desktop or Laptop","Windows 10","Chrome 122.0.0.0","1366x768","1366x645",NA,NA,0,"BIQ (Charlotte)",3,"JAIBHCGDFE","Passed AC2","","Spreadsheet1",1,"BIQ","Screen 1","9dh6eq",1,"continue","",62350.199999994,62345.2,62350.199999994,62350.199999994,62345.2,62350.199999994,1,62350.199999994,0,0,NA,"Click To Continue","Continue Button",23,"object-48","BIQ",NA,"SUPPRF60790"
"3",1710534705783,"15/03/2024 20:31:45",1710509505783,-7,"15/03/2024 06:31:45",171533,4,"task-gjqt",NA,36138613,10671802,NA,"complete",NA,"65f4adc74b3b22141fd0590e","computer","Desktop or Laptop","Windows 10","Chrome 122.0.0.0","1366x768","1366x645",NA,NA,0,"BIQ (Charlotte)",3,"JAIBHCGDFE","Passed AC2","","Spreadsheet1",1,"BIQ","Screen 1","9dh6eq",1,"response","6",41053.1,62345.2,62357.699999994,41053.1,62345.2,62357.699999994,1,41053.1,21304.599999994,0,NA,"Rating Scale","Rating Scale",3,"object-5","BIQ",NA,"SUPPRF60790"
"4",1710534705784,"15/03/2024 20:31:45",1710509505784,-7,"15/03/2024 06:31:45",171533,4,"task-gjqt",NA,36138613,10671802,NA,"complete",NA,"65f4adc74b3b22141fd0590e","computer","Desktop or Laptop","Windows 10","Chrome 122.0.0.0","1366x768","1366x645",NA,NA,0,"BIQ (Charlotte)",3,"JAIBHCGDFE","Passed AC2","","Spreadsheet1",1,"BIQ","Screen 1","9dh6eq",1,"response","4",45081.6,62345.2,62358.199999994,45081.6,62345.2,62358.199999994,1,45081.6,17276.599999994,0,NA,"Rating Scale","Rating Scale",10,"object-18","BIQ",NA,"SUPPRF60790"
"5",1710534705784,"15/03/2024 20:31:45",1710509505784,-7,"15/03/2024 06:31:45",171533,4,"task-gjqt",NA,36138613,10671802,NA,"complete",NA,"65f4adc74b3b22141fd0590e","computer","Desktop or Laptop","Windows 10","Chrome 122.0.0.0","1366x768","1366x645",NA,NA,0,"BIQ (Charlotte)",3,"JAIBHCGDFE","Passed AC2","","Spreadsheet1",1,"BIQ","Screen 1","9dh6eq",1,"response","5",48245.1,62345.2,62358.699999994,48245.1,62345.2,62358.699999994,1,48245.1,14113.599999994,0,NA,"Rating Scale","Rating Scale",17,"object-80","BIQ",NA,"SUPPRF60790"
"6",1710534729523,"15/03/2024 20:32:09",1710509529523,-7,"15/03/2024 06:32:09",171533,4,"task-gjqt",NA,36138613,10671802,NA,"complete",NA,"65f4adc74b3b22141fd0590e","computer","Desktop or Laptop","Windows 10","Chrome 122.0.0.0","1366x768","1366x645",NA,NA,0,"BIQ (Charlotte)",3,"JAIBHCGDFE","Passed AC2","","Spreadsheet1",1,"BIQ","Screen 2","o21mwi",2,"continue","",23752.300000006,23739.8,23752.300000006,23752.300000006,23739.8,23752.300000006,1,23752.300000006,0,0,NA,"Click To Continue","Continue Button",22,"object-50","BIQ",NA,"SUPPRF60790"
"7",1710534729526,"15/03/2024 20:32:09",1710509529526,-7,"15/03/2024 06:32:09",171533,4,"task-gjqt",NA,36138613,10671802,NA,"complete",NA,"65f4adc74b3b22141fd0590e","computer","Desktop or Laptop","Windows 10","Chrome 122.0.0.0","1366x768","1366x645",NA,NA,0,"BIQ (Charlotte)",3,"JAIBHCGDFE","Passed AC2","","Spreadsheet1",1,"BIQ","Screen 2","o21mwi",2,"response","6",4012.39999999999,23739.8,23755.0999999881,4012.39999999999,23739.8,23755.0999999881,1,4012.39999999999,19742.6999999881,0,NA,"Rating Scale","Rating Scale",2,"object-259","BIQ",NA,"SUPPRF60790"
"8",1710534729526,"15/03/2024 20:32:09",1710509529526,-7,"15/03/2024 06:32:09",171533,4,"task-gjqt",NA,36138613,10671802,NA,"complete",NA,"65f4adc74b3b22141fd0590e","computer","Desktop or Laptop","Windows 10","Chrome 122.0.0.0","1366x768","1366x645",NA,NA,0,"BIQ (Charlotte)",3,"JAIBHCGDFE","Passed AC2","","Spreadsheet1",1,"BIQ","Screen 2","o21mwi",2,"response","1",7841.29999999999,23739.8,23755.5999999881,7841.29999999999,23739.8,23755.5999999881,1,7841.29999999999,15914.2999999881,0,NA,"Rating Scale","Rating Scale",9,"object-36","BIQ",NA,"SUPPRF60790"
"9",1710534729527,"15/03/2024 20:32:09",1710509529527,-7,"15/03/2024 06:32:09",171533,4,"task-gjqt",NA,36138613,10671802,NA,"complete",NA,"65f4adc74b3b22141fd0590e","computer","Desktop or Laptop","Windows 10","Chrome 122.0.0.0","1366x768","1366x645",NA,NA,0,"BIQ (Charlotte)",3,"JAIBHCGDFE","Passed AC2","","Spreadsheet1",1,"BIQ","Screen 2","o21mwi",2,"response","5",19377.8,23739.8,23756.2000000119,19377.8,23739.8,23756.2000000119,1,19377.8,4378.40000001193,0,NA,"Rating Scale","Rating Scale",16,"object-86","BIQ",NA,"SUPPRF60790"
"10",1710534742475,"15/03/2024 20:32:22",1710509542475,-7,"15/03/2024 06:32:22",171533,4,"task-gjqt",NA,36138613,10671802,NA,"complete",NA,"65f4adc74b3b22141fd0590e","computer","Desktop or Laptop","Windows 10","Chrome 122.0.0.0","1366x768","1366x645",NA,NA,0,"BIQ (Charlotte)",3,"JAIBHCGDFE","Passed AC2","","Spreadsheet1",1,"BIQ","Screen 3","iz3the",3,"continue","",12964.7999999881,12951.9,12964.7999999881,12964.7999999881,12951.9,12964.7999999881,1,12964.7999999881,0,0,NA,"Click To Continue","Continue Button",22,"object-73","BIQ",NA,"SUPPRF60790"
"11",1710534742478,"15/03/2024 20:32:22",1710509542478,-7,"15/03/2024 06:32:22",171533,4,"task-gjqt",NA,36138613,10671802,NA,"complete",NA,"65f4adc74b3b22141fd0590e","computer","Desktop or Laptop","Windows 10","Chrome 122.0.0.0","1366x768","1366x645",NA,NA,0,"BIQ (Charlotte)",3,"JAIBHCGDFE","Passed AC2","","Spreadsheet1",1,"BIQ","Screen 3","iz3the",3,"response","0",2946.40000000001,12951.9,12967.500000006,2946.40000000001,12951.9,12967.500000006,1,2946.40000000001,10021.100000006,0,NA,"Rating Scale","Rating Scale",2,"object-53","BIQ",NA,"SUPPRF60790"
"12",1710534742479,"15/03/2024 20:32:22",1710509542479,-7,"15/03/2024 06:32:22",171533,4,"task-gjqt",NA,36138613,10671802,NA,"complete",NA,"65f4adc74b3b22141fd0590e","computer","Desktop or Laptop","Windows 10","Chrome 122.0.0.0","1366x768","1366x645",NA,NA,0,"BIQ (Charlotte)",3,"JAIBHCGDFE","Passed AC2","","Spreadsheet1",1,"BIQ","Screen 3","iz3the",3,"response","1",9472.3,12951.9,12968.199999994,9472.3,12951.9,12968.199999994,1,9472.3,3495.89999999404,0,NA,"Rating Scale","Rating Scale",9,"object-60","BIQ",NA,"SUPPRF60790"
"13",1710534742480,"15/03/2024 20:32:22",1710509542480,-7,"15/03/2024 06:32:22",171533,4,"task-gjqt",NA,36138613,10671802,NA,"complete",NA,"65f4adc74b3b22141fd0590e","computer","Desktop or Laptop","Windows 10","Chrome 122.0.0.0","1366x768","1366x645",NA,NA,0,"BIQ (Charlotte)",3,"JAIBHCGDFE","Passed AC2","","Spreadsheet1",1,"BIQ","Screen 3","iz3the",3,"response","2",11986,12951.9,12968.9,11986,12951.9,12968.9,1,11986,982.900000000009,0,NA,"Rating Scale","Rating Scale",16,"object-67","BIQ",NA,"SUPPRF60790"
"14",1710534742484,"15/03/2024 20:32:22",1710509542484,-7,"15/03/2024 06:32:22",171533,4,"task-gjqt",NA,36138613,10671802,NA,"complete",NA,"65f4adc74b3b22141fd0590e","computer","Desktop or Laptop","Windows 10","Chrome 122.0.0.0","1366x768","1366x645",NA,NA,0,"BIQ (Charlotte)",3,"JAIBHCGDFE","Passed AC2","","Spreadsheet1",NA,"","","",NA,"5","END",NA,NA,NA,NA,NA,NA,0,NA,NA,NA,NA,"","",NA,"","",NA,"SUPPRF60790"
"1",1710536081895,"15/03/2024 20:54:41",1710518081895,-5,"15/03/2024 10:54:41",171533,4,"task-gjqt",NA,36139484,10671945,NA,"complete",NA,"65f4b2f1a1c2c8a3b4054911","computer","Desktop or Laptop","Windows 10","Chrome 122.0.0.0","1536x864","1536x730",NA,NA,0,"BIQ (Charlotte)",3,"ABJCIDHEGF","Passed AC2","","Spreadsheet1",NA,"","","",NA,"5","BEGIN",NA,NA,NA,NA,NA,NA,0,NA,NA,NA,NA,"","",NA,"","",NA,"SUPPRF68963"
"2",1710536105488,"15/03/2024 20:55:05",1710518105488,-5,"15/03/2024 10:55:05",171533,4,"task-gjqt",NA,36139484,10671945,NA,"complete",NA,"65f4b2f1a1c2c8a3b4054911","computer","Desktop or Laptop","Windows 10","Chrome 122.0.0.0","1536x864","1536x730",NA,NA,0,"BIQ (Charlotte)",3,"ABJCIDHEGF","Passed AC2","","Spreadsheet1",1,"BIQ","Screen 1","9dh6eq",1,"continue","",23610.4999999993,23607.3,23610.4999999993,23610.4999999993,23607.3,23610.4999999993,1,23610.4999999993,0,0,NA,"Click To Continue","Continue Button",23,"object-48","BIQ",NA,"SUPPRF68963"
"3",1710536105490,"15/03/2024 20:55:05",1710518105490,-5,"15/03/2024 10:55:05",171533,4,"task-gjqt",NA,36139484,10671945,NA,"complete",NA,"65f4b2f1a1c2c8a3b4054911","computer","Desktop or Laptop","Windows 10","Chrome 122.0.0.0","1536x864","1536x730",NA,NA,0,"BIQ (Charlotte)",3,"ABJCIDHEGF","Passed AC2","","Spreadsheet1",1,"BIQ","Screen 1","9dh6eq",1,"response","3",10132.5,23607.3,23613.1999999985,10132.5,23607.3,23613.1999999985,1,10132.5,13480.6999999985,0,NA,"Rating Scale","Rating Scale",3,"object-5","BIQ",NA,"SUPPRF68963"
"4",1710536105490,"15/03/2024 20:55:05",1710518105490,-5,"15/03/2024 10:55:05",171533,4,"task-gjqt",NA,36139484,10671945,NA,"complete",NA,"65f4b2f1a1c2c8a3b4054911","computer","Desktop or Laptop","Windows 10","Chrome 122.0.0.0","1536x864","1536x730",NA,NA,0,"BIQ (Charlotte)",3,"ABJCIDHEGF","Passed AC2","","Spreadsheet1",1,"BIQ","Screen 1","9dh6eq",1,"response","4",17232.4,23607.3,23613.4999999993,17232.4,23607.3,23613.4999999993,1,17232.4,6381.09999999926,0,NA,"Rating Scale","Rating Scale",10,"object-18","BIQ",NA,"SUPPRF68963"
"5",1710536105491,"15/03/2024 20:55:05",1710518105491,-5,"15/03/2024 10:55:05",171533,4,"task-gjqt",NA,36139484,10671945,NA,"complete",NA,"65f4b2f1a1c2c8a3b4054911","computer","Desktop or Laptop","Windows 10","Chrome 122.0.0.0","1536x864","1536x730",NA,NA,0,"BIQ (Charlotte)",3,"ABJCIDHEGF","Passed AC2","","Spreadsheet1",1,"BIQ","Screen 1","9dh6eq",1,"response","4",22782.3,23607.3,23613.8999999978,22782.3,23607.3,23613.8999999978,1,22782.3,831.599999997765,0,NA,"Rating Scale","Rating Scale",17,"object-80","BIQ",NA,"SUPPRF68963"
"6",1710536128458,"15/03/2024 20:55:28",1710518128458,-5,"15/03/2024 10:55:28",171533,4,"task-gjqt",NA,36139484,10671945,NA,"complete",NA,"65f4b2f1a1c2c8a3b4054911","computer","Desktop or Laptop","Windows 10","Chrome 122.0.0.0","1536x864","1536x730",NA,NA,0,"BIQ (Charlotte)",3,"ABJCIDHEGF","Passed AC2","","Spreadsheet1",1,"BIQ","Screen 2","o21mwi",2,"continue","",22973.3999999985,22966.2,22973.3999999985,22973.3999999985,22966.2,22973.3999999985,1,22973.3999999985,0,0,NA,"Click To Continue","Continue Button",22,"object-50","BIQ",NA,"SUPPRF68963"
"7",1710536128460,"15/03/2024 20:55:28",1710518128460,-5,"15/03/2024 10:55:28",171533,4,"task-gjqt",NA,36139484,10671945,NA,"complete",NA,"65f4b2f1a1c2c8a3b4054911","computer","Desktop or Laptop","Windows 10","Chrome 122.0.0.0","1536x864","1536x730",NA,NA,0,"BIQ (Charlotte)",3,"ABJCIDHEGF","Passed AC2","","Spreadsheet1",1,"BIQ","Screen 2","o21mwi",2,"response","7",9166.5,22966.2,22974.6,9166.5,22966.2,22974.6,1,9166.5,13808.1,0,NA,"Rating Scale","Rating Scale",2,"object-259","BIQ",NA,"SUPPRF68963"
"8",1710536128461,"15/03/2024 20:55:28",1710518128461,-5,"15/03/2024 10:55:28",171533,4,"task-gjqt",NA,36139484,10671945,NA,"complete",NA,"65f4b2f1a1c2c8a3b4054911","computer","Desktop or Laptop","Windows 10","Chrome 122.0.0.0","1536x864","1536x730",NA,NA,0,"BIQ (Charlotte)",3,"ABJCIDHEGF","Passed AC2","","Spreadsheet1",1,"BIQ","Screen 2","o21mwi",2,"response","2",14599.6,22966.2,22974.6,14599.6,22966.2,22974.6,1,14599.6,8374.99999999999,0,NA,"Rating Scale","Rating Scale",9,"object-36","BIQ",NA,"SUPPRF68963"
"9",1710536128461,"15/03/2024 20:55:28",1710518128461,-5,"15/03/2024 10:55:28",171533,4,"task-gjqt",NA,36139484,10671945,NA,"complete",NA,"65f4b2f1a1c2c8a3b4054911","computer","Desktop or Laptop","Windows 10","Chrome 122.0.0.0","1536x864","1536x730",NA,NA,0,"BIQ (Charlotte)",3,"ABJCIDHEGF","Passed AC2","","Spreadsheet1",1,"BIQ","Screen 2","o21mwi",2,"response","4",22224.6,22966.2,22974.6,22224.6,22966.2,22974.6,1,22224.6,749.999999999993,0,NA,"Rating Scale","Rating Scale",16,"object-86","BIQ",NA,"SUPPRF68963"
"10",1710536145620,"15/03/2024 20:55:45",1710518145620,-5,"15/03/2024 10:55:45",171533,4,"task-gjqt",NA,36139484,10671945,NA,"complete",NA,"65f4b2f1a1c2c8a3b4054911","computer","Desktop or Laptop","Windows 10","Chrome 122.0.0.0","1536x864","1536x730",NA,NA,0,"BIQ (Charlotte)",3,"ABJCIDHEGF","Passed AC2","","Spreadsheet1",1,"BIQ","Screen 3","iz3the",3,"continue","",17169.3999999978,17167,17169.3999999978,17169.3999999978,17167,17169.3999999978,1,17169.3999999978,0,0,NA,"Click To Continue","Continue Button",22,"object-73","BIQ",NA,"SUPPRF68963"
"11",1710536145623,"15/03/2024 20:55:45",1710518145623,-5,"15/03/2024 10:55:45",171533,4,"task-gjqt",NA,36139484,10671945,NA,"complete",NA,"65f4b2f1a1c2c8a3b4054911","computer","Desktop or Laptop","Windows 10","Chrome 122.0.0.0","1536x864","1536x730",NA,NA,0,"BIQ (Charlotte)",3,"ABJCIDHEGF","Passed AC2","","Spreadsheet1",1,"BIQ","Screen 3","iz3the",3,"response","0",5433.2,17167,17172.4999999993,5433.2,17167,17172.4999999993,1,5433.2,11739.2999999993,0,NA,"Rating Scale","Rating Scale",2,"object-53","BIQ",NA,"SUPPRF68963"
"12",1710536145623,"15/03/2024 20:55:45",1710518145623,-5,"15/03/2024 10:55:45",171533,4,"task-gjqt",NA,36139484,10671945,NA,"complete",NA,"65f4b2f1a1c2c8a3b4054911","computer","Desktop or Laptop","Windows 10","Chrome 122.0.0.0","1536x864","1536x730",NA,NA,0,"BIQ (Charlotte)",3,"ABJCIDHEGF","Passed AC2","","Spreadsheet1",1,"BIQ","Screen 3","iz3the",3,"response","3",9499.8,17167,17172.8999999978,9499.8,17167,17172.8999999978,1,9499.8,7673.09999999776,0,NA,"Rating Scale","Rating Scale",9,"object-60","BIQ",NA,"SUPPRF68963"
"13",1710536145624,"15/03/2024 20:55:45",1710518145624,-5,"15/03/2024 10:55:45",171533,4,"task-gjqt",NA,36139484,10671945,NA,"complete",NA,"65f4b2f1a1c2c8a3b4054911","computer","Desktop or Laptop","Windows 10","Chrome 122.0.0.0","1536x864","1536x730",NA,NA,0,"BIQ (Charlotte)",3,"ABJCIDHEGF","Passed AC2","","Spreadsheet1",1,"BIQ","Screen 3","iz3the",3,"response","4",16308,17167,17173.3999999978,16308,17167,17173.3999999978,1,16308,865.399999997768,0,NA,"Rating Scale","Rating Scale",16,"object-67","BIQ",NA,"SUPPRF68963"
"14",1710536145626,"15/03/2024 20:55:45",1710518145626,-5,"15/03/2024 10:55:45",171533,4,"task-gjqt",NA,36139484,10671945,NA,"complete",NA,"65f4b2f1a1c2c8a3b4054911","computer","Desktop or Laptop","Windows 10","Chrome 122.0.0.0","1536x864","1536x730",NA,NA,0,"BIQ (Charlotte)",3,"ABJCIDHEGF","Passed AC2","","Spreadsheet1",NA,"","","",NA,"5","END",NA,NA,NA,NA,NA,NA,0,NA,NA,NA,NA,"","",NA,"","",NA,"SUPPRF68963"
"1",1710538678858,"15/03/2024 21:37:58",1710513478858,-7,"15/03/2024 07:37:58",171533,4,"task-gjqt",NA,36140572,10672236,NA,"complete",NA,"65f4b761bd9ff8c80728201f","computer","Desktop or Laptop","Mac OS 10.15.7","Chrome 120.0.0.0","1470x956","1470x765",NA,NA,0,"BIQ (Charlotte)",3,"BCADJEIFHG","Passed AC2","","Spreadsheet1",NA,"","","",NA,"5","BEGIN",NA,NA,NA,NA,NA,NA,0,NA,NA,NA,NA,"","",NA,"","",NA,"SUPPRF84585"
"2",1710538721049,"15/03/2024 21:38:41",1710513521049,-7,"15/03/2024 07:38:41",171533,4,"task-gjqt",NA,36140572,10672236,NA,"complete",NA,"65f4b761bd9ff8c80728201f","computer","Desktop or Laptop","Mac OS 10.15.7","Chrome 120.0.0.0","1470x956","1470x765",NA,NA,0,"BIQ (Charlotte)",3,"BCADJEIFHG","Passed AC2","","Spreadsheet1",1,"BIQ","Screen 1","9dh6eq",1,"continue","",42197.600000006,42183.1,42197.600000006,42197.600000006,42183.1,42197.600000006,1,42197.600000006,0,0,NA,"Click To Continue","Continue Button",23,"object-48","BIQ",NA,"SUPPRF84585"
"3",1710538721052,"15/03/2024 21:38:41",1710513521052,-7,"15/03/2024 07:38:41",171533,4,"task-gjqt",NA,36140572,10672236,NA,"complete",NA,"65f4b761bd9ff8c80728201f","computer","Desktop or Laptop","Mac OS 10.15.7","Chrome 120.0.0.0","1470x956","1470x765",NA,NA,0,"BIQ (Charlotte)",3,"BCADJEIFHG","Passed AC2","","Spreadsheet1",1,"BIQ","Screen 1","9dh6eq",1,"response","5",30033,42183.1,42199.7,30033,42183.1,42199.7,1,30033,12166.7,0,NA,"Rating Scale","Rating Scale",3,"object-5","BIQ",NA,"SUPPRF84585"
"4",1710538721052,"15/03/2024 21:38:41",1710513521052,-7,"15/03/2024 07:38:41",171533,4,"task-gjqt",NA,36140572,10672236,NA,"complete",NA,"65f4b761bd9ff8c80728201f","computer","Desktop or Laptop","Mac OS 10.15.7","Chrome 120.0.0.0","1470x956","1470x765",NA,NA,0,"BIQ (Charlotte)",3,"BCADJEIFHG","Passed AC2","","Spreadsheet1",1,"BIQ","Screen 1","9dh6eq",1,"response","6",37199.7,42183.1,42199.7,37199.7,42183.1,42199.7,1,37199.7,5000,0,NA,"Rating Scale","Rating Scale",10,"object-18","BIQ",NA,"SUPPRF84585"
"5",1710538721053,"15/03/2024 21:38:41",1710513521053,-7,"15/03/2024 07:38:41",171533,4,"task-gjqt",NA,36140572,10672236,NA,"complete",NA,"65f4b761bd9ff8c80728201f","computer","Desktop or Laptop","Mac OS 10.15.7","Chrome 120.0.0.0","1470x956","1470x765",NA,NA,0,"BIQ (Charlotte)",3,"BCADJEIFHG","Passed AC2","","Spreadsheet1",1,"BIQ","Screen 1","9dh6eq",1,"response","2",41299.8,42183.1,42199.7,41299.8,42183.1,42199.7,1,41299.8,899.900000000001,0,NA,"Rating Scale","Rating Scale",17,"object-80","BIQ",NA,"SUPPRF84585"
"6",1710538739645,"15/03/2024 21:38:59",1710513539645,-7,"15/03/2024 07:38:59",171533,4,"task-gjqt",NA,36140572,10672236,NA,"complete",NA,"65f4b761bd9ff8c80728201f","computer","Desktop or Laptop","Mac OS 10.15.7","Chrome 120.0.0.0","1470x956","1470x765",NA,NA,0,"BIQ (Charlotte)",3,"BCADJEIFHG","Passed AC2","","Spreadsheet1",1,"BIQ","Screen 2","o21mwi",2,"continue","",18611.699999994,18599.9,18611.699999994,18611.699999994,18599.9,18611.699999994,1,18611.699999994,0,0,NA,"Click To Continue","Continue Button",22,"object-50","BIQ",NA,"SUPPRF84585"
"7",1710538739648,"15/03/2024 21:38:59",1710513539648,-7,"15/03/2024 07:38:59",171533,4,"task-gjqt",NA,36140572,10672236,NA,"complete",NA,"65f4b761bd9ff8c80728201f","computer","Desktop or Laptop","Mac OS 10.15.7","Chrome 120.0.0.0","1470x956","1470x765",NA,NA,0,"BIQ (Charlotte)",3,"BCADJEIFHG","Passed AC2","","Spreadsheet1",1,"BIQ","Screen 2","o21mwi",2,"response","8",5999.8,18599.9,18614.699999994,5999.8,18599.9,18614.699999994,1,5999.8,12614.899999994,0,NA,"Rating Scale","Rating Scale",2,"object-259","BIQ",NA,"SUPPRF84585"
"8",1710538739649,"15/03/2024 21:38:59",1710513539649,-7,"15/03/2024 07:38:59",171533,4,"task-gjqt",NA,36140572,10672236,NA,"complete",NA,"65f4b761bd9ff8c80728201f","computer","Desktop or Laptop","Mac OS 10.15.7","Chrome 120.0.0.0","1470x956","1470x765",NA,NA,0,"BIQ (Charlotte)",3,"BCADJEIFHG","Passed AC2","","Spreadsheet1",1,"BIQ","Screen 2","o21mwi",2,"response","2",11316.5,18599.9,18615.199999994,11316.5,18599.9,18615.199999994,1,11316.5,7298.69999999404,0,NA,"Rating Scale","Rating Scale",9,"object-36","BIQ",NA,"SUPPRF84585"
"9",1710538739649,"15/03/2024 21:38:59",1710513539649,-7,"15/03/2024 07:38:59",171533,4,"task-gjqt",NA,36140572,10672236,NA,"complete",NA,"65f4b761bd9ff8c80728201f","computer","Desktop or Laptop","Mac OS 10.15.7","Chrome 120.0.0.0","1470x956","1470x765",NA,NA,0,"BIQ (Charlotte)",3,"BCADJEIFHG","Passed AC2","","Spreadsheet1",1,"BIQ","Screen 2","o21mwi",2,"response","0",16799.7,18599.9,18615.6,16799.7,18599.9,18615.6,1,16799.7,1815.9,0,NA,"Rating Scale","Rating Scale",16,"object-86","BIQ",NA,"SUPPRF84585"
"10",1710538767007,"15/03/2024 21:39:27",1710513567007,-7,"15/03/2024 07:39:27",171533,4,"task-gjqt",NA,36140572,10672236,NA,"complete",NA,"65f4b761bd9ff8c80728201f","computer","Desktop or Laptop","Mac OS 10.15.7","Chrome 120.0.0.0","1470x956","1470x765",NA,NA,0,"BIQ (Charlotte)",3,"BCADJEIFHG","Passed AC2","","Spreadsheet1",1,"BIQ","Screen 3","iz3the",3,"continue","",27373.4999999821,27366.2,27373.4999999821,27373.4999999821,27366.2,27373.4999999821,1,27373.4999999821,0,0,NA,"Click To Continue","Continue Button",22,"object-73","BIQ",NA,"SUPPRF84585"
"11",1710538767011,"15/03/2024 21:39:27",1710513567011,-7,"15/03/2024 07:39:27",171533,4,"task-gjqt",NA,36140572,10672236,NA,"complete",NA,"65f4b761bd9ff8c80728201f","computer","Desktop or Laptop","Mac OS 10.15.7","Chrome 120.0.0.0","1470x956","1470x765",NA,NA,0,"BIQ (Charlotte)",3,"BCADJEIFHG","Passed AC2","","Spreadsheet1",1,"BIQ","Screen 3","iz3the",3,"response","0",19849.8,27366.2,27377.3999999881,19849.8,27366.2,27377.3999999881,1,19849.8,7527.59999998807,0,NA,"Rating Scale","Rating Scale",2,"object-53","BIQ",NA,"SUPPRF84585"
"12",1710538767011,"15/03/2024 21:39:27",1710513567011,-7,"15/03/2024 07:39:27",171533,4,"task-gjqt",NA,36140572,10672236,NA,"complete",NA,"65f4b761bd9ff8c80728201f","computer","Desktop or Laptop","Mac OS 10.15.7","Chrome 120.0.0.0","1470x956","1470x765",NA,NA,0,"BIQ (Charlotte)",3,"BCADJEIFHG","Passed AC2","","Spreadsheet1",1,"BIQ","Screen 3","iz3the",3,"response","1",22749.7,27366.2,27377.799999994,22749.7,27366.2,27377.799999994,1,22749.7,4628.09999999404,0,NA,"Rating Scale","Rating Scale",9,"object-60","BIQ",NA,"SUPPRF84585"
"13",1710538767012,"15/03/2024 21:39:27",1710513567012,-7,"15/03/2024 07:39:27",171533,4,"task-gjqt",NA,36140572,10672236,NA,"complete",NA,"65f4b761bd9ff8c80728201f","computer","Desktop or Laptop","Mac OS 10.15.7","Chrome 120.0.0.0","1470x956","1470x765",NA,NA,0,"BIQ (Charlotte)",3,"BCADJEIFHG","Passed AC2","","Spreadsheet1",1,"BIQ","Screen 3","iz3the",3,"response","0",26582.9,27366.2,27378.2,26582.9,27366.2,27378.2,1,26582.9,795.300000000003,0,NA,"Rating Scale","Rating Scale",16,"object-67","BIQ",NA,"SUPPRF84585"
"14",1710538767016,"15/03/2024 21:39:27",1710513567016,-7,"15/03/2024 07:39:27",171533,4,"task-gjqt",NA,36140572,10672236,NA,"complete",NA,"65f4b761bd9ff8c80728201f","computer","Desktop or Laptop","Mac OS 10.15.7","Chrome 120.0.0.0","1470x956","1470x765",NA,NA,0,"BIQ (Charlotte)",3,"BCADJEIFHG","Passed AC2","","Spreadsheet1",NA,"","","",NA,"5","END",NA,NA,NA,NA,NA,NA,0,NA,NA,NA,NA,"","",NA,"","",NA,"SUPPRF84585"
"1",1710540265187,"15/03/2024 22:04:25",1710522265187,-5,"15/03/2024 12:04:25",171533,4,"task-gjqt",NA,36141107,10672354,NA,"complete",NA,"65f4c28dbaabda8dcafee3e9","computer","Desktop or Laptop","Windows 10","Chrome 122.0.0.0","1280x720","1280x559",NA,NA,0,"BIQ (Charlotte)",3,"CDBEAFJGIH","Passed AC2","","Spreadsheet1",NA,"","","",NA,"5","BEGIN",NA,NA,NA,NA,NA,NA,0,NA,NA,NA,NA,"","",NA,"","",NA,"SUPPRF98765"
"2",1710540286549,"15/03/2024 22:04:46",1710522286549,-5,"15/03/2024 12:04:46",171533,4,"task-gjqt",NA,36141107,10672354,NA,"complete",NA,"65f4c28dbaabda8dcafee3e9","computer","Desktop or Laptop","Windows 10","Chrome 122.0.0.0","1280x720","1280x559",NA,NA,0,"BIQ (Charlotte)",3,"CDBEAFJGIH","Passed AC2","","Spreadsheet1",1,"BIQ","Screen 1","9dh6eq",1,"continue","",21388.52,21371.82,21388.52,21388.52,21371.82,21388.52,1,21388.52,0,0,NA,"Click To Continue","Continue Button",23,"object-48","BIQ",NA,"SUPPRF98765"
"3",1710540286552,"15/03/2024 22:04:46",1710522286552,-5,"15/03/2024 12:04:46",171533,4,"task-gjqt",NA,36141107,10672354,NA,"complete",NA,"65f4c28dbaabda8dcafee3e9","computer","Desktop or Laptop","Windows 10","Chrome 122.0.0.0","1280x720","1280x559",NA,NA,0,"BIQ (Charlotte)",3,"CDBEAFJGIH","Passed AC2","","Spreadsheet1",1,"BIQ","Screen 1","9dh6eq",1,"response","0",8494.42,21371.82,21388.52,8494.42,21371.82,21388.52,1,8494.42,12894.1,0,NA,"Rating Scale","Rating Scale",3,"object-5","BIQ",NA,"SUPPRF98765"
"4",1710540286553,"15/03/2024 22:04:46",1710522286553,-5,"15/03/2024 12:04:46",171533,4,"task-gjqt",NA,36141107,10672354,NA,"complete",NA,"65f4c28dbaabda8dcafee3e9","computer","Desktop or Laptop","Windows 10","Chrome 122.0.0.0","1280x720","1280x559",NA,NA,0,"BIQ (Charlotte)",3,"CDBEAFJGIH","Passed AC2","","Spreadsheet1",1,"BIQ","Screen 1","9dh6eq",1,"response","6",14791.72,21371.82,21388.52,14791.72,21371.82,21388.52,1,14791.72,6596.8,0,NA,"Rating Scale","Rating Scale",10,"object-18","BIQ",NA,"SUPPRF98765"
"5",1710540286554,"15/03/2024 22:04:46",1710522286554,-5,"15/03/2024 12:04:46",171533,4,"task-gjqt",NA,36141107,10672354,NA,"complete",NA,"65f4c28dbaabda8dcafee3e9","computer","Desktop or Laptop","Windows 10","Chrome 122.0.0.0","1280x720","1280x559",NA,NA,0,"BIQ (Charlotte)",3,"CDBEAFJGIH","Passed AC2","","Spreadsheet1",1,"BIQ","Screen 1","9dh6eq",1,"response","2",20722.32,21371.82,21388.52,20722.32,21371.82,21388.52,1,20722.32,666.199999999997,0,NA,"Rating Scale","Rating Scale",17,"object-80","BIQ",NA,"SUPPRF98765"
"6",1710540309141,"15/03/2024 22:05:09",1710522309141,-5,"15/03/2024 12:05:09",171533,4,"task-gjqt",NA,36141107,10672354,NA,"complete",NA,"65f4c28dbaabda8dcafee3e9","computer","Desktop or Laptop","Windows 10","Chrome 122.0.0.0","1280x720","1280x559",NA,NA,0,"BIQ (Charlotte)",3,"CDBEAFJGIH","Passed AC2","","Spreadsheet1",1,"BIQ","Screen 2","o21mwi",2,"continue","",22627.7999999985,22623,22627.7999999985,22627.7999999985,22623,22627.7999999985,1,22627.7999999985,0,0,NA,"Click To Continue","Continue Button",22,"object-50","BIQ",NA,"SUPPRF98765"
"7",1710540309146,"15/03/2024 22:05:09",1710522309146,-5,"15/03/2024 12:05:09",171533,4,"task-gjqt",NA,36141107,10672354,NA,"complete",NA,"65f4c28dbaabda8dcafee3e9","computer","Desktop or Laptop","Windows 10","Chrome 122.0.0.0","1280x720","1280x559",NA,NA,0,"BIQ (Charlotte)",3,"CDBEAFJGIH","Passed AC2","","Spreadsheet1",1,"BIQ","Screen 2","o21mwi",2,"response","7",8496.6,22623,22632.9,8496.6,22623,22632.9,1,8496.6,14136.3,0,NA,"Rating Scale","Rating Scale",2,"object-259","BIQ",NA,"SUPPRF98765"
"8",1710540309147,"15/03/2024 22:05:09",1710522309147,-5,"15/03/2024 12:05:09",171533,4,"task-gjqt",NA,36141107,10672354,NA,"complete",NA,"65f4c28dbaabda8dcafee3e9","computer","Desktop or Laptop","Windows 10","Chrome 122.0.0.0","1280x720","1280x559",NA,NA,0,"BIQ (Charlotte)",3,"CDBEAFJGIH","Passed AC2","","Spreadsheet1",1,"BIQ","Screen 2","o21mwi",2,"response","3",12910.9,22623,22633.9999999996,12910.9,22623,22633.9999999996,1,12910.9,9723.09999999963,0,NA,"Rating Scale","Rating Scale",9,"object-36","BIQ",NA,"SUPPRF98765"
"9",1710540309148,"15/03/2024 22:05:09",1710522309148,-5,"15/03/2024 12:05:09",171533,4,"task-gjqt",NA,36141107,10672354,NA,"complete",NA,"65f4c28dbaabda8dcafee3e9","computer","Desktop or Laptop","Windows 10","Chrome 122.0.0.0","1280x720","1280x559",NA,NA,0,"BIQ (Charlotte)",3,"CDBEAFJGIH","Passed AC2","","Spreadsheet1",1,"BIQ","Screen 2","o21mwi",2,"response","0",21873.5,22623,22635.2999999985,21873.5,22623,22635.2999999985,1,21873.5,761.799999998511,0,NA,"Rating Scale","Rating Scale",16,"object-86","BIQ",NA,"SUPPRF98765"
"10",1710540324471,"15/03/2024 22:05:24",1710522324471,-5,"15/03/2024 12:05:24",171533,4,"task-gjqt",NA,36141107,10672354,NA,"complete",NA,"65f4c28dbaabda8dcafee3e9","computer","Desktop or Laptop","Windows 10","Chrome 122.0.0.0","1280x720","1280x559",NA,NA,0,"BIQ (Charlotte)",3,"CDBEAFJGIH","Passed AC2","","Spreadsheet1",1,"BIQ","Screen 3","iz3the",3,"continue","",15334.1999999989,15326.4,15334.1999999989,15334.1999999989,15326.4,15334.1999999989,1,15334.1999999989,0,0,NA,"Click To Continue","Continue Button",22,"object-73","BIQ",NA,"SUPPRF98765"
"11",1710540324478,"15/03/2024 22:05:24",1710522324478,-5,"15/03/2024 12:05:24",171533,4,"task-gjqt",NA,36141107,10672354,NA,"complete",NA,"65f4c28dbaabda8dcafee3e9","computer","Desktop or Laptop","Windows 10","Chrome 122.0.0.0","1280x720","1280x559",NA,NA,0,"BIQ (Charlotte)",3,"CDBEAFJGIH","Passed AC2","","Spreadsheet1",1,"BIQ","Screen 3","iz3the",3,"response","0",5281.2,15326.4,15341.1999999989,5281.2,15326.4,15341.1999999989,1,5281.2,10059.9999999989,0,NA,"Rating Scale","Rating Scale",2,"object-53","BIQ",NA,"SUPPRF98765"
"12",1710540324479,"15/03/2024 22:05:24",1710522324479,-5,"15/03/2024 12:05:24",171533,4,"task-gjqt",NA,36141107,10672354,NA,"complete",NA,"65f4c28dbaabda8dcafee3e9","computer","Desktop or Laptop","Windows 10","Chrome 122.0.0.0","1280x720","1280x559",NA,NA,0,"BIQ (Charlotte)",3,"CDBEAFJGIH","Passed AC2","","Spreadsheet1",1,"BIQ","Screen 3","iz3the",3,"response","1",9312.6,15326.4,15342.7999999985,9312.6,15326.4,15342.7999999985,1,9312.6,6030.19999999851,0,NA,"Rating Scale","Rating Scale",9,"object-60","BIQ",NA,"SUPPRF98765"
"13",1710540324481,"15/03/2024 22:05:24",1710522324481,-5,"15/03/2024 12:05:24",171533,4,"task-gjqt",NA,36141107,10672354,NA,"complete",NA,"65f4c28dbaabda8dcafee3e9","computer","Desktop or Laptop","Windows 10","Chrome 122.0.0.0","1280x720","1280x559",NA,NA,0,"BIQ (Charlotte)",3,"CDBEAFJGIH","Passed AC2","","Spreadsheet1",1,"BIQ","Screen 3","iz3the",3,"response","6",13593.8,15326.4,15343.1,13593.8,15326.4,15343.1,1,13593.8,1749.3,0,NA,"Rating Scale","Rating Scale",16,"object-67","BIQ",NA,"SUPPRF98765"
"14",1710540324491,"15/03/2024 22:05:24",1710522324491,-5,"15/03/2024 12:05:24",171533,4,"task-gjqt",NA,36141107,10672354,NA,"complete",NA,"65f4c28dbaabda8dcafee3e9","computer","Desktop or Laptop","Windows 10","Chrome 122.0.0.0","1280x720","1280x559",NA,NA,0,"BIQ (Charlotte)",3,"CDBEAFJGIH","Passed AC2","","Spreadsheet1",NA,"","","",NA,"5","END",NA,NA,NA,NA,NA,NA,0,NA,NA,NA,NA,"","",NA,"","",NA,"SUPPRF98765"
"1",1710541599939,"15/03/2024 22:26:39",1710527199939,-4,"15/03/2024 14:26:39",171533,4,"task-gjqt",NA,36141614,10672498,NA,"complete",NA,"65f4c9821924d962035ee23d","computer","Desktop or Laptop","Windows 10","Chrome 122.0.0.0","1920x1080","1920x953",NA,NA,0,"BIQ (Charlotte)",3,"DECFBGAHJI","Passed AC2","","Spreadsheet1",NA,"","","",NA,"5","BEGIN",NA,NA,NA,NA,NA,NA,0,NA,NA,NA,NA,"","",NA,"","",NA,"SUPPRF97604"
"2",1710541620126,"15/03/2024 22:27:00",1710527220126,-4,"15/03/2024 14:27:00",171533,4,"task-gjqt",NA,36141614,10672498,NA,"complete",NA,"65f4c9821924d962035ee23d","computer","Desktop or Laptop","Windows 10","Chrome 122.0.0.0","1920x1080","1920x953",NA,NA,0,"BIQ (Charlotte)",3,"DECFBGAHJI","Passed AC2","","Spreadsheet1",1,"BIQ","Screen 1","9dh6eq",1,"continue","",20191.1000001907,20182.9,20191.1000001907,20191.1000001907,20182.9,20191.1000001907,1,20191.1000001907,0,0,NA,"Click To Continue","Continue Button",23,"object-48","BIQ",NA,"SUPPRF97604"
"3",1710541620127,"15/03/2024 22:27:00",1710527220127,-4,"15/03/2024 14:27:00",171533,4,"task-gjqt",NA,36141614,10672498,NA,"complete",NA,"65f4c9821924d962035ee23d","computer","Desktop or Laptop","Windows 10","Chrome 122.0.0.0","1920x1080","1920x953",NA,NA,0,"BIQ (Charlotte)",3,"DECFBGAHJI","Passed AC2","","Spreadsheet1",1,"BIQ","Screen 1","9dh6eq",1,"response","7",11341.4,20182.9,20191.3,11341.4,20182.9,20191.3,1,11341.4,8849.89999999999,0,NA,"Rating Scale","Rating Scale",3,"object-5","BIQ",NA,"SUPPRF97604"
"4",1710541620128,"15/03/2024 22:27:00",1710527220128,-4,"15/03/2024 14:27:00",171533,4,"task-gjqt",NA,36141614,10672498,NA,"complete",NA,"65f4c9821924d962035ee23d","computer","Desktop or Laptop","Windows 10","Chrome 122.0.0.0","1920x1080","1920x953",NA,NA,0,"BIQ (Charlotte)",3,"DECFBGAHJI","Passed AC2","","Spreadsheet1",1,"BIQ","Screen 1","9dh6eq",1,"response","6",13783.1,20182.9,20191.3,13783.1,20182.9,20191.3,1,13783.1,6408.2,0,NA,"Rating Scale","Rating Scale",10,"object-18","BIQ",NA,"SUPPRF97604"
"5",1710541620128,"15/03/2024 22:27:00",1710527220128,-4,"15/03/2024 14:27:00",171533,4,"task-gjqt",NA,36141614,10672498,NA,"complete",NA,"65f4c9821924d962035ee23d","computer","Desktop or Laptop","Windows 10","Chrome 122.0.0.0","1920x1080","1920x953",NA,NA,0,"BIQ (Charlotte)",3,"DECFBGAHJI","Passed AC2","","Spreadsheet1",1,"BIQ","Screen 1","9dh6eq",1,"response","0",18774.8,20182.9,20191.3,18774.8,20182.9,20191.3,1,18774.8,1416.5,0,NA,"Rating Scale","Rating Scale",17,"object-80","BIQ",NA,"SUPPRF97604"
"6",1710541638616,"15/03/2024 22:27:18",1710527238616,-4,"15/03/2024 14:27:18",171533,4,"task-gjqt",NA,36141614,10672498,NA,"complete",NA,"65f4c9821924d962035ee23d","computer","Desktop or Laptop","Windows 10","Chrome 122.0.0.0","1920x1080","1920x953",NA,NA,0,"BIQ (Charlotte)",3,"DECFBGAHJI","Passed AC2","","Spreadsheet1",1,"BIQ","Screen 2","o21mwi",2,"continue","",18498.0000001431,18491.3,18498.0000001431,18498.0000001431,18491.3,18498.0000001431,1,18498.0000001431,0,0,NA,"Click To Continue","Continue Button",22,"object-50","BIQ",NA,"SUPPRF97604"
"7",1710541638618,"15/03/2024 22:27:18",1710527238618,-4,"15/03/2024 14:27:18",171533,4,"task-gjqt",NA,36141614,10672498,NA,"complete",NA,"65f4c9821924d962035ee23d","computer","Desktop or Laptop","Windows 10","Chrome 122.0.0.0","1920x1080","1920x953",NA,NA,0,"BIQ (Charlotte)",3,"DECFBGAHJI","Passed AC2","","Spreadsheet1",1,"BIQ","Screen 2","o21mwi",2,"response","8",5899.9,18491.3,18499.5,5899.9,18491.3,18499.5,1,5899.9,12599.6,0,NA,"Rating Scale","Rating Scale",2,"object-259","BIQ",NA,"SUPPRF97604"
"8",1710541638618,"15/03/2024 22:27:18",1710527238618,-4,"15/03/2024 14:27:18",171533,4,"task-gjqt",NA,36141614,10672498,NA,"complete",NA,"65f4c9821924d962035ee23d","computer","Desktop or Laptop","Windows 10","Chrome 122.0.0.0","1920x1080","1920x953",NA,NA,0,"BIQ (Charlotte)",3,"DECFBGAHJI","Passed AC2","","Spreadsheet1",1,"BIQ","Screen 2","o21mwi",2,"response","1",9191.5,18491.3,18499.5,9191.5,18491.3,18499.5,1,9191.5,9308.00000000001,0,NA,"Rating Scale","Rating Scale",9,"object-36","BIQ",NA,"SUPPRF97604"
"9",1710541638618,"15/03/2024 22:27:18",1710527238618,-4,"15/03/2024 14:27:18",171533,4,"task-gjqt",NA,36141614,10672498,NA,"complete",NA,"65f4c9821924d962035ee23d","computer","Desktop or Laptop","Windows 10","Chrome 122.0.0.0","1920x1080","1920x953",NA,NA,0,"BIQ (Charlotte)",3,"DECFBGAHJI","Passed AC2","","Spreadsheet1",1,"BIQ","Screen 2","o21mwi",2,"response","4",16741.4,18491.3,18499.5,16741.4,18491.3,18499.5,1,16741.4,1758.10000000001,0,NA,"Rating Scale","Rating Scale",16,"object-86","BIQ",NA,"SUPPRF97604"
"10",1710541651303,"15/03/2024 22:27:31",1710527251303,-4,"15/03/2024 14:27:31",171533,4,"task-gjqt",NA,36141614,10672498,NA,"complete",NA,"65f4c9821924d962035ee23d","computer","Desktop or Laptop","Windows 10","Chrome 122.0.0.0","1920x1080","1920x953",NA,NA,0,"BIQ (Charlotte)",3,"DECFBGAHJI","Passed AC2","","Spreadsheet1",1,"BIQ","Screen 3","iz3the",3,"continue","",12694.5000000954,12691.4,12694.5000000954,12694.5000000954,12691.4,12694.5000000954,1,12694.5000000954,0,0,NA,"Click To Continue","Continue Button",22,"object-73","BIQ",NA,"SUPPRF97604"
"11",1710541651305,"15/03/2024 22:27:31",1710527251305,-4,"15/03/2024 14:27:31",171533,4,"task-gjqt",NA,36141614,10672498,NA,"complete",NA,"65f4c9821924d962035ee23d","computer","Desktop or Laptop","Windows 10","Chrome 122.0.0.0","1920x1080","1920x953",NA,NA,0,"BIQ (Charlotte)",3,"DECFBGAHJI","Passed AC2","","Spreadsheet1",1,"BIQ","Screen 3","iz3the",3,"response","0",4241.6,12691.4,12695.9000001907,4241.6,12691.4,12695.9000001907,1,4241.6,8454.30000019073,0,NA,"Rating Scale","Rating Scale",2,"object-53","BIQ",NA,"SUPPRF97604"
"12",1710541651305,"15/03/2024 22:27:31",1710527251305,-4,"15/03/2024 14:27:31",171533,4,"task-gjqt",NA,36141614,10672498,NA,"complete",NA,"65f4c9821924d962035ee23d","computer","Desktop or Laptop","Windows 10","Chrome 122.0.0.0","1920x1080","1920x953",NA,NA,0,"BIQ (Charlotte)",3,"DECFBGAHJI","Passed AC2","","Spreadsheet1",1,"BIQ","Screen 3","iz3the",3,"response","0",8666.5,12691.4,12696.200000143,8666.5,12691.4,12696.200000143,1,8666.5,4029.70000014305,0,NA,"Rating Scale","Rating Scale",9,"object-60","BIQ",NA,"SUPPRF97604"
"13",1710541651305,"15/03/2024 22:27:31",1710527251305,-4,"15/03/2024 14:27:31",171533,4,"task-gjqt",NA,36141614,10672498,NA,"complete",NA,"65f4c9821924d962035ee23d","computer","Desktop or Laptop","Windows 10","Chrome 122.0.0.0","1920x1080","1920x953",NA,NA,0,"BIQ (Charlotte)",3,"DECFBGAHJI","Passed AC2","","Spreadsheet1",1,"BIQ","Screen 3","iz3the",3,"response","0",12033.1,12691.4,12696.4000001907,12033.1,12691.4,12696.4000001907,1,12033.1,663.300000190735,0,NA,"Rating Scale","Rating Scale",16,"object-67","BIQ",NA,"SUPPRF97604"
"14",1710541651308,"15/03/2024 22:27:31",1710527251308,-4,"15/03/2024 14:27:31",171533,4,"task-gjqt",NA,36141614,10672498,NA,"complete",NA,"65f4c9821924d962035ee23d","computer","Desktop or Laptop","Windows 10","Chrome 122.0.0.0","1920x1080","1920x953",NA,NA,0,"BIQ (Charlotte)",3,"DECFBGAHJI","Passed AC2","","Spreadsheet1",NA,"","","",NA,"5","END",NA,NA,NA,NA,NA,NA,0,NA,NA,NA,NA,"","",NA,"","",NA,"SUPPRF97604"
"1",1710544712838,"15/03/2024 23:18:32",1710526712838,-5,"15/03/2024 13:18:32",171533,4,"task-gjqt",NA,36142854,10672728,NA,"complete",NA,"65f4d59bfcabf3140fc11967","computer","Desktop or Laptop","Windows 10","Chrome 122.0.0.0","2560x1440","2560x1271",NA,NA,0,"BIQ (Charlotte)",3,"EFDGCHBIAJ","Passed AC2","","Spreadsheet1",NA,"","","",NA,"5","BEGIN",NA,NA,NA,NA,NA,NA,0,NA,NA,NA,NA,"","",NA,"","",NA,"SUPPRF21256"
"2",1710544732654,"15/03/2024 23:18:52",1710526732654,-5,"15/03/2024 13:18:52",171533,4,"task-gjqt",NA,36142854,10672728,NA,"complete",NA,"65f4d59bfcabf3140fc11967","computer","Desktop or Laptop","Windows 10","Chrome 122.0.0.0","2560x1440","2560x1271",NA,NA,0,"BIQ (Charlotte)",3,"EFDGCHBIAJ","Passed AC2","","Spreadsheet1",1,"BIQ","Screen 1","9dh6eq",1,"continue","",19823.9,19816.2,19823.9,19823.9,19816.2,19823.9,1,19823.9,0,0,NA,"Click To Continue","Continue Button",23,"object-48","BIQ",NA,"SUPPRF21256"
"3",1710544732656,"15/03/2024 23:18:52",1710526732656,-5,"15/03/2024 13:18:52",171533,4,"task-gjqt",NA,36142854,10672728,NA,"complete",NA,"65f4d59bfcabf3140fc11967","computer","Desktop or Laptop","Windows 10","Chrome 122.0.0.0","2560x1440","2560x1271",NA,NA,0,"BIQ (Charlotte)",3,"EFDGCHBIAJ","Passed AC2","","Spreadsheet1",1,"BIQ","Screen 1","9dh6eq",1,"response","6",9507.8,19816.2,19825.499999994,9507.8,19816.2,19825.499999994,1,9507.8,10317.699999994,0,NA,"Rating Scale","Rating Scale",3,"object-5","BIQ",NA,"SUPPRF21256"
"4",1710544732656,"15/03/2024 23:18:52",1710526732656,-5,"15/03/2024 13:18:52",171533,4,"task-gjqt",NA,36142854,10672728,NA,"complete",NA,"65f4d59bfcabf3140fc11967","computer","Desktop or Laptop","Windows 10","Chrome 122.0.0.0","2560x1440","2560x1271",NA,NA,0,"BIQ (Charlotte)",3,"EFDGCHBIAJ","Passed AC2","","Spreadsheet1",1,"BIQ","Screen 1","9dh6eq",1,"response","4",10959,19816.2,19825.7000000119,10959,19816.2,19825.7000000119,1,10959,8866.70000001192,0,NA,"Rating Scale","Rating Scale",10,"object-18","BIQ",NA,"SUPPRF21256"
"5",1710544732656,"15/03/2024 23:18:52",1710526732656,-5,"15/03/2024 13:18:52",171533,4,"task-gjqt",NA,36142854,10672728,NA,"complete",NA,"65f4d59bfcabf3140fc11967","computer","Desktop or Laptop","Windows 10","Chrome 122.0.0.0","2560x1440","2560x1271",NA,NA,0,"BIQ (Charlotte)",3,"EFDGCHBIAJ","Passed AC2","","Spreadsheet1",1,"BIQ","Screen 1","9dh6eq",1,"response","5",14428.4,19816.2,19825.800000006,14428.4,19816.2,19825.800000006,1,14428.4,5397.40000000596,0,NA,"Rating Scale","Rating Scale",17,"object-80","BIQ",NA,"SUPPRF21256"
"6",1710544758872,"15/03/2024 23:19:18",1710526758872,-5,"15/03/2024 13:19:18",171533,4,"task-gjqt",NA,36142854,10672728,NA,"complete",NA,"65f4d59bfcabf3140fc11967","computer","Desktop or Laptop","Windows 10","Chrome 122.0.0.0","2560x1440","2560x1271",NA,NA,0,"BIQ (Charlotte)",3,"EFDGCHBIAJ","Passed AC2","","Spreadsheet1",1,"BIQ","Screen 2","o21mwi",2,"continue","",26225.100000006,26221,26225.100000006,26225.100000006,26221,26225.100000006,1,26225.100000006,0,0,NA,"Click To Continue","Continue Button",22,"object-50","BIQ",NA,"SUPPRF21256"
"7",1710544758873,"15/03/2024 23:19:18",1710526758873,-5,"15/03/2024 13:19:18",171533,4,"task-gjqt",NA,36142854,10672728,NA,"complete",NA,"65f4d59bfcabf3140fc11967","computer","Desktop or Laptop","Windows 10","Chrome 122.0.0.0","2560x1440","2560x1271",NA,NA,0,"BIQ (Charlotte)",3,"EFDGCHBIAJ","Passed AC2","","Spreadsheet1",1,"BIQ","Screen 2","o21mwi",2,"response","6",5704.6,26221,26226.799999994,5704.6,26221,26226.799999994,1,5704.6,20522.199999994,0,NA,"Rating Scale","Rating Scale",2,"object-259","BIQ",NA,"SUPPRF21256"
"8",1710544758873,"15/03/2024 23:19:18",1710526758873,-5,"15/03/2024 13:19:18",171533,4,"task-gjqt",NA,36142854,10672728,NA,"complete",NA,"65f4d59bfcabf3140fc11967","computer","Desktop or Laptop","Windows 10","Chrome 122.0.0.0","2560x1440","2560x1271",NA,NA,0,"BIQ (Charlotte)",3,"EFDGCHBIAJ","Passed AC2","","Spreadsheet1",1,"BIQ","Screen 2","o21mwi",2,"response","2",11559.3,26221,26227.100000006,11559.3,26221,26227.100000006,1,11559.3,14667.800000006,0,NA,"Rating Scale","Rating Scale",9,"object-36","BIQ",NA,"SUPPRF21256"
"9",1710544758874,"15/03/2024 23:19:18",1710526758874,-5,"15/03/2024 13:19:18",171533,4,"task-gjqt",NA,36142854,10672728,NA,"complete",NA,"65f4d59bfcabf3140fc11967","computer","Desktop or Laptop","Windows 10","Chrome 122.0.0.0","2560x1440","2560x1271",NA,NA,0,"BIQ (Charlotte)",3,"EFDGCHBIAJ","Passed AC2","","Spreadsheet1",1,"BIQ","Screen 2","o21mwi",2,"response","1",25220.3,26221,26227.299999994,25220.3,26221,26227.299999994,1,25220.3,1006.99999999404,0,NA,"Rating Scale","Rating Scale",16,"object-86","BIQ",NA,"SUPPRF21256"
"10",1710544770790,"15/03/2024 23:19:30",1710526770790,-5,"15/03/2024 13:19:30",171533,4,"task-gjqt",NA,36142854,10672728,NA,"complete",NA,"65f4d59bfcabf3140fc11967","computer","Desktop or Laptop","Windows 10","Chrome 122.0.0.0","2560x1440","2560x1271",NA,NA,0,"BIQ (Charlotte)",3,"EFDGCHBIAJ","Passed AC2","","Spreadsheet1",1,"BIQ","Screen 3","iz3the",3,"continue","",11932.299999994,11926.3,11932.299999994,11932.299999994,11926.3,11932.299999994,1,11932.299999994,0,0,NA,"Click To Continue","Continue Button",22,"object-73","BIQ",NA,"SUPPRF21256"
"11",1710544770792,"15/03/2024 23:19:30",1710526770792,-5,"15/03/2024 13:19:30",171533,4,"task-gjqt",NA,36142854,10672728,NA,"complete",NA,"65f4d59bfcabf3140fc11967","computer","Desktop or Laptop","Windows 10","Chrome 122.0.0.0","2560x1440","2560x1271",NA,NA,0,"BIQ (Charlotte)",3,"EFDGCHBIAJ","Passed AC2","","Spreadsheet1",1,"BIQ","Screen 3","iz3the",3,"response","3",4203.39999999999,11926.3,11934.0000000119,4203.39999999999,11926.3,11934.0000000119,1,4203.39999999999,7730.60000001192,0,NA,"Rating Scale","Rating Scale",2,"object-53","BIQ",NA,"SUPPRF21256"
"12",1710544770792,"15/03/2024 23:19:30",1710526770792,-5,"15/03/2024 13:19:30",171533,4,"task-gjqt",NA,36142854,10672728,NA,"complete",NA,"65f4d59bfcabf3140fc11967","computer","Desktop or Laptop","Windows 10","Chrome 122.0.0.0","2560x1440","2560x1271",NA,NA,0,"BIQ (Charlotte)",3,"EFDGCHBIAJ","Passed AC2","","Spreadsheet1",1,"BIQ","Screen 3","iz3the",3,"response","3",7339.3,11926.3,11934.299999994,7339.3,11926.3,11934.299999994,1,7339.3,4594.99999999404,0,NA,"Rating Scale","Rating Scale",9,"object-60","BIQ",NA,"SUPPRF21256"
"13",1710544770792,"15/03/2024 23:19:30",1710526770792,-5,"15/03/2024 13:19:30",171533,4,"task-gjqt",NA,36142854,10672728,NA,"complete",NA,"65f4d59bfcabf3140fc11967","computer","Desktop or Laptop","Windows 10","Chrome 122.0.0.0","2560x1440","2560x1271",NA,NA,0,"BIQ (Charlotte)",3,"EFDGCHBIAJ","Passed AC2","","Spreadsheet1",1,"BIQ","Screen 3","iz3the",3,"response","2",8857.2,11926.3,11934.600000006,8857.2,11926.3,11934.600000006,1,8857.2,3077.40000000596,0,NA,"Rating Scale","Rating Scale",16,"object-67","BIQ",NA,"SUPPRF21256"
"14",1710544770795,"15/03/2024 23:19:30",1710526770795,-5,"15/03/2024 13:19:30",171533,4,"task-gjqt",NA,36142854,10672728,NA,"complete",NA,"65f4d59bfcabf3140fc11967","computer","Desktop or Laptop","Windows 10","Chrome 122.0.0.0","2560x1440","2560x1271",NA,NA,0,"BIQ (Charlotte)",3,"EFDGCHBIAJ","Passed AC2","","Spreadsheet1",NA,"","","",NA,"5","END",NA,NA,NA,NA,NA,NA,0,NA,NA,NA,NA,"","",NA,"","",NA,"SUPPRF21256"
"1",1710547374374,"16/03/2024 00:02:54",1710547374374,0,"16/03/2024 00:02:54",171533,4,"task-gjqt",NA,36143273,10672824,NA,"complete",NA,"65f4e159509732b59f7378aa","computer","Desktop or Laptop","Mac OS 10.15.7","Chrome 122.0.0.0","1440x900","1440x677",NA,NA,0,"BIQ (Charlotte)",3,"FGEHDICJBA","Passed AC2","","Spreadsheet1",NA,"","","",NA,"5","BEGIN",NA,NA,NA,NA,NA,NA,0,NA,NA,NA,NA,"","",NA,"","",NA,"SUPPRF99019"
"2",1710547397055,"16/03/2024 00:03:17",1710547397055,0,"16/03/2024 00:03:17",171533,4,"task-gjqt",NA,36143273,10672824,NA,"complete",NA,"65f4e159509732b59f7378aa","computer","Desktop or Laptop","Mac OS 10.15.7","Chrome 122.0.0.0","1440x900","1440x677",NA,NA,0,"BIQ (Charlotte)",3,"FGEHDICJBA","Passed AC2","","Spreadsheet1",1,"BIQ","Screen 1","9dh6eq",1,"continue","",22693.8,22677.1,22693.8,22693.8,22677.1,22693.8,1,22693.8,0,0,NA,"Click To Continue","Continue Button",23,"object-48","BIQ",NA,"SUPPRF99019"
"3",1710547397058,"16/03/2024 00:03:17",1710547397058,0,"16/03/2024 00:03:17",171533,4,"task-gjqt",NA,36143273,10672824,NA,"complete",NA,"65f4e159509732b59f7378aa","computer","Desktop or Laptop","Mac OS 10.15.7","Chrome 122.0.0.0","1440x900","1440x677",NA,NA,0,"BIQ (Charlotte)",3,"FGEHDICJBA","Passed AC2","","Spreadsheet1",1,"BIQ","Screen 1","9dh6eq",1,"response","6",5581.4,22677.1,22693.8,5581.4,22677.1,22693.8,1,5581.4,17112.4,0,NA,"Rating Scale","Rating Scale",3,"object-5","BIQ",NA,"SUPPRF99019"
"4",1710547397058,"16/03/2024 00:03:17",1710547397058,0,"16/03/2024 00:03:17",171533,4,"task-gjqt",NA,36143273,10672824,NA,"complete",NA,"65f4e159509732b59f7378aa","computer","Desktop or Laptop","Mac OS 10.15.7","Chrome 122.0.0.0","1440x900","1440x677",NA,NA,0,"BIQ (Charlotte)",3,"FGEHDICJBA","Passed AC2","","Spreadsheet1",1,"BIQ","Screen 1","9dh6eq",1,"response","7",13669.7,22677.1,22693.8,13669.7,22677.1,22693.8,1,13669.7,9024.1,0,NA,"Rating Scale","Rating Scale",10,"object-18","BIQ",NA,"SUPPRF99019"
"5",1710547397059,"16/03/2024 00:03:17",1710547397059,0,"16/03/2024 00:03:17",171533,4,"task-gjqt",NA,36143273,10672824,NA,"complete",NA,"65f4e159509732b59f7378aa","computer","Desktop or Laptop","Mac OS 10.15.7","Chrome 122.0.0.0","1440x900","1440x677",NA,NA,0,"BIQ (Charlotte)",3,"FGEHDICJBA","Passed AC2","","Spreadsheet1",1,"BIQ","Screen 1","9dh6eq",1,"response","2",21724.6,22677.1,22693.8,21724.6,22677.1,22693.8,1,21724.6,969.200000000001,0,NA,"Rating Scale","Rating Scale",17,"object-80","BIQ",NA,"SUPPRF99019"
"6",1710547416357,"16/03/2024 00:03:36",1710547416357,0,"16/03/2024 00:03:36",171533,4,"task-gjqt",NA,36143273,10672824,NA,"complete",NA,"65f4e159509732b59f7378aa","computer","Desktop or Laptop","Mac OS 10.15.7","Chrome 122.0.0.0","1440x900","1440x677",NA,NA,0,"BIQ (Charlotte)",3,"FGEHDICJBA","Passed AC2","","Spreadsheet1",1,"BIQ","Screen 2","o21mwi",2,"continue","",19320.5000000715,19318.3,19320.5000000715,19320.5000000715,19318.3,19320.5000000715,1,19320.5000000715,0,0,NA,"Click To Continue","Continue Button",22,"object-50","BIQ",NA,"SUPPRF99019"
"7",1710547416360,"16/03/2024 00:03:36",1710547416360,0,"16/03/2024 00:03:36",171533,4,"task-gjqt",NA,36143273,10672824,NA,"complete",NA,"65f4e159509732b59f7378aa","computer","Desktop or Laptop","Mac OS 10.15.7","Chrome 122.0.0.0","1440x900","1440x677",NA,NA,0,"BIQ (Charlotte)",3,"FGEHDICJBA","Passed AC2","","Spreadsheet1",1,"BIQ","Screen 2","o21mwi",2,"response","6",5214.1,19318.3,19323.1000000954,5214.1,19318.3,19323.1000000954,1,5214.1,14109.0000000954,0,NA,"Rating Scale","Rating Scale",2,"object-259","BIQ",NA,"SUPPRF99019"
"8",1710547416360,"16/03/2024 00:03:36",1710547416360,0,"16/03/2024 00:03:36",171533,4,"task-gjqt",NA,36143273,10672824,NA,"complete",NA,"65f4e159509732b59f7378aa","computer","Desktop or Laptop","Mac OS 10.15.7","Chrome 122.0.0.0","1440x900","1440x677",NA,NA,0,"BIQ (Charlotte)",3,"FGEHDICJBA","Passed AC2","","Spreadsheet1",1,"BIQ","Screen 2","o21mwi",2,"response","6",10494.7,19318.3,19323.5000000715,10494.7,19318.3,19323.5000000715,1,10494.7,8828.80000007153,0,NA,"Rating Scale","Rating Scale",9,"object-36","BIQ",NA,"SUPPRF99019"
"9",1710547416361,"16/03/2024 00:03:36",1710547416361,0,"16/03/2024 00:03:36",171533,4,"task-gjqt",NA,36143273,10672824,NA,"complete",NA,"65f4e159509732b59f7378aa","computer","Desktop or Laptop","Mac OS 10.15.7","Chrome 122.0.0.0","1440x900","1440x677",NA,NA,0,"BIQ (Charlotte)",3,"FGEHDICJBA","Passed AC2","","Spreadsheet1",1,"BIQ","Screen 2","o21mwi",2,"response","4",18583,19318.3,19323.9000000477,18583,19318.3,19323.9000000477,1,18583,740.900000047681,0,NA,"Rating Scale","Rating Scale",16,"object-86","BIQ",NA,"SUPPRF99019"
"10",1710547428722,"16/03/2024 00:03:48",1710547428722,0,"16/03/2024 00:03:48",171533,4,"task-gjqt",NA,36143273,10672824,NA,"complete",NA,"65f4e159509732b59f7378aa","computer","Desktop or Laptop","Mac OS 10.15.7","Chrome 122.0.0.0","1440x900","1440x677",NA,NA,0,"BIQ (Charlotte)",3,"FGEHDICJBA","Passed AC2","","Spreadsheet1",1,"BIQ","Screen 3","iz3the",3,"continue","",12366.3,12349.6,12366.3,12366.3,12349.6,12366.3,1,12366.3,0,0,NA,"Click To Continue","Continue Button",22,"object-73","BIQ",NA,"SUPPRF99019"
"11",1710547428726,"16/03/2024 00:03:48",1710547428726,0,"16/03/2024 00:03:48",171533,4,"task-gjqt",NA,36143273,10672824,NA,"complete",NA,"65f4e159509732b59f7378aa","computer","Desktop or Laptop","Mac OS 10.15.7","Chrome 122.0.0.0","1440x900","1440x677",NA,NA,0,"BIQ (Charlotte)",3,"FGEHDICJBA","Passed AC2","","Spreadsheet1",1,"BIQ","Screen 3","iz3the",3,"response","5",3325.4,12349.6,12366.3,3325.4,12349.6,12366.3,1,3325.4,9040.89999999999,0,NA,"Rating Scale","Rating Scale",2,"object-53","BIQ",NA,"SUPPRF99019"
"12",1710547428726,"16/03/2024 00:03:48",1710547428726,0,"16/03/2024 00:03:48",171533,4,"task-gjqt",NA,36143273,10672824,NA,"complete",NA,"65f4e159509732b59f7378aa","computer","Desktop or Laptop","Mac OS 10.15.7","Chrome 122.0.0.0","1440x900","1440x677",NA,NA,0,"BIQ (Charlotte)",3,"FGEHDICJBA","Passed AC2","","Spreadsheet1",1,"BIQ","Screen 3","iz3the",3,"response","2",7469.9,12349.6,12366.3,7469.9,12349.6,12366.3,1,7469.9,4896.39999999999,0,NA,"Rating Scale","Rating Scale",9,"object-60","BIQ",NA,"SUPPRF99019"
"13",1710547428727,"16/03/2024 00:03:48",1710547428727,0,"16/03/2024 00:03:48",171533,4,"task-gjqt",NA,36143273,10672824,NA,"complete",NA,"65f4e159509732b59f7378aa","computer","Desktop or Laptop","Mac OS 10.15.7","Chrome 122.0.0.0","1440x900","1440x677",NA,NA,0,"BIQ (Charlotte)",3,"FGEHDICJBA","Passed AC2","","Spreadsheet1",1,"BIQ","Screen 3","iz3the",3,"response","6",9575.5,12349.6,12366.3,9575.5,12349.6,12366.3,1,9575.5,2790.8,0,NA,"Rating Scale","Rating Scale",16,"object-67","BIQ",NA,"SUPPRF99019"
"14",1710547428731,"16/03/2024 00:03:48",1710547428731,0,"16/03/2024 00:03:48",171533,4,"task-gjqt",NA,36143273,10672824,NA,"complete",NA,"65f4e159509732b59f7378aa","computer","Desktop or Laptop","Mac OS 10.15.7","Chrome 122.0.0.0","1440x900","1440x677",NA,NA,0,"BIQ (Charlotte)",3,"FGEHDICJBA","Passed AC2","","Spreadsheet1",NA,"","","",NA,"5","END",NA,NA,NA,NA,NA,NA,0,NA,NA,NA,NA,"","",NA,"","",NA,"SUPPRF99019"
"1",1710552580509,"16/03/2024 01:29:40",1710538180509,-4,"15/03/2024 17:29:40",171533,4,"task-gjqt",NA,36144039,10673034,NA,"complete",NA,"65f4f4e3dc148945f0f080cd","computer","Desktop or Laptop","Mac OS 10.15.7","Chrome 121.0.0.0","1440x900","1433x788",NA,NA,0,"BIQ (Charlotte)",3,"HIGJFAEBDC","Passed AC2","","Spreadsheet1",NA,"","","",NA,"5","BEGIN",NA,NA,NA,NA,NA,NA,0,NA,NA,NA,NA,"","",NA,"","",NA,"SUPPRF68317"
"2",1710552610771,"16/03/2024 01:30:10",1710538210771,-4,"15/03/2024 17:30:10",171533,4,"task-gjqt",NA,36144039,10673034,NA,"complete",NA,"65f4f4e3dc148945f0f080cd","computer","Desktop or Laptop","Mac OS 10.15.7","Chrome 121.0.0.0","1440x900","1433x788",NA,NA,0,"BIQ (Charlotte)",3,"HIGJFAEBDC","Passed AC2","","Spreadsheet1",1,"BIQ","Screen 1","9dh6eq",1,"continue","",30267.408,30250.808,30267.408,30267.408,30250.808,30267.408,1,30267.408,0,0,NA,"Click To Continue","Continue Button",23,"object-48","BIQ",NA,"SUPPRF68317"
"3",1710552610773,"16/03/2024 01:30:10",1710538210773,-4,"15/03/2024 17:30:10",171533,4,"task-gjqt",NA,36144039,10673034,NA,"complete",NA,"65f4f4e3dc148945f0f080cd","computer","Desktop or Laptop","Mac OS 10.15.7","Chrome 121.0.0.0","1440x900","1433x788",NA,NA,0,"BIQ (Charlotte)",3,"HIGJFAEBDC","Passed AC2","","Spreadsheet1",1,"BIQ","Screen 1","9dh6eq",1,"response","6",14234.408,30250.808,30267.408,14234.408,30250.808,30267.408,1,14234.408,16033,0,NA,"Rating Scale","Rating Scale",3,"object-5","BIQ",NA,"SUPPRF68317"
"4",1710552610774,"16/03/2024 01:30:10",1710538210774,-4,"15/03/2024 17:30:10",171533,4,"task-gjqt",NA,36144039,10673034,NA,"complete",NA,"65f4f4e3dc148945f0f080cd","computer","Desktop or Laptop","Mac OS 10.15.7","Chrome 121.0.0.0","1440x900","1433x788",NA,NA,0,"BIQ (Charlotte)",3,"HIGJFAEBDC","Passed AC2","","Spreadsheet1",1,"BIQ","Screen 1","9dh6eq",1,"response","6",21650.708,30250.808,30267.408,21650.708,30250.808,30267.408,1,21650.708,8616.7,0,NA,"Rating Scale","Rating Scale",10,"object-18","BIQ",NA,"SUPPRF68317"
"5",1710552610774,"16/03/2024 01:30:10",1710538210774,-4,"15/03/2024 17:30:10",171533,4,"task-gjqt",NA,36144039,10673034,NA,"complete",NA,"65f4f4e3dc148945f0f080cd","computer","Desktop or Laptop","Mac OS 10.15.7","Chrome 121.0.0.0","1440x900","1433x788",NA,NA,0,"BIQ (Charlotte)",3,"HIGJFAEBDC","Passed AC2","","Spreadsheet1",1,"BIQ","Screen 1","9dh6eq",1,"response","0",29250.808,30250.808,30267.408,29250.808,30250.808,30267.408,1,29250.808,1016.6,0,NA,"Rating Scale","Rating Scale",17,"object-80","BIQ",NA,"SUPPRF68317"
"6",1710552648531,"16/03/2024 01:30:48",1710538248531,-4,"15/03/2024 17:30:48",171533,4,"task-gjqt",NA,36144039,10673034,NA,"complete",NA,"65f4f4e3dc148945f0f080cd","computer","Desktop or Laptop","Mac OS 10.15.7","Chrome 121.0.0.0","1440x900","1433x788",NA,NA,0,"BIQ (Charlotte)",3,"HIGJFAEBDC","Passed AC2","","Spreadsheet1",1,"BIQ","Screen 2","o21mwi",2,"continue","",37782.2999999523,37767.3,37782.2999999523,37782.2999999523,37767.3,37782.2999999523,1,37782.2999999523,0,0,NA,"Click To Continue","Continue Button",22,"object-50","BIQ",NA,"SUPPRF68317"
"7",1710552648535,"16/03/2024 01:30:48",1710538248535,-4,"15/03/2024 17:30:48",171533,4,"task-gjqt",NA,36144039,10673034,NA,"complete",NA,"65f4f4e3dc148945f0f080cd","computer","Desktop or Laptop","Mac OS 10.15.7","Chrome 121.0.0.0","1440x900","1433x788",NA,NA,0,"BIQ (Charlotte)",3,"HIGJFAEBDC","Passed AC2","","Spreadsheet1",1,"BIQ","Screen 2","o21mwi",2,"response","7",6083.5,37767.3,37783.9,6083.5,37767.3,37783.9,1,6083.5,31700.4,0,NA,"Rating Scale","Rating Scale",2,"object-259","BIQ",NA,"SUPPRF68317"
"8",1710552648535,"16/03/2024 01:30:48",1710538248535,-4,"15/03/2024 17:30:48",171533,4,"task-gjqt",NA,36144039,10673034,NA,"complete",NA,"65f4f4e3dc148945f0f080cd","computer","Desktop or Laptop","Mac OS 10.15.7","Chrome 121.0.0.0","1440x900","1433x788",NA,NA,0,"BIQ (Charlotte)",3,"HIGJFAEBDC","Passed AC2","","Spreadsheet1",1,"BIQ","Screen 2","o21mwi",2,"response","1",18267,37767.3,37783.9,18267,37767.3,37783.9,1,18267,19516.9,0,NA,"Rating Scale","Rating Scale",9,"object-36","BIQ",NA,"SUPPRF68317"
"9",1710552648536,"16/03/2024 01:30:48",1710538248536,-4,"15/03/2024 17:30:48",171533,4,"task-gjqt",NA,36144039,10673034,NA,"complete",NA,"65f4f4e3dc148945f0f080cd","computer","Desktop or Laptop","Mac OS 10.15.7","Chrome 121.0.0.0","1440x900","1433x788",NA,NA,0,"BIQ (Charlotte)",3,"HIGJFAEBDC","Passed AC2","","Spreadsheet1",1,"BIQ","Screen 2","o21mwi",2,"response","6",37000.7,37767.3,37783.9,37000.7,37767.3,37783.9,1,37000.7,783.200000000012,0,NA,"Rating Scale","Rating Scale",16,"object-86","BIQ",NA,"SUPPRF68317"
"10",1710552671116,"16/03/2024 01:31:11",1710538271116,-4,"15/03/2024 17:31:11",171533,4,"task-gjqt",NA,36144039,10673034,NA,"complete",NA,"65f4f4e3dc148945f0f080cd","computer","Desktop or Laptop","Mac OS 10.15.7","Chrome 121.0.0.0","1440x900","1433x788",NA,NA,0,"BIQ (Charlotte)",3,"HIGJFAEBDC","Passed AC2","","Spreadsheet1",1,"BIQ","Screen 3","iz3the",3,"continue","",22600.2,22583.8,22600.2,22600.2,22583.8,22600.2,1,22600.2,0,0,NA,"Click To Continue","Continue Button",22,"object-73","BIQ",NA,"SUPPRF68317"
"11",1710552671119,"16/03/2024 01:31:11",1710538271119,-4,"15/03/2024 17:31:11",171533,4,"task-gjqt",NA,36144039,10673034,NA,"complete",NA,"65f4f4e3dc148945f0f080cd","computer","Desktop or Laptop","Mac OS 10.15.7","Chrome 121.0.0.0","1440x900","1433x788",NA,NA,0,"BIQ (Charlotte)",3,"HIGJFAEBDC","Passed AC2","","Spreadsheet1",1,"BIQ","Screen 3","iz3the",3,"response","0",5600.2,22583.8,22600.4,5600.2,22583.8,22600.4,1,5600.2,17000.2,0,NA,"Rating Scale","Rating Scale",2,"object-53","BIQ",NA,"SUPPRF68317"
"12",1710552671120,"16/03/2024 01:31:11",1710538271120,-4,"15/03/2024 17:31:11",171533,4,"task-gjqt",NA,36144039,10673034,NA,"complete",NA,"65f4f4e3dc148945f0f080cd","computer","Desktop or Laptop","Mac OS 10.15.7","Chrome 121.0.0.0","1440x900","1433x788",NA,NA,0,"BIQ (Charlotte)",3,"HIGJFAEBDC","Passed AC2","","Spreadsheet1",1,"BIQ","Screen 3","iz3the",3,"response","2",14400.4,22583.8,22600.4,14400.4,22583.8,22600.4,1,14400.4,8200.00000000001,0,NA,"Rating Scale","Rating Scale",9,"object-60","BIQ",NA,"SUPPRF68317"
"13",1710552671120,"16/03/2024 01:31:11",1710538271120,-4,"15/03/2024 17:31:11",171533,4,"task-gjqt",NA,36144039,10673034,NA,"complete",NA,"65f4f4e3dc148945f0f080cd","computer","Desktop or Laptop","Mac OS 10.15.7","Chrome 121.0.0.0","1440x900","1433x788",NA,NA,0,"BIQ (Charlotte)",3,"HIGJFAEBDC","Passed AC2","","Spreadsheet1",1,"BIQ","Screen 3","iz3the",3,"response","4",19617.1,22583.8,22600.4,19617.1,22583.8,22600.4,1,19617.1,2983.30000000002,0,NA,"Rating Scale","Rating Scale",16,"object-67","BIQ",NA,"SUPPRF68317"
"14",1710552671127,"16/03/2024 01:31:11",1710538271127,-4,"15/03/2024 17:31:11",171533,4,"task-gjqt",NA,36144039,10673034,NA,"complete",NA,"65f4f4e3dc148945f0f080cd","computer","Desktop or Laptop","Mac OS 10.15.7","Chrome 121.0.0.0","1440x900","1433x788",NA,NA,0,"BIQ (Charlotte)",3,"HIGJFAEBDC","Passed AC2","","Spreadsheet1",NA,"","","",NA,"5","END",NA,NA,NA,NA,NA,NA,0,NA,NA,NA,NA,"","",NA,"","",NA,"SUPPRF68317"
"1",1710556607342,"16/03/2024 02:36:47",1710542207342,-4,"15/03/2024 18:36:47",171533,4,"task-gjqt",NA,36144381,10673101,NA,"rejected - time limit reached",NA,"65f4fc3015749b705e09259c","computer","Desktop or Laptop","Mac OS 10.15.7","Chrome 122.0.0.0","1440x900","1379x668",NA,NA,0,"BIQ (Charlotte)",3,"IJHAGBFCED","Passed AC2","","Spreadsheet1",NA,"","","",NA,"5","BEGIN",NA,NA,NA,NA,NA,NA,0,NA,NA,NA,NA,"","",NA,"","",NA,"SUPPRF22695"
"2",1710556636011,"16/03/2024 02:37:16",1710542236011,-4,"15/03/2024 18:37:16",171533,4,"task-gjqt",NA,36144381,10673101,NA,"rejected - time limit reached",NA,"65f4fc3015749b705e09259c","computer","Desktop or Laptop","Mac OS 10.15.7","Chrome 122.0.0.0","1440x900","1379x668",NA,NA,0,"BIQ (Charlotte)",3,"IJHAGBFCED","Passed AC2","","Spreadsheet1",1,"BIQ","Screen 1","9dh6eq",1,"continue","",28684.882,28667.582,28684.882,28684.882,28667.582,28684.882,1,28684.882,0,0,NA,"Click To Continue","Continue Button",23,"object-48","BIQ",NA,"SUPPRF22695"
"3",1710556636013,"16/03/2024 02:37:16",1710542236013,-4,"15/03/2024 18:37:16",171533,4,"task-gjqt",NA,36144381,10673101,NA,"rejected - time limit reached",NA,"65f4fc3015749b705e09259c","computer","Desktop or Laptop","Mac OS 10.15.7","Chrome 122.0.0.0","1440x900","1379x668",NA,NA,0,"BIQ (Charlotte)",3,"IJHAGBFCED","Passed AC2","","Spreadsheet1",1,"BIQ","Screen 1","9dh6eq",1,"response","7",11067.082,28667.582,28684.882,11067.082,28667.582,28684.882,1,11067.082,17617.8,0,NA,"Rating Scale","Rating Scale",3,"object-5","BIQ",NA,"SUPPRF22695"
"4",1710556636013,"16/03/2024 02:37:16",1710542236013,-4,"15/03/2024 18:37:16",171533,4,"task-gjqt",NA,36144381,10673101,NA,"rejected - time limit reached",NA,"65f4fc3015749b705e09259c","computer","Desktop or Laptop","Mac OS 10.15.7","Chrome 122.0.0.0","1440x900","1379x668",NA,NA,0,"BIQ (Charlotte)",3,"IJHAGBFCED","Passed AC2","","Spreadsheet1",1,"BIQ","Screen 1","9dh6eq",1,"response","3",18850.682,28667.582,28684.882,18850.682,28667.582,28684.882,1,18850.682,9834.19999999999,0,NA,"Rating Scale","Rating Scale",10,"object-18","BIQ",NA,"SUPPRF22695"
"5",1710556636013,"16/03/2024 02:37:16",1710542236013,-4,"15/03/2024 18:37:16",171533,4,"task-gjqt",NA,36144381,10673101,NA,"rejected - time limit reached",NA,"65f4fc3015749b705e09259c","computer","Desktop or Laptop","Mac OS 10.15.7","Chrome 122.0.0.0","1440x900","1379x668",NA,NA,0,"BIQ (Charlotte)",3,"IJHAGBFCED","Passed AC2","","Spreadsheet1",1,"BIQ","Screen 1","9dh6eq",1,"response","2",27550.982,28667.582,28684.882,27550.982,28667.582,28684.882,1,27550.982,1133.89999999999,0,NA,"Rating Scale","Rating Scale",17,"object-80","BIQ",NA,"SUPPRF22695"
"6",1710556650458,"16/03/2024 02:37:30",1710542250458,-4,"15/03/2024 18:37:30",171533,4,"task-gjqt",NA,36144381,10673101,NA,"rejected - time limit reached",NA,"65f4fc3015749b705e09259c","computer","Desktop or Laptop","Mac OS 10.15.7","Chrome 122.0.0.0","1440x900","1379x668",NA,NA,0,"BIQ (Charlotte)",3,"IJHAGBFCED","Passed AC2","","Spreadsheet1",1,"BIQ","Screen 2","o21mwi",2,"continue","",14467.1,14450.5,14467.1,14467.1,14450.5,14467.1,1,14467.1,0,0,NA,"Click To Continue","Continue Button",22,"object-50","BIQ",NA,"SUPPRF22695"
"7",1710556650464,"16/03/2024 02:37:30",1710542250464,-4,"15/03/2024 18:37:30",171533,4,"task-gjqt",NA,36144381,10673101,NA,"rejected - time limit reached",NA,"65f4fc3015749b705e09259c","computer","Desktop or Laptop","Mac OS 10.15.7","Chrome 122.0.0.0","1440x900","1379x668",NA,NA,0,"BIQ (Charlotte)",3,"IJHAGBFCED","Passed AC2","","Spreadsheet1",1,"BIQ","Screen 2","o21mwi",2,"response","8",5416.9,14450.5,14467.1,5416.9,14450.5,14467.1,1,5416.9,9050.2,0,NA,"Rating Scale","Rating Scale",2,"object-259","BIQ",NA,"SUPPRF22695"
"8",1710556650464,"16/03/2024 02:37:30",1710542250464,-4,"15/03/2024 18:37:30",171533,4,"task-gjqt",NA,36144381,10673101,NA,"rejected - time limit reached",NA,"65f4fc3015749b705e09259c","computer","Desktop or Laptop","Mac OS 10.15.7","Chrome 122.0.0.0","1440x900","1379x668",NA,NA,0,"BIQ (Charlotte)",3,"IJHAGBFCED","Passed AC2","","Spreadsheet1",1,"BIQ","Screen 2","o21mwi",2,"response","0",10150.4,14450.5,14467.1,10150.4,14450.5,14467.1,1,10150.4,4316.7,0,NA,"Rating Scale","Rating Scale",9,"object-36","BIQ",NA,"SUPPRF22695"
"9",1710556650465,"16/03/2024 02:37:30",1710542250465,-4,"15/03/2024 18:37:30",171533,4,"task-gjqt",NA,36144381,10673101,NA,"rejected - time limit reached",NA,"65f4fc3015749b705e09259c","computer","Desktop or Laptop","Mac OS 10.15.7","Chrome 122.0.0.0","1440x900","1379x668",NA,NA,0,"BIQ (Charlotte)",3,"IJHAGBFCED","Passed AC2","","Spreadsheet1",1,"BIQ","Screen 2","o21mwi",2,"response","0",13533.5,14450.5,14467.1,13533.5,14450.5,14467.1,1,13533.5,933.599999999999,0,NA,"Rating Scale","Rating Scale",16,"object-86","BIQ",NA,"SUPPRF22695"
"10",1710556667218,"16/03/2024 02:37:47",1710542267218,-4,"15/03/2024 18:37:47",171533,4,"task-gjqt",NA,36144381,10673101,NA,"rejected - time limit reached",NA,"65f4fc3015749b705e09259c","computer","Desktop or Laptop","Mac OS 10.15.7","Chrome 122.0.0.0","1440x900","1379x668",NA,NA,0,"BIQ (Charlotte)",3,"IJHAGBFCED","Passed AC2","","Spreadsheet1",1,"BIQ","Screen 3","iz3the",3,"continue","",16776.499999994,16766.4,16776.499999994,16776.499999994,16766.4,16776.499999994,1,16776.499999994,0,0,NA,"Click To Continue","Continue Button",22,"object-73","BIQ",NA,"SUPPRF22695"
