"Event.Index","UTC.Timestamp","UTC.Date.and.Time","Local.Timestamp","Local.Timezone","Local.Date.and.Time","Experiment.ID","Experiment.Version","Tree.Node.Key","Repeat.Key","Schedule.ID","Participant.Private.ID","Participant.Starting.Group","Participant.Status","Participant.Completion.Code","Participant.External.Session.ID","Participant.Device.Type","Participant.Device","Participant.OS","Participant.Browser","Participant.Monitor.Size","Participant.Viewport.Size","Checkpoint","Room.ID","Room.Order","Task.Name","Task.Version","branch.hkzp","order.ot79","randomiser.lqqr","randomiser.28m8","randomiser.tf5j","branch.vlgf","Spreadsheet","Current.Spreadsheet","Trial.Number","Display","Screen","Screen.ID","Screen.Counter","Response.Type","Response","Onset.Time","Clock.Time","Reaction.Time","Absolute.Onset.Time","Absolute.Clock.Time","Absolute.Reaction.Time","Correct","Response.Onset","Response.Duration","Proportion","Tag","Component.Name","Object.Name","Object.Number","Object.ID","Spreadsheet..display","Spreadsheet..Index","Spreadsheet..X1","Spreadsheet..X2","Spreadsheet..Display","Manipulation..Spreadsheet","Random_ID"
"1",1690988461524,"02/08/2023 15:01:01",1690992061524,1,"02/08/2023 17:01:01",139282,42,"task-i89w",NA,31010300,9197908,NA,"complete",NA,NA,"computer","Desktop or Laptop","Windows 10","Edge 115.0.1901.188","1536x864","832x700",NA,NA,NA,"Feedback Phrases Task - List 1 (study_2)",2,"In","GHFIEJDACB","B (Feedback ranking_L1 First)","study_1 (JV and feedback_list_1)",NA,"In","Feedback List 1","Feedback List 1",NA,"","","",NA,"5","BEGIN",NA,NA,NA,NA,NA,NA,0,NA,NA,NA,NA,"","",NA,"",NA,NA,"","","",NA,"SUPTM18638"
"2",1690988470512,"02/08/2023 15:01:10",1690992070512,1,"02/08/2023 17:01:10",139282,42,"task-i89w",NA,31010300,9197908,NA,"complete",NA,NA,"computer","Desktop or Laptop","Windows 10","Edge 115.0.1901.188","1536x864","832x700",NA,NA,NA,"Feedback Phrases Task - List 1 (study_2)",2,"In","GHFIEJDACB","B (Feedback ranking_L1 First)","study_1 (JV and feedback_list_1)",NA,"In","Feedback List 1","Feedback List 1",1,"Instructions","Screen 3","6w7c99",1,"continue","",8998.747,8982.06,8998.747,8998.747,8982.06,8998.747,1,8998.747,0,0,NA,"Click To Continue","Continue Button",2,"object-29",NA,NA,"","","Instructions",NA,"SUPTM18638"
"3",1690988476346,"02/08/2023 15:01:16",1690992076346,1,"02/08/2023 17:01:16",139282,42,"task-i89w",NA,31010300,9197908,NA,"complete",NA,NA,"computer","Desktop or Laptop","Windows 10","Edge 115.0.1901.188","1536x864","832x700",NA,NA,NA,"Feedback Phrases Task - List 1 (study_2)",2,"In","GHFIEJDACB","B (Feedback ranking_L1 First)","study_1 (JV and feedback_list_1)",NA,"In","Feedback List 1","Feedback List 1",1,"Instructions","Screen 4","4vof69",2,"continue","",5856.65600000596,5849.392,5856.65600000596,5856.65600000596,5849.392,5856.65600000596,1,5856.65600000596,0,0,NA,"Click To Continue","Continue Button",2,"object-41",NA,NA,"","","Instructions",NA,"SUPTM18638"
"4",1690988487988,"02/08/2023 15:01:27",1690992087988,1,"02/08/2023 17:01:27",139282,42,"task-i89w",NA,31010300,9197908,NA,"complete",NA,NA,"computer","Desktop or Laptop","Windows 10","Edge 115.0.1901.188","1536x864","832x700",NA,NA,NA,"Feedback Phrases Task - List 1 (study_2)",2,"In","GHFIEJDACB","B (Feedback ranking_L1 First)","study_1 (JV and feedback_list_1)",NA,"In","Feedback List 1","Feedback List 1",1,"Task","Screen 1","113qg5",1,"response","Everything you said was correct.",11648.228,11631.655,11648.228,11648.228,11631.655,11648.228,1,11648.228,0,0,NA,"Click Response","Text_left_X1",2,"object-18",NA,1,"Everything you said was correct.","You came across as very calm and collected.","Task",NA,"SUPTM18638"
"5",1690988487992,"02/08/2023 15:01:27",1690992087992,1,"02/08/2023 17:01:27",139282,42,"task-i89w",NA,31010300,9197908,NA,"complete",NA,NA,"computer","Desktop or Laptop","Windows 10","Edge 115.0.1901.188","1536x864","832x700",NA,NA,NA,"Feedback Phrases Task - List 1 (study_2)",2,"In","GHFIEJDACB","B (Feedback ranking_L1 First)","study_1 (JV and feedback_list_1)",NA,"In","Feedback List 1","Feedback List 1",1,"Task","Screen 1","113qg5",1,"action","Text",11648.228,11631.655,11648.228,11648.228,11631.655,11648.228,1,11648.228,0,0,NA,"Mousetracking","screen",0,"screen",NA,1,"Everything you said was correct.","You came across as very calm and collected.","Task",NA,"SUPTM18638"
"6",1690988487993,"02/08/2023 15:01:27",1690992087993,1,"02/08/2023 17:01:27",139282,42,"task-i89w",NA,31010300,9197908,NA,"complete",NA,NA,"computer","Desktop or Laptop","Windows 10","Edge 115.0.1901.188","1536x864","832x700",NA,NA,NA,"Feedback Phrases Task - List 1 (study_2)",2,"In","GHFIEJDACB","B (Feedback ranking_L1 First)","study_1 (JV and feedback_list_1)",NA,"In","Feedback List 1","Feedback List 1",1,"Task","Screen 1","113qg5",1,"action","Text_left_X1",11648.228,11631.655,11648.228,11648.228,11631.655,11648.228,1,11648.228,599.887000000002,0.0515736582627324,NA,"Mousetracking","screen",0,"screen",NA,1,"Everything you said was correct.","You came across as very calm and collected.","Task",NA,"SUPTM18638"
"7",1690988487993,"02/08/2023 15:01:27",1690992087993,1,"02/08/2023 17:01:27",139282,42,"task-i89w",NA,31010300,9197908,NA,"complete",NA,NA,"computer","Desktop or Laptop","Windows 10","Edge 115.0.1901.188","1536x864","832x700",NA,NA,NA,"Feedback Phrases Task - List 1 (study_2)",2,"In","GHFIEJDACB","B (Feedback ranking_L1 First)","study_1 (JV and feedback_list_1)",NA,"In","Feedback List 1","Feedback List 1",1,"Task","Screen 1","113qg5",1,"action","Text_right_X2",11648.228,11631.655,11648.228,11648.228,11631.655,11648.228,1,11648.228,0,0,NA,"Mousetracking","screen",0,"screen",NA,1,"Everything you said was correct.","You came across as very calm and collected.","Task",NA,"SUPTM18638"
"8",1690988489739,"02/08/2023 15:01:29",1690992089739,1,"02/08/2023 17:01:29",139282,42,"task-i89w",NA,31010300,9197908,NA,"complete",NA,NA,"computer","Desktop or Laptop","Windows 10","Edge 115.0.1901.188","1536x864","832x700",NA,NA,NA,"Feedback Phrases Task - List 1 (study_2)",2,"In","GHFIEJDACB","B (Feedback ranking_L1 First)","study_1 (JV and feedback_list_1)",NA,"In","Feedback List 1","Feedback List 1",1,"Task","Screen 3","izqege",2,"continue","",1766.829,1766.829,1766.829,1766.829,1766.829,1766.829,1,1766.829,0,0,NA,"Fixation Timing","Fixation Cross",1,"object-48",NA,1,"Everything you said was correct.","You came across as very calm and collected.","Task",NA,"SUPTM18638"
"9",1690988493646,"02/08/2023 15:01:33",1690992093646,1,"02/08/2023 17:01:33",139282,42,"task-i89w",NA,31010300,9197908,NA,"complete",NA,NA,"computer","Desktop or Laptop","Windows 10","Edge 115.0.1901.188","1536x864","832x700",NA,NA,NA,"Feedback Phrases Task - List 1 (study_2)",2,"In","GHFIEJDACB","B (Feedback ranking_L1 First)","study_1 (JV and feedback_list_1)",NA,"In","Feedback List 1","Feedback List 1",2,"Task","Screen 1","113qg5",1,"response","You seem very clever.",3908.18000001192,3898.9,3908.18000001192,3908.18000001192,3898.9,3908.18000001192,1,3908.18000001192,0,0,NA,"Click Response","Text_right_X2",3,"object-19",NA,1,"You appeared very composed.","You seem very clever.","Task",NA,"SUPTM18638"
"10",1690988493646,"02/08/2023 15:01:33",1690992093646,1,"02/08/2023 17:01:33",139282,42,"task-i89w",NA,31010300,9197908,NA,"complete",NA,NA,"computer","Desktop or Laptop","Windows 10","Edge 115.0.1901.188","1536x864","832x700",NA,NA,NA,"Feedback Phrases Task - List 1 (study_2)",2,"In","GHFIEJDACB","B (Feedback ranking_L1 First)","study_1 (JV and feedback_list_1)",NA,"In","Feedback List 1","Feedback List 1",2,"Task","Screen 1","113qg5",1,"action","Text",3908.88,3898.9,3908.88,3908.88,3898.9,3908.88,1,3908.88,0,0,NA,"Mousetracking","screen",0,"screen",NA,1,"You appeared very composed.","You seem very clever.","Task",NA,"SUPTM18638"
"11",1690988493647,"02/08/2023 15:01:33",1690992093647,1,"02/08/2023 17:01:33",139282,42,"task-i89w",NA,31010300,9197908,NA,"complete",NA,NA,"computer","Desktop or Laptop","Windows 10","Edge 115.0.1901.188","1536x864","832x700",NA,NA,NA,"Feedback Phrases Task - List 1 (study_2)",2,"In","GHFIEJDACB","B (Feedback ranking_L1 First)","study_1 (JV and feedback_list_1)",NA,"In","Feedback List 1","Feedback List 1",2,"Task","Screen 1","113qg5",1,"action","Text_left_X1",3909.18000001192,3898.9,3909.18000001192,3909.18000001192,3898.9,3909.18000001192,1,3909.18000001192,30645.385,7.86000795096053,NA,"Mousetracking","screen",0,"screen",NA,1,"You appeared very composed.","You seem very clever.","Task",NA,"SUPTM18638"
"12",1690988493647,"02/08/2023 15:01:33",1690992093647,1,"02/08/2023 17:01:33",139282,42,"task-i89w",NA,31010300,9197908,NA,"complete",NA,NA,"computer","Desktop or Laptop","Windows 10","Edge 115.0.1901.188","1536x864","832x700",NA,NA,NA,"Feedback Phrases Task - List 1 (study_2)",2,"In","GHFIEJDACB","B (Feedback ranking_L1 First)","study_1 (JV and feedback_list_1)",NA,"In","Feedback List 1","Feedback List 1",2,"Task","Screen 1","113qg5",1,"action","Text_right_X2",3909.58000001788,3898.9,3909.58000001788,3909.58000001788,3898.9,3909.58000001788,1,3909.58000001788,183.364999999998,0.0470299315191459,NA,"Mousetracking","screen",0,"screen",NA,1,"You appeared very composed.","You seem very clever.","Task",NA,"SUPTM18638"
"13",1690988495409,"02/08/2023 15:01:35",1690992095409,1,"02/08/2023 17:01:35",139282,42,"task-i89w",NA,31010300,9197908,NA,"complete",NA,NA,"computer","Desktop or Laptop","Windows 10","Edge 115.0.1901.188","1536x864","832x700",NA,NA,NA,"Feedback Phrases Task - List 1 (study_2)",2,"In","GHFIEJDACB","B (Feedback ranking_L1 First)","study_1 (JV and feedback_list_1)",NA,"In","Feedback List 1","Feedback List 1",2,"Task","Screen 3","izqege",2,"continue","",1766.466,1766.466,1766.466,1766.466,1766.466,1766.466,1,1766.466,0,0,NA,"Fixation Timing","Fixation Cross",1,"object-48",NA,1,"You appeared very composed.","You seem very clever.","Task",NA,"SUPTM18638"
"14",1690988500334,"02/08/2023 15:01:40",1690992100334,1,"02/08/2023 17:01:40",139282,42,"task-i89w",NA,31010300,9197908,NA,"complete",NA,NA,"computer","Desktop or Laptop","Windows 10","Edge 115.0.1901.188","1536x864","832x700",NA,NA,NA,"Feedback Phrases Task - List 1 (study_2)",2,"In","GHFIEJDACB","B (Feedback ranking_L1 First)","study_1 (JV and feedback_list_1)",NA,"In","Feedback List 1","Feedback List 1",3,"Task","Screen 1","113qg5",1,"response","Everything you said was correct.",4930.71400001788,4916.31,4930.71400001788,4930.71400001788,4916.31,4930.71400001788,1,4930.71400001788,0,0,NA,"Click Response","Text_left_X1",2,"object-18",NA,1,"Everything you said was correct.","I didn't notice any mistakes.","Task",NA,"SUPTM18638"
"15",1690988500347,"02/08/2023 15:01:40",1690992100347,1,"02/08/2023 17:01:40",139282,42,"task-i89w",NA,31010300,9197908,NA,"complete",NA,NA,"computer","Desktop or Laptop","Windows 10","Edge 115.0.1901.188","1536x864","832x700",NA,NA,NA,"Feedback Phrases Task - List 1 (study_2)",2,"In","GHFIEJDACB","B (Feedback ranking_L1 First)","study_1 (JV and feedback_list_1)",NA,"In","Feedback List 1","Feedback List 1",3,"Task","Screen 1","113qg5",1,"action","Text",4933.27300000001,4916.31,4933.27300000001,4933.27300000001,4916.31,4933.27300000001,1,4933.27300000001,0,0,NA,"Mousetracking","screen",0,"screen",NA,1,"Everything you said was correct.","I didn't notice any mistakes.","Task",NA,"SUPTM18638"
"16",1690988500349,"02/08/2023 15:01:40",1690992100349,1,"02/08/2023 17:01:40",139282,42,"task-i89w",NA,31010300,9197908,NA,"complete",NA,NA,"computer","Desktop or Laptop","Windows 10","Edge 115.0.1901.188","1536x864","832x700",NA,NA,NA,"Feedback Phrases Task - List 1 (study_2)",2,"In","GHFIEJDACB","B (Feedback ranking_L1 First)","study_1 (JV and feedback_list_1)",NA,"In","Feedback List 1","Feedback List 1",3,"Task","Screen 1","113qg5",1,"action","Text_left_X1",4933.27300000001,4916.31,4933.27300000001,4933.27300000001,4916.31,4933.27300000001,1,4933.27300000001,283.649000000005,0.0576955074029108,NA,"Mousetracking","screen",0,"screen",NA,1,"Everything you said was correct.","I didn't notice any mistakes.","Task",NA,"SUPTM18638"
"17",1690988500350,"02/08/2023 15:01:40",1690992100350,1,"02/08/2023 17:01:40",139282,42,"task-i89w",NA,31010300,9197908,NA,"complete",NA,NA,"computer","Desktop or Laptop","Windows 10","Edge 115.0.1901.188","1536x864","832x700",NA,NA,NA,"Feedback Phrases Task - List 1 (study_2)",2,"In","GHFIEJDACB","B (Feedback ranking_L1 First)","study_1 (JV and feedback_list_1)",NA,"In","Feedback List 1","Feedback List 1",3,"Task","Screen 1","113qg5",1,"action","Text_right_X2",4933.27300000001,4916.31,4933.27300000001,4933.27300000001,4916.31,4933.27300000001,1,4933.27300000001,0,0,NA,"Mousetracking","screen",0,"screen",NA,1,"Everything you said was correct.","I didn't notice any mistakes.","Task",NA,"SUPTM18638"
"18",1690988502086,"02/08/2023 15:01:42",1690992102086,1,"02/08/2023 17:01:42",139282,42,"task-i89w",NA,31010300,9197908,NA,"complete",NA,NA,"computer","Desktop or Laptop","Windows 10","Edge 115.0.1901.188","1536x864","832x700",NA,NA,NA,"Feedback Phrases Task - List 1 (study_2)",2,"In","GHFIEJDACB","B (Feedback ranking_L1 First)","study_1 (JV and feedback_list_1)",NA,"In","Feedback List 1","Feedback List 1",3,"Task","Screen 3","izqege",2,"continue","",1766.087,1766.087,1766.087,1766.087,1766.087,1766.087,1,1766.087,0,0,NA,"Fixation Timing","Fixation Cross",1,"object-48",NA,1,"Everything you said was correct.","I didn't notice any mistakes.","Task",NA,"SUPTM18638"
"19",1690988503567,"02/08/2023 15:01:43",1690992103567,1,"02/08/2023 17:01:43",139282,42,"task-i89w",NA,31010300,9197908,NA,"complete",NA,NA,"computer","Desktop or Laptop","Windows 10","Edge 115.0.1901.188","1536x864","832x700",NA,NA,NA,"Feedback Phrases Task - List 1 (study_2)",2,"In","GHFIEJDACB","B (Feedback ranking_L1 First)","study_1 (JV and feedback_list_1)",NA,"In","Feedback List 1","Feedback List 1",4,"Task","Screen 1","113qg5",1,"response","That was great!",1482.01700000596,1467.144,1482.01700000596,1482.01700000596,1467.144,1482.01700000596,1,1482.01700000596,0,0,NA,"Click Response","Text_left_X1",2,"object-18",NA,1,"That was great!","You were very interesting to listen to.","Task",NA,"SUPTM18638"
"20",1690988503568,"02/08/2023 15:01:43",1690992103568,1,"02/08/2023 17:01:43",139282,42,"task-i89w",NA,31010300,9197908,NA,"complete",NA,NA,"computer","Desktop or Laptop","Windows 10","Edge 115.0.1901.188","1536x864","832x700",NA,NA,NA,"Feedback Phrases Task - List 1 (study_2)",2,"In","GHFIEJDACB","B (Feedback ranking_L1 First)","study_1 (JV and feedback_list_1)",NA,"In","Feedback List 1","Feedback List 1",4,"Task","Screen 1","113qg5",1,"action","Text",1482.51700000596,1467.144,1482.51700000596,1482.51700000596,1467.144,1482.51700000596,1,1482.51700000596,0,0,NA,"Mousetracking","screen",0,"screen",NA,1,"That was great!","You were very interesting to listen to.","Task",NA,"SUPTM18638"
"21",1690988503568,"02/08/2023 15:01:43",1690992103568,1,"02/08/2023 17:01:43",139282,42,"task-i89w",NA,31010300,9197908,NA,"complete",NA,NA,"computer","Desktop or Laptop","Windows 10","Edge 115.0.1901.188","1536x864","832x700",NA,NA,NA,"Feedback Phrases Task - List 1 (study_2)",2,"In","GHFIEJDACB","B (Feedback ranking_L1 First)","study_1 (JV and feedback_list_1)",NA,"In","Feedback List 1","Feedback List 1",4,"Task","Screen 1","113qg5",1,"action","Text_left_X1",1482.91700001192,1467.144,1482.91700001192,1482.91700001192,1467.144,1482.91700001192,1,1482.91700001192,449.936000000002,0.306674736767489,NA,"Mousetracking","screen",0,"screen",NA,1,"That was great!","You were very interesting to listen to.","Task",NA,"SUPTM18638"
"22",1690988503569,"02/08/2023 15:01:43",1690992103569,1,"02/08/2023 17:01:43",139282,42,"task-i89w",NA,31010300,9197908,NA,"complete",NA,NA,"computer","Desktop or Laptop","Windows 10","Edge 115.0.1901.188","1536x864","832x700",NA,NA,NA,"Feedback Phrases Task - List 1 (study_2)",2,"In","GHFIEJDACB","B (Feedback ranking_L1 First)","study_1 (JV and feedback_list_1)",NA,"In","Feedback List 1","Feedback List 1",4,"Task","Screen 1","113qg5",1,"action","Text_right_X2",1483.41700001192,1467.144,1483.41700001192,1483.41700001192,1467.144,1483.41700001192,1,1483.41700001192,0,0,NA,"Mousetracking","screen",0,"screen",NA,1,"That was great!","You were very interesting to listen to.","Task",NA,"SUPTM18638"
"23",1690988505320,"02/08/2023 15:01:45",1690992105320,1,"02/08/2023 17:01:45",139282,42,"task-i89w",NA,31010300,9197908,NA,"complete",NA,NA,"computer","Desktop or Laptop","Windows 10","Edge 115.0.1901.188","1536x864","832x700",NA,NA,NA,"Feedback Phrases Task - List 1 (study_2)",2,"In","GHFIEJDACB","B (Feedback ranking_L1 First)","study_1 (JV and feedback_list_1)",NA,"In","Feedback List 1","Feedback List 1",4,"Task","Screen 3","izqege",2,"continue","",1765.771,1765.771,1765.771,1765.771,1765.771,1765.771,1,1765.771,0,0,NA,"Fixation Timing","Fixation Cross",1,"object-48",NA,1,"That was great!","You were very interesting to listen to.","Task",NA,"SUPTM18638"
"24",1690988508649,"02/08/2023 15:01:48",1690992108649,1,"02/08/2023 17:01:48",139282,42,"task-i89w",NA,31010300,9197908,NA,"complete",NA,NA,"computer","Desktop or Laptop","Windows 10","Edge 115.0.1901.188","1536x864","832x700",NA,NA,NA,"Feedback Phrases Task - List 1 (study_2)",2,"In","GHFIEJDACB","B (Feedback ranking_L1 First)","study_1 (JV and feedback_list_1)",NA,"In","Feedback List 1","Feedback List 1",5,"Task","Screen 1","113qg5",1,"response","Your description was very clear and concise.",3331.00200001192,3316.29599999999,3331.00200001192,3331.00200001192,3316.29599999999,3331.00200001192,1,3331.00200001192,0,0,NA,"Click Response","Text_left_X1",2,"object-18",NA,1,"Your description was very clear and concise.","I didn't notice any mistakes.","Task",NA,"SUPTM18638"
"25",1690988508650,"02/08/2023 15:01:48",1690992108650,1,"02/08/2023 17:01:48",139282,42,"task-i89w",NA,31010300,9197908,NA,"complete",NA,NA,"computer","Desktop or Laptop","Windows 10","Edge 115.0.1901.188","1536x864","832x700",NA,NA,NA,"Feedback Phrases Task - List 1 (study_2)",2,"In","GHFIEJDACB","B (Feedback ranking_L1 First)","study_1 (JV and feedback_list_1)",NA,"In","Feedback List 1","Feedback List 1",5,"Task","Screen 1","113qg5",1,"action","Text",3331.80199999404,3316.29599999999,3331.80199999404,3331.80199999404,3316.29599999999,3331.80199999404,1,3331.80199999404,0,0,NA,"Mousetracking","screen",0,"screen",NA,1,"Your description was very clear and concise.","I didn't notice any mistakes.","Task",NA,"SUPTM18638"
"26",1690988508651,"02/08/2023 15:01:48",1690992108651,1,"02/08/2023 17:01:48",139282,42,"task-i89w",NA,31010300,9197908,NA,"complete",NA,NA,"computer","Desktop or Laptop","Windows 10","Edge 115.0.1901.188","1536x864","832x700",NA,NA,NA,"Feedback Phrases Task - List 1 (study_2)",2,"In","GHFIEJDACB","B (Feedback ranking_L1 First)","study_1 (JV and feedback_list_1)",NA,"In","Feedback List 1","Feedback List 1",5,"Task","Screen 1","113qg5",1,"action","Text_left_X1",3332.60200000596,3316.29599999999,3332.60200000596,3332.60200000596,3316.29599999999,3332.60200000596,1,3332.60200000596,499.865999999995,0.150730212260907,NA,"Mousetracking","screen",0,"screen",NA,1,"Your description was very clear and concise.","I didn't notice any mistakes.","Task",NA,"SUPTM18638"
"27",1690988508654,"02/08/2023 15:01:48",1690992108654,1,"02/08/2023 17:01:48",139282,42,"task-i89w",NA,31010300,9197908,NA,"complete",NA,NA,"computer","Desktop or Laptop","Windows 10","Edge 115.0.1901.188","1536x864","832x700",NA,NA,NA,"Feedback Phrases Task - List 1 (study_2)",2,"In","GHFIEJDACB","B (Feedback ranking_L1 First)","study_1 (JV and feedback_list_1)",NA,"In","Feedback List 1","Feedback List 1",5,"Task","Screen 1","113qg5",1,"action","Text_right_X2",3332.93399999999,3316.29599999999,3332.93399999999,3332.93399999999,3316.29599999999,3332.93399999999,1,3332.93399999999,0,0,NA,"Mousetracking","screen",0,"screen",NA,1,"Your description was very clear and concise.","I didn't notice any mistakes.","Task",NA,"SUPTM18638"
"28",1690988510402,"02/08/2023 15:01:50",1690992110402,1,"02/08/2023 17:01:50",139282,42,"task-i89w",NA,31010300,9197908,NA,"complete",NA,NA,"computer","Desktop or Laptop","Windows 10","Edge 115.0.1901.188","1536x864","832x700",NA,NA,NA,"Feedback Phrases Task - List 1 (study_2)",2,"In","GHFIEJDACB","B (Feedback ranking_L1 First)","study_1 (JV and feedback_list_1)",NA,"In","Feedback List 1","Feedback List 1",5,"Task","Screen 3","izqege",2,"continue","",1766.925,1766.925,1766.925,1766.925,1766.925,1766.925,1,1766.925,0,0,NA,"Fixation Timing","Fixation Cross",1,"object-48",NA,1,"Your description was very clear and concise.","I didn't notice any mistakes.","Task",NA,"SUPTM18638"
"29",1690988514899,"02/08/2023 15:01:54",1690992114899,1,"02/08/2023 17:01:54",139282,42,"task-i89w",NA,31010300,9197908,NA,"complete",NA,NA,"computer","Desktop or Laptop","Windows 10","Edge 115.0.1901.188","1536x864","832x700",NA,NA,NA,"Feedback Phrases Task - List 1 (study_2)",2,"In","GHFIEJDACB","B (Feedback ranking_L1 First)","study_1 (JV and feedback_list_1)",NA,"In","Feedback List 1","Feedback List 1",6,"Task","Screen 1","113qg5",1,"response","You came across as very calm and collected.",4497.08099999404,4482.724,4497.08099999404,4497.08099999404,4482.724,4497.08099999404,1,4497.08099999404,0,0,NA,"Click Response","Text_right_X2",3,"object-19",NA,1,"You appeared very composed.","You came across as very calm and collected.","Task",NA,"SUPTM18638"
"30",1690988514899,"02/08/2023 15:01:54",1690992114899,1,"02/08/2023 17:01:54",139282,42,"task-i89w",NA,31010300,9197908,NA,"complete",NA,NA,"computer","Desktop or Laptop","Windows 10","Edge 115.0.1901.188","1536x864","832x700",NA,NA,NA,"Feedback Phrases Task - List 1 (study_2)",2,"In","GHFIEJDACB","B (Feedback ranking_L1 First)","study_1 (JV and feedback_list_1)",NA,"In","Feedback List 1","Feedback List 1",6,"Task","Screen 1","113qg5",1,"action","Text",4497.38100000596,4482.724,4497.38100000596,4497.38100000596,4482.724,4497.38100000596,1,4497.38100000596,0,0,NA,"Mousetracking","screen",0,"screen",NA,1,"You appeared very composed.","You came across as very calm and collected.","Task",NA,"SUPTM18638"
"31",1690988514899,"02/08/2023 15:01:54",1690992114899,1,"02/08/2023 17:01:54",139282,42,"task-i89w",NA,31010300,9197908,NA,"complete",NA,NA,"computer","Desktop or Laptop","Windows 10","Edge 115.0.1901.188","1536x864","832x700",NA,NA,NA,"Feedback Phrases Task - List 1 (study_2)",2,"In","GHFIEJDACB","B (Feedback ranking_L1 First)","study_1 (JV and feedback_list_1)",NA,"In","Feedback List 1","Feedback List 1",6,"Task","Screen 1","113qg5",1,"action","Text_left_X1",4497.68100001788,4482.724,4497.68100001788,4497.68100001788,4482.724,4497.68100001788,1,4497.68100001788,0,0,NA,"Mousetracking","screen",0,"screen",NA,1,"You appeared very composed.","You came across as very calm and collected.","Task",NA,"SUPTM18638"
"32",1690988514899,"02/08/2023 15:01:54",1690992114899,1,"02/08/2023 17:01:54",139282,42,"task-i89w",NA,31010300,9197908,NA,"complete",NA,NA,"computer","Desktop or Laptop","Windows 10","Edge 115.0.1901.188","1536x864","832x700",NA,NA,NA,"Feedback Phrases Task - List 1 (study_2)",2,"In","GHFIEJDACB","B (Feedback ranking_L1 First)","study_1 (JV and feedback_list_1)",NA,"In","Feedback List 1","Feedback List 1",6,"Task","Screen 1","113qg5",1,"action","Text_right_X2",4497.88100000596,4482.724,4497.88100000596,4497.88100000596,4482.724,4497.88100000596,1,4497.88100000596,816.690999999999,0.182186322423597,NA,"Mousetracking","screen",0,"screen",NA,1,"You appeared very composed.","You came across as very calm and collected.","Task",NA,"SUPTM18638"
"33",1690988516651,"02/08/2023 15:01:56",1690992116651,1,"02/08/2023 17:01:56",139282,42,"task-i89w",NA,31010300,9197908,NA,"complete",NA,NA,"computer","Desktop or Laptop","Windows 10","Edge 115.0.1901.188","1536x864","832x700",NA,NA,NA,"Feedback Phrases Task - List 1 (study_2)",2,"In","GHFIEJDACB","B (Feedback ranking_L1 First)","study_1 (JV and feedback_list_1)",NA,"In","Feedback List 1","Feedback List 1",6,"Task","Screen 3","izqege",2,"continue","",1765.999,1765.999,1765.999,1765.999,1765.999,1765.999,1,1765.999,0,0,NA,"Fixation Timing","Fixation Cross",1,"object-48",NA,1,"You appeared very composed.","You came across as very calm and collected.","Task",NA,"SUPTM18638"
"34",1690988520099,"02/08/2023 15:02:00",1690992120099,1,"02/08/2023 17:02:00",139282,42,"task-i89w",NA,31010300,9197908,NA,"complete",NA,NA,"computer","Desktop or Laptop","Windows 10","Edge 115.0.1901.188","1536x864","832x700",NA,NA,NA,"Feedback Phrases Task - List 1 (study_2)",2,"In","GHFIEJDACB","B (Feedback ranking_L1 First)","study_1 (JV and feedback_list_1)",NA,"In","Feedback List 1","Feedback List 1",7,"Task","Screen 1","113qg5",1,"response","You were very interesting to listen to.",3448.45800001788,3432.751,3448.45800001788,3448.45800001788,3432.751,3448.45800001788,1,3448.45800001788,0,0,NA,"Click Response","Text_right_X2",3,"object-19",NA,1,"You seem very clever.","You were very interesting to listen to.","Task",NA,"SUPTM18638"
"35",1690988520099,"02/08/2023 15:02:00",1690992120099,1,"02/08/2023 17:02:00",139282,42,"task-i89w",NA,31010300,9197908,NA,"complete",NA,NA,"computer","Desktop or Laptop","Windows 10","Edge 115.0.1901.188","1536x864","832x700",NA,NA,NA,"Feedback Phrases Task - List 1 (study_2)",2,"In","GHFIEJDACB","B (Feedback ranking_L1 First)","study_1 (JV and feedback_list_1)",NA,"In","Feedback List 1","Feedback List 1",7,"Task","Screen 1","113qg5",1,"action","Text",3448.95800001788,3432.751,3448.95800001788,3448.95800001788,3432.751,3448.95800001788,1,3448.95800001788,0,0,NA,"Mousetracking","screen",0,"screen",NA,1,"You seem very clever.","You were very interesting to listen to.","Task",NA,"SUPTM18638"
"36",1690988520099,"02/08/2023 15:02:00",1690992120099,1,"02/08/2023 17:02:00",139282,42,"task-i89w",NA,31010300,9197908,NA,"complete",NA,NA,"computer","Desktop or Laptop","Windows 10","Edge 115.0.1901.188","1536x864","832x700",NA,NA,NA,"Feedback Phrases Task - List 1 (study_2)",2,"In","GHFIEJDACB","B (Feedback ranking_L1 First)","study_1 (JV and feedback_list_1)",NA,"In","Feedback List 1","Feedback List 1",7,"Task","Screen 1","113qg5",1,"action","Text_left_X1",3449.258,3432.751,3449.258,3449.258,3432.751,3449.258,1,3449.258,0,0,NA,"Mousetracking","screen",0,"screen",NA,1,"You seem very clever.","You were very interesting to listen to.","Task",NA,"SUPTM18638"
"37",1690988520100,"02/08/2023 15:02:00",1690992120100,1,"02/08/2023 17:02:00",139282,42,"task-i89w",NA,31010300,9197908,NA,"complete",NA,NA,"computer","Desktop or Laptop","Windows 10","Edge 115.0.1901.188","1536x864","832x700",NA,NA,NA,"Feedback Phrases Task - List 1 (study_2)",2,"In","GHFIEJDACB","B (Feedback ranking_L1 First)","study_1 (JV and feedback_list_1)",NA,"In","Feedback List 1","Feedback List 1",7,"Task","Screen 1","113qg5",1,"action","Text_right_X2",3449.497,3432.751,3449.497,3449.497,3432.751,3449.497,1,3449.497,132.986999999994,0.03874064853524,NA,"Mousetracking","screen",0,"screen",NA,1,"You seem very clever.","You were very interesting to listen to.","Task",NA,"SUPTM18638"
"38",1690988521851,"02/08/2023 15:02:01",1690992121851,1,"02/08/2023 17:02:01",139282,42,"task-i89w",NA,31010300,9197908,NA,"complete",NA,NA,"computer","Desktop or Laptop","Windows 10","Edge 115.0.1901.188","1536x864","832x700",NA,NA,NA,"Feedback Phrases Task - List 1 (study_2)",2,"In","GHFIEJDACB","B (Feedback ranking_L1 First)","study_1 (JV and feedback_list_1)",NA,"In","Feedback List 1","Feedback List 1",7,"Task","Screen 3","izqege",2,"continue","",1766.893,1766.893,1766.893,1766.893,1766.893,1766.893,1,1766.893,0,0,NA,"Fixation Timing","Fixation Cross",1,"object-48",NA,1,"You seem very clever.","You were very interesting to listen to.","Task",NA,"SUPTM18638"
"39",1690988533391,"02/08/2023 15:02:13",1690992133391,1,"02/08/2023 17:02:13",139282,42,"task-i89w",NA,31010300,9197908,NA,"complete",NA,NA,"computer","Desktop or Laptop","Windows 10","Edge 115.0.1901.188","1536x864","832x700",NA,NA,NA,"Feedback Phrases Task - List 1 (study_2)",2,"In","GHFIEJDACB","B (Feedback ranking_L1 First)","study_1 (JV and feedback_list_1)",NA,"In","Feedback List 1","Feedback List 1",8,"Task","Screen 1","113qg5",1,"response","You made a great impression.",11541.014000006,11531.879,11541.014000006,11541.014000006,11531.879,11541.014000006,1,11541.014000006,0,0,NA,"Click Response","Text_right_X2",3,"object-19",NA,1,"You came across as very calm and collected.","You made a great impression.","Task",NA,"SUPTM18638"
"40",1690988533394,"02/08/2023 15:02:13",1690992133394,1,"02/08/2023 17:02:13",139282,42,"task-i89w",NA,31010300,9197908,NA,"complete",NA,NA,"computer","Desktop or Laptop","Windows 10","Edge 115.0.1901.188","1536x864","832x700",NA,NA,NA,"Feedback Phrases Task - List 1 (study_2)",2,"In","GHFIEJDACB","B (Feedback ranking_L1 First)","study_1 (JV and feedback_list_1)",NA,"In","Feedback List 1","Feedback List 1",8,"Task","Screen 1","113qg5",1,"action","Text",11543.713999994,11531.879,11543.713999994,11543.713999994,11531.879,11543.713999994,1,11543.713999994,0,0,NA,"Mousetracking","screen",0,"screen",NA,1,"You came across as very calm and collected.","You made a great impression.","Task",NA,"SUPTM18638"
"41",1690988533394,"02/08/2023 15:02:13",1690992133394,1,"02/08/2023 17:02:13",139282,42,"task-i89w",NA,31010300,9197908,NA,"complete",NA,NA,"computer","Desktop or Laptop","Windows 10","Edge 115.0.1901.188","1536x864","832x700",NA,NA,NA,"Feedback Phrases Task - List 1 (study_2)",2,"In","GHFIEJDACB","B (Feedback ranking_L1 First)","study_1 (JV and feedback_list_1)",NA,"In","Feedback List 1","Feedback List 1",8,"Task","Screen 1","113qg5",1,"action","Text_left_X1",11544.213999994,11531.879,11544.213999994,11544.213999994,11531.879,11544.213999994,1,11544.213999994,0,0,NA,"Mousetracking","screen",0,"screen",NA,1,"You came across as very calm and collected.","You made a great impression.","Task",NA,"SUPTM18638"
"42",1690988533395,"02/08/2023 15:02:13",1690992133395,1,"02/08/2023 17:02:13",139282,42,"task-i89w",NA,31010300,9197908,NA,"complete",NA,NA,"computer","Desktop or Laptop","Windows 10","Edge 115.0.1901.188","1536x864","832x700",NA,NA,NA,"Feedback Phrases Task - List 1 (study_2)",2,"In","GHFIEJDACB","B (Feedback ranking_L1 First)","study_1 (JV and feedback_list_1)",NA,"In","Feedback List 1","Feedback List 1",8,"Task","Screen 1","113qg5",1,"action","Text_right_X2",11544.713999994,11531.879,11544.713999994,11544.713999994,11531.879,11544.713999994,1,11544.713999994,67972.899,5.89434722650142,NA,"Mousetracking","screen",0,"screen",NA,1,"You came across as very calm and collected.","You made a great impression.","Task",NA,"SUPTM18638"
"43",1690988535153,"02/08/2023 15:02:15",1690992135153,1,"02/08/2023 17:02:15",139282,42,"task-i89w",NA,31010300,9197908,NA,"complete",NA,NA,"computer","Desktop or Laptop","Windows 10","Edge 115.0.1901.188","1536x864","832x700",NA,NA,NA,"Feedback Phrases Task - List 1 (study_2)",2,"In","GHFIEJDACB","B (Feedback ranking_L1 First)","study_1 (JV and feedback_list_1)",NA,"In","Feedback List 1","Feedback List 1",8,"Task","Screen 3","izqege",2,"continue","",1765.712,1765.712,1765.712,1765.712,1765.712,1765.712,1,1765.712,0,0,NA,"Fixation Timing","Fixation Cross",1,"object-48",NA,1,"You came across as very calm and collected.","You made a great impression.","Task",NA,"SUPTM18638"
"44",1690988536498,"02/08/2023 15:02:16",1690992136498,1,"02/08/2023 17:02:16",139282,42,"task-i89w",NA,31010300,9197908,NA,"complete",NA,NA,"computer","Desktop or Laptop","Windows 10","Edge 115.0.1901.188","1536x864","832x700",NA,NA,NA,"Feedback Phrases Task - List 1 (study_2)",2,"In","GHFIEJDACB","B (Feedback ranking_L1 First)","study_1 (JV and feedback_list_1)",NA,"In","Feedback List 1","Feedback List 1",9,"Task","Screen 1","113qg5",1,"response","Good work!",1349.95600000001,1333.315,1349.95600000001,1349.95600000001,1333.315,1349.95600000001,1,1349.95600000001,0,0,NA,"Click Response","Text_left_X1",2,"object-18",NA,1,"Good work!","Everything you said was correct.","Task",NA,"SUPTM18638"
"45",1690988536499,"02/08/2023 15:02:16",1690992136499,1,"02/08/2023 17:02:16",139282,42,"task-i89w",NA,31010300,9197908,NA,"complete",NA,NA,"computer","Desktop or Laptop","Windows 10","Edge 115.0.1901.188","1536x864","832x700",NA,NA,NA,"Feedback Phrases Task - List 1 (study_2)",2,"In","GHFIEJDACB","B (Feedback ranking_L1 First)","study_1 (JV and feedback_list_1)",NA,"In","Feedback List 1","Feedback List 1",9,"Task","Screen 1","113qg5",1,"action","Text",1349.95600000001,1333.315,1349.95600000001,1349.95600000001,1333.315,1349.95600000001,1,1349.95600000001,0,0,NA,"Mousetracking","screen",0,"screen",NA,1,"Good work!","Everything you said was correct.","Task",NA,"SUPTM18638"
"46",1690988536499,"02/08/2023 15:02:16",1690992136499,1,"02/08/2023 17:02:16",139282,42,"task-i89w",NA,31010300,9197908,NA,"complete",NA,NA,"computer","Desktop or Laptop","Windows 10","Edge 115.0.1901.188","1536x864","832x700",NA,NA,NA,"Feedback Phrases Task - List 1 (study_2)",2,"In","GHFIEJDACB","B (Feedback ranking_L1 First)","study_1 (JV and feedback_list_1)",NA,"In","Feedback List 1","Feedback List 1",9,"Task","Screen 1","113qg5",1,"action","Text_left_X1",1349.95600000001,1333.315,1349.95600000001,1349.95600000001,1333.315,1349.95600000001,1,1349.95600000001,283.504000000001,0.212630923675201,NA,"Mousetracking","screen",0,"screen",NA,1,"Good work!","Everything you said was correct.","Task",NA,"SUPTM18638"
"47",1690988536500,"02/08/2023 15:02:16",1690992136500,1,"02/08/2023 17:02:16",139282,42,"task-i89w",NA,31010300,9197908,NA,"complete",NA,NA,"computer","Desktop or Laptop","Windows 10","Edge 115.0.1901.188","1536x864","832x700",NA,NA,NA,"Feedback Phrases Task - List 1 (study_2)",2,"In","GHFIEJDACB","B (Feedback ranking_L1 First)","study_1 (JV and feedback_list_1)",NA,"In","Feedback List 1","Feedback List 1",9,"Task","Screen 1","113qg5",1,"action","Text_right_X2",1349.95600000001,1333.315,1349.95600000001,1349.95600000001,1333.315,1349.95600000001,1,1349.95600000001,0,0,NA,"Mousetracking","screen",0,"screen",NA,1,"Good work!","Everything you said was correct.","Task",NA,"SUPTM18638"
"48",1690988538248,"02/08/2023 15:02:18",1690992138248,1,"02/08/2023 17:02:18",139282,42,"task-i89w",NA,31010300,9197908,NA,"complete",NA,NA,"computer","Desktop or Laptop","Windows 10","Edge 115.0.1901.188","1536x864","832x700",NA,NA,NA,"Feedback Phrases Task - List 1 (study_2)",2,"In","GHFIEJDACB","B (Feedback ranking_L1 First)","study_1 (JV and feedback_list_1)",NA,"In","Feedback List 1","Feedback List 1",9,"Task","Screen 3","izqege",2,"continue","",1766.539,1766.539,1766.539,1766.539,1766.539,1766.539,1,1766.539,0,0,NA,"Fixation Timing","Fixation Cross",1,"object-48",NA,1,"Good work!","Everything you said was correct.","Task",NA,"SUPTM18638"
"49",1690988539280,"02/08/2023 15:02:19",1690992139280,1,"02/08/2023 17:02:19",139282,42,"task-i89w",NA,31010300,9197908,NA,"complete",NA,NA,"computer","Desktop or Laptop","Windows 10","Edge 115.0.1901.188","1536x864","832x700",NA,NA,NA,"Feedback Phrases Task - List 1 (study_2)",2,"In","GHFIEJDACB","B (Feedback ranking_L1 First)","study_1 (JV and feedback_list_1)",NA,"In","Feedback List 1","Feedback List 1",10,"Task","Screen 1","113qg5",1,"response","That was great!",1032.46900001192,1016.43999999999,1032.46900001192,1032.46900001192,1016.43999999999,1032.46900001192,1,1032.46900001192,0,0,NA,"Click Response","Text_left_X1",2,"object-18",NA,1,"That was great!","You spoke very well.","Task",NA,"SUPTM18638"
"50",1690988539281,"02/08/2023 15:02:19",1690992139281,1,"02/08/2023 17:02:19",139282,42,"task-i89w",NA,31010300,9197908,NA,"complete",NA,NA,"computer","Desktop or Laptop","Windows 10","Edge 115.0.1901.188","1536x864","832x700",NA,NA,NA,"Feedback Phrases Task - List 1 (study_2)",2,"In","GHFIEJDACB","B (Feedback ranking_L1 First)","study_1 (JV and feedback_list_1)",NA,"In","Feedback List 1","Feedback List 1",10,"Task","Screen 1","113qg5",1,"action","Text",1033.10599999999,1016.43999999999,1033.10599999999,1033.10599999999,1016.43999999999,1033.10599999999,1,1033.10599999999,0,0,NA,"Mousetracking","screen",0,"screen",NA,1,"That was great!","You spoke very well.","Task",NA,"SUPTM18638"
"51",1690988539282,"02/08/2023 15:02:19",1690992139282,1,"02/08/2023 17:02:19",139282,42,"task-i89w",NA,31010300,9197908,NA,"complete",NA,NA,"computer","Desktop or Laptop","Windows 10","Edge 115.0.1901.188","1536x864","832x700",NA,NA,NA,"Feedback Phrases Task - List 1 (study_2)",2,"In","GHFIEJDACB","B (Feedback ranking_L1 First)","study_1 (JV and feedback_list_1)",NA,"In","Feedback List 1","Feedback List 1",10,"Task","Screen 1","113qg5",1,"action","Text_left_X1",1033.10599999999,1016.43999999999,1033.10599999999,1033.10599999999,1016.43999999999,1033.10599999999,1,1033.10599999999,149.716,0.147294478769039,NA,"Mousetracking","screen",0,"screen",NA,1,"That was great!","You spoke very well.","Task",NA,"SUPTM18638"
"52",1690988539283,"02/08/2023 15:02:19",1690992139283,1,"02/08/2023 17:02:19",139282,42,"task-i89w",NA,31010300,9197908,NA,"complete",NA,NA,"computer","Desktop or Laptop","Windows 10","Edge 115.0.1901.188","1536x864","832x700",NA,NA,NA,"Feedback Phrases Task - List 1 (study_2)",2,"In","GHFIEJDACB","B (Feedback ranking_L1 First)","study_1 (JV and feedback_list_1)",NA,"In","Feedback List 1","Feedback List 1",10,"Task","Screen 1","113qg5",1,"action","Text_right_X2",1033.10599999999,1016.43999999999,1033.10599999999,1033.10599999999,1016.43999999999,1033.10599999999,1,1033.10599999999,0,0,NA,"Mousetracking","screen",0,"screen",NA,1,"That was great!","You spoke very well.","Task",NA,"SUPTM18638"
"53",1690988541031,"02/08/2023 15:02:21",1690992141031,1,"02/08/2023 17:02:21",139282,42,"task-i89w",NA,31010300,9197908,NA,"complete",NA,NA,"computer","Desktop or Laptop","Windows 10","Edge 115.0.1901.188","1536x864","832x700",NA,NA,NA,"Feedback Phrases Task - List 1 (study_2)",2,"In","GHFIEJDACB","B (Feedback ranking_L1 First)","study_1 (JV and feedback_list_1)",NA,"In","Feedback List 1","Feedback List 1",10,"Task","Screen 3","izqege",2,"continue","",1766.22100000001,1766.22100000001,1766.22100000001,1766.22100000001,1766.22100000001,1766.22100000001,1,1766.22100000001,0,0,NA,"Fixation Timing","Fixation Cross",1,"object-48",NA,1,"That was great!","You spoke very well.","Task",NA,"SUPTM18638"
"54",1690988543531,"02/08/2023 15:02:23",1690992143531,1,"02/08/2023 17:02:23",139282,42,"task-i89w",NA,31010300,9197908,NA,"complete",NA,NA,"computer","Desktop or Laptop","Windows 10","Edge 115.0.1901.188","1536x864","832x700",NA,NA,NA,"Feedback Phrases Task - List 1 (study_2)",2,"In","GHFIEJDACB","B (Feedback ranking_L1 First)","study_1 (JV and feedback_list_1)",NA,"In","Feedback List 1","Feedback List 1",11,"Task","Screen 1","113qg5",1,"response","You spoke very well.",2499.45299999999,2482.954,2499.45299999999,2499.45299999999,2482.954,2499.45299999999,1,2499.45299999999,0,0,NA,"Click Response","Text_right_X2",3,"object-19",NA,1,"You met expectations.","You spoke very well.","Task",NA,"SUPTM18638"
"55",1690988543547,"02/08/2023 15:02:23",1690992143547,1,"02/08/2023 17:02:23",139282,42,"task-i89w",NA,31010300,9197908,NA,"complete",NA,NA,"computer","Desktop or Laptop","Windows 10","Edge 115.0.1901.188","1536x864","832x700",NA,NA,NA,"Feedback Phrases Task - List 1 (study_2)",2,"In","GHFIEJDACB","B (Feedback ranking_L1 First)","study_1 (JV and feedback_list_1)",NA,"In","Feedback List 1","Feedback List 1",11,"Task","Screen 1","113qg5",1,"action","Text",2499.45299999999,2482.954,2499.45299999999,2499.45299999999,2482.954,2499.45299999999,1,2499.45299999999,350.102000000014,0.141002209465022,NA,"Mousetracking","screen",0,"screen",NA,1,"You met expectations.","You spoke very well.","Task",NA,"SUPTM18638"
"56",1690988543548,"02/08/2023 15:02:23",1690992143548,1,"02/08/2023 17:02:23",139282,42,"task-i89w",NA,31010300,9197908,NA,"complete",NA,NA,"computer","Desktop or Laptop","Windows 10","Edge 115.0.1901.188","1536x864","832x700",NA,NA,NA,"Feedback Phrases Task - List 1 (study_2)",2,"In","GHFIEJDACB","B (Feedback ranking_L1 First)","study_1 (JV and feedback_list_1)",NA,"In","Feedback List 1","Feedback List 1",11,"Task","Screen 1","113qg5",1,"action","Text_left_X1",2499.45299999999,2482.954,2499.45299999999,2499.45299999999,2482.954,2499.45299999999,1,2499.45299999999,0,0,NA,"Mousetracking","screen",0,"screen",NA,1,"You met expectations.","You spoke very well.","Task",NA,"SUPTM18638"
"57",1690988543552,"02/08/2023 15:02:23",1690992143552,1,"02/08/2023 17:02:23",139282,42,"task-i89w",NA,31010300,9197908,NA,"complete",NA,NA,"computer","Desktop or Laptop","Windows 10","Edge 115.0.1901.188","1536x864","832x700",NA,NA,NA,"Feedback Phrases Task - List 1 (study_2)",2,"In","GHFIEJDACB","B (Feedback ranking_L1 First)","study_1 (JV and feedback_list_1)",NA,"In","Feedback List 1","Feedback List 1",11,"Task","Screen 1","113qg5",1,"action","Text_right_X2",2499.45299999999,2482.954,2499.45299999999,2499.45299999999,2482.954,2499.45299999999,1,2499.45299999999,333.941999999995,0.134493832749216,NA,"Mousetracking","screen",0,"screen",NA,1,"You met expectations.","You spoke very well.","Task",NA,"SUPTM18638"
"58",1690988545280,"02/08/2023 15:02:25",1690992145280,1,"02/08/2023 17:02:25",139282,42,"task-i89w",NA,31010300,9197908,NA,"complete",NA,NA,"computer","Desktop or Laptop","Windows 10","Edge 115.0.1901.188","1536x864","832x700",NA,NA,NA,"Feedback Phrases Task - List 1 (study_2)",2,"In","GHFIEJDACB","B (Feedback ranking_L1 First)","study_1 (JV and feedback_list_1)",NA,"In","Feedback List 1","Feedback List 1",11,"Task","Screen 3","izqege",2,"continue","",1766.45600000001,1766.45600000001,1766.45600000001,1766.45600000001,1766.45600000001,1766.45600000001,1,1766.45600000001,0,0,NA,"Fixation Timing","Fixation Cross",1,"object-48",NA,1,"You met expectations.","You spoke very well.","Task",NA,"SUPTM18638"
"59",1690988547310,"02/08/2023 15:02:27",1690992147310,1,"02/08/2023 17:02:27",139282,42,"task-i89w",NA,31010300,9197908,NA,"complete",NA,NA,"computer","Desktop or Laptop","Windows 10","Edge 115.0.1901.188","1536x864","832x700",NA,NA,NA,"Feedback Phrases Task - List 1 (study_2)",2,"In","GHFIEJDACB","B (Feedback ranking_L1 First)","study_1 (JV and feedback_list_1)",NA,"In","Feedback List 1","Feedback List 1",12,"Task","Screen 1","113qg5",1,"response","You were very interesting to listen to.",2025.69799999404,2016.539,2025.69799999404,2025.69799999404,2016.539,2025.69799999404,1,2025.69799999404,0,0,NA,"Click Response","Text_right_X2",3,"object-19",NA,1,"That was acceptable.","You were very interesting to listen to.","Task",NA,"SUPTM18638"
"60",1690988547310,"02/08/2023 15:02:27",1690992147310,1,"02/08/2023 17:02:27",139282,42,"task-i89w",NA,31010300,9197908,NA,"complete",NA,NA,"computer","Desktop or Laptop","Windows 10","Edge 115.0.1901.188","1536x864","832x700",NA,NA,NA,"Feedback Phrases Task - List 1 (study_2)",2,"In","GHFIEJDACB","B (Feedback ranking_L1 First)","study_1 (JV and feedback_list_1)",NA,"In","Feedback List 1","Feedback List 1",12,"Task","Screen 1","113qg5",1,"action","Text",2026.19799999404,2016.539,2026.19799999404,2026.19799999404,2016.539,2026.19799999404,1,2026.19799999404,0,0,NA,"Mousetracking","screen",0,"screen",NA,1,"That was acceptable.","You were very interesting to listen to.","Task",NA,"SUPTM18638"
"61",1690988547311,"02/08/2023 15:02:27",1690992147311,1,"02/08/2023 17:02:27",139282,42,"task-i89w",NA,31010300,9197908,NA,"complete",NA,NA,"computer","Desktop or Laptop","Windows 10","Edge 115.0.1901.188","1536x864","832x700",NA,NA,NA,"Feedback Phrases Task - List 1 (study_2)",2,"In","GHFIEJDACB","B (Feedback ranking_L1 First)","study_1 (JV and feedback_list_1)",NA,"In","Feedback List 1","Feedback List 1",12,"Task","Screen 1","113qg5",1,"action","Text_left_X1",2026.49800000596,2016.539,2026.49800000596,2026.49800000596,2016.539,2026.49800000596,1,2026.49800000596,0,0,NA,"Mousetracking","screen",0,"screen",NA,1,"That was acceptable.","You were very interesting to listen to.","Task",NA,"SUPTM18638"
"62",1690988547311,"02/08/2023 15:02:27",1690992147311,1,"02/08/2023 17:02:27",139282,42,"task-i89w",NA,31010300,9197908,NA,"complete",NA,NA,"computer","Desktop or Laptop","Windows 10","Edge 115.0.1901.188","1536x864","832x700",NA,NA,NA,"Feedback Phrases Task - List 1 (study_2)",2,"In","GHFIEJDACB","B (Feedback ranking_L1 First)","study_1 (JV and feedback_list_1)",NA,"In","Feedback List 1","Feedback List 1",12,"Task","Screen 1","113qg5",1,"action","Text_right_X2",2026.89800001192,2016.539,2026.89800001192,2026.89800001192,2016.539,2026.89800001192,1,2026.89800001192,85903.975,42.5997092047314,NA,"Mousetracking","screen",0,"screen",NA,1,"That was acceptable.","You were very interesting to listen to.","Task",NA,"SUPTM18638"
"63",1690988549068,"02/08/2023 15:02:29",1690992149068,1,"02/08/2023 17:02:29",139282,42,"task-i89w",NA,31010300,9197908,NA,"complete",NA,NA,"computer","Desktop or Laptop","Windows 10","Edge 115.0.1901.188","1536x864","832x700",NA,NA,NA,"Feedback Phrases Task - List 1 (study_2)",2,"In","GHFIEJDACB","B (Feedback ranking_L1 First)","study_1 (JV and feedback_list_1)",NA,"In","Feedback List 1","Feedback List 1",12,"Task","Screen 3","izqege",2,"continue","",1766.81299999999,1766.81299999999,1766.81299999999,1766.81299999999,1766.81299999999,1766.81299999999,1,1766.81299999999,0,0,NA,"Fixation Timing","Fixation Cross",1,"object-48",NA,1,"That was acceptable.","You were very interesting to listen to.","Task",NA,"SUPTM18638"
"64",1690988550492,"02/08/2023 15:02:30",1690992150492,1,"02/08/2023 17:02:30",139282,42,"task-i89w",NA,31010300,9197908,NA,"complete",NA,NA,"computer","Desktop or Laptop","Windows 10","Edge 115.0.1901.188","1536x864","832x700",NA,NA,NA,"Feedback Phrases Task - List 1 (study_2)",2,"In","GHFIEJDACB","B (Feedback ranking_L1 First)","study_1 (JV and feedback_list_1)",NA,"In","Feedback List 1","Feedback List 1",13,"Task","Screen 1","113qg5",1,"response","That was great!",1424.34599999404,1416.14999999999,1424.34599999404,1424.34599999404,1416.14999999999,1424.34599999404,1,1424.34599999404,0,0,NA,"Click Response","Text_left_X1",2,"object-18",NA,1,"That was great!","You seem very clever.","Task",NA,"SUPTM18638"
"65",1690988550493,"02/08/2023 15:02:30",1690992150493,1,"02/08/2023 17:02:30",139282,42,"task-i89w",NA,31010300,9197908,NA,"complete",NA,NA,"computer","Desktop or Laptop","Windows 10","Edge 115.0.1901.188","1536x864","832x700",NA,NA,NA,"Feedback Phrases Task - List 1 (study_2)",2,"In","GHFIEJDACB","B (Feedback ranking_L1 First)","study_1 (JV and feedback_list_1)",NA,"In","Feedback List 1","Feedback List 1",13,"Task","Screen 1","113qg5",1,"action","Text",1425.14600000596,1416.14999999999,1425.14600000596,1425.14600000596,1416.14999999999,1425.14600000596,1,1425.14600000596,0,0,NA,"Mousetracking","screen",0,"screen",NA,1,"That was great!","You seem very clever.","Task",NA,"SUPTM18638"
"66",1690988550493,"02/08/2023 15:02:30",1690992150493,1,"02/08/2023 17:02:30",139282,42,"task-i89w",NA,31010300,9197908,NA,"complete",NA,NA,"computer","Desktop or Laptop","Windows 10","Edge 115.0.1901.188","1536x864","832x700",NA,NA,NA,"Feedback Phrases Task - List 1 (study_2)",2,"In","GHFIEJDACB","B (Feedback ranking_L1 First)","study_1 (JV and feedback_list_1)",NA,"In","Feedback List 1","Feedback List 1",13,"Task","Screen 1","113qg5",1,"action","Text_left_X1",1425.64600000596,1416.14999999999,1425.64600000596,1425.64600000596,1416.14999999999,1425.64600000596,1,1425.64600000596,567,0.40038131553861,NA,"Mousetracking","screen",0,"screen",NA,1,"That was great!","You seem very clever.","Task",NA,"SUPTM18638"
"67",1690988550494,"02/08/2023 15:02:30",1690992150494,1,"02/08/2023 17:02:30",139282,42,"task-i89w",NA,31010300,9197908,NA,"complete",NA,NA,"computer","Desktop or Laptop","Windows 10","Edge 115.0.1901.188","1536x864","832x700",NA,NA,NA,"Feedback Phrases Task - List 1 (study_2)",2,"In","GHFIEJDACB","B (Feedback ranking_L1 First)","study_1 (JV and feedback_list_1)",NA,"In","Feedback List 1","Feedback List 1",13,"Task","Screen 1","113qg5",1,"action","Text_right_X2",1426.34599999404,1416.14999999999,1426.34599999404,1426.34599999404,1416.14999999999,1426.34599999404,1,1426.34599999404,0,0,NA,"Mousetracking","screen",0,"screen",NA,1,"That was great!","You seem very clever.","Task",NA,"SUPTM18638"
"68",1690988552251,"02/08/2023 15:02:32",1690992152251,1,"02/08/2023 17:02:32",139282,42,"task-i89w",NA,31010300,9197908,NA,"complete",NA,NA,"computer","Desktop or Laptop","Windows 10","Edge 115.0.1901.188","1536x864","832x700",NA,NA,NA,"Feedback Phrases Task - List 1 (study_2)",2,"In","GHFIEJDACB","B (Feedback ranking_L1 First)","study_1 (JV and feedback_list_1)",NA,"In","Feedback List 1","Feedback List 1",13,"Task","Screen 3","izqege",2,"continue","",1766.93000000001,1766.93000000001,1766.93000000001,1766.93000000001,1766.93000000001,1766.93000000001,1,1766.93000000001,0,0,NA,"Fixation Timing","Fixation Cross",1,"object-48",NA,1,"That was great!","You seem very clever.","Task",NA,"SUPTM18638"
"69",1690988553553,"02/08/2023 15:02:33",1690992153553,1,"02/08/2023 17:02:33",139282,42,"task-i89w",NA,31010300,9197908,NA,"complete",NA,NA,"computer","Desktop or Laptop","Windows 10","Edge 115.0.1901.188","1536x864","832x700",NA,NA,NA,"Feedback Phrases Task - List 1 (study_2)",2,"In","GHFIEJDACB","B (Feedback ranking_L1 First)","study_1 (JV and feedback_list_1)",NA,"In","Feedback List 1","Feedback List 1",14,"Task","Screen 1","113qg5",1,"response","Good work!",1302.46600001192,1299.031,1302.46600001192,1302.46600001192,1299.031,1302.46600001192,1,1302.46600001192,0,0,NA,"Click Response","Text_left_X1",2,"object-18",NA,1,"Good work!","You made a great impression.","Task",NA,"SUPTM18638"
"70",1690988553568,"02/08/2023 15:02:33",1690992153568,1,"02/08/2023 17:02:33",139282,42,"task-i89w",NA,31010300,9197908,NA,"complete",NA,NA,"computer","Desktop or Laptop","Windows 10","Edge 115.0.1901.188","1536x864","832x700",NA,NA,NA,"Feedback Phrases Task - List 1 (study_2)",2,"In","GHFIEJDACB","B (Feedback ranking_L1 First)","study_1 (JV and feedback_list_1)",NA,"In","Feedback List 1","Feedback List 1",14,"Task","Screen 1","113qg5",1,"action","Text",1314.88600000001,1299.031,1314.88600000001,1314.88600000001,1299.031,1314.88600000001,1,1314.88600000001,0,0,NA,"Mousetracking","screen",0,"screen",NA,1,"Good work!","You made a great impression.","Task",NA,"SUPTM18638"
"71",1690988553570,"02/08/2023 15:02:33",1690992153570,1,"02/08/2023 17:02:33",139282,42,"task-i89w",NA,31010300,9197908,NA,"complete",NA,NA,"computer","Desktop or Laptop","Windows 10","Edge 115.0.1901.188","1536x864","832x700",NA,NA,NA,"Feedback Phrases Task - List 1 (study_2)",2,"In","GHFIEJDACB","B (Feedback ranking_L1 First)","study_1 (JV and feedback_list_1)",NA,"In","Feedback List 1","Feedback List 1",14,"Task","Screen 1","113qg5",1,"action","Text_left_X1",1314.88600000001,1299.031,1314.88600000001,1314.88600000001,1299.031,1314.88600000001,1,1314.88600000001,114.149999999994,0.0878731916328355,NA,"Mousetracking","screen",0,"screen",NA,1,"Good work!","You made a great impression.","Task",NA,"SUPTM18638"
"72",1690988553572,"02/08/2023 15:02:33",1690992153572,1,"02/08/2023 17:02:33",139282,42,"task-i89w",NA,31010300,9197908,NA,"complete",NA,NA,"computer","Desktop or Laptop","Windows 10","Edge 115.0.1901.188","1536x864","832x700",NA,NA,NA,"Feedback Phrases Task - List 1 (study_2)",2,"In","GHFIEJDACB","B (Feedback ranking_L1 First)","study_1 (JV and feedback_list_1)",NA,"In","Feedback List 1","Feedback List 1",14,"Task","Screen 1","113qg5",1,"action","Text_right_X2",1314.88600000001,1299.031,1314.88600000001,1314.88600000001,1299.031,1314.88600000001,1,1314.88600000001,0,0,NA,"Mousetracking","screen",0,"screen",NA,1,"Good work!","You made a great impression.","Task",NA,"SUPTM18638"
"73",1690988555318,"02/08/2023 15:02:35",1690992155318,1,"02/08/2023 17:02:35",139282,42,"task-i89w",NA,31010300,9197908,NA,"complete",NA,NA,"computer","Desktop or Laptop","Windows 10","Edge 115.0.1901.188","1536x864","832x700",NA,NA,NA,"Feedback Phrases Task - List 1 (study_2)",2,"In","GHFIEJDACB","B (Feedback ranking_L1 First)","study_1 (JV and feedback_list_1)",NA,"In","Feedback List 1","Feedback List 1",14,"Task","Screen 3","izqege",2,"continue","",1767.056,1767.056,1767.056,1767.056,1767.056,1767.056,1,1767.056,0,0,NA,"Fixation Timing","Fixation Cross",1,"object-48",NA,1,"Good work!","You made a great impression.","Task",NA,"SUPTM18638"
"74",1690988557033,"02/08/2023 15:02:37",1690992157033,1,"02/08/2023 17:02:37",139282,42,"task-i89w",NA,31010300,9197908,NA,"complete",NA,NA,"computer","Desktop or Laptop","Windows 10","Edge 115.0.1901.188","1536x864","832x700",NA,NA,NA,"Feedback Phrases Task - List 1 (study_2)",2,"In","GHFIEJDACB","B (Feedback ranking_L1 First)","study_1 (JV and feedback_list_1)",NA,"In","Feedback List 1","Feedback List 1",15,"Task","Screen 1","113qg5",1,"response","You spoke very well.",1715.87900001192,1699.33899999999,1715.87900001192,1715.87900001192,1699.33899999999,1715.87900001192,1,1715.87900001192,0,0,NA,"Click Response","Text_left_X1",2,"object-18",NA,1,"You spoke very well.","Everything you said was correct.","Task",NA,"SUPTM18638"
"75",1690988557034,"02/08/2023 15:02:37",1690992157034,1,"02/08/2023 17:02:37",139282,42,"task-i89w",NA,31010300,9197908,NA,"complete",NA,NA,"computer","Desktop or Laptop","Windows 10","Edge 115.0.1901.188","1536x864","832x700",NA,NA,NA,"Feedback Phrases Task - List 1 (study_2)",2,"In","GHFIEJDACB","B (Feedback ranking_L1 First)","study_1 (JV and feedback_list_1)",NA,"In","Feedback List 1","Feedback List 1",15,"Task","Screen 1","113qg5",1,"action","Text",1715.98999999999,1699.33899999999,1715.98999999999,1715.98999999999,1699.33899999999,1715.98999999999,1,1715.98999999999,0,0,NA,"Mousetracking","screen",0,"screen",NA,1,"You spoke very well.","Everything you said was correct.","Task",NA,"SUPTM18638"
"76",1690988557034,"02/08/2023 15:02:37",1690992157034,1,"02/08/2023 17:02:37",139282,42,"task-i89w",NA,31010300,9197908,NA,"complete",NA,NA,"computer","Desktop or Laptop","Windows 10","Edge 115.0.1901.188","1536x864","832x700",NA,NA,NA,"Feedback Phrases Task - List 1 (study_2)",2,"In","GHFIEJDACB","B (Feedback ranking_L1 First)","study_1 (JV and feedback_list_1)",NA,"In","Feedback List 1","Feedback List 1",15,"Task","Screen 1","113qg5",1,"action","Text_left_X1",1715.98999999999,1699.33899999999,1715.98999999999,1715.98999999999,1699.33899999999,1715.98999999999,1,1715.98999999999,95902.719,56.4353074930902,NA,"Mousetracking","screen",0,"screen",NA,1,"You spoke very well.","Everything you said was correct.","Task",NA,"SUPTM18638"
"77",1690988557035,"02/08/2023 15:02:37",1690992157035,1,"02/08/2023 17:02:37",139282,42,"task-i89w",NA,31010300,9197908,NA,"complete",NA,NA,"computer","Desktop or Laptop","Windows 10","Edge 115.0.1901.188","1536x864","832x700",NA,NA,NA,"Feedback Phrases Task - List 1 (study_2)",2,"In","GHFIEJDACB","B (Feedback ranking_L1 First)","study_1 (JV and feedback_list_1)",NA,"In","Feedback List 1","Feedback List 1",15,"Task","Screen 1","113qg5",1,"action","Text_right_X2",1715.98999999999,1699.33899999999,1715.98999999999,1715.98999999999,1699.33899999999,1715.98999999999,1,1715.98999999999,0,0,NA,"Mousetracking","screen",0,"screen",NA,1,"You spoke very well.","Everything you said was correct.","Task",NA,"SUPTM18638"
"78",1690988558784,"02/08/2023 15:02:38",1690992158784,1,"02/08/2023 17:02:38",139282,42,"task-i89w",NA,31010300,9197908,NA,"complete",NA,NA,"computer","Desktop or Laptop","Windows 10","Edge 115.0.1901.188","1536x864","832x700",NA,NA,NA,"Feedback Phrases Task - List 1 (study_2)",2,"In","GHFIEJDACB","B (Feedback ranking_L1 First)","study_1 (JV and feedback_list_1)",NA,"In","Feedback List 1","Feedback List 1",15,"Task","Screen 3","izqege",2,"continue","",1766.822,1766.822,1766.822,1766.822,1766.822,1766.822,1,1766.822,0,0,NA,"Fixation Timing","Fixation Cross",1,"object-48",NA,1,"You spoke very well.","Everything you said was correct.","Task",NA,"SUPTM18638"
"79",1690988560457,"02/08/2023 15:02:40",1690992160457,1,"02/08/2023 17:02:40",139282,42,"task-i89w",NA,31010300,9197908,NA,"complete",NA,NA,"computer","Desktop or Laptop","Windows 10","Edge 115.0.1901.188","1536x864","832x700",NA,NA,NA,"Feedback Phrases Task - List 1 (study_2)",2,"In","GHFIEJDACB","B (Feedback ranking_L1 First)","study_1 (JV and feedback_list_1)",NA,"In","Feedback List 1","Feedback List 1",16,"Task","Screen 1","113qg5",1,"response","That was great!",1673.71800001193,1666.289,1673.71800001193,1673.71800001193,1666.289,1673.71800001193,1,1673.71800001193,0,0,NA,"Click Response","Text_right_X2",3,"object-19",NA,1,"You completed the task.","That was great!","Task",NA,"SUPTM18638"
"80",1690988560457,"02/08/2023 15:02:40",1690992160457,1,"02/08/2023 17:02:40",139282,42,"task-i89w",NA,31010300,9197908,NA,"complete",NA,NA,"computer","Desktop or Laptop","Windows 10","Edge 115.0.1901.188","1536x864","832x700",NA,NA,NA,"Feedback Phrases Task - List 1 (study_2)",2,"In","GHFIEJDACB","B (Feedback ranking_L1 First)","study_1 (JV and feedback_list_1)",NA,"In","Feedback List 1","Feedback List 1",16,"Task","Screen 1","113qg5",1,"action","Text",1674.41800000001,1666.289,1674.41800000001,1674.41800000001,1666.289,1674.41800000001,1,1674.41800000001,0,0,NA,"Mousetracking","screen",0,"screen",NA,1,"You completed the task.","That was great!","Task",NA,"SUPTM18638"
"81",1690988560458,"02/08/2023 15:02:40",1690992160458,1,"02/08/2023 17:02:40",139282,42,"task-i89w",NA,31010300,9197908,NA,"complete",NA,NA,"computer","Desktop or Laptop","Windows 10","Edge 115.0.1901.188","1536x864","832x700",NA,NA,NA,"Feedback Phrases Task - List 1 (study_2)",2,"In","GHFIEJDACB","B (Feedback ranking_L1 First)","study_1 (JV and feedback_list_1)",NA,"In","Feedback List 1","Feedback List 1",16,"Task","Screen 1","113qg5",1,"action","Text_left_X1",1675.01799999404,1666.289,1675.01799999404,1675.01799999404,1666.289,1675.01799999404,1,1675.01799999404,1000.038,0.600158795983169,NA,"Mousetracking","screen",0,"screen",NA,1,"You completed the task.","That was great!","Task",NA,"SUPTM18638"
"82",1690988560458,"02/08/2023 15:02:40",1690992160458,1,"02/08/2023 17:02:40",139282,42,"task-i89w",NA,31010300,9197908,NA,"complete",NA,NA,"computer","Desktop or Laptop","Windows 10","Edge 115.0.1901.188","1536x864","832x700",NA,NA,NA,"Feedback Phrases Task - List 1 (study_2)",2,"In","GHFIEJDACB","B (Feedback ranking_L1 First)","study_1 (JV and feedback_list_1)",NA,"In","Feedback List 1","Feedback List 1",16,"Task","Screen 1","113qg5",1,"action","Text_right_X2",1675.51799999404,1666.289,1675.51799999404,1675.51799999404,1666.289,1675.51799999404,1,1675.51799999404,200.587,0.120379477989712,NA,"Mousetracking","screen",0,"screen",NA,1,"You completed the task.","That was great!","Task",NA,"SUPTM18638"
"83",1690988562216,"02/08/2023 15:02:42",1690992162216,1,"02/08/2023 17:02:42",139282,42,"task-i89w",NA,31010300,9197908,NA,"complete",NA,NA,"computer","Desktop or Laptop","Windows 10","Edge 115.0.1901.188","1536x864","832x700",NA,NA,NA,"Feedback Phrases Task - List 1 (study_2)",2,"In","GHFIEJDACB","B (Feedback ranking_L1 First)","study_1 (JV and feedback_list_1)",NA,"In","Feedback List 1","Feedback List 1",16,"Task","Screen 3","izqege",2,"continue","",1766.034,1766.034,1766.034,1766.034,1766.034,1766.034,1,1766.034,0,0,NA,"Fixation Timing","Fixation Cross",1,"object-48",NA,1,"You completed the task.","That was great!","Task",NA,"SUPTM18638"
"84",1690988565631,"02/08/2023 15:02:45",1690992165631,1,"02/08/2023 17:02:45",139282,42,"task-i89w",NA,31010300,9197908,NA,"complete",NA,NA,"computer","Desktop or Laptop","Windows 10","Edge 115.0.1901.188","1536x864","832x700",NA,NA,NA,"Feedback Phrases Task - List 1 (study_2)",2,"In","GHFIEJDACB","B (Feedback ranking_L1 First)","study_1 (JV and feedback_list_1)",NA,"In","Feedback List 1","Feedback List 1",17,"Task","Screen 1","113qg5",1,"response","You were very interesting to listen to.",3415.79500001788,3400.18799999999,3415.79500001788,3415.79500001788,3400.18799999999,3415.79500001788,1,3415.79500001788,0,0,NA,"Click Response","Text_right_X2",3,"object-19",NA,1,"You came across as very calm and collected.","You were very interesting to listen to.","Task",NA,"SUPTM18638"
"85",1690988565647,"02/08/2023 15:02:45",1690992165647,1,"02/08/2023 17:02:45",139282,42,"task-i89w",NA,31010300,9197908,NA,"complete",NA,NA,"computer","Desktop or Laptop","Windows 10","Edge 115.0.1901.188","1536x864","832x700",NA,NA,NA,"Feedback Phrases Task - List 1 (study_2)",2,"In","GHFIEJDACB","B (Feedback ranking_L1 First)","study_1 (JV and feedback_list_1)",NA,"In","Feedback List 1","Feedback List 1",17,"Task","Screen 1","113qg5",1,"action","Text",3417.55699999999,3400.18799999999,3417.55699999999,3417.55699999999,3400.18799999999,3417.55699999999,1,3417.55699999999,0,0,NA,"Mousetracking","screen",0,"screen",NA,1,"You came across as very calm and collected.","You were very interesting to listen to.","Task",NA,"SUPTM18638"
"86",1690988565649,"02/08/2023 15:02:45",1690992165649,1,"02/08/2023 17:02:45",139282,42,"task-i89w",NA,31010300,9197908,NA,"complete",NA,NA,"computer","Desktop or Laptop","Windows 10","Edge 115.0.1901.188","1536x864","832x700",NA,NA,NA,"Feedback Phrases Task - List 1 (study_2)",2,"In","GHFIEJDACB","B (Feedback ranking_L1 First)","study_1 (JV and feedback_list_1)",NA,"In","Feedback List 1","Feedback List 1",17,"Task","Screen 1","113qg5",1,"action","Text_left_X1",3417.55699999999,3400.18799999999,3417.55699999999,3417.55699999999,3400.18799999999,3417.55699999999,1,3417.55699999999,0,0,NA,"Mousetracking","screen",0,"screen",NA,1,"You came across as very calm and collected.","You were very interesting to listen to.","Task",NA,"SUPTM18638"
"87",1690988565650,"02/08/2023 15:02:45",1690992165650,1,"02/08/2023 17:02:45",139282,42,"task-i89w",NA,31010300,9197908,NA,"complete",NA,NA,"computer","Desktop or Laptop","Windows 10","Edge 115.0.1901.188","1536x864","832x700",NA,NA,NA,"Feedback Phrases Task - List 1 (study_2)",2,"In","GHFIEJDACB","B (Feedback ranking_L1 First)","study_1 (JV and feedback_list_1)",NA,"In","Feedback List 1","Feedback List 1",17,"Task","Screen 1","113qg5",1,"action","Text_right_X2",3417.55699999999,3400.18799999999,3417.55699999999,3417.55699999999,3400.18799999999,3417.55699999999,1,3417.55699999999,1016.47199999999,0.298945822995668,NA,"Mousetracking","screen",0,"screen",NA,1,"You came across as very calm and collected.","You were very interesting to listen to.","Task",NA,"SUPTM18638"
"88",1690988567383,"02/08/2023 15:02:47",1690992167383,1,"02/08/2023 17:02:47",139282,42,"task-i89w",NA,31010300,9197908,NA,"complete",NA,NA,"computer","Desktop or Laptop","Windows 10","Edge 115.0.1901.188","1536x864","832x700",NA,NA,NA,"Feedback Phrases Task - List 1 (study_2)",2,"In","GHFIEJDACB","B (Feedback ranking_L1 First)","study_1 (JV and feedback_list_1)",NA,"In","Feedback List 1","Feedback List 1",17,"Task","Screen 3","izqege",2,"continue","",1766.43700000001,1766.43700000001,1766.43700000001,1766.43700000001,1766.43700000001,1766.43700000001,1,1766.43700000001,0,0,NA,"Fixation Timing","Fixation Cross",1,"object-48",NA,1,"You came across as very calm and collected.","You were very interesting to listen to.","Task",NA,"SUPTM18638"
"89",1690988569687,"02/08/2023 15:02:49",1690992169687,1,"02/08/2023 17:02:49",139282,42,"task-i89w",NA,31010300,9197908,NA,"complete",NA,NA,"computer","Desktop or Laptop","Windows 10","Edge 115.0.1901.188","1536x864","832x700",NA,NA,NA,"Feedback Phrases Task - List 1 (study_2)",2,"In","GHFIEJDACB","B (Feedback ranking_L1 First)","study_1 (JV and feedback_list_1)",NA,"In","Feedback List 1","Feedback List 1",18,"Task","Screen 1","113qg5",1,"response","You spoke very well.",2305.27000001192,2299.197,2305.27000001192,2305.27000001192,2299.197,2305.27000001192,1,2305.27000001192,0,0,NA,"Click Response","Text_left_X1",2,"object-18",NA,1,"You spoke very well.","You were very interesting to listen to.","Task",NA,"SUPTM18638"
"90",1690988569688,"02/08/2023 15:02:49",1690992169688,1,"02/08/2023 17:02:49",139282,42,"task-i89w",NA,31010300,9197908,NA,"complete",NA,NA,"computer","Desktop or Laptop","Windows 10","Edge 115.0.1901.188","1536x864","832x700",NA,NA,NA,"Feedback Phrases Task - List 1 (study_2)",2,"In","GHFIEJDACB","B (Feedback ranking_L1 First)","study_1 (JV and feedback_list_1)",NA,"In","Feedback List 1","Feedback List 1",18,"Task","Screen 1","113qg5",1,"action","Text",2305.97,2299.197,2305.97,2305.97,2299.197,2305.97,1,2305.97,0,0,NA,"Mousetracking","screen",0,"screen",NA,1,"You spoke very well.","You were very interesting to listen to.","Task",NA,"SUPTM18638"
"91",1690988569688,"02/08/2023 15:02:49",1690992169688,1,"02/08/2023 17:02:49",139282,42,"task-i89w",NA,31010300,9197908,NA,"complete",NA,NA,"computer","Desktop or Laptop","Windows 10","Edge 115.0.1901.188","1536x864","832x700",NA,NA,NA,"Feedback Phrases Task - List 1 (study_2)",2,"In","GHFIEJDACB","B (Feedback ranking_L1 First)","study_1 (JV and feedback_list_1)",NA,"In","Feedback List 1","Feedback List 1",18,"Task","Screen 1","113qg5",1,"action","Text_left_X1",2306.47,2299.197,2306.47,2306.47,2299.197,2306.47,1,2306.47,116.619000000006,0.0507216215052499,NA,"Mousetracking","screen",0,"screen",NA,1,"You spoke very well.","You were very interesting to listen to.","Task",NA,"SUPTM18638"
"92",1690988569689,"02/08/2023 15:02:49",1690992169689,1,"02/08/2023 17:02:49",139282,42,"task-i89w",NA,31010300,9197908,NA,"complete",NA,NA,"computer","Desktop or Laptop","Windows 10","Edge 115.0.1901.188","1536x864","832x700",NA,NA,NA,"Feedback Phrases Task - List 1 (study_2)",2,"In","GHFIEJDACB","B (Feedback ranking_L1 First)","study_1 (JV and feedback_list_1)",NA,"In","Feedback List 1","Feedback List 1",18,"Task","Screen 1","113qg5",1,"action","Text_right_X2",2306.87000000596,2299.197,2306.87000000596,2306.87000000596,2299.197,2306.87000000596,1,2306.87000000596,0,0,NA,"Mousetracking","screen",0,"screen",NA,1,"You spoke very well.","You were very interesting to listen to.","Task",NA,"SUPTM18638"
"93",1690988571457,"02/08/2023 15:02:51",1690992171457,1,"02/08/2023 17:02:51",139282,42,"task-i89w",NA,31010300,9197908,NA,"complete",NA,NA,"computer","Desktop or Laptop","Windows 10","Edge 115.0.1901.188","1536x864","832x700",NA,NA,NA,"Feedback Phrases Task - List 1 (study_2)",2,"In","GHFIEJDACB","B (Feedback ranking_L1 First)","study_1 (JV and feedback_list_1)",NA,"In","Feedback List 1","Feedback List 1",18,"Task","Screen 3","izqege",2,"continue","",1766.40300000001,1766.40300000001,1766.40300000001,1766.40300000001,1766.40300000001,1766.40300000001,1,1766.40300000001,0,0,NA,"Fixation Timing","Fixation Cross",1,"object-48",NA,1,"You spoke very well.","You were very interesting to listen to.","Task",NA,"SUPTM18638"
"94",1690988573400,"02/08/2023 15:02:53",1690992173400,1,"02/08/2023 17:02:53",139282,42,"task-i89w",NA,31010300,9197908,NA,"complete",NA,NA,"computer","Desktop or Laptop","Windows 10","Edge 115.0.1901.188","1536x864","832x700",NA,NA,NA,"Feedback Phrases Task - List 1 (study_2)",2,"In","GHFIEJDACB","B (Feedback ranking_L1 First)","study_1 (JV and feedback_list_1)",NA,"In","Feedback List 1","Feedback List 1",19,"Task","Screen 1","113qg5",1,"response","You did a great job of capturing the details.",1952.37,1949.49699999999,1952.37,1952.37,1949.49699999999,1952.37,1,1952.37,0,0,NA,"Click Response","Text_right_X2",3,"object-19",NA,1,"You completed the task.","You did a great job of capturing the details.","Task",NA,"SUPTM18638"
"95",1690988573400,"02/08/2023 15:02:53",1690992173400,1,"02/08/2023 17:02:53",139282,42,"task-i89w",NA,31010300,9197908,NA,"complete",NA,NA,"computer","Desktop or Laptop","Windows 10","Edge 115.0.1901.188","1536x864","832x700",NA,NA,NA,"Feedback Phrases Task - List 1 (study_2)",2,"In","GHFIEJDACB","B (Feedback ranking_L1 First)","study_1 (JV and feedback_list_1)",NA,"In","Feedback List 1","Feedback List 1",19,"Task","Screen 1","113qg5",1,"action","Text",1953.07000001788,1949.49699999999,1953.07000001788,1953.07000001788,1949.49699999999,1953.07000001788,1,1953.07000001788,0,0,NA,"Mousetracking","screen",0,"screen",NA,1,"You completed the task.","You did a great job of capturing the details.","Task",NA,"SUPTM18638"
"96",1690988573401,"02/08/2023 15:02:53",1690992173401,1,"02/08/2023 17:02:53",139282,42,"task-i89w",NA,31010300,9197908,NA,"complete",NA,NA,"computer","Desktop or Laptop","Windows 10","Edge 115.0.1901.188","1536x864","832x700",NA,NA,NA,"Feedback Phrases Task - List 1 (study_2)",2,"In","GHFIEJDACB","B (Feedback ranking_L1 First)","study_1 (JV and feedback_list_1)",NA,"In","Feedback List 1","Feedback List 1",19,"Task","Screen 1","113qg5",1,"action","Text_left_X1",1953.67000001192,1949.49699999999,1953.67000001192,1953.67000001192,1949.49699999999,1953.67000001192,1,1953.67000001192,0,0,NA,"Mousetracking","screen",0,"screen",NA,1,"You completed the task.","You did a great job of capturing the details.","Task",NA,"SUPTM18638"
"97",1690988573402,"02/08/2023 15:02:53",1690992173402,1,"02/08/2023 17:02:53",139282,42,"task-i89w",NA,31010300,9197908,NA,"complete",NA,NA,"computer","Desktop or Laptop","Windows 10","Edge 115.0.1901.188","1536x864","832x700",NA,NA,NA,"Feedback Phrases Task - List 1 (study_2)",2,"In","GHFIEJDACB","B (Feedback ranking_L1 First)","study_1 (JV and feedback_list_1)",NA,"In","Feedback List 1","Feedback List 1",19,"Task","Screen 1","113qg5",1,"action","Text_right_X2",1954.27000000596,1949.49699999999,1954.27000000596,1954.27000000596,1949.49699999999,1954.27000000596,1,1954.27000000596,400.009000000005,0.20518574791344,NA,"Mousetracking","screen",0,"screen",NA,1,"You completed the task.","You did a great job of capturing the details.","Task",NA,"SUPTM18638"
"98",1690988575165,"02/08/2023 15:02:55",1690992175165,1,"02/08/2023 17:02:55",139282,42,"task-i89w",NA,31010300,9197908,NA,"complete",NA,NA,"computer","Desktop or Laptop","Windows 10","Edge 115.0.1901.188","1536x864","832x700",NA,NA,NA,"Feedback Phrases Task - List 1 (study_2)",2,"In","GHFIEJDACB","B (Feedback ranking_L1 First)","study_1 (JV and feedback_list_1)",NA,"In","Feedback List 1","Feedback List 1",19,"Task","Screen 3","izqege",2,"continue","",1767.14700000001,1767.14700000001,1767.14700000001,1767.14700000001,1767.14700000001,1767.14700000001,1,1767.14700000001,0,0,NA,"Fixation Timing","Fixation Cross",1,"object-48",NA,1,"You completed the task.","You did a great job of capturing the details.","Task",NA,"SUPTM18638"
"99",1690988576806,"02/08/2023 15:02:56",1690992176806,1,"02/08/2023 17:02:56",139282,42,"task-i89w",NA,31010300,9197908,NA,"complete",NA,NA,"computer","Desktop or Laptop","Windows 10","Edge 115.0.1901.188","1536x864","832x700",NA,NA,NA,"Feedback Phrases Task - List 1 (study_2)",2,"In","GHFIEJDACB","B (Feedback ranking_L1 First)","study_1 (JV and feedback_list_1)",NA,"In","Feedback List 1","Feedback List 1",20,"Task","Screen 1","113qg5",1,"response","Good work!",1642.226,1632.59699999999,1642.226,1642.226,1632.59699999999,1642.226,1,1642.226,0,0,NA,"Click Response","Text_left_X1",2,"object-18",NA,1,"Good work!","You were very interesting to listen to.","Task",NA,"SUPTM18638"
"100",1690988576824,"02/08/2023 15:02:56",1690992176824,1,"02/08/2023 17:02:56",139282,42,"task-i89w",NA,31010300,9197908,NA,"complete",NA,NA,"computer","Desktop or Laptop","Windows 10","Edge 115.0.1901.188","1536x864","832x700",NA,NA,NA,"Feedback Phrases Task - List 1 (study_2)",2,"In","GHFIEJDACB","B (Feedback ranking_L1 First)","study_1 (JV and feedback_list_1)",NA,"In","Feedback List 1","Feedback List 1",20,"Task","Screen 1","113qg5",1,"action","Text",1649.2,1632.59699999999,1649.2,1649.2,1632.59699999999,1649.2,1,1649.2,0,0,NA,"Mousetracking","screen",0,"screen",NA,1,"Good work!","You were very interesting to listen to.","Task",NA,"SUPTM18638"
"101",1690988576825,"02/08/2023 15:02:56",1690992176825,1,"02/08/2023 17:02:56",139282,42,"task-i89w",NA,31010300,9197908,NA,"complete",NA,NA,"computer","Desktop or Laptop","Windows 10","Edge 115.0.1901.188","1536x864","832x700",NA,NA,NA,"Feedback Phrases Task - List 1 (study_2)",2,"In","GHFIEJDACB","B (Feedback ranking_L1 First)","study_1 (JV and feedback_list_1)",NA,"In","Feedback List 1","Feedback List 1",20,"Task","Screen 1","113qg5",1,"action","Text_left_X1",1649.2,1632.59699999999,1649.2,1649.2,1632.59699999999,1649.2,1,1649.2,183.330000000002,0.112293480877401,NA,"Mousetracking","screen",0,"screen",NA,1,"Good work!","You were very interesting to listen to.","Task",NA,"SUPTM18638"
"102",1690988576826,"02/08/2023 15:02:56",1690992176826,1,"02/08/2023 17:02:56",139282,42,"task-i89w",NA,31010300,9197908,NA,"complete",NA,NA,"computer","Desktop or Laptop","Windows 10","Edge 115.0.1901.188","1536x864","832x700",NA,NA,NA,"Feedback Phrases Task - List 1 (study_2)",2,"In","GHFIEJDACB","B (Feedback ranking_L1 First)","study_1 (JV and feedback_list_1)",NA,"In","Feedback List 1","Feedback List 1",20,"Task","Screen 1","113qg5",1,"action","Text_right_X2",1649.2,1632.59699999999,1649.2,1649.2,1632.59699999999,1649.2,1,1649.2,116017.007,71.0628569083493,NA,"Mousetracking","screen",0,"screen",NA,1,"Good work!","You were very interesting to listen to.","Task",NA,"SUPTM18638"
"103",1690988578564,"02/08/2023 15:02:58",1690992178564,1,"02/08/2023 17:02:58",139282,42,"task-i89w",NA,31010300,9197908,NA,"complete",NA,NA,"computer","Desktop or Laptop","Windows 10","Edge 115.0.1901.188","1536x864","832x700",NA,NA,NA,"Feedback Phrases Task - List 1 (study_2)",2,"In","GHFIEJDACB","B (Feedback ranking_L1 First)","study_1 (JV and feedback_list_1)",NA,"In","Feedback List 1","Feedback List 1",20,"Task","Screen 3","izqege",2,"continue","",1766.292,1766.292,1766.292,1766.292,1766.292,1766.292,1,1766.292,0,0,NA,"Fixation Timing","Fixation Cross",1,"object-48",NA,1,"Good work!","You were very interesting to listen to.","Task",NA,"SUPTM18638"
"104",1690988583469,"02/08/2023 15:03:03",1690992183469,1,"02/08/2023 17:03:03",139282,42,"task-i89w",NA,31010300,9197908,NA,"complete",NA,NA,"computer","Desktop or Laptop","Windows 10","Edge 115.0.1901.188","1536x864","832x700",NA,NA,NA,"Feedback Phrases Task - List 1 (study_2)",2,"In","GHFIEJDACB","B (Feedback ranking_L1 First)","study_1 (JV and feedback_list_1)",NA,"In","Feedback List 1","Feedback List 1",21,"Task","Screen 1","113qg5",1,"response","You did a great job of capturing the details.",4905.43699999404,4899.717,4905.43699999404,4905.43699999404,4899.717,4905.43699999404,1,4905.43699999404,0,0,NA,"Click Response","Text_left_X1",2,"object-18",NA,1,"You did a great job of capturing the details.","You appeared very composed.","Task",NA,"SUPTM18638"
"105",1690988583470,"02/08/2023 15:03:03",1690992183470,1,"02/08/2023 17:03:03",139282,42,"task-i89w",NA,31010300,9197908,NA,"complete",NA,NA,"computer","Desktop or Laptop","Windows 10","Edge 115.0.1901.188","1536x864","832x700",NA,NA,NA,"Feedback Phrases Task - List 1 (study_2)",2,"In","GHFIEJDACB","B (Feedback ranking_L1 First)","study_1 (JV and feedback_list_1)",NA,"In","Feedback List 1","Feedback List 1",21,"Task","Screen 1","113qg5",1,"action","Text",4906.837,4899.717,4906.837,4906.837,4899.717,4906.837,1,4906.837,0,0,NA,"Mousetracking","screen",0,"screen",NA,1,"You did a great job of capturing the details.","You appeared very composed.","Task",NA,"SUPTM18638"
"106",1690988583470,"02/08/2023 15:03:03",1690992183470,1,"02/08/2023 17:03:03",139282,42,"task-i89w",NA,31010300,9197908,NA,"complete",NA,NA,"computer","Desktop or Laptop","Windows 10","Edge 115.0.1901.188","1536x864","832x700",NA,NA,NA,"Feedback Phrases Task - List 1 (study_2)",2,"In","GHFIEJDACB","B (Feedback ranking_L1 First)","study_1 (JV and feedback_list_1)",NA,"In","Feedback List 1","Feedback List 1",21,"Task","Screen 1","113qg5",1,"action","Text_left_X1",4907.23700000596,4899.717,4907.23700000596,4907.23700000596,4899.717,4907.23700000596,1,4907.23700000596,166.659,0.0340140052986733,NA,"Mousetracking","screen",0,"screen",NA,1,"You did a great job of capturing the details.","You appeared very composed.","Task",NA,"SUPTM18638"
"107",1690988583470,"02/08/2023 15:03:03",1690992183470,1,"02/08/2023 17:03:03",139282,42,"task-i89w",NA,31010300,9197908,NA,"complete",NA,NA,"computer","Desktop or Laptop","Windows 10","Edge 115.0.1901.188","1536x864","832x700",NA,NA,NA,"Feedback Phrases Task - List 1 (study_2)",2,"In","GHFIEJDACB","B (Feedback ranking_L1 First)","study_1 (JV and feedback_list_1)",NA,"In","Feedback List 1","Feedback List 1",21,"Task","Screen 1","113qg5",1,"action","Text_right_X2",4907.63700001192,4899.717,4907.63700001192,4907.63700001192,4899.717,4907.63700001192,1,4907.63700001192,0,0,NA,"Mousetracking","screen",0,"screen",NA,1,"You did a great job of capturing the details.","You appeared very composed.","Task",NA,"SUPTM18638"
"108",1690988585230,"02/08/2023 15:03:05",1690992185230,1,"02/08/2023 17:03:05",139282,42,"task-i89w",NA,31010300,9197908,NA,"complete",NA,NA,"computer","Desktop or Laptop","Windows 10","Edge 115.0.1901.188","1536x864","832x700",NA,NA,NA,"Feedback Phrases Task - List 1 (study_2)",2,"In","GHFIEJDACB","B (Feedback ranking_L1 First)","study_1 (JV and feedback_list_1)",NA,"In","Feedback List 1","Feedback List 1",21,"Task","Screen 3","izqege",2,"continue","",1765.976,1765.976,1765.976,1765.976,1765.976,1765.976,1,1765.976,0,0,NA,"Fixation Timing","Fixation Cross",1,"object-48",NA,1,"You did a great job of capturing the details.","You appeared very composed.","Task",NA,"SUPTM18638"
"109",1690988588891,"02/08/2023 15:03:08",1690992188891,1,"02/08/2023 17:03:08",139282,42,"task-i89w",NA,31010300,9197908,NA,"complete",NA,NA,"computer","Desktop or Laptop","Windows 10","Edge 115.0.1901.188","1536x864","832x700",NA,NA,NA,"Feedback Phrases Task - List 1 (study_2)",2,"In","GHFIEJDACB","B (Feedback ranking_L1 First)","study_1 (JV and feedback_list_1)",NA,"In","Feedback List 1","Feedback List 1",22,"Task","Screen 1","113qg5",1,"response","You were very interesting to listen to.",3662.144,3650.235,3662.144,3662.144,3650.235,3662.144,1,3662.144,0,0,NA,"Click Response","Text_right_X2",3,"object-19",NA,1,"You met expectations.","You were very interesting to listen to.","Task",NA,"SUPTM18638"
"110",1690988588903,"02/08/2023 15:03:08",1690992188903,1,"02/08/2023 17:03:08",139282,42,"task-i89w",NA,31010300,9197908,NA,"complete",NA,NA,"computer","Desktop or Laptop","Windows 10","Edge 115.0.1901.188","1536x864","832x700",NA,NA,NA,"Feedback Phrases Task - List 1 (study_2)",2,"In","GHFIEJDACB","B (Feedback ranking_L1 First)","study_1 (JV and feedback_list_1)",NA,"In","Feedback List 1","Feedback List 1",22,"Task","Screen 1","113qg5",1,"action","Text",3667.034,3650.235,3667.034,3667.034,3650.235,3667.034,1,3667.034,0,0,NA,"Mousetracking","screen",0,"screen",NA,1,"You met expectations.","You were very interesting to listen to.","Task",NA,"SUPTM18638"
"111",1690988588904,"02/08/2023 15:03:08",1690992188904,1,"02/08/2023 17:03:08",139282,42,"task-i89w",NA,31010300,9197908,NA,"complete",NA,NA,"computer","Desktop or Laptop","Windows 10","Edge 115.0.1901.188","1536x864","832x700",NA,NA,NA,"Feedback Phrases Task - List 1 (study_2)",2,"In","GHFIEJDACB","B (Feedback ranking_L1 First)","study_1 (JV and feedback_list_1)",NA,"In","Feedback List 1","Feedback List 1",22,"Task","Screen 1","113qg5",1,"action","Text_left_X1",3667.034,3650.235,3667.034,3667.034,3650.235,3667.034,1,3667.034,1299.77099999999,0.35607871821951,NA,"Mousetracking","screen",0,"screen",NA,1,"You met expectations.","You were very interesting to listen to.","Task",NA,"SUPTM18638"
"112",1690988588905,"02/08/2023 15:03:08",1690992188905,1,"02/08/2023 17:03:08",139282,42,"task-i89w",NA,31010300,9197908,NA,"complete",NA,NA,"computer","Desktop or Laptop","Windows 10","Edge 115.0.1901.188","1536x864","832x700",NA,NA,NA,"Feedback Phrases Task - List 1 (study_2)",2,"In","GHFIEJDACB","B (Feedback ranking_L1 First)","study_1 (JV and feedback_list_1)",NA,"In","Feedback List 1","Feedback List 1",22,"Task","Screen 1","113qg5",1,"action","Text_right_X2",3667.034,3650.235,3667.034,3667.034,3650.235,3667.034,1,3667.034,449.915000000008,0.123256447872536,NA,"Mousetracking","screen",0,"screen",NA,1,"You met expectations.","You were very interesting to listen to.","Task",NA,"SUPTM18638"
"113",1690988590646,"02/08/2023 15:03:10",1690992190646,1,"02/08/2023 17:03:10",139282,42,"task-i89w",NA,31010300,9197908,NA,"complete",NA,NA,"computer","Desktop or Laptop","Windows 10","Edge 115.0.1901.188","1536x864","832x700",NA,NA,NA,"Feedback Phrases Task - List 1 (study_2)",2,"In","GHFIEJDACB","B (Feedback ranking_L1 First)","study_1 (JV and feedback_list_1)",NA,"In","Feedback List 1","Feedback List 1",22,"Task","Screen 3","izqege",2,"continue","",1766.25900000001,1766.25900000001,1766.25900000001,1766.25900000001,1766.25900000001,1766.25900000001,1,1766.25900000001,0,0,NA,"Fixation Timing","Fixation Cross",1,"object-48",NA,1,"You met expectations.","You were very interesting to listen to.","Task",NA,"SUPTM18638"
"114",1690988593288,"02/08/2023 15:03:13",1690992193288,1,"02/08/2023 17:03:13",139282,42,"task-i89w",NA,31010300,9197908,NA,"complete",NA,NA,"computer","Desktop or Laptop","Windows 10","Edge 115.0.1901.188","1536x864","832x700",NA,NA,NA,"Feedback Phrases Task - List 1 (study_2)",2,"In","GHFIEJDACB","B (Feedback ranking_L1 First)","study_1 (JV and feedback_list_1)",NA,"In","Feedback List 1","Feedback List 1",23,"Task","Screen 1","113qg5",1,"response","You seem very clever.",2642.85000001788,2632.44899999999,2642.85000001788,2642.85000001788,2632.44899999999,2642.85000001788,1,2642.85000001788,0,0,NA,"Click Response","Text_right_X2",3,"object-19",NA,1,"I didn't notice any mistakes.","You seem very clever.","Task",NA,"SUPTM18638"
"115",1690988593289,"02/08/2023 15:03:13",1690992193289,1,"02/08/2023 17:03:13",139282,42,"task-i89w",NA,31010300,9197908,NA,"complete",NA,NA,"computer","Desktop or Laptop","Windows 10","Edge 115.0.1901.188","1536x864","832x700",NA,NA,NA,"Feedback Phrases Task - List 1 (study_2)",2,"In","GHFIEJDACB","B (Feedback ranking_L1 First)","study_1 (JV and feedback_list_1)",NA,"In","Feedback List 1","Feedback List 1",23,"Task","Screen 1","113qg5",1,"action","Text",2643.55000000595,2632.44899999999,2643.55000000595,2643.55000000595,2632.44899999999,2643.55000000595,1,2643.55000000595,0,0,NA,"Mousetracking","screen",0,"screen",NA,1,"I didn't notice any mistakes.","You seem very clever.","Task",NA,"SUPTM18638"
"116",1690988593289,"02/08/2023 15:03:13",1690992193289,1,"02/08/2023 17:03:13",139282,42,"task-i89w",NA,31010300,9197908,NA,"complete",NA,NA,"computer","Desktop or Laptop","Windows 10","Edge 115.0.1901.188","1536x864","832x700",NA,NA,NA,"Feedback Phrases Task - List 1 (study_2)",2,"In","GHFIEJDACB","B (Feedback ranking_L1 First)","study_1 (JV and feedback_list_1)",NA,"In","Feedback List 1","Feedback List 1",23,"Task","Screen 1","113qg5",1,"action","Text_left_X1",2644.05000000595,2632.44899999999,2644.05000000595,2644.05000000595,2632.44899999999,2644.05000000595,1,2644.05000000595,0,0,NA,"Mousetracking","screen",0,"screen",NA,1,"I didn't notice any mistakes.","You seem very clever.","Task",NA,"SUPTM18638"
"117",1690988593289,"02/08/2023 15:03:13",1690992193289,1,"02/08/2023 17:03:13",139282,42,"task-i89w",NA,31010300,9197908,NA,"complete",NA,NA,"computer","Desktop or Laptop","Windows 10","Edge 115.0.1901.188","1536x864","832x700",NA,NA,NA,"Feedback Phrases Task - List 1 (study_2)",2,"In","GHFIEJDACB","B (Feedback ranking_L1 First)","study_1 (JV and feedback_list_1)",NA,"In","Feedback List 1","Feedback List 1",23,"Task","Screen 1","113qg5",1,"action","Text_right_X2",2644.45000001192,2632.44899999999,2644.45000001192,2644.45000001192,2632.44899999999,2644.45000001192,1,2644.45000001192,0,0,NA,"Mousetracking","screen",0,"screen",NA,1,"I didn't notice any mistakes.","You seem very clever.","Task",NA,"SUPTM18638"
"118",1690988595053,"02/08/2023 15:03:15",1690992195053,1,"02/08/2023 17:03:15",139282,42,"task-i89w",NA,31010300,9197908,NA,"complete",NA,NA,"computer","Desktop or Laptop","Windows 10","Edge 115.0.1901.188","1536x864","832x700",NA,NA,NA,"Feedback Phrases Task - List 1 (study_2)",2,"In","GHFIEJDACB","B (Feedback ranking_L1 First)","study_1 (JV and feedback_list_1)",NA,"In","Feedback List 1","Feedback List 1",23,"Task","Screen 3","izqege",2,"continue","",1766.391,1766.391,1766.391,1766.391,1766.391,1766.391,1,1766.391,0,0,NA,"Fixation Timing","Fixation Cross",1,"object-48",NA,1,"I didn't notice any mistakes.","You seem very clever.","Task",NA,"SUPTM18638"
"119",1690988598830,"02/08/2023 15:03:18",1690992198830,1,"02/08/2023 17:03:18",139282,42,"task-i89w",NA,31010300,9197908,NA,"complete",NA,NA,"computer","Desktop or Laptop","Windows 10","Edge 115.0.1901.188","1536x864","832x700",NA,NA,NA,"Feedback Phrases Task - List 1 (study_2)",2,"In","GHFIEJDACB","B (Feedback ranking_L1 First)","study_1 (JV and feedback_list_1)",NA,"In","Feedback List 1","Feedback List 1",24,"Task","Screen 1","113qg5",1,"response","Good work!",3786.01000001788,3782.715,3786.01000001788,3786.01000001788,3782.715,3786.01000001788,1,3786.01000001788,0,0,NA,"Click Response","Text_left_X1",2,"object-18",NA,1,"Good work!","You seem very clever.","Task",NA,"SUPTM18638"
"120",1690988598831,"02/08/2023 15:03:18",1690992198831,1,"02/08/2023 17:03:18",139282,42,"task-i89w",NA,31010300,9197908,NA,"complete",NA,NA,"computer","Desktop or Laptop","Windows 10","Edge 115.0.1901.188","1536x864","832x700",NA,NA,NA,"Feedback Phrases Task - List 1 (study_2)",2,"In","GHFIEJDACB","B (Feedback ranking_L1 First)","study_1 (JV and feedback_list_1)",NA,"In","Feedback List 1","Feedback List 1",24,"Task","Screen 1","113qg5",1,"action","Text",3786.71000000596,3782.715,3786.71000000596,3786.71000000596,3782.715,3786.71000000596,1,3786.71000000596,0,0,NA,"Mousetracking","screen",0,"screen",NA,1,"Good work!","You seem very clever.","Task",NA,"SUPTM18638"
"121",1690988598831,"02/08/2023 15:03:18",1690992198831,1,"02/08/2023 17:03:18",139282,42,"task-i89w",NA,31010300,9197908,NA,"complete",NA,NA,"computer","Desktop or Laptop","Windows 10","Edge 115.0.1901.188","1536x864","832x700",NA,NA,NA,"Feedback Phrases Task - List 1 (study_2)",2,"In","GHFIEJDACB","B (Feedback ranking_L1 First)","study_1 (JV and feedback_list_1)",NA,"In","Feedback List 1","Feedback List 1",24,"Task","Screen 1","113qg5",1,"action","Text_left_X1",3787.31,3782.715,3787.31,3787.31,3782.715,3787.31,1,3787.31,149.654999999999,0.0395628536646295,NA,"Mousetracking","screen",0,"screen",NA,1,"Good work!","You seem very clever.","Task",NA,"SUPTM18638"
"122",1690988598832,"02/08/2023 15:03:18",1690992198832,1,"02/08/2023 17:03:18",139282,42,"task-i89w",NA,31010300,9197908,NA,"complete",NA,NA,"computer","Desktop or Laptop","Windows 10","Edge 115.0.1901.188","1536x864","832x700",NA,NA,NA,"Feedback Phrases Task - List 1 (study_2)",2,"In","GHFIEJDACB","B (Feedback ranking_L1 First)","study_1 (JV and feedback_list_1)",NA,"In","Feedback List 1","Feedback List 1",24,"Task","Screen 1","113qg5",1,"action","Text_right_X2",3787.90999999404,3782.715,3787.90999999404,3787.90999999404,3782.715,3787.90999999404,1,3787.90999999404,137996.731,36.4808691640793,NA,"Mousetracking","screen",0,"screen",NA,1,"Good work!","You seem very clever.","Task",NA,"SUPTM18638"
"123",1690988600595,"02/08/2023 15:03:20",1690992200595,1,"02/08/2023 17:03:20",139282,42,"task-i89w",NA,31010300,9197908,NA,"complete",NA,NA,"computer","Desktop or Laptop","Windows 10","Edge 115.0.1901.188","1536x864","832x700",NA,NA,NA,"Feedback Phrases Task - List 1 (study_2)",2,"In","GHFIEJDACB","B (Feedback ranking_L1 First)","study_1 (JV and feedback_list_1)",NA,"In","Feedback List 1","Feedback List 1",24,"Task","Screen 3","izqege",2,"continue","",1766.647,1766.647,1766.647,1766.647,1766.647,1766.647,1,1766.647,0,0,NA,"Fixation Timing","Fixation Cross",1,"object-48",NA,1,"Good work!","You seem very clever.","Task",NA,"SUPTM18638"
"124",1690988602235,"02/08/2023 15:03:22",1690992202235,1,"02/08/2023 17:03:22",139282,42,"task-i89w",NA,31010300,9197908,NA,"complete",NA,NA,"computer","Desktop or Laptop","Windows 10","Edge 115.0.1901.188","1536x864","832x700",NA,NA,NA,"Feedback Phrases Task - List 1 (study_2)",2,"In","GHFIEJDACB","B (Feedback ranking_L1 First)","study_1 (JV and feedback_list_1)",NA,"In","Feedback List 1","Feedback List 1",25,"Task","Screen 1","113qg5",1,"response","Good work!",1641.34800000596,1633.66200000001,1641.34800000596,1641.34800000596,1633.66200000001,1641.34800000596,1,1641.34800000596,0,0,NA,"Click Response","Text_left_X1",2,"object-18",NA,1,"Good work!","I didn't notice any mistakes.","Task",NA,"SUPTM18638"
"125",1690988602235,"02/08/2023 15:03:22",1690992202235,1,"02/08/2023 17:03:22",139282,42,"task-i89w",NA,31010300,9197908,NA,"complete",NA,NA,"computer","Desktop or Laptop","Windows 10","Edge 115.0.1901.188","1536x864","832x700",NA,NA,NA,"Feedback Phrases Task - List 1 (study_2)",2,"In","GHFIEJDACB","B (Feedback ranking_L1 First)","study_1 (JV and feedback_list_1)",NA,"In","Feedback List 1","Feedback List 1",25,"Task","Screen 1","113qg5",1,"action","Text",1641.64800001789,1633.66200000001,1641.64800001789,1641.64800001789,1633.66200000001,1641.64800001789,1,1641.64800001789,0,0,NA,"Mousetracking","screen",0,"screen",NA,1,"Good work!","I didn't notice any mistakes.","Task",NA,"SUPTM18638"
"126",1690988602235,"02/08/2023 15:03:22",1690992202235,1,"02/08/2023 17:03:22",139282,42,"task-i89w",NA,31010300,9197908,NA,"complete",NA,NA,"computer","Desktop or Laptop","Windows 10","Edge 115.0.1901.188","1536x864","832x700",NA,NA,NA,"Feedback Phrases Task - List 1 (study_2)",2,"In","GHFIEJDACB","B (Feedback ranking_L1 First)","study_1 (JV and feedback_list_1)",NA,"In","Feedback List 1","Feedback List 1",25,"Task","Screen 1","113qg5",1,"action","Text_left_X1",1641.84800000596,1633.66200000001,1641.84800000596,1641.84800000596,1633.66200000001,1641.84800000596,1,1641.84800000596,200.717999999993,0.122863848213395,NA,"Mousetracking","screen",0,"screen",NA,1,"Good work!","I didn't notice any mistakes.","Task",NA,"SUPTM18638"
"127",1690988602235,"02/08/2023 15:03:22",1690992202235,1,"02/08/2023 17:03:22",139282,42,"task-i89w",NA,31010300,9197908,NA,"complete",NA,NA,"computer","Desktop or Laptop","Windows 10","Edge 115.0.1901.188","1536x864","832x700",NA,NA,NA,"Feedback Phrases Task - List 1 (study_2)",2,"In","GHFIEJDACB","B (Feedback ranking_L1 First)","study_1 (JV and feedback_list_1)",NA,"In","Feedback List 1","Feedback List 1",25,"Task","Screen 1","113qg5",1,"action","Text_right_X2",1642.04799999404,1633.66200000001,1642.04799999404,1642.04799999404,1633.66200000001,1642.04799999404,1,1642.04799999404,141312.953,86.5007284248511,NA,"Mousetracking","screen",0,"screen",NA,1,"Good work!","I didn't notice any mistakes.","Task",NA,"SUPTM18638"
"128",1690988603994,"02/08/2023 15:03:23",1690992203994,1,"02/08/2023 17:03:23",139282,42,"task-i89w",NA,31010300,9197908,NA,"complete",NA,NA,"computer","Desktop or Laptop","Windows 10","Edge 115.0.1901.188","1536x864","832x700",NA,NA,NA,"Feedback Phrases Task - List 1 (study_2)",2,"In","GHFIEJDACB","B (Feedback ranking_L1 First)","study_1 (JV and feedback_list_1)",NA,"In","Feedback List 1","Feedback List 1",25,"Task","Screen 3","izqege",2,"continue","",1765.739,1765.739,1765.739,1765.739,1765.739,1765.739,1,1765.739,0,0,NA,"Fixation Timing","Fixation Cross",1,"object-48",NA,1,"Good work!","I didn't notice any mistakes.","Task",NA,"SUPTM18638"
"129",1690988606544,"02/08/2023 15:03:26",1690992206544,1,"02/08/2023 17:03:26",139282,42,"task-i89w",NA,31010300,9197908,NA,"complete",NA,NA,"computer","Desktop or Laptop","Windows 10","Edge 115.0.1901.188","1536x864","832x700",NA,NA,NA,"Feedback Phrases Task - List 1 (study_2)",2,"In","GHFIEJDACB","B (Feedback ranking_L1 First)","study_1 (JV and feedback_list_1)",NA,"In","Feedback List 1","Feedback List 1",26,"Task","Screen 1","113qg5",1,"response","You seem very clever.",2551.84700001191,2549.61499999999,2551.84700001191,2551.84700001191,2549.61499999999,2551.84700001191,1,2551.84700001191,0,0,NA,"Click Response","Text_right_X2",3,"object-19",NA,1,"You completed the task.","You seem very clever.","Task",NA,"SUPTM18638"
"130",1690988606545,"02/08/2023 15:03:26",1690992206545,1,"02/08/2023 17:03:26",139282,42,"task-i89w",NA,31010300,9197908,NA,"complete",NA,NA,"computer","Desktop or Laptop","Windows 10","Edge 115.0.1901.188","1536x864","832x700",NA,NA,NA,"Feedback Phrases Task - List 1 (study_2)",2,"In","GHFIEJDACB","B (Feedback ranking_L1 First)","study_1 (JV and feedback_list_1)",NA,"In","Feedback List 1","Feedback List 1",26,"Task","Screen 1","113qg5",1,"action","Text",2552.34700001191,2549.61499999999,2552.34700001191,2552.34700001191,2549.61499999999,2552.34700001191,1,2552.34700001191,0,0,NA,"Mousetracking","screen",0,"screen",NA,1,"You completed the task.","You seem very clever.","Task",NA,"SUPTM18638"
"131",1690988606545,"02/08/2023 15:03:26",1690992206545,1,"02/08/2023 17:03:26",139282,42,"task-i89w",NA,31010300,9197908,NA,"complete",NA,NA,"computer","Desktop or Laptop","Windows 10","Edge 115.0.1901.188","1536x864","832x700",NA,NA,NA,"Feedback Phrases Task - List 1 (study_2)",2,"In","GHFIEJDACB","B (Feedback ranking_L1 First)","study_1 (JV and feedback_list_1)",NA,"In","Feedback List 1","Feedback List 1",26,"Task","Screen 1","113qg5",1,"action","Text_left_X1",2552.74700001787,2549.61499999999,2552.74700001787,2552.74700001787,2549.61499999999,2552.74700001787,1,2552.74700001787,144112.563,56.5232644928746,NA,"Mousetracking","screen",0,"screen",NA,1,"You completed the task.","You seem very clever.","Task",NA,"SUPTM18638"
"132",1690988606546,"02/08/2023 15:03:26",1690992206546,1,"02/08/2023 17:03:26",139282,42,"task-i89w",NA,31010300,9197908,NA,"complete",NA,NA,"computer","Desktop or Laptop","Windows 10","Edge 115.0.1901.188","1536x864","832x700",NA,NA,NA,"Feedback Phrases Task - List 1 (study_2)",2,"In","GHFIEJDACB","B (Feedback ranking_L1 First)","study_1 (JV and feedback_list_1)",NA,"In","Feedback List 1","Feedback List 1",26,"Task","Screen 1","113qg5",1,"action","Text_right_X2",2553.14699999403,2549.61499999999,2553.14699999403,2553.14699999403,2549.61499999999,2553.14699999403,1,2553.14699999403,449.073000000004,0.176133651551315,NA,"Mousetracking","screen",0,"screen",NA,1,"You completed the task.","You seem very clever.","Task",NA,"SUPTM18638"
"133",1690988608310,"02/08/2023 15:03:28",1690992208310,1,"02/08/2023 17:03:28",139282,42,"task-i89w",NA,31010300,9197908,NA,"complete",NA,NA,"computer","Desktop or Laptop","Windows 10","Edge 115.0.1901.188","1536x864","832x700",NA,NA,NA,"Feedback Phrases Task - List 1 (study_2)",2,"In","GHFIEJDACB","B (Feedback ranking_L1 First)","study_1 (JV and feedback_list_1)",NA,"In","Feedback List 1","Feedback List 1",26,"Task","Screen 3","izqege",2,"continue","",1766.53599999999,1766.53599999999,1766.53599999999,1766.53599999999,1766.53599999999,1766.53599999999,1,1766.53599999999,0,0,NA,"Fixation Timing","Fixation Cross",1,"object-48",NA,1,"You completed the task.","You seem very clever.","Task",NA,"SUPTM18638"
"134",1690988610012,"02/08/2023 15:03:30",1690992210012,1,"02/08/2023 17:03:30",139282,42,"task-i89w",NA,31010300,9197908,NA,"complete",NA,NA,"computer","Desktop or Laptop","Windows 10","Edge 115.0.1901.188","1536x864","832x700",NA,NA,NA,"Feedback Phrases Task - List 1 (study_2)",2,"In","GHFIEJDACB","B (Feedback ranking_L1 First)","study_1 (JV and feedback_list_1)",NA,"In","Feedback List 1","Feedback List 1",27,"Task","Screen 1","113qg5",1,"response","You came across as very calm and collected.",1703.29600000597,1699.83000000002,1703.29600000597,1703.29600000597,1699.83000000002,1703.29600000597,1,1703.29600000597,0,0,NA,"Click Response","Text_right_X2",3,"object-19",NA,1,"You spoke very well.","You came across as very calm and collected.","Task",NA,"SUPTM18638"
"135",1690988610013,"02/08/2023 15:03:30",1690992210013,1,"02/08/2023 17:03:30",139282,42,"task-i89w",NA,31010300,9197908,NA,"complete",NA,NA,"computer","Desktop or Laptop","Windows 10","Edge 115.0.1901.188","1536x864","832x700",NA,NA,NA,"Feedback Phrases Task - List 1 (study_2)",2,"In","GHFIEJDACB","B (Feedback ranking_L1 First)","study_1 (JV and feedback_list_1)",NA,"In","Feedback List 1","Feedback List 1",27,"Task","Screen 1","113qg5",1,"action","Text",1704.29600000597,1699.83000000002,1704.29600000597,1704.29600000597,1699.83000000002,1704.29600000597,1,1704.29600000597,0,0,NA,"Mousetracking","screen",0,"screen",NA,1,"You spoke very well.","You came across as very calm and collected.","Task",NA,"SUPTM18638"
"136",1690988610014,"02/08/2023 15:03:30",1690992210014,1,"02/08/2023 17:03:30",139282,42,"task-i89w",NA,31010300,9197908,NA,"complete",NA,NA,"computer","Desktop or Laptop","Windows 10","Edge 115.0.1901.188","1536x864","832x700",NA,NA,NA,"Feedback Phrases Task - List 1 (study_2)",2,"In","GHFIEJDACB","B (Feedback ranking_L1 First)","study_1 (JV and feedback_list_1)",NA,"In","Feedback List 1","Feedback List 1",27,"Task","Screen 1","113qg5",1,"action","Text_left_X1",1704.99599999405,1699.83000000002,1704.99599999405,1704.99599999405,1699.83000000002,1704.99599999405,1,1704.99599999405,0,0,NA,"Mousetracking","screen",0,"screen",NA,1,"You spoke very well.","You came across as very calm and collected.","Task",NA,"SUPTM18638"
"137",1690988610014,"02/08/2023 15:03:30",1690992210014,1,"02/08/2023 17:03:30",139282,42,"task-i89w",NA,31010300,9197908,NA,"complete",NA,NA,"computer","Desktop or Laptop","Windows 10","Edge 115.0.1901.188","1536x864","832x700",NA,NA,NA,"Feedback Phrases Task - List 1 (study_2)",2,"In","GHFIEJDACB","B (Feedback ranking_L1 First)","study_1 (JV and feedback_list_1)",NA,"In","Feedback List 1","Feedback List 1",27,"Task","Screen 1","113qg5",1,"action","Text_right_X2",1705.59600001789,1699.83000000002,1705.59600001789,1705.59600001789,1699.83000000002,1705.59600001789,1,1705.59600001789,149328.732,87.8492155097854,NA,"Mousetracking","screen",0,"screen",NA,1,"You spoke very well.","You came across as very calm and collected.","Task",NA,"SUPTM18638"
"138",1690988611776,"02/08/2023 15:03:31",1690992211776,1,"02/08/2023 17:03:31",139282,42,"task-i89w",NA,31010300,9197908,NA,"complete",NA,NA,"computer","Desktop or Laptop","Windows 10","Edge 115.0.1901.188","1536x864","832x700",NA,NA,NA,"Feedback Phrases Task - List 1 (study_2)",2,"In","GHFIEJDACB","B (Feedback ranking_L1 First)","study_1 (JV and feedback_list_1)",NA,"In","Feedback List 1","Feedback List 1",27,"Task","Screen 3","izqege",2,"continue","",1766.22199999998,1766.22199999998,1766.22199999998,1766.22199999998,1766.22199999998,1766.22199999998,1,1766.22199999998,0,0,NA,"Fixation Timing","Fixation Cross",1,"object-48",NA,1,"You spoke very well.","You came across as very calm and collected.","Task",NA,"SUPTM18638"
"139",1690988614838,"02/08/2023 15:03:34",1690992214838,1,"02/08/2023 17:03:34",139282,42,"task-i89w",NA,31010300,9197908,NA,"complete",NA,NA,"computer","Desktop or Laptop","Windows 10","Edge 115.0.1901.188","1536x864","832x700",NA,NA,NA,"Feedback Phrases Task - List 1 (study_2)",2,"In","GHFIEJDACB","B (Feedback ranking_L1 First)","study_1 (JV and feedback_list_1)",NA,"In","Feedback List 1","Feedback List 1",28,"Task","Screen 1","113qg5",1,"response","You did a great job of capturing the details.",3062.74400000597,3050.30900000001,3062.74400000597,3062.74400000597,3050.30900000001,3062.74400000597,1,3062.74400000597,0,0,NA,"Click Response","Text_left_X1",2,"object-18",NA,1,"You did a great job of capturing the details.","Your description was very clear and concise.","Task",NA,"SUPTM18638"
