"Event.Index","UTC.Timestamp","UTC.Date.and.Time","Local.Timestamp","Local.Timezone","Local.Date.and.Time","Experiment.ID","Experiment.Version","Tree.Node.Key","Repeat.Key","Schedule.ID","Participant.Private.ID","Participant.Starting.Group","Participant.Status","Participant.Completion.Code","Participant.External.Session.ID","Participant.Device.Type","Participant.Device","Participant.OS","Participant.Browser","Participant.Monitor.Size","Participant.Viewport.Size","Checkpoint","Room.ID","Room.Order","Task.Name","Task.Version","branch.hkzp","order.ot79","randomiser.lqqr","randomiser.28m8","randomiser.tf5j","branch.vlgf","Spreadsheet","Current.Spreadsheet","Trial.Number","Display","Screen","Screen.ID","Screen.Counter","Response.Type","Response","Onset.Time","Clock.Time","Reaction.Time","Absolute.Onset.Time","Absolute.Clock.Time","Absolute.Reaction.Time","Correct","Response.Onset","Response.Duration","Proportion","Tag","Component.Name","Object.Name","Object.Number","Object.ID","Spreadsheet..display","Manipulation..Spreadsheet","Random_ID"
"1",1690987821420,"02/08/2023 14:50:21",1690991421420,1,"02/08/2023 16:50:21",139282,42,"questionnaire-uu2n",NA,31010121,9197908,NA,"complete",NA,NA,"computer","Desktop or Laptop","Windows 10","Edge 115.0.1901.188","1536x864","832x700",NA,NA,NA,"BIQ (Charlotte)",2,"In","GHFIEJDACB","B (Feedback ranking_L1 First)","study_1 (JV and feedback_list_1)","","In","Spreadsheet1","Spreadsheet1",NA,"","","",NA,"5","BEGIN",NA,NA,NA,NA,NA,NA,0,NA,NA,NA,NA,"","",NA,"","",NA,"SUPTM18638"
"2",1690987849741,"02/08/2023 14:50:49",1690991449741,1,"02/08/2023 16:50:49",139282,42,"questionnaire-uu2n",NA,31010121,9197908,NA,"complete",NA,NA,"computer","Desktop or Laptop","Windows 10","Edge 115.0.1901.188","1536x864","832x700",NA,NA,NA,"BIQ (Charlotte)",2,"In","GHFIEJDACB","B (Feedback ranking_L1 First)","study_1 (JV and feedback_list_1)","","In","Spreadsheet1","Spreadsheet1",1,"BIQ","Screen 1","9dh6eq",1,"continue","",28342.8349999821,28329.539,28342.8349999821,28342.8349999821,28329.539,28342.8349999821,1,28342.8349999821,0,0,NA,"Click To Continue","Continue Button",23,"object-48","BIQ",NA,"SUPTM18638"
"3",1690987849749,"02/08/2023 14:50:49",1690991449749,1,"02/08/2023 16:50:49",139282,42,"questionnaire-uu2n",NA,31010121,9197908,NA,"complete",NA,NA,"computer","Desktop or Laptop","Windows 10","Edge 115.0.1901.188","1536x864","832x700",NA,NA,NA,"BIQ (Charlotte)",2,"In","GHFIEJDACB","B (Feedback ranking_L1 First)","study_1 (JV and feedback_list_1)","","In","Spreadsheet1","Spreadsheet1",1,"BIQ","Screen 1","9dh6eq",1,"response","7",22664.153,28329.539,28345.755,22664.153,28329.539,28345.755,1,22664.153,5681.602,0,NA,"Rating Scale","Rating Scale",3,"object-5","BIQ",NA,"SUPTM18638"
"4",1690987849750,"02/08/2023 14:50:49",1690991449750,1,"02/08/2023 16:50:49",139282,42,"questionnaire-uu2n",NA,31010121,9197908,NA,"complete",NA,NA,"computer","Desktop or Laptop","Windows 10","Edge 115.0.1901.188","1536x864","832x700",NA,NA,NA,"BIQ (Charlotte)",2,"In","GHFIEJDACB","B (Feedback ranking_L1 First)","study_1 (JV and feedback_list_1)","","In","Spreadsheet1","Spreadsheet1",1,"BIQ","Screen 1","9dh6eq",1,"response","8",25480.017,28329.539,28345.755,25480.017,28329.539,28345.755,1,25480.017,2865.738,0,NA,"Rating Scale","Rating Scale",10,"object-18","BIQ",NA,"SUPTM18638"
"5",1690987849751,"02/08/2023 14:50:49",1690991449751,1,"02/08/2023 16:50:49",139282,42,"questionnaire-uu2n",NA,31010121,9197908,NA,"complete",NA,NA,"computer","Desktop or Laptop","Windows 10","Edge 115.0.1901.188","1536x864","832x700",NA,NA,NA,"BIQ (Charlotte)",2,"In","GHFIEJDACB","B (Feedback ranking_L1 First)","study_1 (JV and feedback_list_1)","","In","Spreadsheet1","Spreadsheet1",1,"BIQ","Screen 1","9dh6eq",1,"response","2",27696.343,28329.539,28345.755,27696.343,28329.539,28345.755,1,27696.343,649.412,0,NA,"Rating Scale","Rating Scale",17,"object-80","BIQ",NA,"SUPTM18638"
"6",1690987863231,"02/08/2023 14:51:03",1690991463231,1,"02/08/2023 16:51:03",139282,42,"questionnaire-uu2n",NA,31010121,9197908,NA,"complete",NA,NA,"computer","Desktop or Laptop","Windows 10","Edge 115.0.1901.188","1536x864","832x700",NA,NA,NA,"BIQ (Charlotte)",2,"In","GHFIEJDACB","B (Feedback ranking_L1 First)","study_1 (JV and feedback_list_1)","","In","Spreadsheet1","Spreadsheet1",1,"BIQ","Screen 2","o21mwi",2,"continue","",13505.496,13498.756,13505.496,13505.496,13498.756,13505.496,1,13505.496,0,0,NA,"Click To Continue","Continue Button",22,"object-50","BIQ",NA,"SUPTM18638"
"7",1690987863237,"02/08/2023 14:51:03",1690991463237,1,"02/08/2023 16:51:03",139282,42,"questionnaire-uu2n",NA,31010121,9197908,NA,"complete",NA,NA,"computer","Desktop or Laptop","Windows 10","Edge 115.0.1901.188","1536x864","832x700",NA,NA,NA,"BIQ (Charlotte)",2,"In","GHFIEJDACB","B (Feedback ranking_L1 First)","study_1 (JV and feedback_list_1)","","In","Spreadsheet1","Spreadsheet1",1,"BIQ","Screen 2","o21mwi",2,"response","1",4599.475,13498.756,13511.1959999881,4599.475,13498.756,13511.1959999881,1,4599.475,8911.72099998808,0,NA,"Rating Scale","Rating Scale",2,"object-259","BIQ",NA,"SUPTM18638"
"8",1690987863238,"02/08/2023 14:51:03",1690991463238,1,"02/08/2023 16:51:03",139282,42,"questionnaire-uu2n",NA,31010121,9197908,NA,"complete",NA,NA,"computer","Desktop or Laptop","Windows 10","Edge 115.0.1901.188","1536x864","832x700",NA,NA,NA,"BIQ (Charlotte)",2,"In","GHFIEJDACB","B (Feedback ranking_L1 First)","study_1 (JV and feedback_list_1)","","In","Spreadsheet1","Spreadsheet1",1,"BIQ","Screen 2","o21mwi",2,"response","2",7282.201,13498.756,13512.496,7282.201,13498.756,13512.496,1,7282.201,6230.295,0,NA,"Rating Scale","Rating Scale",9,"object-36","BIQ",NA,"SUPTM18638"
"9",1690987863240,"02/08/2023 14:51:03",1690991463240,1,"02/08/2023 16:51:03",139282,42,"questionnaire-uu2n",NA,31010121,9197908,NA,"complete",NA,NA,"computer","Desktop or Laptop","Windows 10","Edge 115.0.1901.188","1536x864","832x700",NA,NA,NA,"BIQ (Charlotte)",2,"In","GHFIEJDACB","B (Feedback ranking_L1 First)","study_1 (JV and feedback_list_1)","","In","Spreadsheet1","Spreadsheet1",1,"BIQ","Screen 2","o21mwi",2,"response","0",12714.724,13498.756,13514.396000006,12714.724,13498.756,13514.396000006,1,12714.724,799.672000005958,0,NA,"Rating Scale","Rating Scale",16,"object-86","BIQ",NA,"SUPTM18638"
"10",1690987884057,"02/08/2023 14:51:24",1690991484057,1,"02/08/2023 16:51:24",139282,42,"questionnaire-uu2n",NA,31010121,9197908,NA,"complete",NA,NA,"computer","Desktop or Laptop","Windows 10","Edge 115.0.1901.188","1536x864","832x700",NA,NA,NA,"BIQ (Charlotte)",2,"In","GHFIEJDACB","B (Feedback ranking_L1 First)","study_1 (JV and feedback_list_1)","","In","Spreadsheet1","Spreadsheet1",1,"BIQ","Screen 3","iz3the",3,"continue","",20832.640000006,20829.602,20832.640000006,20832.640000006,20829.602,20832.640000006,1,20832.640000006,0,0,NA,"Click To Continue","Continue Button",22,"object-73","BIQ",NA,"SUPTM18638"
"11",1690987884063,"02/08/2023 14:51:24",1690991484063,1,"02/08/2023 16:51:24",139282,42,"questionnaire-uu2n",NA,31010121,9197908,NA,"complete",NA,NA,"computer","Desktop or Laptop","Windows 10","Edge 115.0.1901.188","1536x864","832x700",NA,NA,NA,"BIQ (Charlotte)",2,"In","GHFIEJDACB","B (Feedback ranking_L1 First)","study_1 (JV and feedback_list_1)","","In","Spreadsheet1","Spreadsheet1",1,"BIQ","Screen 3","iz3the",3,"response","0",4432.145,20829.602,20838.640000006,4432.145,20829.602,20838.640000006,1,4432.145,16406.495000006,0,NA,"Rating Scale","Rating Scale",2,"object-53","BIQ",NA,"SUPTM18638"
"12",1690987884067,"02/08/2023 14:51:24",1690991484067,1,"02/08/2023 16:51:24",139282,42,"questionnaire-uu2n",NA,31010121,9197908,NA,"complete",NA,NA,"computer","Desktop or Laptop","Windows 10","Edge 115.0.1901.188","1536x864","832x700",NA,NA,NA,"BIQ (Charlotte)",2,"In","GHFIEJDACB","B (Feedback ranking_L1 First)","study_1 (JV and feedback_list_1)","","In","Spreadsheet1","Spreadsheet1",1,"BIQ","Screen 3","iz3the",3,"response","2",7565.405,20829.602,20842.339999994,7565.405,20829.602,20842.339999994,1,7565.405,13276.934999994,0,NA,"Rating Scale","Rating Scale",9,"object-60","BIQ",NA,"SUPTM18638"
"13",1690987884068,"02/08/2023 14:51:24",1690991484068,1,"02/08/2023 16:51:24",139282,42,"questionnaire-uu2n",NA,31010121,9197908,NA,"complete",NA,NA,"computer","Desktop or Laptop","Windows 10","Edge 115.0.1901.188","1536x864","832x700",NA,NA,NA,"BIQ (Charlotte)",2,"In","GHFIEJDACB","B (Feedback ranking_L1 First)","study_1 (JV and feedback_list_1)","","In","Spreadsheet1","Spreadsheet1",1,"BIQ","Screen 3","iz3the",3,"response","3",19747.022,20829.602,20843.339999994,19747.022,20829.602,20843.339999994,1,19747.022,1096.31799999404,0,NA,"Rating Scale","Rating Scale",16,"object-67","BIQ",NA,"SUPTM18638"
"14",1690987884076,"02/08/2023 14:51:24",1690991484076,1,"02/08/2023 16:51:24",139282,42,"questionnaire-uu2n",NA,31010121,9197908,NA,"complete",NA,NA,"computer","Desktop or Laptop","Windows 10","Edge 115.0.1901.188","1536x864","832x700",NA,NA,NA,"BIQ (Charlotte)",2,"In","GHFIEJDACB","B (Feedback ranking_L1 First)","study_1 (JV and feedback_list_1)","","In","Spreadsheet1","Spreadsheet1",NA,"","","",NA,"5","END",NA,NA,NA,NA,NA,NA,0,NA,NA,NA,NA,"","",NA,"","",NA,"SUPTM18638"
"1",1691002937586,"02/08/2023 19:02:17",1691006537586,1,"02/08/2023 21:02:17",139282,42,"questionnaire-uu2n",NA,31015337,9199072,NA,"complete",NA,NA,"computer","Desktop or Laptop","Linux x86_64","Chrome 114.0.0.0","1920x1080","1920x905",NA,NA,NA,"BIQ (Charlotte)",2,"In","HIGJFAEBDC","","study_2 (video_feedback and feedback_list_2)","VF_1st","In","Spreadsheet1","Spreadsheet1",NA,"","","",NA,"5","BEGIN",NA,NA,NA,NA,NA,NA,0,NA,NA,NA,NA,"","",NA,"","",NA,"SUPTM61449"
"2",1691003051510,"02/08/2023 19:04:11",1691006651510,1,"02/08/2023 21:04:11",139282,42,"questionnaire-uu2n",NA,31015337,9199072,NA,"complete",NA,NA,"computer","Desktop or Laptop","Linux x86_64","Chrome 114.0.0.0","1920x1080","1920x905",NA,NA,NA,"BIQ (Charlotte)",2,"In","HIGJFAEBDC","","study_2 (video_feedback and feedback_list_2)","VF_1st","In","Spreadsheet1","Spreadsheet1",1,"BIQ","Screen 1","9dh6eq",1,"continue","",113967.073,113950.407,113967.073,113967.073,113950.407,113967.073,1,113967.073,0,0,NA,"Click To Continue","Continue Button",23,"object-48","BIQ",NA,"SUPTM61449"
"3",1691003051521,"02/08/2023 19:04:11",1691006651521,1,"02/08/2023 21:04:11",139282,42,"questionnaire-uu2n",NA,31015337,9199072,NA,"complete",NA,NA,"computer","Desktop or Laptop","Linux x86_64","Chrome 114.0.0.0","1920x1080","1920x905",NA,NA,NA,"BIQ (Charlotte)",2,"In","HIGJFAEBDC","","study_2 (video_feedback and feedback_list_2)","VF_1st","In","Spreadsheet1","Spreadsheet1",1,"BIQ","Screen 1","9dh6eq",1,"response","5",106750.367,113950.407,113967.073,106750.367,113950.407,113967.073,1,106750.367,7216.70599999999,0,NA,"Rating Scale","Rating Scale",3,"object-5","BIQ",NA,"SUPTM61449"
"4",1691003051523,"02/08/2023 19:04:11",1691006651523,1,"02/08/2023 21:04:11",139282,42,"questionnaire-uu2n",NA,31015337,9199072,NA,"complete",NA,NA,"computer","Desktop or Laptop","Linux x86_64","Chrome 114.0.0.0","1920x1080","1920x905",NA,NA,NA,"BIQ (Charlotte)",2,"In","HIGJFAEBDC","","study_2 (video_feedback and feedback_list_2)","VF_1st","In","Spreadsheet1","Spreadsheet1",1,"BIQ","Screen 1","9dh6eq",1,"response","6",109583.717,113950.407,113967.073,109583.717,113950.407,113967.073,1,109583.717,4383.356,0,NA,"Rating Scale","Rating Scale",10,"object-18","BIQ",NA,"SUPTM61449"
"5",1691003051525,"02/08/2023 19:04:11",1691006651525,1,"02/08/2023 21:04:11",139282,42,"questionnaire-uu2n",NA,31015337,9199072,NA,"complete",NA,NA,"computer","Desktop or Laptop","Linux x86_64","Chrome 114.0.0.0","1920x1080","1920x905",NA,NA,NA,"BIQ (Charlotte)",2,"In","HIGJFAEBDC","","study_2 (video_feedback and feedback_list_2)","VF_1st","In","Spreadsheet1","Spreadsheet1",1,"BIQ","Screen 1","9dh6eq",1,"response","1",111733.729,113950.407,113967.073,111733.729,113950.407,113967.073,1,111733.729,2233.344,0,NA,"Rating Scale","Rating Scale",17,"object-80","BIQ",NA,"SUPTM61449"
"6",1691003055532,"02/08/2023 19:04:15",1691006655532,1,"02/08/2023 21:04:15",139282,42,"questionnaire-uu2n",NA,31015337,9199072,NA,"complete",NA,NA,"computer","Desktop or Laptop","Linux x86_64","Chrome 114.0.0.0","1920x1080","1920x905",NA,NA,NA,"BIQ (Charlotte)",2,"In","HIGJFAEBDC","","study_2 (video_feedback and feedback_list_2)","VF_1st","In","Spreadsheet1","Spreadsheet1",1,"BIQ","Screen 2","o21mwi",2,"continue","",4050.022,4033.356,4050.022,4050.022,4033.356,4050.022,1,4050.022,0,0,NA,"Click To Continue","Continue Button",22,"object-50","BIQ",NA,"SUPTM61449"
"7",1691003055534,"02/08/2023 19:04:15",1691006655534,1,"02/08/2023 21:04:15",139282,42,"questionnaire-uu2n",NA,31015337,9199072,NA,"complete",NA,NA,"computer","Desktop or Laptop","Linux x86_64","Chrome 114.0.0.0","1920x1080","1920x905",NA,NA,NA,"BIQ (Charlotte)",2,"In","HIGJFAEBDC","","study_2 (video_feedback and feedback_list_2)","VF_1st","In","Spreadsheet1","Spreadsheet1",1,"BIQ","Screen 2","o21mwi",2,"response","5",1400.001,4033.356,4050.022,1400.001,4033.356,4050.022,1,1400.001,2650.02099999999,0,NA,"Rating Scale","Rating Scale",2,"object-259","BIQ",NA,"SUPTM61449"
"8",1691003055536,"02/08/2023 19:04:15",1691006655536,1,"02/08/2023 21:04:15",139282,42,"questionnaire-uu2n",NA,31015337,9199072,NA,"complete",NA,NA,"computer","Desktop or Laptop","Linux x86_64","Chrome 114.0.0.0","1920x1080","1920x905",NA,NA,NA,"BIQ (Charlotte)",2,"In","HIGJFAEBDC","","study_2 (video_feedback and feedback_list_2)","VF_1st","In","Spreadsheet1","Spreadsheet1",1,"BIQ","Screen 2","o21mwi",2,"response","5",2533.348,4033.356,4050.022,2533.348,4033.356,4050.022,1,2533.348,1516.674,0,NA,"Rating Scale","Rating Scale",9,"object-36","BIQ",NA,"SUPTM61449"
"9",1691003055538,"02/08/2023 19:04:15",1691006655538,1,"02/08/2023 21:04:15",139282,42,"questionnaire-uu2n",NA,31015337,9199072,NA,"complete",NA,NA,"computer","Desktop or Laptop","Linux x86_64","Chrome 114.0.0.0","1920x1080","1920x905",NA,NA,NA,"BIQ (Charlotte)",2,"In","HIGJFAEBDC","","study_2 (video_feedback and feedback_list_2)","VF_1st","In","Spreadsheet1","Spreadsheet1",1,"BIQ","Screen 2","o21mwi",2,"response","2",3200.012,4033.356,4050.022,3200.012,4033.356,4050.022,1,3200.012,850.009999999995,0,NA,"Rating Scale","Rating Scale",16,"object-86","BIQ",NA,"SUPTM61449"
"10",1691003059661,"02/08/2023 19:04:19",1691006659661,1,"02/08/2023 21:04:19",139282,42,"questionnaire-uu2n",NA,31015337,9199072,NA,"complete",NA,NA,"computer","Desktop or Laptop","Linux x86_64","Chrome 114.0.0.0","1920x1080","1920x905",NA,NA,NA,"BIQ (Charlotte)",2,"In","HIGJFAEBDC","","study_2 (video_feedback and feedback_list_2)","VF_1st","In","Spreadsheet1","Spreadsheet1",1,"BIQ","Screen 3","iz3the",3,"continue","",4145.80399999981,4133.321,4145.80399999981,4145.80399999981,4133.321,4145.80399999981,1,4145.80399999981,0,0,NA,"Click To Continue","Continue Button",22,"object-73","BIQ",NA,"SUPTM61449"
"11",1691003059663,"02/08/2023 19:04:19",1691006659663,1,"02/08/2023 21:04:19",139282,42,"questionnaire-uu2n",NA,31015337,9199072,NA,"complete",NA,NA,"computer","Desktop or Laptop","Linux x86_64","Chrome 114.0.0.0","1920x1080","1920x905",NA,NA,NA,"BIQ (Charlotte)",2,"In","HIGJFAEBDC","","study_2 (video_feedback and feedback_list_2)","VF_1st","In","Spreadsheet1","Spreadsheet1",1,"BIQ","Screen 3","iz3the",3,"response","4",1866.659,4133.321,4148.504,1866.659,4133.321,4148.504,1,1866.659,2281.845,0,NA,"Rating Scale","Rating Scale",2,"object-53","BIQ",NA,"SUPTM61449"
"12",1691003059668,"02/08/2023 19:04:19",1691006659668,1,"02/08/2023 21:04:19",139282,42,"questionnaire-uu2n",NA,31015337,9199072,NA,"complete",NA,NA,"computer","Desktop or Laptop","Linux x86_64","Chrome 114.0.0.0","1920x1080","1920x905",NA,NA,NA,"BIQ (Charlotte)",2,"In","HIGJFAEBDC","","study_2 (video_feedback and feedback_list_2)","VF_1st","In","Spreadsheet1","Spreadsheet1",1,"BIQ","Screen 3","iz3the",3,"response","5",2183.33500000001,4133.321,4149.98699999999,2183.33500000001,4133.321,4149.98699999999,1,2183.33500000001,1966.65199999999,0,NA,"Rating Scale","Rating Scale",9,"object-60","BIQ",NA,"SUPTM61449"
"13",1691003059670,"02/08/2023 19:04:19",1691006659670,1,"02/08/2023 21:04:19",139282,42,"questionnaire-uu2n",NA,31015337,9199072,NA,"complete",NA,NA,"computer","Desktop or Laptop","Linux x86_64","Chrome 114.0.0.0","1920x1080","1920x905",NA,NA,NA,"BIQ (Charlotte)",2,"In","HIGJFAEBDC","","study_2 (video_feedback and feedback_list_2)","VF_1st","In","Spreadsheet1","Spreadsheet1",1,"BIQ","Screen 3","iz3the",3,"response","2",2633.333,4133.321,4149.98699999999,2633.333,4133.321,4149.98699999999,1,2633.333,1516.65399999999,0,NA,"Rating Scale","Rating Scale",16,"object-67","BIQ",NA,"SUPTM61449"
"14",1691003059677,"02/08/2023 19:04:19",1691006659677,1,"02/08/2023 21:04:19",139282,42,"questionnaire-uu2n",NA,31015337,9199072,NA,"complete",NA,NA,"computer","Desktop or Laptop","Linux x86_64","Chrome 114.0.0.0","1920x1080","1920x905",NA,NA,NA,"BIQ (Charlotte)",2,"In","HIGJFAEBDC","","study_2 (video_feedback and feedback_list_2)","VF_1st","In","Spreadsheet1","Spreadsheet1",NA,"","","",NA,"5","END",NA,NA,NA,NA,NA,NA,0,NA,NA,NA,NA,"","",NA,"","",NA,"SUPTM61449"
"1",1691242529553,"05/08/2023 13:35:29",1691246129553,1,"05/08/2023 15:35:29",139282,42,"questionnaire-uu2n",NA,31067934,9210487,NA,"complete",NA,NA,"computer","Desktop or Laptop","Windows 10","Chrome 115.0.0.0","3440x1440","2103x1040",NA,NA,NA,"BIQ (Charlotte)",2,"In","CDBEAFJGIH","B (Feedback ranking_L1 First)","study_1 (JV and feedback_list_1)","","In","Spreadsheet1","Spreadsheet1",NA,"","","",NA,"5","BEGIN",NA,NA,NA,NA,NA,NA,0,NA,NA,NA,NA,"","",NA,"","",NA,"SUPTM65569"
"2",1691242587162,"05/08/2023 13:36:27",1691246187162,1,"05/08/2023 15:36:27",139282,42,"questionnaire-uu2n",NA,31067934,9210487,NA,"complete",NA,NA,"computer","Desktop or Laptop","Windows 10","Chrome 115.0.0.0","3440x1440","2103x1040",NA,NA,NA,"BIQ (Charlotte)",2,"In","CDBEAFJGIH","B (Feedback ranking_L1 First)","study_1 (JV and feedback_list_1)","","In","Spreadsheet1","Spreadsheet1",1,"BIQ","Screen 1","9dh6eq",1,"continue","",57615.811,57609.734,57615.811,57615.811,57609.734,57615.811,1,57615.811,0,0,NA,"Click To Continue","Continue Button",23,"object-48","BIQ",NA,"SUPTM65569"
"3",1691242587164,"05/08/2023 13:36:27",1691246187164,1,"05/08/2023 15:36:27",139282,42,"questionnaire-uu2n",NA,31067934,9210487,NA,"complete",NA,NA,"computer","Desktop or Laptop","Windows 10","Chrome 115.0.0.0","3440x1440","2103x1040",NA,NA,NA,"BIQ (Charlotte)",2,"In","CDBEAFJGIH","B (Feedback ranking_L1 First)","study_1 (JV and feedback_list_1)","","In","Spreadsheet1","Spreadsheet1",1,"BIQ","Screen 1","9dh6eq",1,"response","4",28134.714,57609.734,57615.811,28134.714,57609.734,57615.811,1,28134.714,29481.097,0,NA,"Rating Scale","Rating Scale",3,"object-5","BIQ",NA,"SUPTM65569"
"4",1691242587164,"05/08/2023 13:36:27",1691246187164,1,"05/08/2023 15:36:27",139282,42,"questionnaire-uu2n",NA,31067934,9210487,NA,"complete",NA,NA,"computer","Desktop or Laptop","Windows 10","Chrome 115.0.0.0","3440x1440","2103x1040",NA,NA,NA,"BIQ (Charlotte)",2,"In","CDBEAFJGIH","B (Feedback ranking_L1 First)","study_1 (JV and feedback_list_1)","","In","Spreadsheet1","Spreadsheet1",1,"BIQ","Screen 1","9dh6eq",1,"response","8",43466.563,57609.734,57615.811,43466.563,57609.734,57615.811,1,43466.563,14149.248,0,NA,"Rating Scale","Rating Scale",10,"object-18","BIQ",NA,"SUPTM65569"
"5",1691242587164,"05/08/2023 13:36:27",1691246187164,1,"05/08/2023 15:36:27",139282,42,"questionnaire-uu2n",NA,31067934,9210487,NA,"complete",NA,NA,"computer","Desktop or Laptop","Windows 10","Chrome 115.0.0.0","3440x1440","2103x1040",NA,NA,NA,"BIQ (Charlotte)",2,"In","CDBEAFJGIH","B (Feedback ranking_L1 First)","study_1 (JV and feedback_list_1)","","In","Spreadsheet1","Spreadsheet1",1,"BIQ","Screen 1","9dh6eq",1,"response","1",56839.491,57609.734,57615.811,56839.491,57609.734,57615.811,1,56839.491,776.32,0,NA,"Rating Scale","Rating Scale",17,"object-80","BIQ",NA,"SUPTM65569"
"6",1691242698984,"05/08/2023 13:38:18",1691246298984,1,"05/08/2023 15:38:18",139282,42,"questionnaire-uu2n",NA,31067934,9210487,NA,"complete",NA,NA,"computer","Desktop or Laptop","Windows 10","Chrome 115.0.0.0","3440x1440","2103x1040",NA,NA,NA,"BIQ (Charlotte)",2,"In","CDBEAFJGIH","B (Feedback ranking_L1 First)","study_1 (JV and feedback_list_1)","","In","Spreadsheet1","Spreadsheet1",1,"BIQ","Screen 2","o21mwi",2,"continue","",111831.322999997,111829.221,111831.322999997,111831.322999997,111829.221,111831.322999997,1,111831.322999997,0,0,NA,"Click To Continue","Continue Button",22,"object-50","BIQ",NA,"SUPTM65569"
"7",1691242698985,"05/08/2023 13:38:18",1691246298985,1,"05/08/2023 15:38:18",139282,42,"questionnaire-uu2n",NA,31067934,9210487,NA,"complete",NA,NA,"computer","Desktop or Laptop","Windows 10","Chrome 115.0.0.0","3440x1440","2103x1040",NA,NA,NA,"BIQ (Charlotte)",2,"In","CDBEAFJGIH","B (Feedback ranking_L1 First)","study_1 (JV and feedback_list_1)","","In","Spreadsheet1","Spreadsheet1",1,"BIQ","Screen 2","o21mwi",2,"response","8",102537.925,111829.221,111832.723000003,102537.925,111829.221,111832.723000003,1,102537.925,9294.79800000298,0,NA,"Rating Scale","Rating Scale",2,"object-259","BIQ",NA,"SUPTM65569"
"8",1691242698985,"05/08/2023 13:38:18",1691246298985,1,"05/08/2023 15:38:18",139282,42,"questionnaire-uu2n",NA,31067934,9210487,NA,"complete",NA,NA,"computer","Desktop or Laptop","Windows 10","Chrome 115.0.0.0","3440x1440","2103x1040",NA,NA,NA,"BIQ (Charlotte)",2,"In","CDBEAFJGIH","B (Feedback ranking_L1 First)","study_1 (JV and feedback_list_1)","","In","Spreadsheet1","Spreadsheet1",1,"BIQ","Screen 2","o21mwi",2,"response","0",107638.432,111829.221,111833.023,107638.432,111829.221,111833.023,1,107638.432,4194.59099999999,0,NA,"Rating Scale","Rating Scale",9,"object-36","BIQ",NA,"SUPTM65569"
"9",1691242698985,"05/08/2023 13:38:18",1691246298985,1,"05/08/2023 15:38:18",139282,42,"questionnaire-uu2n",NA,31067934,9210487,NA,"complete",NA,NA,"computer","Desktop or Laptop","Windows 10","Chrome 115.0.0.0","3440x1440","2103x1040",NA,NA,NA,"BIQ (Charlotte)",2,"In","CDBEAFJGIH","B (Feedback ranking_L1 First)","study_1 (JV and feedback_list_1)","","In","Spreadsheet1","Spreadsheet1",1,"BIQ","Screen 2","o21mwi",2,"response","0",111337.972,111829.221,111833.223000003,111337.972,111829.221,111833.223000003,1,111337.972,495.251000002987,0,NA,"Rating Scale","Rating Scale",16,"object-86","BIQ",NA,"SUPTM65569"
"10",1691242711072,"05/08/2023 13:38:31",1691246311072,1,"05/08/2023 15:38:31",139282,42,"questionnaire-uu2n",NA,31067934,9210487,NA,"complete",NA,NA,"computer","Desktop or Laptop","Windows 10","Chrome 115.0.0.0","3440x1440","2103x1040",NA,NA,NA,"BIQ (Charlotte)",2,"In","CDBEAFJGIH","B (Feedback ranking_L1 First)","study_1 (JV and feedback_list_1)","","In","Spreadsheet1","Spreadsheet1",1,"BIQ","Screen 3","iz3the",3,"continue","",12091.002000003,12087.192,12091.002000003,12091.002000003,12087.192,12091.002000003,1,12091.002000003,0,0,NA,"Click To Continue","Continue Button",22,"object-73","BIQ",NA,"SUPTM65569"
"11",1691242711074,"05/08/2023 13:38:31",1691246311074,1,"05/08/2023 15:38:31",139282,42,"questionnaire-uu2n",NA,31067934,9210487,NA,"complete",NA,NA,"computer","Desktop or Laptop","Windows 10","Chrome 115.0.0.0","3440x1440","2103x1040",NA,NA,NA,"BIQ (Charlotte)",2,"In","CDBEAFJGIH","B (Feedback ranking_L1 First)","study_1 (JV and feedback_list_1)","","In","Spreadsheet1","Spreadsheet1",1,"BIQ","Screen 3","iz3the",3,"response","0",6064.826,12087.192,12092.302,6064.826,12087.192,12092.302,1,6064.826,6027.476,0,NA,"Rating Scale","Rating Scale",2,"object-53","BIQ",NA,"SUPTM65569"
"12",1691242711074,"05/08/2023 13:38:31",1691246311074,1,"05/08/2023 15:38:31",139282,42,"questionnaire-uu2n",NA,31067934,9210487,NA,"complete",NA,NA,"computer","Desktop or Laptop","Windows 10","Chrome 115.0.0.0","3440x1440","2103x1040",NA,NA,NA,"BIQ (Charlotte)",2,"In","CDBEAFJGIH","B (Feedback ranking_L1 First)","study_1 (JV and feedback_list_1)","","In","Spreadsheet1","Spreadsheet1",1,"BIQ","Screen 3","iz3the",3,"response","0",8035.88999999998,12087.192,12092.601999997,8035.88999999998,12087.192,12092.601999997,1,8035.88999999998,4056.71199999703,0,NA,"Rating Scale","Rating Scale",9,"object-60","BIQ",NA,"SUPTM65569"
"13",1691242711074,"05/08/2023 13:38:31",1691246311074,1,"05/08/2023 15:38:31",139282,42,"questionnaire-uu2n",NA,31067934,9210487,NA,"complete",NA,NA,"computer","Desktop or Laptop","Windows 10","Chrome 115.0.0.0","3440x1440","2103x1040",NA,NA,NA,"BIQ (Charlotte)",2,"In","CDBEAFJGIH","B (Feedback ranking_L1 First)","study_1 (JV and feedback_list_1)","","In","Spreadsheet1","Spreadsheet1",1,"BIQ","Screen 3","iz3the",3,"response","1",11268.439,12087.192,12092.702000006,11268.439,12087.192,12092.702000006,1,11268.439,824.263000005973,0,NA,"Rating Scale","Rating Scale",16,"object-67","BIQ",NA,"SUPTM65569"
"14",1691242711076,"05/08/2023 13:38:31",1691246311076,1,"05/08/2023 15:38:31",139282,42,"questionnaire-uu2n",NA,31067934,9210487,NA,"complete",NA,NA,"computer","Desktop or Laptop","Windows 10","Chrome 115.0.0.0","3440x1440","2103x1040",NA,NA,NA,"BIQ (Charlotte)",2,"In","CDBEAFJGIH","B (Feedback ranking_L1 First)","study_1 (JV and feedback_list_1)","","In","Spreadsheet1","Spreadsheet1",NA,"","","",NA,"5","END",NA,NA,NA,NA,NA,NA,0,NA,NA,NA,NA,"","",NA,"","",NA,"SUPTM65569"
"1",1691927574637,"13/08/2023 11:52:54",1691931174637,1,"13/08/2023 13:52:54",139282,42,"questionnaire-uu2n",NA,31165378,9239672,NA,"complete",NA,NA,"computer","Desktop or Laptop","Windows 10","Chrome 115.0.0.0","1536x864","1536x739",NA,NA,0,"BIQ (Charlotte)",2,"In","FGEHDICJBA","A (JV first)","study_1 (JV and feedback_list_1)","","In","Spreadsheet1","Spreadsheet1",NA,"","","",NA,"5","BEGIN",NA,NA,NA,NA,NA,NA,0,NA,NA,NA,NA,"","",NA,"","",NA,"SUPTM41800"
"2",1691927605206,"13/08/2023 11:53:25",1691931205206,1,"13/08/2023 13:53:25",139282,42,"questionnaire-uu2n",NA,31165378,9239672,NA,"complete",NA,NA,"computer","Desktop or Laptop","Windows 10","Chrome 115.0.0.0","1536x864","1536x739",NA,NA,0,"BIQ (Charlotte)",2,"In","FGEHDICJBA","A (JV first)","study_1 (JV and feedback_list_1)","","In","Spreadsheet1","Spreadsheet1",1,"BIQ","Screen 1","9dh6eq",1,"continue","",30579.998,30562.988,30579.998,30579.998,30562.988,30579.998,1,30579.998,0,0,NA,"Click To Continue","Continue Button",23,"object-48","BIQ",NA,"SUPTM41800"
"3",1691927605207,"13/08/2023 11:53:25",1691931205207,1,"13/08/2023 13:53:25",139282,42,"questionnaire-uu2n",NA,31165378,9239672,NA,"complete",NA,NA,"computer","Desktop or Laptop","Windows 10","Chrome 115.0.0.0","1536x864","1536x739",NA,NA,0,"BIQ (Charlotte)",2,"In","FGEHDICJBA","A (JV first)","study_1 (JV and feedback_list_1)","","In","Spreadsheet1","Spreadsheet1",1,"BIQ","Screen 1","9dh6eq",1,"response","4",13296.873,30562.988,30579.998,13296.873,30562.988,30579.998,1,13296.873,17283.125,0,NA,"Rating Scale","Rating Scale",3,"object-5","BIQ",NA,"SUPTM41800"
"4",1691927605207,"13/08/2023 11:53:25",1691931205207,1,"13/08/2023 13:53:25",139282,42,"questionnaire-uu2n",NA,31165378,9239672,NA,"complete",NA,NA,"computer","Desktop or Laptop","Windows 10","Chrome 115.0.0.0","1536x864","1536x739",NA,NA,0,"BIQ (Charlotte)",2,"In","FGEHDICJBA","A (JV first)","study_1 (JV and feedback_list_1)","","In","Spreadsheet1","Spreadsheet1",1,"BIQ","Screen 1","9dh6eq",1,"response","6",23313.185,30562.988,30579.998,23313.185,30562.988,30579.998,1,23313.185,7266.813,0,NA,"Rating Scale","Rating Scale",10,"object-18","BIQ",NA,"SUPTM41800"
"5",1691927605208,"13/08/2023 11:53:25",1691931205208,1,"13/08/2023 13:53:25",139282,42,"questionnaire-uu2n",NA,31165378,9239672,NA,"complete",NA,NA,"computer","Desktop or Laptop","Windows 10","Chrome 115.0.0.0","1536x864","1536x739",NA,NA,0,"BIQ (Charlotte)",2,"In","FGEHDICJBA","A (JV first)","study_1 (JV and feedback_list_1)","","In","Spreadsheet1","Spreadsheet1",1,"BIQ","Screen 1","9dh6eq",1,"response","1",28996.434,30562.988,30579.998,28996.434,30562.988,30579.998,1,28996.434,1583.564,0,NA,"Rating Scale","Rating Scale",17,"object-80","BIQ",NA,"SUPTM41800"
"6",1691927642579,"13/08/2023 11:54:02",1691931242579,1,"13/08/2023 13:54:02",139282,42,"questionnaire-uu2n",NA,31165378,9239672,NA,"complete",NA,NA,"computer","Desktop or Laptop","Windows 10","Chrome 115.0.0.0","1536x864","1536x739",NA,NA,0,"BIQ (Charlotte)",2,"In","FGEHDICJBA","A (JV first)","study_1 (JV and feedback_list_1)","","In","Spreadsheet1","Spreadsheet1",1,"BIQ","Screen 2","o21mwi",2,"continue","",37397.401,37380.999,37397.401,37397.401,37380.999,37397.401,1,37397.401,0,0,NA,"Click To Continue","Continue Button",22,"object-50","BIQ",NA,"SUPTM41800"
"7",1691927642581,"13/08/2023 11:54:02",1691931242581,1,"13/08/2023 13:54:02",139282,42,"questionnaire-uu2n",NA,31165378,9239672,NA,"complete",NA,NA,"computer","Desktop or Laptop","Windows 10","Chrome 115.0.0.0","1536x864","1536x739",NA,NA,0,"BIQ (Charlotte)",2,"In","FGEHDICJBA","A (JV first)","study_1 (JV and feedback_list_1)","","In","Spreadsheet1","Spreadsheet1",1,"BIQ","Screen 2","o21mwi",2,"response","7",8249.349,37380.999,37397.401,8249.349,37380.999,37397.401,1,8249.349,29148.052,0,NA,"Rating Scale","Rating Scale",2,"object-259","BIQ",NA,"SUPTM41800"
"8",1691927642581,"13/08/2023 11:54:02",1691931242581,1,"13/08/2023 13:54:02",139282,42,"questionnaire-uu2n",NA,31165378,9239672,NA,"complete",NA,NA,"computer","Desktop or Laptop","Windows 10","Chrome 115.0.0.0","1536x864","1536x739",NA,NA,0,"BIQ (Charlotte)",2,"In","FGEHDICJBA","A (JV first)","study_1 (JV and feedback_list_1)","","In","Spreadsheet1","Spreadsheet1",1,"BIQ","Screen 2","o21mwi",2,"response","1",19648.762,37380.999,37397.401,19648.762,37380.999,37397.401,1,19648.762,17748.639,0,NA,"Rating Scale","Rating Scale",9,"object-36","BIQ",NA,"SUPTM41800"
"9",1691927642582,"13/08/2023 11:54:02",1691931242582,1,"13/08/2023 13:54:02",139282,42,"questionnaire-uu2n",NA,31165378,9239672,NA,"complete",NA,NA,"computer","Desktop or Laptop","Windows 10","Chrome 115.0.0.0","1536x864","1536x739",NA,NA,0,"BIQ (Charlotte)",2,"In","FGEHDICJBA","A (JV first)","study_1 (JV and feedback_list_1)","","In","Spreadsheet1","Spreadsheet1",1,"BIQ","Screen 2","o21mwi",2,"response","0",36681.08,37380.999,37397.401,36681.08,37380.999,37397.401,1,36681.08,716.321000000011,0,NA,"Rating Scale","Rating Scale",16,"object-86","BIQ",NA,"SUPTM41800"
"10",1691927660296,"13/08/2023 11:54:20",1691931260296,1,"13/08/2023 13:54:20",139282,42,"questionnaire-uu2n",NA,31165378,9239672,NA,"complete",NA,NA,"computer","Desktop or Laptop","Windows 10","Chrome 115.0.0.0","1536x864","1536x739",NA,NA,0,"BIQ (Charlotte)",2,"In","FGEHDICJBA","A (JV first)","study_1 (JV and feedback_list_1)","","In","Spreadsheet1","Spreadsheet1",1,"BIQ","Screen 3","iz3the",3,"continue","",17735.0610000238,17732.471,17735.0610000238,17735.0610000238,17732.471,17735.0610000238,1,17735.0610000238,0,0,NA,"Click To Continue","Continue Button",22,"object-73","BIQ",NA,"SUPTM41800"
"11",1691927660298,"13/08/2023 11:54:20",1691931260298,1,"13/08/2023 13:54:20",139282,42,"questionnaire-uu2n",NA,31165378,9239672,NA,"complete",NA,NA,"computer","Desktop or Laptop","Windows 10","Chrome 115.0.0.0","1536x864","1536x739",NA,NA,0,"BIQ (Charlotte)",2,"In","FGEHDICJBA","A (JV first)","study_1 (JV and feedback_list_1)","","In","Spreadsheet1","Spreadsheet1",1,"BIQ","Screen 3","iz3the",3,"response","0",7232.942,17732.471,17737.5610000238,7232.942,17732.471,17737.5610000238,1,7232.942,10504.6190000238,0,NA,"Rating Scale","Rating Scale",2,"object-53","BIQ",NA,"SUPTM41800"
"12",1691927660299,"13/08/2023 11:54:20",1691931260299,1,"13/08/2023 13:54:20",139282,42,"questionnaire-uu2n",NA,31165378,9239672,NA,"complete",NA,NA,"computer","Desktop or Laptop","Windows 10","Chrome 115.0.0.0","1536x864","1536x739",NA,NA,0,"BIQ (Charlotte)",2,"In","FGEHDICJBA","A (JV first)","study_1 (JV and feedback_list_1)","","In","Spreadsheet1","Spreadsheet1",1,"BIQ","Screen 3","iz3the",3,"response","1",9866.837,17732.471,17737.961,9866.837,17732.471,17737.961,1,9866.837,7871.124,0,NA,"Rating Scale","Rating Scale",9,"object-60","BIQ",NA,"SUPTM41800"
"13",1691927660299,"13/08/2023 11:54:20",1691931260299,1,"13/08/2023 13:54:20",139282,42,"questionnaire-uu2n",NA,31165378,9239672,NA,"complete",NA,NA,"computer","Desktop or Laptop","Windows 10","Chrome 115.0.0.0","1536x864","1536x739",NA,NA,0,"BIQ (Charlotte)",2,"In","FGEHDICJBA","A (JV first)","study_1 (JV and feedback_list_1)","","In","Spreadsheet1","Spreadsheet1",1,"BIQ","Screen 3","iz3the",3,"response","0",12416.663,17732.471,17738.3609999762,12416.663,17732.471,17738.3609999762,1,12416.663,5321.69799997615,0,NA,"Rating Scale","Rating Scale",16,"object-67","BIQ",NA,"SUPTM41800"
"14",1691927660302,"13/08/2023 11:54:20",1691931260302,1,"13/08/2023 13:54:20",139282,42,"questionnaire-uu2n",NA,31165378,9239672,NA,"complete",NA,NA,"computer","Desktop or Laptop","Windows 10","Chrome 115.0.0.0","1536x864","1536x739",NA,NA,0,"BIQ (Charlotte)",2,"In","FGEHDICJBA","A (JV first)","study_1 (JV and feedback_list_1)","","In","Spreadsheet1","Spreadsheet1",NA,"","","",NA,"5","END",NA,NA,NA,NA,NA,NA,0,NA,NA,NA,NA,"","",NA,"","",NA,"SUPTM41800"
"1",1691495703894,"08/08/2023 11:55:03",1691499303894,1,"08/08/2023 13:55:03",139282,42,"questionnaire-uu2n",NA,31101054,9218851,NA,"complete",NA,NA,"computer","Desktop or Laptop","Windows 10","Chrome 115.0.0.0","1923x942","1920x941",NA,NA,NA,"BIQ (Charlotte)",2,"In","EFDGCHBIAJ","","study_2 (video_feedback and feedback_list_2)","Feedback_ranking_L2_first","In","Spreadsheet1","Spreadsheet1",NA,"","","",NA,"5","BEGIN",NA,NA,NA,NA,NA,NA,0,NA,NA,NA,NA,"","",NA,"","",NA,"SUPTM81666"
"2",1691495718585,"08/08/2023 11:55:18",1691499318585,1,"08/08/2023 13:55:18",139282,42,"questionnaire-uu2n",NA,31101054,9218851,NA,"complete",NA,NA,"computer","Desktop or Laptop","Windows 10","Chrome 115.0.0.0","1923x942","1920x941",NA,NA,NA,"BIQ (Charlotte)",2,"In","EFDGCHBIAJ","","study_2 (video_feedback and feedback_list_2)","Feedback_ranking_L2_first","In","Spreadsheet1","Spreadsheet1",1,"BIQ","Screen 1","9dh6eq",1,"continue","",14697,14690,14697,14697,14690,14697,1,14697,0,0,NA,"Click To Continue","Continue Button",23,"object-48","BIQ",NA,"SUPTM81666"
"3",1691495718587,"08/08/2023 11:55:18",1691499318587,1,"08/08/2023 13:55:18",139282,42,"questionnaire-uu2n",NA,31101054,9218851,NA,"complete",NA,NA,"computer","Desktop or Laptop","Windows 10","Chrome 115.0.0.0","1923x942","1920x941",NA,NA,NA,"BIQ (Charlotte)",2,"In","EFDGCHBIAJ","","study_2 (video_feedback and feedback_list_2)","Feedback_ranking_L2_first","In","Spreadsheet1","Spreadsheet1",1,"BIQ","Screen 1","9dh6eq",1,"response","6",8821,14690,14697,8821,14690,14697,1,8821,5876,0,NA,"Rating Scale","Rating Scale",3,"object-5","BIQ",NA,"SUPTM81666"
"4",1691495718588,"08/08/2023 11:55:18",1691499318588,1,"08/08/2023 13:55:18",139282,42,"questionnaire-uu2n",NA,31101054,9218851,NA,"complete",NA,NA,"computer","Desktop or Laptop","Windows 10","Chrome 115.0.0.0","1923x942","1920x941",NA,NA,NA,"BIQ (Charlotte)",2,"In","EFDGCHBIAJ","","study_2 (video_feedback and feedback_list_2)","Feedback_ranking_L2_first","In","Spreadsheet1","Spreadsheet1",1,"BIQ","Screen 1","9dh6eq",1,"response","4",3938,14690,14697,3938,14690,14697,1,3938,10759,0,NA,"Rating Scale","Rating Scale",10,"object-18","BIQ",NA,"SUPTM81666"
"5",1691495718588,"08/08/2023 11:55:18",1691499318588,1,"08/08/2023 13:55:18",139282,42,"questionnaire-uu2n",NA,31101054,9218851,NA,"complete",NA,NA,"computer","Desktop or Laptop","Windows 10","Chrome 115.0.0.0","1923x942","1920x941",NA,NA,NA,"BIQ (Charlotte)",2,"In","EFDGCHBIAJ","","study_2 (video_feedback and feedback_list_2)","Feedback_ranking_L2_first","In","Spreadsheet1","Spreadsheet1",1,"BIQ","Screen 1","9dh6eq",1,"response","2",14141,14690,14697,14141,14690,14697,1,14141,556,0,NA,"Rating Scale","Rating Scale",17,"object-80","BIQ",NA,"SUPTM81666"
"6",1691495734294,"08/08/2023 11:55:34",1691499334294,1,"08/08/2023 13:55:34",139282,42,"questionnaire-uu2n",NA,31101054,9218851,NA,"complete",NA,NA,"computer","Desktop or Laptop","Windows 10","Chrome 115.0.0.0","1923x942","1920x941",NA,NA,NA,"BIQ (Charlotte)",2,"In","EFDGCHBIAJ","","study_2 (video_feedback and feedback_list_2)","Feedback_ranking_L2_first","In","Spreadsheet1","Spreadsheet1",1,"BIQ","Screen 2","o21mwi",2,"continue","",15720,15717,15720,15720,15717,15720,1,15720,0,0,NA,"Click To Continue","Continue Button",22,"object-50","BIQ",NA,"SUPTM81666"
"7",1691495734296,"08/08/2023 11:55:34",1691499334296,1,"08/08/2023 13:55:34",139282,42,"questionnaire-uu2n",NA,31101054,9218851,NA,"complete",NA,NA,"computer","Desktop or Laptop","Windows 10","Chrome 115.0.0.0","1923x942","1920x941",NA,NA,NA,"BIQ (Charlotte)",2,"In","EFDGCHBIAJ","","study_2 (video_feedback and feedback_list_2)","Feedback_ranking_L2_first","In","Spreadsheet1","Spreadsheet1",1,"BIQ","Screen 2","o21mwi",2,"response","6",9230,15717,15722,9230,15717,15722,1,9230,6492,0,NA,"Rating Scale","Rating Scale",2,"object-259","BIQ",NA,"SUPTM81666"
"8",1691495734297,"08/08/2023 11:55:34",1691499334297,1,"08/08/2023 13:55:34",139282,42,"questionnaire-uu2n",NA,31101054,9218851,NA,"complete",NA,NA,"computer","Desktop or Laptop","Windows 10","Chrome 115.0.0.0","1923x942","1920x941",NA,NA,NA,"BIQ (Charlotte)",2,"In","EFDGCHBIAJ","","study_2 (video_feedback and feedback_list_2)","Feedback_ranking_L2_first","In","Spreadsheet1","Spreadsheet1",1,"BIQ","Screen 2","o21mwi",2,"response","2",11953,15717,15722,11953,15717,15722,1,11953,3769,0,NA,"Rating Scale","Rating Scale",9,"object-36","BIQ",NA,"SUPTM81666"
"9",1691495734297,"08/08/2023 11:55:34",1691499334297,1,"08/08/2023 13:55:34",139282,42,"questionnaire-uu2n",NA,31101054,9218851,NA,"complete",NA,NA,"computer","Desktop or Laptop","Windows 10","Chrome 115.0.0.0","1923x942","1920x941",NA,NA,NA,"BIQ (Charlotte)",2,"In","EFDGCHBIAJ","","study_2 (video_feedback and feedback_list_2)","Feedback_ranking_L2_first","In","Spreadsheet1","Spreadsheet1",1,"BIQ","Screen 2","o21mwi",2,"response","1",15148,15717,15723,15148,15717,15723,1,15148,575,0,NA,"Rating Scale","Rating Scale",16,"object-86","BIQ",NA,"SUPTM81666"
"10",1691495742875,"08/08/2023 11:55:42",1691499342875,1,"08/08/2023 13:55:42",139282,42,"questionnaire-uu2n",NA,31101054,9218851,NA,"complete",NA,NA,"computer","Desktop or Laptop","Windows 10","Chrome 115.0.0.0","1923x942","1920x941",NA,NA,NA,"BIQ (Charlotte)",2,"In","EFDGCHBIAJ","","study_2 (video_feedback and feedback_list_2)","Feedback_ranking_L2_first","In","Spreadsheet1","Spreadsheet1",1,"BIQ","Screen 3","iz3the",3,"continue","",8583,8578,8583,8583,8578,8583,1,8583,0,0,NA,"Click To Continue","Continue Button",22,"object-73","BIQ",NA,"SUPTM81666"
"11",1691495742875,"08/08/2023 11:55:42",1691499342875,1,"08/08/2023 13:55:42",139282,42,"questionnaire-uu2n",NA,31101054,9218851,NA,"complete",NA,NA,"computer","Desktop or Laptop","Windows 10","Chrome 115.0.0.0","1923x942","1920x941",NA,NA,NA,"BIQ (Charlotte)",2,"In","EFDGCHBIAJ","","study_2 (video_feedback and feedback_list_2)","Feedback_ranking_L2_first","In","Spreadsheet1","Spreadsheet1",1,"BIQ","Screen 3","iz3the",3,"response","2",3140,8578,8584,3140,8578,8584,1,3140,5444,0,NA,"Rating Scale","Rating Scale",2,"object-53","BIQ",NA,"SUPTM81666"
"12",1691495742876,"08/08/2023 11:55:42",1691499342876,1,"08/08/2023 13:55:42",139282,42,"questionnaire-uu2n",NA,31101054,9218851,NA,"complete",NA,NA,"computer","Desktop or Laptop","Windows 10","Chrome 115.0.0.0","1923x942","1920x941",NA,NA,NA,"BIQ (Charlotte)",2,"In","EFDGCHBIAJ","","study_2 (video_feedback and feedback_list_2)","Feedback_ranking_L2_first","In","Spreadsheet1","Spreadsheet1",1,"BIQ","Screen 3","iz3the",3,"response","3",5446,8578,8585,5446,8578,8585,1,5446,3139,0,NA,"Rating Scale","Rating Scale",9,"object-60","BIQ",NA,"SUPTM81666"
"13",1691495742876,"08/08/2023 11:55:42",1691499342876,1,"08/08/2023 13:55:42",139282,42,"questionnaire-uu2n",NA,31101054,9218851,NA,"complete",NA,NA,"computer","Desktop or Laptop","Windows 10","Chrome 115.0.0.0","1923x942","1920x941",NA,NA,NA,"BIQ (Charlotte)",2,"In","EFDGCHBIAJ","","study_2 (video_feedback and feedback_list_2)","Feedback_ranking_L2_first","In","Spreadsheet1","Spreadsheet1",1,"BIQ","Screen 3","iz3the",3,"response","4",8140,8578,8585,8140,8578,8585,1,8140,445,0,NA,"Rating Scale","Rating Scale",16,"object-67","BIQ",NA,"SUPTM81666"
"14",1691495742881,"08/08/2023 11:55:42",1691499342881,1,"08/08/2023 13:55:42",139282,42,"questionnaire-uu2n",NA,31101054,9218851,NA,"complete",NA,NA,"computer","Desktop or Laptop","Windows 10","Chrome 115.0.0.0","1923x942","1920x941",NA,NA,NA,"BIQ (Charlotte)",2,"In","EFDGCHBIAJ","","study_2 (video_feedback and feedback_list_2)","Feedback_ranking_L2_first","In","Spreadsheet1","Spreadsheet1",NA,"","","",NA,"5","END",NA,NA,NA,NA,NA,NA,0,NA,NA,NA,NA,"","",NA,"","",NA,"SUPTM81666"
"1",1691429070235,"07/08/2023 17:24:30",1691432670235,1,"07/08/2023 19:24:30",139282,42,"questionnaire-uu2n",NA,31091854,9216438,NA,"complete",NA,NA,"computer","Desktop or Laptop","Windows 10","Chrome 115.0.0.0","1536x864","1536x747",NA,NA,NA,"BIQ (Charlotte)",2,"In","DECFBGAHJI","","study_2 (video_feedback and feedback_list_2)","VF_1st","In","Spreadsheet1","Spreadsheet1",NA,"","","",NA,"5","BEGIN",NA,NA,NA,NA,NA,NA,0,NA,NA,NA,NA,"","",NA,"","",NA,"SUPTM83190"
"2",1691429094106,"07/08/2023 17:24:54",1691432694106,1,"07/08/2023 19:24:54",139282,42,"questionnaire-uu2n",NA,31091854,9216438,NA,"complete",NA,NA,"computer","Desktop or Laptop","Windows 10","Chrome 115.0.0.0","1536x864","1536x747",NA,NA,NA,"BIQ (Charlotte)",2,"In","DECFBGAHJI","","study_2 (video_feedback and feedback_list_2)","VF_1st","In","Spreadsheet1","Spreadsheet1",1,"BIQ","Screen 1","9dh6eq",1,"continue","",23878.0260000119,23874.32,23878.0260000119,23878.0260000119,23874.32,23878.0260000119,1,23878.0260000119,0,0,NA,"Click To Continue","Continue Button",23,"object-48","BIQ",NA,"SUPTM83190"
"3",1691429094107,"07/08/2023 17:24:54",1691432694107,1,"07/08/2023 19:24:54",139282,42,"questionnaire-uu2n",NA,31091854,9216438,NA,"complete",NA,NA,"computer","Desktop or Laptop","Windows 10","Chrome 115.0.0.0","1536x864","1536x747",NA,NA,NA,"BIQ (Charlotte)",2,"In","DECFBGAHJI","","study_2 (video_feedback and feedback_list_2)","VF_1st","In","Spreadsheet1","Spreadsheet1",1,"BIQ","Screen 1","9dh6eq",1,"response","4",13883.808,23874.32,23881.825999994,13883.808,23874.32,23881.825999994,1,13883.808,9998.01799999404,0,NA,"Rating Scale","Rating Scale",3,"object-5","BIQ",NA,"SUPTM83190"
"4",1691429094107,"07/08/2023 17:24:54",1691432694107,1,"07/08/2023 19:24:54",139282,42,"questionnaire-uu2n",NA,31091854,9216438,NA,"complete",NA,NA,"computer","Desktop or Laptop","Windows 10","Chrome 115.0.0.0","1536x864","1536x747",NA,NA,NA,"BIQ (Charlotte)",2,"In","DECFBGAHJI","","study_2 (video_feedback and feedback_list_2)","VF_1st","In","Spreadsheet1","Spreadsheet1",1,"BIQ","Screen 1","9dh6eq",1,"response","4",20913.008,23874.32,23882.226,20913.008,23874.32,23882.226,1,20913.008,2969.218,0,NA,"Rating Scale","Rating Scale",10,"object-18","BIQ",NA,"SUPTM83190"
"5",1691429094107,"07/08/2023 17:24:54",1691432694107,1,"07/08/2023 19:24:54",139282,42,"questionnaire-uu2n",NA,31091854,9216438,NA,"complete",NA,NA,"computer","Desktop or Laptop","Windows 10","Chrome 115.0.0.0","1536x864","1536x747",NA,NA,NA,"BIQ (Charlotte)",2,"In","DECFBGAHJI","","study_2 (video_feedback and feedback_list_2)","VF_1st","In","Spreadsheet1","Spreadsheet1",1,"BIQ","Screen 1","9dh6eq",1,"response","4",22543.5,23874.32,23882.325999994,22543.5,23874.32,23882.325999994,1,22543.5,1338.82599999404,0,NA,"Rating Scale","Rating Scale",17,"object-80","BIQ",NA,"SUPTM83190"
"6",1691429108677,"07/08/2023 17:25:08",1691432708677,1,"07/08/2023 19:25:08",139282,42,"questionnaire-uu2n",NA,31091854,9216438,NA,"complete",NA,NA,"computer","Desktop or Laptop","Windows 10","Chrome 115.0.0.0","1536x864","1536x747",NA,NA,NA,"BIQ (Charlotte)",2,"In","DECFBGAHJI","","study_2 (video_feedback and feedback_list_2)","VF_1st","In","Spreadsheet1","Spreadsheet1",1,"BIQ","Screen 2","o21mwi",2,"continue","",14577.806000006,14574.277,14577.806000006,14577.806000006,14574.277,14577.806000006,1,14577.806000006,0,0,NA,"Click To Continue","Continue Button",22,"object-50","BIQ",NA,"SUPTM83190"
"7",1691429108679,"07/08/2023 17:25:08",1691432708679,1,"07/08/2023 19:25:08",139282,42,"questionnaire-uu2n",NA,31091854,9216438,NA,"complete",NA,NA,"computer","Desktop or Laptop","Windows 10","Chrome 115.0.0.0","1536x864","1536x747",NA,NA,NA,"BIQ (Charlotte)",2,"In","DECFBGAHJI","","study_2 (video_feedback and feedback_list_2)","VF_1st","In","Spreadsheet1","Spreadsheet1",1,"BIQ","Screen 2","o21mwi",2,"response","6",7287.205,14574.277,14579.306000006,7287.205,14574.277,14579.306000006,1,7287.205,7292.10100000596,0,NA,"Rating Scale","Rating Scale",2,"object-259","BIQ",NA,"SUPTM83190"
"8",1691429108679,"07/08/2023 17:25:08",1691432708679,1,"07/08/2023 19:25:08",139282,42,"questionnaire-uu2n",NA,31091854,9216438,NA,"complete",NA,NA,"computer","Desktop or Laptop","Windows 10","Chrome 115.0.0.0","1536x864","1536x747",NA,NA,NA,"BIQ (Charlotte)",2,"In","DECFBGAHJI","","study_2 (video_feedback and feedback_list_2)","VF_1st","In","Spreadsheet1","Spreadsheet1",1,"BIQ","Screen 2","o21mwi",2,"response","4",10323.479,14574.277,14579.7060000119,10323.479,14574.277,14579.7060000119,1,10323.479,4256.22700001192,0,NA,"Rating Scale","Rating Scale",9,"object-36","BIQ",NA,"SUPTM83190"
"9",1691429108679,"07/08/2023 17:25:08",1691432708679,1,"07/08/2023 19:25:08",139282,42,"questionnaire-uu2n",NA,31091854,9216438,NA,"complete",NA,NA,"computer","Desktop or Laptop","Windows 10","Chrome 115.0.0.0","1536x864","1536x747",NA,NA,NA,"BIQ (Charlotte)",2,"In","DECFBGAHJI","","study_2 (video_feedback and feedback_list_2)","VF_1st","In","Spreadsheet1","Spreadsheet1",1,"BIQ","Screen 2","o21mwi",2,"response","4",14241.538,14574.277,14579.806000006,14241.538,14574.277,14579.806000006,1,14241.538,338.268000005963,0,NA,"Rating Scale","Rating Scale",16,"object-86","BIQ",NA,"SUPTM83190"
"10",1691429111750,"07/08/2023 17:25:11",1691432711750,1,"07/08/2023 19:25:11",139282,42,"questionnaire-uu2n",NA,31091854,9216438,NA,"complete",NA,NA,"computer","Desktop or Laptop","Windows 10","Chrome 115.0.0.0","1536x864","1536x747",NA,NA,NA,"BIQ (Charlotte)",2,"In","DECFBGAHJI","","study_2 (video_feedback and feedback_list_2)","VF_1st","In","Spreadsheet1","Spreadsheet1",1,"BIQ","Screen 3","iz3the",3,"continue","",3075.92900001192,3069.555,3075.92900001192,3075.92900001192,3069.555,3075.92900001192,1,3075.92900001192,0,0,NA,"Click To Continue","Continue Button",22,"object-73","BIQ",NA,"SUPTM83190"
"11",1691429111750,"07/08/2023 17:25:11",1691432711750,1,"07/08/2023 19:25:11",139282,42,"questionnaire-uu2n",NA,31091854,9216438,NA,"complete",NA,NA,"computer","Desktop or Laptop","Windows 10","Chrome 115.0.0.0","1536x864","1536x747",NA,NA,NA,"BIQ (Charlotte)",2,"In","DECFBGAHJI","","study_2 (video_feedback and feedback_list_2)","VF_1st","In","Spreadsheet1","Spreadsheet1",1,"BIQ","Screen 3","iz3the",3,"response","4",1380.883,3069.555,3076.22899999404,1380.883,3069.555,3076.22899999404,1,1380.883,1695.34599999404,0,NA,"Rating Scale","Rating Scale",2,"object-53","BIQ",NA,"SUPTM83190"
"12",1691429111750,"07/08/2023 17:25:11",1691432711750,1,"07/08/2023 19:25:11",139282,42,"questionnaire-uu2n",NA,31091854,9216438,NA,"complete",NA,NA,"computer","Desktop or Laptop","Windows 10","Chrome 115.0.0.0","1536x864","1536x747",NA,NA,NA,"BIQ (Charlotte)",2,"In","DECFBGAHJI","","study_2 (video_feedback and feedback_list_2)","VF_1st","In","Spreadsheet1","Spreadsheet1",1,"BIQ","Screen 3","iz3the",3,"response","4",1871.652,3069.555,3076.42900001192,1871.652,3069.555,3076.42900001192,1,1871.652,1204.77700001192,0,NA,"Rating Scale","Rating Scale",9,"object-60","BIQ",NA,"SUPTM83190"
"13",1691429111750,"07/08/2023 17:25:11",1691432711750,1,"07/08/2023 19:25:11",139282,42,"questionnaire-uu2n",NA,31091854,9216438,NA,"complete",NA,NA,"computer","Desktop or Laptop","Windows 10","Chrome 115.0.0.0","1536x864","1536x747",NA,NA,NA,"BIQ (Charlotte)",2,"In","DECFBGAHJI","","study_2 (video_feedback and feedback_list_2)","VF_1st","In","Spreadsheet1","Spreadsheet1",1,"BIQ","Screen 3","iz3the",3,"response","4",2262.651,3069.555,3076.82899998808,2262.651,3069.555,3076.82899998808,1,2262.651,814.177999988082,0,NA,"Rating Scale","Rating Scale",16,"object-67","BIQ",NA,"SUPTM83190"
"14",1691429111753,"07/08/2023 17:25:11",1691432711753,1,"07/08/2023 19:25:11",139282,42,"questionnaire-uu2n",NA,31091854,9216438,NA,"complete",NA,NA,"computer","Desktop or Laptop","Windows 10","Chrome 115.0.0.0","1536x864","1536x747",NA,NA,NA,"BIQ (Charlotte)",2,"In","DECFBGAHJI","","study_2 (video_feedback and feedback_list_2)","VF_1st","In","Spreadsheet1","Spreadsheet1",NA,"","","",NA,"5","END",NA,NA,NA,NA,NA,NA,0,NA,NA,NA,NA,"","",NA,"","",NA,"SUPTM83190"
"1",1691236779517,"05/08/2023 11:59:39",1691240379517,1,"05/08/2023 13:59:39",139282,42,"questionnaire-uu2n",NA,31067500,9210346,NA,"complete",NA,NA,"computer","Desktop or Laptop","Windows 10","Chrome 114.0.0.0","1707x792","1707x786",NA,NA,NA,"BIQ (Charlotte)",2,"In","BCADJEIFHG","","study_2 (video_feedback and feedback_list_2)","VF_1st","In","Spreadsheet1","Spreadsheet1",NA,"","","",NA,"5","BEGIN",NA,NA,NA,NA,NA,NA,0,NA,NA,NA,NA,"","",NA,"","",NA,"SUPTM20104"
"2",1691236809513,"05/08/2023 12:00:09",1691240409513,1,"05/08/2023 14:00:09",139282,42,"questionnaire-uu2n",NA,31067500,9210346,NA,"complete",NA,NA,"computer","Desktop or Laptop","Windows 10","Chrome 114.0.0.0","1707x792","1707x786",NA,NA,NA,"BIQ (Charlotte)",2,"In","BCADJEIFHG","","study_2 (video_feedback and feedback_list_2)","VF_1st","In","Spreadsheet1","Spreadsheet1",1,"BIQ","Screen 1","9dh6eq",1,"continue","",30014,29998,30014,30014,29998,30014,1,30014,0,0,NA,"Click To Continue","Continue Button",23,"object-48","BIQ",NA,"SUPTM20104"
"3",1691236809517,"05/08/2023 12:00:09",1691240409517,1,"05/08/2023 14:00:09",139282,42,"questionnaire-uu2n",NA,31067500,9210346,NA,"complete",NA,NA,"computer","Desktop or Laptop","Windows 10","Chrome 114.0.0.0","1707x792","1707x786",NA,NA,NA,"BIQ (Charlotte)",2,"In","BCADJEIFHG","","study_2 (video_feedback and feedback_list_2)","VF_1st","In","Spreadsheet1","Spreadsheet1",1,"BIQ","Screen 1","9dh6eq",1,"response","7",14283,29998,30015,14283,29998,30015,1,14283,15732,0,NA,"Rating Scale","Rating Scale",3,"object-5","BIQ",NA,"SUPTM20104"
"4",1691236809517,"05/08/2023 12:00:09",1691240409517,1,"05/08/2023 14:00:09",139282,42,"questionnaire-uu2n",NA,31067500,9210346,NA,"complete",NA,NA,"computer","Desktop or Laptop","Windows 10","Chrome 114.0.0.0","1707x792","1707x786",NA,NA,NA,"BIQ (Charlotte)",2,"In","BCADJEIFHG","","study_2 (video_feedback and feedback_list_2)","VF_1st","In","Spreadsheet1","Spreadsheet1",1,"BIQ","Screen 1","9dh6eq",1,"response","5",20782,29998,30015,20782,29998,30015,1,20782,9233,0,NA,"Rating Scale","Rating Scale",10,"object-18","BIQ",NA,"SUPTM20104"
"5",1691236809518,"05/08/2023 12:00:09",1691240409518,1,"05/08/2023 14:00:09",139282,42,"questionnaire-uu2n",NA,31067500,9210346,NA,"complete",NA,NA,"computer","Desktop or Laptop","Windows 10","Chrome 114.0.0.0","1707x792","1707x786",NA,NA,NA,"BIQ (Charlotte)",2,"In","BCADJEIFHG","","study_2 (video_feedback and feedback_list_2)","VF_1st","In","Spreadsheet1","Spreadsheet1",1,"BIQ","Screen 1","9dh6eq",1,"response","1",26432,29998,30015,26432,29998,30015,1,26432,3583,0,NA,"Rating Scale","Rating Scale",17,"object-80","BIQ",NA,"SUPTM20104"
"6",1691236848346,"05/08/2023 12:00:48",1691240448346,1,"05/08/2023 14:00:48",139282,42,"questionnaire-uu2n",NA,31067500,9210346,NA,"complete",NA,NA,"computer","Desktop or Laptop","Windows 10","Chrome 114.0.0.0","1707x792","1707x786",NA,NA,NA,"BIQ (Charlotte)",2,"In","BCADJEIFHG","","study_2 (video_feedback and feedback_list_2)","VF_1st","In","Spreadsheet1","Spreadsheet1",1,"BIQ","Screen 2","o21mwi",2,"continue","",38851,38847,38851,38851,38847,38851,1,38851,0,0,NA,"Click To Continue","Continue Button",22,"object-50","BIQ",NA,"SUPTM20104"
"7",1691236848353,"05/08/2023 12:00:48",1691240448353,1,"05/08/2023 14:00:48",139282,42,"questionnaire-uu2n",NA,31067500,9210346,NA,"complete",NA,NA,"computer","Desktop or Laptop","Windows 10","Chrome 114.0.0.0","1707x792","1707x786",NA,NA,NA,"BIQ (Charlotte)",2,"In","BCADJEIFHG","","study_2 (video_feedback and feedback_list_2)","VF_1st","In","Spreadsheet1","Spreadsheet1",1,"BIQ","Screen 2","o21mwi",2,"response","7",19015,38847,38858,19015,38847,38858,1,19015,19843,0,NA,"Rating Scale","Rating Scale",2,"object-259","BIQ",NA,"SUPTM20104"
"8",1691236848355,"05/08/2023 12:00:48",1691240448355,1,"05/08/2023 14:00:48",139282,42,"questionnaire-uu2n",NA,31067500,9210346,NA,"complete",NA,NA,"computer","Desktop or Laptop","Windows 10","Chrome 114.0.0.0","1707x792","1707x786",NA,NA,NA,"BIQ (Charlotte)",2,"In","BCADJEIFHG","","study_2 (video_feedback and feedback_list_2)","VF_1st","In","Spreadsheet1","Spreadsheet1",1,"BIQ","Screen 2","o21mwi",2,"response","2",23098,38847,38859,23098,38847,38859,1,23098,15761,0,NA,"Rating Scale","Rating Scale",9,"object-36","BIQ",NA,"SUPTM20104"
"9",1691236848357,"05/08/2023 12:00:48",1691240448357,1,"05/08/2023 14:00:48",139282,42,"questionnaire-uu2n",NA,31067500,9210346,NA,"complete",NA,NA,"computer","Desktop or Laptop","Windows 10","Chrome 114.0.0.0","1707x792","1707x786",NA,NA,NA,"BIQ (Charlotte)",2,"In","BCADJEIFHG","","study_2 (video_feedback and feedback_list_2)","VF_1st","In","Spreadsheet1","Spreadsheet1",1,"BIQ","Screen 2","o21mwi",2,"response","4",37997,38847,38862,37997,38847,38862,1,37997,865,0,NA,"Rating Scale","Rating Scale",16,"object-86","BIQ",NA,"SUPTM20104"
"10",1691236862614,"05/08/2023 12:01:02",1691240462614,1,"05/08/2023 14:01:02",139282,42,"questionnaire-uu2n",NA,31067500,9210346,NA,"complete",NA,NA,"computer","Desktop or Laptop","Windows 10","Chrome 114.0.0.0","1707x792","1707x786",NA,NA,NA,"BIQ (Charlotte)",2,"In","BCADJEIFHG","","study_2 (video_feedback and feedback_list_2)","VF_1st","In","Spreadsheet1","Spreadsheet1",1,"BIQ","Screen 3","iz3the",3,"continue","",14272,14266,14272,14272,14266,14272,1,14272,0,0,NA,"Click To Continue","Continue Button",22,"object-73","BIQ",NA,"SUPTM20104"
"11",1691236862621,"05/08/2023 12:01:02",1691240462621,1,"05/08/2023 14:01:02",139282,42,"questionnaire-uu2n",NA,31067500,9210346,NA,"complete",NA,NA,"computer","Desktop or Laptop","Windows 10","Chrome 114.0.0.0","1707x792","1707x786",NA,NA,NA,"BIQ (Charlotte)",2,"In","BCADJEIFHG","","study_2 (video_feedback and feedback_list_2)","VF_1st","In","Spreadsheet1","Spreadsheet1",1,"BIQ","Screen 3","iz3the",3,"response","0",9183,14266,14278,9183,14266,14278,1,9183,5095,0,NA,"Rating Scale","Rating Scale",2,"object-53","BIQ",NA,"SUPTM20104"
"12",1691236862623,"05/08/2023 12:01:02",1691240462623,1,"05/08/2023 14:01:02",139282,42,"questionnaire-uu2n",NA,31067500,9210346,NA,"complete",NA,NA,"computer","Desktop or Laptop","Windows 10","Chrome 114.0.0.0","1707x792","1707x786",NA,NA,NA,"BIQ (Charlotte)",2,"In","BCADJEIFHG","","study_2 (video_feedback and feedback_list_2)","VF_1st","In","Spreadsheet1","Spreadsheet1",1,"BIQ","Screen 3","iz3the",3,"response","2",10499,14266,14281,10499,14266,14281,1,10499,3782,0,NA,"Rating Scale","Rating Scale",9,"object-60","BIQ",NA,"SUPTM20104"
"13",1691236862625,"05/08/2023 12:01:02",1691240462625,1,"05/08/2023 14:01:02",139282,42,"questionnaire-uu2n",NA,31067500,9210346,NA,"complete",NA,NA,"computer","Desktop or Laptop","Windows 10","Chrome 114.0.0.0","1707x792","1707x786",NA,NA,NA,"BIQ (Charlotte)",2,"In","BCADJEIFHG","","study_2 (video_feedback and feedback_list_2)","VF_1st","In","Spreadsheet1","Spreadsheet1",1,"BIQ","Screen 3","iz3the",3,"response","0",12366,14266,14283,12366,14266,14283,1,12366,1917,0,NA,"Rating Scale","Rating Scale",16,"object-67","BIQ",NA,"SUPTM20104"
"14",1691236862641,"05/08/2023 12:01:02",1691240462641,1,"05/08/2023 14:01:02",139282,42,"questionnaire-uu2n",NA,31067500,9210346,NA,"complete",NA,NA,"computer","Desktop or Laptop","Windows 10","Chrome 114.0.0.0","1707x792","1707x786",NA,NA,NA,"BIQ (Charlotte)",2,"In","BCADJEIFHG","","study_2 (video_feedback and feedback_list_2)","VF_1st","In","Spreadsheet1","Spreadsheet1",NA,"","","",NA,"5","END",NA,NA,NA,NA,NA,NA,0,NA,NA,NA,NA,"","",NA,"","",NA,"SUPTM20104"
"1",1691229264721,"05/08/2023 09:54:24",1691232864721,1,"05/08/2023 11:54:24",139282,42,"questionnaire-uu2n",NA,31066079,9210157,NA,"complete",NA,NA,"computer","Desktop or Laptop","Windows 10","Chrome 115.0.0.0","1280x720","1280x595",NA,NA,NA,"BIQ (Charlotte)",2,"In","ABJCIDHEGF","A (JV first)","study_1 (JV and feedback_list_1)","","In","Spreadsheet1","Spreadsheet1",NA,"","","",NA,"5","BEGIN",NA,NA,NA,NA,NA,NA,0,NA,NA,NA,NA,"","",NA,"","",NA,"SUPTM01588"
"2",1691229294155,"05/08/2023 09:54:54",1691232894155,1,"05/08/2023 11:54:54",139282,42,"questionnaire-uu2n",NA,31066079,9210157,NA,"complete",NA,NA,"computer","Desktop or Laptop","Windows 10","Chrome 115.0.0.0","1280x720","1280x595",NA,NA,NA,"BIQ (Charlotte)",2,"In","ABJCIDHEGF","A (JV first)","study_1 (JV and feedback_list_1)","","In","Spreadsheet1","Spreadsheet1",1,"BIQ","Screen 1","9dh6eq",1,"continue","",29444.385,29427.882,29444.385,29444.385,29427.882,29444.385,1,29444.385,0,0,NA,"Click To Continue","Continue Button",23,"object-48","BIQ",NA,"SUPTM01588"
"3",1691229294159,"05/08/2023 09:54:54",1691232894159,1,"05/08/2023 11:54:54",139282,42,"questionnaire-uu2n",NA,31066079,9210157,NA,"complete",NA,NA,"computer","Desktop or Laptop","Windows 10","Chrome 115.0.0.0","1280x720","1280x595",NA,NA,NA,"BIQ (Charlotte)",2,"In","ABJCIDHEGF","A (JV first)","study_1 (JV and feedback_list_1)","","In","Spreadsheet1","Spreadsheet1",1,"BIQ","Screen 1","9dh6eq",1,"response","7",10731.556,29427.882,29444.385,10731.556,29427.882,29444.385,1,10731.556,18712.829,0,NA,"Rating Scale","Rating Scale",3,"object-5","BIQ",NA,"SUPTM01588"
"4",1691229294160,"05/08/2023 09:54:54",1691232894160,1,"05/08/2023 11:54:54",139282,42,"questionnaire-uu2n",NA,31066079,9210157,NA,"complete",NA,NA,"computer","Desktop or Laptop","Windows 10","Chrome 115.0.0.0","1280x720","1280x595",NA,NA,NA,"BIQ (Charlotte)",2,"In","ABJCIDHEGF","A (JV first)","study_1 (JV and feedback_list_1)","","In","Spreadsheet1","Spreadsheet1",1,"BIQ","Screen 1","9dh6eq",1,"response","5",18196.778,29427.882,29444.385,18196.778,29427.882,29444.385,1,18196.778,11247.607,0,NA,"Rating Scale","Rating Scale",10,"object-18","BIQ",NA,"SUPTM01588"
"5",1691229294161,"05/08/2023 09:54:54",1691232894161,1,"05/08/2023 11:54:54",139282,42,"questionnaire-uu2n",NA,31066079,9210157,NA,"complete",NA,NA,"computer","Desktop or Laptop","Windows 10","Chrome 115.0.0.0","1280x720","1280x595",NA,NA,NA,"BIQ (Charlotte)",2,"In","ABJCIDHEGF","A (JV first)","study_1 (JV and feedback_list_1)","","In","Spreadsheet1","Spreadsheet1",1,"BIQ","Screen 1","9dh6eq",1,"response","2",28344.751,29427.882,29444.385,28344.751,29427.882,29444.385,1,28344.751,1099.634,0,NA,"Rating Scale","Rating Scale",17,"object-80","BIQ",NA,"SUPTM01588"
"6",1691229333297,"05/08/2023 09:55:33",1691232933297,1,"05/08/2023 11:55:33",139282,42,"questionnaire-uu2n",NA,31066079,9210157,NA,"complete",NA,NA,"computer","Desktop or Laptop","Windows 10","Chrome 115.0.0.0","1280x720","1280x595",NA,NA,NA,"BIQ (Charlotte)",2,"In","ABJCIDHEGF","A (JV first)","study_1 (JV and feedback_list_1)","","In","Spreadsheet1","Spreadsheet1",1,"BIQ","Screen 2","o21mwi",2,"continue","",39159.297,39142.444,39159.297,39159.297,39142.444,39159.297,1,39159.297,0,0,NA,"Click To Continue","Continue Button",22,"object-50","BIQ",NA,"SUPTM01588"
"7",1691229333304,"05/08/2023 09:55:33",1691232933304,1,"05/08/2023 11:55:33",139282,42,"questionnaire-uu2n",NA,31066079,9210157,NA,"complete",NA,NA,"computer","Desktop or Laptop","Windows 10","Chrome 115.0.0.0","1280x720","1280x595",NA,NA,NA,"BIQ (Charlotte)",2,"In","ABJCIDHEGF","A (JV first)","study_1 (JV and feedback_list_1)","","In","Spreadsheet1","Spreadsheet1",1,"BIQ","Screen 2","o21mwi",2,"response","5",7115.251,39142.444,39159.297,7115.251,39142.444,39159.297,1,7115.251,32044.046,0,NA,"Rating Scale","Rating Scale",2,"object-259","BIQ",NA,"SUPTM01588"
"8",1691229333305,"05/08/2023 09:55:33",1691232933305,1,"05/08/2023 11:55:33",139282,42,"questionnaire-uu2n",NA,31066079,9210157,NA,"complete",NA,NA,"computer","Desktop or Laptop","Windows 10","Chrome 115.0.0.0","1280x720","1280x595",NA,NA,NA,"BIQ (Charlotte)",2,"In","ABJCIDHEGF","A (JV first)","study_1 (JV and feedback_list_1)","","In","Spreadsheet1","Spreadsheet1",1,"BIQ","Screen 2","o21mwi",2,"response","4",12464.188,39142.444,39159.297,12464.188,39142.444,39159.297,1,12464.188,26695.109,0,NA,"Rating Scale","Rating Scale",9,"object-36","BIQ",NA,"SUPTM01588"
"9",1691229333307,"05/08/2023 09:55:33",1691232933307,1,"05/08/2023 11:55:33",139282,42,"questionnaire-uu2n",NA,31066079,9210157,NA,"complete",NA,NA,"computer","Desktop or Laptop","Windows 10","Chrome 115.0.0.0","1280x720","1280x595",NA,NA,NA,"BIQ (Charlotte)",2,"In","ABJCIDHEGF","A (JV first)","study_1 (JV and feedback_list_1)","","In","Spreadsheet1","Spreadsheet1",1,"BIQ","Screen 2","o21mwi",2,"response","0",37992.496,39142.444,39159.297,37992.496,39142.444,39159.297,1,37992.496,1166.80100000001,0,NA,"Rating Scale","Rating Scale",16,"object-86","BIQ",NA,"SUPTM01588"
"10",1691229344994,"05/08/2023 09:55:44",1691232944994,1,"05/08/2023 11:55:44",139282,42,"questionnaire-uu2n",NA,31066079,9210157,NA,"complete",NA,NA,"computer","Desktop or Laptop","Windows 10","Chrome 115.0.0.0","1280x720","1280x595",NA,NA,NA,"BIQ (Charlotte)",2,"In","ABJCIDHEGF","A (JV first)","study_1 (JV and feedback_list_1)","","In","Spreadsheet1","Spreadsheet1",1,"BIQ","Screen 3","iz3the",3,"continue","",11714.623,11697.771,11714.623,11714.623,11697.771,11714.623,1,11714.623,0,0,NA,"Click To Continue","Continue Button",22,"object-73","BIQ",NA,"SUPTM01588"
"11",1691229344996,"05/08/2023 09:55:44",1691232944996,1,"05/08/2023 11:55:44",139282,42,"questionnaire-uu2n",NA,31066079,9210157,NA,"complete",NA,NA,"computer","Desktop or Laptop","Windows 10","Chrome 115.0.0.0","1280x720","1280x595",NA,NA,NA,"BIQ (Charlotte)",2,"In","ABJCIDHEGF","A (JV first)","study_1 (JV and feedback_list_1)","","In","Spreadsheet1","Spreadsheet1",1,"BIQ","Screen 3","iz3the",3,"response","2",4482.25,11697.771,11714.623,4482.25,11697.771,11714.623,1,4482.25,7232.37299999999,0,NA,"Rating Scale","Rating Scale",2,"object-53","BIQ",NA,"SUPTM01588"
"12",1691229344996,"05/08/2023 09:55:44",1691232944996,1,"05/08/2023 11:55:44",139282,42,"questionnaire-uu2n",NA,31066079,9210157,NA,"complete",NA,NA,"computer","Desktop or Laptop","Windows 10","Chrome 115.0.0.0","1280x720","1280x595",NA,NA,NA,"BIQ (Charlotte)",2,"In","ABJCIDHEGF","A (JV first)","study_1 (JV and feedback_list_1)","","In","Spreadsheet1","Spreadsheet1",1,"BIQ","Screen 3","iz3the",3,"response","4",7065.08,11697.771,11714.623,7065.08,11697.771,11714.623,1,7065.08,4649.54299999999,0,NA,"Rating Scale","Rating Scale",9,"object-60","BIQ",NA,"SUPTM01588"
"13",1691229344997,"05/08/2023 09:55:44",1691232944997,1,"05/08/2023 11:55:44",139282,42,"questionnaire-uu2n",NA,31066079,9210157,NA,"complete",NA,NA,"computer","Desktop or Laptop","Windows 10","Chrome 115.0.0.0","1280x720","1280x595",NA,NA,NA,"BIQ (Charlotte)",2,"In","ABJCIDHEGF","A (JV first)","study_1 (JV and feedback_list_1)","","In","Spreadsheet1","Spreadsheet1",1,"BIQ","Screen 3","iz3the",3,"response","2",10431.135,11697.771,11714.623,10431.135,11697.771,11714.623,1,10431.135,1283.488,0,NA,"Rating Scale","Rating Scale",16,"object-67","BIQ",NA,"SUPTM01588"
"14",1691229345000,"05/08/2023 09:55:45",1691232945000,1,"05/08/2023 11:55:45",139282,42,"questionnaire-uu2n",NA,31066079,9210157,NA,"complete",NA,NA,"computer","Desktop or Laptop","Windows 10","Chrome 115.0.0.0","1280x720","1280x595",NA,NA,NA,"BIQ (Charlotte)",2,"In","ABJCIDHEGF","A (JV first)","study_1 (JV and feedback_list_1)","","In","Spreadsheet1","Spreadsheet1",NA,"","","",NA,"5","END",NA,NA,NA,NA,NA,NA,0,NA,NA,NA,NA,"","",NA,"","",NA,"SUPTM01588"
"1",1691096600254,"03/08/2023 21:03:20",1691100200254,1,"03/08/2023 23:03:20",139282,42,"questionnaire-uu2n",NA,31043274,9205048,NA,"complete",NA,NA,"computer","Desktop or Laptop","Windows 10","Chrome 115.0.0.0","1280x720","1280x571",NA,NA,NA,"BIQ (Charlotte)",2,"In","JAIBHCGDFE","","study_2 (video_feedback and feedback_list_2)","Feedback_ranking_L2_first","In","Spreadsheet1","Spreadsheet1",NA,"","","",NA,"5","BEGIN",NA,NA,NA,NA,NA,NA,0,NA,NA,NA,NA,"","",NA,"","",NA,"SUPTM79155"
"2",1691096676793,"03/08/2023 21:04:36",1691100276793,1,"03/08/2023 23:04:36",139282,42,"questionnaire-uu2n",NA,31043274,9205048,NA,"complete",NA,NA,"computer","Desktop or Laptop","Windows 10","Chrome 115.0.0.0","1280x720","1280x571",NA,NA,NA,"BIQ (Charlotte)",2,"In","JAIBHCGDFE","","study_2 (video_feedback and feedback_list_2)","Feedback_ranking_L2_first","In","Spreadsheet1","Spreadsheet1",1,"BIQ","Screen 1","9dh6eq",1,"continue","",76549.89,76533.344,76549.89,76549.89,76533.344,76549.89,1,76549.89,0,0,NA,"Click To Continue","Continue Button",23,"object-48","BIQ",NA,"SUPTM79155"
"3",1691096676796,"03/08/2023 21:04:36",1691100276796,1,"03/08/2023 23:04:36",139282,42,"questionnaire-uu2n",NA,31043274,9205048,NA,"complete",NA,NA,"computer","Desktop or Laptop","Windows 10","Chrome 115.0.0.0","1280x720","1280x571",NA,NA,NA,"BIQ (Charlotte)",2,"In","JAIBHCGDFE","","study_2 (video_feedback and feedback_list_2)","Feedback_ranking_L2_first","In","Spreadsheet1","Spreadsheet1",1,"BIQ","Screen 1","9dh6eq",1,"response","6",20873.638,76533.344,76549.89,20873.638,76533.344,76549.89,1,20873.638,55676.252,0,NA,"Rating Scale","Rating Scale",3,"object-5","BIQ",NA,"SUPTM79155"
"4",1691096676796,"03/08/2023 21:04:36",1691100276796,1,"03/08/2023 23:04:36",139282,42,"questionnaire-uu2n",NA,31043274,9205048,NA,"complete",NA,NA,"computer","Desktop or Laptop","Windows 10","Chrome 115.0.0.0","1280x720","1280x571",NA,NA,NA,"BIQ (Charlotte)",2,"In","JAIBHCGDFE","","study_2 (video_feedback and feedback_list_2)","Feedback_ranking_L2_first","In","Spreadsheet1","Spreadsheet1",1,"BIQ","Screen 1","9dh6eq",1,"response","6",56602.38,76533.344,76549.89,56602.38,76533.344,76549.89,1,56602.38,19947.51,0,NA,"Rating Scale","Rating Scale",10,"object-18","BIQ",NA,"SUPTM79155"
"5",1691096676797,"03/08/2023 21:04:36",1691100276797,1,"03/08/2023 23:04:36",139282,42,"questionnaire-uu2n",NA,31043274,9205048,NA,"complete",NA,NA,"computer","Desktop or Laptop","Windows 10","Chrome 115.0.0.0","1280x720","1280x571",NA,NA,NA,"BIQ (Charlotte)",2,"In","JAIBHCGDFE","","study_2 (video_feedback and feedback_list_2)","Feedback_ranking_L2_first","In","Spreadsheet1","Spreadsheet1",1,"BIQ","Screen 1","9dh6eq",1,"response","1",75716.552,76533.344,76549.89,75716.552,76533.344,76549.89,1,75716.552,833.338000000003,0,NA,"Rating Scale","Rating Scale",17,"object-80","BIQ",NA,"SUPTM79155"
"6",1691096705428,"03/08/2023 21:05:05",1691100305428,1,"03/08/2023 23:05:05",139282,42,"questionnaire-uu2n",NA,31043274,9205048,NA,"complete",NA,NA,"computer","Desktop or Laptop","Windows 10","Chrome 115.0.0.0","1280x720","1280x571",NA,NA,NA,"BIQ (Charlotte)",2,"In","JAIBHCGDFE","","study_2 (video_feedback and feedback_list_2)","Feedback_ranking_L2_first","In","Spreadsheet1","Spreadsheet1",1,"BIQ","Screen 2","o21mwi",2,"continue","",28655.4230000015,28646.311,28655.4230000015,28655.4230000015,28646.311,28655.4230000015,1,28655.4230000015,0,0,NA,"Click To Continue","Continue Button",22,"object-50","BIQ",NA,"SUPTM79155"
"7",1691096705430,"03/08/2023 21:05:05",1691100305430,1,"03/08/2023 23:05:05",139282,42,"questionnaire-uu2n",NA,31043274,9205048,NA,"complete",NA,NA,"computer","Desktop or Laptop","Windows 10","Chrome 115.0.0.0","1280x720","1280x571",NA,NA,NA,"BIQ (Charlotte)",2,"In","JAIBHCGDFE","","study_2 (video_feedback and feedback_list_2)","Feedback_ranking_L2_first","In","Spreadsheet1","Spreadsheet1",1,"BIQ","Screen 2","o21mwi",2,"response","8",4449.236,28646.311,28657.323,4449.236,28646.311,28657.323,1,4449.236,24208.087,0,NA,"Rating Scale","Rating Scale",2,"object-259","BIQ",NA,"SUPTM79155"
"8",1691096705430,"03/08/2023 21:05:05",1691100305430,1,"03/08/2023 23:05:05",139282,42,"questionnaire-uu2n",NA,31043274,9205048,NA,"complete",NA,NA,"computer","Desktop or Laptop","Windows 10","Chrome 115.0.0.0","1280x720","1280x571",NA,NA,NA,"BIQ (Charlotte)",2,"In","JAIBHCGDFE","","study_2 (video_feedback and feedback_list_2)","Feedback_ranking_L2_first","In","Spreadsheet1","Spreadsheet1",1,"BIQ","Screen 2","o21mwi",2,"response","1",10331.823,28646.311,28657.823,10331.823,28646.311,28657.823,1,10331.823,18326,0,NA,"Rating Scale","Rating Scale",9,"object-36","BIQ",NA,"SUPTM79155"
"9",1691096705431,"03/08/2023 21:05:05",1691100305431,1,"03/08/2023 23:05:05",139282,42,"questionnaire-uu2n",NA,31043274,9205048,NA,"complete",NA,NA,"computer","Desktop or Laptop","Windows 10","Chrome 115.0.0.0","1280x720","1280x571",NA,NA,NA,"BIQ (Charlotte)",2,"In","JAIBHCGDFE","","study_2 (video_feedback and feedback_list_2)","Feedback_ranking_L2_first","In","Spreadsheet1","Spreadsheet1",1,"BIQ","Screen 2","o21mwi",2,"response","2",26746.37,28646.311,28658.223000006,26746.37,28646.311,28658.223000006,1,26746.37,1911.85300000595,0,NA,"Rating Scale","Rating Scale",16,"object-86","BIQ",NA,"SUPTM79155"
"10",1691096733022,"03/08/2023 21:05:33",1691100333022,1,"03/08/2023 23:05:33",139282,42,"questionnaire-uu2n",NA,31043274,9205048,NA,"complete",NA,NA,"computer","Desktop or Laptop","Windows 10","Chrome 115.0.0.0","1280x720","1280x571",NA,NA,NA,"BIQ (Charlotte)",2,"In","JAIBHCGDFE","","study_2 (video_feedback and feedback_list_2)","Feedback_ranking_L2_first","In","Spreadsheet1","Spreadsheet1",1,"BIQ","Screen 3","iz3the",3,"continue","",27603.512,27596.354,27603.512,27603.512,27596.354,27603.512,1,27603.512,0,0,NA,"Click To Continue","Continue Button",22,"object-73","BIQ",NA,"SUPTM79155"
"11",1691096733025,"03/08/2023 21:05:33",1691100333025,1,"03/08/2023 23:05:33",139282,42,"questionnaire-uu2n",NA,31043274,9205048,NA,"complete",NA,NA,"computer","Desktop or Laptop","Windows 10","Chrome 115.0.0.0","1280x720","1280x571",NA,NA,NA,"BIQ (Charlotte)",2,"In","JAIBHCGDFE","","study_2 (video_feedback and feedback_list_2)","Feedback_ranking_L2_first","In","Spreadsheet1","Spreadsheet1",1,"BIQ","Screen 3","iz3the",3,"response","0",10531.787,27596.354,27605.912000006,10531.787,27596.354,27605.912000006,1,10531.787,17074.125000006,0,NA,"Rating Scale","Rating Scale",2,"object-53","BIQ",NA,"SUPTM79155"
"12",1691096733025,"03/08/2023 21:05:33",1691100333025,1,"03/08/2023 23:05:33",139282,42,"questionnaire-uu2n",NA,31043274,9205048,NA,"complete",NA,NA,"computer","Desktop or Laptop","Windows 10","Chrome 115.0.0.0","1280x720","1280x571",NA,NA,NA,"BIQ (Charlotte)",2,"In","JAIBHCGDFE","","study_2 (video_feedback and feedback_list_2)","Feedback_ranking_L2_first","In","Spreadsheet1","Spreadsheet1",1,"BIQ","Screen 3","iz3the",3,"response","0",17880.856,27596.354,27606.512,17880.856,27596.354,27606.512,1,17880.856,9725.656,0,NA,"Rating Scale","Rating Scale",9,"object-60","BIQ",NA,"SUPTM79155"
"13",1691096733026,"03/08/2023 21:05:33",1691100333026,1,"03/08/2023 23:05:33",139282,42,"questionnaire-uu2n",NA,31043274,9205048,NA,"complete",NA,NA,"computer","Desktop or Laptop","Windows 10","Chrome 115.0.0.0","1280x720","1280x571",NA,NA,NA,"BIQ (Charlotte)",2,"In","JAIBHCGDFE","","study_2 (video_feedback and feedback_list_2)","Feedback_ranking_L2_first","In","Spreadsheet1","Spreadsheet1",1,"BIQ","Screen 3","iz3the",3,"response","4",21397.074,27596.354,27606.912000006,21397.074,27596.354,27606.912000006,1,21397.074,6209.83800000596,0,NA,"Rating Scale","Rating Scale",16,"object-67","BIQ",NA,"SUPTM79155"
"14",1691096733032,"03/08/2023 21:05:33",1691100333032,1,"03/08/2023 23:05:33",139282,42,"questionnaire-uu2n",NA,31043274,9205048,NA,"complete",NA,NA,"computer","Desktop or Laptop","Windows 10","Chrome 115.0.0.0","1280x720","1280x571",NA,NA,NA,"BIQ (Charlotte)",2,"In","JAIBHCGDFE","","study_2 (video_feedback and feedback_list_2)","Feedback_ranking_L2_first","In","Spreadsheet1","Spreadsheet1",NA,"","","",NA,"5","END",NA,NA,NA,NA,NA,NA,0,NA,NA,NA,NA,"","",NA,"","",NA,"SUPTM79155"
"1",1691077514498,"03/08/2023 15:45:14",1691081114498,1,"03/08/2023 17:45:14",139282,42,"questionnaire-uu2n",NA,31037092,9203593,NA,"complete",NA,NA,"computer","Desktop or Laptop","Windows 10","Chrome 115.0.0.0","2562x1332","2560x1325",NA,NA,NA,"BIQ (Charlotte)",2,"In","IJHAGBFCED","B (Feedback ranking_L1 First)","study_1 (JV and feedback_list_1)","","In","Spreadsheet1","Spreadsheet1",NA,"","","",NA,"5","BEGIN",NA,NA,NA,NA,NA,NA,0,NA,NA,NA,NA,"","",NA,"","",NA,"SUPTM91602"
"2",1691077535687,"03/08/2023 15:45:35",1691081135687,1,"03/08/2023 17:45:35",139282,42,"questionnaire-uu2n",NA,31037092,9203593,NA,"complete",NA,NA,"computer","Desktop or Laptop","Windows 10","Chrome 115.0.0.0","2562x1332","2560x1325",NA,NA,NA,"BIQ (Charlotte)",2,"In","IJHAGBFCED","B (Feedback ranking_L1 First)","study_1 (JV and feedback_list_1)","","In","Spreadsheet1","Spreadsheet1",1,"BIQ","Screen 1","9dh6eq",1,"continue","",21191,21189,21191,21191,21189,21191,1,21191,0,0,NA,"Click To Continue","Continue Button",23,"object-48","BIQ",NA,"SUPTM91602"
"3",1691077535688,"03/08/2023 15:45:35",1691081135688,1,"03/08/2023 17:45:35",139282,42,"questionnaire-uu2n",NA,31037092,9203593,NA,"complete",NA,NA,"computer","Desktop or Laptop","Windows 10","Chrome 115.0.0.0","2562x1332","2560x1325",NA,NA,NA,"BIQ (Charlotte)",2,"In","IJHAGBFCED","B (Feedback ranking_L1 First)","study_1 (JV and feedback_list_1)","","In","Spreadsheet1","Spreadsheet1",1,"BIQ","Screen 1","9dh6eq",1,"response","7",10091,21189,21193,10091,21189,21193,1,10091,11102,0,NA,"Rating Scale","Rating Scale",3,"object-5","BIQ",NA,"SUPTM91602"
"4",1691077535688,"03/08/2023 15:45:35",1691081135688,1,"03/08/2023 17:45:35",139282,42,"questionnaire-uu2n",NA,31037092,9203593,NA,"complete",NA,NA,"computer","Desktop or Laptop","Windows 10","Chrome 115.0.0.0","2562x1332","2560x1325",NA,NA,NA,"BIQ (Charlotte)",2,"In","IJHAGBFCED","B (Feedback ranking_L1 First)","study_1 (JV and feedback_list_1)","","In","Spreadsheet1","Spreadsheet1",1,"BIQ","Screen 1","9dh6eq",1,"response","5",16994,21189,21193,16994,21189,21193,1,16994,4199,0,NA,"Rating Scale","Rating Scale",10,"object-18","BIQ",NA,"SUPTM91602"
"5",1691077535689,"03/08/2023 15:45:35",1691081135689,1,"03/08/2023 17:45:35",139282,42,"questionnaire-uu2n",NA,31037092,9203593,NA,"complete",NA,NA,"computer","Desktop or Laptop","Windows 10","Chrome 115.0.0.0","2562x1332","2560x1325",NA,NA,NA,"BIQ (Charlotte)",2,"In","IJHAGBFCED","B (Feedback ranking_L1 First)","study_1 (JV and feedback_list_1)","","In","Spreadsheet1","Spreadsheet1",1,"BIQ","Screen 1","9dh6eq",1,"response","7",20161,21189,21193,20161,21189,21193,1,20161,1032,0,NA,"Rating Scale","Rating Scale",17,"object-80","BIQ",NA,"SUPTM91602"
"6",1691077551411,"03/08/2023 15:45:51",1691081151411,1,"03/08/2023 17:45:51",139282,42,"questionnaire-uu2n",NA,31037092,9203593,NA,"complete",NA,NA,"computer","Desktop or Laptop","Windows 10","Chrome 115.0.0.0","2562x1332","2560x1325",NA,NA,NA,"BIQ (Charlotte)",2,"In","IJHAGBFCED","B (Feedback ranking_L1 First)","study_1 (JV and feedback_list_1)","","In","Spreadsheet1","Spreadsheet1",1,"BIQ","Screen 2","o21mwi",2,"continue","",15727,15724,15727,15727,15724,15727,1,15727,0,0,NA,"Click To Continue","Continue Button",22,"object-50","BIQ",NA,"SUPTM91602"
"7",1691077551413,"03/08/2023 15:45:51",1691081151413,1,"03/08/2023 17:45:51",139282,42,"questionnaire-uu2n",NA,31037092,9203593,NA,"complete",NA,NA,"computer","Desktop or Laptop","Windows 10","Chrome 115.0.0.0","2562x1332","2560x1325",NA,NA,NA,"BIQ (Charlotte)",2,"In","IJHAGBFCED","B (Feedback ranking_L1 First)","study_1 (JV and feedback_list_1)","","In","Spreadsheet1","Spreadsheet1",1,"BIQ","Screen 2","o21mwi",2,"response","7",7785,15724,15728,7785,15724,15728,1,7785,7943,0,NA,"Rating Scale","Rating Scale",2,"object-259","BIQ",NA,"SUPTM91602"
"8",1691077551413,"03/08/2023 15:45:51",1691081151413,1,"03/08/2023 17:45:51",139282,42,"questionnaire-uu2n",NA,31037092,9203593,NA,"complete",NA,NA,"computer","Desktop or Laptop","Windows 10","Chrome 115.0.0.0","2562x1332","2560x1325",NA,NA,NA,"BIQ (Charlotte)",2,"In","IJHAGBFCED","B (Feedback ranking_L1 First)","study_1 (JV and feedback_list_1)","","In","Spreadsheet1","Spreadsheet1",1,"BIQ","Screen 2","o21mwi",2,"response","1",10841,15724,15728,10841,15724,15728,1,10841,4887,0,NA,"Rating Scale","Rating Scale",9,"object-36","BIQ",NA,"SUPTM91602"
"9",1691077551413,"03/08/2023 15:45:51",1691081151413,1,"03/08/2023 17:45:51",139282,42,"questionnaire-uu2n",NA,31037092,9203593,NA,"complete",NA,NA,"computer","Desktop or Laptop","Windows 10","Chrome 115.0.0.0","2562x1332","2560x1325",NA,NA,NA,"BIQ (Charlotte)",2,"In","IJHAGBFCED","B (Feedback ranking_L1 First)","study_1 (JV and feedback_list_1)","","In","Spreadsheet1","Spreadsheet1",1,"BIQ","Screen 2","o21mwi",2,"response","2",13446,15724,15728,13446,15724,15728,1,13446,2282,0,NA,"Rating Scale","Rating Scale",16,"object-86","BIQ",NA,"SUPTM91602"
"10",1691077560811,"03/08/2023 15:46:00",1691081160811,1,"03/08/2023 17:46:00",139282,42,"questionnaire-uu2n",NA,31037092,9203593,NA,"complete",NA,NA,"computer","Desktop or Laptop","Windows 10","Chrome 115.0.0.0","2562x1332","2560x1325",NA,NA,NA,"BIQ (Charlotte)",2,"In","IJHAGBFCED","B (Feedback ranking_L1 First)","study_1 (JV and feedback_list_1)","","In","Spreadsheet1","Spreadsheet1",1,"BIQ","Screen 3","iz3the",3,"continue","",9402,9396,9402,9402,9396,9402,1,9402,0,0,NA,"Click To Continue","Continue Button",22,"object-73","BIQ",NA,"SUPTM91602"
"11",1691077560811,"03/08/2023 15:46:00",1691081160811,1,"03/08/2023 17:46:00",139282,42,"questionnaire-uu2n",NA,31037092,9203593,NA,"complete",NA,NA,"computer","Desktop or Laptop","Windows 10","Chrome 115.0.0.0","2562x1332","2560x1325",NA,NA,NA,"BIQ (Charlotte)",2,"In","IJHAGBFCED","B (Feedback ranking_L1 First)","study_1 (JV and feedback_list_1)","","In","Spreadsheet1","Spreadsheet1",1,"BIQ","Screen 3","iz3the",3,"response","0",4514,9396,9402,4514,9396,9402,1,4514,4888,0,NA,"Rating Scale","Rating Scale",2,"object-53","BIQ",NA,"SUPTM91602"
"12",1691077560811,"03/08/2023 15:46:00",1691081160811,1,"03/08/2023 17:46:00",139282,42,"questionnaire-uu2n",NA,31037092,9203593,NA,"complete",NA,NA,"computer","Desktop or Laptop","Windows 10","Chrome 115.0.0.0","2562x1332","2560x1325",NA,NA,NA,"BIQ (Charlotte)",2,"In","IJHAGBFCED","B (Feedback ranking_L1 First)","study_1 (JV and feedback_list_1)","","In","Spreadsheet1","Spreadsheet1",1,"BIQ","Screen 3","iz3the",3,"response","1",5826,9396,9403,5826,9396,9403,1,5826,3577,0,NA,"Rating Scale","Rating Scale",9,"object-60","BIQ",NA,"SUPTM91602"
"13",1691077560811,"03/08/2023 15:46:00",1691081160811,1,"03/08/2023 17:46:00",139282,42,"questionnaire-uu2n",NA,31037092,9203593,NA,"complete",NA,NA,"computer","Desktop or Laptop","Windows 10","Chrome 115.0.0.0","2562x1332","2560x1325",NA,NA,NA,"BIQ (Charlotte)",2,"In","IJHAGBFCED","B (Feedback ranking_L1 First)","study_1 (JV and feedback_list_1)","","In","Spreadsheet1","Spreadsheet1",1,"BIQ","Screen 3","iz3the",3,"response","0",8632,9396,9403,8632,9396,9403,1,8632,771,0,NA,"Rating Scale","Rating Scale",16,"object-67","BIQ",NA,"SUPTM91602"
"14",1691077560813,"03/08/2023 15:46:00",1691081160813,1,"03/08/2023 17:46:00",139282,42,"questionnaire-uu2n",NA,31037092,9203593,NA,"complete",NA,NA,"computer","Desktop or Laptop","Windows 10","Chrome 115.0.0.0","2562x1332","2560x1325",NA,NA,NA,"BIQ (Charlotte)",2,"In","IJHAGBFCED","B (Feedback ranking_L1 First)","study_1 (JV and feedback_list_1)","","In","Spreadsheet1","Spreadsheet1",NA,"","","",NA,"5","END",NA,NA,NA,NA,NA,NA,0,NA,NA,NA,NA,"","",NA,"","",NA,"SUPTM91602"
"1",1690979438407,"02/08/2023 12:30:38",1690983038407,1,"02/08/2023 14:30:38",139282,42,"questionnaire-uu2n",NA,31005622,9196981,NA,"complete",NA,NA,"computer","Desktop or Laptop","Chromium OS 14541.0.0","Chrome 114.0.0.0","1241x697","1194x627",NA,NA,NA,"BIQ (Charlotte)",2,"In","FGEHDICJBA","","study_2 (video_feedback and feedback_list_2)","Feedback_ranking_L2_first","In","Spreadsheet1","Spreadsheet1",NA,"","","",NA,"5","BEGIN",NA,NA,NA,NA,NA,NA,0,NA,NA,NA,NA,"","",NA,"","",NA,"SUPTM66122"
"2",1690979513838,"02/08/2023 12:31:53",1690983113838,1,"02/08/2023 14:31:53",139282,42,"questionnaire-uu2n",NA,31005622,9196981,NA,"complete",NA,NA,"computer","Desktop or Laptop","Chromium OS 14541.0.0","Chrome 114.0.0.0","1241x697","1194x627",NA,NA,NA,"BIQ (Charlotte)",2,"In","FGEHDICJBA","","study_2 (video_feedback and feedback_list_2)","Feedback_ranking_L2_first","In","Spreadsheet1","Spreadsheet1",1,"BIQ","Screen 1","9dh6eq",1,"continue","",75455.268,75438.594,75455.268,75455.268,75438.594,75455.268,1,75455.268,0,0,NA,"Click To Continue","Continue Button",23,"object-48","BIQ",NA,"SUPTM66122"
"3",1690979513855,"02/08/2023 12:31:53",1690983113855,1,"02/08/2023 14:31:53",139282,42,"questionnaire-uu2n",NA,31005622,9196981,NA,"complete",NA,NA,"computer","Desktop or Laptop","Chromium OS 14541.0.0","Chrome 114.0.0.0","1241x697","1194x627",NA,NA,NA,"BIQ (Charlotte)",2,"In","FGEHDICJBA","","study_2 (video_feedback and feedback_list_2)","Feedback_ranking_L2_first","In","Spreadsheet1","Spreadsheet1",1,"BIQ","Screen 1","9dh6eq",1,"response","5",53610.721,75438.594,75455.268,53610.721,75438.594,75455.268,1,53610.721,21844.547,0,NA,"Rating Scale","Rating Scale",3,"object-5","BIQ",NA,"SUPTM66122"
"4",1690979513857,"02/08/2023 12:31:53",1690983113857,1,"02/08/2023 14:31:53",139282,42,"questionnaire-uu2n",NA,31005622,9196981,NA,"complete",NA,NA,"computer","Desktop or Laptop","Chromium OS 14541.0.0","Chrome 114.0.0.0","1241x697","1194x627",NA,NA,NA,"BIQ (Charlotte)",2,"In","FGEHDICJBA","","study_2 (video_feedback and feedback_list_2)","Feedback_ranking_L2_first","In","Spreadsheet1","Spreadsheet1",1,"BIQ","Screen 1","9dh6eq",1,"response","4",67701.315,75438.594,75455.268,67701.315,75438.594,75455.268,1,67701.315,7753.95300000001,0,NA,"Rating Scale","Rating Scale",10,"object-18","BIQ",NA,"SUPTM66122"
"5",1690979513859,"02/08/2023 12:31:53",1690983113859,1,"02/08/2023 14:31:53",139282,42,"questionnaire-uu2n",NA,31005622,9196981,NA,"complete",NA,NA,"computer","Desktop or Laptop","Chromium OS 14541.0.0","Chrome 114.0.0.0","1241x697","1194x627",NA,NA,NA,"BIQ (Charlotte)",2,"In","FGEHDICJBA","","study_2 (video_feedback and feedback_list_2)","Feedback_ranking_L2_first","In","Spreadsheet1","Spreadsheet1",1,"BIQ","Screen 1","9dh6eq",1,"response","4",72570.424,75438.594,75455.268,72570.424,75438.594,75455.268,1,72570.424,2884.844,0,NA,"Rating Scale","Rating Scale",17,"object-80","BIQ",NA,"SUPTM66122"
"6",1690979539121,"02/08/2023 12:32:19",1690983139121,1,"02/08/2023 14:32:19",139282,42,"questionnaire-uu2n",NA,31005622,9196981,NA,"complete",NA,NA,"computer","Desktop or Laptop","Chromium OS 14541.0.0","Chrome 114.0.0.0","1241x697","1194x627",NA,NA,NA,"BIQ (Charlotte)",2,"In","FGEHDICJBA","","study_2 (video_feedback and feedback_list_2)","Feedback_ranking_L2_first","In","Spreadsheet1","Spreadsheet1",1,"BIQ","Screen 2","o21mwi",2,"continue","",25320.113,25313.205,25320.113,25320.113,25313.205,25320.113,1,25320.113,0,0,NA,"Click To Continue","Continue Button",22,"object-50","BIQ",NA,"SUPTM66122"
"7",1690979539135,"02/08/2023 12:32:19",1690983139135,1,"02/08/2023 14:32:19",139282,42,"questionnaire-uu2n",NA,31005622,9196981,NA,"complete",NA,NA,"computer","Desktop or Laptop","Chromium OS 14541.0.0","Chrome 114.0.0.0","1241x697","1194x627",NA,NA,NA,"BIQ (Charlotte)",2,"In","FGEHDICJBA","","study_2 (video_feedback and feedback_list_2)","Feedback_ranking_L2_first","In","Spreadsheet1","Spreadsheet1",1,"BIQ","Screen 2","o21mwi",2,"response","7",4252.30499999999,25313.205,25329.879,4252.30499999999,25313.205,25329.879,1,4252.30499999999,21077.574,0,NA,"Rating Scale","Rating Scale",2,"object-259","BIQ",NA,"SUPTM66122"
"8",1690979539139,"02/08/2023 12:32:19",1690983139139,1,"02/08/2023 14:32:19",139282,42,"questionnaire-uu2n",NA,31005622,9196981,NA,"complete",NA,NA,"computer","Desktop or Laptop","Chromium OS 14541.0.0","Chrome 114.0.0.0","1241x697","1194x627",NA,NA,NA,"BIQ (Charlotte)",2,"In","FGEHDICJBA","","study_2 (video_feedback and feedback_list_2)","Feedback_ranking_L2_first","In","Spreadsheet1","Spreadsheet1",1,"BIQ","Screen 2","o21mwi",2,"response","4",8154.22899999999,25313.205,25329.879,8154.22899999999,25313.205,25329.879,1,8154.22899999999,17175.65,0,NA,"Rating Scale","Rating Scale",9,"object-36","BIQ",NA,"SUPTM66122"
"9",1690979539143,"02/08/2023 12:32:19",1690983139143,1,"02/08/2023 14:32:19",139282,42,"questionnaire-uu2n",NA,31005622,9196981,NA,"complete",NA,NA,"computer","Desktop or Laptop","Chromium OS 14541.0.0","Chrome 114.0.0.0","1241x697","1194x627",NA,NA,NA,"BIQ (Charlotte)",2,"In","FGEHDICJBA","","study_2 (video_feedback and feedback_list_2)","Feedback_ranking_L2_first","In","Spreadsheet1","Spreadsheet1",1,"BIQ","Screen 2","o21mwi",2,"response","6",22778.497,25313.205,25329.879,22778.497,25313.205,25329.879,1,22778.497,2551.38200000003,0,NA,"Rating Scale","Rating Scale",16,"object-86","BIQ",NA,"SUPTM66122"
"10",1690979560019,"02/08/2023 12:32:40",1690983160019,1,"02/08/2023 14:32:40",139282,42,"questionnaire-uu2n",NA,31005622,9196981,NA,"complete",NA,NA,"computer","Desktop or Laptop","Chromium OS 14541.0.0","Chrome 114.0.0.0","1241x697","1194x627",NA,NA,NA,"BIQ (Charlotte)",2,"In","FGEHDICJBA","","study_2 (video_feedback and feedback_list_2)","Feedback_ranking_L2_first","In","Spreadsheet1","Spreadsheet1",1,"BIQ","Screen 3","iz3the",3,"continue","",20904.208,20893.696,20904.208,20904.208,20893.696,20904.208,1,20904.208,0,0,NA,"Click To Continue","Continue Button",22,"object-73","BIQ",NA,"SUPTM66122"
"11",1690979560035,"02/08/2023 12:32:40",1690983160035,1,"02/08/2023 14:32:40",139282,42,"questionnaire-uu2n",NA,31005622,9196981,NA,"complete",NA,NA,"computer","Desktop or Laptop","Chromium OS 14541.0.0","Chrome 114.0.0.0","1241x697","1194x627",NA,NA,NA,"BIQ (Charlotte)",2,"In","FGEHDICJBA","","study_2 (video_feedback and feedback_list_2)","Feedback_ranking_L2_first","In","Spreadsheet1","Spreadsheet1",1,"BIQ","Screen 3","iz3the",3,"response","2",8387.511,20893.696,20910.37,8387.511,20893.696,20910.37,1,8387.511,12522.859,0,NA,"Rating Scale","Rating Scale",2,"object-53","BIQ",NA,"SUPTM66122"
"12",1690979560037,"02/08/2023 12:32:40",1690983160037,1,"02/08/2023 14:32:40",139282,42,"questionnaire-uu2n",NA,31005622,9196981,NA,"complete",NA,NA,"computer","Desktop or Laptop","Chromium OS 14541.0.0","Chrome 114.0.0.0","1241x697","1194x627",NA,NA,NA,"BIQ (Charlotte)",2,"In","FGEHDICJBA","","study_2 (video_feedback and feedback_list_2)","Feedback_ranking_L2_first","In","Spreadsheet1","Spreadsheet1",1,"BIQ","Screen 3","iz3the",3,"response","3",12589.594,20893.696,20910.37,12589.594,20893.696,20910.37,1,12589.594,8320.776,0,NA,"Rating Scale","Rating Scale",9,"object-60","BIQ",NA,"SUPTM66122"
"13",1690979560039,"02/08/2023 12:32:40",1690983160039,1,"02/08/2023 14:32:40",139282,42,"questionnaire-uu2n",NA,31005622,9196981,NA,"complete",NA,NA,"computer","Desktop or Laptop","Chromium OS 14541.0.0","Chrome 114.0.0.0","1241x697","1194x627",NA,NA,NA,"BIQ (Charlotte)",2,"In","FGEHDICJBA","","study_2 (video_feedback and feedback_list_2)","Feedback_ranking_L2_first","In","Spreadsheet1","Spreadsheet1",1,"BIQ","Screen 3","iz3the",3,"response","1",16791.767,20893.696,20910.37,16791.767,20893.696,20910.37,1,16791.767,4118.603,0,NA,"Rating Scale","Rating Scale",16,"object-67","BIQ",NA,"SUPTM66122"
"14",1690979560058,"02/08/2023 12:32:40",1690983160058,1,"02/08/2023 14:32:40",139282,42,"questionnaire-uu2n",NA,31005622,9196981,NA,"complete",NA,NA,"computer","Desktop or Laptop","Chromium OS 14541.0.0","Chrome 114.0.0.0","1241x697","1194x627",NA,NA,NA,"BIQ (Charlotte)",2,"In","FGEHDICJBA","","study_2 (video_feedback and feedback_list_2)","Feedback_ranking_L2_first","In","Spreadsheet1","Spreadsheet1",NA,"","","",NA,"5","END",NA,NA,NA,NA,NA,NA,0,NA,NA,NA,NA,"","",NA,"","",NA,"SUPTM66122"
"1",1690970327947,"02/08/2023 09:58:47",1690973927947,1,"02/08/2023 11:58:47",139282,42,"questionnaire-uu2n",NA,31000592,9196035,NA,"complete",NA,NA,"computer","Desktop or Laptop","Windows 10","Chrome 115.0.0.0","1920x1080","1920x969",NA,NA,NA,"BIQ (Charlotte)",2,"In","EFDGCHBIAJ","A (JV first)","study_1 (JV and feedback_list_1)","","In","Spreadsheet1","Spreadsheet1",NA,"","","",NA,"5","BEGIN",NA,NA,NA,NA,NA,NA,0,NA,NA,NA,NA,"","",NA,"","",NA,"SUPTM52921"
"2",1690970376137,"02/08/2023 09:59:36",1690973976137,1,"02/08/2023 11:59:36",139282,42,"questionnaire-uu2n",NA,31000592,9196035,NA,"complete",NA,NA,"computer","Desktop or Laptop","Windows 10","Chrome 115.0.0.0","1920x1080","1920x969",NA,NA,NA,"BIQ (Charlotte)",2,"In","EFDGCHBIAJ","A (JV first)","study_1 (JV and feedback_list_1)","","In","Spreadsheet1","Spreadsheet1",1,"BIQ","Screen 1","9dh6eq",1,"continue","",48194.478,48188.39,48194.478,48194.478,48188.39,48194.478,1,48194.478,0,0,NA,"Click To Continue","Continue Button",23,"object-48","BIQ",NA,"SUPTM52921"
"3",1690970376139,"02/08/2023 09:59:36",1690973976139,1,"02/08/2023 11:59:36",139282,42,"questionnaire-uu2n",NA,31000592,9196035,NA,"complete",NA,NA,"computer","Desktop or Laptop","Windows 10","Chrome 115.0.0.0","1920x1080","1920x969",NA,NA,NA,"BIQ (Charlotte)",2,"In","EFDGCHBIAJ","A (JV first)","study_1 (JV and feedback_list_1)","","In","Spreadsheet1","Spreadsheet1",1,"BIQ","Screen 1","9dh6eq",1,"response","4",11812.107,48188.39,48194.478,11812.107,48188.39,48194.478,1,11812.107,36382.371,0,NA,"Rating Scale","Rating Scale",3,"object-5","BIQ",NA,"SUPTM52921"
"4",1690970376140,"02/08/2023 09:59:36",1690973976140,1,"02/08/2023 11:59:36",139282,42,"questionnaire-uu2n",NA,31000592,9196035,NA,"complete",NA,NA,"computer","Desktop or Laptop","Windows 10","Chrome 115.0.0.0","1920x1080","1920x969",NA,NA,NA,"BIQ (Charlotte)",2,"In","EFDGCHBIAJ","A (JV first)","study_1 (JV and feedback_list_1)","","In","Spreadsheet1","Spreadsheet1",1,"BIQ","Screen 1","9dh6eq",1,"response","6",33877.96,48188.39,48194.478,33877.96,48188.39,48194.478,1,33877.96,14316.518,0,NA,"Rating Scale","Rating Scale",10,"object-18","BIQ",NA,"SUPTM52921"
"5",1690970376140,"02/08/2023 09:59:36",1690973976140,1,"02/08/2023 11:59:36",139282,42,"questionnaire-uu2n",NA,31000592,9196035,NA,"complete",NA,NA,"computer","Desktop or Laptop","Windows 10","Chrome 115.0.0.0","1920x1080","1920x969",NA,NA,NA,"BIQ (Charlotte)",2,"In","EFDGCHBIAJ","A (JV first)","study_1 (JV and feedback_list_1)","","In","Spreadsheet1","Spreadsheet1",1,"BIQ","Screen 1","9dh6eq",1,"response","1",47321.28,48188.39,48194.478,47321.28,48188.39,48194.478,1,47321.28,873.198000000004,0,NA,"Rating Scale","Rating Scale",17,"object-80","BIQ",NA,"SUPTM52921"
"6",1690970407603,"02/08/2023 10:00:07",1690974007603,1,"02/08/2023 12:00:07",139282,42,"questionnaire-uu2n",NA,31000592,9196035,NA,"complete",NA,NA,"computer","Desktop or Laptop","Windows 10","Chrome 115.0.0.0","1920x1080","1920x969",NA,NA,NA,"BIQ (Charlotte)",2,"In","EFDGCHBIAJ","A (JV first)","study_1 (JV and feedback_list_1)","","In","Spreadsheet1","Spreadsheet1",1,"BIQ","Screen 2","o21mwi",2,"continue","",31476.73,31470.674,31476.73,31476.73,31470.674,31476.73,1,31476.73,0,0,NA,"Click To Continue","Continue Button",22,"object-50","BIQ",NA,"SUPTM52921"
"7",1690970407606,"02/08/2023 10:00:07",1690974007606,1,"02/08/2023 12:00:07",139282,42,"questionnaire-uu2n",NA,31000592,9196035,NA,"complete",NA,NA,"computer","Desktop or Laptop","Windows 10","Chrome 115.0.0.0","1920x1080","1920x969",NA,NA,NA,"BIQ (Charlotte)",2,"In","EFDGCHBIAJ","A (JV first)","study_1 (JV and feedback_list_1)","","In","Spreadsheet1","Spreadsheet1",1,"BIQ","Screen 2","o21mwi",2,"response","7",7300.63,31470.674,31476.73,7300.63,31470.674,31476.73,1,7300.63,24176.1,0,NA,"Rating Scale","Rating Scale",2,"object-259","BIQ",NA,"SUPTM52921"
"8",1690970407606,"02/08/2023 10:00:07",1690974007606,1,"02/08/2023 12:00:07",139282,42,"questionnaire-uu2n",NA,31000592,9196035,NA,"complete",NA,NA,"computer","Desktop or Laptop","Windows 10","Chrome 115.0.0.0","1920x1080","1920x969",NA,NA,NA,"BIQ (Charlotte)",2,"In","EFDGCHBIAJ","A (JV first)","study_1 (JV and feedback_list_1)","","In","Spreadsheet1","Spreadsheet1",1,"BIQ","Screen 2","o21mwi",2,"response","2",19537.189,31470.674,31476.73,19537.189,31470.674,31476.73,1,19537.189,11939.541,0,NA,"Rating Scale","Rating Scale",9,"object-36","BIQ",NA,"SUPTM52921"
"9",1690970407607,"02/08/2023 10:00:07",1690974007607,1,"02/08/2023 12:00:07",139282,42,"questionnaire-uu2n",NA,31000592,9196035,NA,"complete",NA,NA,"computer","Desktop or Laptop","Windows 10","Chrome 115.0.0.0","1920x1080","1920x969",NA,NA,NA,"BIQ (Charlotte)",2,"In","EFDGCHBIAJ","A (JV first)","study_1 (JV and feedback_list_1)","","In","Spreadsheet1","Spreadsheet1",1,"BIQ","Screen 2","o21mwi",2,"response","2",27692.893,31470.674,31476.73,27692.893,31470.674,31476.73,1,27692.893,3783.837,0,NA,"Rating Scale","Rating Scale",16,"object-86","BIQ",NA,"SUPTM52921"
"10",1690970433251,"02/08/2023 10:00:33",1690974033251,1,"02/08/2023 12:00:33",139282,42,"questionnaire-uu2n",NA,31000592,9196035,NA,"complete",NA,NA,"computer","Desktop or Laptop","Windows 10","Chrome 115.0.0.0","1920x1080","1920x969",NA,NA,NA,"BIQ (Charlotte)",2,"In","EFDGCHBIAJ","A (JV first)","study_1 (JV and feedback_list_1)","","In","Spreadsheet1","Spreadsheet1",1,"BIQ","Screen 3","iz3the",3,"continue","",25654.4850000119,25649.578,25654.4850000119,25654.4850000119,25649.578,25654.4850000119,1,25654.4850000119,0,0,NA,"Click To Continue","Continue Button",22,"object-73","BIQ",NA,"SUPTM52921"
"11",1690970433254,"02/08/2023 10:00:33",1690974033254,1,"02/08/2023 12:00:33",139282,42,"questionnaire-uu2n",NA,31000592,9196035,NA,"complete",NA,NA,"computer","Desktop or Laptop","Windows 10","Chrome 115.0.0.0","1920x1080","1920x969",NA,NA,NA,"BIQ (Charlotte)",2,"In","EFDGCHBIAJ","A (JV first)","study_1 (JV and feedback_list_1)","","In","Spreadsheet1","Spreadsheet1",1,"BIQ","Screen 3","iz3the",3,"response","0",6324.36599999999,25649.578,25655.615,6324.36599999999,25649.578,25655.615,1,6324.36599999999,19331.249,0,NA,"Rating Scale","Rating Scale",2,"object-53","BIQ",NA,"SUPTM52921"
"12",1690970433254,"02/08/2023 10:00:33",1690974033254,1,"02/08/2023 12:00:33",139282,42,"questionnaire-uu2n",NA,31000592,9196035,NA,"complete",NA,NA,"computer","Desktop or Laptop","Windows 10","Chrome 115.0.0.0","1920x1080","1920x969",NA,NA,NA,"BIQ (Charlotte)",2,"In","EFDGCHBIAJ","A (JV first)","study_1 (JV and feedback_list_1)","","In","Spreadsheet1","Spreadsheet1",1,"BIQ","Screen 3","iz3the",3,"response","0",11672.643,25649.578,25655.615,11672.643,25649.578,25655.615,1,11672.643,13982.972,0,NA,"Rating Scale","Rating Scale",9,"object-60","BIQ",NA,"SUPTM52921"
"13",1690970433255,"02/08/2023 10:00:33",1690974033255,1,"02/08/2023 12:00:33",139282,42,"questionnaire-uu2n",NA,31000592,9196035,NA,"complete",NA,NA,"computer","Desktop or Laptop","Windows 10","Chrome 115.0.0.0","1920x1080","1920x969",NA,NA,NA,"BIQ (Charlotte)",2,"In","EFDGCHBIAJ","A (JV first)","study_1 (JV and feedback_list_1)","","In","Spreadsheet1","Spreadsheet1",1,"BIQ","Screen 3","iz3the",3,"response","1",14437.685,25649.578,25655.615,14437.685,25649.578,25655.615,1,14437.685,11217.93,0,NA,"Rating Scale","Rating Scale",16,"object-67","BIQ",NA,"SUPTM52921"
"14",1690970433259,"02/08/2023 10:00:33",1690974033259,1,"02/08/2023 12:00:33",139282,42,"questionnaire-uu2n",NA,31000592,9196035,NA,"complete",NA,NA,"computer","Desktop or Laptop","Windows 10","Chrome 115.0.0.0","1920x1080","1920x969",NA,NA,NA,"BIQ (Charlotte)",2,"In","EFDGCHBIAJ","A (JV first)","study_1 (JV and feedback_list_1)","","In","Spreadsheet1","Spreadsheet1",NA,"","","",NA,"5","END",NA,NA,NA,NA,NA,NA,0,NA,NA,NA,NA,"","",NA,"","",NA,"SUPTM52921"
"1",1690960868744,"02/08/2023 07:21:08",1690964468744,1,"02/08/2023 09:21:08",139282,42,"questionnaire-uu2n",NA,30997015,9195426,NA,"complete",NA,NA,"computer","Desktop or Laptop","Windows 10","Chrome 115.0.0.0","1200x800","1200x651",NA,NA,NA,"BIQ (Charlotte)",2,"In","DECFBGAHJI","","study_2 (video_feedback and feedback_list_2)","Feedback_ranking_L2_first","In","Spreadsheet1","Spreadsheet1",NA,"","","",NA,"5","BEGIN",NA,NA,NA,NA,NA,NA,0,NA,NA,NA,NA,"","",NA,"","",NA,"SUPTM46030"
"2",1690960892488,"02/08/2023 07:21:32",1690964492488,1,"02/08/2023 09:21:32",139282,42,"questionnaire-uu2n",NA,30997015,9195426,NA,"complete",NA,NA,"computer","Desktop or Laptop","Windows 10","Chrome 115.0.0.0","1200x800","1200x651",NA,NA,NA,"BIQ (Charlotte)",2,"In","DECFBGAHJI","","study_2 (video_feedback and feedback_list_2)","Feedback_ranking_L2_first","In","Spreadsheet1","Spreadsheet1",1,"BIQ","Screen 1","9dh6eq",1,"continue","",23764.6870000238,23752.646,23764.6870000238,23764.6870000238,23752.646,23764.6870000238,1,23764.6870000238,0,0,NA,"Click To Continue","Continue Button",23,"object-48","BIQ",NA,"SUPTM46030"
"3",1690960892492,"02/08/2023 07:21:32",1690964492492,1,"02/08/2023 09:21:32",139282,42,"questionnaire-uu2n",NA,30997015,9195426,NA,"complete",NA,NA,"computer","Desktop or Laptop","Windows 10","Chrome 115.0.0.0","1200x800","1200x651",NA,NA,NA,"BIQ (Charlotte)",2,"In","DECFBGAHJI","","study_2 (video_feedback and feedback_list_2)","Feedback_ranking_L2_first","In","Spreadsheet1","Spreadsheet1",1,"BIQ","Screen 1","9dh6eq",1,"response","3",15556.685,23752.646,23769.336,15556.685,23752.646,23769.336,1,15556.685,8212.651,0,NA,"Rating Scale","Rating Scale",3,"object-5","BIQ",NA,"SUPTM46030"
"4",1690960892493,"02/08/2023 07:21:32",1690964492493,1,"02/08/2023 09:21:32",139282,42,"questionnaire-uu2n",NA,30997015,9195426,NA,"complete",NA,NA,"computer","Desktop or Laptop","Windows 10","Chrome 115.0.0.0","1200x800","1200x651",NA,NA,NA,"BIQ (Charlotte)",2,"In","DECFBGAHJI","","study_2 (video_feedback and feedback_list_2)","Feedback_ranking_L2_first","In","Spreadsheet1","Spreadsheet1",1,"BIQ","Screen 1","9dh6eq",1,"response","0",17309.312,23752.646,23769.336,17309.312,23752.646,23769.336,1,17309.312,6460.024,0,NA,"Rating Scale","Rating Scale",10,"object-18","BIQ",NA,"SUPTM46030"
"5",1690960892494,"02/08/2023 07:21:32",1690964492494,1,"02/08/2023 09:21:32",139282,42,"questionnaire-uu2n",NA,30997015,9195426,NA,"complete",NA,NA,"computer","Desktop or Laptop","Windows 10","Chrome 115.0.0.0","1200x800","1200x651",NA,NA,NA,"BIQ (Charlotte)",2,"In","DECFBGAHJI","","study_2 (video_feedback and feedback_list_2)","Feedback_ranking_L2_first","In","Spreadsheet1","Spreadsheet1",1,"BIQ","Screen 1","9dh6eq",1,"response","7",23001.366,23752.646,23769.336,23001.366,23752.646,23769.336,1,23001.366,767.970000000005,0,NA,"Rating Scale","Rating Scale",17,"object-80","BIQ",NA,"SUPTM46030"
"6",1690960909153,"02/08/2023 07:21:49",1690964509153,1,"02/08/2023 09:21:49",139282,42,"questionnaire-uu2n",NA,30997015,9195426,NA,"complete",NA,NA,"computer","Desktop or Laptop","Windows 10","Chrome 115.0.0.0","1200x800","1200x651",NA,NA,NA,"BIQ (Charlotte)",2,"In","DECFBGAHJI","","study_2 (video_feedback and feedback_list_2)","Feedback_ranking_L2_first","In","Spreadsheet1","Spreadsheet1",1,"BIQ","Screen 2","o21mwi",2,"continue","",16687.5410000238,16674.971,16687.5410000238,16687.5410000238,16674.971,16687.5410000238,1,16687.5410000238,0,0,NA,"Click To Continue","Continue Button",22,"object-50","BIQ",NA,"SUPTM46030"
"7",1690960909162,"02/08/2023 07:21:49",1690964509162,1,"02/08/2023 09:21:49",139282,42,"questionnaire-uu2n",NA,30997015,9195426,NA,"complete",NA,NA,"computer","Desktop or Laptop","Windows 10","Chrome 115.0.0.0","1200x800","1200x651",NA,NA,NA,"BIQ (Charlotte)",2,"In","DECFBGAHJI","","study_2 (video_feedback and feedback_list_2)","Feedback_ranking_L2_first","In","Spreadsheet1","Spreadsheet1",1,"BIQ","Screen 2","o21mwi",2,"response","6",2854.15,16674.971,16691.494,2854.15,16674.971,16691.494,1,2854.15,13837.344,0,NA,"Rating Scale","Rating Scale",2,"object-259","BIQ",NA,"SUPTM46030"
