"Event.Index","UTC.Timestamp","UTC.Date.and.Time","Local.Timestamp","Local.Timezone","Local.Date.and.Time","Experiment.ID","Experiment.Version","Tree.Node.Key","Repeat.Key","Schedule.ID","Participant.Private.ID","Participant.Starting.Group","Participant.Status","Participant.Completion.Code","Participant.External.Session.ID","Participant.Device.Type","Participant.Device","Participant.OS","Participant.Browser","Participant.Monitor.Size","Participant.Viewport.Size","Checkpoint","Room.ID","Room.Order","Task.Name","Task.Version","branch.hkzp","order.ot79","randomiser.lqqr","randomiser.28m8","randomiser.tf5j","branch.vlgf","Spreadsheet","Current.Spreadsheet","Trial.Number","Display","Screen","Screen.ID","Screen.Counter","Response.Type","Response","Onset.Time","Clock.Time","Reaction.Time","Absolute.Onset.Time","Absolute.Clock.Time","Absolute.Reaction.Time","Correct","Response.Onset","Response.Duration","Proportion","Tag","Component.Name","Object.Name","Object.Number","Object.ID","Spreadsheet..display","Spreadsheet..Index","Spreadsheet..X1","Spreadsheet..X2","Spreadsheet..Display","Spreadsheet..test_response_save","Manipulation..Spreadsheet","Store..test_response_save","Random_ID"
"1",1690961236865,"02/08/2023 07:27:16",1690964836865,1,"02/08/2023 09:27:16",139282,42,"task-g4az",NA,30997042,9195426,NA,"complete",NA,NA,"computer","Desktop or Laptop","Windows 10","Chrome 115.0.0.0","1200x800","1200x651",NA,NA,NA,"Feedback Phrases Task - List 2",8,"In","DECFBGAHJI",NA,"study_2 (video_feedback and feedback_list_2)","Feedback_ranking_L2_first","In","Feedback Phrases List 2","Feedback Phrases List 2",NA,"","","",NA,"5","BEGIN",NA,NA,NA,NA,NA,NA,0,NA,NA,NA,NA,"","",NA,"",NA,NA,"","","",NA,NA,NA,"SUPTM46030"
"2",1690961252173,"02/08/2023 07:27:32",1690964852173,1,"02/08/2023 09:27:32",139282,42,"task-g4az",NA,30997042,9195426,NA,"complete",NA,NA,"computer","Desktop or Laptop","Windows 10","Chrome 115.0.0.0","1200x800","1200x651",NA,NA,NA,"Feedback Phrases Task - List 2",8,"In","DECFBGAHJI",NA,"study_2 (video_feedback and feedback_list_2)","Feedback_ranking_L2_first","In","Feedback Phrases List 2","Feedback Phrases List 2",1,"Instructions","Screen 3","6w7c99",1,"continue","",15318.261,15301.5,15318.261,15318.261,15301.5,15318.261,1,15318.261,0,0,NA,"Click To Continue","Continue Button",2,"object-29",NA,NA,"","","Instructions",NA,NA,NA,"SUPTM46030"
"3",1690961254692,"02/08/2023 07:27:34",1690964854692,1,"02/08/2023 09:27:34",139282,42,"task-g4az",NA,30997042,9195426,NA,"complete",NA,NA,"computer","Desktop or Laptop","Windows 10","Chrome 115.0.0.0","1200x800","1200x651",NA,NA,NA,"Feedback Phrases Task - List 2",8,"In","DECFBGAHJI",NA,"study_2 (video_feedback and feedback_list_2)","Feedback_ranking_L2_first","In","Feedback Phrases List 2","Feedback Phrases List 2",1,"Instructions","Screen 4","4vof69",2,"continue","",2545.37299999404,2537.429,2545.37299999404,2545.37299999404,2537.429,2545.37299999404,1,2545.37299999404,0,0,NA,"Click To Continue","Continue Button",2,"object-41",NA,NA,"","","Instructions",NA,NA,NA,"SUPTM46030"
"4",1690961258196,"02/08/2023 07:27:38",1690964858196,1,"02/08/2023 09:27:38",139282,42,"task-g4az",NA,30997042,9195426,NA,"complete",NA,NA,"computer","Desktop or Laptop","Windows 10","Chrome 115.0.0.0","1200x800","1200x651",NA,NA,NA,"Feedback Phrases Task - List 2",8,"In","DECFBGAHJI",NA,"study_2 (video_feedback and feedback_list_2)","Feedback_ranking_L2_first","In","Feedback Phrases List 2","Feedback Phrases List 2",1,"Task","Screen 1","113qg5",1,"continue","",3511.54399998808,3505.24,3511.54399998808,3511.54399998808,3505.24,3511.54399998808,1,3511.54399998808,0,0,NA,"Click To Continue","Text_left_X2",3,"object-19",NA,1,"You did what was asked of you.","You came across really well.","Task",NA,NA,NA,"SUPTM46030"
"5",1690961259960,"02/08/2023 07:27:39",1690964859960,1,"02/08/2023 09:27:39",139282,42,"task-g4az",NA,30997042,9195426,NA,"complete",NA,NA,"computer","Desktop or Laptop","Windows 10","Chrome 115.0.0.0","1200x800","1200x651",NA,NA,NA,"Feedback Phrases Task - List 2",8,"In","DECFBGAHJI",NA,"study_2 (video_feedback and feedback_list_2)","Feedback_ranking_L2_first","In","Feedback Phrases List 2","Feedback Phrases List 2",1,"Task","Screen 3","izqege",2,"continue","",1769.177,1769.177,1769.177,1769.177,1769.177,1769.177,1,1769.177,0,0,NA,"Fixation Timing","Fixation Cross",1,"object-48",NA,1,"You did what was asked of you.","You came across really well.","Task",NA,NA,NA,"SUPTM46030"
"6",1690961265564,"02/08/2023 07:27:45",1690964865564,1,"02/08/2023 09:27:45",139282,42,"task-g4az",NA,30997042,9195426,NA,"complete",NA,NA,"computer","Desktop or Laptop","Windows 10","Chrome 115.0.0.0","1200x800","1200x651",NA,NA,NA,"Feedback Phrases Task - List 2",8,"In","DECFBGAHJI",NA,"study_2 (video_feedback and feedback_list_2)","Feedback_ranking_L2_first","In","Feedback Phrases List 2","Feedback Phrases List 2",2,"Task","Screen 1","113qg5",1,"continue","",5605.427,5591.976,5605.427,5605.427,5591.976,5605.427,1,5605.427,0,0,NA,"Click To Continue","Text_left_X1",2,"object-18",NA,1,"You're very articulate.","That was perfect.","Task",NA,NA,NA,"SUPTM46030"
"7",1690961267321,"02/08/2023 07:27:47",1690964867321,1,"02/08/2023 09:27:47",139282,42,"task-g4az",NA,30997042,9195426,NA,"complete",NA,NA,"computer","Desktop or Laptop","Windows 10","Chrome 115.0.0.0","1200x800","1200x651",NA,NA,NA,"Feedback Phrases Task - List 2",8,"In","DECFBGAHJI",NA,"study_2 (video_feedback and feedback_list_2)","Feedback_ranking_L2_first","In","Feedback Phrases List 2","Feedback Phrases List 2",2,"Task","Screen 3","izqege",2,"continue","",1769.192,1769.192,1769.192,1769.192,1769.192,1769.192,1,1769.192,0,0,NA,"Fixation Timing","Fixation Cross",1,"object-48",NA,1,"You're very articulate.","That was perfect.","Task",NA,NA,NA,"SUPTM46030"
"8",1690961268788,"02/08/2023 07:27:48",1690964868788,1,"02/08/2023 09:27:48",139282,42,"task-g4az",NA,30997042,9195426,NA,"complete",NA,NA,"computer","Desktop or Laptop","Windows 10","Chrome 115.0.0.0","1200x800","1200x651",NA,NA,NA,"Feedback Phrases Task - List 2",8,"In","DECFBGAHJI",NA,"study_2 (video_feedback and feedback_list_2)","Feedback_ranking_L2_first","In","Feedback Phrases List 2","Feedback Phrases List 2",3,"Task","Screen 1","113qg5",1,"continue","",1468.55900001192,1452.19,1468.55900001192,1468.55900001192,1452.19,1468.55900001192,1,1468.55900001192,0,0,NA,"Click To Continue","Text_left_X2",3,"object-19",NA,1,"You did what was asked of you.","You appear very smart.","Task",NA,NA,NA,"SUPTM46030"
"9",1690961270542,"02/08/2023 07:27:50",1690964870542,1,"02/08/2023 09:27:50",139282,42,"task-g4az",NA,30997042,9195426,NA,"complete",NA,NA,"computer","Desktop or Laptop","Windows 10","Chrome 115.0.0.0","1200x800","1200x651",NA,NA,NA,"Feedback Phrases Task - List 2",8,"In","DECFBGAHJI",NA,"study_2 (video_feedback and feedback_list_2)","Feedback_ranking_L2_first","In","Feedback Phrases List 2","Feedback Phrases List 2",3,"Task","Screen 3","izqege",2,"continue","",1769.487,1769.487,1769.487,1769.487,1769.487,1769.487,1,1769.487,0,0,NA,"Fixation Timing","Fixation Cross",1,"object-48",NA,1,"You did what was asked of you.","You appear very smart.","Task",NA,NA,NA,"SUPTM46030"
"10",1690961276005,"02/08/2023 07:27:56",1690964876005,1,"02/08/2023 09:27:56",139282,42,"task-g4az",NA,30997042,9195426,NA,"complete",NA,NA,"computer","Desktop or Laptop","Windows 10","Chrome 115.0.0.0","1200x800","1200x651",NA,NA,NA,"Feedback Phrases Task - List 2",8,"In","DECFBGAHJI",NA,"study_2 (video_feedback and feedback_list_2)","Feedback_ranking_L2_first","In","Feedback Phrases List 2","Feedback Phrases List 2",4,"Task","Screen 1","113qg5",1,"continue","",5463.582,5458.001,5463.582,5463.582,5458.001,5463.582,1,5463.582,0,0,NA,"Click To Continue","Text_left_X1",2,"object-18",NA,1,"Excellent!","You seemed very in-control.","Task",NA,NA,NA,"SUPTM46030"
"11",1690961277770,"02/08/2023 07:27:57",1690964877770,1,"02/08/2023 09:27:57",139282,42,"task-g4az",NA,30997042,9195426,NA,"complete",NA,NA,"computer","Desktop or Laptop","Windows 10","Chrome 115.0.0.0","1200x800","1200x651",NA,NA,NA,"Feedback Phrases Task - List 2",8,"In","DECFBGAHJI",NA,"study_2 (video_feedback and feedback_list_2)","Feedback_ranking_L2_first","In","Feedback Phrases List 2","Feedback Phrases List 2",4,"Task","Screen 3","izqege",2,"continue","",1769.558,1769.558,1769.558,1769.558,1769.558,1769.558,1,1769.558,0,0,NA,"Fixation Timing","Fixation Cross",1,"object-48",NA,1,"Excellent!","You seemed very in-control.","Task",NA,NA,NA,"SUPTM46030"
"12",1690961279768,"02/08/2023 07:27:59",1690964879768,1,"02/08/2023 09:27:59",139282,42,"task-g4az",NA,30997042,9195426,NA,"complete",NA,NA,"computer","Desktop or Laptop","Windows 10","Chrome 115.0.0.0","1200x800","1200x651",NA,NA,NA,"Feedback Phrases Task - List 2",8,"In","DECFBGAHJI",NA,"study_2 (video_feedback and feedback_list_2)","Feedback_ranking_L2_first","In","Feedback Phrases List 2","Feedback Phrases List 2",5,"Task","Screen 1","113qg5",1,"continue","",1999.72299998808,1986.34,1999.72299998808,1999.72299998808,1986.34,1999.72299998808,1,1999.72299998808,0,0,NA,"Click To Continue","Text_left_X2",3,"object-19",NA,1,"That was decent.","You are really engaging when you speak.","Task",NA,NA,NA,"SUPTM46030"
"13",1690961281525,"02/08/2023 07:28:01",1690964881525,1,"02/08/2023 09:28:01",139282,42,"task-g4az",NA,30997042,9195426,NA,"complete",NA,NA,"computer","Desktop or Laptop","Windows 10","Chrome 115.0.0.0","1200x800","1200x651",NA,NA,NA,"Feedback Phrases Task - List 2",8,"In","DECFBGAHJI",NA,"study_2 (video_feedback and feedback_list_2)","Feedback_ranking_L2_first","In","Feedback Phrases List 2","Feedback Phrases List 2",5,"Task","Screen 3","izqege",2,"continue","",1769.324,1769.324,1769.324,1769.324,1769.324,1769.324,1,1769.324,0,0,NA,"Fixation Timing","Fixation Cross",1,"object-48",NA,1,"That was decent.","You are really engaging when you speak.","Task",NA,NA,NA,"SUPTM46030"
"14",1690961284702,"02/08/2023 07:28:04",1690964884702,1,"02/08/2023 09:28:04",139282,42,"task-g4az",NA,30997042,9195426,NA,"complete",NA,NA,"computer","Desktop or Laptop","Windows 10","Chrome 115.0.0.0","1200x800","1200x651",NA,NA,NA,"Feedback Phrases Task - List 2",8,"In","DECFBGAHJI",NA,"study_2 (video_feedback and feedback_list_2)","Feedback_ranking_L2_first","In","Feedback Phrases List 2","Feedback Phrases List 2",6,"Task","Screen 1","113qg5",1,"continue","",3178.25900000596,3171.405,3178.25900000596,3178.25900000596,3171.405,3178.25900000596,1,3178.25900000596,0,0,NA,"Click To Continue","Text_left_X2",3,"object-19",NA,1,"You seemed very in-control.","You appear very smart.","Task",NA,NA,NA,"SUPTM46030"
"15",1690961286466,"02/08/2023 07:28:06",1690964886466,1,"02/08/2023 09:28:06",139282,42,"task-g4az",NA,30997042,9195426,NA,"complete",NA,NA,"computer","Desktop or Laptop","Windows 10","Chrome 115.0.0.0","1200x800","1200x651",NA,NA,NA,"Feedback Phrases Task - List 2",8,"In","DECFBGAHJI",NA,"study_2 (video_feedback and feedback_list_2)","Feedback_ranking_L2_first","In","Feedback Phrases List 2","Feedback Phrases List 2",6,"Task","Screen 3","izqege",2,"continue","",1769.36599999999,1769.36599999999,1769.36599999999,1769.36599999999,1769.36599999999,1769.36599999999,1,1769.36599999999,0,0,NA,"Fixation Timing","Fixation Cross",1,"object-48",NA,1,"You seemed very in-control.","You appear very smart.","Task",NA,NA,NA,"SUPTM46030"
"16",1690961292322,"02/08/2023 07:28:12",1690964892322,1,"02/08/2023 09:28:12",139282,42,"task-g4az",NA,30997042,9195426,NA,"complete",NA,NA,"computer","Desktop or Laptop","Windows 10","Chrome 115.0.0.0","1200x800","1200x651",NA,NA,NA,"Feedback Phrases Task - List 2",8,"In","DECFBGAHJI",NA,"study_2 (video_feedback and feedback_list_2)","Feedback_ranking_L2_first","In","Feedback Phrases List 2","Feedback Phrases List 2",7,"Task","Screen 1","113qg5",1,"continue","",5856.98800000596,5842.26100000001,5856.98800000596,5856.98800000596,5842.26100000001,5856.98800000596,1,5856.98800000596,0,0,NA,"Click To Continue","Text_left_X1",2,"object-18",NA,1,"Well done!","You seemed very in-control.","Task",NA,NA,NA,"SUPTM46030"
"17",1690961294077,"02/08/2023 07:28:14",1690964894077,1,"02/08/2023 09:28:14",139282,42,"task-g4az",NA,30997042,9195426,NA,"complete",NA,NA,"computer","Desktop or Laptop","Windows 10","Chrome 115.0.0.0","1200x800","1200x651",NA,NA,NA,"Feedback Phrases Task - List 2",8,"In","DECFBGAHJI",NA,"study_2 (video_feedback and feedback_list_2)","Feedback_ranking_L2_first","In","Feedback Phrases List 2","Feedback Phrases List 2",7,"Task","Screen 3","izqege",2,"continue","",1769.043,1769.043,1769.043,1769.043,1769.043,1769.043,1,1769.043,0,0,NA,"Fixation Timing","Fixation Cross",1,"object-48",NA,1,"Well done!","You seemed very in-control.","Task",NA,NA,NA,"SUPTM46030"
"18",1690961296539,"02/08/2023 07:28:16",1690964896539,1,"02/08/2023 09:28:16",139282,42,"task-g4az",NA,30997042,9195426,NA,"complete",NA,NA,"computer","Desktop or Laptop","Windows 10","Chrome 115.0.0.0","1200x800","1200x651",NA,NA,NA,"Feedback Phrases Task - List 2",8,"In","DECFBGAHJI",NA,"study_2 (video_feedback and feedback_list_2)","Feedback_ranking_L2_first","In","Feedback Phrases List 2","Feedback Phrases List 2",8,"Task","Screen 1","113qg5",1,"continue","",2462.98399998808,2453.651,2462.98399998808,2462.98399998808,2453.651,2462.98399998808,1,2462.98399998808,0,0,NA,"Click To Continue","Text_left_X1",2,"object-18",NA,1,"That was perfect.","You seemed very in-control.","Task",NA,NA,NA,"SUPTM46030"
"19",1690961298301,"02/08/2023 07:28:18",1690964898301,1,"02/08/2023 09:28:18",139282,42,"task-g4az",NA,30997042,9195426,NA,"complete",NA,NA,"computer","Desktop or Laptop","Windows 10","Chrome 115.0.0.0","1200x800","1200x651",NA,NA,NA,"Feedback Phrases Task - List 2",8,"In","DECFBGAHJI",NA,"study_2 (video_feedback and feedback_list_2)","Feedback_ranking_L2_first","In","Feedback Phrases List 2","Feedback Phrases List 2",8,"Task","Screen 3","izqege",2,"continue","",1769.616,1769.616,1769.616,1769.616,1769.616,1769.616,1,1769.616,0,0,NA,"Fixation Timing","Fixation Cross",1,"object-48",NA,1,"That was perfect.","You seemed very in-control.","Task",NA,NA,NA,"SUPTM46030"
"20",1690961304095,"02/08/2023 07:28:24",1690964904095,1,"02/08/2023 09:28:24",139282,42,"task-g4az",NA,30997042,9195426,NA,"complete",NA,NA,"computer","Desktop or Laptop","Windows 10","Chrome 115.0.0.0","1200x800","1200x651",NA,NA,NA,"Feedback Phrases Task - List 2",8,"In","DECFBGAHJI",NA,"study_2 (video_feedback and feedback_list_2)","Feedback_ranking_L2_first","In","Feedback Phrases List 2","Feedback Phrases List 2",9,"Task","Screen 1","113qg5",1,"continue","",5795.41700000596,5791.89399999999,5795.41700000596,5795.41700000596,5791.89399999999,5795.41700000596,1,5795.41700000596,0,0,NA,"Click To Continue","Text_left_X2",3,"object-19",NA,1,"You appear very smart.","You came across really well.","Task",NA,NA,NA,"SUPTM46030"
"21",1690961305862,"02/08/2023 07:28:25",1690964905862,1,"02/08/2023 09:28:25",139282,42,"task-g4az",NA,30997042,9195426,NA,"complete",NA,NA,"computer","Desktop or Laptop","Windows 10","Chrome 115.0.0.0","1200x800","1200x651",NA,NA,NA,"Feedback Phrases Task - List 2",8,"In","DECFBGAHJI",NA,"study_2 (video_feedback and feedback_list_2)","Feedback_ranking_L2_first","In","Feedback Phrases List 2","Feedback Phrases List 2",9,"Task","Screen 3","izqege",2,"continue","",1769.48000000001,1769.48000000001,1769.48000000001,1769.48000000001,1769.48000000001,1769.48000000001,1,1769.48000000001,0,0,NA,"Fixation Timing","Fixation Cross",1,"object-48",NA,1,"You appear very smart.","You came across really well.","Task",NA,NA,NA,"SUPTM46030"
"22",1690961307091,"02/08/2023 07:28:27",1690964907091,1,"02/08/2023 09:28:27",139282,42,"task-g4az",NA,30997042,9195426,NA,"complete",NA,NA,"computer","Desktop or Laptop","Windows 10","Chrome 115.0.0.0","1200x800","1200x651",NA,NA,NA,"Feedback Phrases Task - List 2",8,"In","DECFBGAHJI",NA,"study_2 (video_feedback and feedback_list_2)","Feedback_ranking_L2_first","In","Feedback Phrases List 2","Feedback Phrases List 2",10,"Task","Screen 1","113qg5",1,"continue","",1230.54300000596,1218.694,1230.54300000596,1230.54300000596,1218.694,1230.54300000596,1,1230.54300000596,0,0,NA,"Click To Continue","Text_left_X2",3,"object-19",NA,1,"You did what was asked of you.","You're very articulate.","Task",NA,NA,NA,"SUPTM46030"
"23",1690961308850,"02/08/2023 07:28:28",1690964908850,1,"02/08/2023 09:28:28",139282,42,"task-g4az",NA,30997042,9195426,NA,"complete",NA,NA,"computer","Desktop or Laptop","Windows 10","Chrome 115.0.0.0","1200x800","1200x651",NA,NA,NA,"Feedback Phrases Task - List 2",8,"In","DECFBGAHJI",NA,"study_2 (video_feedback and feedback_list_2)","Feedback_ranking_L2_first","In","Feedback Phrases List 2","Feedback Phrases List 2",10,"Task","Screen 3","izqege",2,"continue","",1769.10399999999,1769.10399999999,1769.10399999999,1769.10399999999,1769.10399999999,1769.10399999999,1,1769.10399999999,0,0,NA,"Fixation Timing","Fixation Cross",1,"object-48",NA,1,"You did what was asked of you.","You're very articulate.","Task",NA,NA,NA,"SUPTM46030"
"24",1690961311761,"02/08/2023 07:28:31",1690964911761,1,"02/08/2023 09:28:31",139282,42,"task-g4az",NA,30997042,9195426,NA,"complete",NA,NA,"computer","Desktop or Laptop","Windows 10","Chrome 115.0.0.0","1200x800","1200x651",NA,NA,NA,"Feedback Phrases Task - List 2",8,"In","DECFBGAHJI",NA,"study_2 (video_feedback and feedback_list_2)","Feedback_ranking_L2_first","In","Feedback Phrases List 2","Feedback Phrases List 2",11,"Task","Screen 1","113qg5",1,"continue","",2911.845,2904.48300000001,2911.845,2911.845,2904.48300000001,2911.845,1,2911.845,0,0,NA,"Click To Continue","Text_left_X2",3,"object-19",NA,1,"Well done!","You're very articulate.","Task",NA,NA,NA,"SUPTM46030"
"25",1690961313524,"02/08/2023 07:28:33",1690964913524,1,"02/08/2023 09:28:33",139282,42,"task-g4az",NA,30997042,9195426,NA,"complete",NA,NA,"computer","Desktop or Laptop","Windows 10","Chrome 115.0.0.0","1200x800","1200x651",NA,NA,NA,"Feedback Phrases Task - List 2",8,"In","DECFBGAHJI",NA,"study_2 (video_feedback and feedback_list_2)","Feedback_ranking_L2_first","In","Feedback Phrases List 2","Feedback Phrases List 2",11,"Task","Screen 3","izqege",2,"continue","",1769.318,1769.318,1769.318,1769.318,1769.318,1769.318,1,1769.318,0,0,NA,"Fixation Timing","Fixation Cross",1,"object-48",NA,1,"Well done!","You're very articulate.","Task",NA,NA,NA,"SUPTM46030"
"26",1690961330605,"02/08/2023 07:28:50",1690964930605,1,"02/08/2023 09:28:50",139282,42,"task-g4az",NA,30997042,9195426,NA,"complete",NA,NA,"computer","Desktop or Laptop","Windows 10","Chrome 115.0.0.0","1200x800","1200x651",NA,NA,NA,"Feedback Phrases Task - List 2",8,"In","DECFBGAHJI",NA,"study_2 (video_feedback and feedback_list_2)","Feedback_ranking_L2_first","In","Feedback Phrases List 2","Feedback Phrases List 2",12,"Task","Screen 1","113qg5",1,"continue","",17088.643999994,17075.78,17088.643999994,17088.643999994,17075.78,17088.643999994,1,17088.643999994,0,0,NA,"Click To Continue","Text_left_X1",2,"object-18",NA,1,"I could easily picture what you were describing.","You appear very smart.","Task",NA,NA,NA,"SUPTM46030"
"27",1690961332363,"02/08/2023 07:28:52",1690964932363,1,"02/08/2023 09:28:52",139282,42,"task-g4az",NA,30997042,9195426,NA,"complete",NA,NA,"computer","Desktop or Laptop","Windows 10","Chrome 115.0.0.0","1200x800","1200x651",NA,NA,NA,"Feedback Phrases Task - List 2",8,"In","DECFBGAHJI",NA,"study_2 (video_feedback and feedback_list_2)","Feedback_ranking_L2_first","In","Feedback Phrases List 2","Feedback Phrases List 2",12,"Task","Screen 3","izqege",2,"continue","",1769.24399999999,1769.24399999999,1769.24399999999,1769.24399999999,1769.24399999999,1769.24399999999,1,1769.24399999999,0,0,NA,"Fixation Timing","Fixation Cross",1,"object-48",NA,1,"I could easily picture what you were describing.","You appear very smart.","Task",NA,NA,NA,"SUPTM46030"
"28",1690961341798,"02/08/2023 07:29:01",1690964941798,1,"02/08/2023 09:29:01",139282,42,"task-g4az",NA,30997042,9195426,NA,"complete",NA,NA,"computer","Desktop or Laptop","Windows 10","Chrome 115.0.0.0","1200x800","1200x651",NA,NA,NA,"Feedback Phrases Task - List 2",8,"In","DECFBGAHJI",NA,"study_2 (video_feedback and feedback_list_2)","Feedback_ranking_L2_first","In","Feedback Phrases List 2","Feedback Phrases List 2",13,"Task","Screen 1","113qg5",1,"continue","",9436.32000001193,9430.731,9436.32000001193,9436.32000001193,9430.731,9436.32000001193,1,9436.32000001193,0,0,NA,"Click To Continue","Text_left_X1",2,"object-18",NA,1,"Your description was very insightful.","You are really engaging when you speak.","Task",NA,NA,NA,"SUPTM46030"
"29",1690961343563,"02/08/2023 07:29:03",1690964943563,1,"02/08/2023 09:29:03",139282,42,"task-g4az",NA,30997042,9195426,NA,"complete",NA,NA,"computer","Desktop or Laptop","Windows 10","Chrome 115.0.0.0","1200x800","1200x651",NA,NA,NA,"Feedback Phrases Task - List 2",8,"In","DECFBGAHJI",NA,"study_2 (video_feedback and feedback_list_2)","Feedback_ranking_L2_first","In","Feedback Phrases List 2","Feedback Phrases List 2",13,"Task","Screen 3","izqege",2,"continue","",1769.452,1769.452,1769.452,1769.452,1769.452,1769.452,1,1769.452,0,0,NA,"Fixation Timing","Fixation Cross",1,"object-48",NA,1,"Your description was very insightful.","You are really engaging when you speak.","Task",NA,NA,NA,"SUPTM46030"
"30",1690961345675,"02/08/2023 07:29:05",1690964945675,1,"02/08/2023 09:29:05",139282,42,"task-g4az",NA,30997042,9195426,NA,"complete",NA,NA,"computer","Desktop or Laptop","Windows 10","Chrome 115.0.0.0","1200x800","1200x651",NA,NA,NA,"Feedback Phrases Task - List 2",8,"In","DECFBGAHJI",NA,"study_2 (video_feedback and feedback_list_2)","Feedback_ranking_L2_first","In","Feedback Phrases List 2","Feedback Phrases List 2",14,"Task","Screen 1","113qg5",1,"continue","",2113.53699998808,2103.303,2113.53699998808,2113.53699998808,2103.303,2113.53699998808,1,2113.53699998808,0,0,NA,"Click To Continue","Text_left_X2",3,"object-19",NA,1,"That was satisfactory.","You seemed very in-control.","Task",NA,NA,NA,"SUPTM46030"
"31",1690961347435,"02/08/2023 07:29:07",1690964947435,1,"02/08/2023 09:29:07",139282,42,"task-g4az",NA,30997042,9195426,NA,"complete",NA,NA,"computer","Desktop or Laptop","Windows 10","Chrome 115.0.0.0","1200x800","1200x651",NA,NA,NA,"Feedback Phrases Task - List 2",8,"In","DECFBGAHJI",NA,"study_2 (video_feedback and feedback_list_2)","Feedback_ranking_L2_first","In","Feedback Phrases List 2","Feedback Phrases List 2",14,"Task","Screen 3","izqege",2,"continue","",1769.361,1769.361,1769.361,1769.361,1769.361,1769.361,1,1769.361,0,0,NA,"Fixation Timing","Fixation Cross",1,"object-48",NA,1,"That was satisfactory.","You seemed very in-control.","Task",NA,NA,NA,"SUPTM46030"
"32",1690961349316,"02/08/2023 07:29:09",1690964949316,1,"02/08/2023 09:29:09",139282,42,"task-g4az",NA,30997042,9195426,NA,"complete",NA,NA,"computer","Desktop or Laptop","Windows 10","Chrome 115.0.0.0","1200x800","1200x651",NA,NA,NA,"Feedback Phrases Task - List 2",8,"In","DECFBGAHJI",NA,"study_2 (video_feedback and feedback_list_2)","Feedback_ranking_L2_first","In","Feedback Phrases List 2","Feedback Phrases List 2",15,"Task","Screen 1","113qg5",1,"continue","",1881.47300001192,1869.514,1881.47300001192,1881.47300001192,1869.514,1881.47300001192,1,1881.47300001192,0,0,NA,"Click To Continue","Text_left_X1",2,"object-18",NA,1,"You appeared very confident.","You seemed very in-control.","Task",NA,NA,NA,"SUPTM46030"
"33",1690961351074,"02/08/2023 07:29:11",1690964951074,1,"02/08/2023 09:29:11",139282,42,"task-g4az",NA,30997042,9195426,NA,"complete",NA,NA,"computer","Desktop or Laptop","Windows 10","Chrome 115.0.0.0","1200x800","1200x651",NA,NA,NA,"Feedback Phrases Task - List 2",8,"In","DECFBGAHJI",NA,"study_2 (video_feedback and feedback_list_2)","Feedback_ranking_L2_first","In","Feedback Phrases List 2","Feedback Phrases List 2",15,"Task","Screen 3","izqege",2,"continue","",1769.33100000001,1769.33100000001,1769.33100000001,1769.33100000001,1769.33100000001,1769.33100000001,1,1769.33100000001,0,0,NA,"Fixation Timing","Fixation Cross",1,"object-48",NA,1,"You appeared very confident.","You seemed very in-control.","Task",NA,NA,NA,"SUPTM46030"
"34",1690961391362,"02/08/2023 07:29:51",1690964991362,1,"02/08/2023 09:29:51",139282,42,"task-g4az",NA,30997042,9195426,NA,"complete",NA,NA,"computer","Desktop or Laptop","Windows 10","Chrome 115.0.0.0","1200x800","1200x651",NA,NA,NA,"Feedback Phrases Task - List 2",8,"In","DECFBGAHJI",NA,"study_2 (video_feedback and feedback_list_2)","Feedback_ranking_L2_first","In","Feedback Phrases List 2","Feedback Phrases List 2",16,"Task","Screen 1","113qg5",1,"continue","",40282.0279999881,40277.374,40282.0279999881,40282.0279999881,40277.374,40282.0279999881,1,40282.0279999881,0,0,NA,"Click To Continue","Text_left_X1",2,"object-18",NA,1,"I could easily picture what you were describing.","You are really engaging when you speak.","Task",NA,NA,NA,"SUPTM46030"
"35",1690961393127,"02/08/2023 07:29:53",1690964993127,1,"02/08/2023 09:29:53",139282,42,"task-g4az",NA,30997042,9195426,NA,"complete",NA,NA,"computer","Desktop or Laptop","Windows 10","Chrome 115.0.0.0","1200x800","1200x651",NA,NA,NA,"Feedback Phrases Task - List 2",8,"In","DECFBGAHJI",NA,"study_2 (video_feedback and feedback_list_2)","Feedback_ranking_L2_first","In","Feedback Phrases List 2","Feedback Phrases List 2",16,"Task","Screen 3","izqege",2,"continue","",1769.25700000001,1769.25700000001,1769.25700000001,1769.25700000001,1769.25700000001,1769.25700000001,1,1769.25700000001,0,0,NA,"Fixation Timing","Fixation Cross",1,"object-48",NA,1,"I could easily picture what you were describing.","You are really engaging when you speak.","Task",NA,NA,NA,"SUPTM46030"
"36",1690961395280,"02/08/2023 07:29:55",1690964995280,1,"02/08/2023 09:29:55",139282,42,"task-g4az",NA,30997042,9195426,NA,"complete",NA,NA,"computer","Desktop or Laptop","Windows 10","Chrome 115.0.0.0","1200x800","1200x651",NA,NA,NA,"Feedback Phrases Task - List 2",8,"In","DECFBGAHJI",NA,"study_2 (video_feedback and feedback_list_2)","Feedback_ranking_L2_first","In","Feedback Phrases List 2","Feedback Phrases List 2",17,"Task","Screen 1","113qg5",1,"continue","",2153.09700000595,2136.74599999998,2153.09700000595,2153.09700000595,2136.74599999998,2153.09700000595,1,2153.09700000595,0,0,NA,"Click To Continue","Text_left_X1",2,"object-18",NA,1,"You're very articulate.","You appeared very confident.","Task",NA,NA,NA,"SUPTM46030"
"37",1690961397033,"02/08/2023 07:29:57",1690964997033,1,"02/08/2023 09:29:57",139282,42,"task-g4az",NA,30997042,9195426,NA,"complete",NA,NA,"computer","Desktop or Laptop","Windows 10","Chrome 115.0.0.0","1200x800","1200x651",NA,NA,NA,"Feedback Phrases Task - List 2",8,"In","DECFBGAHJI",NA,"study_2 (video_feedback and feedback_list_2)","Feedback_ranking_L2_first","In","Feedback Phrases List 2","Feedback Phrases List 2",17,"Task","Screen 3","izqege",2,"continue","",1769.33799999999,1769.33799999999,1769.33799999999,1769.33799999999,1769.33799999999,1769.33799999999,1,1769.33799999999,0,0,NA,"Fixation Timing","Fixation Cross",1,"object-48",NA,1,"You're very articulate.","You appeared very confident.","Task",NA,NA,NA,"SUPTM46030"
"38",1690961398808,"02/08/2023 07:29:58",1690964998808,1,"02/08/2023 09:29:58",139282,42,"task-g4az",NA,30997042,9195426,NA,"complete",NA,NA,"computer","Desktop or Laptop","Windows 10","Chrome 115.0.0.0","1200x800","1200x651",NA,NA,NA,"Feedback Phrases Task - List 2",8,"In","DECFBGAHJI",NA,"study_2 (video_feedback and feedback_list_2)","Feedback_ranking_L2_first","In","Feedback Phrases List 2","Feedback Phrases List 2",18,"Task","Screen 1","113qg5",1,"continue","",1775.41300001193,1769.20000000001,1775.41300001193,1775.41300001193,1769.20000000001,1775.41300001193,1,1775.41300001193,0,0,NA,"Click To Continue","Text_left_X2",3,"object-19",NA,1,"That was decent.","You're very articulate.","Task",NA,NA,NA,"SUPTM46030"
"39",1690961400572,"02/08/2023 07:30:00",1690965000572,1,"02/08/2023 09:30:00",139282,42,"task-g4az",NA,30997042,9195426,NA,"complete",NA,NA,"computer","Desktop or Laptop","Windows 10","Chrome 115.0.0.0","1200x800","1200x651",NA,NA,NA,"Feedback Phrases Task - List 2",8,"In","DECFBGAHJI",NA,"study_2 (video_feedback and feedback_list_2)","Feedback_ranking_L2_first","In","Feedback Phrases List 2","Feedback Phrases List 2",18,"Task","Screen 3","izqege",2,"continue","",1769.495,1769.495,1769.495,1769.495,1769.495,1769.495,1,1769.495,0,0,NA,"Fixation Timing","Fixation Cross",1,"object-48",NA,1,"That was decent.","You're very articulate.","Task",NA,NA,NA,"SUPTM46030"
"40",1690961403278,"02/08/2023 07:30:03",1690965003278,1,"02/08/2023 09:30:03",139282,42,"task-g4az",NA,30997042,9195426,NA,"complete",NA,NA,"computer","Desktop or Laptop","Windows 10","Chrome 115.0.0.0","1200x800","1200x651",NA,NA,NA,"Feedback Phrases Task - List 2",8,"In","DECFBGAHJI",NA,"study_2 (video_feedback and feedback_list_2)","Feedback_ranking_L2_first","In","Feedback Phrases List 2","Feedback Phrases List 2",19,"Task","Screen 1","113qg5",1,"continue","",2704.04500000001,2687.36000000002,2704.04500000001,2704.04500000001,2687.36000000002,2704.04500000001,1,2704.04500000001,0,0,NA,"Click To Continue","Text_left_X2",3,"object-19",NA,1,"Well done!","You said all the right things.","Task",NA,NA,NA,"SUPTM46030"
"41",1690961405029,"02/08/2023 07:30:05",1690965005029,1,"02/08/2023 09:30:05",139282,42,"task-g4az",NA,30997042,9195426,NA,"complete",NA,NA,"computer","Desktop or Laptop","Windows 10","Chrome 115.0.0.0","1200x800","1200x651",NA,NA,NA,"Feedback Phrases Task - List 2",8,"In","DECFBGAHJI",NA,"study_2 (video_feedback and feedback_list_2)","Feedback_ranking_L2_first","In","Feedback Phrases List 2","Feedback Phrases List 2",19,"Task","Screen 3","izqege",2,"continue","",1769.299,1769.299,1769.299,1769.299,1769.299,1769.299,1,1769.299,0,0,NA,"Fixation Timing","Fixation Cross",1,"object-48",NA,1,"Well done!","You said all the right things.","Task",NA,NA,NA,"SUPTM46030"
"42",1690961406897,"02/08/2023 07:30:06",1690965006897,1,"02/08/2023 09:30:06",139282,42,"task-g4az",NA,30997042,9195426,NA,"complete",NA,NA,"computer","Desktop or Laptop","Windows 10","Chrome 115.0.0.0","1200x800","1200x651",NA,NA,NA,"Feedback Phrases Task - List 2",8,"In","DECFBGAHJI",NA,"study_2 (video_feedback and feedback_list_2)","Feedback_ranking_L2_first","In","Feedback Phrases List 2","Feedback Phrases List 2",20,"Task","Screen 1","113qg5",1,"continue","",1869.05900001191,1852.71399999998,1869.05900001191,1869.05900001191,1852.71399999998,1869.05900001191,1,1869.05900001191,0,0,NA,"Click To Continue","Text_left_X2",3,"object-19",NA,1,"That was satisfactory.","That was perfect.","Task",NA,NA,NA,"SUPTM46030"
"43",1690961408651,"02/08/2023 07:30:08",1690965008651,1,"02/08/2023 09:30:08",139282,42,"task-g4az",NA,30997042,9195426,NA,"complete",NA,NA,"computer","Desktop or Laptop","Windows 10","Chrome 115.0.0.0","1200x800","1200x651",NA,NA,NA,"Feedback Phrases Task - List 2",8,"In","DECFBGAHJI",NA,"study_2 (video_feedback and feedback_list_2)","Feedback_ranking_L2_first","In","Feedback Phrases List 2","Feedback Phrases List 2",20,"Task","Screen 3","izqege",2,"continue","",1769.48300000001,1769.48300000001,1769.48300000001,1769.48300000001,1769.48300000001,1769.48300000001,1,1769.48300000001,0,0,NA,"Fixation Timing","Fixation Cross",1,"object-48",NA,1,"That was satisfactory.","That was perfect.","Task",NA,NA,NA,"SUPTM46030"
"44",1690961414608,"02/08/2023 07:30:14",1690965014608,1,"02/08/2023 09:30:14",139282,42,"task-g4az",NA,30997042,9195426,NA,"complete",NA,NA,"computer","Desktop or Laptop","Windows 10","Chrome 115.0.0.0","1200x800","1200x651",NA,NA,NA,"Feedback Phrases Task - List 2",8,"In","DECFBGAHJI",NA,"study_2 (video_feedback and feedback_list_2)","Feedback_ranking_L2_first","In","Feedback Phrases List 2","Feedback Phrases List 2",21,"Task","Screen 1","113qg5",1,"continue","",5958.36200001193,5942.245,5958.36200001193,5958.36200001193,5942.245,5958.36200001193,1,5958.36200001193,0,0,NA,"Click To Continue","Text_left_X1",2,"object-18",NA,1,"I could easily picture what you were describing.","Your description was very insightful.","Task",NA,NA,NA,"SUPTM46030"
"45",1690961416362,"02/08/2023 07:30:16",1690965016362,1,"02/08/2023 09:30:16",139282,42,"task-g4az",NA,30997042,9195426,NA,"complete",NA,NA,"computer","Desktop or Laptop","Windows 10","Chrome 115.0.0.0","1200x800","1200x651",NA,NA,NA,"Feedback Phrases Task - List 2",8,"In","DECFBGAHJI",NA,"study_2 (video_feedback and feedback_list_2)","Feedback_ranking_L2_first","In","Feedback Phrases List 2","Feedback Phrases List 2",21,"Task","Screen 3","izqege",2,"continue","",1769.37000000002,1769.37000000002,1769.37000000002,1769.37000000002,1769.37000000002,1769.37000000002,1,1769.37000000002,0,0,NA,"Fixation Timing","Fixation Cross",1,"object-48",NA,1,"I could easily picture what you were describing.","Your description was very insightful.","Task",NA,NA,NA,"SUPTM46030"
"46",1690961419578,"02/08/2023 07:30:19",1690965019578,1,"02/08/2023 09:30:19",139282,42,"task-g4az",NA,30997042,9195426,NA,"complete",NA,NA,"computer","Desktop or Laptop","Windows 10","Chrome 115.0.0.0","1200x800","1200x651",NA,NA,NA,"Feedback Phrases Task - List 2",8,"In","DECFBGAHJI",NA,"study_2 (video_feedback and feedback_list_2)","Feedback_ranking_L2_first","In","Feedback Phrases List 2","Feedback Phrases List 2",22,"Task","Screen 1","113qg5",1,"continue","",3216.84700000595,3204.73899999997,3216.84700000595,3216.84700000595,3204.73899999997,3216.84700000595,1,3216.84700000595,0,0,NA,"Click To Continue","Text_left_X1",2,"object-18",NA,1,"Well done!","You appeared very confident.","Task",NA,NA,NA,"SUPTM46030"
"47",1690961421337,"02/08/2023 07:30:21",1690965021337,1,"02/08/2023 09:30:21",139282,42,"task-g4az",NA,30997042,9195426,NA,"complete",NA,NA,"computer","Desktop or Laptop","Windows 10","Chrome 115.0.0.0","1200x800","1200x651",NA,NA,NA,"Feedback Phrases Task - List 2",8,"In","DECFBGAHJI",NA,"study_2 (video_feedback and feedback_list_2)","Feedback_ranking_L2_first","In","Feedback Phrases List 2","Feedback Phrases List 2",22,"Task","Screen 3","izqege",2,"continue","",1769.45700000002,1769.45700000002,1769.45700000002,1769.45700000002,1769.45700000002,1769.45700000002,1,1769.45700000002,0,0,NA,"Fixation Timing","Fixation Cross",1,"object-48",NA,1,"Well done!","You appeared very confident.","Task",NA,NA,NA,"SUPTM46030"
"48",1690961447985,"02/08/2023 07:30:47",1690965047985,1,"02/08/2023 09:30:47",139282,42,"task-g4az",NA,30997042,9195426,NA,"complete",NA,NA,"computer","Desktop or Laptop","Windows 10","Chrome 115.0.0.0","1200x800","1200x651",NA,NA,NA,"Feedback Phrases Task - List 2",8,"In","DECFBGAHJI",NA,"study_2 (video_feedback and feedback_list_2)","Feedback_ranking_L2_first","In","Feedback Phrases List 2","Feedback Phrases List 2",23,"Task","Screen 1","113qg5",1,"continue","",26649.1510000059,26640.151,26649.1510000059,26649.1510000059,26640.151,26649.1510000059,1,26649.1510000059,0,0,NA,"Click To Continue","Text_left_X1",2,"object-18",NA,1,"You said all the right things.","You appear very smart.","Task",NA,NA,NA,"SUPTM46030"
"49",1690961449742,"02/08/2023 07:30:49",1690965049742,1,"02/08/2023 09:30:49",139282,42,"task-g4az",NA,30997042,9195426,NA,"complete",NA,NA,"computer","Desktop or Laptop","Windows 10","Chrome 115.0.0.0","1200x800","1200x651",NA,NA,NA,"Feedback Phrases Task - List 2",8,"In","DECFBGAHJI",NA,"study_2 (video_feedback and feedback_list_2)","Feedback_ranking_L2_first","In","Feedback Phrases List 2","Feedback Phrases List 2",23,"Task","Screen 3","izqege",2,"continue","",1769.21799999999,1769.21799999999,1769.21799999999,1769.21799999999,1769.21799999999,1769.21799999999,1,1769.21799999999,0,0,NA,"Fixation Timing","Fixation Cross",1,"object-48",NA,1,"You said all the right things.","You appear very smart.","Task",NA,NA,NA,"SUPTM46030"
"50",1690961451246,"02/08/2023 07:30:51",1690965051246,1,"02/08/2023 09:30:51",139282,42,"task-g4az",NA,30997042,9195426,NA,"complete",NA,NA,"computer","Desktop or Laptop","Windows 10","Chrome 115.0.0.0","1200x800","1200x651",NA,NA,NA,"Feedback Phrases Task - List 2",8,"In","DECFBGAHJI",NA,"study_2 (video_feedback and feedback_list_2)","Feedback_ranking_L2_first","In","Feedback Phrases List 2","Feedback Phrases List 2",24,"Task","Screen 1","113qg5",1,"continue","",1505.38200000001,1502.18700000001,1505.38200000001,1505.38200000001,1502.18700000001,1505.38200000001,1,1505.38200000001,0,0,NA,"Click To Continue","Text_left_X2",3,"object-19",NA,1,"You did what was asked of you.","I could easily picture what you were describing.","Task",NA,NA,NA,"SUPTM46030"
"51",1690961453013,"02/08/2023 07:30:53",1690965053013,1,"02/08/2023 09:30:53",139282,42,"task-g4az",NA,30997042,9195426,NA,"complete",NA,NA,"computer","Desktop or Laptop","Windows 10","Chrome 115.0.0.0","1200x800","1200x651",NA,NA,NA,"Feedback Phrases Task - List 2",8,"In","DECFBGAHJI",NA,"study_2 (video_feedback and feedback_list_2)","Feedback_ranking_L2_first","In","Feedback Phrases List 2","Feedback Phrases List 2",24,"Task","Screen 3","izqege",2,"continue","",1769.28700000001,1769.28700000001,1769.28700000001,1769.28700000001,1769.28700000001,1769.28700000001,1,1769.28700000001,0,0,NA,"Fixation Timing","Fixation Cross",1,"object-48",NA,1,"You did what was asked of you.","I could easily picture what you were describing.","Task",NA,NA,NA,"SUPTM46030"
"52",1690961454562,"02/08/2023 07:30:54",1690965054562,1,"02/08/2023 09:30:54",139282,42,"task-g4az",NA,30997042,9195426,NA,"complete",NA,NA,"computer","Desktop or Laptop","Windows 10","Chrome 115.0.0.0","1200x800","1200x651",NA,NA,NA,"Feedback Phrases Task - List 2",8,"In","DECFBGAHJI",NA,"study_2 (video_feedback and feedback_list_2)","Feedback_ranking_L2_first","In","Feedback Phrases List 2","Feedback Phrases List 2",25,"Task","Screen 1","113qg5",1,"continue","",1549.70800001192,1535.98199999999,1549.70800001192,1549.70800001192,1535.98199999999,1549.70800001192,1,1549.70800001192,0,0,NA,"Click To Continue","Text_left_X1",2,"object-18",NA,1,"I could easily picture what you were describing.","You appeared very confident.","Task",NA,NA,NA,"SUPTM46030"
"53",1690961456318,"02/08/2023 07:30:56",1690965056318,1,"02/08/2023 09:30:56",139282,42,"task-g4az",NA,30997042,9195426,NA,"complete",NA,NA,"computer","Desktop or Laptop","Windows 10","Chrome 115.0.0.0","1200x800","1200x651",NA,NA,NA,"Feedback Phrases Task - List 2",8,"In","DECFBGAHJI",NA,"study_2 (video_feedback and feedback_list_2)","Feedback_ranking_L2_first","In","Feedback Phrases List 2","Feedback Phrases List 2",25,"Task","Screen 3","izqege",2,"continue","",1769.223,1769.223,1769.223,1769.223,1769.223,1769.223,1,1769.223,0,0,NA,"Fixation Timing","Fixation Cross",1,"object-48",NA,1,"I could easily picture what you were describing.","You appeared very confident.","Task",NA,NA,NA,"SUPTM46030"
"54",1690961457535,"02/08/2023 07:30:57",1690965057535,1,"02/08/2023 09:30:57",139282,42,"task-g4az",NA,30997042,9195426,NA,"complete",NA,NA,"computer","Desktop or Laptop","Windows 10","Chrome 115.0.0.0","1200x800","1200x651",NA,NA,NA,"Feedback Phrases Task - List 2",8,"In","DECFBGAHJI",NA,"study_2 (video_feedback and feedback_list_2)","Feedback_ranking_L2_first","In","Feedback Phrases List 2","Feedback Phrases List 2",26,"Task","Screen 1","113qg5",1,"continue","",1217.70300000001,1201.91500000001,1217.70300000001,1217.70300000001,1201.91500000001,1217.70300000001,1,1217.70300000001,0,0,NA,"Click To Continue","Text_left_X2",3,"object-19",NA,1,"That was satisfactory.","You came across really well.","Task",NA,NA,NA,"SUPTM46030"
"55",1690961459290,"02/08/2023 07:30:59",1690965059290,1,"02/08/2023 09:30:59",139282,42,"task-g4az",NA,30997042,9195426,NA,"complete",NA,NA,"computer","Desktop or Laptop","Windows 10","Chrome 115.0.0.0","1200x800","1200x651",NA,NA,NA,"Feedback Phrases Task - List 2",8,"In","DECFBGAHJI",NA,"study_2 (video_feedback and feedback_list_2)","Feedback_ranking_L2_first","In","Feedback Phrases List 2","Feedback Phrases List 2",26,"Task","Screen 3","izqege",2,"continue","",1769.34599999999,1769.34599999999,1769.34599999999,1769.34599999999,1769.34599999999,1769.34599999999,1,1769.34599999999,0,0,NA,"Fixation Timing","Fixation Cross",1,"object-48",NA,1,"That was satisfactory.","You came across really well.","Task",NA,NA,NA,"SUPTM46030"
"56",1690961460926,"02/08/2023 07:31:00",1690965060926,1,"02/08/2023 09:31:00",139282,42,"task-g4az",NA,30997042,9195426,NA,"complete",NA,NA,"computer","Desktop or Laptop","Windows 10","Chrome 115.0.0.0","1200x800","1200x651",NA,NA,NA,"Feedback Phrases Task - List 2",8,"In","DECFBGAHJI",NA,"study_2 (video_feedback and feedback_list_2)","Feedback_ranking_L2_first","In","Feedback Phrases List 2","Feedback Phrases List 2",27,"Task","Screen 1","113qg5",1,"continue","",1635.984,1619.10500000001,1635.984,1635.984,1619.10500000001,1635.984,1,1635.984,0,0,NA,"Click To Continue","Text_left_X2",3,"object-19",NA,1,"That was satisfactory.","I could easily picture what you were describing.","Task",NA,NA,NA,"SUPTM46030"
"57",1690961462678,"02/08/2023 07:31:02",1690965062678,1,"02/08/2023 09:31:02",139282,42,"task-g4az",NA,30997042,9195426,NA,"complete",NA,NA,"computer","Desktop or Laptop","Windows 10","Chrome 115.0.0.0","1200x800","1200x651",NA,NA,NA,"Feedback Phrases Task - List 2",8,"In","DECFBGAHJI",NA,"study_2 (video_feedback and feedback_list_2)","Feedback_ranking_L2_first","In","Feedback Phrases List 2","Feedback Phrases List 2",27,"Task","Screen 3","izqege",2,"continue","",1769.351,1769.351,1769.351,1769.351,1769.351,1769.351,1,1769.351,0,0,NA,"Fixation Timing","Fixation Cross",1,"object-48",NA,1,"That was satisfactory.","I could easily picture what you were describing.","Task",NA,NA,NA,"SUPTM46030"
"58",1690961464759,"02/08/2023 07:31:04",1690965064759,1,"02/08/2023 09:31:04",139282,42,"task-g4az",NA,30997042,9195426,NA,"complete",NA,NA,"computer","Desktop or Laptop","Windows 10","Chrome 115.0.0.0","1200x800","1200x651",NA,NA,NA,"Feedback Phrases Task - List 2",8,"In","DECFBGAHJI",NA,"study_2 (video_feedback and feedback_list_2)","Feedback_ranking_L2_first","In","Feedback Phrases List 2","Feedback Phrases List 2",28,"Task","Screen 1","113qg5",1,"continue","",2081.58599999404,2069.79200000002,2081.58599999404,2081.58599999404,2069.79200000002,2081.58599999404,1,2081.58599999404,0,0,NA,"Click To Continue","Text_left_X2",3,"object-19",NA,1,"You did what was asked of you.","You are really engaging when you speak.","Task",NA,NA,NA,"SUPTM46030"
"59",1690961466518,"02/08/2023 07:31:06",1690965066518,1,"02/08/2023 09:31:06",139282,42,"task-g4az",NA,30997042,9195426,NA,"complete",NA,NA,"computer","Desktop or Laptop","Windows 10","Chrome 115.0.0.0","1200x800","1200x651",NA,NA,NA,"Feedback Phrases Task - List 2",8,"In","DECFBGAHJI",NA,"study_2 (video_feedback and feedback_list_2)","Feedback_ranking_L2_first","In","Feedback Phrases List 2","Feedback Phrases List 2",28,"Task","Screen 3","izqege",2,"continue","",1769.315,1769.315,1769.315,1769.315,1769.315,1769.315,1,1769.315,0,0,NA,"Fixation Timing","Fixation Cross",1,"object-48",NA,1,"You did what was asked of you.","You are really engaging when you speak.","Task",NA,NA,NA,"SUPTM46030"
"60",1690961468415,"02/08/2023 07:31:08",1690965068415,1,"02/08/2023 09:31:08",139282,42,"task-g4az",NA,30997042,9195426,NA,"complete",NA,NA,"computer","Desktop or Laptop","Windows 10","Chrome 115.0.0.0","1200x800","1200x651",NA,NA,NA,"Feedback Phrases Task - List 2",8,"In","DECFBGAHJI",NA,"study_2 (video_feedback and feedback_list_2)","Feedback_ranking_L2_first","In","Feedback Phrases List 2","Feedback Phrases List 2",29,"Task","Screen 1","113qg5",1,"continue","",1898.57899998807,1886.14599999998,1898.57899998807,1898.57899998807,1886.14599999998,1898.57899998807,1,1898.57899998807,0,0,NA,"Click To Continue","Text_left_X2",3,"object-19",NA,1,"You said all the right things.","You came across really well.","Task",NA,NA,NA,"SUPTM46030"
"61",1690961470173,"02/08/2023 07:31:10",1690965070173,1,"02/08/2023 09:31:10",139282,42,"task-g4az",NA,30997042,9195426,NA,"complete",NA,NA,"computer","Desktop or Laptop","Windows 10","Chrome 115.0.0.0","1200x800","1200x651",NA,NA,NA,"Feedback Phrases Task - List 2",8,"In","DECFBGAHJI",NA,"study_2 (video_feedback and feedback_list_2)","Feedback_ranking_L2_first","In","Feedback Phrases List 2","Feedback Phrases List 2",29,"Task","Screen 3","izqege",2,"continue","",1769.302,1769.302,1769.302,1769.302,1769.302,1769.302,1,1769.302,0,0,NA,"Fixation Timing","Fixation Cross",1,"object-48",NA,1,"You said all the right things.","You came across really well.","Task",NA,NA,NA,"SUPTM46030"
"62",1690961472113,"02/08/2023 07:31:12",1690965072113,1,"02/08/2023 09:31:12",139282,42,"task-g4az",NA,30997042,9195426,NA,"complete",NA,NA,"computer","Desktop or Laptop","Windows 10","Chrome 115.0.0.0","1200x800","1200x651",NA,NA,NA,"Feedback Phrases Task - List 2",8,"In","DECFBGAHJI",NA,"study_2 (video_feedback and feedback_list_2)","Feedback_ranking_L2_first","In","Feedback Phrases List 2","Feedback Phrases List 2",30,"Task","Screen 1","113qg5",1,"continue","",1940.73100001193,1936.05800000002,1940.73100001193,1940.73100001193,1936.05800000002,1940.73100001193,1,1940.73100001193,0,0,NA,"Click To Continue","Text_left_X2",3,"object-19",NA,1,"Excellent!","You are really engaging when you speak.","Task",NA,NA,NA,"SUPTM46030"
"63",1690961473879,"02/08/2023 07:31:13",1690965073879,1,"02/08/2023 09:31:13",139282,42,"task-g4az",NA,30997042,9195426,NA,"complete",NA,NA,"computer","Desktop or Laptop","Windows 10","Chrome 115.0.0.0","1200x800","1200x651",NA,NA,NA,"Feedback Phrases Task - List 2",8,"In","DECFBGAHJI",NA,"study_2 (video_feedback and feedback_list_2)","Feedback_ranking_L2_first","In","Feedback Phrases List 2","Feedback Phrases List 2",30,"Task","Screen 3","izqege",2,"continue","",1769.628,1769.628,1769.628,1769.628,1769.628,1769.628,1,1769.628,0,0,NA,"Fixation Timing","Fixation Cross",1,"object-48",NA,1,"Excellent!","You are really engaging when you speak.","Task",NA,NA,NA,"SUPTM46030"
"64",1690961478752,"02/08/2023 07:31:18",1690965078752,1,"02/08/2023 09:31:18",139282,42,"task-g4az",NA,30997042,9195426,NA,"complete",NA,NA,"computer","Desktop or Laptop","Windows 10","Chrome 115.0.0.0","1200x800","1200x651",NA,NA,NA,"Feedback Phrases Task - List 2",8,"In","DECFBGAHJI",NA,"study_2 (video_feedback and feedback_list_2)","Feedback_ranking_L2_first","In","Feedback Phrases List 2","Feedback Phrases List 2",31,"Task","Screen 1","113qg5",1,"continue","",4874.01299999998,4857.31399999998,4874.01299999998,4874.01299999998,4857.31399999998,4874.01299999998,1,4874.01299999998,0,0,NA,"Click To Continue","Text_left_X2",3,"object-19",NA,1,"You appear very smart.","You are really engaging when you speak.","Task",NA,NA,NA,"SUPTM46030"
"65",1690961480505,"02/08/2023 07:31:20",1690965080505,1,"02/08/2023 09:31:20",139282,42,"task-g4az",NA,30997042,9195426,NA,"complete",NA,NA,"computer","Desktop or Laptop","Windows 10","Chrome 115.0.0.0","1200x800","1200x651",NA,NA,NA,"Feedback Phrases Task - List 2",8,"In","DECFBGAHJI",NA,"study_2 (video_feedback and feedback_list_2)","Feedback_ranking_L2_first","In","Feedback Phrases List 2","Feedback Phrases List 2",31,"Task","Screen 3","izqege",2,"continue","",1769.285,1769.285,1769.285,1769.285,1769.285,1769.285,1,1769.285,0,0,NA,"Fixation Timing","Fixation Cross",1,"object-48",NA,1,"You appear very smart.","You are really engaging when you speak.","Task",NA,NA,NA,"SUPTM46030"
"66",1690961488199,"02/08/2023 07:31:28",1690965088199,1,"02/08/2023 09:31:28",139282,42,"task-g4az",NA,30997042,9195426,NA,"complete",NA,NA,"computer","Desktop or Laptop","Windows 10","Chrome 115.0.0.0","1200x800","1200x651",NA,NA,NA,"Feedback Phrases Task - List 2",8,"In","DECFBGAHJI",NA,"study_2 (video_feedback and feedback_list_2)","Feedback_ranking_L2_first","In","Feedback Phrases List 2","Feedback Phrases List 2",32,"Task","Screen 1","113qg5",1,"continue","",7694.44600001193,7678.22500000001,7694.44600001193,7694.44600001193,7678.22500000001,7694.44600001193,1,7694.44600001193,0,0,NA,"Click To Continue","Text_left_X2",3,"object-19",NA,1,"Well done!","That was perfect.","Task",NA,NA,NA,"SUPTM46030"
"67",1690961489953,"02/08/2023 07:31:29",1690965089953,1,"02/08/2023 09:31:29",139282,42,"task-g4az",NA,30997042,9195426,NA,"complete",NA,NA,"computer","Desktop or Laptop","Windows 10","Chrome 115.0.0.0","1200x800","1200x651",NA,NA,NA,"Feedback Phrases Task - List 2",8,"In","DECFBGAHJI",NA,"study_2 (video_feedback and feedback_list_2)","Feedback_ranking_L2_first","In","Feedback Phrases List 2","Feedback Phrases List 2",32,"Task","Screen 3","izqege",2,"continue","",1769.43100000001,1769.43100000001,1769.43100000001,1769.43100000001,1769.43100000001,1769.43100000001,1,1769.43100000001,0,0,NA,"Fixation Timing","Fixation Cross",1,"object-48",NA,1,"Well done!","That was perfect.","Task",NA,NA,NA,"SUPTM46030"
"68",1690961490922,"02/08/2023 07:31:30",1690965090922,1,"02/08/2023 09:31:30",139282,42,"task-g4az",NA,30997042,9195426,NA,"complete",NA,NA,"computer","Desktop or Laptop","Windows 10","Chrome 115.0.0.0","1200x800","1200x651",NA,NA,NA,"Feedback Phrases Task - List 2",8,"In","DECFBGAHJI",NA,"study_2 (video_feedback and feedback_list_2)","Feedback_ranking_L2_first","In","Feedback Phrases List 2","Feedback Phrases List 2",33,"Task","Screen 1","113qg5",1,"continue","",970.290000011912,967.91399999999,970.290000011912,970.290000011912,967.91399999999,970.290000011912,1,970.290000011912,0,0,NA,"Click To Continue","Text_left_X2",3,"object-19",NA,1,"That was decent.","You appear very smart.","Task",NA,NA,NA,"SUPTM46030"
"69",1690961492691,"02/08/2023 07:31:32",1690965092691,1,"02/08/2023 09:31:32",139282,42,"task-g4az",NA,30997042,9195426,NA,"complete",NA,NA,"computer","Desktop or Laptop","Windows 10","Chrome 115.0.0.0","1200x800","1200x651",NA,NA,NA,"Feedback Phrases Task - List 2",8,"In","DECFBGAHJI",NA,"study_2 (video_feedback and feedback_list_2)","Feedback_ranking_L2_first","In","Feedback Phrases List 2","Feedback Phrases List 2",33,"Task","Screen 3","izqege",2,"continue","",1769.549,1769.549,1769.549,1769.549,1769.549,1769.549,1,1769.549,0,0,NA,"Fixation Timing","Fixation Cross",1,"object-48",NA,1,"That was decent.","You appear very smart.","Task",NA,NA,NA,"SUPTM46030"
"70",1690961495447,"02/08/2023 07:31:35",1690965095447,1,"02/08/2023 09:31:35",139282,42,"task-g4az",NA,30997042,9195426,NA,"complete",NA,NA,"computer","Desktop or Laptop","Windows 10","Chrome 115.0.0.0","1200x800","1200x651",NA,NA,NA,"Feedback Phrases Task - List 2",8,"In","DECFBGAHJI",NA,"study_2 (video_feedback and feedback_list_2)","Feedback_ranking_L2_first","In","Feedback Phrases List 2","Feedback Phrases List 2",34,"Task","Screen 1","113qg5",1,"continue","",2758.12699999404,2753.87400000001,2758.12699999404,2758.12699999404,2753.87400000001,2758.12699999404,1,2758.12699999404,0,0,NA,"Click To Continue","Text_left_X2",3,"object-19",NA,1,"You seemed very in-control.","You came across really well.","Task",NA,NA,NA,"SUPTM46030"
"71",1690961497214,"02/08/2023 07:31:37",1690965097214,1,"02/08/2023 09:31:37",139282,42,"task-g4az",NA,30997042,9195426,NA,"complete",NA,NA,"computer","Desktop or Laptop","Windows 10","Chrome 115.0.0.0","1200x800","1200x651",NA,NA,NA,"Feedback Phrases Task - List 2",8,"In","DECFBGAHJI",NA,"study_2 (video_feedback and feedback_list_2)","Feedback_ranking_L2_first","In","Feedback Phrases List 2","Feedback Phrases List 2",34,"Task","Screen 3","izqege",2,"continue","",1769.641,1769.641,1769.641,1769.641,1769.641,1769.641,1,1769.641,0,0,NA,"Fixation Timing","Fixation Cross",1,"object-48",NA,1,"You seemed very in-control.","You came across really well.","Task",NA,NA,NA,"SUPTM46030"
"72",1690961499987,"02/08/2023 07:31:39",1690965099987,1,"02/08/2023 09:31:39",139282,42,"task-g4az",NA,30997042,9195426,NA,"complete",NA,NA,"computer","Desktop or Laptop","Windows 10","Chrome 115.0.0.0","1200x800","1200x651",NA,NA,NA,"Feedback Phrases Task - List 2",8,"In","DECFBGAHJI",NA,"study_2 (video_feedback and feedback_list_2)","Feedback_ranking_L2_first","In","Feedback Phrases List 2","Feedback Phrases List 2",35,"Task","Screen 1","113qg5",1,"continue","",2773.81200001191,2770.57699999999,2773.81200001191,2773.81200001191,2770.57699999999,2773.81200001191,1,2773.81200001191,0,0,NA,"Click To Continue","Text_left_X2",3,"object-19",NA,1,"You are really engaging when you speak.","You came across really well.","Task",NA,NA,NA,"SUPTM46030"
"73",1690961501754,"02/08/2023 07:31:41",1690965101754,1,"02/08/2023 09:31:41",139282,42,"task-g4az",NA,30997042,9195426,NA,"complete",NA,NA,"computer","Desktop or Laptop","Windows 10","Chrome 115.0.0.0","1200x800","1200x651",NA,NA,NA,"Feedback Phrases Task - List 2",8,"In","DECFBGAHJI",NA,"study_2 (video_feedback and feedback_list_2)","Feedback_ranking_L2_first","In","Feedback Phrases List 2","Feedback Phrases List 2",35,"Task","Screen 3","izqege",2,"continue","",1769.62,1769.62,1769.62,1769.62,1769.62,1769.62,1,1769.62,0,0,NA,"Fixation Timing","Fixation Cross",1,"object-48",NA,1,"You are really engaging when you speak.","You came across really well.","Task",NA,NA,NA,"SUPTM46030"
"74",1690961503309,"02/08/2023 07:31:43",1690965103309,1,"02/08/2023 09:31:43",139282,42,"task-g4az",NA,30997042,9195426,NA,"complete",NA,NA,"computer","Desktop or Laptop","Windows 10","Chrome 115.0.0.0","1200x800","1200x651",NA,NA,NA,"Feedback Phrases Task - List 2",8,"In","DECFBGAHJI",NA,"study_2 (video_feedback and feedback_list_2)","Feedback_ranking_L2_first","In","Feedback Phrases List 2","Feedback Phrases List 2",36,"Task","Screen 1","113qg5",1,"continue","",1556.21500000596,1552.01199999999,1556.21500000596,1556.21500000596,1552.01199999999,1556.21500000596,1,1556.21500000596,0,0,NA,"Click To Continue","Text_left_X1",2,"object-18",NA,1,"You said all the right things.","You seemed very in-control.","Task",NA,NA,NA,"SUPTM46030"
"75",1690961505076,"02/08/2023 07:31:45",1690965105076,1,"02/08/2023 09:31:45",139282,42,"task-g4az",NA,30997042,9195426,NA,"complete",NA,NA,"computer","Desktop or Laptop","Windows 10","Chrome 115.0.0.0","1200x800","1200x651",NA,NA,NA,"Feedback Phrases Task - List 2",8,"In","DECFBGAHJI",NA,"study_2 (video_feedback and feedback_list_2)","Feedback_ranking_L2_first","In","Feedback Phrases List 2","Feedback Phrases List 2",36,"Task","Screen 3","izqege",2,"continue","",1769.647,1769.647,1769.647,1769.647,1769.647,1769.647,1,1769.647,0,0,NA,"Fixation Timing","Fixation Cross",1,"object-48",NA,1,"You said all the right things.","You seemed very in-control.","Task",NA,NA,NA,"SUPTM46030"
"76",1690961507100,"02/08/2023 07:31:47",1690965107100,1,"02/08/2023 09:31:47",139282,42,"task-g4az",NA,30997042,9195426,NA,"complete",NA,NA,"computer","Desktop or Laptop","Windows 10","Chrome 115.0.0.0","1200x800","1200x651",NA,NA,NA,"Feedback Phrases Task - List 2",8,"In","DECFBGAHJI",NA,"study_2 (video_feedback and feedback_list_2)","Feedback_ranking_L2_first","In","Feedback Phrases List 2","Feedback Phrases List 2",37,"Task","Screen 1","113qg5",1,"continue","",2025.05600000598,2019.56700000004,2025.05600000598,2025.05600000598,2019.56700000004,2025.05600000598,1,2025.05600000598,0,0,NA,"Click To Continue","Text_left_X2",3,"object-19",NA,1,"Excellent!","You're very articulate.","Task",NA,NA,NA,"SUPTM46030"
"77",1690961508866,"02/08/2023 07:31:48",1690965108866,1,"02/08/2023 09:31:48",139282,42,"task-g4az",NA,30997042,9195426,NA,"complete",NA,NA,"computer","Desktop or Laptop","Windows 10","Chrome 115.0.0.0","1200x800","1200x651",NA,NA,NA,"Feedback Phrases Task - List 2",8,"In","DECFBGAHJI",NA,"study_2 (video_feedback and feedback_list_2)","Feedback_ranking_L2_first","In","Feedback Phrases List 2","Feedback Phrases List 2",37,"Task","Screen 3","izqege",2,"continue","",1769.51299999998,1769.51299999998,1769.51299999998,1769.51299999998,1769.51299999998,1769.51299999998,1,1769.51299999998,0,0,NA,"Fixation Timing","Fixation Cross",1,"object-48",NA,1,"Excellent!","You're very articulate.","Task",NA,NA,NA,"SUPTM46030"
"78",1690961512653,"02/08/2023 07:31:52",1690965112653,1,"02/08/2023 09:31:52",139282,42,"task-g4az",NA,30997042,9195426,NA,"complete",NA,NA,"computer","Desktop or Laptop","Windows 10","Chrome 115.0.0.0","1200x800","1200x651",NA,NA,NA,"Feedback Phrases Task - List 2",8,"In","DECFBGAHJI",NA,"study_2 (video_feedback and feedback_list_2)","Feedback_ranking_L2_first","In","Feedback Phrases List 2","Feedback Phrases List 2",38,"Task","Screen 1","113qg5",1,"continue","",3788.67599999404,3772.07000000001,3788.67599999404,3788.67599999404,3772.07000000001,3788.67599999404,1,3788.67599999404,0,0,NA,"Click To Continue","Text_left_X1",2,"object-18",NA,1,"You're very articulate.","You are really engaging when you speak.","Task",NA,NA,NA,"SUPTM46030"
"79",1690961514407,"02/08/2023 07:31:54",1690965114407,1,"02/08/2023 09:31:54",139282,42,"task-g4az",NA,30997042,9195426,NA,"complete",NA,NA,"computer","Desktop or Laptop","Windows 10","Chrome 115.0.0.0","1200x800","1200x651",NA,NA,NA,"Feedback Phrases Task - List 2",8,"In","DECFBGAHJI",NA,"study_2 (video_feedback and feedback_list_2)","Feedback_ranking_L2_first","In","Feedback Phrases List 2","Feedback Phrases List 2",38,"Task","Screen 3","izqege",2,"continue","",1769.52100000001,1769.52100000001,1769.52100000001,1769.52100000001,1769.52100000001,1769.52100000001,1,1769.52100000001,0,0,NA,"Fixation Timing","Fixation Cross",1,"object-48",NA,1,"You're very articulate.","You are really engaging when you speak.","Task",NA,NA,NA,"SUPTM46030"
"80",1690961516637,"02/08/2023 07:31:56",1690965116637,1,"02/08/2023 09:31:56",139282,42,"task-g4az",NA,30997042,9195426,NA,"complete",NA,NA,"computer","Desktop or Laptop","Windows 10","Chrome 115.0.0.0","1200x800","1200x651",NA,NA,NA,"Feedback Phrases Task - List 2",8,"In","DECFBGAHJI",NA,"study_2 (video_feedback and feedback_list_2)","Feedback_ranking_L2_first","In","Feedback Phrases List 2","Feedback Phrases List 2",39,"Task","Screen 1","113qg5",1,"continue","",2230.78500001191,2219.94699999999,2230.78500001191,2230.78500001191,2219.94699999999,2230.78500001191,1,2230.78500001191,0,0,NA,"Click To Continue","Text_left_X1",2,"object-18",NA,1,"You did what was asked of you.","That was decent.","Task",NA,NA,NA,"SUPTM46030"
"81",1690961518397,"02/08/2023 07:31:58",1690965118397,1,"02/08/2023 09:31:58",139282,42,"task-g4az",NA,30997042,9195426,NA,"complete",NA,NA,"computer","Desktop or Laptop","Windows 10","Chrome 115.0.0.0","1200x800","1200x651",NA,NA,NA,"Feedback Phrases Task - List 2",8,"In","DECFBGAHJI",NA,"study_2 (video_feedback and feedback_list_2)","Feedback_ranking_L2_first","In","Feedback Phrases List 2","Feedback Phrases List 2",39,"Task","Screen 3","izqege",2,"continue","",1769.41999999998,1769.41999999998,1769.41999999998,1769.41999999998,1769.41999999998,1769.41999999998,1,1769.41999999998,0,0,NA,"Fixation Timing","Fixation Cross",1,"object-48",NA,1,"You did what was asked of you.","That was decent.","Task",NA,NA,NA,"SUPTM46030"
"82",1690961522339,"02/08/2023 07:32:02",1690965122339,1,"02/08/2023 09:32:02",139282,42,"task-g4az",NA,30997042,9195426,NA,"complete",NA,NA,"computer","Desktop or Laptop","Windows 10","Chrome 115.0.0.0","1200x800","1200x651",NA,NA,NA,"Feedback Phrases Task - List 2",8,"In","DECFBGAHJI",NA,"study_2 (video_feedback and feedback_list_2)","Feedback_ranking_L2_first","In","Feedback Phrases List 2","Feedback Phrases List 2",40,"Task","Screen 1","113qg5",1,"continue","",3943.01800000598,3939.19300000003,3943.01800000598,3943.01800000598,3939.19300000003,3943.01800000598,1,3943.01800000598,0,0,NA,"Click To Continue","Text_left_X1",2,"object-18",NA,1,"That was perfect.","You are really engaging when you speak.","Task",NA,NA,NA,"SUPTM46030"
"83",1690961524105,"02/08/2023 07:32:04",1690965124105,1,"02/08/2023 09:32:04",139282,42,"task-g4az",NA,30997042,9195426,NA,"complete",NA,NA,"computer","Desktop or Laptop","Windows 10","Chrome 115.0.0.0","1200x800","1200x651",NA,NA,NA,"Feedback Phrases Task - List 2",8,"In","DECFBGAHJI",NA,"study_2 (video_feedback and feedback_list_2)","Feedback_ranking_L2_first","In","Feedback Phrases List 2","Feedback Phrases List 2",40,"Task","Screen 3","izqege",2,"continue","",1769.5,1769.5,1769.5,1769.5,1769.5,1769.5,1,1769.5,0,0,NA,"Fixation Timing","Fixation Cross",1,"object-48",NA,1,"That was perfect.","You are really engaging when you speak.","Task",NA,NA,NA,"SUPTM46030"
"84",1690961527057,"02/08/2023 07:32:07",1690965127057,1,"02/08/2023 09:32:07",139282,42,"task-g4az",NA,30997042,9195426,NA,"complete",NA,NA,"computer","Desktop or Laptop","Windows 10","Chrome 115.0.0.0","1200x800","1200x651",NA,NA,NA,"Feedback Phrases Task - List 2",8,"In","DECFBGAHJI",NA,"study_2 (video_feedback and feedback_list_2)","Feedback_ranking_L2_first","In","Feedback Phrases List 2","Feedback Phrases List 2",41,"Task","Screen 1","113qg5",1,"continue","",2953.22500001191,2937.75,2953.22500001191,2953.22500001191,2937.75,2953.22500001191,1,2953.22500001191,0,0,NA,"Click To Continue","Text_left_X2",3,"object-19",NA,1,"I could easily picture what you were describing.","That was perfect.","Task",NA,NA,NA,"SUPTM46030"
"85",1690961528812,"02/08/2023 07:32:08",1690965128812,1,"02/08/2023 09:32:08",139282,42,"task-g4az",NA,30997042,9195426,NA,"complete",NA,NA,"computer","Desktop or Laptop","Windows 10","Chrome 115.0.0.0","1200x800","1200x651",NA,NA,NA,"Feedback Phrases Task - List 2",8,"In","DECFBGAHJI",NA,"study_2 (video_feedback and feedback_list_2)","Feedback_ranking_L2_first","In","Feedback Phrases List 2","Feedback Phrases List 2",41,"Task","Screen 3","izqege",2,"continue","",1769.20699999999,1769.20699999999,1769.20699999999,1769.20699999999,1769.20699999999,1769.20699999999,1,1769.20699999999,0,0,NA,"Fixation Timing","Fixation Cross",1,"object-48",NA,1,"I could easily picture what you were describing.","That was perfect.","Task",NA,NA,NA,"SUPTM46030"
"86",1690961534423,"02/08/2023 07:32:14",1690965134423,1,"02/08/2023 09:32:14",139282,42,"task-g4az",NA,30997042,9195426,NA,"complete",NA,NA,"computer","Desktop or Laptop","Windows 10","Chrome 115.0.0.0","1200x800","1200x651",NA,NA,NA,"Feedback Phrases Task - List 2",8,"In","DECFBGAHJI",NA,"study_2 (video_feedback and feedback_list_2)","Feedback_ranking_L2_first","In","Feedback Phrases List 2","Feedback Phrases List 2",42,"Task","Screen 1","113qg5",1,"continue","",5611.66799998807,5608.402,5611.66799998807,5611.66799998807,5608.402,5611.66799998807,1,5611.66799998807,0,0,NA,"Click To Continue","Text_left_X1",2,"object-18",NA,1,"Excellent!","I could easily picture what you were describing.","Task",NA,NA,NA,"SUPTM46030"
"87",1690961536191,"02/08/2023 07:32:16",1690965136191,1,"02/08/2023 09:32:16",139282,42,"task-g4az",NA,30997042,9195426,NA,"complete",NA,NA,"computer","Desktop or Laptop","Windows 10","Chrome 115.0.0.0","1200x800","1200x651",NA,NA,NA,"Feedback Phrases Task - List 2",8,"In","DECFBGAHJI",NA,"study_2 (video_feedback and feedback_list_2)","Feedback_ranking_L2_first","In","Feedback Phrases List 2","Feedback Phrases List 2",42,"Task","Screen 3","izqege",2,"continue","",1769.554,1769.554,1769.554,1769.554,1769.554,1769.554,1,1769.554,0,0,NA,"Fixation Timing","Fixation Cross",1,"object-48",NA,1,"Excellent!","I could easily picture what you were describing.","Task",NA,NA,NA,"SUPTM46030"
"88",1690961539283,"02/08/2023 07:32:19",1690965139283,1,"02/08/2023 09:32:19",139282,42,"task-g4az",NA,30997042,9195426,NA,"complete",NA,NA,"computer","Desktop or Laptop","Windows 10","Chrome 115.0.0.0","1200x800","1200x651",NA,NA,NA,"Feedback Phrases Task - List 2",8,"In","DECFBGAHJI",NA,"study_2 (video_feedback and feedback_list_2)","Feedback_ranking_L2_first","In","Feedback Phrases List 2","Feedback Phrases List 2",43,"Task","Screen 1","113qg5",1,"continue","",3094.01199999999,3088.00199999998,3094.01199999999,3094.01199999999,3088.00199999998,3094.01199999999,1,3094.01199999999,0,0,NA,"Click To Continue","Text_left_X2",3,"object-19",NA,1,"Your description was very insightful.","You're very articulate.","Task",NA,NA,NA,"SUPTM46030"
"89",1690961541048,"02/08/2023 07:32:21",1690965141048,1,"02/08/2023 09:32:21",139282,42,"task-g4az",NA,30997042,9195426,NA,"complete",NA,NA,"computer","Desktop or Laptop","Windows 10","Chrome 115.0.0.0","1200x800","1200x651",NA,NA,NA,"Feedback Phrases Task - List 2",8,"In","DECFBGAHJI",NA,"study_2 (video_feedback and feedback_list_2)","Feedback_ranking_L2_first","In","Feedback Phrases List 2","Feedback Phrases List 2",43,"Task","Screen 3","izqege",2,"continue","",1769.34700000001,1769.34700000001,1769.34700000001,1769.34700000001,1769.34700000001,1769.34700000001,1,1769.34700000001,0,0,NA,"Fixation Timing","Fixation Cross",1,"object-48",NA,1,"Your description was very insightful.","You're very articulate.","Task",NA,NA,NA,"SUPTM46030"
"90",1690961542885,"02/08/2023 07:32:22",1690965142885,1,"02/08/2023 09:32:22",139282,42,"task-g4az",NA,30997042,9195426,NA,"complete",NA,NA,"computer","Desktop or Laptop","Windows 10","Chrome 115.0.0.0","1200x800","1200x651",NA,NA,NA,"Feedback Phrases Task - List 2",8,"In","DECFBGAHJI",NA,"study_2 (video_feedback and feedback_list_2)","Feedback_ranking_L2_first","In","Feedback Phrases List 2","Feedback Phrases List 2",44,"Task","Screen 1","113qg5",1,"continue","",1838.46300001192,1835.88099999999,1838.46300001192,1838.46300001192,1835.88099999999,1838.46300001192,1,1838.46300001192,0,0,NA,"Click To Continue","Text_left_X2",3,"object-19",NA,1,"You did what was asked of you.","Well done!","Task",NA,NA,NA,"SUPTM46030"
"91",1690961544653,"02/08/2023 07:32:24",1690965144653,1,"02/08/2023 09:32:24",139282,42,"task-g4az",NA,30997042,9195426,NA,"complete",NA,NA,"computer","Desktop or Laptop","Windows 10","Chrome 115.0.0.0","1200x800","1200x651",NA,NA,NA,"Feedback Phrases Task - List 2",8,"In","DECFBGAHJI",NA,"study_2 (video_feedback and feedback_list_2)","Feedback_ranking_L2_first","In","Feedback Phrases List 2","Feedback Phrases List 2",44,"Task","Screen 3","izqege",2,"continue","",1769.54700000002,1769.54700000002,1769.54700000002,1769.54700000002,1769.54700000002,1769.54700000002,1,1769.54700000002,0,0,NA,"Fixation Timing","Fixation Cross",1,"object-48",NA,1,"You did what was asked of you.","Well done!","Task",NA,NA,NA,"SUPTM46030"
"92",1690961546732,"02/08/2023 07:32:26",1690965146732,1,"02/08/2023 09:32:26",139282,42,"task-g4az",NA,30997042,9195426,NA,"complete",NA,NA,"computer","Desktop or Laptop","Windows 10","Chrome 115.0.0.0","1200x800","1200x651",NA,NA,NA,"Feedback Phrases Task - List 2",8,"In","DECFBGAHJI",NA,"study_2 (video_feedback and feedback_list_2)","Feedback_ranking_L2_first","In","Feedback Phrases List 2","Feedback Phrases List 2",45,"Task","Screen 1","113qg5",1,"continue","",2080.53500001191,2069.73800000001,2080.53500001191,2080.53500001191,2069.73800000001,2080.53500001191,1,2080.53500001191,0,0,NA,"Click To Continue","Text_left_X1",2,"object-18",NA,1,"You're very articulate.","You seemed very in-control.","Task",NA,NA,NA,"SUPTM46030"
"93",1690961548492,"02/08/2023 07:32:28",1690965148492,1,"02/08/2023 09:32:28",139282,42,"task-g4az",NA,30997042,9195426,NA,"complete",NA,NA,"computer","Desktop or Laptop","Windows 10","Chrome 115.0.0.0","1200x800","1200x651",NA,NA,NA,"Feedback Phrases Task - List 2",8,"In","DECFBGAHJI",NA,"study_2 (video_feedback and feedback_list_2)","Feedback_ranking_L2_first","In","Feedback Phrases List 2","Feedback Phrases List 2",45,"Task","Screen 3","izqege",2,"continue","",1769.23599999998,1769.23599999998,1769.23599999998,1769.23599999998,1769.23599999998,1769.23599999998,1,1769.23599999998,0,0,NA,"Fixation Timing","Fixation Cross",1,"object-48",NA,1,"You're very articulate.","You seemed very in-control.","Task",NA,NA,NA,"SUPTM46030"
"94",1690961551577,"02/08/2023 07:32:31",1690965151577,1,"02/08/2023 09:32:31",139282,42,"task-g4az",NA,30997042,9195426,NA,"complete",NA,NA,"computer","Desktop or Laptop","Windows 10","Chrome 115.0.0.0","1200x800","1200x651",NA,NA,NA,"Feedback Phrases Task - List 2",8,"In","DECFBGAHJI",NA,"study_2 (video_feedback and feedback_list_2)","Feedback_ranking_L2_first","In","Feedback Phrases List 2","Feedback Phrases List 2",46,"Task","Screen 1","113qg5",1,"continue","",3086.46099998808,3071.462,3086.46099998808,3086.46099998808,3071.462,3086.46099998808,1,3086.46099998808,0,0,NA,"Click To Continue","Text_left_X2",3,"object-19",NA,1,"Well done!","You appear very smart.","Task",NA,NA,NA,"SUPTM46030"
"95",1690961553333,"02/08/2023 07:32:33",1690965153333,1,"02/08/2023 09:32:33",139282,42,"task-g4az",NA,30997042,9195426,NA,"complete",NA,NA,"computer","Desktop or Laptop","Windows 10","Chrome 115.0.0.0","1200x800","1200x651",NA,NA,NA,"Feedback Phrases Task - List 2",8,"In","DECFBGAHJI",NA,"study_2 (video_feedback and feedback_list_2)","Feedback_ranking_L2_first","In","Feedback Phrases List 2","Feedback Phrases List 2",46,"Task","Screen 3","izqege",2,"continue","",1769.35499999998,1769.35499999998,1769.35499999998,1769.35499999998,1769.35499999998,1769.35499999998,1,1769.35499999998,0,0,NA,"Fixation Timing","Fixation Cross",1,"object-48",NA,1,"Well done!","You appear very smart.","Task",NA,NA,NA,"SUPTM46030"
"96",1690961555400,"02/08/2023 07:32:35",1690965155400,1,"02/08/2023 09:32:35",139282,42,"task-g4az",NA,30997042,9195426,NA,"complete",NA,NA,"computer","Desktop or Laptop","Windows 10","Chrome 115.0.0.0","1200x800","1200x651",NA,NA,NA,"Feedback Phrases Task - List 2",8,"In","DECFBGAHJI",NA,"study_2 (video_feedback and feedback_list_2)","Feedback_ranking_L2_first","In","Feedback Phrases List 2","Feedback Phrases List 2",47,"Task","Screen 1","113qg5",1,"continue","",2068.74400001194,2053.08900000004,2068.74400001194,2068.74400001194,2053.08900000004,2068.74400001194,1,2068.74400001194,0,0,NA,"Click To Continue","Text_left_X1",2,"object-18",NA,1,"Your description was very insightful.","That was perfect.","Task",NA,NA,NA,"SUPTM46030"
"97",1690961557155,"02/08/2023 07:32:37",1690965157155,1,"02/08/2023 09:32:37",139282,42,"task-g4az",NA,30997042,9195426,NA,"complete",NA,NA,"computer","Desktop or Laptop","Windows 10","Chrome 115.0.0.0","1200x800","1200x651",NA,NA,NA,"Feedback Phrases Task - List 2",8,"In","DECFBGAHJI",NA,"study_2 (video_feedback and feedback_list_2)","Feedback_ranking_L2_first","In","Feedback Phrases List 2","Feedback Phrases List 2",47,"Task","Screen 3","izqege",2,"continue","",1769.31799999997,1769.31799999997,1769.31799999997,1769.31799999997,1769.31799999997,1769.31799999997,1,1769.31799999997,0,0,NA,"Fixation Timing","Fixation Cross",1,"object-48",NA,1,"Your description was very insightful.","That was perfect.","Task",NA,NA,NA,"SUPTM46030"
"98",1690961560704,"02/08/2023 07:32:40",1690965160704,1,"02/08/2023 09:32:40",139282,42,"task-g4az",NA,30997042,9195426,NA,"complete",NA,NA,"computer","Desktop or Laptop","Windows 10","Chrome 115.0.0.0","1200x800","1200x651",NA,NA,NA,"Feedback Phrases Task - List 2",8,"In","DECFBGAHJI",NA,"study_2 (video_feedback and feedback_list_2)","Feedback_ranking_L2_first","In","Feedback Phrases List 2","Feedback Phrases List 2",48,"Task","Screen 1","113qg5",1,"continue","",3550.03700000001,3538.68099999998,3550.03700000001,3550.03700000001,3538.68099999998,3550.03700000001,1,3550.03700000001,0,0,NA,"Click To Continue","Text_left_X1",2,"object-18",NA,1,"Excellent!","You said all the right things.","Task",NA,NA,NA,"SUPTM46030"
"99",1690961562463,"02/08/2023 07:32:42",1690965162463,1,"02/08/2023 09:32:42",139282,42,"task-g4az",NA,30997042,9195426,NA,"complete",NA,NA,"computer","Desktop or Laptop","Windows 10","Chrome 115.0.0.0","1200x800","1200x651",NA,NA,NA,"Feedback Phrases Task - List 2",8,"In","DECFBGAHJI",NA,"study_2 (video_feedback and feedback_list_2)","Feedback_ranking_L2_first","In","Feedback Phrases List 2","Feedback Phrases List 2",48,"Task","Screen 3","izqege",2,"continue","",1769.34500000003,1769.34500000003,1769.34500000003,1769.34500000003,1769.34500000003,1769.34500000003,1,1769.34500000003,0,0,NA,"Fixation Timing","Fixation Cross",1,"object-48",NA,1,"Excellent!","You said all the right things.","Task",NA,NA,NA,"SUPTM46030"
"100",1690961565448,"02/08/2023 07:32:45",1690965165448,1,"02/08/2023 09:32:45",139282,42,"task-g4az",NA,30997042,9195426,NA,"complete",NA,NA,"computer","Desktop or Laptop","Windows 10","Chrome 115.0.0.0","1200x800","1200x651",NA,NA,NA,"Feedback Phrases Task - List 2",8,"In","DECFBGAHJI",NA,"study_2 (video_feedback and feedback_list_2)","Feedback_ranking_L2_first","In","Feedback Phrases List 2","Feedback Phrases List 2",49,"Task","Screen 1","113qg5",1,"continue","",2985.61099999404,2971.17700000003,2985.61099999404,2985.61099999404,2971.17700000003,2985.61099999404,1,2985.61099999404,0,0,NA,"Click To Continue","Text_left_X1",2,"object-18",NA,1,"Your description was very insightful.","You seemed very in-control.","Task",NA,NA,NA,"SUPTM46030"
"101",1690961567204,"02/08/2023 07:32:47",1690965167204,1,"02/08/2023 09:32:47",139282,42,"task-g4az",NA,30997042,9195426,NA,"complete",NA,NA,"computer","Desktop or Laptop","Windows 10","Chrome 115.0.0.0","1200x800","1200x651",NA,NA,NA,"Feedback Phrases Task - List 2",8,"In","DECFBGAHJI",NA,"study_2 (video_feedback and feedback_list_2)","Feedback_ranking_L2_first","In","Feedback Phrases List 2","Feedback Phrases List 2",49,"Task","Screen 3","izqege",2,"continue","",1769.29299999995,1769.29299999995,1769.29299999995,1769.29299999995,1769.29299999995,1769.29299999995,1,1769.29299999995,0,0,NA,"Fixation Timing","Fixation Cross",1,"object-48",NA,1,"Your description was very insightful.","You seemed very in-control.","Task",NA,NA,NA,"SUPTM46030"
"102",1690961577205,"02/08/2023 07:32:57",1690965177205,1,"02/08/2023 09:32:57",139282,42,"task-g4az",NA,30997042,9195426,NA,"complete",NA,NA,"computer","Desktop or Laptop","Windows 10","Chrome 115.0.0.0","1200x800","1200x651",NA,NA,NA,"Feedback Phrases Task - List 2",8,"In","DECFBGAHJI",NA,"study_2 (video_feedback and feedback_list_2)","Feedback_ranking_L2_first","In","Feedback Phrases List 2","Feedback Phrases List 2",50,"Task","Screen 1","113qg5",1,"continue","",10001.1409999941,9998.16200000001,10001.1409999941,10001.1409999941,9998.16200000001,10001.1409999941,1,10001.1409999941,0,0,NA,"Click To Continue","Text_left_X2",3,"object-19",NA,1,"You appeared very confident.","You appear very smart.","Task",NA,NA,NA,"SUPTM46030"
"103",1690961578972,"02/08/2023 07:32:58",1690965178972,1,"02/08/2023 09:32:58",139282,42,"task-g4az",NA,30997042,9195426,NA,"complete",NA,NA,"computer","Desktop or Laptop","Windows 10","Chrome 115.0.0.0","1200x800","1200x651",NA,NA,NA,"Feedback Phrases Task - List 2",8,"In","DECFBGAHJI",NA,"study_2 (video_feedback and feedback_list_2)","Feedback_ranking_L2_first","In","Feedback Phrases List 2","Feedback Phrases List 2",50,"Task","Screen 3","izqege",2,"continue","",1769.52400000003,1769.52400000003,1769.52400000003,1769.52400000003,1769.52400000003,1769.52400000003,1,1769.52400000003,0,0,NA,"Fixation Timing","Fixation Cross",1,"object-48",NA,1,"You appeared very confident.","You appear very smart.","Task",NA,NA,NA,"SUPTM46030"
"104",1690961581303,"02/08/2023 07:33:01",1690965181303,1,"02/08/2023 09:33:01",139282,42,"task-g4az",NA,30997042,9195426,NA,"complete",NA,NA,"computer","Desktop or Laptop","Windows 10","Chrome 115.0.0.0","1200x800","1200x651",NA,NA,NA,"Feedback Phrases Task - List 2",8,"In","DECFBGAHJI",NA,"study_2 (video_feedback and feedback_list_2)","Feedback_ranking_L2_first","In","Feedback Phrases List 2","Feedback Phrases List 2",51,"Task","Screen 1","113qg5",1,"continue","",2331.85499999998,2320.08799999999,2331.85499999998,2331.85499999998,2320.08799999999,2331.85499999998,1,2331.85499999998,0,0,NA,"Click To Continue","Text_left_X2",3,"object-19",NA,1,"That was satisfactory.","You said all the right things.","Task",NA,NA,NA,"SUPTM46030"
"105",1690961583062,"02/08/2023 07:33:03",1690965183062,1,"02/08/2023 09:33:03",139282,42,"task-g4az",NA,30997042,9195426,NA,"complete",NA,NA,"computer","Desktop or Laptop","Windows 10","Chrome 115.0.0.0","1200x800","1200x651",NA,NA,NA,"Feedback Phrases Task - List 2",8,"In","DECFBGAHJI",NA,"study_2 (video_feedback and feedback_list_2)","Feedback_ranking_L2_first","In","Feedback Phrases List 2","Feedback Phrases List 2",51,"Task","Screen 3","izqege",2,"continue","",1769.38400000002,1769.38400000002,1769.38400000002,1769.38400000002,1769.38400000002,1769.38400000002,1,1769.38400000002,0,0,NA,"Fixation Timing","Fixation Cross",1,"object-48",NA,1,"That was satisfactory.","You said all the right things.","Task",NA,NA,NA,"SUPTM46030"
"106",1690961584469,"02/08/2023 07:33:04",1690965184469,1,"02/08/2023 09:33:04",139282,42,"task-g4az",NA,30997042,9195426,NA,"complete",NA,NA,"computer","Desktop or Laptop","Windows 10","Chrome 115.0.0.0","1200x800","1200x651",NA,NA,NA,"Feedback Phrases Task - List 2",8,"In","DECFBGAHJI",NA,"study_2 (video_feedback and feedback_list_2)","Feedback_ranking_L2_first","In","Feedback Phrases List 2","Feedback Phrases List 2",52,"Task","Screen 1","113qg5",1,"continue","",1407.98299999401,1402.06299999997,1407.98299999401,1407.98299999401,1402.06299999997,1407.98299999401,1,1407.98299999401,0,0,NA,"Click To Continue","Text_left_X2",3,"object-19",NA,1,"That was decent.","I could easily picture what you were describing.","Task",NA,NA,NA,"SUPTM46030"
"107",1690961586234,"02/08/2023 07:33:06",1690965186234,1,"02/08/2023 09:33:06",139282,42,"task-g4az",NA,30997042,9195426,NA,"complete",NA,NA,"computer","Desktop or Laptop","Windows 10","Chrome 115.0.0.0","1200x800","1200x651",NA,NA,NA,"Feedback Phrases Task - List 2",8,"In","DECFBGAHJI",NA,"study_2 (video_feedback and feedback_list_2)","Feedback_ranking_L2_first","In","Feedback Phrases List 2","Feedback Phrases List 2",52,"Task","Screen 3","izqege",2,"continue","",1769.47500000003,1769.47500000003,1769.47500000003,1769.47500000003,1769.47500000003,1769.47500000003,1,1769.47500000003,0,0,NA,"Fixation Timing","Fixation Cross",1,"object-48",NA,1,"That was decent.","I could easily picture what you were describing.","Task",NA,NA,NA,"SUPTM46030"
"108",1690961587817,"02/08/2023 07:33:07",1690965187817,1,"02/08/2023 09:33:07",139282,42,"task-g4az",NA,30997042,9195426,NA,"complete",NA,NA,"computer","Desktop or Laptop","Windows 10","Chrome 115.0.0.0","1200x800","1200x651",NA,NA,NA,"Feedback Phrases Task - List 2",8,"In","DECFBGAHJI",NA,"study_2 (video_feedback and feedback_list_2)","Feedback_ranking_L2_first","In","Feedback Phrases List 2","Feedback Phrases List 2",53,"Task","Screen 1","113qg5",1,"continue","",1585.14500001189,1568.95999999996,1585.14500001189,1585.14500001189,1568.95999999996,1585.14500001189,1,1585.14500001189,0,0,NA,"Click To Continue","Text_left_X2",3,"object-19",NA,1,"That was satisfactory.","You appeared very confident.","Task",NA,NA,NA,"SUPTM46030"
"109",1690961589572,"02/08/2023 07:33:09",1690965189572,1,"02/08/2023 09:33:09",139282,42,"task-g4az",NA,30997042,9195426,NA,"complete",NA,NA,"computer","Desktop or Laptop","Windows 10","Chrome 115.0.0.0","1200x800","1200x651",NA,NA,NA,"Feedback Phrases Task - List 2",8,"In","DECFBGAHJI",NA,"study_2 (video_feedback and feedback_list_2)","Feedback_ranking_L2_first","In","Feedback Phrases List 2","Feedback Phrases List 2",53,"Task","Screen 3","izqege",2,"continue","",1769.39400000003,1769.39400000003,1769.39400000003,1769.39400000003,1769.39400000003,1769.39400000003,1,1769.39400000003,0,0,NA,"Fixation Timing","Fixation Cross",1,"object-48",NA,1,"That was satisfactory.","You appeared very confident.","Task",NA,NA,NA,"SUPTM46030"
"110",1690961590895,"02/08/2023 07:33:10",1690965190895,1,"02/08/2023 09:33:10",139282,42,"task-g4az",NA,30997042,9195426,NA,"complete",NA,NA,"computer","Desktop or Laptop","Windows 10","Chrome 115.0.0.0","1200x800","1200x651",NA,NA,NA,"Feedback Phrases Task - List 2",8,"In","DECFBGAHJI",NA,"study_2 (video_feedback and feedback_list_2)","Feedback_ranking_L2_first","In","Feedback Phrases List 2","Feedback Phrases List 2",54,"Task","Screen 1","113qg5",1,"continue","",1324.69099998806,1318.82799999998,1324.69099998806,1324.69099998806,1318.82799999998,1324.69099998806,1,1324.69099998806,0,0,NA,"Click To Continue","Text_left_X2",3,"object-19",NA,1,"Well done!","I could easily picture what you were describing.","Task",NA,NA,NA,"SUPTM46030"
"111",1690961592660,"02/08/2023 07:33:12",1690965192660,1,"02/08/2023 09:33:12",139282,42,"task-g4az",NA,30997042,9195426,NA,"complete",NA,NA,"computer","Desktop or Laptop","Windows 10","Chrome 115.0.0.0","1200x800","1200x651",NA,NA,NA,"Feedback Phrases Task - List 2",8,"In","DECFBGAHJI",NA,"study_2 (video_feedback and feedback_list_2)","Feedback_ranking_L2_first","In","Feedback Phrases List 2","Feedback Phrases List 2",54,"Task","Screen 3","izqege",2,"continue","",1769.239,1769.239,1769.239,1769.239,1769.239,1769.239,1,1769.239,0,0,NA,"Fixation Timing","Fixation Cross",1,"object-48",NA,1,"Well done!","I could easily picture what you were describing.","Task",NA,NA,NA,"SUPTM46030"
"112",1690961594989,"02/08/2023 07:33:14",1690965194989,1,"02/08/2023 09:33:14",139282,42,"task-g4az",NA,30997042,9195426,NA,"complete",NA,NA,"computer","Desktop or Laptop","Windows 10","Chrome 115.0.0.0","1200x800","1200x651",NA,NA,NA,"Feedback Phrases Task - List 2",8,"In","DECFBGAHJI",NA,"study_2 (video_feedback and feedback_list_2)","Feedback_ranking_L2_first","In","Feedback Phrases List 2","Feedback Phrases List 2",55,"Task","Screen 1","113qg5",1,"continue","",2330.12399998808,2320.16499999998,2330.12399998808,2330.12399998808,2320.16499999998,2330.12399998808,1,2330.12399998808,0,0,NA,"Click To Continue","Text_left_X2",3,"object-19",NA,1,"Excellent!","Your description was very insightful.","Task",NA,NA,NA,"SUPTM46030"
"113",1690961596750,"02/08/2023 07:33:16",1690965196750,1,"02/08/2023 09:33:16",139282,42,"task-g4az",NA,30997042,9195426,NA,"complete",NA,NA,"computer","Desktop or Laptop","Windows 10","Chrome 115.0.0.0","1200x800","1200x651",NA,NA,NA,"Feedback Phrases Task - List 2",8,"In","DECFBGAHJI",NA,"study_2 (video_feedback and feedback_list_2)","Feedback_ranking_L2_first","In","Feedback Phrases List 2","Feedback Phrases List 2",55,"Task","Screen 3","izqege",2,"continue","",1769.35100000002,1769.35100000002,1769.35100000002,1769.35100000002,1769.35100000002,1769.35100000002,1,1769.35100000002,0,0,NA,"Fixation Timing","Fixation Cross",1,"object-48",NA,1,"Excellent!","Your description was very insightful.","Task",NA,NA,NA,"SUPTM46030"
"114",1690961601069,"02/08/2023 07:33:21",1690965201069,1,"02/08/2023 09:33:21",139282,42,"task-g4az",NA,30997042,9195426,NA,"complete",NA,NA,"computer","Desktop or Laptop","Windows 10","Chrome 115.0.0.0","1200x800","1200x651",NA,NA,NA,"Feedback Phrases Task - List 2",8,"In","DECFBGAHJI",NA,"study_2 (video_feedback and feedback_list_2)","Feedback_ranking_L2_first","In","Feedback Phrases List 2","Feedback Phrases List 2",56,"Task","Screen 1","113qg5",1,"continue","",4321.10799998807,4306.522,4321.10799998807,4321.10799998807,4306.522,4321.10799998807,1,4321.10799998807,0,0,NA,"Click To Continue","Text_left_X2",3,"object-19",NA,1,"That was perfect.","You appear very smart.","Task",NA,NA,NA,"SUPTM46030"
"115",1690961602825,"02/08/2023 07:33:22",1690965202825,1,"02/08/2023 09:33:22",139282,42,"task-g4az",NA,30997042,9195426,NA,"complete",NA,NA,"computer","Desktop or Laptop","Windows 10","Chrome 115.0.0.0","1200x800","1200x651",NA,NA,NA,"Feedback Phrases Task - List 2",8,"In","DECFBGAHJI",NA,"study_2 (video_feedback and feedback_list_2)","Feedback_ranking_L2_first","In","Feedback Phrases List 2","Feedback Phrases List 2",56,"Task","Screen 3","izqege",2,"continue","",1769.30200000003,1769.30200000003,1769.30200000003,1769.30200000003,1769.30200000003,1769.30200000003,1,1769.30200000003,0,0,NA,"Fixation Timing","Fixation Cross",1,"object-48",NA,1,"That was perfect.","You appear very smart.","Task",NA,NA,NA,"SUPTM46030"
"116",1690961606449,"02/08/2023 07:33:26",1690965206449,1,"02/08/2023 09:33:26",139282,42,"task-g4az",NA,30997042,9195426,NA,"complete",NA,NA,"computer","Desktop or Laptop","Windows 10","Chrome 115.0.0.0","1200x800","1200x651",NA,NA,NA,"Feedback Phrases Task - List 2",8,"In","DECFBGAHJI",NA,"study_2 (video_feedback and feedback_list_2)","Feedback_ranking_L2_first","In","Feedback Phrases List 2","Feedback Phrases List 2",57,"Task","Screen 1","113qg5",1,"continue","",3624.48400000593,3622.03099999996,3624.48400000593,3624.48400000593,3622.03099999996,3624.48400000593,1,3624.48400000593,0,0,NA,"Click To Continue","Text_left_X1",2,"object-18",NA,1,"Your description was very insightful.","You said all the right things.","Task",NA,NA,NA,"SUPTM46030"
"117",1690961608217,"02/08/2023 07:33:28",1690965208217,1,"02/08/2023 09:33:28",139282,42,"task-g4az",NA,30997042,9195426,NA,"complete",NA,NA,"computer","Desktop or Laptop","Windows 10","Chrome 115.0.0.0","1200x800","1200x651",NA,NA,NA,"Feedback Phrases Task - List 2",8,"In","DECFBGAHJI",NA,"study_2 (video_feedback and feedback_list_2)","Feedback_ranking_L2_first","In","Feedback Phrases List 2","Feedback Phrases List 2",57,"Task","Screen 3","izqege",2,"continue","",1769.45199999999,1769.45199999999,1769.45199999999,1769.45199999999,1769.45199999999,1769.45199999999,1,1769.45199999999,0,0,NA,"Fixation Timing","Fixation Cross",1,"object-48",NA,1,"Your description was very insightful.","You said all the right things.","Task",NA,NA,NA,"SUPTM46030"
"118",1690961614666,"02/08/2023 07:33:34",1690965214666,1,"02/08/2023 09:33:34",139282,42,"task-g4az",NA,30997042,9195426,NA,"complete",NA,NA,"computer","Desktop or Laptop","Windows 10","Chrome 115.0.0.0","1200x800","1200x651",NA,NA,NA,"Feedback Phrases Task - List 2",8,"In","DECFBGAHJI",NA,"study_2 (video_feedback and feedback_list_2)","Feedback_ranking_L2_first","In","Feedback Phrases List 2","Feedback Phrases List 2",58,"Task","Screen 1","113qg5",1,"continue","",6450.20099999406,6443.05200000003,6450.20099999406,6450.20099999406,6443.05200000003,6450.20099999406,1,6450.20099999406,0,0,NA,"Click To Continue","Text_left_X2",3,"object-19",NA,1,"Your description was very insightful.","You appear very smart.","Task",NA,NA,NA,"SUPTM46030"
"119",1690961616429,"02/08/2023 07:33:36",1690965216429,1,"02/08/2023 09:33:36",139282,42,"task-g4az",NA,30997042,9195426,NA,"complete",NA,NA,"computer","Desktop or Laptop","Windows 10","Chrome 115.0.0.0","1200x800","1200x651",NA,NA,NA,"Feedback Phrases Task - List 2",8,"In","DECFBGAHJI",NA,"study_2 (video_feedback and feedback_list_2)","Feedback_ranking_L2_first","In","Feedback Phrases List 2","Feedback Phrases List 2",58,"Task","Screen 3","izqege",2,"continue","",1769.39500000002,1769.39500000002,1769.39500000002,1769.39500000002,1769.39500000002,1769.39500000002,1,1769.39500000002,0,0,NA,"Fixation Timing","Fixation Cross",1,"object-48",NA,1,"Your description was very insightful.","You appear very smart.","Task",NA,NA,NA,"SUPTM46030"
"120",1690961626969,"02/08/2023 07:33:46",1690965226969,1,"02/08/2023 09:33:46",139282,42,"task-g4az",NA,30997042,9195426,NA,"complete",NA,NA,"computer","Desktop or Laptop","Windows 10","Chrome 115.0.0.0","1200x800","1200x651",NA,NA,NA,"Feedback Phrases Task - List 2",8,"In","DECFBGAHJI",NA,"study_2 (video_feedback and feedback_list_2)","Feedback_ranking_L2_first","In","Feedback Phrases List 2","Feedback Phrases List 2",59,"Task","Screen 1","113qg5",1,"continue","",10540.8539999881,10527.552,10540.8539999881,10540.8539999881,10527.552,10540.8539999881,1,10540.8539999881,0,0,NA,"Click To Continue","Text_left_X2",3,"object-19",NA,1,"That was satisfactory.","Excellent!","Task",NA,NA,NA,"SUPTM46030"
"121",1690961628721,"02/08/2023 07:33:48",1690965228721,1,"02/08/2023 09:33:48",139282,42,"task-g4az",NA,30997042,9195426,NA,"complete",NA,NA,"computer","Desktop or Laptop","Windows 10","Chrome 115.0.0.0","1200x800","1200x651",NA,NA,NA,"Feedback Phrases Task - List 2",8,"In","DECFBGAHJI",NA,"study_2 (video_feedback and feedback_list_2)","Feedback_ranking_L2_first","In","Feedback Phrases List 2","Feedback Phrases List 2",59,"Task","Screen 3","izqege",2,"continue","",1769.23499999999,1769.23499999999,1769.23499999999,1769.23499999999,1769.23499999999,1769.23499999999,1,1769.23499999999,0,0,NA,"Fixation Timing","Fixation Cross",1,"object-48",NA,1,"That was satisfactory.","Excellent!","Task",NA,NA,NA,"SUPTM46030"
"122",1690961629894,"02/08/2023 07:33:49",1690965229894,1,"02/08/2023 09:33:49",139282,42,"task-g4az",NA,30997042,9195426,NA,"complete",NA,NA,"computer","Desktop or Laptop","Windows 10","Chrome 115.0.0.0","1200x800","1200x651",NA,NA,NA,"Feedback Phrases Task - List 2",8,"In","DECFBGAHJI",NA,"study_2 (video_feedback and feedback_list_2)","Feedback_ranking_L2_first","In","Feedback Phrases List 2","Feedback Phrases List 2",60,"Task","Screen 1","113qg5",1,"continue","",1173.96699999407,1168.36200000002,1173.96699999407,1173.96699999407,1168.36200000002,1173.96699999407,1,1173.96699999407,0,0,NA,"Click To Continue","Text_left_X2",3,"object-19",NA,1,"That was decent.","Your description was very insightful.","Task",NA,NA,NA,"SUPTM46030"
"123",1690961631659,"02/08/2023 07:33:51",1690965231659,1,"02/08/2023 09:33:51",139282,42,"task-g4az",NA,30997042,9195426,NA,"complete",NA,NA,"computer","Desktop or Laptop","Windows 10","Chrome 115.0.0.0","1200x800","1200x651",NA,NA,NA,"Feedback Phrases Task - List 2",8,"In","DECFBGAHJI",NA,"study_2 (video_feedback and feedback_list_2)","Feedback_ranking_L2_first","In","Feedback Phrases List 2","Feedback Phrases List 2",60,"Task","Screen 3","izqege",2,"continue","",1769.52100000001,1769.52100000001,1769.52100000001,1769.52100000001,1769.52100000001,1769.52100000001,1,1769.52100000001,0,0,NA,"Fixation Timing","Fixation Cross",1,"object-48",NA,1,"That was decent.","Your description was very insightful.","Task",NA,NA,NA,"SUPTM46030"
"124",1690961632778,"02/08/2023 07:33:52",1690965232778,1,"02/08/2023 09:33:52",139282,42,"task-g4az",NA,30997042,9195426,NA,"complete",NA,NA,"computer","Desktop or Laptop","Windows 10","Chrome 115.0.0.0","1200x800","1200x651",NA,NA,NA,"Feedback Phrases Task - List 2",8,"In","DECFBGAHJI",NA,"study_2 (video_feedback and feedback_list_2)","Feedback_ranking_L2_first","In","Feedback Phrases List 2","Feedback Phrases List 2",61,"Task","Screen 1","113qg5",1,"continue","",1120.28400001192,1118.11099999998,1120.28400001192,1120.28400001192,1118.11099999998,1120.28400001192,1,1120.28400001192,0,0,NA,"Click To Continue","Text_left_X2",3,"object-19",NA,1,"Well done!","Excellent!","Task",NA,NA,NA,"SUPTM46030"
"125",1690961634547,"02/08/2023 07:33:54",1690965234547,1,"02/08/2023 09:33:54",139282,42,"task-g4az",NA,30997042,9195426,NA,"complete",NA,NA,"computer","Desktop or Laptop","Windows 10","Chrome 115.0.0.0","1200x800","1200x651",NA,NA,NA,"Feedback Phrases Task - List 2",8,"In","DECFBGAHJI",NA,"study_2 (video_feedback and feedback_list_2)","Feedback_ranking_L2_first","In","Feedback Phrases List 2","Feedback Phrases List 2",61,"Task","Screen 3","izqege",2,"continue","",1769.46300000005,1769.46300000005,1769.46300000005,1769.46300000005,1769.46300000005,1769.46300000005,1,1769.46300000005,0,0,NA,"Fixation Timing","Fixation Cross",1,"object-48",NA,1,"Well done!","Excellent!","Task",NA,NA,NA,"SUPTM46030"
"126",1690961635585,"02/08/2023 07:33:55",1690965235585,1,"02/08/2023 09:33:55",139282,42,"task-g4az",NA,30997042,9195426,NA,"complete",NA,NA,"computer","Desktop or Laptop","Windows 10","Chrome 115.0.0.0","1200x800","1200x651",NA,NA,NA,"Feedback Phrases Task - List 2",8,"In","DECFBGAHJI",NA,"study_2 (video_feedback and feedback_list_2)","Feedback_ranking_L2_first","In","Feedback Phrases List 2","Feedback Phrases List 2",62,"Task","Screen 1","113qg5",1,"continue","",1039.40999999997,1034.88899999997,1039.40999999997,1039.40999999997,1034.88899999997,1039.40999999997,1,1039.40999999997,0,0,NA,"Click To Continue","Text_left_X2",3,"object-19",NA,1,"That was decent.","You came across really well.","Task",NA,NA,NA,"SUPTM46030"
"127",1690961637351,"02/08/2023 07:33:57",1690965237351,1,"02/08/2023 09:33:57",139282,42,"task-g4az",NA,30997042,9195426,NA,"complete",NA,NA,"computer","Desktop or Laptop","Windows 10","Chrome 115.0.0.0","1200x800","1200x651",NA,NA,NA,"Feedback Phrases Task - List 2",8,"In","DECFBGAHJI",NA,"study_2 (video_feedback and feedback_list_2)","Feedback_ranking_L2_first","In","Feedback Phrases List 2","Feedback Phrases List 2",62,"Task","Screen 3","izqege",2,"continue","",1769.462,1769.462,1769.462,1769.462,1769.462,1769.462,1,1769.462,0,0,NA,"Fixation Timing","Fixation Cross",1,"object-48",NA,1,"That was decent.","You came across really well.","Task",NA,NA,NA,"SUPTM46030"
"128",1690961639589,"02/08/2023 07:33:59",1690965239589,1,"02/08/2023 09:33:59",139282,42,"task-g4az",NA,30997042,9195426,NA,"complete",NA,NA,"computer","Desktop or Laptop","Windows 10","Chrome 115.0.0.0","1200x800","1200x651",NA,NA,NA,"Feedback Phrases Task - List 2",8,"In","DECFBGAHJI",NA,"study_2 (video_feedback and feedback_list_2)","Feedback_ranking_L2_first","In","Feedback Phrases List 2","Feedback Phrases List 2",63,"Task","Screen 1","113qg5",1,"continue","",2238.85900001193,2236.42100000003,2238.85900001193,2238.85900001193,2236.42100000003,2238.85900001193,1,2238.85900001193,0,0,NA,"Click To Continue","Text_left_X2",3,"object-19",NA,1,"Well done!","You came across really well.","Task",NA,NA,NA,"SUPTM46030"
"129",1690961641357,"02/08/2023 07:34:01",1690965241357,1,"02/08/2023 09:34:01",139282,42,"task-g4az",NA,30997042,9195426,NA,"complete",NA,NA,"computer","Desktop or Laptop","Windows 10","Chrome 115.0.0.0","1200x800","1200x651",NA,NA,NA,"Feedback Phrases Task - List 2",8,"In","DECFBGAHJI",NA,"study_2 (video_feedback and feedback_list_2)","Feedback_ranking_L2_first","In","Feedback Phrases List 2","Feedback Phrases List 2",63,"Task","Screen 3","izqege",2,"continue","",1769.54599999997,1769.54599999997,1769.54599999997,1769.54599999997,1769.54599999997,1769.54599999997,1,1769.54599999997,0,0,NA,"Fixation Timing","Fixation Cross",1,"object-48",NA,1,"Well done!","You came across really well.","Task",NA,NA,NA,"SUPTM46030"
"130",1690961642939,"02/08/2023 07:34:02",1690965242939,1,"02/08/2023 09:34:02",139282,42,"task-g4az",NA,30997042,9195426,NA,"complete",NA,NA,"computer","Desktop or Laptop","Windows 10","Chrome 115.0.0.0","1200x800","1200x651",NA,NA,NA,"Feedback Phrases Task - List 2",8,"In","DECFBGAHJI",NA,"study_2 (video_feedback and feedback_list_2)","Feedback_ranking_L2_first","In","Feedback Phrases List 2","Feedback Phrases List 2",64,"Task","Screen 1","113qg5",1,"continue","",1583.19199999404,1568.91200000001,1583.19199999404,1583.19199999404,1568.91200000001,1583.19199999404,1,1583.19199999404,0,0,NA,"Click To Continue","Text_left_X2",3,"object-19",NA,1,"That was decent.","Excellent!","Task",NA,NA,NA,"SUPTM46030"
"131",1690961644695,"02/08/2023 07:34:04",1690965244695,1,"02/08/2023 09:34:04",139282,42,"task-g4az",NA,30997042,9195426,NA,"complete",NA,NA,"computer","Desktop or Laptop","Windows 10","Chrome 115.0.0.0","1200x800","1200x651",NA,NA,NA,"Feedback Phrases Task - List 2",8,"In","DECFBGAHJI",NA,"study_2 (video_feedback and feedback_list_2)","Feedback_ranking_L2_first","In","Feedback Phrases List 2","Feedback Phrases List 2",64,"Task","Screen 3","izqege",2,"continue","",1769.505,1769.505,1769.505,1769.505,1769.505,1769.505,1,1769.505,0,0,NA,"Fixation Timing","Fixation Cross",1,"object-48",NA,1,"That was decent.","Excellent!","Task",NA,NA,NA,"SUPTM46030"
"132",1690961649687,"02/08/2023 07:34:09",1690965249687,1,"02/08/2023 09:34:09",139282,42,"task-g4az",NA,30997042,9195426,NA,"complete",NA,NA,"computer","Desktop or Laptop","Windows 10","Chrome 115.0.0.0","1200x800","1200x651",NA,NA,NA,"Feedback Phrases Task - List 2",8,"In","DECFBGAHJI",NA,"study_2 (video_feedback and feedback_list_2)","Feedback_ranking_L2_first","In","Feedback Phrases List 2","Feedback Phrases List 2",65,"Task","Screen 1","113qg5",1,"continue","",4993.17499999999,4990.63399999996,4993.17499999999,4993.17499999999,4990.63399999996,4993.17499999999,1,4993.17499999999,0,0,NA,"Click To Continue","Text_left_X2",3,"object-19",NA,1,"You appeared very confident.","You came across really well.","Task",NA,NA,NA,"SUPTM46030"
"133",1690961651456,"02/08/2023 07:34:11",1690965251456,1,"02/08/2023 09:34:11",139282,42,"task-g4az",NA,30997042,9195426,NA,"complete",NA,NA,"computer","Desktop or Laptop","Windows 10","Chrome 115.0.0.0","1200x800","1200x651",NA,NA,NA,"Feedback Phrases Task - List 2",8,"In","DECFBGAHJI",NA,"study_2 (video_feedback and feedback_list_2)","Feedback_ranking_L2_first","In","Feedback Phrases List 2","Feedback Phrases List 2",65,"Task","Screen 3","izqege",2,"continue","",1769.58400000003,1769.58400000003,1769.58400000003,1769.58400000003,1769.58400000003,1769.58400000003,1,1769.58400000003,0,0,NA,"Fixation Timing","Fixation Cross",1,"object-48",NA,1,"You appeared very confident.","You came across really well.","Task",NA,NA,NA,"SUPTM46030"
"134",1690961654554,"02/08/2023 07:34:14",1690965254554,1,"02/08/2023 09:34:14",139282,42,"task-g4az",NA,30997042,9195426,NA,"complete",NA,NA,"computer","Desktop or Laptop","Windows 10","Chrome 115.0.0.0","1200x800","1200x651",NA,NA,NA,"Feedback Phrases Task - List 2",8,"In","DECFBGAHJI",NA,"study_2 (video_feedback and feedback_list_2)","Feedback_ranking_L2_first","In","Feedback Phrases List 2","Feedback Phrases List 2",66,"Task","Screen 1","113qg5",1,"continue","",3100.05699999403,3087.94799999997,3100.05699999403,3100.05699999403,3087.94799999997,3100.05699999403,1,3100.05699999403,0,0,NA,"Click To Continue","Text_left_X1",2,"object-18",NA,1,"That was perfect.","You appeared very confident.","Task",NA,NA,NA,"SUPTM46030"
"135",1690961656313,"02/08/2023 07:34:16",1690965256313,1,"02/08/2023 09:34:16",139282,42,"task-g4az",NA,30997042,9195426,NA,"complete",NA,NA,"computer","Desktop or Laptop","Windows 10","Chrome 115.0.0.0","1200x800","1200x651",NA,NA,NA,"Feedback Phrases Task - List 2",8,"In","DECFBGAHJI",NA,"study_2 (video_feedback and feedback_list_2)","Feedback_ranking_L2_first","In","Feedback Phrases List 2","Feedback Phrases List 2",66,"Task","Screen 3","izqege",2,"continue","",1769.41400000005,1769.41400000005,1769.41400000005,1769.41400000005,1769.41400000005,1769.41400000005,1,1769.41400000005,0,0,NA,"Fixation Timing","Fixation Cross",1,"object-48",NA,1,"That was perfect.","You appeared very confident.","Task",NA,NA,NA,"SUPTM46030"
"136",1690961659970,"02/08/2023 07:34:19",1690965259970,1,"02/08/2023 09:34:19",139282,42,"task-g4az",NA,30997042,9195426,NA,"complete",NA,NA,"computer","Desktop or Laptop","Windows 10","Chrome 115.0.0.0","1200x800","1200x651",NA,NA,NA,"Feedback Phrases Task - List 2",8,"In","DECFBGAHJI",NA,"study_2 (video_feedback and feedback_list_2)","Feedback_ranking_L2_first","In","Feedback Phrases List 2","Feedback Phrases List 2",67,"Task","Screen 1","113qg5",1,"continue","",3658.29499998805,3655.31799999997,3658.29499998805,3658.29499998805,3655.31799999997,3658.29499998805,1,3658.29499998805,0,0,NA,"Click To Continue","Text_left_X2",3,"object-19",NA,1,"That was decent.","You appeared very confident.","Task",NA,NA,NA,"SUPTM46030"
"137",1690961661738,"02/08/2023 07:34:21",1690965261738,1,"02/08/2023 09:34:21",139282,42,"task-g4az",NA,30997042,9195426,NA,"complete",NA,NA,"computer","Desktop or Laptop","Windows 10","Chrome 115.0.0.0","1200x800","1200x651",NA,NA,NA,"Feedback Phrases Task - List 2",8,"In","DECFBGAHJI",NA,"study_2 (video_feedback and feedback_list_2)","Feedback_ranking_L2_first","In","Feedback Phrases List 2","Feedback Phrases List 2",67,"Task","Screen 3","izqege",2,"continue","",1769.51500000001,1769.51500000001,1769.51500000001,1769.51500000001,1769.51500000001,1769.51500000001,1,1769.51500000001,0,0,NA,"Fixation Timing","Fixation Cross",1,"object-48",NA,1,"That was decent.","You appeared very confident.","Task",NA,NA,NA,"SUPTM46030"
