"Event.Index","UTC.Timestamp","UTC.Date.and.Time","Local.Timestamp","Local.Timezone","Local.Date.and.Time","Experiment.ID","Experiment.Version","Tree.Node.Key","Repeat.Key","Schedule.ID","Participant.Private.ID","Participant.Starting.Group","Participant.Status","Participant.Completion.Code","Participant.External.Session.ID","Participant.Device.Type","Participant.Device","Participant.OS","Participant.Browser","Participant.Monitor.Size","Participant.Viewport.Size","Checkpoint","Room.ID","Room.Order","Task.Name","Task.Version","order.ot79","branch.g31k","branch.5gtn","Spreadsheet","Trial.Number","Display","Screen","Screen.ID","Screen.Counter","Response.Type","Response","Onset.Time","Clock.Time","Reaction.Time","Absolute.Onset.Time","Absolute.Clock.Time","Absolute.Reaction.Time","Correct","Response.Onset","Response.Duration","Proportion","Tag","Component.Name","Object.Name","Object.Number","Object.ID","Spreadsheet..display","Manipulation..Spreadsheet","Random_ID"
"1",1710524107932,"15/03/2024 17:35:07",1710506107932,-5,"15/03/2024 07:35:07",171533,4,"task-kvtv",NA,36132801,10670581,NA,"rejected - time limit reached",NA,"65f482fa44684c49035118d0","computer","Desktop or Laptop","Mac OS 10.15.7","Chrome 122.0.0.0","1440x900","1440x779",NA,NA,0,"Task Introduction and Instructions (re-introduce video and audio) (Clone) (Clone)",2,"ABJCIDHEGF","Passed AC2","","Spreadsheet1",NA,"","","",NA,"5","BEGIN",NA,NA,NA,NA,NA,NA,0,NA,NA,NA,NA,"","",NA,"","",NA,"SUPPRF82392"
"2",1710524114254,"15/03/2024 17:35:14",1710506114254,-5,"15/03/2024 07:35:14",171533,4,"task-kvtv",NA,36132801,10670581,NA,"rejected - time limit reached",NA,"65f482fa44684c49035118d0","computer","Desktop or Laptop","Mac OS 10.15.7","Chrome 122.0.0.0","1440x900","1440x779",NA,NA,0,"Task Introduction and Instructions (re-introduce video and audio) (Clone) (Clone)",2,"ABJCIDHEGF","Passed AC2","","Spreadsheet1",1,"Task Instructions","Screen 1","anr7sn",1,"continue","",5067.7,5050,5067.7,5067.7,5050,5067.7,1,5067.7,0,0,NA,"Click To Continue","Continue Button",3,"object-60","Task Instructions",NA,"SUPPRF82392"
"3",1710524116994,"15/03/2024 17:35:16",1710506116994,-5,"15/03/2024 07:35:16",171533,4,"task-kvtv",NA,36132801,10670581,NA,"rejected - time limit reached",NA,"65f482fa44684c49035118d0","computer","Desktop or Laptop","Mac OS 10.15.7","Chrome 122.0.0.0","1440x900","1440x779",NA,NA,0,"Task Introduction and Instructions (re-introduce video and audio) (Clone) (Clone)",2,"ABJCIDHEGF","Passed AC2","","Spreadsheet1",1,"Task Instructions","Screen 4","spepx9",2,"continue","",2758.99999999776,2749.9,2758.99999999776,2758.99999999776,2749.9,2758.99999999776,1,2758.99999999776,0,0,NA,"Click To Continue","Continue Button",2,"object-9","Task Instructions",NA,"SUPPRF82392"
"4",1710524134360,"15/03/2024 17:35:34",1710506134360,-5,"15/03/2024 07:35:34",171533,4,"task-kvtv",NA,36132801,10670581,NA,"rejected - time limit reached",NA,"65f482fa44684c49035118d0","computer","Desktop or Laptop","Mac OS 10.15.7","Chrome 122.0.0.0","1440x900","1440x779",NA,NA,0,"Task Introduction and Instructions (re-introduce video and audio) (Clone) (Clone)",2,"ABJCIDHEGF","Passed AC2","","Spreadsheet1",1,"Task Instructions","Screen 2","ce2tc8",3,"continue","",17374.3999999985,17366.4,17374.3999999985,17374.3999999985,17366.4,17374.3999999985,1,17374.3999999985,0,0,NA,"Click To Continue","Continue Button",3,"object-59","Task Instructions",NA,"SUPPRF82392"
"5",1710524150438,"15/03/2024 17:35:50",1710506150438,-5,"15/03/2024 07:35:50",171533,4,"task-kvtv",NA,36132801,10670581,NA,"rejected - time limit reached",NA,"65f482fa44684c49035118d0","computer","Desktop or Laptop","Mac OS 10.15.7","Chrome 122.0.0.0","1440x900","1440x779",NA,NA,0,"Task Introduction and Instructions (re-introduce video and audio) (Clone) (Clone)",2,"ABJCIDHEGF","Passed AC2","","Spreadsheet1",1,"Task Instructions","Screen 3","1qtc8v",4,"continue","",16081.4,16065.6,16081.4,16081.4,16065.6,16081.4,1,16081.4,0,0,NA,"Click To Continue","Continue Button",2,"object-2983","Task Instructions",NA,"SUPPRF82392"
"6",1710524200140,"15/03/2024 17:36:40",1710506200140,-5,"15/03/2024 07:36:40",171533,4,"task-kvtv",NA,36132801,10670581,NA,"rejected - time limit reached",NA,"65f482fa44684c49035118d0","computer","Desktop or Laptop","Mac OS 10.15.7","Chrome 122.0.0.0","1440x900","1440x779",NA,NA,0,"Task Introduction and Instructions (re-introduce video and audio) (Clone) (Clone)",2,"ABJCIDHEGF","Passed AC2","","Spreadsheet1",1,"Task Instructions","Screen 12","1a4vu2",5,"continue","",49723.8999999985,49715.9,49723.8999999985,49723.8999999985,49715.9,49723.8999999985,1,49723.8999999985,0,0,NA,"Click To Continue","Continue Button",2,"object-2466","Task Instructions",NA,"SUPPRF82392"
"7",1710524205129,"15/03/2024 17:36:45",1710506205129,-5,"15/03/2024 07:36:45",171533,4,"task-kvtv",NA,36132801,10670581,NA,"rejected - time limit reached",NA,"65f482fa44684c49035118d0","computer","Desktop or Laptop","Mac OS 10.15.7","Chrome 122.0.0.0","1440x900","1440x779",NA,NA,0,"Task Introduction and Instructions (re-introduce video and audio) (Clone) (Clone)",2,"ABJCIDHEGF","Passed AC2","","Spreadsheet1",1,"Task Instructions","Screen 13","q9vwda",6,"continue","",4999.80000000002,4983.20000000001,4999.80000000002,4999.80000000002,4983.20000000001,4999.80000000002,1,4999.80000000002,0,0,NA,"Click To Continue","Continue Button",2,"object-2989","Task Instructions",NA,"SUPPRF82392"
"8",1710524210231,"15/03/2024 17:36:50",1710506210231,-5,"15/03/2024 07:36:50",171533,4,"task-kvtv",NA,36132801,10670581,NA,"rejected - time limit reached",NA,"65f482fa44684c49035118d0","computer","Desktop or Laptop","Mac OS 10.15.7","Chrome 122.0.0.0","1440x900","1440x779",NA,NA,0,"Task Introduction and Instructions (re-introduce video and audio) (Clone) (Clone)",2,"ABJCIDHEGF","Passed AC2","","Spreadsheet1",1,"Task Instructions","Screen 11","oyulb7",7,"continue","",5121.20000000074,5116.59999999999,5121.20000000074,5121.20000000074,5116.59999999999,5121.20000000074,1,5121.20000000074,0,0,NA,"Click To Continue","Continue Button",2,"object-52","Task Instructions",NA,"SUPPRF82392"
"9",1710524212856,"15/03/2024 17:36:52",1710506212856,-5,"15/03/2024 07:36:52",171533,4,"task-kvtv",NA,36132801,10670581,NA,"rejected - time limit reached",NA,"65f482fa44684c49035118d0","computer","Desktop or Laptop","Mac OS 10.15.7","Chrome 122.0.0.0","1440x900","1440x779",NA,NA,0,"Task Introduction and Instructions (re-introduce video and audio) (Clone) (Clone)",2,"ABJCIDHEGF","Passed AC2","","Spreadsheet1",1,"Task Instructions","Screen 5","8nvnao",8,"continue","",2630.19999999851,2616.8,2630.19999999851,2630.19999999851,2616.8,2630.19999999851,1,2630.19999999851,0,0,NA,"Click To Continue","Continue Button",2,"object-44","Task Instructions",NA,"SUPPRF82392"
"10",1710524212858,"15/03/2024 17:36:52",1710506212858,-5,"15/03/2024 07:36:52",171533,4,"task-kvtv",NA,36132801,10670581,NA,"rejected - time limit reached",NA,"65f482fa44684c49035118d0","computer","Desktop or Laptop","Mac OS 10.15.7","Chrome 122.0.0.0","1440x900","1440x779",NA,NA,0,"Task Introduction and Instructions (re-introduce video and audio) (Clone) (Clone)",2,"ABJCIDHEGF","Passed AC2","","Spreadsheet1",NA,"","","",NA,"5","END",NA,NA,NA,NA,NA,NA,0,NA,NA,NA,NA,"","",NA,"","",NA,"SUPPRF82392"
"1",1710525361057,"15/03/2024 17:56:01",1710525361057,0,"15/03/2024 17:56:01",171533,4,"task-kvtv",NA,36133692,10670779,NA,"complete",NA,"65f4890ce086774848365699","computer","Desktop or Laptop","Windows 10","Chrome 122.0.0.0","2560x1600","2560x1431",NA,NA,0,"Task Introduction and Instructions (re-introduce video and audio) (Clone) (Clone)",2,"CDBEAFJGIH","Passed AC2","","Spreadsheet1",NA,"","","",NA,"5","BEGIN",NA,NA,NA,NA,NA,NA,0,NA,NA,NA,NA,"","",NA,"","",NA,"SUPPRF19125"
"2",1710525368131,"15/03/2024 17:56:08",1710525368131,0,"15/03/2024 17:56:08",171533,4,"task-kvtv",NA,36133692,10670779,NA,"complete",NA,"65f4890ce086774848365699","computer","Desktop or Laptop","Windows 10","Chrome 122.0.0.0","2560x1600","2560x1431",NA,NA,0,"Task Introduction and Instructions (re-introduce video and audio) (Clone) (Clone)",2,"CDBEAFJGIH","Passed AC2","","Spreadsheet1",1,"Task Instructions","Screen 1","anr7sn",1,"continue","",6867,6850.4,6867,6867,6850.4,6867,1,6867,0,0,NA,"Click To Continue","Continue Button",3,"object-60","Task Instructions",NA,"SUPPRF19125"
"3",1710525371100,"15/03/2024 17:56:11",1710525371100,0,"15/03/2024 17:56:11",171533,4,"task-kvtv",NA,36133692,10670779,NA,"complete",NA,"65f4890ce086774848365699","computer","Desktop or Laptop","Windows 10","Chrome 122.0.0.0","2560x1600","2560x1431",NA,NA,0,"Task Introduction and Instructions (re-introduce video and audio) (Clone) (Clone)",2,"CDBEAFJGIH","Passed AC2","","Spreadsheet1",1,"Task Instructions","Screen 4","spepx9",2,"continue","",2988.2,2984.1,2988.2,2988.2,2984.1,2988.2,1,2988.2,0,0,NA,"Click To Continue","Continue Button",2,"object-9","Task Instructions",NA,"SUPPRF19125"
"4",1710525378198,"15/03/2024 17:56:18",1710525378198,0,"15/03/2024 17:56:18",171533,4,"task-kvtv",NA,36133692,10670779,NA,"complete",NA,"65f4890ce086774848365699","computer","Desktop or Laptop","Windows 10","Chrome 122.0.0.0","2560x1600","2560x1431",NA,NA,0,"Task Introduction and Instructions (re-introduce video and audio) (Clone) (Clone)",2,"CDBEAFJGIH","Passed AC2","","Spreadsheet1",1,"Task Instructions","Screen 2","ce2tc8",3,"continue","",7100.7,7084,7100.7,7100.7,7084,7100.7,1,7100.7,0,0,NA,"Click To Continue","Continue Button",3,"object-59","Task Instructions",NA,"SUPPRF19125"
"5",1710525384467,"15/03/2024 17:56:24",1710525384467,0,"15/03/2024 17:56:24",171533,4,"task-kvtv",NA,36133692,10670779,NA,"complete",NA,"65f4890ce086774848365699","computer","Desktop or Laptop","Windows 10","Chrome 122.0.0.0","2560x1600","2560x1431",NA,NA,0,"Task Introduction and Instructions (re-introduce video and audio) (Clone) (Clone)",2,"CDBEAFJGIH","Passed AC2","","Spreadsheet1",1,"Task Instructions","Screen 3","1qtc8v",4,"continue","",6286.3,6269,6286.3,6286.3,6269,6286.3,1,6286.3,0,0,NA,"Click To Continue","Continue Button",2,"object-2983","Task Instructions",NA,"SUPPRF19125"
"6",1710525394166,"15/03/2024 17:56:34",1710525394166,0,"15/03/2024 17:56:34",171533,4,"task-kvtv",NA,36133692,10670779,NA,"complete",NA,"65f4890ce086774848365699","computer","Desktop or Laptop","Windows 10","Chrome 122.0.0.0","2560x1600","2560x1431",NA,NA,0,"Task Introduction and Instructions (re-introduce video and audio) (Clone) (Clone)",2,"CDBEAFJGIH","Passed AC2","","Spreadsheet1",1,"Task Instructions","Screen 12","1a4vu2",5,"continue","",9717.40000000074,9700.8,9717.40000000074,9717.40000000074,9700.8,9717.40000000074,1,9717.40000000074,0,0,NA,"Click To Continue","Continue Button",2,"object-2466","Task Instructions",NA,"SUPPRF19125"
"7",1710525399260,"15/03/2024 17:56:39",1710525399260,0,"15/03/2024 17:56:39",171533,4,"task-kvtv",NA,36133692,10670779,NA,"complete",NA,"65f4890ce086774848365699","computer","Desktop or Laptop","Windows 10","Chrome 122.0.0.0","2560x1600","2560x1431",NA,NA,0,"Task Introduction and Instructions (re-introduce video and audio) (Clone) (Clone)",2,"CDBEAFJGIH","Passed AC2","","Spreadsheet1",1,"Task Instructions","Screen 13","q9vwda",6,"continue","",5110.60000000075,5098.8,5110.60000000075,5110.60000000075,5098.8,5110.60000000075,1,5110.60000000075,0,0,NA,"Click To Continue","Continue Button",2,"object-2989","Task Instructions",NA,"SUPPRF19125"
"8",1710525401818,"15/03/2024 17:56:41",1710525401818,0,"15/03/2024 17:56:41",171533,4,"task-kvtv",NA,36133692,10670779,NA,"complete",NA,"65f4890ce086774848365699","computer","Desktop or Laptop","Windows 10","Chrome 122.0.0.0","2560x1600","2560x1431",NA,NA,0,"Task Introduction and Instructions (re-introduce video and audio) (Clone) (Clone)",2,"CDBEAFJGIH","Passed AC2","","Spreadsheet1",1,"Task Instructions","Screen 11","oyulb7",7,"continue","",2566.89999999999,2550.1,2566.89999999999,2566.89999999999,2550.1,2566.89999999999,1,2566.89999999999,0,0,NA,"Click To Continue","Continue Button",2,"object-52","Task Instructions",NA,"SUPPRF19125"
"9",1710525404204,"15/03/2024 17:56:44",1710525404204,0,"15/03/2024 17:56:44",171533,4,"task-kvtv",NA,36133692,10670779,NA,"complete",NA,"65f4890ce086774848365699","computer","Desktop or Laptop","Windows 10","Chrome 122.0.0.0","2560x1600","2560x1431",NA,NA,0,"Task Introduction and Instructions (re-introduce video and audio) (Clone) (Clone)",2,"CDBEAFJGIH","Passed AC2","","Spreadsheet1",1,"Task Instructions","Screen 5","8nvnao",8,"continue","",2404.80000000224,2401.5,2404.80000000224,2404.80000000224,2401.5,2404.80000000224,1,2404.80000000224,0,0,NA,"Click To Continue","Continue Button",2,"object-44","Task Instructions",NA,"SUPPRF19125"
"10",1710525404206,"15/03/2024 17:56:44",1710525404206,0,"15/03/2024 17:56:44",171533,4,"task-kvtv",NA,36133692,10670779,NA,"complete",NA,"65f4890ce086774848365699","computer","Desktop or Laptop","Windows 10","Chrome 122.0.0.0","2560x1600","2560x1431",NA,NA,0,"Task Introduction and Instructions (re-introduce video and audio) (Clone) (Clone)",2,"CDBEAFJGIH","Passed AC2","","Spreadsheet1",NA,"","","",NA,"5","END",NA,NA,NA,NA,NA,NA,0,NA,NA,NA,NA,"","",NA,"","",NA,"SUPPRF19125"
"1",1710528444194,"15/03/2024 18:47:24",1710514044194,-4,"15/03/2024 10:47:24",171533,4,"task-kvtv",NA,36135396,10670897,NA,"complete",NA,"65f48c7739eb876deb45df6f","computer","Desktop or Laptop","Windows 10","Chrome 122.0.0.0","1500x1000","1500x831",NA,NA,0,"Task Introduction and Instructions (re-introduce video and audio) (Clone) (Clone)",2,"DECFBGAHJI","Passed AC2","","Spreadsheet1",NA,"","","",NA,"5","BEGIN",NA,NA,NA,NA,NA,NA,0,NA,NA,NA,NA,"","",NA,"","",NA,"SUPPRF52787"
"2",1710528756440,"15/03/2024 18:52:36",1710514356440,-4,"15/03/2024 10:52:36",171533,4,"task-kvtv",NA,36135396,10670897,NA,"complete",NA,"65f48c7739eb876deb45df6f","computer","Desktop or Laptop","Windows 10","Chrome 122.0.0.0","1500x1000","1500x831",NA,NA,0,"Task Introduction and Instructions (re-introduce video and audio) (Clone) (Clone)",2,"DECFBGAHJI","Passed AC2","","Spreadsheet1",1,"Task Instructions","Screen 1","anr7sn",1,"continue","",311674.799999964,311659.9,311674.799999964,311674.799999964,311659.9,311674.799999964,1,311674.799999964,0,0,NA,"Click To Continue","Continue Button",3,"object-60","Task Instructions",NA,"SUPPRF52787"
"3",1710528759348,"15/03/2024 18:52:39",1710514359348,-4,"15/03/2024 10:52:39",171533,4,"task-kvtv",NA,36135396,10670897,NA,"complete",NA,"65f48c7739eb876deb45df6f","computer","Desktop or Laptop","Windows 10","Chrome 122.0.0.0","1500x1000","1500x831",NA,NA,0,"Task Introduction and Instructions (re-introduce video and audio) (Clone) (Clone)",2,"DECFBGAHJI","Passed AC2","","Spreadsheet1",1,"Task Instructions","Screen 4","spepx9",2,"continue","",2923.39999996423,2917.29999999999,2923.39999996423,2923.39999996423,2917.29999999999,2923.39999996423,1,2923.39999996423,0,0,NA,"Click To Continue","Continue Button",2,"object-9","Task Instructions",NA,"SUPPRF52787"
"4",1710528765975,"15/03/2024 18:52:45",1710514365975,-4,"15/03/2024 10:52:45",171533,4,"task-kvtv",NA,36135396,10670897,NA,"complete",NA,"65f48c7739eb876deb45df6f","computer","Desktop or Laptop","Windows 10","Chrome 122.0.0.0","1500x1000","1500x831",NA,NA,0,"Task Introduction and Instructions (re-introduce video and audio) (Clone) (Clone)",2,"DECFBGAHJI","Passed AC2","","Spreadsheet1",1,"Task Instructions","Screen 2","ce2tc8",3,"continue","",6632.5,6618.40000000002,6632.5,6632.5,6618.40000000002,6632.5,1,6632.5,0,0,NA,"Click To Continue","Continue Button",3,"object-59","Task Instructions",NA,"SUPPRF52787"
"5",1710528776847,"15/03/2024 18:52:56",1710514376847,-4,"15/03/2024 10:52:56",171533,4,"task-kvtv",NA,36135396,10670897,NA,"complete",NA,"65f48c7739eb876deb45df6f","computer","Desktop or Laptop","Windows 10","Chrome 122.0.0.0","1500x1000","1500x831",NA,NA,0,"Task Introduction and Instructions (re-introduce video and audio) (Clone) (Clone)",2,"DECFBGAHJI","Passed AC2","","Spreadsheet1",1,"Task Instructions","Screen 3","1qtc8v",4,"continue","",10886,10869.3,10886,10886,10869.3,10886,1,10886,0,0,NA,"Click To Continue","Continue Button",2,"object-2983","Task Instructions",NA,"SUPPRF52787"
"6",1710528791141,"15/03/2024 18:53:11",1710514391141,-4,"15/03/2024 10:53:11",171533,4,"task-kvtv",NA,36135396,10670897,NA,"complete",NA,"65f48c7739eb876deb45df6f","computer","Desktop or Laptop","Windows 10","Chrome 122.0.0.0","1500x1000","1500x831",NA,NA,0,"Task Introduction and Instructions (re-introduce video and audio) (Clone) (Clone)",2,"DECFBGAHJI","Passed AC2","","Spreadsheet1",1,"Task Instructions","Screen 12","1a4vu2",5,"continue","",14311.3,14303.7,14311.3,14311.3,14303.7,14311.3,1,14311.3,0,0,NA,"Click To Continue","Continue Button",2,"object-2466","Task Instructions",NA,"SUPPRF52787"
"7",1710528796198,"15/03/2024 18:53:16",1710514396198,-4,"15/03/2024 10:53:16",171533,4,"task-kvtv",NA,36135396,10670897,NA,"complete",NA,"65f48c7739eb876deb45df6f","computer","Desktop or Laptop","Windows 10","Chrome 122.0.0.0","1500x1000","1500x831",NA,NA,0,"Task Introduction and Instructions (re-introduce video and audio) (Clone) (Clone)",2,"DECFBGAHJI","Passed AC2","","Spreadsheet1",1,"Task Instructions","Screen 13","q9vwda",6,"continue","",5064.69999996421,5051.19999999995,5064.69999996421,5064.69999996421,5051.19999999995,5064.69999996421,1,5064.69999996421,0,0,NA,"Click To Continue","Continue Button",2,"object-2989","Task Instructions",NA,"SUPPRF52787"
"8",1710528799062,"15/03/2024 18:53:19",1710514399062,-4,"15/03/2024 10:53:19",171533,4,"task-kvtv",NA,36135396,10670897,NA,"complete",NA,"65f48c7739eb876deb45df6f","computer","Desktop or Laptop","Windows 10","Chrome 122.0.0.0","1500x1000","1500x831",NA,NA,0,"Task Introduction and Instructions (re-introduce video and audio) (Clone) (Clone)",2,"DECFBGAHJI","Passed AC2","","Spreadsheet1",1,"Task Instructions","Screen 11","oyulb7",7,"continue","",2877.49999996426,2867.40000000002,2877.49999996426,2877.49999996426,2867.40000000002,2877.49999996426,1,2877.49999996426,0,0,NA,"Click To Continue","Continue Button",2,"object-52","Task Instructions",NA,"SUPPRF52787"
"9",1710528801711,"15/03/2024 18:53:21",1710514401711,-4,"15/03/2024 10:53:21",171533,4,"task-kvtv",NA,36135396,10670897,NA,"complete",NA,"65f48c7739eb876deb45df6f","computer","Desktop or Laptop","Windows 10","Chrome 122.0.0.0","1500x1000","1500x831",NA,NA,0,"Task Introduction and Instructions (re-introduce video and audio) (Clone) (Clone)",2,"DECFBGAHJI","Passed AC2","","Spreadsheet1",1,"Task Instructions","Screen 5","8nvnao",8,"continue","",2658.5,2650.59999999998,2658.5,2658.5,2650.59999999998,2658.5,1,2658.5,0,0,NA,"Click To Continue","Continue Button",2,"object-44","Task Instructions",NA,"SUPPRF52787"
"10",1710528801714,"15/03/2024 18:53:21",1710514401714,-4,"15/03/2024 10:53:21",171533,4,"task-kvtv",NA,36135396,10670897,NA,"complete",NA,"65f48c7739eb876deb45df6f","computer","Desktop or Laptop","Windows 10","Chrome 122.0.0.0","1500x1000","1500x831",NA,NA,0,"Task Introduction and Instructions (re-introduce video and audio) (Clone) (Clone)",2,"DECFBGAHJI","Passed AC2","","Spreadsheet1",NA,"","","",NA,"5","END",NA,NA,NA,NA,NA,NA,0,NA,NA,NA,NA,"","",NA,"","",NA,"SUPPRF52787"
"1",1710533380780,"15/03/2024 20:09:40",1710518980780,-4,"15/03/2024 12:09:40",171533,4,"task-kvtv",NA,36137901,10671677,NA,"complete",NA,"65f4a74462a3ee2f45d46c76","computer","Desktop or Laptop","Mac OS 10.15.7","Chrome 122.0.0.0","1440x900","1440x727",NA,NA,0,"Task Introduction and Instructions (re-introduce video and audio) (Clone) (Clone)",2,"FGEHDICJBA","Failed AC2","Passed AC1","Spreadsheet1",NA,"","","",NA,"5","BEGIN",NA,NA,NA,NA,NA,NA,0,NA,NA,NA,NA,"","",NA,"","",NA,"SUPPRF67318"
"2",1710533385129,"15/03/2024 20:09:45",1710518985129,-4,"15/03/2024 12:09:45",171533,4,"task-kvtv",NA,36137901,10671677,NA,"complete",NA,"65f4a74462a3ee2f45d46c76","computer","Desktop or Laptop","Mac OS 10.15.7","Chrome 122.0.0.0","1440x900","1440x727",NA,NA,0,"Task Introduction and Instructions (re-introduce video and audio) (Clone) (Clone)",2,"FGEHDICJBA","Failed AC2","Passed AC1","Spreadsheet1",1,"Task Instructions","Screen 1","anr7sn",1,"continue","",3740.3,3734.4,3740.3,3740.3,3734.4,3740.3,1,3740.3,0,0,NA,"Click To Continue","Continue Button",3,"object-60","Task Instructions",NA,"SUPPRF67318"
"3",1710533388129,"15/03/2024 20:09:48",1710518988129,-4,"15/03/2024 12:09:48",171533,4,"task-kvtv",NA,36137901,10671677,NA,"complete",NA,"65f4a74462a3ee2f45d46c76","computer","Desktop or Laptop","Mac OS 10.15.7","Chrome 122.0.0.0","1440x900","1440x727",NA,NA,0,"Task Introduction and Instructions (re-introduce video and audio) (Clone) (Clone)",2,"FGEHDICJBA","Failed AC2","Passed AC1","Spreadsheet1",1,"Task Instructions","Screen 4","spepx9",2,"continue","",3006.20000000074,3001,3006.20000000074,3006.20000000074,3001,3006.20000000074,1,3006.20000000074,0,0,NA,"Click To Continue","Continue Button",2,"object-9","Task Instructions",NA,"SUPPRF67318"
"4",1710533398047,"15/03/2024 20:09:58",1710518998047,-4,"15/03/2024 12:09:58",171533,4,"task-kvtv",NA,36137901,10671677,NA,"complete",NA,"65f4a74462a3ee2f45d46c76","computer","Desktop or Laptop","Mac OS 10.15.7","Chrome 122.0.0.0","1440x900","1440x727",NA,NA,0,"Task Introduction and Instructions (re-introduce video and audio) (Clone) (Clone)",2,"FGEHDICJBA","Failed AC2","Passed AC1","Spreadsheet1",1,"Task Instructions","Screen 2","ce2tc8",3,"continue","",9923.50000000149,9918.4,9923.50000000149,9923.50000000149,9918.4,9923.50000000149,1,9923.50000000149,0,0,NA,"Click To Continue","Continue Button",3,"object-59","Task Instructions",NA,"SUPPRF67318"
"5",1710533411083,"15/03/2024 20:10:11",1710519011083,-4,"15/03/2024 12:10:11",171533,4,"task-kvtv",NA,36137901,10671677,NA,"complete",NA,"65f4a74462a3ee2f45d46c76","computer","Desktop or Laptop","Mac OS 10.15.7","Chrome 122.0.0.0","1440x900","1440x727",NA,NA,0,"Task Introduction and Instructions (re-introduce video and audio) (Clone) (Clone)",2,"FGEHDICJBA","Failed AC2","Passed AC1","Spreadsheet1",1,"Task Instructions","Screen 3","1qtc8v",4,"continue","",13041.3999999985,13034.6,13041.3999999985,13041.3999999985,13034.6,13041.3999999985,1,13041.3999999985,0,0,NA,"Click To Continue","Continue Button",2,"object-2983","Task Instructions",NA,"SUPPRF67318"
"6",1710533415249,"15/03/2024 20:10:15",1710519015249,-4,"15/03/2024 12:10:15",171533,4,"task-kvtv",NA,36137901,10671677,NA,"complete",NA,"65f4a74462a3ee2f45d46c76","computer","Desktop or Laptop","Mac OS 10.15.7","Chrome 122.0.0.0","1440x900","1440x727",NA,NA,0,"Task Introduction and Instructions (re-introduce video and audio) (Clone) (Clone)",2,"FGEHDICJBA","Failed AC2","Passed AC1","Spreadsheet1",1,"Task Instructions","Screen 12","1a4vu2",5,"continue","",4172.59999999926,4167.3,4172.59999999926,4172.59999999926,4167.3,4172.59999999926,1,4172.59999999926,0,0,NA,"Click To Continue","Continue Button",2,"object-2466","Task Instructions",NA,"SUPPRF67318"
"7",1710533420066,"15/03/2024 20:10:20",1710519020066,-4,"15/03/2024 12:10:20",171533,4,"task-kvtv",NA,36137901,10671677,NA,"complete",NA,"65f4a74462a3ee2f45d46c76","computer","Desktop or Laptop","Mac OS 10.15.7","Chrome 122.0.0.0","1440x900","1440x727",NA,NA,0,"Task Introduction and Instructions (re-introduce video and audio) (Clone) (Clone)",2,"FGEHDICJBA","Failed AC2","Passed AC1","Spreadsheet1",1,"Task Instructions","Screen 13","q9vwda",6,"continue","",4822.20000000149,4817.5,4822.20000000149,4822.20000000149,4817.5,4822.20000000149,1,4822.20000000149,0,0,NA,"Click To Continue","Continue Button",2,"object-2989","Task Instructions",NA,"SUPPRF67318"
"8",1710533424884,"15/03/2024 20:10:24",1710519024884,-4,"15/03/2024 12:10:24",171533,4,"task-kvtv",NA,36137901,10671677,NA,"complete",NA,"65f4a74462a3ee2f45d46c76","computer","Desktop or Laptop","Mac OS 10.15.7","Chrome 122.0.0.0","1440x900","1440x727",NA,NA,0,"Task Introduction and Instructions (re-introduce video and audio) (Clone) (Clone)",2,"FGEHDICJBA","Failed AC2","Passed AC1","Spreadsheet1",1,"Task Instructions","Screen 11","oyulb7",7,"continue","",4823.1,4818.1,4823.1,4823.1,4818.1,4823.1,1,4823.1,0,0,NA,"Click To Continue","Continue Button",2,"object-52","Task Instructions",NA,"SUPPRF67318"
"9",1710533427367,"15/03/2024 20:10:27",1710519027367,-4,"15/03/2024 12:10:27",171533,4,"task-kvtv",NA,36137901,10671677,NA,"complete",NA,"65f4a74462a3ee2f45d46c76","computer","Desktop or Laptop","Mac OS 10.15.7","Chrome 122.0.0.0","1440x900","1440x727",NA,NA,0,"Task Introduction and Instructions (re-introduce video and audio) (Clone) (Clone)",2,"FGEHDICJBA","Failed AC2","Passed AC1","Spreadsheet1",1,"Task Instructions","Screen 5","8nvnao",8,"continue","",2487.89999999851,2483.8,2487.89999999851,2487.89999999851,2483.8,2487.89999999851,1,2487.89999999851,0,0,NA,"Click To Continue","Continue Button",2,"object-44","Task Instructions",NA,"SUPPRF67318"
"10",1710533427369,"15/03/2024 20:10:27",1710519027369,-4,"15/03/2024 12:10:27",171533,4,"task-kvtv",NA,36137901,10671677,NA,"complete",NA,"65f4a74462a3ee2f45d46c76","computer","Desktop or Laptop","Mac OS 10.15.7","Chrome 122.0.0.0","1440x900","1440x727",NA,NA,0,"Task Introduction and Instructions (re-introduce video and audio) (Clone) (Clone)",2,"FGEHDICJBA","Failed AC2","Passed AC1","Spreadsheet1",NA,"","","",NA,"5","END",NA,NA,NA,NA,NA,NA,0,NA,NA,NA,NA,"","",NA,"","",NA,"SUPPRF67318"
"1",1710533625864,"15/03/2024 20:13:45",1710537225864,1,"15/03/2024 22:13:45",171533,4,"task-kvtv",NA,36138077,10671719,NA,"complete",NA,"65f4a95d55f7947822ff0703","computer","Desktop or Laptop","Mac OS 10.15.7","Chrome 122.0.0.0","1440x900","1440x813",NA,NA,0,"Task Introduction and Instructions (re-introduce video and audio) (Clone) (Clone)",2,"HIGJFAEBDC","Passed AC2","","Spreadsheet1",NA,"","","",NA,"5","BEGIN",NA,NA,NA,NA,NA,NA,0,NA,NA,NA,NA,"","",NA,"","",NA,"SUPPRF34851"
"2",1710533877235,"15/03/2024 20:17:57",1710537477235,1,"15/03/2024 22:17:57",171533,4,"task-kvtv",NA,36138077,10671719,NA,"complete",NA,"65f4a95d55f7947822ff0703","computer","Desktop or Laptop","Mac OS 10.15.7","Chrome 122.0.0.0","1440x900","1440x813",NA,NA,0,"Task Introduction and Instructions (re-introduce video and audio) (Clone) (Clone)",2,"HIGJFAEBDC","Passed AC2","","Spreadsheet1",1,"Task Instructions","Screen 1","anr7sn",1,"continue","",251304,251287.3,251304,251304,251287.3,251304,1,251304,0,0,NA,"Click To Continue","Continue Button",3,"object-60","Task Instructions",NA,"SUPPRF34851"
"3",1710533879915,"15/03/2024 20:17:59",1710537479915,1,"15/03/2024 22:17:59",171533,4,"task-kvtv",NA,36138077,10671719,NA,"complete",NA,"65f4a95d55f7947822ff0703","computer","Desktop or Laptop","Mac OS 10.15.7","Chrome 122.0.0.0","1440x900","1440x813",NA,NA,0,"Task Introduction and Instructions (re-introduce video and audio) (Clone) (Clone)",2,"HIGJFAEBDC","Passed AC2","","Spreadsheet1",1,"Task Instructions","Screen 4","spepx9",2,"continue","",2698.10000002384,2683.29999999999,2698.10000002384,2698.10000002384,2683.29999999999,2698.10000002384,1,2698.10000002384,0,0,NA,"Click To Continue","Continue Button",2,"object-9","Task Instructions",NA,"SUPPRF34851"
"4",1710533891248,"15/03/2024 20:18:11",1710537491248,1,"15/03/2024 22:18:11",171533,4,"task-kvtv",NA,36138077,10671719,NA,"complete",NA,"65f4a95d55f7947822ff0703","computer","Desktop or Laptop","Mac OS 10.15.7","Chrome 122.0.0.0","1440x900","1440x813",NA,NA,0,"Task Introduction and Instructions (re-introduce video and audio) (Clone) (Clone)",2,"HIGJFAEBDC","Passed AC2","","Spreadsheet1",1,"Task Instructions","Screen 2","ce2tc8",3,"continue","",11348.5999999762,11333.5,11348.5999999762,11348.5999999762,11333.5,11348.5999999762,1,11348.5999999762,0,0,NA,"Click To Continue","Continue Button",3,"object-59","Task Instructions",NA,"SUPPRF34851"
"5",1710533905982,"15/03/2024 20:18:25",1710537505982,1,"15/03/2024 22:18:25",171533,4,"task-kvtv",NA,36138077,10671719,NA,"complete",NA,"65f4a95d55f7947822ff0703","computer","Desktop or Laptop","Mac OS 10.15.7","Chrome 122.0.0.0","1440x900","1440x813",NA,NA,0,"Task Introduction and Instructions (re-introduce video and audio) (Clone) (Clone)",2,"HIGJFAEBDC","Passed AC2","","Spreadsheet1",1,"Task Instructions","Screen 3","1qtc8v",4,"continue","",14749.4999999523,14733.6,14749.4999999523,14749.4999999523,14733.6,14749.4999999523,1,14749.4999999523,0,0,NA,"Click To Continue","Continue Button",2,"object-2983","Task Instructions",NA,"SUPPRF34851"
"6",1710533919465,"15/03/2024 20:18:39",1710537519465,1,"15/03/2024 22:18:39",171533,4,"task-kvtv",NA,36138077,10671719,NA,"complete",NA,"65f4a95d55f7947822ff0703","computer","Desktop or Laptop","Mac OS 10.15.7","Chrome 122.0.0.0","1440x900","1440x813",NA,NA,0,"Task Introduction and Instructions (re-introduce video and audio) (Clone) (Clone)",2,"HIGJFAEBDC","Passed AC2","","Spreadsheet1",1,"Task Instructions","Screen 12","1a4vu2",5,"continue","",13498.7000000238,13483.6,13498.7000000238,13498.7000000238,13483.6,13498.7000000238,1,13498.7000000238,0,0,NA,"Click To Continue","Continue Button",2,"object-2466","Task Instructions",NA,"SUPPRF34851"
"7",1710533924582,"15/03/2024 20:18:44",1710537524582,1,"15/03/2024 22:18:44",171533,4,"task-kvtv",NA,36138077,10671719,NA,"complete",NA,"65f4a95d55f7947822ff0703","computer","Desktop or Laptop","Mac OS 10.15.7","Chrome 122.0.0.0","1440x900","1440x813",NA,NA,0,"Task Introduction and Instructions (re-introduce video and audio) (Clone) (Clone)",2,"HIGJFAEBDC","Passed AC2","","Spreadsheet1",1,"Task Instructions","Screen 13","q9vwda",6,"continue","",5132.29999995232,5116.70000000001,5132.29999995232,5132.29999995232,5116.70000000001,5132.29999995232,1,5132.29999995232,0,0,NA,"Click To Continue","Continue Button",2,"object-2989","Task Instructions",NA,"SUPPRF34851"
"8",1710533928948,"15/03/2024 20:18:48",1710537528948,1,"15/03/2024 22:18:48",171533,4,"task-kvtv",NA,36138077,10671719,NA,"complete",NA,"65f4a95d55f7947822ff0703","computer","Desktop or Laptop","Mac OS 10.15.7","Chrome 122.0.0.0","1440x900","1440x813",NA,NA,0,"Task Introduction and Instructions (re-introduce video and audio) (Clone) (Clone)",2,"HIGJFAEBDC","Passed AC2","","Spreadsheet1",1,"Task Instructions","Screen 11","oyulb7",7,"continue","",4381.5999999523,4366.70000000001,4381.5999999523,4381.5999999523,4366.70000000001,4381.5999999523,1,4381.5999999523,0,0,NA,"Click To Continue","Continue Button",2,"object-52","Task Instructions",NA,"SUPPRF34851"
"9",1710533931765,"15/03/2024 20:18:51",1710537531765,1,"15/03/2024 22:18:51",171533,4,"task-kvtv",NA,36138077,10671719,NA,"complete",NA,"65f4a95d55f7947822ff0703","computer","Desktop or Laptop","Mac OS 10.15.7","Chrome 122.0.0.0","1440x900","1440x813",NA,NA,0,"Task Introduction and Instructions (re-introduce video and audio) (Clone) (Clone)",2,"HIGJFAEBDC","Passed AC2","","Spreadsheet1",1,"Task Instructions","Screen 5","8nvnao",8,"continue","",2831.99999997613,2816.69999999995,2831.99999997613,2831.99999997613,2816.69999999995,2831.99999997613,1,2831.99999997613,0,0,NA,"Click To Continue","Continue Button",2,"object-44","Task Instructions",NA,"SUPPRF34851"
"10",1710533931770,"15/03/2024 20:18:51",1710537531770,1,"15/03/2024 22:18:51",171533,4,"task-kvtv",NA,36138077,10671719,NA,"complete",NA,"65f4a95d55f7947822ff0703","computer","Desktop or Laptop","Mac OS 10.15.7","Chrome 122.0.0.0","1440x900","1440x813",NA,NA,0,"Task Introduction and Instructions (re-introduce video and audio) (Clone) (Clone)",2,"HIGJFAEBDC","Passed AC2","","Spreadsheet1",NA,"","","",NA,"5","END",NA,NA,NA,NA,NA,NA,0,NA,NA,NA,NA,"","",NA,"","",NA,"SUPPRF34851"
"1",1710534849088,"15/03/2024 20:34:09",1710509649088,-7,"15/03/2024 06:34:09",171533,4,"task-kvtv",NA,36138695,10671802,NA,"complete",NA,"65f4adc74b3b22141fd0590e","computer","Desktop or Laptop","Windows 10","Chrome 122.0.0.0","1366x768","1366x645",NA,NA,0,"Task Introduction and Instructions (re-introduce video and audio) (Clone) (Clone)",2,"JAIBHCGDFE","Passed AC2","","Spreadsheet1",NA,"","","",NA,"5","BEGIN",NA,NA,NA,NA,NA,NA,0,NA,NA,NA,NA,"","",NA,"","",NA,"SUPPRF60790"
"2",1710534859975,"15/03/2024 20:34:19",1710509659975,-7,"15/03/2024 06:34:19",171533,4,"task-kvtv",NA,36138695,10671802,NA,"complete",NA,"65f4adc74b3b22141fd0590e","computer","Desktop or Laptop","Windows 10","Chrome 122.0.0.0","1366x768","1366x645",NA,NA,0,"Task Introduction and Instructions (re-introduce video and audio) (Clone) (Clone)",2,"JAIBHCGDFE","Passed AC2","","Spreadsheet1",1,"Task Instructions","Screen 1","anr7sn",1,"continue","",10684.5,10671,10684.5,10684.5,10671,10684.5,1,10684.5,0,0,NA,"Click To Continue","Continue Button",3,"object-60","Task Instructions",NA,"SUPPRF60790"
"3",1710534863927,"15/03/2024 20:34:23",1710509663927,-7,"15/03/2024 06:34:23",171533,4,"task-kvtv",NA,36138695,10671802,NA,"complete",NA,"65f4adc74b3b22141fd0590e","computer","Desktop or Laptop","Windows 10","Chrome 122.0.0.0","1366x768","1366x645",NA,NA,0,"Task Introduction and Instructions (re-introduce video and audio) (Clone) (Clone)",2,"JAIBHCGDFE","Passed AC2","","Spreadsheet1",1,"Task Instructions","Screen 4","spepx9",2,"continue","",3966.19999998808,3961.8,3966.19999998808,3966.19999998808,3961.8,3966.19999998808,1,3966.19999998808,0,0,NA,"Click To Continue","Continue Button",2,"object-9","Task Instructions",NA,"SUPPRF60790"
"4",1710534876300,"15/03/2024 20:34:36",1710509676300,-7,"15/03/2024 06:34:36",171533,4,"task-kvtv",NA,36138695,10671802,NA,"complete",NA,"65f4adc74b3b22141fd0590e","computer","Desktop or Laptop","Windows 10","Chrome 122.0.0.0","1366x768","1366x645",NA,NA,0,"Task Introduction and Instructions (re-introduce video and audio) (Clone) (Clone)",2,"JAIBHCGDFE","Passed AC2","","Spreadsheet1",1,"Task Instructions","Screen 2","ce2tc8",3,"continue","",12376.0999999762,12369.2,12376.0999999762,12376.0999999762,12369.2,12376.0999999762,1,12376.0999999762,0,0,NA,"Click To Continue","Continue Button",3,"object-59","Task Instructions",NA,"SUPPRF60790"
"5",1710534886732,"15/03/2024 20:34:46",1710509686732,-7,"15/03/2024 06:34:46",171533,4,"task-kvtv",NA,36138695,10671802,NA,"complete",NA,"65f4adc74b3b22141fd0590e","computer","Desktop or Laptop","Windows 10","Chrome 122.0.0.0","1366x768","1366x645",NA,NA,0,"Task Introduction and Instructions (re-introduce video and audio) (Clone) (Clone)",2,"JAIBHCGDFE","Passed AC2","","Spreadsheet1",1,"Task Instructions","Screen 3","1qtc8v",4,"continue","",10439.1999999881,10437.9,10439.1999999881,10439.1999999881,10437.9,10439.1999999881,1,10439.1999999881,0,0,NA,"Click To Continue","Continue Button",2,"object-2983","Task Instructions",NA,"SUPPRF60790"
"6",1710534897298,"15/03/2024 20:34:57",1710509697298,-7,"15/03/2024 06:34:57",171533,4,"task-kvtv",NA,36138695,10671802,NA,"complete",NA,"65f4adc74b3b22141fd0590e","computer","Desktop or Laptop","Windows 10","Chrome 122.0.0.0","1366x768","1366x645",NA,NA,0,"Task Introduction and Instructions (re-introduce video and audio) (Clone) (Clone)",2,"JAIBHCGDFE","Passed AC2","","Spreadsheet1",1,"Task Instructions","Screen 12","1a4vu2",5,"continue","",10567.3999999821,10555,10567.3999999821,10567.3999999821,10555,10567.3999999821,1,10567.3999999821,0,0,NA,"Click To Continue","Continue Button",2,"object-2466","Task Instructions",NA,"SUPPRF60790"
"7",1710534902749,"15/03/2024 20:35:02",1710509702749,-7,"15/03/2024 06:35:02",171533,4,"task-kvtv",NA,36138695,10671802,NA,"complete",NA,"65f4adc74b3b22141fd0590e","computer","Desktop or Laptop","Windows 10","Chrome 122.0.0.0","1366x768","1366x645",NA,NA,0,"Task Introduction and Instructions (re-introduce video and audio) (Clone) (Clone)",2,"JAIBHCGDFE","Passed AC2","","Spreadsheet1",1,"Task Instructions","Screen 13","q9vwda",6,"continue","",5463.79999998808,5460.1,5463.79999998808,5463.79999998808,5460.1,5463.79999998808,1,5463.79999998808,0,0,NA,"Click To Continue","Continue Button",2,"object-2989","Task Instructions",NA,"SUPPRF60790"
"8",1710534907122,"15/03/2024 20:35:07",1710509707122,-7,"15/03/2024 06:35:07",171533,4,"task-kvtv",NA,36138695,10671802,NA,"complete",NA,"65f4adc74b3b22141fd0590e","computer","Desktop or Laptop","Windows 10","Chrome 122.0.0.0","1366x768","1366x645",NA,NA,0,"Task Introduction and Instructions (re-introduce video and audio) (Clone) (Clone)",2,"JAIBHCGDFE","Passed AC2","","Spreadsheet1",1,"Task Instructions","Screen 11","oyulb7",7,"continue","",4375.89999997616,4362,4375.89999997616,4375.89999997616,4362,4375.89999997616,1,4375.89999997616,0,0,NA,"Click To Continue","Continue Button",2,"object-52","Task Instructions",NA,"SUPPRF60790"
"9",1710534911070,"15/03/2024 20:35:11",1710509711070,-7,"15/03/2024 06:35:11",171533,4,"task-kvtv",NA,36138695,10671802,NA,"complete",NA,"65f4adc74b3b22141fd0590e","computer","Desktop or Laptop","Windows 10","Chrome 122.0.0.0","1366x768","1366x645",NA,NA,0,"Task Introduction and Instructions (re-introduce video and audio) (Clone) (Clone)",2,"JAIBHCGDFE","Passed AC2","","Spreadsheet1",1,"Task Instructions","Screen 5","8nvnao",8,"response","bot",3962.39999997616,3945.6,3962.39999997616,3962.39999997616,3945.6,3962.39999997616,1,3962.39999997616,0,0,NA,"Click Response","Response",5,"object-47","Task Instructions",NA,"SUPPRF60790"
"10",1710534911074,"15/03/2024 20:35:11",1710509711074,-7,"15/03/2024 06:35:11",171533,4,"task-kvtv",NA,36138695,10671802,NA,"complete",NA,"65f4adc74b3b22141fd0590e","computer","Desktop or Laptop","Windows 10","Chrome 122.0.0.0","1366x768","1366x645",NA,NA,0,"Task Introduction and Instructions (re-introduce video and audio) (Clone) (Clone)",2,"JAIBHCGDFE","Passed AC2","","Spreadsheet1",NA,"","","",NA,"5","END",NA,NA,NA,NA,NA,NA,0,NA,NA,NA,NA,"","",NA,"","",NA,"SUPPRF60790"
"1",1710536170669,"15/03/2024 20:56:10",1710518170669,-5,"15/03/2024 10:56:10",171533,4,"task-kvtv",NA,36139535,10671945,NA,"complete",NA,"65f4b2f1a1c2c8a3b4054911","computer","Desktop or Laptop","Windows 10","Chrome 122.0.0.0","1536x864","1536x730",NA,NA,0,"Task Introduction and Instructions (re-introduce video and audio) (Clone) (Clone)",2,"ABJCIDHEGF","Passed AC2","","Spreadsheet1",NA,"","","",NA,"5","BEGIN",NA,NA,NA,NA,NA,NA,0,NA,NA,NA,NA,"","",NA,"","",NA,"SUPPRF68963"
"2",1710536174418,"15/03/2024 20:56:14",1710518174418,-5,"15/03/2024 10:56:14",171533,4,"task-kvtv",NA,36139535,10671945,NA,"complete",NA,"65f4b2f1a1c2c8a3b4054911","computer","Desktop or Laptop","Windows 10","Chrome 122.0.0.0","1536x864","1536x730",NA,NA,0,"Task Introduction and Instructions (re-introduce video and audio) (Clone) (Clone)",2,"ABJCIDHEGF","Passed AC2","","Spreadsheet1",1,"Task Instructions","Screen 1","anr7sn",1,"continue","",3151.59999999776,3149.8,3151.59999999776,3151.59999999776,3149.8,3151.59999999776,1,3151.59999999776,0,0,NA,"Click To Continue","Continue Button",3,"object-60","Task Instructions",NA,"SUPPRF68963"
"3",1710536177288,"15/03/2024 20:56:17",1710518177288,-5,"15/03/2024 10:56:17",171533,4,"task-kvtv",NA,36139535,10671945,NA,"complete",NA,"65f4b2f1a1c2c8a3b4054911","computer","Desktop or Laptop","Windows 10","Chrome 122.0.0.0","1536x864","1536x730",NA,NA,0,"Task Introduction and Instructions (re-introduce video and audio) (Clone) (Clone)",2,"ABJCIDHEGF","Passed AC2","","Spreadsheet1",1,"Task Instructions","Screen 4","spepx9",2,"continue","",2871.29999999776,2866.5,2871.29999999776,2871.29999999776,2866.5,2871.29999999776,1,2871.29999999776,0,0,NA,"Click To Continue","Continue Button",2,"object-9","Task Instructions",NA,"SUPPRF68963"
"4",1710536184297,"15/03/2024 20:56:24",1710518184297,-5,"15/03/2024 10:56:24",171533,4,"task-kvtv",NA,36139535,10671945,NA,"complete",NA,"65f4b2f1a1c2c8a3b4054911","computer","Desktop or Laptop","Windows 10","Chrome 122.0.0.0","1536x864","1536x730",NA,NA,0,"Task Introduction and Instructions (re-introduce video and audio) (Clone) (Clone)",2,"ABJCIDHEGF","Passed AC2","","Spreadsheet1",1,"Task Instructions","Screen 2","ce2tc8",3,"continue","",7014.2,7008.2,7014.2,7014.2,7008.2,7014.2,1,7014.2,0,0,NA,"Click To Continue","Continue Button",3,"object-59","Task Instructions",NA,"SUPPRF68963"
"5",1710536190776,"15/03/2024 20:56:30",1710518190776,-5,"15/03/2024 10:56:30",171533,4,"task-kvtv",NA,36139535,10671945,NA,"complete",NA,"65f4b2f1a1c2c8a3b4054911","computer","Desktop or Laptop","Windows 10","Chrome 122.0.0.0","1536x864","1536x730",NA,NA,0,"Task Introduction and Instructions (re-introduce video and audio) (Clone) (Clone)",2,"ABJCIDHEGF","Passed AC2","","Spreadsheet1",1,"Task Instructions","Screen 3","1qtc8v",4,"continue","",6485.30000000075,6483.2,6485.30000000075,6485.30000000075,6483.2,6485.30000000075,1,6485.30000000075,0,0,NA,"Click To Continue","Continue Button",2,"object-2983","Task Instructions",NA,"SUPPRF68963"
"6",1710536200283,"15/03/2024 20:56:40",1710518200283,-5,"15/03/2024 10:56:40",171533,4,"task-kvtv",NA,36139535,10671945,NA,"complete",NA,"65f4b2f1a1c2c8a3b4054911","computer","Desktop or Laptop","Windows 10","Chrome 122.0.0.0","1536x864","1536x730",NA,NA,0,"Task Introduction and Instructions (re-introduce video and audio) (Clone) (Clone)",2,"ABJCIDHEGF","Passed AC2","","Spreadsheet1",1,"Task Instructions","Screen 12","1a4vu2",5,"continue","",9508.89999999776,9508.1,9508.89999999776,9508.89999999776,9508.1,9508.89999999776,1,9508.89999999776,0,0,NA,"Click To Continue","Continue Button",2,"object-2466","Task Instructions",NA,"SUPPRF68963"
"7",1710536207555,"15/03/2024 20:56:47",1710518207555,-5,"15/03/2024 10:56:47",171533,4,"task-kvtv",NA,36139535,10671945,NA,"complete",NA,"65f4b2f1a1c2c8a3b4054911","computer","Desktop or Laptop","Windows 10","Chrome 122.0.0.0","1536x864","1536x730",NA,NA,0,"Task Introduction and Instructions (re-introduce video and audio) (Clone) (Clone)",2,"ABJCIDHEGF","Passed AC2","","Spreadsheet1",1,"Task Instructions","Screen 13","q9vwda",6,"continue","",7272.39999999925,7266.5,7272.39999999925,7272.39999999925,7266.5,7272.39999999925,1,7272.39999999925,0,0,NA,"Click To Continue","Continue Button",2,"object-2989","Task Instructions",NA,"SUPPRF68963"
"8",1710536210777,"15/03/2024 20:56:50",1710518210777,-5,"15/03/2024 10:56:50",171533,4,"task-kvtv",NA,36139535,10671945,NA,"complete",NA,"65f4b2f1a1c2c8a3b4054911","computer","Desktop or Laptop","Windows 10","Chrome 122.0.0.0","1536x864","1536x730",NA,NA,0,"Task Introduction and Instructions (re-introduce video and audio) (Clone) (Clone)",2,"ABJCIDHEGF","Passed AC2","","Spreadsheet1",1,"Task Instructions","Screen 11","oyulb7",7,"continue","",3227.89999999925,3225,3227.89999999925,3227.89999999925,3225,3227.89999999925,1,3227.89999999925,0,0,NA,"Click To Continue","Continue Button",2,"object-52","Task Instructions",NA,"SUPPRF68963"
"9",1710536213377,"15/03/2024 20:56:53",1710518213377,-5,"15/03/2024 10:56:53",171533,4,"task-kvtv",NA,36139535,10671945,NA,"complete",NA,"65f4b2f1a1c2c8a3b4054911","computer","Desktop or Laptop","Windows 10","Chrome 122.0.0.0","1536x864","1536x730",NA,NA,0,"Task Introduction and Instructions (re-introduce video and audio) (Clone) (Clone)",2,"ABJCIDHEGF","Passed AC2","","Spreadsheet1",1,"Task Instructions","Screen 5","8nvnao",8,"continue","",2603.39999999925,2599.89999999999,2603.39999999925,2603.39999999925,2599.89999999999,2603.39999999925,1,2603.39999999925,0,0,NA,"Click To Continue","Continue Button",2,"object-44","Task Instructions",NA,"SUPPRF68963"
"10",1710536213379,"15/03/2024 20:56:53",1710518213379,-5,"15/03/2024 10:56:53",171533,4,"task-kvtv",NA,36139535,10671945,NA,"complete",NA,"65f4b2f1a1c2c8a3b4054911","computer","Desktop or Laptop","Windows 10","Chrome 122.0.0.0","1536x864","1536x730",NA,NA,0,"Task Introduction and Instructions (re-introduce video and audio) (Clone) (Clone)",2,"ABJCIDHEGF","Passed AC2","","Spreadsheet1",NA,"","","",NA,"5","END",NA,NA,NA,NA,NA,NA,0,NA,NA,NA,NA,"","",NA,"","",NA,"SUPPRF68963"
"1",1710538912756,"15/03/2024 21:41:52",1710513712756,-7,"15/03/2024 07:41:52",171533,4,"task-kvtv",NA,36140706,10672236,NA,"complete",NA,"65f4b761bd9ff8c80728201f","computer","Desktop or Laptop","Mac OS 10.15.7","Chrome 120.0.0.0","1470x956","1470x765",NA,NA,0,"Task Introduction and Instructions (re-introduce video and audio) (Clone) (Clone)",2,"BCADJEIFHG","Passed AC2","","Spreadsheet1",NA,"","","",NA,"5","BEGIN",NA,NA,NA,NA,NA,NA,0,NA,NA,NA,NA,"","",NA,"","",NA,"SUPPRF84585"
"2",1710538917125,"15/03/2024 21:41:57",1710513717125,-7,"15/03/2024 07:41:57",171533,4,"task-kvtv",NA,36140706,10672236,NA,"complete",NA,"65f4b761bd9ff8c80728201f","computer","Desktop or Laptop","Mac OS 10.15.7","Chrome 120.0.0.0","1470x956","1470x765",NA,NA,0,"Task Introduction and Instructions (re-introduce video and audio) (Clone) (Clone)",2,"BCADJEIFHG","Passed AC2","","Spreadsheet1",1,"Task Instructions","Screen 1","anr7sn",1,"continue","",3192.40000000596,3183.3,3192.40000000596,3192.40000000596,3183.3,3192.40000000596,1,3192.40000000596,0,0,NA,"Click To Continue","Continue Button",3,"object-60","Task Instructions",NA,"SUPPRF84585"
"3",1710538919849,"15/03/2024 21:41:59",1710513719849,-7,"15/03/2024 07:41:59",171533,4,"task-kvtv",NA,36140706,10672236,NA,"complete",NA,"65f4b761bd9ff8c80728201f","computer","Desktop or Laptop","Mac OS 10.15.7","Chrome 120.0.0.0","1470x956","1470x765",NA,NA,0,"Task Introduction and Instructions (re-introduce video and audio) (Clone) (Clone)",2,"BCADJEIFHG","Passed AC2","","Spreadsheet1",1,"Task Instructions","Screen 4","spepx9",2,"continue","",2732.60000000596,2716.6,2732.60000000596,2732.60000000596,2716.6,2732.60000000596,1,2732.60000000596,0,0,NA,"Click To Continue","Continue Button",2,"object-9","Task Instructions",NA,"SUPPRF84585"
"4",1710538930665,"15/03/2024 21:42:10",1710513730665,-7,"15/03/2024 07:42:10",171533,4,"task-kvtv",NA,36140706,10672236,NA,"complete",NA,"65f4b761bd9ff8c80728201f","computer","Desktop or Laptop","Mac OS 10.15.7","Chrome 120.0.0.0","1470x956","1470x765",NA,NA,0,"Task Introduction and Instructions (re-introduce video and audio) (Clone) (Clone)",2,"BCADJEIFHG","Passed AC2","","Spreadsheet1",1,"Task Instructions","Screen 2","ce2tc8",3,"continue","",10832.7999999881,10816.5,10832.7999999881,10832.7999999881,10816.5,10832.7999999881,1,10832.7999999881,0,0,NA,"Click To Continue","Continue Button",3,"object-59","Task Instructions",NA,"SUPPRF84585"
"5",1710538939749,"15/03/2024 21:42:19",1710513739749,-7,"15/03/2024 07:42:19",171533,4,"task-kvtv",NA,36140706,10672236,NA,"complete",NA,"65f4b761bd9ff8c80728201f","computer","Desktop or Laptop","Mac OS 10.15.7","Chrome 120.0.0.0","1470x956","1470x765",NA,NA,0,"Task Introduction and Instructions (re-introduce video and audio) (Clone) (Clone)",2,"BCADJEIFHG","Passed AC2","","Spreadsheet1",1,"Task Instructions","Screen 3","1qtc8v",4,"continue","",9099.8,9083.2,9099.8,9099.8,9083.2,9099.8,1,9099.8,0,0,NA,"Click To Continue","Continue Button",2,"object-2983","Task Instructions",NA,"SUPPRF84585"
"6",1710538947471,"15/03/2024 21:42:27",1710513747471,-7,"15/03/2024 07:42:27",171533,4,"task-kvtv",NA,36140706,10672236,NA,"complete",NA,"65f4b761bd9ff8c80728201f","computer","Desktop or Laptop","Mac OS 10.15.7","Chrome 120.0.0.0","1470x956","1470x765",NA,NA,0,"Task Introduction and Instructions (re-introduce video and audio) (Clone) (Clone)",2,"BCADJEIFHG","Passed AC2","","Spreadsheet1",1,"Task Instructions","Screen 12","1a4vu2",5,"continue","",7739.19999998212,7733.4,7739.19999998212,7739.19999998212,7733.4,7739.19999998212,1,7739.19999998212,0,0,NA,"Click To Continue","Continue Button",2,"object-2466","Task Instructions",NA,"SUPPRF84585"
"7",1710538953252,"15/03/2024 21:42:33",1710513753252,-7,"15/03/2024 07:42:33",171533,4,"task-kvtv",NA,36140706,10672236,NA,"complete",NA,"65f4b761bd9ff8c80728201f","computer","Desktop or Laptop","Mac OS 10.15.7","Chrome 120.0.0.0","1470x956","1470x765",NA,NA,0,"Task Introduction and Instructions (re-introduce video and audio) (Clone) (Clone)",2,"BCADJEIFHG","Passed AC2","","Spreadsheet1",1,"Task Instructions","Screen 13","q9vwda",6,"continue","",5786.69999998808,5783.4,5786.69999998808,5786.69999998808,5783.4,5786.69999998808,1,5786.69999998808,0,0,NA,"Click To Continue","Continue Button",2,"object-2989","Task Instructions",NA,"SUPPRF84585"
"8",1710538956993,"15/03/2024 21:42:36",1710513756993,-7,"15/03/2024 07:42:36",171533,4,"task-kvtv",NA,36140706,10672236,NA,"complete",NA,"65f4b761bd9ff8c80728201f","computer","Desktop or Laptop","Mac OS 10.15.7","Chrome 120.0.0.0","1470x956","1470x765",NA,NA,0,"Task Introduction and Instructions (re-introduce video and audio) (Clone) (Clone)",2,"BCADJEIFHG","Passed AC2","","Spreadsheet1",1,"Task Instructions","Screen 11","oyulb7",7,"continue","",3744.29999998808,3733.2,3744.29999998808,3744.29999998808,3733.2,3744.29999998808,1,3744.29999998808,0,0,NA,"Click To Continue","Continue Button",2,"object-52","Task Instructions",NA,"SUPPRF84585"
"9",1710538959799,"15/03/2024 21:42:39",1710513759799,-7,"15/03/2024 07:42:39",171533,4,"task-kvtv",NA,36140706,10672236,NA,"complete",NA,"65f4b761bd9ff8c80728201f","computer","Desktop or Laptop","Mac OS 10.15.7","Chrome 120.0.0.0","1470x956","1470x765",NA,NA,0,"Task Introduction and Instructions (re-introduce video and audio) (Clone) (Clone)",2,"BCADJEIFHG","Passed AC2","","Spreadsheet1",1,"Task Instructions","Screen 5","8nvnao",8,"continue","",2816.6,2799.9,2816.6,2816.6,2799.9,2816.6,1,2816.6,0,0,NA,"Click To Continue","Continue Button",2,"object-44","Task Instructions",NA,"SUPPRF84585"
"10",1710538959807,"15/03/2024 21:42:39",1710513759807,-7,"15/03/2024 07:42:39",171533,4,"task-kvtv",NA,36140706,10672236,NA,"complete",NA,"65f4b761bd9ff8c80728201f","computer","Desktop or Laptop","Mac OS 10.15.7","Chrome 120.0.0.0","1470x956","1470x765",NA,NA,0,"Task Introduction and Instructions (re-introduce video and audio) (Clone) (Clone)",2,"BCADJEIFHG","Passed AC2","","Spreadsheet1",NA,"","","",NA,"5","END",NA,NA,NA,NA,NA,NA,0,NA,NA,NA,NA,"","",NA,"","",NA,"SUPPRF84585"
"1",1710540491693,"15/03/2024 22:08:11",1710522491693,-5,"15/03/2024 12:08:11",171533,4,"task-kvtv",NA,36141200,10672354,NA,"complete",NA,"65f4c28dbaabda8dcafee3e9","computer","Desktop or Laptop","Windows 10","Chrome 122.0.0.0","1280x720","1280x559",NA,NA,0,"Task Introduction and Instructions (re-introduce video and audio) (Clone) (Clone)",2,"CDBEAFJGIH","Passed AC2","","Spreadsheet1",NA,"","","",NA,"5","BEGIN",NA,NA,NA,NA,NA,NA,0,NA,NA,NA,NA,"","",NA,"","",NA,"SUPPRF98765"
"2",1710540497244,"15/03/2024 22:08:17",1710522497244,-5,"15/03/2024 12:08:17",171533,4,"task-kvtv",NA,36141200,10672354,NA,"complete",NA,"65f4c28dbaabda8dcafee3e9","computer","Desktop or Laptop","Windows 10","Chrome 122.0.0.0","1280x720","1280x559",NA,NA,0,"Task Introduction and Instructions (re-introduce video and audio) (Clone) (Clone)",2,"CDBEAFJGIH","Passed AC2","","Spreadsheet1",1,"Task Instructions","Screen 1","anr7sn",1,"continue","",4790.30000000112,4781.3,4790.30000000112,4790.30000000112,4781.3,4790.30000000112,1,4790.30000000112,0,0,NA,"Click To Continue","Continue Button",3,"object-60","Task Instructions",NA,"SUPPRF98765"
"3",1710540500612,"15/03/2024 22:08:20",1710522500612,-5,"15/03/2024 12:08:20",171533,4,"task-kvtv",NA,36141200,10672354,NA,"complete",NA,"65f4c28dbaabda8dcafee3e9","computer","Desktop or Laptop","Windows 10","Chrome 122.0.0.0","1280x720","1280x559",NA,NA,0,"Task Introduction and Instructions (re-introduce video and audio) (Clone) (Clone)",2,"CDBEAFJGIH","Passed AC2","","Spreadsheet1",1,"Task Instructions","Screen 4","spepx9",2,"continue","",3377.60000000074,3365,3377.60000000074,3377.60000000074,3365,3377.60000000074,1,3377.60000000074,0,0,NA,"Click To Continue","Continue Button",2,"object-9","Task Instructions",NA,"SUPPRF98765"
"4",1710540511607,"15/03/2024 22:08:31",1710522511607,-5,"15/03/2024 12:08:31",171533,4,"task-kvtv",NA,36141200,10672354,NA,"complete",NA,"65f4c28dbaabda8dcafee3e9","computer","Desktop or Laptop","Windows 10","Chrome 122.0.0.0","1280x720","1280x559",NA,NA,0,"Task Introduction and Instructions (re-introduce video and audio) (Clone) (Clone)",2,"CDBEAFJGIH","Passed AC2","","Spreadsheet1",1,"Task Instructions","Screen 2","ce2tc8",3,"continue","",11007.2000000004,10995.3,11007.2000000004,11007.2000000004,10995.3,11007.2000000004,1,11007.2000000004,0,0,NA,"Click To Continue","Continue Button",3,"object-59","Task Instructions",NA,"SUPPRF98765"
"5",1710540522129,"15/03/2024 22:08:42",1710522522129,-5,"15/03/2024 12:08:42",171533,4,"task-kvtv",NA,36141200,10672354,NA,"complete",NA,"65f4c28dbaabda8dcafee3e9","computer","Desktop or Laptop","Windows 10","Chrome 122.0.0.0","1280x720","1280x559",NA,NA,0,"Task Introduction and Instructions (re-introduce video and audio) (Clone) (Clone)",2,"CDBEAFJGIH","Passed AC2","","Spreadsheet1",1,"Task Instructions","Screen 3","1qtc8v",4,"continue","",10534.1000000015,10528.4,10534.1000000015,10534.1000000015,10528.4,10534.1000000015,1,10534.1000000015,0,0,NA,"Click To Continue","Continue Button",2,"object-2983","Task Instructions",NA,"SUPPRF98765"
"6",1710540529118,"15/03/2024 22:08:49",1710522529118,-5,"15/03/2024 12:08:49",171533,4,"task-kvtv",NA,36141200,10672354,NA,"complete",NA,"65f4c28dbaabda8dcafee3e9","computer","Desktop or Laptop","Windows 10","Chrome 122.0.0.0","1280x720","1280x559",NA,NA,0,"Task Introduction and Instructions (re-introduce video and audio) (Clone) (Clone)",2,"CDBEAFJGIH","Passed AC2","","Spreadsheet1",1,"Task Instructions","Screen 12","1a4vu2",5,"continue","",6995.00000000037,6980,6995.00000000037,6995.00000000037,6980,6995.00000000037,1,6995.00000000037,0,0,NA,"Click To Continue","Continue Button",2,"object-2466","Task Instructions",NA,"SUPPRF98765"
"7",1710540534206,"15/03/2024 22:08:54",1710522534206,-5,"15/03/2024 12:08:54",171533,4,"task-kvtv",NA,36141200,10672354,NA,"complete",NA,"65f4c28dbaabda8dcafee3e9","computer","Desktop or Laptop","Windows 10","Chrome 122.0.0.0","1280x720","1280x559",NA,NA,0,"Task Introduction and Instructions (re-introduce video and audio) (Clone) (Clone)",2,"CDBEAFJGIH","Passed AC2","","Spreadsheet1",1,"Task Instructions","Screen 13","q9vwda",6,"continue","",5102.40000000074,5098.1,5102.40000000074,5102.40000000074,5098.1,5102.40000000074,1,5102.40000000074,0,0,NA,"Click To Continue","Continue Button",2,"object-2989","Task Instructions",NA,"SUPPRF98765"
"8",1710540539370,"15/03/2024 22:08:59",1710522539370,-5,"15/03/2024 12:08:59",171533,4,"task-kvtv",NA,36141200,10672354,NA,"complete",NA,"65f4c28dbaabda8dcafee3e9","computer","Desktop or Laptop","Windows 10","Chrome 122.0.0.0","1280x720","1280x559",NA,NA,0,"Task Introduction and Instructions (re-introduce video and audio) (Clone) (Clone)",2,"CDBEAFJGIH","Passed AC2","","Spreadsheet1",1,"Task Instructions","Screen 11","oyulb7",7,"continue","",5168.80000000075,5164,5168.80000000075,5168.80000000075,5164,5168.80000000075,1,5168.80000000075,0,0,NA,"Click To Continue","Continue Button",2,"object-52","Task Instructions",NA,"SUPPRF98765"
"9",1710540542459,"15/03/2024 22:09:02",1710522542459,-5,"15/03/2024 12:09:02",171533,4,"task-kvtv",NA,36141200,10672354,NA,"complete",NA,"65f4c28dbaabda8dcafee3e9","computer","Desktop or Laptop","Windows 10","Chrome 122.0.0.0","1280x720","1280x559",NA,NA,0,"Task Introduction and Instructions (re-introduce video and audio) (Clone) (Clone)",2,"CDBEAFJGIH","Passed AC2","","Spreadsheet1",1,"Task Instructions","Screen 5","8nvnao",8,"continue","",3094.10000000149,3081.9,3094.10000000149,3094.10000000149,3081.9,3094.10000000149,1,3094.10000000149,0,0,NA,"Click To Continue","Continue Button",2,"object-44","Task Instructions",NA,"SUPPRF98765"
"10",1710540542464,"15/03/2024 22:09:02",1710522542464,-5,"15/03/2024 12:09:02",171533,4,"task-kvtv",NA,36141200,10672354,NA,"complete",NA,"65f4c28dbaabda8dcafee3e9","computer","Desktop or Laptop","Windows 10","Chrome 122.0.0.0","1280x720","1280x559",NA,NA,0,"Task Introduction and Instructions (re-introduce video and audio) (Clone) (Clone)",2,"CDBEAFJGIH","Passed AC2","","Spreadsheet1",NA,"","","",NA,"5","END",NA,NA,NA,NA,NA,NA,0,NA,NA,NA,NA,"","",NA,"","",NA,"SUPPRF98765"
"1",1710541940341,"15/03/2024 22:32:20",1710527540341,-4,"15/03/2024 14:32:20",171533,4,"task-kvtv",NA,36142089,10672498,NA,"complete",NA,"65f4c9821924d962035ee23d","computer","Desktop or Laptop","Windows 10","Chrome 122.0.0.0","1920x1080","1920x953",NA,NA,0,"Task Introduction and Instructions (re-introduce video and audio) (Clone) (Clone)",2,"DECFBGAHJI","Passed AC2","","Spreadsheet1",NA,"","","",NA,"5","BEGIN",NA,NA,NA,NA,NA,NA,0,NA,NA,NA,NA,"","",NA,"","",NA,"SUPPRF97604"
"2",1710541944587,"15/03/2024 22:32:24",1710527544587,-4,"15/03/2024 14:32:24",171533,4,"task-kvtv",NA,36142089,10672498,NA,"complete",NA,"65f4c9821924d962035ee23d","computer","Desktop or Laptop","Windows 10","Chrome 122.0.0.0","1920x1080","1920x953",NA,NA,0,"Task Introduction and Instructions (re-introduce video and audio) (Clone) (Clone)",2,"DECFBGAHJI","Passed AC2","","Spreadsheet1",1,"Task Instructions","Screen 1","anr7sn",1,"continue","",4142.39999985695,4141.5,4142.39999985695,4142.39999985695,4141.5,4142.39999985695,1,4142.39999985695,0,0,NA,"Click To Continue","Continue Button",3,"object-60","Task Instructions",NA,"SUPPRF97604"
"3",1710541947551,"15/03/2024 22:32:27",1710527547551,-4,"15/03/2024 14:32:27",171533,4,"task-kvtv",NA,36142089,10672498,NA,"complete",NA,"65f4c9821924d962035ee23d","computer","Desktop or Laptop","Windows 10","Chrome 122.0.0.0","1920x1080","1920x953",NA,NA,0,"Task Introduction and Instructions (re-introduce video and audio) (Clone) (Clone)",2,"DECFBGAHJI","Passed AC2","","Spreadsheet1",1,"Task Instructions","Screen 4","spepx9",2,"continue","",2965,2958.3,2965,2965,2958.3,2965,1,2965,0,0,NA,"Click To Continue","Continue Button",2,"object-9","Task Instructions",NA,"SUPPRF97604"
"4",1710541969381,"15/03/2024 22:32:49",1710527569381,-4,"15/03/2024 14:32:49",171533,4,"task-kvtv",NA,36142089,10672498,NA,"complete",NA,"65f4c9821924d962035ee23d","computer","Desktop or Laptop","Windows 10","Chrome 122.0.0.0","1920x1080","1920x953",NA,NA,0,"Task Introduction and Instructions (re-introduce video and audio) (Clone) (Clone)",2,"DECFBGAHJI","Passed AC2","","Spreadsheet1",1,"Task Instructions","Screen 2","ce2tc8",3,"continue","",21836.8999998093,21833.1,21836.8999998093,21836.8999998093,21833.1,21836.8999998093,1,21836.8999998093,0,0,NA,"Click To Continue","Continue Button",3,"object-59","Task Instructions",NA,"SUPPRF97604"
"5",1710541978968,"15/03/2024 22:32:58",1710527578968,-4,"15/03/2024 14:32:58",171533,4,"task-kvtv",NA,36142089,10672498,NA,"complete",NA,"65f4c9821924d962035ee23d","computer","Desktop or Laptop","Windows 10","Chrome 122.0.0.0","1920x1080","1920x953",NA,NA,0,"Task Introduction and Instructions (re-introduce video and audio) (Clone) (Clone)",2,"DECFBGAHJI","Passed AC2","","Spreadsheet1",1,"Task Instructions","Screen 3","1qtc8v",4,"continue","",9591.29999980926,9583,9591.29999980926,9591.29999980926,9583,9591.29999980926,1,9591.29999980926,0,0,NA,"Click To Continue","Continue Button",2,"object-2983","Task Instructions",NA,"SUPPRF97604"
"6",1710541989277,"15/03/2024 22:33:09",1710527589277,-4,"15/03/2024 14:33:09",171533,4,"task-kvtv",NA,36142089,10672498,NA,"complete",NA,"65f4c9821924d962035ee23d","computer","Desktop or Laptop","Windows 10","Chrome 122.0.0.0","1920x1080","1920x953",NA,NA,0,"Task Introduction and Instructions (re-introduce video and audio) (Clone) (Clone)",2,"DECFBGAHJI","Passed AC2","","Spreadsheet1",1,"Task Instructions","Screen 12","1a4vu2",5,"continue","",10317.3999999523,10316.3,10317.3999999523,10317.3999999523,10316.3,10317.3999999523,1,10317.3999999523,0,0,NA,"Click To Continue","Continue Button",2,"object-2466","Task Instructions",NA,"SUPPRF97604"
"7",1710542048162,"15/03/2024 22:34:08",1710527648162,-4,"15/03/2024 14:34:08",171533,4,"task-kvtv",NA,36142089,10672498,NA,"complete",NA,"65f4c9821924d962035ee23d","computer","Desktop or Laptop","Windows 10","Chrome 122.0.0.0","1920x1080","1920x953",NA,NA,0,"Task Introduction and Instructions (re-introduce video and audio) (Clone) (Clone)",2,"DECFBGAHJI","Passed AC2","","Spreadsheet1",1,"Task Instructions","Screen 13","q9vwda",6,"continue","",58886.3,58882.2,58886.3,58886.3,58882.2,58886.3,1,58886.3,0,0,NA,"Click To Continue","Continue Button",2,"object-2989","Task Instructions",NA,"SUPPRF97604"
"8",1710542052466,"15/03/2024 22:34:12",1710527652466,-4,"15/03/2024 14:34:12",171533,4,"task-kvtv",NA,36142089,10672498,NA,"complete",NA,"65f4c9821924d962035ee23d","computer","Desktop or Laptop","Windows 10","Chrome 122.0.0.0","1920x1080","1920x953",NA,NA,0,"Task Introduction and Instructions (re-introduce video and audio) (Clone) (Clone)",2,"DECFBGAHJI","Passed AC2","","Spreadsheet1",1,"Task Instructions","Screen 11","oyulb7",7,"continue","",4308.19999990464,4299.90000000001,4308.19999990464,4308.19999990464,4299.90000000001,4308.19999990464,1,4308.19999990464,0,0,NA,"Click To Continue","Continue Button",2,"object-52","Task Instructions",NA,"SUPPRF97604"
"9",1710542058178,"15/03/2024 22:34:18",1710527658178,-4,"15/03/2024 14:34:18",171533,4,"task-kvtv",NA,36142089,10672498,NA,"complete",NA,"65f4c9821924d962035ee23d","computer","Desktop or Laptop","Windows 10","Chrome 122.0.0.0","1920x1080","1920x953",NA,NA,0,"Task Introduction and Instructions (re-introduce video and audio) (Clone) (Clone)",2,"DECFBGAHJI","Passed AC2","","Spreadsheet1",1,"Task Instructions","Screen 5","8nvnao",8,"continue","",5719.89999980926,5716.5,5719.89999980926,5719.89999980926,5716.5,5719.89999980926,1,5719.89999980926,0,0,NA,"Click To Continue","Continue Button",2,"object-44","Task Instructions",NA,"SUPPRF97604"
"10",1710542058182,"15/03/2024 22:34:18",1710527658182,-4,"15/03/2024 14:34:18",171533,4,"task-kvtv",NA,36142089,10672498,NA,"complete",NA,"65f4c9821924d962035ee23d","computer","Desktop or Laptop","Windows 10","Chrome 122.0.0.0","1920x1080","1920x953",NA,NA,0,"Task Introduction and Instructions (re-introduce video and audio) (Clone) (Clone)",2,"DECFBGAHJI","Passed AC2","","Spreadsheet1",NA,"","","",NA,"5","END",NA,NA,NA,NA,NA,NA,0,NA,NA,NA,NA,"","",NA,"","",NA,"SUPPRF97604"
"1",1710545105119,"15/03/2024 23:25:05",1710527105119,-5,"15/03/2024 13:25:05",171533,4,"task-kvtv",NA,36142935,10672728,NA,"complete",NA,"65f4d59bfcabf3140fc11967","computer","Desktop or Laptop","Windows 10","Chrome 122.0.0.0","2560x1440","2560x1271",NA,NA,0,"Task Introduction and Instructions (re-introduce video and audio) (Clone) (Clone)",2,"EFDGCHBIAJ","Passed AC2","","Spreadsheet1",NA,"","","",NA,"5","BEGIN",NA,NA,NA,NA,NA,NA,0,NA,NA,NA,NA,"","",NA,"","",NA,"SUPPRF21256"
"2",1710545108258,"15/03/2024 23:25:08",1710527108258,-5,"15/03/2024 13:25:08",171533,4,"task-kvtv",NA,36142935,10672728,NA,"complete",NA,"65f4d59bfcabf3140fc11967","computer","Desktop or Laptop","Windows 10","Chrome 122.0.0.0","2560x1440","2560x1271",NA,NA,0,"Task Introduction and Instructions (re-introduce video and audio) (Clone) (Clone)",2,"EFDGCHBIAJ","Passed AC2","","Spreadsheet1",1,"Task Instructions","Screen 1","anr7sn",1,"continue","",3034.89999998808,3018.9,3034.89999998808,3034.89999998808,3018.9,3034.89999998808,1,3034.89999998808,0,0,NA,"Click To Continue","Continue Button",3,"object-60","Task Instructions",NA,"SUPPRF21256"
"3",1710545111186,"15/03/2024 23:25:11",1710527111186,-5,"15/03/2024 13:25:11",171533,4,"task-kvtv",NA,36142935,10672728,NA,"complete",NA,"65f4d59bfcabf3140fc11967","computer","Desktop or Laptop","Windows 10","Chrome 122.0.0.0","2560x1440","2560x1271",NA,NA,0,"Task Introduction and Instructions (re-introduce video and audio) (Clone) (Clone)",2,"EFDGCHBIAJ","Passed AC2","","Spreadsheet1",1,"Task Instructions","Screen 4","spepx9",2,"continue","",2943.39999999404,2935.7,2943.39999999404,2943.39999999404,2935.7,2943.39999999404,1,2943.39999999404,0,0,NA,"Click To Continue","Continue Button",2,"object-9","Task Instructions",NA,"SUPPRF21256"
"4",1710545118197,"15/03/2024 23:25:18",1710527118197,-5,"15/03/2024 13:25:18",171533,4,"task-kvtv",NA,36142935,10672728,NA,"complete",NA,"65f4d59bfcabf3140fc11967","computer","Desktop or Laptop","Windows 10","Chrome 122.0.0.0","2560x1440","2560x1271",NA,NA,0,"Task Introduction and Instructions (re-introduce video and audio) (Clone) (Clone)",2,"EFDGCHBIAJ","Passed AC2","","Spreadsheet1",1,"Task Instructions","Screen 2","ce2tc8",3,"continue","",7018.89999998212,7005.7,7018.89999998212,7018.89999998212,7005.7,7018.89999998212,1,7018.89999998212,0,0,NA,"Click To Continue","Continue Button",3,"object-59","Task Instructions",NA,"SUPPRF21256"
"5",1710545126748,"15/03/2024 23:25:26",1710527126748,-5,"15/03/2024 13:25:26",171533,4,"task-kvtv",NA,36142935,10672728,NA,"complete",NA,"65f4d59bfcabf3140fc11967","computer","Desktop or Laptop","Windows 10","Chrome 122.0.0.0","2560x1440","2560x1271",NA,NA,0,"Task Introduction and Instructions (re-introduce video and audio) (Clone) (Clone)",2,"EFDGCHBIAJ","Passed AC2","","Spreadsheet1",1,"Task Instructions","Screen 3","1qtc8v",4,"continue","",8574.09999998808,8573.6,8574.09999998808,8574.09999998808,8573.6,8574.09999998808,1,8574.09999998808,0,0,NA,"Click To Continue","Continue Button",2,"object-2983","Task Instructions",NA,"SUPPRF21256"
"6",1710545131284,"15/03/2024 23:25:31",1710527131284,-5,"15/03/2024 13:25:31",171533,4,"task-kvtv",NA,36142935,10672728,NA,"complete",NA,"65f4d59bfcabf3140fc11967","computer","Desktop or Laptop","Windows 10","Chrome 122.0.0.0","2560x1440","2560x1271",NA,NA,0,"Task Introduction and Instructions (re-introduce video and audio) (Clone) (Clone)",2,"EFDGCHBIAJ","Passed AC2","","Spreadsheet1",1,"Task Instructions","Screen 12","1a4vu2",5,"continue","",4536.39999999404,4520.3,4536.39999999404,4536.39999999404,4520.3,4536.39999999404,1,4536.39999999404,0,0,NA,"Click To Continue","Continue Button",2,"object-2466","Task Instructions",NA,"SUPPRF21256"
"7",1710545136557,"15/03/2024 23:25:36",1710527136557,-5,"15/03/2024 13:25:36",171533,4,"task-kvtv",NA,36142935,10672728,NA,"complete",NA,"65f4d59bfcabf3140fc11967","computer","Desktop or Laptop","Windows 10","Chrome 122.0.0.0","2560x1440","2560x1271",NA,NA,0,"Task Introduction and Instructions (re-introduce video and audio) (Clone) (Clone)",2,"EFDGCHBIAJ","Passed AC2","","Spreadsheet1",1,"Task Instructions","Screen 13","q9vwda",6,"continue","",5288.90000000596,5287.6,5288.90000000596,5288.90000000596,5287.6,5288.90000000596,1,5288.90000000596,0,0,NA,"Click To Continue","Continue Button",2,"object-2989","Task Instructions",NA,"SUPPRF21256"
"8",1710545139447,"15/03/2024 23:25:39",1710527139447,-5,"15/03/2024 13:25:39",171533,4,"task-kvtv",NA,36142935,10672728,NA,"complete",NA,"65f4d59bfcabf3140fc11967","computer","Desktop or Laptop","Windows 10","Chrome 122.0.0.0","2560x1440","2560x1271",NA,NA,0,"Task Introduction and Instructions (re-introduce video and audio) (Clone) (Clone)",2,"EFDGCHBIAJ","Passed AC2","","Spreadsheet1",1,"Task Instructions","Screen 11","oyulb7",7,"continue","",2891.4,2885.7,2891.4,2891.4,2885.7,2891.4,1,2891.4,0,0,NA,"Click To Continue","Continue Button",2,"object-52","Task Instructions",NA,"SUPPRF21256"
"9",1710545141860,"15/03/2024 23:25:41",1710527141860,-5,"15/03/2024 13:25:41",171533,4,"task-kvtv",NA,36142935,10672728,NA,"complete",NA,"65f4d59bfcabf3140fc11967","computer","Desktop or Laptop","Windows 10","Chrome 122.0.0.0","2560x1440","2560x1271",NA,NA,0,"Task Introduction and Instructions (re-introduce video and audio) (Clone) (Clone)",2,"EFDGCHBIAJ","Passed AC2","","Spreadsheet1",1,"Task Instructions","Screen 5","8nvnao",8,"continue","",2418.59999999999,2401.89999999999,2418.59999999999,2418.59999999999,2401.89999999999,2418.59999999999,1,2418.59999999999,0,0,NA,"Click To Continue","Continue Button",2,"object-44","Task Instructions",NA,"SUPPRF21256"
"10",1710545141862,"15/03/2024 23:25:41",1710527141862,-5,"15/03/2024 13:25:41",171533,4,"task-kvtv",NA,36142935,10672728,NA,"complete",NA,"65f4d59bfcabf3140fc11967","computer","Desktop or Laptop","Windows 10","Chrome 122.0.0.0","2560x1440","2560x1271",NA,NA,0,"Task Introduction and Instructions (re-introduce video and audio) (Clone) (Clone)",2,"EFDGCHBIAJ","Passed AC2","","Spreadsheet1",NA,"","","",NA,"5","END",NA,NA,NA,NA,NA,NA,0,NA,NA,NA,NA,"","",NA,"","",NA,"SUPPRF21256"
"1",1710547788805,"16/03/2024 00:09:48",1710547788805,0,"16/03/2024 00:09:48",171533,4,"task-kvtv",NA,36143346,10672824,NA,"complete",NA,"65f4e159509732b59f7378aa","computer","Desktop or Laptop","Mac OS 10.15.7","Chrome 122.0.0.0","1440x900","1440x677",NA,NA,0,"Task Introduction and Instructions (re-introduce video and audio) (Clone) (Clone)",2,"FGEHDICJBA","Passed AC2","","Spreadsheet1",NA,"","","",NA,"5","BEGIN",NA,NA,NA,NA,NA,NA,0,NA,NA,NA,NA,"","",NA,"","",NA,"SUPPRF99019"
"2",1710547792489,"16/03/2024 00:09:52",1710547792489,0,"16/03/2024 00:09:52",171533,4,"task-kvtv",NA,36143346,10672824,NA,"complete",NA,"65f4e159509732b59f7378aa","computer","Desktop or Laptop","Mac OS 10.15.7","Chrome 122.0.0.0","1440x900","1440x677",NA,NA,0,"Task Introduction and Instructions (re-introduce video and audio) (Clone) (Clone)",2,"FGEHDICJBA","Passed AC2","","Spreadsheet1",1,"Task Instructions","Screen 1","anr7sn",1,"continue","",3375.8,3359.1,3375.8,3375.8,3359.1,3375.8,1,3375.8,0,0,NA,"Click To Continue","Continue Button",3,"object-60","Task Instructions",NA,"SUPPRF99019"
"3",1710547795195,"16/03/2024 00:09:55",1710547795195,0,"16/03/2024 00:09:55",171533,4,"task-kvtv",NA,36143346,10672824,NA,"complete",NA,"65f4e159509732b59f7378aa","computer","Desktop or Laptop","Mac OS 10.15.7","Chrome 122.0.0.0","1440x900","1440x677",NA,NA,0,"Task Introduction and Instructions (re-introduce video and audio) (Clone) (Clone)",2,"FGEHDICJBA","Passed AC2","","Spreadsheet1",1,"Task Instructions","Screen 4","spepx9",2,"continue","",2723.7,2707.1,2723.7,2723.7,2707.1,2723.7,1,2723.7,0,0,NA,"Click To Continue","Continue Button",2,"object-9","Task Instructions",NA,"SUPPRF99019"
"4",1710547798922,"16/03/2024 00:09:58",1710547798922,0,"16/03/2024 00:09:58",171533,4,"task-kvtv",NA,36143346,10672824,NA,"complete",NA,"65f4e159509732b59f7378aa","computer","Desktop or Laptop","Mac OS 10.15.7","Chrome 122.0.0.0","1440x900","1440x677",NA,NA,0,"Task Introduction and Instructions (re-introduce video and audio) (Clone) (Clone)",2,"FGEHDICJBA","Passed AC2","","Spreadsheet1",1,"Task Instructions","Screen 2","ce2tc8",3,"continue","",3743.3,3726.6,3743.3,3743.3,3726.6,3743.3,1,3743.3,0,0,NA,"Click To Continue","Continue Button",3,"object-59","Task Instructions",NA,"SUPPRF99019"
"5",1710547807430,"16/03/2024 00:10:07",1710547807430,0,"16/03/2024 00:10:07",171533,4,"task-kvtv",NA,36143346,10672824,NA,"complete",NA,"65f4e159509732b59f7378aa","computer","Desktop or Laptop","Mac OS 10.15.7","Chrome 122.0.0.0","1440x900","1440x677",NA,NA,0,"Task Introduction and Instructions (re-introduce video and audio) (Clone) (Clone)",2,"FGEHDICJBA","Passed AC2","","Spreadsheet1",1,"Task Instructions","Screen 3","1qtc8v",4,"continue","",8525.4,8522.8,8525.4,8525.4,8522.8,8525.4,1,8525.4,0,0,NA,"Click To Continue","Continue Button",2,"object-2983","Task Instructions",NA,"SUPPRF99019"
"6",1710547810807,"16/03/2024 00:10:10",1710547810807,0,"16/03/2024 00:10:10",171533,4,"task-kvtv",NA,36143346,10672824,NA,"complete",NA,"65f4e159509732b59f7378aa","computer","Desktop or Laptop","Mac OS 10.15.7","Chrome 122.0.0.0","1440x900","1440x677",NA,NA,0,"Task Introduction and Instructions (re-introduce video and audio) (Clone) (Clone)",2,"FGEHDICJBA","Passed AC2","","Spreadsheet1",1,"Task Instructions","Screen 12","1a4vu2",5,"continue","",3379.20000002384,3375.6,3379.20000002384,3379.20000002384,3375.6,3379.20000002384,1,3379.20000002384,0,0,NA,"Click To Continue","Continue Button",2,"object-2466","Task Instructions",NA,"SUPPRF99019"
"7",1710547816553,"16/03/2024 00:10:16",1710547816553,0,"16/03/2024 00:10:16",171533,4,"task-kvtv",NA,36143346,10672824,NA,"complete",NA,"65f4e159509732b59f7378aa","computer","Desktop or Laptop","Mac OS 10.15.7","Chrome 122.0.0.0","1440x900","1440x677",NA,NA,0,"Task Introduction and Instructions (re-introduce video and audio) (Clone) (Clone)",2,"FGEHDICJBA","Passed AC2","","Spreadsheet1",1,"Task Instructions","Screen 13","q9vwda",6,"continue","",5748.7,5732,5748.7,5748.7,5732,5748.7,1,5748.7,0,0,NA,"Click To Continue","Continue Button",2,"object-2989","Task Instructions",NA,"SUPPRF99019"
"8",1710547819780,"16/03/2024 00:10:19",1710547819780,0,"16/03/2024 00:10:19",171533,4,"task-kvtv",NA,36143346,10672824,NA,"complete",NA,"65f4e159509732b59f7378aa","computer","Desktop or Laptop","Mac OS 10.15.7","Chrome 122.0.0.0","1440x900","1440x677",NA,NA,0,"Task Introduction and Instructions (re-introduce video and audio) (Clone) (Clone)",2,"FGEHDICJBA","Passed AC2","","Spreadsheet1",1,"Task Instructions","Screen 11","oyulb7",7,"continue","",3241.8,3225.2,3241.8,3241.8,3225.2,3241.8,1,3241.8,0,0,NA,"Click To Continue","Continue Button",2,"object-52","Task Instructions",NA,"SUPPRF99019"
"9",1710547822201,"16/03/2024 00:10:22",1710547822201,0,"16/03/2024 00:10:22",171533,4,"task-kvtv",NA,36143346,10672824,NA,"complete",NA,"65f4e159509732b59f7378aa","computer","Desktop or Laptop","Mac OS 10.15.7","Chrome 122.0.0.0","1440x900","1440x677",NA,NA,0,"Task Introduction and Instructions (re-introduce video and audio) (Clone) (Clone)",2,"FGEHDICJBA","Passed AC2","","Spreadsheet1",1,"Task Instructions","Screen 5","8nvnao",8,"continue","",2440,2423.3,2440,2440,2423.3,2440,1,2440,0,0,NA,"Click To Continue","Continue Button",2,"object-44","Task Instructions",NA,"SUPPRF99019"
"10",1710547822205,"16/03/2024 00:10:22",1710547822205,0,"16/03/2024 00:10:22",171533,4,"task-kvtv",NA,36143346,10672824,NA,"complete",NA,"65f4e159509732b59f7378aa","computer","Desktop or Laptop","Mac OS 10.15.7","Chrome 122.0.0.0","1440x900","1440x677",NA,NA,0,"Task Introduction and Instructions (re-introduce video and audio) (Clone) (Clone)",2,"FGEHDICJBA","Passed AC2","","Spreadsheet1",NA,"","","",NA,"5","END",NA,NA,NA,NA,NA,NA,0,NA,NA,NA,NA,"","",NA,"","",NA,"SUPPRF99019"
"1",1710553099608,"16/03/2024 01:38:19",1710538699608,-4,"15/03/2024 17:38:19",171533,4,"task-kvtv",NA,36144101,10673034,NA,"complete",NA,"65f4f4e3dc148945f0f080cd","computer","Desktop or Laptop","Mac OS 10.15.7","Chrome 121.0.0.0","1440x900","1433x788",NA,NA,0,"Task Introduction and Instructions (re-introduce video and audio) (Clone) (Clone)",2,"HIGJFAEBDC","Passed AC2","","Spreadsheet1",NA,"","","",NA,"5","BEGIN",NA,NA,NA,NA,NA,NA,0,NA,NA,NA,NA,"","",NA,"","",NA,"SUPPRF68317"
"2",1710553227383,"16/03/2024 01:40:27",1710538827383,-4,"15/03/2024 17:40:27",171533,4,"task-kvtv",NA,36144101,10673034,NA,"complete",NA,"65f4f4e3dc148945f0f080cd","computer","Desktop or Laptop","Mac OS 10.15.7","Chrome 121.0.0.0","1440x900","1433x788",NA,NA,0,"Task Introduction and Instructions (re-introduce video and audio) (Clone) (Clone)",2,"HIGJFAEBDC","Passed AC2","","Spreadsheet1",1,"Task Instructions","Screen 1","anr7sn",1,"continue","",127120.299999976,127117.4,127120.299999976,127120.299999976,127117.4,127120.299999976,1,127120.299999976,0,0,NA,"Click To Continue","Continue Button",3,"object-60","Task Instructions",NA,"SUPPRF68317"
"3",1710553236797,"16/03/2024 01:40:36",1710538836797,-4,"15/03/2024 17:40:36",171533,4,"task-kvtv",NA,36144101,10673034,NA,"complete",NA,"65f4f4e3dc148945f0f080cd","computer","Desktop or Laptop","Mac OS 10.15.7","Chrome 121.0.0.0","1440x900","1433x788",NA,NA,0,"Task Introduction and Instructions (re-introduce video and audio) (Clone) (Clone)",2,"HIGJFAEBDC","Passed AC2","","Spreadsheet1",1,"Task Instructions","Screen 4","spepx9",2,"continue","",9417.29999995232,9401.20000000001,9417.29999995232,9417.29999995232,9401.20000000001,9417.29999995232,1,9417.29999995232,0,0,NA,"Click To Continue","Continue Button",2,"object-9","Task Instructions",NA,"SUPPRF68317"
"4",1710553250567,"16/03/2024 01:40:50",1710538850567,-4,"15/03/2024 17:40:50",171533,4,"task-kvtv",NA,36144101,10673034,NA,"complete",NA,"65f4f4e3dc148945f0f080cd","computer","Desktop or Laptop","Mac OS 10.15.7","Chrome 121.0.0.0","1440x900","1433x788",NA,NA,0,"Task Introduction and Instructions (re-introduce video and audio) (Clone) (Clone)",2,"HIGJFAEBDC","Passed AC2","","Spreadsheet1",1,"Task Instructions","Screen 2","ce2tc8",3,"continue","",13785.9000000238,13781.4,13785.9000000238,13785.9000000238,13781.4,13785.9000000238,1,13785.9000000238,0,0,NA,"Click To Continue","Continue Button",3,"object-59","Task Instructions",NA,"SUPPRF68317"
"5",1710553265348,"16/03/2024 01:41:05",1710538865348,-4,"15/03/2024 17:41:05",171533,4,"task-kvtv",NA,36144101,10673034,NA,"complete",NA,"65f4f4e3dc148945f0f080cd","computer","Desktop or Laptop","Mac OS 10.15.7","Chrome 121.0.0.0","1440x900","1433x788",NA,NA,0,"Task Introduction and Instructions (re-introduce video and audio) (Clone) (Clone)",2,"HIGJFAEBDC","Passed AC2","","Spreadsheet1",1,"Task Instructions","Screen 3","1qtc8v",4,"continue","",14786.2999999762,14784.5,14786.2999999762,14786.2999999762,14784.5,14786.2999999762,1,14786.2999999762,0,0,NA,"Click To Continue","Continue Button",2,"object-2983","Task Instructions",NA,"SUPPRF68317"
"6",1710553278698,"16/03/2024 01:41:18",1710538878698,-4,"15/03/2024 17:41:18",171533,4,"task-kvtv",NA,36144101,10673034,NA,"complete",NA,"65f4f4e3dc148945f0f080cd","computer","Desktop or Laptop","Mac OS 10.15.7","Chrome 121.0.0.0","1440x900","1433x788",NA,NA,0,"Task Introduction and Instructions (re-introduce video and audio) (Clone) (Clone)",2,"HIGJFAEBDC","Passed AC2","","Spreadsheet1",1,"Task Instructions","Screen 12","1a4vu2",5,"continue","",13351.4,13349.2,13351.4,13351.4,13349.2,13351.4,1,13351.4,0,0,NA,"Click To Continue","Continue Button",2,"object-2466","Task Instructions",NA,"SUPPRF68317"
"7",1710553284113,"16/03/2024 01:41:24",1710538884113,-4,"15/03/2024 17:41:24",171533,4,"task-kvtv",NA,36144101,10673034,NA,"complete",NA,"65f4f4e3dc148945f0f080cd","computer","Desktop or Laptop","Mac OS 10.15.7","Chrome 121.0.0.0","1440x900","1433x788",NA,NA,0,"Task Introduction and Instructions (re-introduce video and audio) (Clone) (Clone)",2,"HIGJFAEBDC","Passed AC2","","Spreadsheet1",1,"Task Instructions","Screen 13","q9vwda",6,"continue","",5417.4000000477,5402.30000000002,5417.4000000477,5417.4000000477,5402.30000000002,5417.4000000477,1,5417.4000000477,0,0,NA,"Click To Continue","Continue Button",2,"object-2989","Task Instructions",NA,"SUPPRF68317"
"8",1710553288563,"16/03/2024 01:41:28",1710538888563,-4,"15/03/2024 17:41:28",171533,4,"task-kvtv",NA,36144101,10673034,NA,"complete",NA,"65f4f4e3dc148945f0f080cd","computer","Desktop or Laptop","Mac OS 10.15.7","Chrome 121.0.0.0","1440x900","1433x788",NA,NA,0,"Task Introduction and Instructions (re-introduce video and audio) (Clone) (Clone)",2,"HIGJFAEBDC","Passed AC2","","Spreadsheet1",1,"Task Instructions","Screen 11","oyulb7",7,"continue","",4465.89999999999,4450.19999999998,4465.89999999999,4465.89999999999,4450.19999999998,4465.89999999999,1,4465.89999999999,0,0,NA,"Click To Continue","Continue Button",2,"object-52","Task Instructions",NA,"SUPPRF68317"
"9",1710553292114,"16/03/2024 01:41:32",1710538892114,-4,"15/03/2024 17:41:32",171533,4,"task-kvtv",NA,36144101,10673034,NA,"complete",NA,"65f4f4e3dc148945f0f080cd","computer","Desktop or Laptop","Mac OS 10.15.7","Chrome 121.0.0.0","1440x900","1433x788",NA,NA,0,"Task Introduction and Instructions (re-introduce video and audio) (Clone) (Clone)",2,"HIGJFAEBDC","Passed AC2","","Spreadsheet1",1,"Task Instructions","Screen 5","8nvnao",8,"continue","",3566.59999997617,3550.40000000002,3566.59999997617,3566.59999997617,3550.40000000002,3566.59999997617,1,3566.59999997617,0,0,NA,"Click To Continue","Continue Button",2,"object-44","Task Instructions",NA,"SUPPRF68317"
"10",1710553292119,"16/03/2024 01:41:32",1710538892119,-4,"15/03/2024 17:41:32",171533,4,"task-kvtv",NA,36144101,10673034,NA,"complete",NA,"65f4f4e3dc148945f0f080cd","computer","Desktop or Laptop","Mac OS 10.15.7","Chrome 121.0.0.0","1440x900","1433x788",NA,NA,0,"Task Introduction and Instructions (re-introduce video and audio) (Clone) (Clone)",2,"HIGJFAEBDC","Passed AC2","","Spreadsheet1",NA,"","","",NA,"5","END",NA,NA,NA,NA,NA,NA,0,NA,NA,NA,NA,"","",NA,"","",NA,"SUPPRF68317"
"1",1710556927903,"16/03/2024 02:42:07",1710542527903,-4,"15/03/2024 18:42:07",171533,4,"task-kvtv",NA,36144411,10673101,NA,"rejected - time limit reached",NA,"65f4fc3015749b705e09259c","computer","Desktop or Laptop","Mac OS 10.15.7","Chrome 122.0.0.0","1440x900","1379x668",NA,NA,0,"Task Introduction and Instructions (re-introduce video and audio) (Clone) (Clone)",2,"IJHAGBFCED","Passed AC2","","Spreadsheet1",NA,"","","",NA,"5","BEGIN",NA,NA,NA,NA,NA,NA,0,NA,NA,NA,NA,"","",NA,"","",NA,"SUPPRF22695"
"2",1710556931777,"16/03/2024 02:42:11",1710542531777,-4,"15/03/2024 18:42:11",171533,4,"task-kvtv",NA,36144411,10673101,NA,"rejected - time limit reached",NA,"65f4fc3015749b705e09259c","computer","Desktop or Laptop","Mac OS 10.15.7","Chrome 122.0.0.0","1440x900","1379x668",NA,NA,0,"Task Introduction and Instructions (re-introduce video and audio) (Clone) (Clone)",2,"IJHAGBFCED","Passed AC2","","Spreadsheet1",1,"Task Instructions","Screen 1","anr7sn",1,"continue","",3786.20000000596,3783.5,3786.20000000596,3786.20000000596,3783.5,3786.20000000596,1,3786.20000000596,0,0,NA,"Click To Continue","Continue Button",3,"object-60","Task Instructions",NA,"SUPPRF22695"
"3",1710556934654,"16/03/2024 02:42:14",1710542534654,-4,"15/03/2024 18:42:14",171533,4,"task-kvtv",NA,36144411,10673101,NA,"rejected - time limit reached",NA,"65f4fc3015749b705e09259c","computer","Desktop or Laptop","Mac OS 10.15.7","Chrome 122.0.0.0","1440x900","1379x668",NA,NA,0,"Task Introduction and Instructions (re-introduce video and audio) (Clone) (Clone)",2,"IJHAGBFCED","Passed AC2","","Spreadsheet1",1,"Task Instructions","Screen 4","spepx9",2,"continue","",2880.20000000596,2866.8,2880.20000000596,2880.20000000596,2866.8,2880.20000000596,1,2880.20000000596,0,0,NA,"Click To Continue","Continue Button",2,"object-9","Task Instructions",NA,"SUPPRF22695"
"4",1710556952721,"16/03/2024 02:42:32",1710542552721,-4,"15/03/2024 18:42:32",171533,4,"task-kvtv",NA,36144411,10673101,NA,"rejected - time limit reached",NA,"65f4fc3015749b705e09259c","computer","Desktop or Laptop","Mac OS 10.15.7","Chrome 122.0.0.0","1440x900","1379x668",NA,NA,0,"Task Introduction and Instructions (re-introduce video and audio) (Clone) (Clone)",2,"IJHAGBFCED","Passed AC2","","Spreadsheet1",1,"Task Instructions","Screen 2","ce2tc8",3,"continue","",18080.599999994,18067.2,18080.599999994,18080.599999994,18067.2,18080.599999994,1,18080.599999994,0,0,NA,"Click To Continue","Continue Button",3,"object-59","Task Instructions",NA,"SUPPRF22695"
"5",1710556992576,"16/03/2024 02:43:12",1710542592576,-4,"15/03/2024 18:43:12",171533,4,"task-kvtv",NA,36144411,10673101,NA,"rejected - time limit reached",NA,"65f4fc3015749b705e09259c","computer","Desktop or Laptop","Mac OS 10.15.7","Chrome 122.0.0.0","1440x900","1379x668",NA,NA,0,"Task Introduction and Instructions (re-introduce video and audio) (Clone) (Clone)",2,"IJHAGBFCED","Passed AC2","","Spreadsheet1",1,"Task Instructions","Screen 3","1qtc8v",4,"continue","",39866.6,39850.5,39866.6,39866.6,39850.5,39866.6,1,39866.6,0,0,NA,"Click To Continue","Continue Button",2,"object-2983","Task Instructions",NA,"SUPPRF22695"
"6",1710556997475,"16/03/2024 02:43:17",1710542597475,-4,"15/03/2024 18:43:17",171533,4,"task-kvtv",NA,36144411,10673101,NA,"rejected - time limit reached",NA,"65f4fc3015749b705e09259c","computer","Desktop or Laptop","Mac OS 10.15.7","Chrome 122.0.0.0","1440x900","1379x668",NA,NA,0,"Task Introduction and Instructions (re-introduce video and audio) (Clone) (Clone)",2,"IJHAGBFCED","Passed AC2","","Spreadsheet1",1,"Task Instructions","Screen 12","1a4vu2",5,"continue","",4917.5,4900.8,4917.5,4917.5,4900.8,4917.5,1,4917.5,0,0,NA,"Click To Continue","Continue Button",2,"object-2466","Task Instructions",NA,"SUPPRF22695"
"7",1710557006887,"16/03/2024 02:43:26",1710542606887,-4,"15/03/2024 18:43:26",171533,4,"task-kvtv",NA,36144411,10673101,NA,"rejected - time limit reached",NA,"65f4fc3015749b705e09259c","computer","Desktop or Laptop","Mac OS 10.15.7","Chrome 122.0.0.0","1440x900","1379x668",NA,NA,0,"Task Introduction and Instructions (re-introduce video and audio) (Clone) (Clone)",2,"IJHAGBFCED","Passed AC2","","Spreadsheet1",1,"Task Instructions","Screen 13","q9vwda",6,"continue","",9429.80000001192,9416.10000000001,9429.80000001192,9429.80000001192,9416.10000000001,9429.80000001192,1,9429.80000001192,0,0,NA,"Click To Continue","Continue Button",2,"object-2989","Task Instructions",NA,"SUPPRF22695"
"8",1710557010687,"16/03/2024 02:43:30",1710542610687,-4,"15/03/2024 18:43:30",171533,4,"task-kvtv",NA,36144411,10673101,NA,"rejected - time limit reached",NA,"65f4fc3015749b705e09259c","computer","Desktop or Laptop","Mac OS 10.15.7","Chrome 122.0.0.0","1440x900","1379x668",NA,NA,0,"Task Introduction and Instructions (re-introduce video and audio) (Clone) (Clone)",2,"IJHAGBFCED","Passed AC2","","Spreadsheet1",1,"Task Instructions","Screen 11","oyulb7",7,"continue","",3813.80000000595,3800.89999999999,3813.80000000595,3813.80000000595,3800.89999999999,3813.80000000595,1,3813.80000000595,0,0,NA,"Click To Continue","Continue Button",2,"object-52","Task Instructions",NA,"SUPPRF22695"
"9",1710557014240,"16/03/2024 02:43:34",1710542614240,-4,"15/03/2024 18:43:34",171533,4,"task-kvtv",NA,36144411,10673101,NA,"rejected - time limit reached",NA,"65f4fc3015749b705e09259c","computer","Desktop or Laptop","Mac OS 10.15.7","Chrome 122.0.0.0","1440x900","1379x668",NA,NA,0,"Task Introduction and Instructions (re-introduce video and audio) (Clone) (Clone)",2,"IJHAGBFCED","Passed AC2","","Spreadsheet1",1,"Task Instructions","Screen 5","8nvnao",8,"continue","",3565.59999999404,3550.10000000001,3565.59999999404,3565.59999999404,3550.10000000001,3565.59999999404,1,3565.59999999404,0,0,NA,"Click To Continue","Continue Button",2,"object-44","Task Instructions",NA,"SUPPRF22695"
"10",1710557014243,"16/03/2024 02:43:34",1710542614243,-4,"15/03/2024 18:43:34",171533,4,"task-kvtv",NA,36144411,10673101,NA,"rejected - time limit reached",NA,"65f4fc3015749b705e09259c","computer","Desktop or Laptop","Mac OS 10.15.7","Chrome 122.0.0.0","1440x900","1379x668",NA,NA,0,"Task Introduction and Instructions (re-introduce video and audio) (Clone) (Clone)",2,"IJHAGBFCED","Passed AC2","","Spreadsheet1",NA,"","","",NA,"5","END",NA,NA,NA,NA,NA,NA,0,NA,NA,NA,NA,"","",NA,"","",NA,"SUPPRF22695"
"1",1710576380233,"16/03/2024 08:06:20",1710576380233,0,"16/03/2024 08:06:20",171533,4,"task-kvtv",NA,36145910,10673578,NA,"complete",NA,"65f54f62c2db2b8f78461476","computer","Desktop or Laptop","Chromium OS 14541.0.0","Chrome 121.0.0.0","1536x864","1536x730",NA,NA,0,"Task Introduction and Instructions (re-introduce video and audio) (Clone) (Clone)",2,"ABJCIDHEGF","Passed AC2","","Spreadsheet1",NA,"","","",NA,"5","BEGIN",NA,NA,NA,NA,NA,NA,0,NA,NA,NA,NA,"","",NA,"","",NA,"SUPPRF24929"
"2",1710576385897,"16/03/2024 08:06:25",1710576385897,0,"16/03/2024 08:06:25",171533,4,"task-kvtv",NA,36145910,10673578,NA,"complete",NA,"65f54f62c2db2b8f78461476","computer","Desktop or Laptop","Chromium OS 14541.0.0","Chrome 121.0.0.0","1536x864","1536x730",NA,NA,0,"Task Introduction and Instructions (re-introduce video and audio) (Clone) (Clone)",2,"ABJCIDHEGF","Passed AC2","","Spreadsheet1",1,"Task Instructions","Screen 1","anr7sn",1,"continue","",5457.5,5448.8,5457.5,5457.5,5448.8,5457.5,1,5457.5,0,0,NA,"Click To Continue","Continue Button",3,"object-60","Task Instructions",NA,"SUPPRF24929"
"3",1710576390702,"16/03/2024 08:06:30",1710576390702,0,"16/03/2024 08:06:30",171533,4,"task-kvtv",NA,36145910,10673578,NA,"complete",NA,"65f54f62c2db2b8f78461476","computer","Desktop or Laptop","Chromium OS 14541.0.0","Chrome 121.0.0.0","1536x864","1536x730",NA,NA,0,"Task Introduction and Instructions (re-introduce video and audio) (Clone) (Clone)",2,"ABJCIDHEGF","Passed AC2","","Spreadsheet1",1,"Task Instructions","Screen 4","spepx9",2,"continue","",4813.99999999993,4798.9,4813.99999999993,4813.99999999993,4798.9,4813.99999999993,1,4813.99999999993,0,0,NA,"Click To Continue","Continue Button",2,"object-9","Task Instructions",NA,"SUPPRF24929"
"4",1710576399551,"16/03/2024 08:06:39",1710576399551,0,"16/03/2024 08:06:39",171533,4,"task-kvtv",NA,36145910,10673578,NA,"complete",NA,"65f54f62c2db2b8f78461476","computer","Desktop or Laptop","Chromium OS 14541.0.0","Chrome 121.0.0.0","1536x864","1536x730",NA,NA,0,"Task Introduction and Instructions (re-introduce video and audio) (Clone) (Clone)",2,"ABJCIDHEGF","Passed AC2","","Spreadsheet1",1,"Task Instructions","Screen 2","ce2tc8",3,"continue","",8864.20000000002,8848.2,8864.20000000002,8864.20000000002,8848.2,8864.20000000002,1,8864.20000000002,0,0,NA,"Click To Continue","Continue Button",3,"object-59","Task Instructions",NA,"SUPPRF24929"
"5",1710576407312,"16/03/2024 08:06:47",1710576407312,0,"16/03/2024 08:06:47",171533,4,"task-kvtv",NA,36145910,10673578,NA,"complete",NA,"65f54f62c2db2b8f78461476","computer","Desktop or Laptop","Chromium OS 14541.0.0","Chrome 121.0.0.0","1536x864","1536x730",NA,NA,0,"Task Introduction and Instructions (re-introduce video and audio) (Clone) (Clone)",2,"ABJCIDHEGF","Passed AC2","","Spreadsheet1",1,"Task Instructions","Screen 3","1qtc8v",4,"continue","",7776.50000000002,7764.9,7776.50000000002,7776.50000000002,7764.9,7776.50000000002,1,7776.50000000002,0,0,NA,"Click To Continue","Continue Button",2,"object-2983","Task Instructions",NA,"SUPPRF24929"
"6",1710576413986,"16/03/2024 08:06:53",1710576413986,0,"16/03/2024 08:06:53",171533,4,"task-kvtv",NA,36145910,10673578,NA,"complete",NA,"65f54f62c2db2b8f78461476","computer","Desktop or Laptop","Chromium OS 14541.0.0","Chrome 121.0.0.0","1536x864","1536x730",NA,NA,0,"Task Introduction and Instructions (re-introduce video and audio) (Clone) (Clone)",2,"ABJCIDHEGF","Passed AC2","","Spreadsheet1",1,"Task Instructions","Screen 12","1a4vu2",5,"continue","",6686.40000000007,6682,6686.40000000007,6686.40000000007,6682,6686.40000000007,1,6686.40000000007,0,0,NA,"Click To Continue","Continue Button",2,"object-2466","Task Instructions",NA,"SUPPRF24929"
"7",1710576419045,"16/03/2024 08:06:59",1710576419045,0,"16/03/2024 08:06:59",171533,4,"task-kvtv",NA,36145910,10673578,NA,"complete",NA,"65f54f62c2db2b8f78461476","computer","Desktop or Laptop","Chromium OS 14541.0.0","Chrome 121.0.0.0","1536x864","1536x730",NA,NA,0,"Task Introduction and Instructions (re-introduce video and audio) (Clone) (Clone)",2,"ABJCIDHEGF","Passed AC2","","Spreadsheet1",1,"Task Instructions","Screen 13","q9vwda",6,"continue","",5062.60000000002,5049,5062.60000000002,5062.60000000002,5049,5062.60000000002,1,5062.60000000002,0,0,NA,"Click To Continue","Continue Button",2,"object-2989","Task Instructions",NA,"SUPPRF24929"
"8",1710576422624,"16/03/2024 08:07:02",1710576422624,0,"16/03/2024 08:07:02",171533,4,"task-kvtv",NA,36145910,10673578,NA,"complete",NA,"65f54f62c2db2b8f78461476","computer","Desktop or Laptop","Chromium OS 14541.0.0","Chrome 121.0.0.0","1536x864","1536x730",NA,NA,0,"Task Introduction and Instructions (re-introduce video and audio) (Clone) (Clone)",2,"ABJCIDHEGF","Passed AC2","","Spreadsheet1",1,"Task Instructions","Screen 11","oyulb7",7,"continue","",3592.60000000002,3582.5,3592.60000000002,3592.60000000002,3582.5,3592.60000000002,1,3592.60000000002,0,0,NA,"Click To Continue","Continue Button",2,"object-52","Task Instructions",NA,"SUPPRF24929"
"9",1710576425077,"16/03/2024 08:07:05",1710576425077,0,"16/03/2024 08:07:05",171533,4,"task-kvtv",NA,36145910,10673578,NA,"complete",NA,"65f54f62c2db2b8f78461476","computer","Desktop or Laptop","Chromium OS 14541.0.0","Chrome 121.0.0.0","1536x864","1536x730",NA,NA,0,"Task Introduction and Instructions (re-introduce video and audio) (Clone) (Clone)",2,"ABJCIDHEGF","Passed AC2","","Spreadsheet1",1,"Task Instructions","Screen 5","8nvnao",8,"continue","",2463.10000000002,2449.39999999999,2463.10000000002,2463.10000000002,2449.39999999999,2463.10000000002,1,2463.10000000002,0,0,NA,"Click To Continue","Continue Button",2,"object-44","Task Instructions",NA,"SUPPRF24929"
"10",1710576425079,"16/03/2024 08:07:05",1710576425079,0,"16/03/2024 08:07:05",171533,4,"task-kvtv",NA,36145910,10673578,NA,"complete",NA,"65f54f62c2db2b8f78461476","computer","Desktop or Laptop","Chromium OS 14541.0.0","Chrome 121.0.0.0","1536x864","1536x730",NA,NA,0,"Task Introduction and Instructions (re-introduce video and audio) (Clone) (Clone)",2,"ABJCIDHEGF","Passed AC2","","Spreadsheet1",NA,"","","",NA,"5","END",NA,NA,NA,NA,NA,NA,0,NA,NA,NA,NA,"","",NA,"","",NA,"SUPPRF24929"
"11",1710576454094,"16/03/2024 08:07:34",1710576454094,0,"16/03/2024 08:07:34",171533,4,"task-kvtv",NA,36145910,10673578,NA,"complete",NA,"65f54f62c2db2b8f78461476","computer","Desktop or Laptop","Chromium OS 14541.0.0","Chrome 121.0.0.0","1536x864","1536x730",NA,NA,0,"Task Introduction and Instructions (re-introduce video and audio) (Clone) (Clone)",2,"ABJCIDHEGF","Passed AC2","","Spreadsheet1",NA,"","","",NA,"5","BEGIN",NA,NA,NA,NA,NA,NA,0,NA,NA,NA,NA,"","",NA,"","",NA,"SUPPRF24929"
"12",1710576454098,"16/03/2024 08:07:34",1710576454098,0,"16/03/2024 08:07:34",171533,4,"task-kvtv",NA,36145910,10673578,NA,"complete",NA,"65f54f62c2db2b8f78461476","computer","Desktop or Laptop","Chromium OS 14541.0.0","Chrome 121.0.0.0","1536x864","1536x730",NA,NA,0,"Task Introduction and Instructions (re-introduce video and audio) (Clone) (Clone)",2,"ABJCIDHEGF","Passed AC2","","Spreadsheet1",NA,"","","",NA,"5","END",NA,NA,NA,NA,NA,NA,0,NA,NA,NA,NA,"","",NA,"","",NA,"SUPPRF24929"
"1",1710588160966,"16/03/2024 11:22:40",1710588160966,0,"16/03/2024 11:22:40",171533,4,"task-kvtv",NA,36148304,10674075,NA,"complete",NA,"65f57e264af96460db0901a2","computer","Desktop or Laptop","Mac OS 10.15.7","Chrome 122.0.0.0","1440x900","1440x813",NA,NA,0,"Task Introduction and Instructions (re-introduce video and audio) (Clone) (Clone)",2,"BCADJEIFHG","Passed AC2","","Spreadsheet1",NA,"","","",NA,"5","BEGIN",NA,NA,NA,NA,NA,NA,0,NA,NA,NA,NA,"","",NA,"","",NA,"SUPPRF42659"
"2",1710588165439,"16/03/2024 11:22:45",1710588165439,0,"16/03/2024 11:22:45",171533,4,"task-kvtv",NA,36148304,10674075,NA,"complete",NA,"65f57e264af96460db0901a2","computer","Desktop or Laptop","Mac OS 10.15.7","Chrome 122.0.0.0","1440x900","1440x813",NA,NA,0,"Task Introduction and Instructions (re-introduce video and audio) (Clone) (Clone)",2,"BCADJEIFHG","Passed AC2","","Spreadsheet1",1,"Task Instructions","Screen 1","anr7sn",1,"continue","",4376.6,4367.6,4376.6,4376.6,4367.6,4376.6,1,4376.6,0,0,NA,"Click To Continue","Continue Button",3,"object-60","Task Instructions",NA,"SUPPRF42659"
"3",1710588189050,"16/03/2024 11:23:09",1710588189050,0,"16/03/2024 11:23:09",171533,4,"task-kvtv",NA,36148304,10674075,NA,"complete",NA,"65f57e264af96460db0901a2","computer","Desktop or Laptop","Mac OS 10.15.7","Chrome 122.0.0.0","1440x900","1440x813",NA,NA,0,"Task Introduction and Instructions (re-introduce video and audio) (Clone) (Clone)",2,"BCADJEIFHG","Passed AC2","","Spreadsheet1",1,"Task Instructions","Screen 4","spepx9",2,"continue","",23620,23616.4,23620,23620,23616.4,23620,1,23620,0,0,NA,"Click To Continue","Continue Button",2,"object-9","Task Instructions",NA,"SUPPRF42659"
"4",1710588226340,"16/03/2024 11:23:46",1710588226340,0,"16/03/2024 11:23:46",171533,4,"task-kvtv",NA,36148304,10674075,NA,"complete",NA,"65f57e264af96460db0901a2","computer","Desktop or Laptop","Mac OS 10.15.7","Chrome 122.0.0.0","1440x900","1440x813",NA,NA,0,"Task Introduction and Instructions (re-introduce video and audio) (Clone) (Clone)",2,"BCADJEIFHG","Passed AC2","","Spreadsheet1",1,"Task Instructions","Screen 2","ce2tc8",3,"continue","",37293.7000000238,37282,37293.7000000238,37293.7000000238,37282,37293.7000000238,1,37293.7000000238,0,0,NA,"Click To Continue","Continue Button",3,"object-59","Task Instructions",NA,"SUPPRF42659"
"5",1710588245061,"16/03/2024 11:24:05",1710588245061,0,"16/03/2024 11:24:05",171533,4,"task-kvtv",NA,36148304,10674075,NA,"complete",NA,"65f57e264af96460db0901a2","computer","Desktop or Laptop","Mac OS 10.15.7","Chrome 122.0.0.0","1440x900","1440x813",NA,NA,0,"Task Introduction and Instructions (re-introduce video and audio) (Clone) (Clone)",2,"BCADJEIFHG","Passed AC2","","Spreadsheet1",1,"Task Instructions","Screen 3","1qtc8v",4,"continue","",18732.6,18716.6,18732.6,18732.6,18716.6,18732.6,1,18732.6,0,0,NA,"Click To Continue","Continue Button",2,"object-2983","Task Instructions",NA,"SUPPRF42659"
"6",1710588254275,"16/03/2024 11:24:14",1710588254275,0,"16/03/2024 11:24:14",171533,4,"task-kvtv",NA,36148304,10674075,NA,"complete",NA,"65f57e264af96460db0901a2","computer","Desktop or Laptop","Mac OS 10.15.7","Chrome 122.0.0.0","1440x900","1440x813",NA,NA,0,"Task Introduction and Instructions (re-introduce video and audio) (Clone) (Clone)",2,"BCADJEIFHG","Passed AC2","","Spreadsheet1",1,"Task Instructions","Screen 12","1a4vu2",5,"continue","",9231,9217.2,9231,9231,9217.2,9231,1,9231,0,0,NA,"Click To Continue","Continue Button",2,"object-2466","Task Instructions",NA,"SUPPRF42659"
"7",1710588259527,"16/03/2024 11:24:19",1710588259527,0,"16/03/2024 11:24:19",171533,4,"task-kvtv",NA,36148304,10674075,NA,"complete",NA,"65f57e264af96460db0901a2","computer","Desktop or Laptop","Mac OS 10.15.7","Chrome 122.0.0.0","1440x900","1440x813",NA,NA,0,"Task Introduction and Instructions (re-introduce video and audio) (Clone) (Clone)",2,"BCADJEIFHG","Passed AC2","","Spreadsheet1",1,"Task Instructions","Screen 13","q9vwda",6,"continue","",5265.10000001192,5249,5265.10000001192,5265.10000001192,5249,5265.10000001192,1,5265.10000001192,0,0,NA,"Click To Continue","Continue Button",2,"object-2989","Task Instructions",NA,"SUPPRF42659"
"8",1710588263003,"16/03/2024 11:24:23",1710588263003,0,"16/03/2024 11:24:23",171533,4,"task-kvtv",NA,36148304,10674075,NA,"complete",NA,"65f57e264af96460db0901a2","computer","Desktop or Laptop","Mac OS 10.15.7","Chrome 122.0.0.0","1440x900","1440x813",NA,NA,0,"Task Introduction and Instructions (re-introduce video and audio) (Clone) (Clone)",2,"BCADJEIFHG","Passed AC2","","Spreadsheet1",1,"Task Instructions","Screen 11","oyulb7",7,"continue","",3492.8,3483.90000000001,3492.8,3492.8,3483.90000000001,3492.8,1,3492.8,0,0,NA,"Click To Continue","Continue Button",2,"object-52","Task Instructions",NA,"SUPPRF42659"
"9",1710588265896,"16/03/2024 11:24:25",1710588265896,0,"16/03/2024 11:24:25",171533,4,"task-kvtv",NA,36148304,10674075,NA,"complete",NA,"65f57e264af96460db0901a2","computer","Desktop or Laptop","Mac OS 10.15.7","Chrome 122.0.0.0","1440x900","1440x813",NA,NA,0,"Task Introduction and Instructions (re-introduce video and audio) (Clone) (Clone)",2,"BCADJEIFHG","Passed AC2","","Spreadsheet1",1,"Task Instructions","Screen 5","8nvnao",8,"continue","",2901.20000001192,2900,2901.20000001192,2901.20000001192,2900,2901.20000001192,1,2901.20000001192,0,0,NA,"Click To Continue","Continue Button",2,"object-44","Task Instructions",NA,"SUPPRF42659"
"10",1710588265898,"16/03/2024 11:24:25",1710588265898,0,"16/03/2024 11:24:25",171533,4,"task-kvtv",NA,36148304,10674075,NA,"complete",NA,"65f57e264af96460db0901a2","computer","Desktop or Laptop","Mac OS 10.15.7","Chrome 122.0.0.0","1440x900","1440x813",NA,NA,0,"Task Introduction and Instructions (re-introduce video and audio) (Clone) (Clone)",2,"BCADJEIFHG","Passed AC2","","Spreadsheet1",NA,"","","",NA,"5","END",NA,NA,NA,NA,NA,NA,0,NA,NA,NA,NA,"","",NA,"","",NA,"SUPPRF42659"
"1",1710593862693,"16/03/2024 12:57:42",1710593862693,0,"16/03/2024 12:57:42",171533,4,"task-kvtv",NA,36149756,10674438,NA,"complete",NA,"65f593ae1c411d371249e041","computer","Desktop or Laptop","Chromium OS 14541.0.0","Chrome 121.0.0.0","1920x1080","1920x945",NA,NA,0,"Task Introduction and Instructions (re-introduce video and audio) (Clone) (Clone)",2,"DECFBGAHJI","Passed AC2","","Spreadsheet1",NA,"","","",NA,"5","BEGIN",NA,NA,NA,NA,NA,NA,0,NA,NA,NA,NA,"","",NA,"","",NA,"SUPPRF60041"
