"Event.Index","UTC.Timestamp","UTC.Date.and.Time","Local.Timestamp","Local.Timezone","Local.Date.and.Time","Experiment.ID","Experiment.Version","Tree.Node.Key","Repeat.Key","Schedule.ID","Participant.Private.ID","Participant.Starting.Group","Participant.Status","Participant.Completion.Code","Participant.Device.Type","Participant.Device","Participant.OS","Participant.Browser","Participant.Monitor.Size","Participant.Viewport.Size","Checkpoint","Room.ID","Room.Order","Task.Name","Task.Version","order.ot79","branch.g31k","branch.5gtn","Spreadsheet","Current.Spreadsheet","Trial.Number","Display","Screen","Screen.ID","Screen.Counter","Response.Type","Response","Onset.Time","Clock.Time","Reaction.Time","Absolute.Onset.Time","Absolute.Clock.Time","Absolute.Reaction.Time","Correct","Response.Onset","Response.Duration","Proportion","Tag","Component.Name","Object.Name","Object.Number","Object.ID","Spreadsheet..display","Manipulation..Spreadsheet","Random_ID"
"1",1717680372943,"06/06/2024 13:26:12",1717683972943,1,"06/06/2024 15:26:12",180921,1,"task-8tuj",NA,38088122,11204191,NA,"complete",NA,"computer","Desktop or Laptop","Chromium OS 14541.0.0","Chrome 124.0.0.0","1366x768","1366x647",NA,NA,0,"Task Introduction and Instructions (re-introduce video and audio) (Clone) (Clone)",3,"ABICHDGEF","Passed AC2",NA,"Spreadsheet1","Spreadsheet1",NA,"","","",NA,"info","BEGIN",NA,NA,NA,NA,NA,NA,0,NA,NA,NA,NA,"","",NA,"","",NA,"SUPPRF73571"
"2",1717680377420,"06/06/2024 13:26:17",1717683977420,1,"06/06/2024 15:26:17",180921,1,"task-8tuj",NA,38088122,11204191,NA,"complete",NA,"computer","Desktop or Laptop","Chromium OS 14541.0.0","Chrome 124.0.0.0","1366x768","1366x647",NA,NA,0,"Task Introduction and Instructions (re-introduce video and audio) (Clone) (Clone)",3,"ABICHDGEF","Passed AC2",NA,"Spreadsheet1","Spreadsheet1",1,"Task Instructions","Screen 1","anr7sn",1,"continue","",4268.6,4235.3,4268.6,4268.6,4235.3,4268.6,1,4268.6,0,0,NA,"Click To Continue","Continue Button",3,"object-60","Task Instructions",NA,"SUPPRF73571"
"3",1717680381777,"06/06/2024 13:26:21",1717683981777,1,"06/06/2024 15:26:21",180921,1,"task-8tuj",NA,38088122,11204191,NA,"complete",NA,"computer","Desktop or Laptop","Chromium OS 14541.0.0","Chrome 124.0.0.0","1366x768","1366x647",NA,NA,0,"Task Introduction and Instructions (re-introduce video and audio) (Clone) (Clone)",3,"ABICHDGEF","Passed AC2",NA,"Spreadsheet1","Spreadsheet1",1,"Task Instructions","Screen 4","spepx9",2,"continue","",4393.89999999702,4368.3,4393.89999999702,4393.89999999702,4368.3,4393.89999999702,1,4393.89999999702,0,0,NA,"Click To Continue","Continue Button",2,"object-9","Task Instructions",NA,"SUPPRF73571"
"4",1717680394482,"06/06/2024 13:26:34",1717683994482,1,"06/06/2024 15:26:34",180921,1,"task-8tuj",NA,38088122,11204191,NA,"complete",NA,"computer","Desktop or Laptop","Chromium OS 14541.0.0","Chrome 124.0.0.0","1366x768","1366x647",NA,NA,0,"Task Introduction and Instructions (re-introduce video and audio) (Clone) (Clone)",3,"ABICHDGEF","Passed AC2",NA,"Spreadsheet1","Spreadsheet1",1,"Task Instructions","Screen 2","ce2tc8",3,"continue","",12730.599999997,12699.6,12730.599999997,12730.599999997,12699.6,12730.599999997,1,12730.599999997,0,0,NA,"Click To Continue","Continue Button",3,"object-59","Task Instructions",NA,"SUPPRF73571"
"5",1717680403848,"06/06/2024 13:26:43",1717684003848,1,"06/06/2024 15:26:43",180921,1,"task-8tuj",NA,38088122,11204191,NA,"complete",NA,"computer","Desktop or Laptop","Chromium OS 14541.0.0","Chrome 124.0.0.0","1366x768","1366x647",NA,NA,0,"Task Introduction and Instructions (re-introduce video and audio) (Clone) (Clone)",3,"ABICHDGEF","Passed AC2",NA,"Spreadsheet1","Spreadsheet1",1,"Task Instructions","Screen 3","1qtc8v",4,"continue","",9396.39999998808,9366,9396.39999998808,9396.39999998808,9366,9396.39999998808,1,9396.39999998808,0,0,NA,"Click To Continue","Continue Button",2,"object-2983","Task Instructions",NA,"SUPPRF73571"
"6",1717680413012,"06/06/2024 13:26:53",1717684013012,1,"06/06/2024 15:26:53",180921,1,"task-8tuj",NA,38088122,11204191,NA,"complete",NA,"computer","Desktop or Laptop","Chromium OS 14541.0.0","Chrome 124.0.0.0","1366x768","1366x647",NA,NA,0,"Task Introduction and Instructions (re-introduce video and audio) (Clone) (Clone)",3,"ABICHDGEF","Passed AC2",NA,"Spreadsheet1","Spreadsheet1",1,"Task Instructions","Screen 12","1a4vu2",5,"continue","",9194.59999999106,9167.3,9194.59999999106,9194.59999999106,9167.3,9194.59999999106,1,9194.59999999106,0,0,NA,"Click To Continue","Continue Button",2,"object-2466","Task Instructions",NA,"SUPPRF73571"
"7",1717680418127,"06/06/2024 13:26:58",1717684018127,1,"06/06/2024 15:26:58",180921,1,"task-8tuj",NA,38088122,11204191,NA,"complete",NA,"computer","Desktop or Laptop","Chromium OS 14541.0.0","Chrome 124.0.0.0","1366x768","1366x647",NA,NA,0,"Task Introduction and Instructions (re-introduce video and audio) (Clone) (Clone)",3,"ABICHDGEF","Passed AC2",NA,"Spreadsheet1","Spreadsheet1",1,"Task Instructions","Screen 13","q9vwda",6,"continue","",5142.49999999404,5110.1,5142.49999999404,5142.49999999404,5110.1,5142.49999999404,1,5142.49999999404,0,0,NA,"Click To Continue","Continue Button",2,"object-2989","Task Instructions",NA,"SUPPRF73571"
"8",1717680422167,"06/06/2024 13:27:02",1717684022167,1,"06/06/2024 15:27:02",180921,1,"task-8tuj",NA,38088122,11204191,NA,"complete",NA,"computer","Desktop or Laptop","Chromium OS 14541.0.0","Chrome 124.0.0.0","1366x768","1366x647",NA,NA,0,"Task Introduction and Instructions (re-introduce video and audio) (Clone) (Clone)",3,"ABICHDGEF","Passed AC2",NA,"Spreadsheet1","Spreadsheet1",1,"Task Instructions","Screen 11","oyulb7",7,"continue","",4072.49999998808,4068.5,4072.49999998808,4072.49999998808,4068.5,4072.49999998808,1,4072.49999998808,0,0,NA,"Click To Continue","Continue Button",2,"object-52","Task Instructions",NA,"SUPPRF73571"
"9",1717680425429,"06/06/2024 13:27:05",1717684025429,1,"06/06/2024 15:27:05",180921,1,"task-8tuj",NA,38088122,11204191,NA,"complete",NA,"computer","Desktop or Laptop","Chromium OS 14541.0.0","Chrome 124.0.0.0","1366x768","1366x647",NA,NA,0,"Task Introduction and Instructions (re-introduce video and audio) (Clone) (Clone)",3,"ABICHDGEF","Passed AC2",NA,"Spreadsheet1","Spreadsheet1",1,"Task Instructions","Screen 5","8nvnao",8,"continue","",3265.49999998808,3237.2,3265.49999998808,3265.49999998808,3237.2,3265.49999998808,1,3265.49999998808,0,0,NA,"Click To Continue","Continue Button",2,"object-44","Task Instructions",NA,"SUPPRF73571"
"10",1717680425442,"06/06/2024 13:27:05",1717684025442,1,"06/06/2024 15:27:05",180921,1,"task-8tuj",NA,38088122,11204191,NA,"complete",NA,"computer","Desktop or Laptop","Chromium OS 14541.0.0","Chrome 124.0.0.0","1366x768","1366x647",NA,NA,0,"Task Introduction and Instructions (re-introduce video and audio) (Clone) (Clone)",3,"ABICHDGEF","Passed AC2",NA,"Spreadsheet1","Spreadsheet1",NA,"","","",NA,"info","END",NA,NA,NA,NA,NA,NA,0,NA,NA,NA,NA,"","",NA,"","",NA,"SUPPRF73571"
"1",1717680481664,"06/06/2024 13:28:01",1717684081664,1,"06/06/2024 15:28:01",180921,1,"task-8tuj",NA,38088167,11204221,NA,"complete",NA,"computer","Desktop or Laptop","Windows 10","Chrome 125.0.0.0","1366x768","1350x631",NA,NA,0,"Task Introduction and Instructions (re-introduce video and audio) (Clone) (Clone)",3,"CDBEAFIGH","Passed AC2",NA,"Spreadsheet1","Spreadsheet1",NA,"","","",NA,"info","BEGIN",NA,NA,NA,NA,NA,NA,0,NA,NA,NA,NA,"","",NA,"","",NA,"SUPPRF98714"
"2",1717680484863,"06/06/2024 13:28:04",1717684084863,1,"06/06/2024 15:28:04",180921,1,"task-8tuj",NA,38088167,11204221,NA,"complete",NA,"computer","Desktop or Laptop","Windows 10","Chrome 125.0.0.0","1366x768","1350x631",NA,NA,0,"Task Introduction and Instructions (re-introduce video and audio) (Clone) (Clone)",3,"CDBEAFIGH","Passed AC2",NA,"Spreadsheet1","Spreadsheet1",1,"Task Instructions","Screen 1","anr7sn",1,"continue","",3066.4,3049.7,3066.4,3066.4,3049.7,3066.4,1,3066.4,0,0,NA,"Click To Continue","Continue Button",3,"object-60","Task Instructions",NA,"SUPPRF98714"
"3",1717680488037,"06/06/2024 13:28:08",1717684088037,1,"06/06/2024 15:28:08",180921,1,"task-8tuj",NA,38088167,11204221,NA,"complete",NA,"computer","Desktop or Laptop","Windows 10","Chrome 125.0.0.0","1366x768","1350x631",NA,NA,0,"Task Introduction and Instructions (re-introduce video and audio) (Clone) (Clone)",3,"CDBEAFIGH","Passed AC2",NA,"Spreadsheet1","Spreadsheet1",1,"Task Instructions","Screen 4","spepx9",2,"continue","",3192.99999996424,3183.2,3192.99999996424,3192.99999996424,3183.2,3192.99999996424,1,3192.99999996424,0,0,NA,"Click To Continue","Continue Button",2,"object-9","Task Instructions",NA,"SUPPRF98714"
"4",1717680491059,"06/06/2024 13:28:11",1717684091059,1,"06/06/2024 15:28:11",180921,1,"task-8tuj",NA,38088167,11204221,NA,"complete",NA,"computer","Desktop or Laptop","Windows 10","Chrome 125.0.0.0","1366x768","1350x631",NA,NA,0,"Task Introduction and Instructions (re-introduce video and audio) (Clone) (Clone)",3,"CDBEAFIGH","Passed AC2",NA,"Spreadsheet1","Spreadsheet1",1,"Task Instructions","Screen 2","ce2tc8",3,"continue","",3031.79999996424,3016.3,3031.79999996424,3031.79999996424,3016.3,3031.79999996424,1,3031.79999996424,0,0,NA,"Click To Continue","Continue Button",3,"object-59","Task Instructions",NA,"SUPPRF98714"
"5",1717680498974,"06/06/2024 13:28:18",1717684098974,1,"06/06/2024 15:28:18",180921,1,"task-8tuj",NA,38088167,11204221,NA,"complete",NA,"computer","Desktop or Laptop","Windows 10","Chrome 125.0.0.0","1366x768","1350x631",NA,NA,0,"Task Introduction and Instructions (re-introduce video and audio) (Clone) (Clone)",3,"CDBEAFIGH","Passed AC2",NA,"Spreadsheet1","Spreadsheet1",1,"Task Instructions","Screen 3","1qtc8v",4,"continue","",7930.59999998808,7916.1,7930.59999998808,7930.59999998808,7916.1,7930.59999998808,1,7930.59999998808,0,0,NA,"Click To Continue","Continue Button",2,"object-2983","Task Instructions",NA,"SUPPRF98714"
"6",1717680502971,"06/06/2024 13:28:22",1717684102971,1,"06/06/2024 15:28:22",180921,1,"task-8tuj",NA,38088167,11204221,NA,"complete",NA,"computer","Desktop or Laptop","Windows 10","Chrome 125.0.0.0","1366x768","1350x631",NA,NA,0,"Task Introduction and Instructions (re-introduce video and audio) (Clone) (Clone)",3,"CDBEAFIGH","Passed AC2",NA,"Spreadsheet1","Spreadsheet1",1,"Task Instructions","Screen 12","1a4vu2",5,"continue","",4010.8,3999.7,4010.8,4010.8,3999.7,4010.8,1,4010.8,0,0,NA,"Click To Continue","Continue Button",2,"object-2466","Task Instructions",NA,"SUPPRF98714"
"7",1717680507931,"06/06/2024 13:28:27",1717684107931,1,"06/06/2024 15:28:27",180921,1,"task-8tuj",NA,38088167,11204221,NA,"complete",NA,"computer","Desktop or Laptop","Windows 10","Chrome 125.0.0.0","1366x768","1350x631",NA,NA,0,"Task Introduction and Instructions (re-introduce video and audio) (Clone) (Clone)",3,"CDBEAFIGH","Passed AC2",NA,"Spreadsheet1","Spreadsheet1",1,"Task Instructions","Screen 13","q9vwda",6,"continue","",4971.29999998808,4966.3,4971.29999998808,4971.29999998808,4966.3,4971.29999998808,1,4971.29999998808,0,0,NA,"Click To Continue","Continue Button",2,"object-2989","Task Instructions",NA,"SUPPRF98714"
"8",1717680510900,"06/06/2024 13:28:30",1717684110900,1,"06/06/2024 15:28:30",180921,1,"task-8tuj",NA,38088167,11204221,NA,"complete",NA,"computer","Desktop or Laptop","Windows 10","Chrome 125.0.0.0","1366x768","1350x631",NA,NA,0,"Task Introduction and Instructions (re-introduce video and audio) (Clone) (Clone)",3,"CDBEAFIGH","Passed AC2",NA,"Spreadsheet1","Spreadsheet1",1,"Task Instructions","Screen 11","oyulb7",7,"continue","",2974.19999997616,2966.4,2974.19999997616,2974.19999997616,2966.4,2974.19999997616,1,2974.19999997616,0,0,NA,"Click To Continue","Continue Button",2,"object-52","Task Instructions",NA,"SUPPRF98714"
"9",1717680513759,"06/06/2024 13:28:33",1717684113759,1,"06/06/2024 15:28:33",180921,1,"task-8tuj",NA,38088167,11204221,NA,"complete",NA,"computer","Desktop or Laptop","Windows 10","Chrome 125.0.0.0","1366x768","1350x631",NA,NA,0,"Task Introduction and Instructions (re-introduce video and audio) (Clone) (Clone)",3,"CDBEAFIGH","Passed AC2",NA,"Spreadsheet1","Spreadsheet1",1,"Task Instructions","Screen 5","8nvnao",8,"continue","",2866.7,2849.9,2866.7,2866.7,2849.9,2866.7,1,2866.7,0,0,NA,"Click To Continue","Continue Button",2,"object-44","Task Instructions",NA,"SUPPRF98714"
"10",1717680513762,"06/06/2024 13:28:33",1717684113762,1,"06/06/2024 15:28:33",180921,1,"task-8tuj",NA,38088167,11204221,NA,"complete",NA,"computer","Desktop or Laptop","Windows 10","Chrome 125.0.0.0","1366x768","1350x631",NA,NA,0,"Task Introduction and Instructions (re-introduce video and audio) (Clone) (Clone)",3,"CDBEAFIGH","Passed AC2",NA,"Spreadsheet1","Spreadsheet1",NA,"","","",NA,"info","END",NA,NA,NA,NA,NA,NA,0,NA,NA,NA,NA,"","",NA,"","",NA,"SUPPRF98714"
"1",1717680720588,"06/06/2024 13:32:00",1717684320588,1,"06/06/2024 15:32:00",180921,1,"task-8tuj",NA,38088253,11204230,NA,"complete",NA,"computer","Desktop or Laptop","Windows 10","Chrome 125.0.0.0","1920x1080","1920x957",NA,NA,0,"Task Introduction and Instructions (re-introduce video and audio) (Clone) (Clone)",3,"DECFBGAHI","Passed AC2",NA,"Spreadsheet1","Spreadsheet1",NA,"","","",NA,"info","BEGIN",NA,NA,NA,NA,NA,NA,0,NA,NA,NA,NA,"","",NA,"","",NA,"SUPPRF40133"
"2",1717680725443,"06/06/2024 13:32:05",1717684325443,1,"06/06/2024 15:32:05",180921,1,"task-8tuj",NA,38088253,11204230,NA,"complete",NA,"computer","Desktop or Laptop","Windows 10","Chrome 125.0.0.0","1920x1080","1920x957",NA,NA,0,"Task Introduction and Instructions (re-introduce video and audio) (Clone) (Clone)",3,"DECFBGAHI","Passed AC2",NA,"Spreadsheet1","Spreadsheet1",1,"Task Instructions","Screen 1","anr7sn",1,"continue","",4707.1,4700.4,4707.1,4707.1,4700.4,4707.1,1,4707.1,0,0,NA,"Click To Continue","Continue Button",3,"object-60","Task Instructions",NA,"SUPPRF40133"
"3",1717680728466,"06/06/2024 13:32:08",1717684328466,1,"06/06/2024 15:32:08",180921,1,"task-8tuj",NA,38088253,11204230,NA,"complete",NA,"computer","Desktop or Laptop","Windows 10","Chrome 125.0.0.0","1920x1080","1920x957",NA,NA,0,"Task Introduction and Instructions (re-introduce video and audio) (Clone) (Clone)",3,"DECFBGAHI","Passed AC2",NA,"Spreadsheet1","Spreadsheet1",1,"Task Instructions","Screen 4","spepx9",2,"continue","",3029.90000004768,3027.2,3029.90000004768,3029.90000004768,3027.2,3029.90000004768,1,3029.90000004768,0,0,NA,"Click To Continue","Continue Button",2,"object-9","Task Instructions",NA,"SUPPRF40133"
"4",1717680739921,"06/06/2024 13:32:19",1717684339921,1,"06/06/2024 15:32:19",180921,1,"task-8tuj",NA,38088253,11204230,NA,"complete",NA,"computer","Desktop or Laptop","Windows 10","Chrome 125.0.0.0","1920x1080","1920x957",NA,NA,0,"Task Introduction and Instructions (re-introduce video and audio) (Clone) (Clone)",3,"DECFBGAHI","Passed AC2",NA,"Spreadsheet1","Spreadsheet1",1,"Task Instructions","Screen 2","ce2tc8",3,"continue","",11458.1000000238,11456.2,11458.1000000238,11458.1000000238,11456.2,11458.1000000238,1,11458.1000000238,0,0,NA,"Click To Continue","Continue Button",3,"object-59","Task Instructions",NA,"SUPPRF40133"
"5",1717680747489,"06/06/2024 13:32:27",1717684347489,1,"06/06/2024 15:32:27",180921,1,"task-8tuj",NA,38088253,11204230,NA,"complete",NA,"computer","Desktop or Laptop","Windows 10","Chrome 125.0.0.0","1920x1080","1920x957",NA,NA,0,"Task Introduction and Instructions (re-introduce video and audio) (Clone) (Clone)",3,"DECFBGAHI","Passed AC2",NA,"Spreadsheet1","Spreadsheet1",1,"Task Instructions","Screen 3","1qtc8v",4,"continue","",7569.59999995232,7568.2,7569.59999995232,7569.59999995232,7568.2,7569.59999995232,1,7569.59999995232,0,0,NA,"Click To Continue","Continue Button",2,"object-2983","Task Instructions",NA,"SUPPRF40133"
"6",1717680756481,"06/06/2024 13:32:36",1717684356481,1,"06/06/2024 15:32:36",180921,1,"task-8tuj",NA,38088253,11204230,NA,"complete",NA,"computer","Desktop or Laptop","Windows 10","Chrome 125.0.0.0","1920x1080","1920x957",NA,NA,0,"Task Introduction and Instructions (re-introduce video and audio) (Clone) (Clone)",3,"DECFBGAHI","Passed AC2",NA,"Spreadsheet1","Spreadsheet1",1,"Task Instructions","Screen 12","1a4vu2",5,"continue","",8993.70000002384,8991.1,8993.70000002384,8993.70000002384,8991.1,8993.70000002384,1,8993.70000002384,0,0,NA,"Click To Continue","Continue Button",2,"object-2466","Task Instructions",NA,"SUPPRF40133"
"7",1717680761345,"06/06/2024 13:32:41",1717684361345,1,"06/06/2024 15:32:41",180921,1,"task-8tuj",NA,38088253,11204230,NA,"complete",NA,"computer","Desktop or Laptop","Windows 10","Chrome 125.0.0.0","1920x1080","1920x957",NA,NA,0,"Task Introduction and Instructions (re-introduce video and audio) (Clone) (Clone)",3,"DECFBGAHI","Passed AC2",NA,"Spreadsheet1","Spreadsheet1",1,"Task Instructions","Screen 13","q9vwda",6,"continue","",4866.60000002384,4860.3,4866.60000002384,4866.60000002384,4860.3,4866.60000002384,1,4866.60000002384,0,0,NA,"Click To Continue","Continue Button",2,"object-2989","Task Instructions",NA,"SUPPRF40133"
"8",1717680765665,"06/06/2024 13:32:45",1717684365665,1,"06/06/2024 15:32:45",180921,1,"task-8tuj",NA,38088253,11204230,NA,"complete",NA,"computer","Desktop or Laptop","Windows 10","Chrome 125.0.0.0","1920x1080","1920x957",NA,NA,0,"Task Introduction and Instructions (re-introduce video and audio) (Clone) (Clone)",3,"DECFBGAHI","Passed AC2",NA,"Spreadsheet1","Spreadsheet1",1,"Task Instructions","Screen 11","oyulb7",7,"continue","",4326.40000004768,4325.5,4326.40000004768,4326.40000004768,4325.5,4326.40000004768,1,4326.40000004768,0,0,NA,"Click To Continue","Continue Button",2,"object-52","Task Instructions",NA,"SUPPRF40133"
"9",1717680768689,"06/06/2024 13:32:48",1717684368689,1,"06/06/2024 15:32:48",180921,1,"task-8tuj",NA,38088253,11204230,NA,"complete",NA,"computer","Desktop or Laptop","Windows 10","Chrome 125.0.0.0","1920x1080","1920x957",NA,NA,0,"Task Introduction and Instructions (re-introduce video and audio) (Clone) (Clone)",3,"DECFBGAHI","Passed AC2",NA,"Spreadsheet1","Spreadsheet1",1,"Task Instructions","Screen 5","8nvnao",8,"continue","",3024.90000004768,3020.2,3024.90000004768,3024.90000004768,3020.2,3024.90000004768,1,3024.90000004768,0,0,NA,"Click To Continue","Continue Button",2,"object-44","Task Instructions",NA,"SUPPRF40133"
"10",1717680768691,"06/06/2024 13:32:48",1717684368691,1,"06/06/2024 15:32:48",180921,1,"task-8tuj",NA,38088253,11204230,NA,"complete",NA,"computer","Desktop or Laptop","Windows 10","Chrome 125.0.0.0","1920x1080","1920x957",NA,NA,0,"Task Introduction and Instructions (re-introduce video and audio) (Clone) (Clone)",3,"DECFBGAHI","Passed AC2",NA,"Spreadsheet1","Spreadsheet1",NA,"","","",NA,"info","END",NA,NA,NA,NA,NA,NA,0,NA,NA,NA,NA,"","",NA,"","",NA,"SUPPRF40133"
"1",1717681100566,"06/06/2024 13:38:20",1717684700566,1,"06/06/2024 15:38:20",180921,1,"task-8tuj",NA,38088412,11204237,NA,"complete",NA,"computer","Desktop or Laptop","Chromium OS 14541.0.0","Chrome 124.0.0.0","1366x768","1366x599",NA,NA,0,"Task Introduction and Instructions (re-introduce video and audio) (Clone) (Clone)",3,"EFDGCHBIA","Passed AC2",NA,"Spreadsheet1","Spreadsheet1",NA,"","","",NA,"info","BEGIN",NA,NA,NA,NA,NA,NA,0,NA,NA,NA,NA,"","",NA,"","",NA,"SUPPRF16541"
"2",1717681103748,"06/06/2024 13:38:23",1717684703748,1,"06/06/2024 15:38:23",180921,1,"task-8tuj",NA,38088412,11204237,NA,"complete",NA,"computer","Desktop or Laptop","Chromium OS 14541.0.0","Chrome 124.0.0.0","1366x768","1366x599",NA,NA,0,"Task Introduction and Instructions (re-introduce video and audio) (Clone) (Clone)",3,"EFDGCHBIA","Passed AC2",NA,"Spreadsheet1","Spreadsheet1",1,"Task Instructions","Screen 1","anr7sn",1,"continue","",3007.30000003576,2996.9,3007.30000003576,3007.30000003576,2996.9,3007.30000003576,1,3007.30000003576,0,0,NA,"Click To Continue","Continue Button",3,"object-60","Task Instructions",NA,"SUPPRF16541"
"3",1717681106652,"06/06/2024 13:38:26",1717684706652,1,"06/06/2024 15:38:26",180921,1,"task-8tuj",NA,38088412,11204237,NA,"complete",NA,"computer","Desktop or Laptop","Chromium OS 14541.0.0","Chrome 124.0.0.0","1366x768","1366x599",NA,NA,0,"Task Introduction and Instructions (re-introduce video and audio) (Clone) (Clone)",3,"EFDGCHBIA","Passed AC2",NA,"Spreadsheet1","Spreadsheet1",1,"Task Instructions","Screen 4","spepx9",2,"continue","",2913.4,2896.8,2913.4,2913.4,2896.8,2913.4,1,2913.4,0,0,NA,"Click To Continue","Continue Button",2,"object-9","Task Instructions",NA,"SUPPRF16541"
"4",1717681113094,"06/06/2024 13:38:33",1717684713094,1,"06/06/2024 15:38:33",180921,1,"task-8tuj",NA,38088412,11204237,NA,"complete",NA,"computer","Desktop or Laptop","Chromium OS 14541.0.0","Chrome 124.0.0.0","1366x768","1366x599",NA,NA,0,"Task Introduction and Instructions (re-introduce video and audio) (Clone) (Clone)",3,"EFDGCHBIA","Passed AC2",NA,"Spreadsheet1","Spreadsheet1",1,"Task Instructions","Screen 2","ce2tc8",3,"continue","",6460.60000003576,6457.5,6460.60000003576,6460.60000003576,6457.5,6460.60000003576,1,6460.60000003576,0,0,NA,"Click To Continue","Continue Button",3,"object-59","Task Instructions",NA,"SUPPRF16541"
"5",1717681117830,"06/06/2024 13:38:37",1717684717830,1,"06/06/2024 15:38:37",180921,1,"task-8tuj",NA,38088412,11204237,NA,"complete",NA,"computer","Desktop or Laptop","Chromium OS 14541.0.0","Chrome 124.0.0.0","1366x768","1366x599",NA,NA,0,"Task Introduction and Instructions (re-introduce video and audio) (Clone) (Clone)",3,"EFDGCHBIA","Passed AC2",NA,"Spreadsheet1","Spreadsheet1",1,"Task Instructions","Screen 3","1qtc8v",4,"continue","",4739.00000001192,4730.6,4739.00000001192,4739.00000001192,4730.6,4739.00000001192,1,4739.00000001192,0,0,NA,"Click To Continue","Continue Button",2,"object-2983","Task Instructions",NA,"SUPPRF16541"
"6",1717681121436,"06/06/2024 13:38:41",1717684721436,1,"06/06/2024 15:38:41",180921,1,"task-8tuj",NA,38088412,11204237,NA,"complete",NA,"computer","Desktop or Laptop","Chromium OS 14541.0.0","Chrome 124.0.0.0","1366x768","1366x599",NA,NA,0,"Task Introduction and Instructions (re-introduce video and audio) (Clone) (Clone)",3,"EFDGCHBIA","Passed AC2",NA,"Spreadsheet1","Spreadsheet1",1,"Task Instructions","Screen 12","1a4vu2",5,"continue","",3614.00000003576,3610.6,3614.00000003576,3614.00000003576,3610.6,3614.00000003576,1,3614.00000003576,0,0,NA,"Click To Continue","Continue Button",2,"object-2466","Task Instructions",NA,"SUPPRF16541"
"7",1717681126343,"06/06/2024 13:38:46",1717684726343,1,"06/06/2024 15:38:46",180921,1,"task-8tuj",NA,38088412,11204237,NA,"complete",NA,"computer","Desktop or Laptop","Chromium OS 14541.0.0","Chrome 124.0.0.0","1366x768","1366x599",NA,NA,0,"Task Introduction and Instructions (re-introduce video and audio) (Clone) (Clone)",3,"EFDGCHBIA","Passed AC2",NA,"Spreadsheet1","Spreadsheet1",1,"Task Instructions","Screen 13","q9vwda",6,"continue","",4908.3,4891.6,4908.3,4908.3,4891.6,4908.3,1,4908.3,0,0,NA,"Click To Continue","Continue Button",2,"object-2989","Task Instructions",NA,"SUPPRF16541"
"8",1717681128743,"06/06/2024 13:38:48",1717684728743,1,"06/06/2024 15:38:48",180921,1,"task-8tuj",NA,38088412,11204237,NA,"complete",NA,"computer","Desktop or Laptop","Chromium OS 14541.0.0","Chrome 124.0.0.0","1366x768","1366x599",NA,NA,0,"Task Introduction and Instructions (re-introduce video and audio) (Clone) (Clone)",3,"EFDGCHBIA","Passed AC2",NA,"Spreadsheet1","Spreadsheet1",1,"Task Instructions","Screen 11","oyulb7",7,"continue","",2419.50000002384,2414.2,2419.50000002384,2419.50000002384,2414.2,2419.50000002384,1,2419.50000002384,0,0,NA,"Click To Continue","Continue Button",2,"object-52","Task Instructions",NA,"SUPPRF16541"
"9",1717681131828,"06/06/2024 13:38:51",1717684731828,1,"06/06/2024 15:38:51",180921,1,"task-8tuj",NA,38088412,11204237,NA,"complete",NA,"computer","Desktop or Laptop","Chromium OS 14541.0.0","Chrome 124.0.0.0","1366x768","1366x599",NA,NA,0,"Task Introduction and Instructions (re-introduce video and audio) (Clone) (Clone)",3,"EFDGCHBIA","Passed AC2",NA,"Spreadsheet1","Spreadsheet1",1,"Task Instructions","Screen 5","8nvnao",8,"continue","",3089.50000001192,3079.1,3089.50000001192,3089.50000001192,3079.1,3089.50000001192,1,3089.50000001192,0,0,NA,"Click To Continue","Continue Button",2,"object-44","Task Instructions",NA,"SUPPRF16541"
"10",1717681131834,"06/06/2024 13:38:51",1717684731834,1,"06/06/2024 15:38:51",180921,1,"task-8tuj",NA,38088412,11204237,NA,"complete",NA,"computer","Desktop or Laptop","Chromium OS 14541.0.0","Chrome 124.0.0.0","1366x768","1366x599",NA,NA,0,"Task Introduction and Instructions (re-introduce video and audio) (Clone) (Clone)",3,"EFDGCHBIA","Passed AC2",NA,"Spreadsheet1","Spreadsheet1",NA,"","","",NA,"info","END",NA,NA,NA,NA,NA,NA,0,NA,NA,NA,NA,"","",NA,"","",NA,"SUPPRF16541"
"1",1717680973886,"06/06/2024 13:36:13",1717684573886,1,"06/06/2024 15:36:13",180921,1,"task-8tuj",NA,38088358,11204276,NA,"complete",NA,"computer","Desktop or Laptop","Mac OS 10.15.7","Chrome 125.0.0.0","1440x900","1384x697",NA,NA,0,"Task Introduction and Instructions (re-introduce video and audio) (Clone) (Clone)",3,"FGEHDICAB","Passed AC2",NA,"Spreadsheet1","Spreadsheet1",NA,"","","",NA,"info","BEGIN",NA,NA,NA,NA,NA,NA,0,NA,NA,NA,NA,"","",NA,"","",NA,"SUPPRF46523"
"2",1717680977105,"06/06/2024 13:36:17",1717684577105,1,"06/06/2024 15:36:17",180921,1,"task-8tuj",NA,38088358,11204276,NA,"complete",NA,"computer","Desktop or Laptop","Mac OS 10.15.7","Chrome 125.0.0.0","1440x900","1384x697",NA,NA,0,"Task Introduction and Instructions (re-introduce video and audio) (Clone) (Clone)",3,"FGEHDICAB","Passed AC2",NA,"Spreadsheet1","Spreadsheet1",1,"Task Instructions","Screen 1","anr7sn",1,"continue","",3058.19999999404,3047.5,3058.19999999404,3058.19999999404,3047.5,3058.19999999404,1,3058.19999999404,0,0,NA,"Click To Continue","Continue Button",3,"object-60","Task Instructions",NA,"SUPPRF46523"
"3",1717680980564,"06/06/2024 13:36:20",1717684580564,1,"06/06/2024 15:36:20",180921,1,"task-8tuj",NA,38088358,11204276,NA,"complete",NA,"computer","Desktop or Laptop","Mac OS 10.15.7","Chrome 125.0.0.0","1440x900","1384x697",NA,NA,0,"Task Introduction and Instructions (re-introduce video and audio) (Clone) (Clone)",3,"FGEHDICAB","Passed AC2",NA,"Spreadsheet1","Spreadsheet1",1,"Task Instructions","Screen 4","spepx9",2,"continue","",3470.39999998212,3464.3,3470.39999998212,3470.39999998212,3464.3,3470.39999998212,1,3470.39999998212,0,0,NA,"Click To Continue","Continue Button",2,"object-9","Task Instructions",NA,"SUPPRF46523"
"4",1717681022812,"06/06/2024 13:37:02",1717684622812,1,"06/06/2024 15:37:02",180921,1,"task-8tuj",NA,38088358,11204276,NA,"complete",NA,"computer","Desktop or Laptop","Mac OS 10.15.7","Chrome 125.0.0.0","1440x900","1384x697",NA,NA,0,"Task Introduction and Instructions (re-introduce video and audio) (Clone) (Clone)",3,"FGEHDICAB","Passed AC2",NA,"Spreadsheet1","Spreadsheet1",1,"Task Instructions","Screen 2","ce2tc8",3,"continue","",42254.4999999881,42238.5,42254.4999999881,42254.4999999881,42238.5,42254.4999999881,1,42254.4999999881,0,0,NA,"Click To Continue","Continue Button",3,"object-59","Task Instructions",NA,"SUPPRF46523"
"5",1717681046625,"06/06/2024 13:37:26",1717684646625,1,"06/06/2024 15:37:26",180921,1,"task-8tuj",NA,38088358,11204276,NA,"complete",NA,"computer","Desktop or Laptop","Mac OS 10.15.7","Chrome 125.0.0.0","1440x900","1384x697",NA,NA,0,"Task Introduction and Instructions (re-introduce video and audio) (Clone) (Clone)",3,"FGEHDICAB","Passed AC2",NA,"Spreadsheet1","Spreadsheet1",1,"Task Instructions","Screen 3","1qtc8v",4,"continue","",23830.5999999821,23818.6,23830.5999999821,23830.5999999821,23818.6,23830.5999999821,1,23830.5999999821,0,0,NA,"Click To Continue","Continue Button",2,"object-2983","Task Instructions",NA,"SUPPRF46523"
"6",1717681056955,"06/06/2024 13:37:36",1717684656955,1,"06/06/2024 15:37:36",180921,1,"task-8tuj",NA,38088358,11204276,NA,"complete",NA,"computer","Desktop or Laptop","Mac OS 10.15.7","Chrome 125.0.0.0","1440x900","1384x697",NA,NA,0,"Task Introduction and Instructions (re-introduce video and audio) (Clone) (Clone)",3,"FGEHDICAB","Passed AC2",NA,"Spreadsheet1","Spreadsheet1",1,"Task Instructions","Screen 12","1a4vu2",5,"continue","",10341.9999999821,10326.5,10341.9999999821,10341.9999999821,10326.5,10341.9999999821,1,10341.9999999821,0,0,NA,"Click To Continue","Continue Button",2,"object-2466","Task Instructions",NA,"SUPPRF46523"
"7",1717681062295,"06/06/2024 13:37:42",1717684662295,1,"06/06/2024 15:37:42",180921,1,"task-8tuj",NA,38088358,11204276,NA,"complete",NA,"computer","Desktop or Laptop","Mac OS 10.15.7","Chrome 125.0.0.0","1440x900","1384x697",NA,NA,0,"Task Introduction and Instructions (re-introduce video and audio) (Clone) (Clone)",3,"FGEHDICAB","Passed AC2",NA,"Spreadsheet1","Spreadsheet1",1,"Task Instructions","Screen 13","q9vwda",6,"continue","",5355.49999998212,5345.5,5355.49999998212,5355.49999998212,5345.5,5355.49999998212,1,5355.49999998212,0,0,NA,"Click To Continue","Continue Button",2,"object-2989","Task Instructions",NA,"SUPPRF46523"
"8",1717681066782,"06/06/2024 13:37:46",1717684666782,1,"06/06/2024 15:37:46",180921,1,"task-8tuj",NA,38088358,11204276,NA,"complete",NA,"computer","Desktop or Laptop","Mac OS 10.15.7","Chrome 125.0.0.0","1440x900","1384x697",NA,NA,0,"Task Introduction and Instructions (re-introduce video and audio) (Clone) (Clone)",3,"FGEHDICAB","Passed AC2",NA,"Spreadsheet1","Spreadsheet1",1,"Task Instructions","Screen 11","oyulb7",7,"continue","",4496.2,4480.39999999999,4496.2,4496.2,4480.39999999999,4496.2,1,4496.2,0,0,NA,"Click To Continue","Continue Button",2,"object-52","Task Instructions",NA,"SUPPRF46523"
"9",1717681069504,"06/06/2024 13:37:49",1717684669504,1,"06/06/2024 15:37:49",180921,1,"task-8tuj",NA,38088358,11204276,NA,"complete",NA,"computer","Desktop or Laptop","Mac OS 10.15.7","Chrome 125.0.0.0","1440x900","1384x697",NA,NA,0,"Task Introduction and Instructions (re-introduce video and audio) (Clone) (Clone)",3,"FGEHDICAB","Passed AC2",NA,"Spreadsheet1","Spreadsheet1",1,"Task Instructions","Screen 5","8nvnao",8,"continue","",2738.89999999404,2731.8,2738.89999999404,2738.89999999404,2731.8,2738.89999999404,1,2738.89999999404,0,0,NA,"Click To Continue","Continue Button",2,"object-44","Task Instructions",NA,"SUPPRF46523"
"10",1717681069509,"06/06/2024 13:37:49",1717684669509,1,"06/06/2024 15:37:49",180921,1,"task-8tuj",NA,38088358,11204276,NA,"complete",NA,"computer","Desktop or Laptop","Mac OS 10.15.7","Chrome 125.0.0.0","1440x900","1384x697",NA,NA,0,"Task Introduction and Instructions (re-introduce video and audio) (Clone) (Clone)",3,"FGEHDICAB","Passed AC2",NA,"Spreadsheet1","Spreadsheet1",NA,"","","",NA,"info","END",NA,NA,NA,NA,NA,NA,0,NA,NA,NA,NA,"","",NA,"","",NA,"SUPPRF46523"
"1",1717681468892,"06/06/2024 13:44:28",1717685068892,1,"06/06/2024 15:44:28",180921,1,"task-8tuj",NA,38088555,11204291,NA,"complete",NA,"computer","Desktop or Laptop","Mac OS 10.15.7","Chrome 125.0.0.0","1470x956","1452x709",NA,NA,0,"Task Introduction and Instructions (re-introduce video and audio) (Clone) (Clone)",3,"GHFIEADBC","Passed AC2",NA,"Spreadsheet1","Spreadsheet1",NA,"","","",NA,"info","BEGIN",NA,NA,NA,NA,NA,NA,0,NA,NA,NA,NA,"","",NA,"","",NA,"SUPPRF53261"
"2",1717681473497,"06/06/2024 13:44:33",1717685073497,1,"06/06/2024 15:44:33",180921,1,"task-8tuj",NA,38088555,11204291,NA,"complete",NA,"computer","Desktop or Laptop","Mac OS 10.15.7","Chrome 125.0.0.0","1470x956","1452x709",NA,NA,0,"Task Introduction and Instructions (re-introduce video and audio) (Clone) (Clone)",3,"GHFIEADBC","Passed AC2",NA,"Spreadsheet1","Spreadsheet1",1,"Task Instructions","Screen 1","anr7sn",1,"continue","",4371.0999997139,4366.6,4371.0999997139,4371.0999997139,4366.6,4371.0999997139,1,4371.0999997139,0,0,NA,"Click To Continue","Continue Button",3,"object-60","Task Instructions",NA,"SUPPRF53261"
"3",1717681476880,"06/06/2024 13:44:36",1717685076880,1,"06/06/2024 15:44:36",180921,1,"task-8tuj",NA,38088555,11204291,NA,"complete",NA,"computer","Desktop or Laptop","Mac OS 10.15.7","Chrome 125.0.0.0","1470x956","1452x709",NA,NA,0,"Task Introduction and Instructions (re-introduce video and audio) (Clone) (Clone)",3,"GHFIEADBC","Passed AC2",NA,"Spreadsheet1","Spreadsheet1",1,"Task Instructions","Screen 4","spepx9",2,"continue","",3387.9999997139,3383.5,3387.9999997139,3387.9999997139,3383.5,3387.9999997139,1,3387.9999997139,0,0,NA,"Click To Continue","Continue Button",2,"object-9","Task Instructions",NA,"SUPPRF53261"
"4",1717681488214,"06/06/2024 13:44:48",1717685088214,1,"06/06/2024 15:44:48",180921,1,"task-8tuj",NA,38088555,11204291,NA,"complete",NA,"computer","Desktop or Laptop","Mac OS 10.15.7","Chrome 125.0.0.0","1470x956","1452x709",NA,NA,0,"Task Introduction and Instructions (re-introduce video and audio) (Clone) (Clone)",3,"GHFIEADBC","Passed AC2",NA,"Spreadsheet1","Spreadsheet1",1,"Task Instructions","Screen 2","ce2tc8",3,"continue","",11338.8999998093,11333.3,11338.8999998093,11338.8999998093,11333.3,11338.8999998093,1,11338.8999998093,0,0,NA,"Click To Continue","Continue Button",3,"object-59","Task Instructions",NA,"SUPPRF53261"
"5",1717681503977,"06/06/2024 13:45:03",1717685103977,1,"06/06/2024 15:45:03",180921,1,"task-8tuj",NA,38088555,11204291,NA,"complete",NA,"computer","Desktop or Laptop","Mac OS 10.15.7","Chrome 125.0.0.0","1470x956","1452x709",NA,NA,0,"Task Introduction and Instructions (re-introduce video and audio) (Clone) (Clone)",3,"GHFIEADBC","Passed AC2",NA,"Spreadsheet1","Spreadsheet1",1,"Task Instructions","Screen 3","1qtc8v",4,"continue","",15768.9999999046,15766.5,15768.9999999046,15768.9999999046,15766.5,15768.9999999046,1,15768.9999999046,0,0,NA,"Click To Continue","Continue Button",2,"object-2983","Task Instructions",NA,"SUPPRF53261"
"6",1717681517389,"06/06/2024 13:45:17",1717685117389,1,"06/06/2024 15:45:17",180921,1,"task-8tuj",NA,38088555,11204291,NA,"complete",NA,"computer","Desktop or Laptop","Mac OS 10.15.7","Chrome 125.0.0.0","1470x956","1452x709",NA,NA,0,"Task Introduction and Instructions (re-introduce video and audio) (Clone) (Clone)",3,"GHFIEADBC","Passed AC2",NA,"Spreadsheet1","Spreadsheet1",1,"Task Instructions","Screen 12","1a4vu2",5,"continue","",13414.4999999046,13400.1,13414.4999999046,13414.4999999046,13400.1,13414.4999999046,1,13414.4999999046,0,0,NA,"Click To Continue","Continue Button",2,"object-2466","Task Instructions",NA,"SUPPRF53261"
"7",1717681522165,"06/06/2024 13:45:22",1717685122165,1,"06/06/2024 15:45:22",180921,1,"task-8tuj",NA,38088555,11204291,NA,"complete",NA,"computer","Desktop or Laptop","Mac OS 10.15.7","Chrome 125.0.0.0","1470x956","1452x709",NA,NA,0,"Task Introduction and Instructions (re-introduce video and audio) (Clone) (Clone)",3,"GHFIEADBC","Passed AC2",NA,"Spreadsheet1","Spreadsheet1",1,"Task Instructions","Screen 13","q9vwda",6,"continue","",4790.69999961853,4782.8,4790.69999961853,4790.69999961853,4782.8,4790.69999961853,1,4790.69999961853,0,0,NA,"Click To Continue","Continue Button",2,"object-2989","Task Instructions",NA,"SUPPRF53261"
"8",1717681525225,"06/06/2024 13:45:25",1717685125225,1,"06/06/2024 15:45:25",180921,1,"task-8tuj",NA,38088555,11204291,NA,"complete",NA,"computer","Desktop or Laptop","Mac OS 10.15.7","Chrome 125.0.0.0","1470x956","1452x709",NA,NA,0,"Task Introduction and Instructions (re-introduce video and audio) (Clone) (Clone)",3,"GHFIEADBC","Passed AC2",NA,"Spreadsheet1","Spreadsheet1",1,"Task Instructions","Screen 11","oyulb7",7,"continue","",3067.1,3050.5,3067.1,3067.1,3050.5,3067.1,1,3067.1,0,0,NA,"Click To Continue","Continue Button",2,"object-52","Task Instructions",NA,"SUPPRF53261"
"9",1717681528285,"06/06/2024 13:45:28",1717685128285,1,"06/06/2024 15:45:28",180921,1,"task-8tuj",NA,38088555,11204291,NA,"complete",NA,"computer","Desktop or Laptop","Mac OS 10.15.7","Chrome 125.0.0.0","1470x956","1452x709",NA,NA,0,"Task Introduction and Instructions (re-introduce video and audio) (Clone) (Clone)",3,"GHFIEADBC","Passed AC2",NA,"Spreadsheet1","Spreadsheet1",1,"Task Instructions","Screen 5","8nvnao",8,"continue","",3076.7999997139,3066.6,3076.7999997139,3076.7999997139,3066.6,3076.7999997139,1,3076.7999997139,0,0,NA,"Click To Continue","Continue Button",2,"object-44","Task Instructions",NA,"SUPPRF53261"
"10",1717681528290,"06/06/2024 13:45:28",1717685128290,1,"06/06/2024 15:45:28",180921,1,"task-8tuj",NA,38088555,11204291,NA,"complete",NA,"computer","Desktop or Laptop","Mac OS 10.15.7","Chrome 125.0.0.0","1470x956","1452x709",NA,NA,0,"Task Introduction and Instructions (re-introduce video and audio) (Clone) (Clone)",3,"GHFIEADBC","Passed AC2",NA,"Spreadsheet1","Spreadsheet1",NA,"","","",NA,"info","END",NA,NA,NA,NA,NA,NA,0,NA,NA,NA,NA,"","",NA,"","",NA,"SUPPRF53261"
"1",1717681961085,"06/06/2024 13:52:41",1717685561085,1,"06/06/2024 15:52:41",180921,1,"task-8tuj",NA,38088762,11204341,NA,"complete",NA,"computer","Desktop or Laptop","Mac OS 10.15.7","Chrome 125.0.0.0","1440x900","1440x779",NA,NA,0,"Task Introduction and Instructions (re-introduce video and audio) (Clone) (Clone)",3,"HIGAFBECD","Passed AC2",NA,"Spreadsheet1","Spreadsheet1",NA,"","","",NA,"info","BEGIN",NA,NA,NA,NA,NA,NA,0,NA,NA,NA,NA,"","",NA,"","",NA,"SUPPRF02576"
"2",1717681968747,"06/06/2024 13:52:48",1717685568747,1,"06/06/2024 15:52:48",180921,1,"task-8tuj",NA,38088762,11204341,NA,"complete",NA,"computer","Desktop or Laptop","Mac OS 10.15.7","Chrome 125.0.0.0","1440x900","1440x779",NA,NA,0,"Task Introduction and Instructions (re-introduce video and audio) (Clone) (Clone)",3,"HIGAFBECD","Passed AC2",NA,"Spreadsheet1","Spreadsheet1",1,"Task Instructions","Screen 1","anr7sn",1,"continue","",7554.80000000112,7545.1,7554.80000000112,7554.80000000112,7545.1,7554.80000000112,1,7554.80000000112,0,0,NA,"Click To Continue","Continue Button",3,"object-60","Task Instructions",NA,"SUPPRF02576"
"3",1717681971467,"06/06/2024 13:52:51",1717685571467,1,"06/06/2024 15:52:51",180921,1,"task-8tuj",NA,38088762,11204341,NA,"complete",NA,"computer","Desktop or Laptop","Mac OS 10.15.7","Chrome 125.0.0.0","1440x900","1440x779",NA,NA,0,"Task Introduction and Instructions (re-introduce video and audio) (Clone) (Clone)",3,"HIGAFBECD","Passed AC2",NA,"Spreadsheet1","Spreadsheet1",1,"Task Instructions","Screen 4","spepx9",2,"continue","",2729.90000000037,2713.7,2729.90000000037,2729.90000000037,2713.7,2729.90000000037,1,2729.90000000037,0,0,NA,"Click To Continue","Continue Button",2,"object-9","Task Instructions",NA,"SUPPRF02576"
"4",1717681992669,"06/06/2024 13:53:12",1717685592669,1,"06/06/2024 15:53:12",180921,1,"task-8tuj",NA,38088762,11204341,NA,"complete",NA,"computer","Desktop or Laptop","Mac OS 10.15.7","Chrome 125.0.0.0","1440x900","1440x779",NA,NA,0,"Task Introduction and Instructions (re-introduce video and audio) (Clone) (Clone)",3,"HIGAFBECD","Passed AC2",NA,"Spreadsheet1","Spreadsheet1",1,"Task Instructions","Screen 2","ce2tc8",3,"continue","",21219.3999999996,21203.1,21219.3999999996,21219.3999999996,21203.1,21219.3999999996,1,21219.3999999996,0,0,NA,"Click To Continue","Continue Button",3,"object-59","Task Instructions",NA,"SUPPRF02576"
"5",1717682014728,"06/06/2024 13:53:34",1717685614728,1,"06/06/2024 15:53:34",180921,1,"task-8tuj",NA,38088762,11204341,NA,"complete",NA,"computer","Desktop or Laptop","Mac OS 10.15.7","Chrome 125.0.0.0","1440x900","1440x779",NA,NA,0,"Task Introduction and Instructions (re-introduce video and audio) (Clone) (Clone)",3,"HIGAFBECD","Passed AC2",NA,"Spreadsheet1","Spreadsheet1",1,"Task Instructions","Screen 3","1qtc8v",4,"continue","",22076.4000000011,22068.3,22076.4000000011,22076.4000000011,22068.3,22076.4000000011,1,22076.4000000011,0,0,NA,"Click To Continue","Continue Button",2,"object-2983","Task Instructions",NA,"SUPPRF02576"
"6",1717682021832,"06/06/2024 13:53:41",1717685621832,1,"06/06/2024 15:53:41",180921,1,"task-8tuj",NA,38088762,11204341,NA,"complete",NA,"computer","Desktop or Laptop","Mac OS 10.15.7","Chrome 125.0.0.0","1440x900","1440x779",NA,NA,0,"Task Introduction and Instructions (re-introduce video and audio) (Clone) (Clone)",3,"HIGAFBECD","Passed AC2",NA,"Spreadsheet1","Spreadsheet1",1,"Task Instructions","Screen 12","1a4vu2",5,"continue","",7111.10000000001,7095.3,7111.10000000001,7111.10000000001,7095.3,7111.10000000001,1,7111.10000000001,0,0,NA,"Click To Continue","Continue Button",2,"object-2466","Task Instructions",NA,"SUPPRF02576"
"7",1717682027556,"06/06/2024 13:53:47",1717685627556,1,"06/06/2024 15:53:47",180921,1,"task-8tuj",NA,38088762,11204341,NA,"complete",NA,"computer","Desktop or Laptop","Mac OS 10.15.7","Chrome 125.0.0.0","1440x900","1440x779",NA,NA,0,"Task Introduction and Instructions (re-introduce video and audio) (Clone) (Clone)",3,"HIGAFBECD","Passed AC2",NA,"Spreadsheet1","Spreadsheet1",1,"Task Instructions","Screen 13","q9vwda",6,"continue","",5741.40000000074,5730.49999999999,5741.40000000074,5741.40000000074,5730.49999999999,5741.40000000074,1,5741.40000000074,0,0,NA,"Click To Continue","Continue Button",2,"object-2989","Task Instructions",NA,"SUPPRF02576"
"8",1717682033171,"06/06/2024 13:53:53",1717685633171,1,"06/06/2024 15:53:53",180921,1,"task-8tuj",NA,38088762,11204341,NA,"complete",NA,"computer","Desktop or Laptop","Mac OS 10.15.7","Chrome 125.0.0.0","1440x900","1440x779",NA,NA,0,"Task Introduction and Instructions (re-introduce video and audio) (Clone) (Clone)",3,"HIGAFBECD","Passed AC2",NA,"Spreadsheet1","Spreadsheet1",1,"Task Instructions","Screen 11","oyulb7",7,"continue","",5626.10000000001,5612.8,5626.10000000001,5626.10000000001,5612.8,5626.10000000001,1,5626.10000000001,0,0,NA,"Click To Continue","Continue Button",2,"object-52","Task Instructions",NA,"SUPPRF02576"
"9",1717682036286,"06/06/2024 13:53:56",1717685636286,1,"06/06/2024 15:53:56",180921,1,"task-8tuj",NA,38088762,11204341,NA,"complete",NA,"computer","Desktop or Laptop","Mac OS 10.15.7","Chrome 125.0.0.0","1440x900","1440x779",NA,NA,0,"Task Introduction and Instructions (re-introduce video and audio) (Clone) (Clone)",3,"HIGAFBECD","Passed AC2",NA,"Spreadsheet1","Spreadsheet1",1,"Task Instructions","Screen 5","8nvnao",8,"continue","",3128.10000000075,3114.8,3128.10000000075,3128.10000000075,3114.8,3128.10000000075,1,3128.10000000075,0,0,NA,"Click To Continue","Continue Button",2,"object-44","Task Instructions",NA,"SUPPRF02576"
"10",1717682036288,"06/06/2024 13:53:56",1717685636288,1,"06/06/2024 15:53:56",180921,1,"task-8tuj",NA,38088762,11204341,NA,"complete",NA,"computer","Desktop or Laptop","Mac OS 10.15.7","Chrome 125.0.0.0","1440x900","1440x779",NA,NA,0,"Task Introduction and Instructions (re-introduce video and audio) (Clone) (Clone)",3,"HIGAFBECD","Passed AC2",NA,"Spreadsheet1","Spreadsheet1",NA,"","","",NA,"info","END",NA,NA,NA,NA,NA,NA,0,NA,NA,NA,NA,"","",NA,"","",NA,"SUPPRF02576"
"1",1717681777507,"06/06/2024 13:49:37",1717685377507,1,"06/06/2024 15:49:37",180921,1,"task-8tuj",NA,38088677,11204370,NA,"complete",NA,"computer","Desktop or Laptop","Windows 10","Chrome 125.0.0.0","1280x720","1280x559",NA,NA,0,"Task Introduction and Instructions (re-introduce video and audio) (Clone) (Clone)",3,"ABICHDGEF","Passed AC2",NA,"Spreadsheet1","Spreadsheet1",NA,"","","",NA,"info","BEGIN",NA,NA,NA,NA,NA,NA,0,NA,NA,NA,NA,"","",NA,"","",NA,"SUPPRF02661"
"2",1717681785246,"06/06/2024 13:49:45",1717685385246,1,"06/06/2024 15:49:45",180921,1,"task-8tuj",NA,38088677,11204370,NA,"complete",NA,"computer","Desktop or Laptop","Windows 10","Chrome 125.0.0.0","1280x720","1280x559",NA,NA,0,"Task Introduction and Instructions (re-introduce video and audio) (Clone) (Clone)",3,"ABICHDGEF","Passed AC2",NA,"Spreadsheet1","Spreadsheet1",1,"Task Instructions","Screen 1","anr7sn",1,"continue","",7593.2,7576.6,7593.2,7593.2,7576.6,7593.2,1,7593.2,0,0,NA,"Click To Continue","Continue Button",3,"object-60","Task Instructions",NA,"SUPPRF02661"
"3",1717681798631,"06/06/2024 13:49:58",1717685398631,1,"06/06/2024 15:49:58",180921,1,"task-8tuj",NA,38088677,11204370,NA,"complete",NA,"computer","Desktop or Laptop","Windows 10","Chrome 125.0.0.0","1280x720","1280x559",NA,NA,0,"Task Introduction and Instructions (re-introduce video and audio) (Clone) (Clone)",3,"ABICHDGEF","Passed AC2",NA,"Spreadsheet1","Spreadsheet1",1,"Task Instructions","Screen 4","spepx9",2,"continue","",13389.4,13372.7,13389.4,13389.4,13372.7,13389.4,1,13389.4,0,0,NA,"Click To Continue","Continue Button",2,"object-9","Task Instructions",NA,"SUPPRF02661"
"4",1717681808775,"06/06/2024 13:50:08",1717685408775,1,"06/06/2024 15:50:08",180921,1,"task-8tuj",NA,38088677,11204370,NA,"complete",NA,"computer","Desktop or Laptop","Windows 10","Chrome 125.0.0.0","1280x720","1280x559",NA,NA,0,"Task Introduction and Instructions (re-introduce video and audio) (Clone) (Clone)",3,"ABICHDGEF","Passed AC2",NA,"Spreadsheet1","Spreadsheet1",1,"Task Instructions","Screen 2","ce2tc8",3,"continue","",10174.4,10158.3,10174.4,10174.4,10158.3,10174.4,1,10174.4,0,0,NA,"Click To Continue","Continue Button",3,"object-59","Task Instructions",NA,"SUPPRF02661"
"5",1717681823725,"06/06/2024 13:50:23",1717685423725,1,"06/06/2024 15:50:23",180921,1,"task-8tuj",NA,38088677,11204370,NA,"complete",NA,"computer","Desktop or Laptop","Windows 10","Chrome 125.0.0.0","1280x720","1280x559",NA,NA,0,"Task Introduction and Instructions (re-introduce video and audio) (Clone) (Clone)",3,"ABICHDGEF","Passed AC2",NA,"Spreadsheet1","Spreadsheet1",1,"Task Instructions","Screen 3","1qtc8v",4,"continue","",14966.1,14954,14966.1,14966.1,14954,14966.1,1,14966.1,0,0,NA,"Click To Continue","Continue Button",2,"object-2983","Task Instructions",NA,"SUPPRF02661"
"6",1717681840527,"06/06/2024 13:50:40",1717685440527,1,"06/06/2024 15:50:40",180921,1,"task-8tuj",NA,38088677,11204370,NA,"complete",NA,"computer","Desktop or Laptop","Windows 10","Chrome 125.0.0.0","1280x720","1280x559",NA,NA,0,"Task Introduction and Instructions (re-introduce video and audio) (Clone) (Clone)",3,"ABICHDGEF","Passed AC2",NA,"Spreadsheet1","Spreadsheet1",1,"Task Instructions","Screen 12","1a4vu2",5,"continue","",16813.8999999821,16803.2,16813.8999999821,16813.8999999821,16803.2,16813.8999999821,1,16813.8999999821,0,0,NA,"Click To Continue","Continue Button",2,"object-2466","Task Instructions",NA,"SUPPRF02661"
"7",1717681845844,"06/06/2024 13:50:45",1717685445844,1,"06/06/2024 15:50:45",180921,1,"task-8tuj",NA,38088677,11204370,NA,"complete",NA,"computer","Desktop or Laptop","Windows 10","Chrome 125.0.0.0","1280x720","1280x559",NA,NA,0,"Task Introduction and Instructions (re-introduce video and audio) (Clone) (Clone)",3,"ABICHDGEF","Passed AC2",NA,"Spreadsheet1","Spreadsheet1",1,"Task Instructions","Screen 13","q9vwda",6,"continue","",5327.80000000596,5311.9,5327.80000000596,5327.80000000596,5311.9,5327.80000000596,1,5327.80000000596,0,0,NA,"Click To Continue","Continue Button",2,"object-2989","Task Instructions",NA,"SUPPRF02661"
"8",1717681852471,"06/06/2024 13:50:52",1717685452471,1,"06/06/2024 15:50:52",180921,1,"task-8tuj",NA,38088677,11204370,NA,"complete",NA,"computer","Desktop or Laptop","Windows 10","Chrome 125.0.0.0","1280x720","1280x559",NA,NA,0,"Task Introduction and Instructions (re-introduce video and audio) (Clone) (Clone)",3,"ABICHDGEF","Passed AC2",NA,"Spreadsheet1","Spreadsheet1",1,"Task Instructions","Screen 11","oyulb7",7,"continue","",6642.90000000596,6627.89999999999,6642.90000000596,6642.90000000596,6627.89999999999,6642.90000000596,1,6642.90000000596,0,0,NA,"Click To Continue","Continue Button",2,"object-52","Task Instructions",NA,"SUPPRF02661"
"9",1717681855613,"06/06/2024 13:50:55",1717685455613,1,"06/06/2024 15:50:55",180921,1,"task-8tuj",NA,38088677,11204370,NA,"complete",NA,"computer","Desktop or Laptop","Windows 10","Chrome 125.0.0.0","1280x720","1280x559",NA,NA,0,"Task Introduction and Instructions (re-introduce video and audio) (Clone) (Clone)",3,"ABICHDGEF","Passed AC2",NA,"Spreadsheet1","Spreadsheet1",1,"Task Instructions","Screen 5","8nvnao",8,"continue","",3157.00000000597,3147.40000000001,3157.00000000597,3157.00000000597,3147.40000000001,3157.00000000597,1,3157.00000000597,0,0,NA,"Click To Continue","Continue Button",2,"object-44","Task Instructions",NA,"SUPPRF02661"
"10",1717681855617,"06/06/2024 13:50:55",1717685455617,1,"06/06/2024 15:50:55",180921,1,"task-8tuj",NA,38088677,11204370,NA,"complete",NA,"computer","Desktop or Laptop","Windows 10","Chrome 125.0.0.0","1280x720","1280x559",NA,NA,0,"Task Introduction and Instructions (re-introduce video and audio) (Clone) (Clone)",3,"ABICHDGEF","Passed AC2",NA,"Spreadsheet1","Spreadsheet1",NA,"","","",NA,"info","END",NA,NA,NA,NA,NA,NA,0,NA,NA,NA,NA,"","",NA,"","",NA,"SUPPRF02661"
"1",1717682071703,"06/06/2024 13:54:31",1717685671703,1,"06/06/2024 15:54:31",180921,1,"task-8tuj",NA,38088807,11204378,NA,"complete",NA,"computer","Desktop or Laptop","Mac OS 10.15.7","Chrome 124.0.0.0","1728x1117","1728x993",NA,NA,0,"Task Introduction and Instructions (re-introduce video and audio) (Clone) (Clone)",3,"CDBEAFIGH","Passed AC2",NA,"Spreadsheet1","Spreadsheet1",NA,"","","",NA,"info","BEGIN",NA,NA,NA,NA,NA,NA,0,NA,NA,NA,NA,"","",NA,"","",NA,"SUPPRF32225"
"2",1717682076089,"06/06/2024 13:54:36",1717685676089,1,"06/06/2024 15:54:36",180921,1,"task-8tuj",NA,38088807,11204378,NA,"complete",NA,"computer","Desktop or Laptop","Mac OS 10.15.7","Chrome 124.0.0.0","1728x1117","1728x993",NA,NA,0,"Task Introduction and Instructions (re-introduce video and audio) (Clone) (Clone)",3,"CDBEAFIGH","Passed AC2",NA,"Spreadsheet1","Spreadsheet1",1,"Task Instructions","Screen 1","anr7sn",1,"continue","",3654.9,3653.1,3654.9,3654.9,3653.1,3654.9,1,3654.9,0,0,NA,"Click To Continue","Continue Button",3,"object-60","Task Instructions",NA,"SUPPRF32225"
"3",1717682078699,"06/06/2024 13:54:38",1717685678699,1,"06/06/2024 15:54:38",180921,1,"task-8tuj",NA,38088807,11204378,NA,"complete",NA,"computer","Desktop or Laptop","Mac OS 10.15.7","Chrome 124.0.0.0","1728x1117","1728x993",NA,NA,0,"Task Introduction and Instructions (re-introduce video and audio) (Clone) (Clone)",3,"CDBEAFIGH","Passed AC2",NA,"Spreadsheet1","Spreadsheet1",1,"Task Instructions","Screen 4","spepx9",2,"continue","",2611.4,2577.4,2611.4,2611.4,2577.4,2611.4,1,2611.4,0,0,NA,"Click To Continue","Continue Button",2,"object-9","Task Instructions",NA,"SUPPRF32225"
"4",1717682095094,"06/06/2024 13:54:55",1717685695094,1,"06/06/2024 15:54:55",180921,1,"task-8tuj",NA,38088807,11204378,NA,"complete",NA,"computer","Desktop or Laptop","Mac OS 10.15.7","Chrome 124.0.0.0","1728x1117","1728x993",NA,NA,0,"Task Introduction and Instructions (re-introduce video and audio) (Clone) (Clone)",3,"CDBEAFIGH","Passed AC2",NA,"Spreadsheet1","Spreadsheet1",1,"Task Instructions","Screen 2","ce2tc8",3,"continue","",16429.2000000715,16412.7,16429.2000000715,16429.2000000715,16412.7,16429.2000000715,1,16429.2000000715,0,0,NA,"Click To Continue","Continue Button",3,"object-59","Task Instructions",NA,"SUPPRF32225"
"5",1717682149786,"06/06/2024 13:55:49",1717685749786,1,"06/06/2024 15:55:49",180921,1,"task-8tuj",NA,38088807,11204378,NA,"complete",NA,"computer","Desktop or Laptop","Mac OS 10.15.7","Chrome 124.0.0.0","1728x1117","1728x993",NA,NA,0,"Task Introduction and Instructions (re-introduce video and audio) (Clone) (Clone)",3,"CDBEAFIGH","Passed AC2",NA,"Spreadsheet1","Spreadsheet1",1,"Task Instructions","Screen 3","1qtc8v",4,"continue","",54708.3000000238,54700.5,54708.3000000238,54708.3000000238,54700.5,54708.3000000238,1,54708.3000000238,0,0,NA,"Click To Continue","Continue Button",2,"object-2983","Task Instructions",NA,"SUPPRF32225"
"6",1717682161659,"06/06/2024 13:56:01",1717685761659,1,"06/06/2024 15:56:01",180921,1,"task-8tuj",NA,38088807,11204378,NA,"complete",NA,"computer","Desktop or Laptop","Mac OS 10.15.7","Chrome 124.0.0.0","1728x1117","1728x993",NA,NA,0,"Task Introduction and Instructions (re-introduce video and audio) (Clone) (Clone)",3,"CDBEAFIGH","Passed AC2",NA,"Spreadsheet1","Spreadsheet1",1,"Task Instructions","Screen 12","1a4vu2",5,"continue","",11881.2,11873.4,11881.2,11881.2,11873.4,11881.2,1,11881.2,0,0,NA,"Click To Continue","Continue Button",2,"object-2466","Task Instructions",NA,"SUPPRF32225"
"7",1717682167258,"06/06/2024 13:56:07",1717685767258,1,"06/06/2024 15:56:07",180921,1,"task-8tuj",NA,38088807,11204378,NA,"complete",NA,"computer","Desktop or Laptop","Mac OS 10.15.7","Chrome 124.0.0.0","1728x1117","1728x993",NA,NA,0,"Task Introduction and Instructions (re-introduce video and audio) (Clone) (Clone)",3,"CDBEAFIGH","Passed AC2",NA,"Spreadsheet1","Spreadsheet1",1,"Task Instructions","Screen 13","q9vwda",6,"continue","",5605.90000002384,5585.5,5605.90000002384,5605.90000002384,5585.5,5605.90000002384,1,5605.90000002384,0,0,NA,"Click To Continue","Continue Button",2,"object-2989","Task Instructions",NA,"SUPPRF32225"
"8",1717682171847,"06/06/2024 13:56:11",1717685771847,1,"06/06/2024 15:56:11",180921,1,"task-8tuj",NA,38088807,11204378,NA,"complete",NA,"computer","Desktop or Laptop","Mac OS 10.15.7","Chrome 124.0.0.0","1728x1117","1728x993",NA,NA,0,"Task Introduction and Instructions (re-introduce video and audio) (Clone) (Clone)",3,"CDBEAFIGH","Passed AC2",NA,"Spreadsheet1","Spreadsheet1",1,"Task Instructions","Screen 11","oyulb7",7,"continue","",4609.90000002384,4593.5,4609.90000002384,4609.90000002384,4593.5,4609.90000002384,1,4609.90000002384,0,0,NA,"Click To Continue","Continue Button",2,"object-52","Task Instructions",NA,"SUPPRF32225"
"9",1717682174900,"06/06/2024 13:56:14",1717685774900,1,"06/06/2024 15:56:14",180921,1,"task-8tuj",NA,38088807,11204378,NA,"complete",NA,"computer","Desktop or Laptop","Mac OS 10.15.7","Chrome 124.0.0.0","1728x1117","1728x993",NA,NA,0,"Task Introduction and Instructions (re-introduce video and audio) (Clone) (Clone)",3,"CDBEAFIGH","Passed AC2",NA,"Spreadsheet1","Spreadsheet1",1,"Task Instructions","Screen 5","8nvnao",8,"continue","",3068.90000002384,3045.7,3068.90000002384,3068.90000002384,3045.7,3068.90000002384,1,3068.90000002384,0,0,NA,"Click To Continue","Continue Button",2,"object-44","Task Instructions",NA,"SUPPRF32225"
"10",1717682174901,"06/06/2024 13:56:14",1717685774901,1,"06/06/2024 15:56:14",180921,1,"task-8tuj",NA,38088807,11204378,NA,"complete",NA,"computer","Desktop or Laptop","Mac OS 10.15.7","Chrome 124.0.0.0","1728x1117","1728x993",NA,NA,0,"Task Introduction and Instructions (re-introduce video and audio) (Clone) (Clone)",3,"CDBEAFIGH","Passed AC2",NA,"Spreadsheet1","Spreadsheet1",NA,"","","",NA,"info","END",NA,NA,NA,NA,NA,NA,0,NA,NA,NA,NA,"","",NA,"","",NA,"SUPPRF32225"
"1",1717682249933,"06/06/2024 13:57:29",1717685849933,1,"06/06/2024 15:57:29",180921,1,"task-8tuj",NA,38088905,11204417,NA,"complete",NA,"computer","Desktop or Laptop","Windows 10","Chrome 125.0.0.0","1536x864","1536x695",NA,NA,0,"Task Introduction and Instructions (re-introduce video and audio) (Clone) (Clone)",3,"EFDGCHBIA","Passed AC2",NA,"Spreadsheet1","Spreadsheet1",NA,"","","",NA,"info","BEGIN",NA,NA,NA,NA,NA,NA,0,NA,NA,NA,NA,"","",NA,"","",NA,"SUPPRF49978"
"2",1717682253546,"06/06/2024 13:57:33",1717685853546,1,"06/06/2024 15:57:33",180921,1,"task-8tuj",NA,38088905,11204417,NA,"complete",NA,"computer","Desktop or Laptop","Windows 10","Chrome 125.0.0.0","1536x864","1536x695",NA,NA,0,"Task Introduction and Instructions (re-introduce video and audio) (Clone) (Clone)",3,"EFDGCHBIA","Passed AC2",NA,"Spreadsheet1","Spreadsheet1",1,"Task Instructions","Screen 1","anr7sn",1,"continue","",3524.70000002384,3513.1,3524.70000002384,3524.70000002384,3513.1,3524.70000002384,1,3524.70000002384,0,0,NA,"Click To Continue","Continue Button",3,"object-60","Task Instructions",NA,"SUPPRF49978"
"3",1717682256410,"06/06/2024 13:57:36",1717685856410,1,"06/06/2024 15:57:36",180921,1,"task-8tuj",NA,38088905,11204417,NA,"complete",NA,"computer","Desktop or Laptop","Windows 10","Chrome 125.0.0.0","1536x864","1536x695",NA,NA,0,"Task Introduction and Instructions (re-introduce video and audio) (Clone) (Clone)",3,"EFDGCHBIA","Passed AC2",NA,"Spreadsheet1","Spreadsheet1",1,"Task Instructions","Screen 4","spepx9",2,"continue","",2876.60000002384,2864.2,2876.60000002384,2876.60000002384,2864.2,2876.60000002384,1,2876.60000002384,0,0,NA,"Click To Continue","Continue Button",2,"object-9","Task Instructions",NA,"SUPPRF49978"
"4",1717682265953,"06/06/2024 13:57:45",1717685865953,1,"06/06/2024 15:57:45",180921,1,"task-8tuj",NA,38088905,11204417,NA,"complete",NA,"computer","Desktop or Laptop","Windows 10","Chrome 125.0.0.0","1536x864","1536x695",NA,NA,0,"Task Introduction and Instructions (re-introduce video and audio) (Clone) (Clone)",3,"EFDGCHBIA","Passed AC2",NA,"Spreadsheet1","Spreadsheet1",1,"Task Instructions","Screen 2","ce2tc8",3,"continue","",9554.90000002384,9541,9554.90000002384,9554.90000002384,9541,9554.90000002384,1,9554.90000002384,0,0,NA,"Click To Continue","Continue Button",3,"object-59","Task Instructions",NA,"SUPPRF49978"
"5",1717682274403,"06/06/2024 13:57:54",1717685874403,1,"06/06/2024 15:57:54",180921,1,"task-8tuj",NA,38088905,11204417,NA,"complete",NA,"computer","Desktop or Laptop","Windows 10","Chrome 125.0.0.0","1536x864","1536x695",NA,NA,0,"Task Introduction and Instructions (re-introduce video and audio) (Clone) (Clone)",3,"EFDGCHBIA","Passed AC2",NA,"Spreadsheet1","Spreadsheet1",1,"Task Instructions","Screen 3","1qtc8v",4,"continue","",8463.70000009537,8458.8,8463.70000009537,8463.70000009537,8458.8,8463.70000009537,1,8463.70000009537,0,0,NA,"Click To Continue","Continue Button",2,"object-2983","Task Instructions",NA,"SUPPRF49978"
"6",1717682281901,"06/06/2024 13:58:01",1717685881901,1,"06/06/2024 15:58:01",180921,1,"task-8tuj",NA,38088905,11204417,NA,"complete",NA,"computer","Desktop or Laptop","Windows 10","Chrome 125.0.0.0","1536x864","1536x695",NA,NA,0,"Task Introduction and Instructions (re-introduce video and audio) (Clone) (Clone)",3,"EFDGCHBIA","Passed AC2",NA,"Spreadsheet1","Spreadsheet1",1,"Task Instructions","Screen 12","1a4vu2",5,"continue","",7502.90000009537,7492.9,7502.90000009537,7502.90000009537,7492.9,7502.90000009537,1,7502.90000009537,0,0,NA,"Click To Continue","Continue Button",2,"object-2466","Task Instructions",NA,"SUPPRF49978"
"7",1717682287821,"06/06/2024 13:58:07",1717685887821,1,"06/06/2024 15:58:07",180921,1,"task-8tuj",NA,38088905,11204417,NA,"complete",NA,"computer","Desktop or Laptop","Windows 10","Chrome 125.0.0.0","1536x864","1536x695",NA,NA,0,"Task Introduction and Instructions (re-introduce video and audio) (Clone) (Clone)",3,"EFDGCHBIA","Passed AC2",NA,"Spreadsheet1","Spreadsheet1",1,"Task Instructions","Screen 13","q9vwda",6,"continue","",5927.5,5911.1,5927.5,5927.5,5911.1,5927.5,1,5927.5,0,0,NA,"Click To Continue","Continue Button",2,"object-2989","Task Instructions",NA,"SUPPRF49978"
"8",1717682291149,"06/06/2024 13:58:11",1717685891149,1,"06/06/2024 15:58:11",180921,1,"task-8tuj",NA,38088905,11204417,NA,"complete",NA,"computer","Desktop or Laptop","Windows 10","Chrome 125.0.0.0","1536x864","1536x695",NA,NA,0,"Task Introduction and Instructions (re-introduce video and audio) (Clone) (Clone)",3,"EFDGCHBIA","Passed AC2",NA,"Spreadsheet1","Spreadsheet1",1,"Task Instructions","Screen 11","oyulb7",7,"continue","",3346.7,3330.2,3346.7,3346.7,3330.2,3346.7,1,3346.7,0,0,NA,"Click To Continue","Continue Button",2,"object-52","Task Instructions",NA,"SUPPRF49978"
"9",1717682293640,"06/06/2024 13:58:13",1717685893640,1,"06/06/2024 15:58:13",180921,1,"task-8tuj",NA,38088905,11204417,NA,"complete",NA,"computer","Desktop or Laptop","Windows 10","Chrome 125.0.0.0","1536x864","1536x695",NA,NA,0,"Task Introduction and Instructions (re-introduce video and audio) (Clone) (Clone)",3,"EFDGCHBIA","Passed AC2",NA,"Spreadsheet1","Spreadsheet1",1,"Task Instructions","Screen 5","8nvnao",8,"continue","",2507.90000002384,2497.7,2507.90000002384,2507.90000002384,2497.7,2507.90000002384,1,2507.90000002384,0,0,NA,"Click To Continue","Continue Button",2,"object-44","Task Instructions",NA,"SUPPRF49978"
"10",1717682293647,"06/06/2024 13:58:13",1717685893647,1,"06/06/2024 15:58:13",180921,1,"task-8tuj",NA,38088905,11204417,NA,"complete",NA,"computer","Desktop or Laptop","Windows 10","Chrome 125.0.0.0","1536x864","1536x695",NA,NA,0,"Task Introduction and Instructions (re-introduce video and audio) (Clone) (Clone)",3,"EFDGCHBIA","Passed AC2",NA,"Spreadsheet1","Spreadsheet1",NA,"","","",NA,"info","END",NA,NA,NA,NA,NA,NA,0,NA,NA,NA,NA,"","",NA,"","",NA,"SUPPRF49978"
"1",1717682503626,"06/06/2024 14:01:43",1717686103626,1,"06/06/2024 16:01:43",180921,1,"task-8tuj",NA,38089031,11204446,NA,"complete",NA,"computer","Desktop or Laptop","Windows 10","Chrome 125.0.0.0","1536x864","1536x730",NA,NA,0,"Task Introduction and Instructions (re-introduce video and audio) (Clone) (Clone)",3,"HIGAFBECD","Passed AC2",NA,"Spreadsheet1","Spreadsheet1",NA,"","","",NA,"info","BEGIN",NA,NA,NA,NA,NA,NA,0,NA,NA,NA,NA,"","",NA,"","",NA,"SUPPRF55954"
"2",1717682506946,"06/06/2024 14:01:46",1717686106946,1,"06/06/2024 16:01:46",180921,1,"task-8tuj",NA,38089031,11204446,NA,"complete",NA,"computer","Desktop or Laptop","Windows 10","Chrome 125.0.0.0","1536x864","1536x730",NA,NA,0,"Task Introduction and Instructions (re-introduce video and audio) (Clone) (Clone)",3,"HIGAFBECD","Passed AC2",NA,"Spreadsheet1","Spreadsheet1",1,"Task Instructions","Screen 1","anr7sn",1,"continue","",3242.30000019073,3232.2,3242.30000019073,3242.30000019073,3232.2,3242.30000019073,1,3242.30000019073,0,0,NA,"Click To Continue","Continue Button",3,"object-60","Task Instructions",NA,"SUPPRF55954"
"3",1717682509465,"06/06/2024 14:01:49",1717686109465,1,"06/06/2024 16:01:49",180921,1,"task-8tuj",NA,38089031,11204446,NA,"complete",NA,"computer","Desktop or Laptop","Windows 10","Chrome 125.0.0.0","1536x864","1536x730",NA,NA,0,"Task Introduction and Instructions (re-introduce video and audio) (Clone) (Clone)",3,"HIGAFBECD","Passed AC2",NA,"Spreadsheet1","Spreadsheet1",1,"Task Instructions","Screen 4","spepx9",2,"continue","",2529.70000009537,2515.6,2529.70000009537,2529.70000009537,2515.6,2529.70000009537,1,2529.70000009537,0,0,NA,"Click To Continue","Continue Button",2,"object-9","Task Instructions",NA,"SUPPRF55954"
"4",1717682519756,"06/06/2024 14:01:59",1717686119756,1,"06/06/2024 16:01:59",180921,1,"task-8tuj",NA,38089031,11204446,NA,"complete",NA,"computer","Desktop or Laptop","Windows 10","Chrome 125.0.0.0","1536x864","1536x730",NA,NA,0,"Task Introduction and Instructions (re-introduce video and audio) (Clone) (Clone)",3,"HIGAFBECD","Passed AC2",NA,"Spreadsheet1","Spreadsheet1",1,"Task Instructions","Screen 2","ce2tc8",3,"continue","",10305.6000000954,10295.4,10305.6000000954,10305.6000000954,10295.4,10305.6000000954,1,10305.6000000954,0,0,NA,"Click To Continue","Continue Button",3,"object-59","Task Instructions",NA,"SUPPRF55954"
"5",1717682529965,"06/06/2024 14:02:09",1717686129965,1,"06/06/2024 16:02:09",180921,1,"task-8tuj",NA,38089031,11204446,NA,"complete",NA,"computer","Desktop or Laptop","Windows 10","Chrome 125.0.0.0","1536x864","1536x730",NA,NA,0,"Task Introduction and Instructions (re-introduce video and audio) (Clone) (Clone)",3,"HIGAFBECD","Passed AC2",NA,"Spreadsheet1","Spreadsheet1",1,"Task Instructions","Screen 3","1qtc8v",4,"continue","",10219.0000000477,10212.2,10219.0000000477,10219.0000000477,10212.2,10219.0000000477,1,10219.0000000477,0,0,NA,"Click To Continue","Continue Button",2,"object-2983","Task Instructions",NA,"SUPPRF55954"
"6",1717682551943,"06/06/2024 14:02:31",1717686151943,1,"06/06/2024 16:02:31",180921,1,"task-8tuj",NA,38089031,11204446,NA,"complete",NA,"computer","Desktop or Laptop","Windows 10","Chrome 125.0.0.0","1536x864","1536x730",NA,NA,0,"Task Introduction and Instructions (re-introduce video and audio) (Clone) (Clone)",3,"HIGAFBECD","Passed AC2",NA,"Spreadsheet1","Spreadsheet1",1,"Task Instructions","Screen 12","1a4vu2",5,"continue","",21985.1,21973.3,21985.1,21985.1,21973.3,21985.1,1,21985.1,0,0,NA,"Click To Continue","Continue Button",2,"object-2466","Task Instructions",NA,"SUPPRF55954"
"7",1717682556716,"06/06/2024 14:02:36",1717686156716,1,"06/06/2024 16:02:36",180921,1,"task-8tuj",NA,38089031,11204446,NA,"complete",NA,"computer","Desktop or Laptop","Windows 10","Chrome 125.0.0.0","1536x864","1536x730",NA,NA,0,"Task Introduction and Instructions (re-introduce video and audio) (Clone) (Clone)",3,"HIGAFBECD","Passed AC2",NA,"Spreadsheet1","Spreadsheet1",1,"Task Instructions","Screen 13","q9vwda",6,"continue","",4785.10000019074,4781.7,4785.10000019074,4785.10000019074,4781.7,4785.10000019074,1,4785.10000019074,0,0,NA,"Click To Continue","Continue Button",2,"object-2989","Task Instructions",NA,"SUPPRF55954"
"8",1717682559491,"06/06/2024 14:02:39",1717686159491,1,"06/06/2024 16:02:39",180921,1,"task-8tuj",NA,38089031,11204446,NA,"complete",NA,"computer","Desktop or Laptop","Windows 10","Chrome 125.0.0.0","1536x864","1536x730",NA,NA,0,"Task Introduction and Instructions (re-introduce video and audio) (Clone) (Clone)",3,"HIGAFBECD","Passed AC2",NA,"Spreadsheet1","Spreadsheet1",1,"Task Instructions","Screen 11","oyulb7",7,"continue","",2778.00000009537,2765.1,2778.00000009537,2778.00000009537,2765.1,2778.00000009537,1,2778.00000009537,0,0,NA,"Click To Continue","Continue Button",2,"object-52","Task Instructions",NA,"SUPPRF55954"
"9",1717682562472,"06/06/2024 14:02:42",1717686162472,1,"06/06/2024 16:02:42",180921,1,"task-8tuj",NA,38089031,11204446,NA,"complete",NA,"computer","Desktop or Laptop","Windows 10","Chrome 125.0.0.0","1536x864","1536x730",NA,NA,0,"Task Introduction and Instructions (re-introduce video and audio) (Clone) (Clone)",3,"HIGAFBECD","Passed AC2",NA,"Spreadsheet1","Spreadsheet1",1,"Task Instructions","Screen 5","8nvnao",8,"continue","",2993.30000019073,2982.5,2993.30000019073,2993.30000019073,2982.5,2993.30000019073,1,2993.30000019073,0,0,NA,"Click To Continue","Continue Button",2,"object-44","Task Instructions",NA,"SUPPRF55954"
"10",1717682562478,"06/06/2024 14:02:42",1717686162478,1,"06/06/2024 16:02:42",180921,1,"task-8tuj",NA,38089031,11204446,NA,"complete",NA,"computer","Desktop or Laptop","Windows 10","Chrome 125.0.0.0","1536x864","1536x730",NA,NA,0,"Task Introduction and Instructions (re-introduce video and audio) (Clone) (Clone)",3,"HIGAFBECD","Passed AC2",NA,"Spreadsheet1","Spreadsheet1",NA,"","","",NA,"info","END",NA,NA,NA,NA,NA,NA,0,NA,NA,NA,NA,"","",NA,"","",NA,"SUPPRF55954"
"1",1717682723120,"06/06/2024 14:05:23",1717686323120,1,"06/06/2024 16:05:23",180921,1,"task-8tuj",NA,38089137,11204452,NA,"complete",NA,"computer","Desktop or Laptop","Windows 10","Chrome 125.0.0.0","1280x720","1280x585",NA,NA,0,"Task Introduction and Instructions (re-introduce video and audio) (Clone) (Clone)",3,"CDBEAFIGH","Passed AC2",NA,"Spreadsheet1","Spreadsheet1",NA,"","","",NA,"info","BEGIN",NA,NA,NA,NA,NA,NA,0,NA,NA,NA,NA,"","",NA,"","",NA,"SUPPRF54709"
"2",1717682727087,"06/06/2024 14:05:27",1717686327087,1,"06/06/2024 16:05:27",180921,1,"task-8tuj",NA,38089137,11204452,NA,"complete",NA,"computer","Desktop or Laptop","Windows 10","Chrome 125.0.0.0","1280x720","1280x585",NA,NA,0,"Task Introduction and Instructions (re-introduce video and audio) (Clone) (Clone)",3,"CDBEAFIGH","Passed AC2",NA,"Spreadsheet1","Spreadsheet1",1,"Task Instructions","Screen 1","anr7sn",1,"continue","",3846.1,3833.2,3846.1,3846.1,3833.2,3846.1,1,3846.1,0,0,NA,"Click To Continue","Continue Button",3,"object-60","Task Instructions",NA,"SUPPRF54709"
"3",1717682730216,"06/06/2024 14:05:30",1717686330216,1,"06/06/2024 16:05:30",180921,1,"task-8tuj",NA,38089137,11204452,NA,"complete",NA,"computer","Desktop or Laptop","Windows 10","Chrome 125.0.0.0","1280x720","1280x585",NA,NA,0,"Task Introduction and Instructions (re-introduce video and audio) (Clone) (Clone)",3,"CDBEAFIGH","Passed AC2",NA,"Spreadsheet1","Spreadsheet1",1,"Task Instructions","Screen 4","spepx9",2,"continue","",3142.00000002384,3133.2,3142.00000002384,3142.00000002384,3133.2,3142.00000002384,1,3142.00000002384,0,0,NA,"Click To Continue","Continue Button",2,"object-9","Task Instructions",NA,"SUPPRF54709"
"4",1717682740349,"06/06/2024 14:05:40",1717686340349,1,"06/06/2024 16:05:40",180921,1,"task-8tuj",NA,38089137,11204452,NA,"complete",NA,"computer","Desktop or Laptop","Windows 10","Chrome 125.0.0.0","1280x720","1280x585",NA,NA,0,"Task Introduction and Instructions (re-introduce video and audio) (Clone) (Clone)",3,"CDBEAFIGH","Passed AC2",NA,"Spreadsheet1","Spreadsheet1",1,"Task Instructions","Screen 2","ce2tc8",3,"continue","",10141.5000000119,10132.4,10141.5000000119,10141.5000000119,10132.4,10141.5000000119,1,10141.5000000119,0,0,NA,"Click To Continue","Continue Button",3,"object-59","Task Instructions",NA,"SUPPRF54709"
"5",1717682748462,"06/06/2024 14:05:48",1717686348462,1,"06/06/2024 16:05:48",180921,1,"task-8tuj",NA,38089137,11204452,NA,"complete",NA,"computer","Desktop or Laptop","Windows 10","Chrome 125.0.0.0","1280x720","1280x585",NA,NA,0,"Task Introduction and Instructions (re-introduce video and audio) (Clone) (Clone)",3,"CDBEAFIGH","Passed AC2",NA,"Spreadsheet1","Spreadsheet1",1,"Task Instructions","Screen 3","1qtc8v",4,"continue","",8122.10000001192,8116.4,8122.10000001192,8122.10000001192,8116.4,8122.10000001192,1,8122.10000001192,0,0,NA,"Click To Continue","Continue Button",2,"object-2983","Task Instructions",NA,"SUPPRF54709"
"6",1717682753624,"06/06/2024 14:05:53",1717686353624,1,"06/06/2024 16:05:53",180921,1,"task-8tuj",NA,38089137,11204452,NA,"complete",NA,"computer","Desktop or Laptop","Windows 10","Chrome 125.0.0.0","1280x720","1280x585",NA,NA,0,"Task Introduction and Instructions (re-introduce video and audio) (Clone) (Clone)",3,"CDBEAFIGH","Passed AC2",NA,"Spreadsheet1","Spreadsheet1",1,"Task Instructions","Screen 12","1a4vu2",5,"continue","",5167.4,5150.2,5167.4,5167.4,5150.2,5167.4,1,5167.4,0,0,NA,"Click To Continue","Continue Button",2,"object-2466","Task Instructions",NA,"SUPPRF54709"
"7",1717682758313,"06/06/2024 14:05:58",1717686358313,1,"06/06/2024 16:05:58",180921,1,"task-8tuj",NA,38089137,11204452,NA,"complete",NA,"computer","Desktop or Laptop","Windows 10","Chrome 125.0.0.0","1280x720","1280x585",NA,NA,0,"Task Introduction and Instructions (re-introduce video and audio) (Clone) (Clone)",3,"CDBEAFIGH","Passed AC2",NA,"Spreadsheet1","Spreadsheet1",1,"Task Instructions","Screen 13","q9vwda",6,"continue","",4707.40000004768,4699.2,4707.40000004768,4707.40000004768,4699.2,4707.40000004768,1,4707.40000004768,0,0,NA,"Click To Continue","Continue Button",2,"object-2989","Task Instructions",NA,"SUPPRF54709"
"8",1717682761793,"06/06/2024 14:06:01",1717686361793,1,"06/06/2024 16:06:01",180921,1,"task-8tuj",NA,38089137,11204452,NA,"complete",NA,"computer","Desktop or Laptop","Windows 10","Chrome 125.0.0.0","1280x720","1280x585",NA,NA,0,"Task Introduction and Instructions (re-introduce video and audio) (Clone) (Clone)",3,"CDBEAFIGH","Passed AC2",NA,"Spreadsheet1","Spreadsheet1",1,"Task Instructions","Screen 11","oyulb7",7,"continue","",3488,3483.1,3488,3488,3483.1,3488,1,3488,0,0,NA,"Click To Continue","Continue Button",2,"object-52","Task Instructions",NA,"SUPPRF54709"
"9",1717682764753,"06/06/2024 14:06:04",1717686364753,1,"06/06/2024 16:06:04",180921,1,"task-8tuj",NA,38089137,11204452,NA,"complete",NA,"computer","Desktop or Laptop","Windows 10","Chrome 125.0.0.0","1280x720","1280x585",NA,NA,0,"Task Introduction and Instructions (re-introduce video and audio) (Clone) (Clone)",3,"CDBEAFIGH","Passed AC2",NA,"Spreadsheet1","Spreadsheet1",1,"Task Instructions","Screen 5","8nvnao",8,"continue","",2965.10000004769,2950,2965.10000004769,2965.10000004769,2950,2965.10000004769,1,2965.10000004769,0,0,NA,"Click To Continue","Continue Button",2,"object-44","Task Instructions",NA,"SUPPRF54709"
"10",1717682764761,"06/06/2024 14:06:04",1717686364761,1,"06/06/2024 16:06:04",180921,1,"task-8tuj",NA,38089137,11204452,NA,"complete",NA,"computer","Desktop or Laptop","Windows 10","Chrome 125.0.0.0","1280x720","1280x585",NA,NA,0,"Task Introduction and Instructions (re-introduce video and audio) (Clone) (Clone)",3,"CDBEAFIGH","Passed AC2",NA,"Spreadsheet1","Spreadsheet1",NA,"","","",NA,"info","END",NA,NA,NA,NA,NA,NA,0,NA,NA,NA,NA,"","",NA,"","",NA,"SUPPRF54709"
"1",1717682926639,"06/06/2024 14:08:46",1717686526639,1,"06/06/2024 16:08:46",180921,1,"task-8tuj",NA,38089239,11204510,NA,"complete",NA,"computer","Desktop or Laptop","Windows 10","Chrome 125.0.0.0","1536x864","1536x695",NA,NA,0,"Task Introduction and Instructions (re-introduce video and audio) (Clone) (Clone)",3,"EFDGCHBIA","Passed AC2",NA,"Spreadsheet1","Spreadsheet1",NA,"","","",NA,"info","BEGIN",NA,NA,NA,NA,NA,NA,0,NA,NA,NA,NA,"","",NA,"","",NA,"SUPPRF92967"
"2",1717682944301,"06/06/2024 14:09:04",1717686544301,1,"06/06/2024 16:09:04",180921,1,"task-8tuj",NA,38089239,11204510,NA,"complete",NA,"computer","Desktop or Laptop","Windows 10","Chrome 125.0.0.0","1536x864","1536x695",NA,NA,0,"Task Introduction and Instructions (re-introduce video and audio) (Clone) (Clone)",3,"EFDGCHBIA","Passed AC2",NA,"Spreadsheet1","Spreadsheet1",1,"Task Instructions","Screen 1","anr7sn",1,"continue","",17567.8,17563,17567.8,17567.8,17563,17567.8,1,17567.8,0,0,NA,"Click To Continue","Continue Button",3,"object-60","Task Instructions",NA,"SUPPRF92967"
"3",1717682948991,"06/06/2024 14:09:08",1717686548991,1,"06/06/2024 16:09:08",180921,1,"task-8tuj",NA,38089239,11204510,NA,"complete",NA,"computer","Desktop or Laptop","Windows 10","Chrome 125.0.0.0","1536x864","1536x695",NA,NA,0,"Task Introduction and Instructions (re-introduce video and audio) (Clone) (Clone)",3,"EFDGCHBIA","Passed AC2",NA,"Spreadsheet1","Spreadsheet1",1,"Task Instructions","Screen 4","spepx9",2,"continue","",4694.90000000009,4690.7,4694.90000000009,4694.90000000009,4690.7,4694.90000000009,1,4694.90000000009,0,0,NA,"Click To Continue","Continue Button",2,"object-9","Task Instructions",NA,"SUPPRF92967"
"4",1717682962355,"06/06/2024 14:09:22",1717686562355,1,"06/06/2024 16:09:22",180921,1,"task-8tuj",NA,38089239,11204510,NA,"complete",NA,"computer","Desktop or Laptop","Windows 10","Chrome 125.0.0.0","1536x864","1536x695",NA,NA,0,"Task Introduction and Instructions (re-introduce video and audio) (Clone) (Clone)",3,"EFDGCHBIA","Passed AC2",NA,"Spreadsheet1","Spreadsheet1",1,"Task Instructions","Screen 2","ce2tc8",3,"continue","",13368.2000000001,13363.1,13368.2000000001,13368.2000000001,13363.1,13368.2000000001,1,13368.2000000001,0,0,NA,"Click To Continue","Continue Button",3,"object-59","Task Instructions",NA,"SUPPRF92967"
"5",1717682976459,"06/06/2024 14:09:36",1717686576459,1,"06/06/2024 16:09:36",180921,1,"task-8tuj",NA,38089239,11204510,NA,"complete",NA,"computer","Desktop or Laptop","Windows 10","Chrome 125.0.0.0","1536x864","1536x695",NA,NA,0,"Task Introduction and Instructions (re-introduce video and audio) (Clone) (Clone)",3,"EFDGCHBIA","Passed AC2",NA,"Spreadsheet1","Spreadsheet1",1,"Task Instructions","Screen 3","1qtc8v",4,"continue","",14108.6,14102.5,14108.6,14108.6,14102.5,14108.6,1,14108.6,0,0,NA,"Click To Continue","Continue Button",2,"object-2983","Task Instructions",NA,"SUPPRF92967"
"6",1717682982187,"06/06/2024 14:09:42",1717686582187,1,"06/06/2024 16:09:42",180921,1,"task-8tuj",NA,38089239,11204510,NA,"complete",NA,"computer","Desktop or Laptop","Windows 10","Chrome 125.0.0.0","1536x864","1536x695",NA,NA,0,"Task Introduction and Instructions (re-introduce video and audio) (Clone) (Clone)",3,"EFDGCHBIA","Passed AC2",NA,"Spreadsheet1","Spreadsheet1",1,"Task Instructions","Screen 12","1a4vu2",5,"continue","",5734.90000000014,5733.2,5734.90000000014,5734.90000000014,5733.2,5734.90000000014,1,5734.90000000014,0,0,NA,"Click To Continue","Continue Button",2,"object-2466","Task Instructions",NA,"SUPPRF92967"
"7",1717682988309,"06/06/2024 14:09:48",1717686588309,1,"06/06/2024 16:09:48",180921,1,"task-8tuj",NA,38089239,11204510,NA,"complete",NA,"computer","Desktop or Laptop","Windows 10","Chrome 125.0.0.0","1536x864","1536x695",NA,NA,0,"Task Introduction and Instructions (re-introduce video and audio) (Clone) (Clone)",3,"EFDGCHBIA","Passed AC2",NA,"Spreadsheet1","Spreadsheet1",1,"Task Instructions","Screen 13","q9vwda",6,"continue","",6122.70000000014,6120.9,6122.70000000014,6122.70000000014,6120.9,6122.70000000014,1,6122.70000000014,0,0,NA,"Click To Continue","Continue Button",2,"object-2989","Task Instructions",NA,"SUPPRF92967"
"8",1717682992426,"06/06/2024 14:09:52",1717686592426,1,"06/06/2024 16:09:52",180921,1,"task-8tuj",NA,38089239,11204510,NA,"complete",NA,"computer","Desktop or Laptop","Windows 10","Chrome 125.0.0.0","1536x864","1536x695",NA,NA,0,"Task Introduction and Instructions (re-introduce video and audio) (Clone) (Clone)",3,"EFDGCHBIA","Passed AC2",NA,"Spreadsheet1","Spreadsheet1",1,"Task Instructions","Screen 11","oyulb7",7,"continue","",4118.80000000014,4114.9,4118.80000000014,4118.80000000014,4114.9,4118.80000000014,1,4118.80000000014,0,0,NA,"Click To Continue","Continue Button",2,"object-52","Task Instructions",NA,"SUPPRF92967"
"9",1717682995180,"06/06/2024 14:09:55",1717686595180,1,"06/06/2024 16:09:55",180921,1,"task-8tuj",NA,38089239,11204510,NA,"complete",NA,"computer","Desktop or Laptop","Windows 10","Chrome 125.0.0.0","1536x864","1536x695",NA,NA,0,"Task Introduction and Instructions (re-introduce video and audio) (Clone) (Clone)",3,"EFDGCHBIA","Passed AC2",NA,"Spreadsheet1","Spreadsheet1",1,"Task Instructions","Screen 5","8nvnao",8,"continue","",2757.39999999999,2751.39999999999,2757.39999999999,2757.39999999999,2751.39999999999,2757.39999999999,1,2757.39999999999,0,0,NA,"Click To Continue","Continue Button",2,"object-44","Task Instructions",NA,"SUPPRF92967"
"10",1717682995181,"06/06/2024 14:09:55",1717686595181,1,"06/06/2024 16:09:55",180921,1,"task-8tuj",NA,38089239,11204510,NA,"complete",NA,"computer","Desktop or Laptop","Windows 10","Chrome 125.0.0.0","1536x864","1536x695",NA,NA,0,"Task Introduction and Instructions (re-introduce video and audio) (Clone) (Clone)",3,"EFDGCHBIA","Passed AC2",NA,"Spreadsheet1","Spreadsheet1",NA,"","","",NA,"info","END",NA,NA,NA,NA,NA,NA,0,NA,NA,NA,NA,"","",NA,"","",NA,"SUPPRF92967"
"1",1717683326743,"06/06/2024 14:15:26",1717686926743,1,"06/06/2024 16:15:26",180921,1,"task-8tuj",NA,38089471,11204515,NA,"complete",NA,"computer","Desktop or Laptop","Mac OS 10.15.7","Chrome 124.0.0.0","1440x900","1407x788",NA,NA,0,"Task Introduction and Instructions (re-introduce video and audio) (Clone) (Clone)",3,"FGEHDICAB","Passed AC2",NA,"Spreadsheet1","Spreadsheet1",NA,"","","",NA,"info","BEGIN",NA,NA,NA,NA,NA,NA,0,NA,NA,NA,NA,"","",NA,"","",NA,"SUPPRF74061"
"2",1717683332102,"06/06/2024 14:15:32",1717686932102,1,"06/06/2024 16:15:32",180921,1,"task-8tuj",NA,38089471,11204515,NA,"complete",NA,"computer","Desktop or Laptop","Mac OS 10.15.7","Chrome 124.0.0.0","1440x900","1407x788",NA,NA,0,"Task Introduction and Instructions (re-introduce video and audio) (Clone) (Clone)",3,"FGEHDICAB","Passed AC2",NA,"Spreadsheet1","Spreadsheet1",1,"Task Instructions","Screen 1","anr7sn",1,"continue","",5016.8,5000.1,5016.8,5016.8,5000.1,5016.8,1,5016.8,0,0,NA,"Click To Continue","Continue Button",3,"object-60","Task Instructions",NA,"SUPPRF74061"
"3",1717683334918,"06/06/2024 14:15:34",1717686934918,1,"06/06/2024 16:15:34",180921,1,"task-8tuj",NA,38089471,11204515,NA,"complete",NA,"computer","Desktop or Laptop","Mac OS 10.15.7","Chrome 124.0.0.0","1440x900","1407x788",NA,NA,0,"Task Introduction and Instructions (re-introduce video and audio) (Clone) (Clone)",3,"FGEHDICAB","Passed AC2",NA,"Spreadsheet1","Spreadsheet1",1,"Task Instructions","Screen 4","spepx9",2,"continue","",2831.4,2815.7,2831.4,2831.4,2815.7,2831.4,1,2831.4,0,0,NA,"Click To Continue","Continue Button",2,"object-9","Task Instructions",NA,"SUPPRF74061"
"4",1717683431917,"06/06/2024 14:17:11",1717687031917,1,"06/06/2024 16:17:11",180921,1,"task-8tuj",NA,38089471,11204515,NA,"complete",NA,"computer","Desktop or Laptop","Mac OS 10.15.7","Chrome 124.0.0.0","1440x900","1407x788",NA,NA,0,"Task Introduction and Instructions (re-introduce video and audio) (Clone) (Clone)",3,"FGEHDICAB","Passed AC2",NA,"Spreadsheet1","Spreadsheet1",1,"Task Instructions","Screen 2","ce2tc8",3,"continue","",97017,97000.9,97017,97017,97000.9,97017,1,97017,0,0,NA,"Click To Continue","Continue Button",3,"object-59","Task Instructions",NA,"SUPPRF74061"
"5",1717683457950,"06/06/2024 14:17:37",1717687057950,1,"06/06/2024 16:17:37",180921,1,"task-8tuj",NA,38089471,11204515,NA,"complete",NA,"computer","Desktop or Laptop","Mac OS 10.15.7","Chrome 124.0.0.0","1440x900","1407x788",NA,NA,0,"Task Introduction and Instructions (re-introduce video and audio) (Clone) (Clone)",3,"FGEHDICAB","Passed AC2",NA,"Spreadsheet1","Spreadsheet1",1,"Task Instructions","Screen 3","1qtc8v",4,"continue","",26050.2000000715,26034,26050.2000000715,26050.2000000715,26034,26050.2000000715,1,26050.2000000715,0,0,NA,"Click To Continue","Continue Button",2,"object-2983","Task Instructions",NA,"SUPPRF74061"
"6",1717683463333,"06/06/2024 14:17:43",1717687063333,1,"06/06/2024 16:17:43",180921,1,"task-8tuj",NA,38089471,11204515,NA,"complete",NA,"computer","Desktop or Laptop","Mac OS 10.15.7","Chrome 124.0.0.0","1440x900","1407x788",NA,NA,0,"Task Introduction and Instructions (re-introduce video and audio) (Clone) (Clone)",3,"FGEHDICAB","Passed AC2",NA,"Spreadsheet1","Spreadsheet1",1,"Task Instructions","Screen 12","1a4vu2",5,"continue","",5398.70000007152,5383.60000000001,5398.70000007152,5398.70000007152,5383.60000000001,5398.70000007152,1,5398.70000007152,0,0,NA,"Click To Continue","Continue Button",2,"object-2466","Task Instructions",NA,"SUPPRF74061"
"7",1717683469001,"06/06/2024 14:17:49",1717687069001,1,"06/06/2024 16:17:49",180921,1,"task-8tuj",NA,38089471,11204515,NA,"complete",NA,"computer","Desktop or Laptop","Mac OS 10.15.7","Chrome 124.0.0.0","1440x900","1407x788",NA,NA,0,"Task Introduction and Instructions (re-introduce video and audio) (Clone) (Clone)",3,"FGEHDICAB","Passed AC2",NA,"Spreadsheet1","Spreadsheet1",1,"Task Instructions","Screen 13","q9vwda",6,"continue","",5683.10000000001,5666.39999999999,5683.10000000001,5683.10000000001,5666.39999999999,5683.10000000001,1,5683.10000000001,0,0,NA,"Click To Continue","Continue Button",2,"object-2989","Task Instructions",NA,"SUPPRF74061"
"8",1717683473216,"06/06/2024 14:17:53",1717687073216,1,"06/06/2024 16:17:53",180921,1,"task-8tuj",NA,38089471,11204515,NA,"complete",NA,"computer","Desktop or Laptop","Mac OS 10.15.7","Chrome 124.0.0.0","1440x900","1407x788",NA,NA,0,"Task Introduction and Instructions (re-introduce video and audio) (Clone) (Clone)",3,"FGEHDICAB","Passed AC2",NA,"Spreadsheet1","Spreadsheet1",1,"Task Instructions","Screen 11","oyulb7",7,"continue","",4231.70000007152,4216.69999999998,4231.70000007152,4231.70000007152,4216.69999999998,4231.70000007152,1,4231.70000007152,0,0,NA,"Click To Continue","Continue Button",2,"object-52","Task Instructions",NA,"SUPPRF74061"
"9",1717683476550,"06/06/2024 14:17:56",1717687076550,1,"06/06/2024 16:17:56",180921,1,"task-8tuj",NA,38089471,11204515,NA,"complete",NA,"computer","Desktop or Laptop","Mac OS 10.15.7","Chrome 124.0.0.0","1440x900","1407x788",NA,NA,0,"Task Introduction and Instructions (re-introduce video and audio) (Clone) (Clone)",3,"FGEHDICAB","Passed AC2",NA,"Spreadsheet1","Spreadsheet1",1,"Task Instructions","Screen 5","8nvnao",8,"continue","",3349.80000002385,3333.40000000002,3349.80000002385,3349.80000002385,3333.40000000002,3349.80000002385,1,3349.80000002385,0,0,NA,"Click To Continue","Continue Button",2,"object-44","Task Instructions",NA,"SUPPRF74061"
"10",1717683476554,"06/06/2024 14:17:56",1717687076554,1,"06/06/2024 16:17:56",180921,1,"task-8tuj",NA,38089471,11204515,NA,"complete",NA,"computer","Desktop or Laptop","Mac OS 10.15.7","Chrome 124.0.0.0","1440x900","1407x788",NA,NA,0,"Task Introduction and Instructions (re-introduce video and audio) (Clone) (Clone)",3,"FGEHDICAB","Passed AC2",NA,"Spreadsheet1","Spreadsheet1",NA,"","","",NA,"info","END",NA,NA,NA,NA,NA,NA,0,NA,NA,NA,NA,"","",NA,"","",NA,"SUPPRF74061"
"1",1717683344878,"06/06/2024 14:15:44",1717686944878,1,"06/06/2024 16:15:44",180921,1,"task-8tuj",NA,38089483,11204534,NA,"complete",NA,"computer","Desktop or Laptop","Windows 10","Chrome 125.0.0.0","1920x1080","1920x919",NA,NA,0,"Task Introduction and Instructions (re-introduce video and audio) (Clone) (Clone)",3,"GHFIEADBC","Passed AC2",NA,"Spreadsheet1","Spreadsheet1",NA,"","","",NA,"info","BEGIN",NA,NA,NA,NA,NA,NA,0,NA,NA,NA,NA,"","",NA,"","",NA,"SUPPRF63538"
"2",1717683347982,"06/06/2024 14:15:47",1717686947982,1,"06/06/2024 16:15:47",180921,1,"task-8tuj",NA,38089483,11204534,NA,"complete",NA,"computer","Desktop or Laptop","Windows 10","Chrome 125.0.0.0","1920x1080","1920x919",NA,NA,0,"Task Introduction and Instructions (re-introduce video and audio) (Clone) (Clone)",3,"GHFIEADBC","Passed AC2",NA,"Spreadsheet1","Spreadsheet1",1,"Task Instructions","Screen 1","anr7sn",1,"continue","",3016.6,3000.1,3016.6,3016.6,3000.1,3016.6,1,3016.6,0,0,NA,"Click To Continue","Continue Button",3,"object-60","Task Instructions",NA,"SUPPRF63538"
"3",1717683350730,"06/06/2024 14:15:50",1717686950730,1,"06/06/2024 16:15:50",180921,1,"task-8tuj",NA,38089483,11204534,NA,"complete",NA,"computer","Desktop or Laptop","Windows 10","Chrome 125.0.0.0","1920x1080","1920x919",NA,NA,0,"Task Introduction and Instructions (re-introduce video and audio) (Clone) (Clone)",3,"GHFIEADBC","Passed AC2",NA,"Spreadsheet1","Spreadsheet1",1,"Task Instructions","Screen 4","spepx9",2,"continue","",2766.09999990463,2750,2766.09999990463,2766.09999990463,2750,2766.09999990463,1,2766.09999990463,0,0,NA,"Click To Continue","Continue Button",2,"object-9","Task Instructions",NA,"SUPPRF63538"
"4",1717683361576,"06/06/2024 14:16:01",1717686961576,1,"06/06/2024 16:16:01",180921,1,"task-8tuj",NA,38089483,11204534,NA,"complete",NA,"computer","Desktop or Laptop","Windows 10","Chrome 125.0.0.0","1536x864","1536x703",NA,NA,0,"Task Introduction and Instructions (re-introduce video and audio) (Clone) (Clone)",3,"GHFIEADBC","Passed AC2",NA,"Spreadsheet1","Spreadsheet1",1,"Task Instructions","Screen 2","ce2tc8",3,"continue","",10861.7999999523,10850.2,10861.7999999523,10861.7999999523,10850.2,10861.7999999523,1,10861.7999999523,0,0,NA,"Click To Continue","Continue Button",3,"object-59","Task Instructions",NA,"SUPPRF63538"
"5",1717683368940,"06/06/2024 14:16:08",1717686968940,1,"06/06/2024 16:16:08",180921,1,"task-8tuj",NA,38089483,11204534,NA,"complete",NA,"computer","Desktop or Laptop","Windows 10","Chrome 125.0.0.0","1536x864","1536x703",NA,NA,0,"Task Introduction and Instructions (re-introduce video and audio) (Clone) (Clone)",3,"GHFIEADBC","Passed AC2",NA,"Spreadsheet1","Spreadsheet1",1,"Task Instructions","Screen 3","1qtc8v",4,"continue","",7375.8,7366.8,7375.8,7375.8,7366.8,7375.8,1,7375.8,0,0,NA,"Click To Continue","Continue Button",2,"object-2983","Task Instructions",NA,"SUPPRF63538"
"6",1717683373962,"06/06/2024 14:16:13",1717686973962,1,"06/06/2024 16:16:13",180921,1,"task-8tuj",NA,38089483,11204534,NA,"complete",NA,"computer","Desktop or Laptop","Windows 10","Chrome 125.0.0.0","1536x864","1536x703",NA,NA,0,"Task Introduction and Instructions (re-introduce video and audio) (Clone) (Clone)",3,"GHFIEADBC","Passed AC2",NA,"Spreadsheet1","Spreadsheet1",1,"Task Instructions","Screen 12","1a4vu2",5,"continue","",5030.5,5016.8,5030.5,5030.5,5016.8,5030.5,1,5030.5,0,0,NA,"Click To Continue","Continue Button",2,"object-2466","Task Instructions",NA,"SUPPRF63538"
"7",1717683379058,"06/06/2024 14:16:19",1717686979058,1,"06/06/2024 16:16:19",180921,1,"task-8tuj",NA,38089483,11204534,NA,"complete",NA,"computer","Desktop or Laptop","Windows 10","Chrome 125.0.0.0","1536x864","1536x703",NA,NA,0,"Task Introduction and Instructions (re-introduce video and audio) (Clone) (Clone)",3,"GHFIEADBC","Passed AC2",NA,"Spreadsheet1","Spreadsheet1",1,"Task Instructions","Screen 13","q9vwda",6,"continue","",5109.40000004768,5100.2,5109.40000004768,5109.40000004768,5100.2,5109.40000004768,1,5109.40000004768,0,0,NA,"Click To Continue","Continue Button",2,"object-2989","Task Instructions",NA,"SUPPRF63538"
"8",1717683383184,"06/06/2024 14:16:23",1717686983184,1,"06/06/2024 16:16:23",180921,1,"task-8tuj",NA,38089483,11204534,NA,"complete",NA,"computer","Desktop or Laptop","Windows 10","Chrome 125.0.0.0","1536x864","1536x703",NA,NA,0,"Task Introduction and Instructions (re-introduce video and audio) (Clone) (Clone)",3,"GHFIEADBC","Passed AC2",NA,"Spreadsheet1","Spreadsheet1",1,"Task Instructions","Screen 11","oyulb7",7,"continue","",4135.79999995232,4133.3,4135.79999995232,4135.79999995232,4133.3,4135.79999995232,1,4135.79999995232,0,0,NA,"Click To Continue","Continue Button",2,"object-52","Task Instructions",NA,"SUPPRF63538"
"9",1717683386261,"06/06/2024 14:16:26",1717686986261,1,"06/06/2024 16:16:26",180921,1,"task-8tuj",NA,38089483,11204534,NA,"complete",NA,"computer","Desktop or Laptop","Windows 10","Chrome 125.0.0.0","1536x864","1536x703",NA,NA,0,"Task Introduction and Instructions (re-introduce video and audio) (Clone) (Clone)",3,"GHFIEADBC","Passed AC2",NA,"Spreadsheet1","Spreadsheet1",1,"Task Instructions","Screen 5","8nvnao",8,"continue","",3079.40000004768,3066.89999999999,3079.40000004768,3079.40000004768,3066.89999999999,3079.40000004768,1,3079.40000004768,0,0,NA,"Click To Continue","Continue Button",2,"object-44","Task Instructions",NA,"SUPPRF63538"
"10",1717683386267,"06/06/2024 14:16:26",1717686986267,1,"06/06/2024 16:16:26",180921,1,"task-8tuj",NA,38089483,11204534,NA,"complete",NA,"computer","Desktop or Laptop","Windows 10","Chrome 125.0.0.0","1536x864","1536x703",NA,NA,0,"Task Introduction and Instructions (re-introduce video and audio) (Clone) (Clone)",3,"GHFIEADBC","Passed AC2",NA,"Spreadsheet1","Spreadsheet1",NA,"","","",NA,"info","END",NA,NA,NA,NA,NA,NA,0,NA,NA,NA,NA,"","",NA,"","",NA,"SUPPRF63538"
"1",1717683454519,"06/06/2024 14:17:34",1717669054519,-4,"06/06/2024 06:17:34",180921,1,"task-8tuj",NA,38089552,11204422,NA,"complete",NA,"computer","Desktop or Laptop","Windows 10","Chrome 125.0.0.0","1536x864","1536x730",NA,NA,0,"Task Introduction and Instructions (re-introduce video and audio) (Clone) (Clone)",3,"FGEHDICAB","Passed AC2",NA,"Spreadsheet1","Spreadsheet1",NA,"","","",NA,"info","BEGIN",NA,NA,NA,NA,NA,NA,0,NA,NA,NA,NA,"","",NA,"","",NA,"SUPPRF77309"
"2",1717683460276,"06/06/2024 14:17:40",1717669060276,-4,"06/06/2024 06:17:40",180921,1,"task-8tuj",NA,38089552,11204422,NA,"complete",NA,"computer","Desktop or Laptop","Windows 10","Chrome 125.0.0.0","1536x864","1536x730",NA,NA,0,"Task Introduction and Instructions (re-introduce video and audio) (Clone) (Clone)",3,"FGEHDICAB","Passed AC2",NA,"Spreadsheet1","Spreadsheet1",1,"Task Instructions","Screen 1","anr7sn",1,"continue","",4762.59999997616,4753.7,4762.59999997616,4762.59999997616,4753.7,4762.59999997616,1,4762.59999997616,0,0,NA,"Click To Continue","Continue Button",3,"object-60","Task Instructions",NA,"SUPPRF77309"
"3",1717683463522,"06/06/2024 14:17:43",1717669063522,-4,"06/06/2024 06:17:43",180921,1,"task-8tuj",NA,38089552,11204422,NA,"complete",NA,"computer","Desktop or Laptop","Windows 10","Chrome 125.0.0.0","1536x864","1536x730",NA,NA,0,"Task Introduction and Instructions (re-introduce video and audio) (Clone) (Clone)",3,"FGEHDICAB","Passed AC2",NA,"Spreadsheet1","Spreadsheet1",1,"Task Instructions","Screen 4","spepx9",2,"continue","",3253.8,3237.1,3253.8,3253.8,3237.1,3253.8,1,3253.8,0,0,NA,"Click To Continue","Continue Button",2,"object-9","Task Instructions",NA,"SUPPRF77309"
"4",1717683480072,"06/06/2024 14:18:00",1717669080072,-4,"06/06/2024 06:18:00",180921,1,"task-8tuj",NA,38089552,11204422,NA,"complete",NA,"computer","Desktop or Laptop","Windows 10","Chrome 125.0.0.0","1536x864","1536x730",NA,NA,0,"Task Introduction and Instructions (re-introduce video and audio) (Clone) (Clone)",3,"FGEHDICAB","Passed AC2",NA,"Spreadsheet1","Spreadsheet1",1,"Task Instructions","Screen 2","ce2tc8",3,"continue","",16567.1999999523,16553.2,16567.1999999523,16567.1999999523,16553.2,16567.1999999523,1,16567.1999999523,0,0,NA,"Click To Continue","Continue Button",3,"object-59","Task Instructions",NA,"SUPPRF77309"
"5",1717683490879,"06/06/2024 14:18:10",1717669090879,-4,"06/06/2024 06:18:10",180921,1,"task-8tuj",NA,38089552,11204422,NA,"complete",NA,"computer","Desktop or Laptop","Windows 10","Chrome 125.0.0.0","1536x864","1536x730",NA,NA,0,"Task Introduction and Instructions (re-introduce video and audio) (Clone) (Clone)",3,"FGEHDICAB","Passed AC2",NA,"Spreadsheet1","Spreadsheet1",1,"Task Instructions","Screen 3","1qtc8v",4,"continue","",10821.0999999762,10815.6,10821.0999999762,10821.0999999762,10815.6,10821.0999999762,1,10821.0999999762,0,0,NA,"Click To Continue","Continue Button",2,"object-2983","Task Instructions",NA,"SUPPRF77309"
"6",1717683504203,"06/06/2024 14:18:24",1717669104203,-4,"06/06/2024 06:18:24",180921,1,"task-8tuj",NA,38089552,11204422,NA,"complete",NA,"computer","Desktop or Laptop","Windows 10","Chrome 125.0.0.0","1536x864","1536x730",NA,NA,0,"Task Introduction and Instructions (re-introduce video and audio) (Clone) (Clone)",3,"FGEHDICAB","Passed AC2",NA,"Spreadsheet1","Spreadsheet1",1,"Task Instructions","Screen 12","1a4vu2",5,"continue","",13330,13313.3,13330,13330,13313.3,13330,1,13330,0,0,NA,"Click To Continue","Continue Button",2,"object-2466","Task Instructions",NA,"SUPPRF77309"
"7",1717683551327,"06/06/2024 14:19:11",1717669151327,-4,"06/06/2024 06:19:11",180921,1,"task-8tuj",NA,38089552,11204422,NA,"complete",NA,"computer","Desktop or Laptop","Windows 10","Chrome 125.0.0.0","1536x864","1536x730",NA,NA,0,"Task Introduction and Instructions (re-introduce video and audio) (Clone) (Clone)",3,"FGEHDICAB","Passed AC2",NA,"Spreadsheet1","Spreadsheet1",1,"Task Instructions","Screen 13","q9vwda",6,"continue","",47140.4000000238,47135.9,47140.4000000238,47140.4000000238,47135.9,47140.4000000238,1,47140.4000000238,0,0,NA,"Click To Continue","Continue Button",2,"object-2989","Task Instructions",NA,"SUPPRF77309"
"8",1717683555051,"06/06/2024 14:19:15",1717669155051,-4,"06/06/2024 06:19:15",180921,1,"task-8tuj",NA,38089552,11204422,NA,"complete",NA,"computer","Desktop or Laptop","Windows 10","Chrome 125.0.0.0","1536x864","1536x730",NA,NA,0,"Task Introduction and Instructions (re-introduce video and audio) (Clone) (Clone)",3,"FGEHDICAB","Passed AC2",NA,"Spreadsheet1","Spreadsheet1",1,"Task Instructions","Screen 11","oyulb7",7,"continue","",3728.10000004768,3717.39999999999,3728.10000004768,3728.10000004768,3717.39999999999,3728.10000004768,1,3728.10000004768,0,0,NA,"Click To Continue","Continue Button",2,"object-52","Task Instructions",NA,"SUPPRF77309"
"9",1717683558067,"06/06/2024 14:19:18",1717669158067,-4,"06/06/2024 06:19:18",180921,1,"task-8tuj",NA,38089552,11204422,NA,"complete",NA,"computer","Desktop or Laptop","Windows 10","Chrome 125.0.0.0","1536x864","1536x730",NA,NA,0,"Task Introduction and Instructions (re-introduce video and audio) (Clone) (Clone)",3,"FGEHDICAB","Passed AC2",NA,"Spreadsheet1","Spreadsheet1",1,"Task Instructions","Screen 5","8nvnao",8,"continue","",3027.29999995232,3015.10000000001,3027.29999995232,3027.29999995232,3015.10000000001,3027.29999995232,1,3027.29999995232,0,0,NA,"Click To Continue","Continue Button",2,"object-44","Task Instructions",NA,"SUPPRF77309"
"10",1717683558071,"06/06/2024 14:19:18",1717669158071,-4,"06/06/2024 06:19:18",180921,1,"task-8tuj",NA,38089552,11204422,NA,"complete",NA,"computer","Desktop or Laptop","Windows 10","Chrome 125.0.0.0","1536x864","1536x730",NA,NA,0,"Task Introduction and Instructions (re-introduce video and audio) (Clone) (Clone)",3,"FGEHDICAB","Passed AC2",NA,"Spreadsheet1","Spreadsheet1",NA,"","","",NA,"info","END",NA,NA,NA,NA,NA,NA,0,NA,NA,NA,NA,"","",NA,"","",NA,"SUPPRF77309"
"1",1717683286950,"06/06/2024 14:14:46",1717686886950,1,"06/06/2024 16:14:46",180921,1,"task-8tuj",NA,38089454,11204549,NA,"complete",NA,"computer","Desktop or Laptop","Mac OS 10.15.7","Chrome 124.0.0.0","1440x900","1440x737",NA,NA,0,"Task Introduction and Instructions (re-introduce video and audio) (Clone) (Clone)",3,"HIGAFBECD","Passed AC2",NA,"Spreadsheet1","Spreadsheet1",NA,"","","",NA,"info","BEGIN",NA,NA,NA,NA,NA,NA,0,NA,NA,NA,NA,"","",NA,"","",NA,"SUPPRF20931"
"2",1717683290868,"06/06/2024 14:14:50",1717686890868,1,"06/06/2024 16:14:50",180921,1,"task-8tuj",NA,38089454,11204549,NA,"complete",NA,"computer","Desktop or Laptop","Mac OS 10.15.7","Chrome 124.0.0.0","1440x900","1440x737",NA,NA,0,"Task Introduction and Instructions (re-introduce video and audio) (Clone) (Clone)",3,"HIGAFBECD","Passed AC2",NA,"Spreadsheet1","Spreadsheet1",1,"Task Instructions","Screen 1","anr7sn",1,"continue","",3834.3,3817.6,3834.3,3834.3,3817.6,3834.3,1,3834.3,0,0,NA,"Click To Continue","Continue Button",3,"object-60","Task Instructions",NA,"SUPPRF20931"
"3",1717683293785,"06/06/2024 14:14:53",1717686893785,1,"06/06/2024 16:14:53",180921,1,"task-8tuj",NA,38089454,11204549,NA,"complete",NA,"computer","Desktop or Laptop","Mac OS 10.15.7","Chrome 124.0.0.0","1440x900","1440x737",NA,NA,0,"Task Introduction and Instructions (re-introduce video and audio) (Clone) (Clone)",3,"HIGAFBECD","Passed AC2",NA,"Spreadsheet1","Spreadsheet1",1,"Task Instructions","Screen 4","spepx9",2,"continue","",2949.8,2933.2,2949.8,2949.8,2933.2,2949.8,1,2949.8,0,0,NA,"Click To Continue","Continue Button",2,"object-9","Task Instructions",NA,"SUPPRF20931"
"4",1717683303277,"06/06/2024 14:15:03",1717686903277,1,"06/06/2024 16:15:03",180921,1,"task-8tuj",NA,38089454,11204549,NA,"complete",NA,"computer","Desktop or Laptop","Mac OS 10.15.7","Chrome 124.0.0.0","1440x900","1440x737",NA,NA,0,"Task Introduction and Instructions (re-introduce video and audio) (Clone) (Clone)",3,"HIGAFBECD","Passed AC2",NA,"Spreadsheet1","Spreadsheet1",1,"Task Instructions","Screen 2","ce2tc8",3,"continue","",9511.9999997139,9500.1,9511.9999997139,9511.9999997139,9500.1,9511.9999997139,1,9511.9999997139,0,0,NA,"Click To Continue","Continue Button",3,"object-59","Task Instructions",NA,"SUPPRF20931"
"5",1717683314086,"06/06/2024 14:15:14",1717686914086,1,"06/06/2024 16:15:14",180921,1,"task-8tuj",NA,38089454,11204549,NA,"complete",NA,"computer","Desktop or Laptop","Mac OS 10.15.7","Chrome 124.0.0.0","1440x900","1440x737",NA,NA,0,"Task Introduction and Instructions (re-introduce video and audio) (Clone) (Clone)",3,"HIGAFBECD","Passed AC2",NA,"Spreadsheet1","Spreadsheet1",1,"Task Instructions","Screen 3","1qtc8v",4,"continue","",10816.5,10799.9,10816.5,10816.5,10799.9,10816.5,1,10816.5,0,0,NA,"Click To Continue","Continue Button",2,"object-2983","Task Instructions",NA,"SUPPRF20931"
"6",1717683319914,"06/06/2024 14:15:19",1717686919914,1,"06/06/2024 16:15:19",180921,1,"task-8tuj",NA,38089454,11204549,NA,"complete",NA,"computer","Desktop or Laptop","Mac OS 10.15.7","Chrome 124.0.0.0","1440x900","1440x737",NA,NA,0,"Task Introduction and Instructions (re-introduce video and audio) (Clone) (Clone)",3,"HIGAFBECD","Passed AC2",NA,"Spreadsheet1","Spreadsheet1",1,"Task Instructions","Screen 12","1a4vu2",5,"continue","",5850.09999999999,5833.4,5850.09999999999,5850.09999999999,5833.4,5850.09999999999,1,5850.09999999999,0,0,NA,"Click To Continue","Continue Button",2,"object-2466","Task Instructions",NA,"SUPPRF20931"
"7",1717683328302,"06/06/2024 14:15:28",1717686928302,1,"06/06/2024 16:15:28",180921,1,"task-8tuj",NA,38089454,11204549,NA,"complete",NA,"computer","Desktop or Laptop","Mac OS 10.15.7","Chrome 124.0.0.0","1440x900","1440x737",NA,NA,0,"Task Introduction and Instructions (re-introduce video and audio) (Clone) (Clone)",3,"HIGAFBECD","Passed AC2",NA,"Spreadsheet1","Spreadsheet1",1,"Task Instructions","Screen 13","q9vwda",6,"continue","",8407.3,8399,8407.3,8407.3,8399,8407.3,1,8407.3,0,0,NA,"Click To Continue","Continue Button",2,"object-2989","Task Instructions",NA,"SUPPRF20931"
