"Event.Index","UTC.Timestamp","UTC.Date.and.Time","Local.Timestamp","Local.Timezone","Local.Date.and.Time","Experiment.ID","Experiment.Version","Tree.Node.Key","Repeat.Key","Schedule.ID","Participant.Private.ID","Participant.Starting.Group","Participant.Status","Participant.Completion.Code","Participant.External.Session.ID","Participant.Device.Type","Participant.Device","Participant.OS","Participant.Browser","Participant.Monitor.Size","Participant.Viewport.Size","Checkpoint","Room.ID","Room.Order","Task.Name","Task.Version","order.ot79","branch.g31k","branch.5gtn","Spreadsheet","Trial.Number","Display","Screen","Screen.ID","Screen.Counter","Response.Type","Response","Onset.Time","Clock.Time","Reaction.Time","Absolute.Onset.Time","Absolute.Clock.Time","Absolute.Reaction.Time","Correct","Response.Onset","Response.Duration","Proportion","Tag","Component.Name","Object.Name","Object.Number","Object.ID","Spreadsheet..display","Manipulation..Spreadsheet","Random_ID"
"1",1698418789050,"27/10/2023 14:59:49",1698422389050,1,"27/10/2023 16:59:49",149662,3,"task-ybli",NA,32534139,9628414,NA,"rejected - time limit reached",NA,"653bce2a7fa6f396900dfb99","computer","Desktop or Laptop","Windows 10","Edge 118.0.2088.61","1280x720","1272x598",NA,NA,0,"Task Introduction and Instructions (removed audio and video)",3,"ABJCIDHEGF","Passed AC2","","Spreadsheet1",NA,"","","",NA,"5","BEGIN",NA,NA,NA,NA,NA,NA,0,NA,NA,NA,NA,"","",NA,"","",NA,"SUPPRF31333"
"2",1698418793003,"27/10/2023 14:59:53",1698422393003,1,"27/10/2023 16:59:53",149662,3,"task-ybli",NA,32534139,9628414,NA,"rejected - time limit reached",NA,"653bce2a7fa6f396900dfb99","computer","Desktop or Laptop","Windows 10","Edge 118.0.2088.61","1280x720","1272x598",NA,NA,0,"Task Introduction and Instructions (removed audio and video)",3,"ABJCIDHEGF","Passed AC2","","Spreadsheet1",1,"Task Instructions","Screen 1","anr7sn",1,"continue","",3804.001,3799.482,3804.001,3804.001,3799.482,3804.001,1,3804.001,0,0,NA,"Click To Continue","Continue Button",2,"object-1944","Task Instructions",NA,"SUPPRF31333"
"3",1698418800807,"27/10/2023 15:00:00",1698422400807,1,"27/10/2023 17:00:00",149662,3,"task-ybli",NA,32534139,9628414,NA,"rejected - time limit reached",NA,"653bce2a7fa6f396900dfb99","computer","Desktop or Laptop","Windows 10","Edge 118.0.2088.61","1280x720","1272x598",NA,NA,0,"Task Introduction and Instructions (removed audio and video)",3,"ABJCIDHEGF","Passed AC2","","Spreadsheet1",1,"Task Instructions","Screen 2","ce2tc8",2,"continue","",7808.71899998808,7799.394,7808.71899998808,7808.71899998808,7799.394,7808.71899998808,1,7808.71899998808,0,0,NA,"Click To Continue","Continue Button",2,"object-7","Task Instructions",NA,"SUPPRF31333"
"4",1698418803592,"27/10/2023 15:00:03",1698422403592,1,"27/10/2023 17:00:03",149662,3,"task-ybli",NA,32534139,9628414,NA,"rejected - time limit reached",NA,"653bce2a7fa6f396900dfb99","computer","Desktop or Laptop","Windows 10","Edge 118.0.2088.61","1280x720","1272x598",NA,NA,0,"Task Introduction and Instructions (removed audio and video)",3,"ABJCIDHEGF","Passed AC2","","Spreadsheet1",1,"Task Instructions","Screen 5","spepx9",3,"continue","",2794.125,2782.69,2794.125,2794.125,2782.69,2794.125,1,2794.125,0,0,NA,"Click To Continue","Continue Button",2,"object-9","Task Instructions",NA,"SUPPRF31333"
"5",1698418806918,"27/10/2023 15:00:06",1698422406918,1,"27/10/2023 17:00:06",149662,3,"task-ybli",NA,32534139,9628414,NA,"rejected - time limit reached",NA,"653bce2a7fa6f396900dfb99","computer","Desktop or Laptop","Windows 10","Edge 118.0.2088.61","1280x720","1272x598",NA,NA,0,"Task Introduction and Instructions (removed audio and video)",3,"ABJCIDHEGF","Passed AC2","","Spreadsheet1",1,"Task Instructions","Screen 9","8nvnao",4,"continue","",3337.83499997616,3332.962,3337.83499997616,3337.83499997616,3332.962,3337.83499997616,1,3337.83499997616,0,0,NA,"Click To Continue","Continue Button",2,"object-44","Task Instructions",NA,"SUPPRF31333"
"6",1698418806919,"27/10/2023 15:00:06",1698422406919,1,"27/10/2023 17:00:06",149662,3,"task-ybli",NA,32534139,9628414,NA,"rejected - time limit reached",NA,"653bce2a7fa6f396900dfb99","computer","Desktop or Laptop","Windows 10","Edge 118.0.2088.61","1280x720","1272x598",NA,NA,0,"Task Introduction and Instructions (removed audio and video)",3,"ABJCIDHEGF","Passed AC2","","Spreadsheet1",NA,"","","",NA,"5","END",NA,NA,NA,NA,NA,NA,0,NA,NA,NA,NA,"","",NA,"","",NA,"SUPPRF31333"
"1",1698419877873,"27/10/2023 15:17:57",1698423477873,1,"27/10/2023 17:17:57",149662,3,"task-ybli",NA,32534624,9628509,NA,"rejected - time limit reached",NA,"653bd26c013ccdd8ac4e6b6a","computer","Desktop or Laptop","Windows 10","Chrome 118.0.0.0","1366x768","1366x611",NA,NA,0,"Task Introduction and Instructions (removed audio and video)",3,"DECFBGAHJI","Passed AC2","","Spreadsheet1",NA,"","","",NA,"5","BEGIN",NA,NA,NA,NA,NA,NA,0,NA,NA,NA,NA,"","",NA,"","",NA,"SUPPRF94864"
"2",1698419880932,"27/10/2023 15:18:00",1698423480932,1,"27/10/2023 17:18:00",149662,3,"task-ybli",NA,32534624,9628509,NA,"rejected - time limit reached",NA,"653bd26c013ccdd8ac4e6b6a","computer","Desktop or Laptop","Windows 10","Chrome 118.0.0.0","1366x768","1366x611",NA,NA,0,"Task Introduction and Instructions (removed audio and video)",3,"DECFBGAHJI","Passed AC2","","Spreadsheet1",1,"Task Instructions","Screen 1","anr7sn",1,"continue","",2787.459,2782.661,2787.459,2787.459,2782.661,2787.459,1,2787.459,0,0,NA,"Click To Continue","Continue Button",2,"object-1944","Task Instructions",NA,"SUPPRF94864"
"3",1698419888645,"27/10/2023 15:18:08",1698423488645,1,"27/10/2023 17:18:08",149662,3,"task-ybli",NA,32534624,9628509,NA,"rejected - time limit reached",NA,"653bd26c013ccdd8ac4e6b6a","computer","Desktop or Laptop","Windows 10","Chrome 118.0.0.0","1366x768","1366x611",NA,NA,0,"Task Introduction and Instructions (removed audio and video)",3,"DECFBGAHJI","Passed AC2","","Spreadsheet1",1,"Task Instructions","Screen 2","ce2tc8",2,"continue","",7717.798,7714.531,7717.798,7717.798,7714.531,7717.798,1,7717.798,0,0,NA,"Click To Continue","Continue Button",2,"object-7","Task Instructions",NA,"SUPPRF94864"
"4",1698419891452,"27/10/2023 15:18:11",1698423491452,1,"27/10/2023 17:18:11",149662,3,"task-ybli",NA,32534624,9628509,NA,"rejected - time limit reached",NA,"653bd26c013ccdd8ac4e6b6a","computer","Desktop or Laptop","Windows 10","Chrome 118.0.0.0","1366x768","1366x611",NA,NA,0,"Task Introduction and Instructions (removed audio and video)",3,"DECFBGAHJI","Passed AC2","","Spreadsheet1",1,"Task Instructions","Screen 5","spepx9",3,"continue","",2810.86700000149,2799.013,2810.86700000149,2810.86700000149,2799.013,2810.86700000149,1,2810.86700000149,0,0,NA,"Click To Continue","Continue Button",2,"object-9","Task Instructions",NA,"SUPPRF94864"
"5",1698419894314,"27/10/2023 15:18:14",1698423494314,1,"27/10/2023 17:18:14",149662,3,"task-ybli",NA,32534624,9628509,NA,"rejected - time limit reached",NA,"653bd26c013ccdd8ac4e6b6a","computer","Desktop or Laptop","Windows 10","Chrome 118.0.0.0","1366x768","1366x611",NA,NA,0,"Task Introduction and Instructions (removed audio and video)",3,"DECFBGAHJI","Passed AC2","","Spreadsheet1",1,"Task Instructions","Screen 9","8nvnao",4,"continue","",2873.95400000298,2865.937,2873.95400000298,2873.95400000298,2865.937,2873.95400000298,1,2873.95400000298,0,0,NA,"Click To Continue","Continue Button",2,"object-44","Task Instructions",NA,"SUPPRF94864"
"6",1698419894316,"27/10/2023 15:18:14",1698423494316,1,"27/10/2023 17:18:14",149662,3,"task-ybli",NA,32534624,9628509,NA,"rejected - time limit reached",NA,"653bd26c013ccdd8ac4e6b6a","computer","Desktop or Laptop","Windows 10","Chrome 118.0.0.0","1366x768","1366x611",NA,NA,0,"Task Introduction and Instructions (removed audio and video)",3,"DECFBGAHJI","Passed AC2","","Spreadsheet1",NA,"","","",NA,"5","END",NA,NA,NA,NA,NA,NA,0,NA,NA,NA,NA,"","",NA,"","",NA,"SUPPRF94864"
"1",1698420035429,"27/10/2023 15:20:35",1698423635429,1,"27/10/2023 17:20:35",149662,3,"task-ybli",NA,32534742,9628473,NA,"complete",NA,"653bd109a5cd458e981c2df1","computer","Desktop or Laptop","Mac OS 10.15.7","Safari 14.0.3","1440x900","1440x837",NA,NA,0,"Task Introduction and Instructions (removed audio and video)",3,"BCADJEIFHG","Passed AC2","","Spreadsheet1",NA,"","","",NA,"5","BEGIN",NA,NA,NA,NA,NA,NA,0,NA,NA,NA,NA,"","",NA,"","",NA,"SUPPRF53839"
"2",1698420078580,"27/10/2023 15:21:18",1698423678580,1,"27/10/2023 17:21:18",149662,3,"task-ybli",NA,32534742,9628473,NA,"complete",NA,"653bd109a5cd458e981c2df1","computer","Desktop or Laptop","Mac OS 10.15.7","Safari 14.0.3","1440x900","1440x837",NA,NA,0,"Task Introduction and Instructions (removed audio and video)",3,"BCADJEIFHG","Passed AC2","","Spreadsheet1",1,"Task Instructions","Screen 1","anr7sn",1,"continue","",42858,42853,42858,42858,42853,42858,1,42858,0,0,NA,"Click To Continue","Continue Button",2,"object-1944","Task Instructions",NA,"SUPPRF53839"
"3",1698420083056,"27/10/2023 15:21:23",1698423683056,1,"27/10/2023 17:21:23",149662,3,"task-ybli",NA,32534742,9628473,NA,"complete",NA,"653bd109a5cd458e981c2df1","computer","Desktop or Laptop","Mac OS 10.15.7","Safari 14.0.3","1440x900","1440x837",NA,NA,0,"Task Introduction and Instructions (removed audio and video)",3,"BCADJEIFHG","Passed AC2","","Spreadsheet1",1,"Task Instructions","Screen 2","ce2tc8",2,"continue","",4481,4467,4481,4481,4467,4481,1,4481,0,0,NA,"Click To Continue","Continue Button",2,"object-7","Task Instructions",NA,"SUPPRF53839"
"4",1698420102637,"27/10/2023 15:21:42",1698423702637,1,"27/10/2023 17:21:42",149662,3,"task-ybli",NA,32534742,9628473,NA,"complete",NA,"653bd109a5cd458e981c2df1","computer","Desktop or Laptop","Mac OS 10.15.7","Safari 14.0.3","1440x900","1440x837",NA,NA,0,"Task Introduction and Instructions (removed audio and video)",3,"BCADJEIFHG","Passed AC2","","Spreadsheet1",1,"Task Instructions","Screen 5","spepx9",3,"continue","",19594,19585,19594,19594,19585,19594,1,19594,0,0,NA,"Click To Continue","Continue Button",2,"object-9","Task Instructions",NA,"SUPPRF53839"
"5",1698420106534,"27/10/2023 15:21:46",1698423706534,1,"27/10/2023 17:21:46",149662,3,"task-ybli",NA,32534742,9628473,NA,"complete",NA,"653bd109a5cd458e981c2df1","computer","Desktop or Laptop","Mac OS 10.15.7","Safari 14.0.3","1440x900","1440x837",NA,NA,0,"Task Introduction and Instructions (removed audio and video)",3,"BCADJEIFHG","Passed AC2","","Spreadsheet1",1,"Task Instructions","Screen 9","8nvnao",4,"continue","",3906,3900,3906,3906,3900,3906,1,3906,0,0,NA,"Click To Continue","Continue Button",2,"object-44","Task Instructions",NA,"SUPPRF53839"
"6",1698420106539,"27/10/2023 15:21:46",1698423706539,1,"27/10/2023 17:21:46",149662,3,"task-ybli",NA,32534742,9628473,NA,"complete",NA,"653bd109a5cd458e981c2df1","computer","Desktop or Laptop","Mac OS 10.15.7","Safari 14.0.3","1440x900","1440x837",NA,NA,0,"Task Introduction and Instructions (removed audio and video)",3,"BCADJEIFHG","Passed AC2","","Spreadsheet1",NA,"","","",NA,"5","END",NA,NA,NA,NA,NA,NA,0,NA,NA,NA,NA,"","",NA,"","",NA,"SUPPRF53839"
"1",1698420123976,"27/10/2023 15:22:03",1698423723976,1,"27/10/2023 17:22:03",149662,3,"task-ybli",NA,32534794,9628512,NA,"complete",NA,"653bd2522953810b3c4366d5","computer","Desktop or Laptop","Chromium OS 14541.0.0","Chrome 118.0.0.0","1366x768","1366x644",NA,NA,0,"Task Introduction and Instructions (removed audio and video)",3,"EFDGCHBIAJ","Passed AC2","","Spreadsheet1",NA,"","","",NA,"5","BEGIN",NA,NA,NA,NA,NA,NA,0,NA,NA,NA,NA,"","",NA,"","",NA,"SUPPRF18559"
"2",1698420133808,"27/10/2023 15:22:13",1698423733808,1,"27/10/2023 17:22:13",149662,3,"task-ybli",NA,32534794,9628512,NA,"complete",NA,"653bd2522953810b3c4366d5","computer","Desktop or Laptop","Chromium OS 14541.0.0","Chrome 118.0.0.0","1366x768","1366x644",NA,NA,0,"Task Introduction and Instructions (removed audio and video)",3,"EFDGCHBIAJ","Passed AC2","","Spreadsheet1",1,"Task Instructions","Screen 1","anr7sn",1,"continue","",9704.242,9687.575,9704.242,9704.242,9687.575,9704.242,1,9704.242,0,0,NA,"Click To Continue","Continue Button",2,"object-1944","Task Instructions",NA,"SUPPRF18559"
"3",1698420136603,"27/10/2023 15:22:16",1698423736603,1,"27/10/2023 17:22:16",149662,3,"task-ybli",NA,32534794,9628512,NA,"complete",NA,"653bd2522953810b3c4366d5","computer","Desktop or Laptop","Chromium OS 14541.0.0","Chrome 118.0.0.0","1366x768","1366x644",NA,NA,0,"Task Introduction and Instructions (removed audio and video)",3,"EFDGCHBIAJ","Passed AC2","","Spreadsheet1",1,"Task Instructions","Screen 2","ce2tc8",2,"continue","",2814.132,2797.465,2814.132,2814.132,2797.465,2814.132,1,2814.132,0,0,NA,"Click To Continue","Continue Button",2,"object-7","Task Instructions",NA,"SUPPRF18559"
"4",1698420139139,"27/10/2023 15:22:19",1698423739139,1,"27/10/2023 17:22:19",149662,3,"task-ybli",NA,32534794,9628512,NA,"complete",NA,"653bd2522953810b3c4366d5","computer","Desktop or Laptop","Chromium OS 14541.0.0","Chrome 118.0.0.0","1366x768","1366x644",NA,NA,0,"Task Introduction and Instructions (removed audio and video)",3,"EFDGCHBIAJ","Passed AC2","","Spreadsheet1",1,"Task Instructions","Screen 5","spepx9",3,"continue","",2553.18099999981,2546.399,2553.18099999981,2553.18099999981,2546.399,2553.18099999981,1,2553.18099999981,0,0,NA,"Click To Continue","Continue Button",2,"object-9","Task Instructions",NA,"SUPPRF18559"
"5",1698420142150,"27/10/2023 15:22:22",1698423742150,1,"27/10/2023 17:22:22",149662,3,"task-ybli",NA,32534794,9628512,NA,"complete",NA,"653bd2522953810b3c4366d5","computer","Desktop or Laptop","Chromium OS 14541.0.0","Chrome 118.0.0.0","1366x768","1366x644",NA,NA,0,"Task Introduction and Instructions (removed audio and video)",3,"EFDGCHBIAJ","Passed AC2","","Spreadsheet1",1,"Task Instructions","Screen 9","8nvnao",4,"continue","",3018.38199999944,3012.365,3018.38199999944,3018.38199999944,3012.365,3018.38199999944,1,3018.38199999944,0,0,NA,"Click To Continue","Continue Button",2,"object-44","Task Instructions",NA,"SUPPRF18559"
"6",1698420142162,"27/10/2023 15:22:22",1698423742162,1,"27/10/2023 17:22:22",149662,3,"task-ybli",NA,32534794,9628512,NA,"complete",NA,"653bd2522953810b3c4366d5","computer","Desktop or Laptop","Chromium OS 14541.0.0","Chrome 118.0.0.0","1366x768","1366x644",NA,NA,0,"Task Introduction and Instructions (removed audio and video)",3,"EFDGCHBIAJ","Passed AC2","","Spreadsheet1",NA,"","","",NA,"5","END",NA,NA,NA,NA,NA,NA,0,NA,NA,NA,NA,"","",NA,"","",NA,"SUPPRF18559"
"1",1698420150106,"27/10/2023 15:22:30",1698423750106,1,"27/10/2023 17:22:30",149662,3,"task-ybli",NA,32534809,9628544,NA,"complete",NA,"653bd31ad282486159ee405e","computer","Desktop or Laptop","Windows 10","Chrome 118.0.0.0","1280x720","1280x585",NA,NA,0,"Task Introduction and Instructions (removed audio and video)",3,"ABJCIDHEGF","Passed AC2","","Spreadsheet1",NA,"","","",NA,"5","BEGIN",NA,NA,NA,NA,NA,NA,0,NA,NA,NA,NA,"","",NA,"","",NA,"SUPPRF98014"
"2",1698420153501,"27/10/2023 15:22:33",1698423753501,1,"27/10/2023 17:22:33",149662,3,"task-ybli",NA,32534809,9628544,NA,"complete",NA,"653bd31ad282486159ee405e","computer","Desktop or Laptop","Windows 10","Chrome 118.0.0.0","1280x720","1280x585",NA,NA,0,"Task Introduction and Instructions (removed audio and video)",3,"ABJCIDHEGF","Passed AC2","","Spreadsheet1",1,"Task Instructions","Screen 1","anr7sn",1,"continue","",3265.887,3249.579,3265.887,3265.887,3249.579,3265.887,1,3265.887,0,0,NA,"Click To Continue","Continue Button",2,"object-1944","Task Instructions",NA,"SUPPRF98014"
"3",1698420160967,"27/10/2023 15:22:40",1698423760967,1,"27/10/2023 17:22:40",149662,3,"task-ybli",NA,32534809,9628544,NA,"complete",NA,"653bd31ad282486159ee405e","computer","Desktop or Laptop","Windows 10","Chrome 118.0.0.0","1280x720","1280x585",NA,NA,0,"Task Introduction and Instructions (removed audio and video)",3,"ABJCIDHEGF","Passed AC2","","Spreadsheet1",1,"Task Instructions","Screen 2","ce2tc8",2,"continue","",7486.16900009537,7482.407,7486.16900009537,7486.16900009537,7482.407,7486.16900009537,1,7486.16900009537,0,0,NA,"Click To Continue","Continue Button",2,"object-7","Task Instructions",NA,"SUPPRF98014"
"4",1698420164702,"27/10/2023 15:22:44",1698423764702,1,"27/10/2023 17:22:44",149662,3,"task-ybli",NA,32534809,9628544,NA,"complete",NA,"653bd31ad282486159ee405e","computer","Desktop or Laptop","Windows 10","Chrome 118.0.0.0","1280x720","1280x585",NA,NA,0,"Task Introduction and Instructions (removed audio and video)",3,"ABJCIDHEGF","Passed AC2","","Spreadsheet1",1,"Task Instructions","Screen 5","spepx9",3,"continue","",3738.06200004768,3733.164,3738.06200004768,3738.06200004768,3733.164,3738.06200004768,1,3738.06200004768,0,0,NA,"Click To Continue","Continue Button",2,"object-9","Task Instructions",NA,"SUPPRF98014"
"5",1698420167968,"27/10/2023 15:22:47",1698423767968,1,"27/10/2023 17:22:47",149662,3,"task-ybli",NA,32534809,9628544,NA,"complete",NA,"653bd31ad282486159ee405e","computer","Desktop or Laptop","Windows 10","Chrome 118.0.0.0","1280x720","1280x585",NA,NA,0,"Task Introduction and Instructions (removed audio and video)",3,"ABJCIDHEGF","Passed AC2","","Spreadsheet1",1,"Task Instructions","Screen 9","8nvnao",4,"continue","",3271.49800019074,3266.123,3271.49800019074,3271.49800019074,3266.123,3271.49800019074,1,3271.49800019074,0,0,NA,"Click To Continue","Continue Button",2,"object-44","Task Instructions",NA,"SUPPRF98014"
"6",1698420167973,"27/10/2023 15:22:47",1698423767973,1,"27/10/2023 17:22:47",149662,3,"task-ybli",NA,32534809,9628544,NA,"complete",NA,"653bd31ad282486159ee405e","computer","Desktop or Laptop","Windows 10","Chrome 118.0.0.0","1280x720","1280x585",NA,NA,0,"Task Introduction and Instructions (removed audio and video)",3,"ABJCIDHEGF","Passed AC2","","Spreadsheet1",NA,"","","",NA,"5","END",NA,NA,NA,NA,NA,NA,0,NA,NA,NA,NA,"","",NA,"","",NA,"SUPPRF98014"
"1",1698420207709,"27/10/2023 15:23:27",1698423807709,1,"27/10/2023 17:23:27",149662,3,"task-ybli",NA,32534850,9628536,NA,"rejected - time limit reached",NA,"653bd27e7680cae353b77855","computer","Desktop or Laptop","Windows 10","Firefox 117.0","1280x720","1280x587",NA,NA,0,"Task Introduction and Instructions (removed audio and video)",3,"HIGJFAEBDC","Passed AC2","","Spreadsheet1",NA,"","","",NA,"5","BEGIN",NA,NA,NA,NA,NA,NA,0,NA,NA,NA,NA,"","",NA,"","",NA,"SUPPRF87060"
"2",1698420210853,"27/10/2023 15:23:30",1698423810853,1,"27/10/2023 17:23:30",149662,3,"task-ybli",NA,32534850,9628536,NA,"rejected - time limit reached",NA,"653bd27e7680cae353b77855","computer","Desktop or Laptop","Windows 10","Firefox 117.0","1280x720","1280x587",NA,NA,0,"Task Introduction and Instructions (removed audio and video)",3,"HIGJFAEBDC","Passed AC2","","Spreadsheet1",1,"Task Instructions","Screen 1","anr7sn",1,"continue","",3021.48,3013.84,3021.48,3021.48,3013.84,3021.48,1,3021.48,0,0,NA,"Click To Continue","Continue Button",2,"object-1944","Task Instructions",NA,"SUPPRF87060"
"3",1698420218339,"27/10/2023 15:23:38",1698423818339,1,"27/10/2023 17:23:38",149662,3,"task-ybli",NA,32534850,9628536,NA,"rejected - time limit reached",NA,"653bd27e7680cae353b77855","computer","Desktop or Laptop","Windows 10","Firefox 117.0","1280x720","1280x587",NA,NA,0,"Task Introduction and Instructions (removed audio and video)",3,"HIGJFAEBDC","Passed AC2","","Spreadsheet1",1,"Task Instructions","Screen 2","ce2tc8",2,"continue","",7494.38,7477.72,7494.38,7494.38,7477.72,7494.38,1,7494.38,0,0,NA,"Click To Continue","Continue Button",2,"object-7","Task Instructions",NA,"SUPPRF87060"
"4",1698420221745,"27/10/2023 15:23:41",1698423821745,1,"27/10/2023 17:23:41",149662,3,"task-ybli",NA,32534850,9628536,NA,"rejected - time limit reached",NA,"653bd27e7680cae353b77855","computer","Desktop or Laptop","Windows 10","Firefox 117.0","1280x720","1280x587",NA,NA,0,"Task Introduction and Instructions (removed audio and video)",3,"HIGJFAEBDC","Passed AC2","","Spreadsheet1",1,"Task Instructions","Screen 5","spepx9",3,"continue","",3422.92,3414.5,3422.92,3422.92,3414.5,3422.92,1,3422.92,0,0,NA,"Click To Continue","Continue Button",2,"object-9","Task Instructions",NA,"SUPPRF87060"
"5",1698420224816,"27/10/2023 15:23:44",1698423824816,1,"27/10/2023 17:23:44",149662,3,"task-ybli",NA,32534850,9628536,NA,"rejected - time limit reached",NA,"653bd27e7680cae353b77855","computer","Desktop or Laptop","Windows 10","Firefox 117.0","1280x720","1280x587",NA,NA,0,"Task Introduction and Instructions (removed audio and video)",3,"HIGJFAEBDC","Passed AC2","","Spreadsheet1",1,"Task Instructions","Screen 9","8nvnao",4,"continue","",3078.42,3063.8,3078.42,3078.42,3063.8,3078.42,1,3078.42,0,0,NA,"Click To Continue","Continue Button",2,"object-44","Task Instructions",NA,"SUPPRF87060"
"6",1698420224818,"27/10/2023 15:23:44",1698423824818,1,"27/10/2023 17:23:44",149662,3,"task-ybli",NA,32534850,9628536,NA,"rejected - time limit reached",NA,"653bd27e7680cae353b77855","computer","Desktop or Laptop","Windows 10","Firefox 117.0","1280x720","1280x587",NA,NA,0,"Task Introduction and Instructions (removed audio and video)",3,"HIGJFAEBDC","Passed AC2","","Spreadsheet1",NA,"","","",NA,"5","END",NA,NA,NA,NA,NA,NA,0,NA,NA,NA,NA,"","",NA,"","",NA,"SUPPRF87060"
"1",1698420287626,"27/10/2023 15:24:47",1698431087626,3,"27/10/2023 21:24:47",149662,3,"task-ybli",NA,32534938,9628543,NA,"complete",NA,"653bd1354cd0db68502060ee","computer","Desktop or Laptop","Windows 10","Chrome 118.0.0.0","1920x1080","1745x875",NA,NA,0,"Task Introduction and Instructions (removed audio and video)",3,"JAIBHCGDFE","Passed AC2","","Spreadsheet1",NA,"","","",NA,"5","BEGIN",NA,NA,NA,NA,NA,NA,0,NA,NA,NA,NA,"","",NA,"","",NA,"SUPPRF28820"
"2",1698420293989,"27/10/2023 15:24:53",1698431093989,3,"27/10/2023 21:24:53",149662,3,"task-ybli",NA,32534938,9628543,NA,"complete",NA,"653bd1354cd0db68502060ee","computer","Desktop or Laptop","Windows 10","Chrome 118.0.0.0","1920x1080","1745x875",NA,NA,0,"Task Introduction and Instructions (removed audio and video)",3,"JAIBHCGDFE","Passed AC2","","Spreadsheet1",1,"Task Instructions","Screen 1","anr7sn",1,"continue","",6216.551,6208.285,6216.551,6216.551,6208.285,6216.551,1,6216.551,0,0,NA,"Click To Continue","Continue Button",2,"object-1944","Task Instructions",NA,"SUPPRF28820"
"3",1698420304916,"27/10/2023 15:25:04",1698431104916,3,"27/10/2023 21:25:04",149662,3,"task-ybli",NA,32534938,9628543,NA,"complete",NA,"653bd1354cd0db68502060ee","computer","Desktop or Laptop","Windows 10","Chrome 118.0.0.0","1920x1080","1745x875",NA,NA,0,"Task Introduction and Instructions (removed audio and video)",3,"JAIBHCGDFE","Passed AC2","","Spreadsheet1",1,"Task Instructions","Screen 2","ce2tc8",2,"continue","",10936.7329999762,10933.052,10936.7329999762,10936.7329999762,10933.052,10936.7329999762,1,10936.7329999762,0,0,NA,"Click To Continue","Continue Button",2,"object-7","Task Instructions",NA,"SUPPRF28820"
"4",1698420307941,"27/10/2023 15:25:07",1698431107941,3,"27/10/2023 21:25:07",149662,3,"task-ybli",NA,32534938,9628543,NA,"complete",NA,"653bd1354cd0db68502060ee","computer","Desktop or Laptop","Windows 10","Chrome 118.0.0.0","1920x1080","1745x875",NA,NA,0,"Task Introduction and Instructions (removed audio and video)",3,"JAIBHCGDFE","Passed AC2","","Spreadsheet1",1,"Task Instructions","Screen 5","spepx9",3,"continue","",3029.08099995232,3024.928,3029.08099995232,3029.08099995232,3024.928,3029.08099995232,1,3029.08099995232,0,0,NA,"Click To Continue","Continue Button",2,"object-9","Task Instructions",NA,"SUPPRF28820"
"5",1698420310914,"27/10/2023 15:25:10",1698431110914,3,"27/10/2023 21:25:10",149662,3,"task-ybli",NA,32534938,9628543,NA,"complete",NA,"653bd1354cd0db68502060ee","computer","Desktop or Laptop","Windows 10","Chrome 118.0.0.0","1920x1080","1745x875",NA,NA,0,"Task Introduction and Instructions (removed audio and video)",3,"JAIBHCGDFE","Passed AC2","","Spreadsheet1",1,"Task Instructions","Screen 9","8nvnao",4,"continue","",2977.45300002384,2974.997,2977.45300002384,2977.45300002384,2974.997,2977.45300002384,1,2977.45300002384,0,0,NA,"Click To Continue","Continue Button",2,"object-44","Task Instructions",NA,"SUPPRF28820"
"6",1698420310916,"27/10/2023 15:25:10",1698431110916,3,"27/10/2023 21:25:10",149662,3,"task-ybli",NA,32534938,9628543,NA,"complete",NA,"653bd1354cd0db68502060ee","computer","Desktop or Laptop","Windows 10","Chrome 118.0.0.0","1920x1080","1745x875",NA,NA,0,"Task Introduction and Instructions (removed audio and video)",3,"JAIBHCGDFE","Passed AC2","","Spreadsheet1",NA,"","","",NA,"5","END",NA,NA,NA,NA,NA,NA,0,NA,NA,NA,NA,"","",NA,"","",NA,"SUPPRF28820"
"1",1698420326166,"27/10/2023 15:25:26",1698423926166,1,"27/10/2023 17:25:26",149662,3,"task-ybli",NA,32534974,9628514,NA,"rejected - time limit reached",NA,"653bd27cdb11d6bb6b74689d","computer","Desktop or Laptop","Windows 10","Edge 118.0.2088.69","1536x864","1488x738",NA,NA,0,"Task Introduction and Instructions (removed audio and video)",3,"FGEHDICJBA","Passed AC2","","Spreadsheet1",NA,"","","",NA,"5","BEGIN",NA,NA,NA,NA,NA,NA,0,NA,NA,NA,NA,"","",NA,"","",NA,"SUPPRF83676"
"2",1698420330993,"27/10/2023 15:25:30",1698423930993,1,"27/10/2023 17:25:30",149662,3,"task-ybli",NA,32534974,9628514,NA,"rejected - time limit reached",NA,"653bd27cdb11d6bb6b74689d","computer","Desktop or Laptop","Windows 10","Edge 118.0.2088.69","1536x864","1488x738",NA,NA,0,"Task Introduction and Instructions (removed audio and video)",3,"FGEHDICJBA","Passed AC2","","Spreadsheet1",1,"Task Instructions","Screen 1","anr7sn",1,"continue","",4776.40300000037,4766.048,4776.40300000037,4776.40300000037,4766.048,4776.40300000037,1,4776.40300000037,0,0,NA,"Click To Continue","Continue Button",2,"object-1944","Task Instructions",NA,"SUPPRF83676"
"3",1698420341034,"27/10/2023 15:25:41",1698423941034,1,"27/10/2023 17:25:41",149662,3,"task-ybli",NA,32534974,9628514,NA,"rejected - time limit reached",NA,"653bd27cdb11d6bb6b74689d","computer","Desktop or Laptop","Windows 10","Edge 118.0.2088.69","1536x864","1488x738",NA,NA,0,"Task Introduction and Instructions (removed audio and video)",3,"FGEHDICJBA","Passed AC2","","Spreadsheet1",1,"Task Instructions","Screen 2","ce2tc8",2,"continue","",10049.834,10033.312,10049.834,10049.834,10033.312,10049.834,1,10049.834,0,0,NA,"Click To Continue","Continue Button",2,"object-7","Task Instructions",NA,"SUPPRF83676"
"4",1698420345309,"27/10/2023 15:25:45",1698423945309,1,"27/10/2023 17:25:45",149662,3,"task-ybli",NA,32534974,9628514,NA,"rejected - time limit reached",NA,"653bd27cdb11d6bb6b74689d","computer","Desktop or Laptop","Windows 10","Edge 118.0.2088.69","1536x864","1488x738",NA,NA,0,"Task Introduction and Instructions (removed audio and video)",3,"FGEHDICJBA","Passed AC2","","Spreadsheet1",1,"Task Instructions","Screen 5","spepx9",3,"continue","",4293.94299999981,4283.03,4293.94299999981,4293.94299999981,4283.03,4293.94299999981,1,4293.94299999981,0,0,NA,"Click To Continue","Continue Button",2,"object-9","Task Instructions",NA,"SUPPRF83676"
"5",1698420348374,"27/10/2023 15:25:48",1698423948374,1,"27/10/2023 17:25:48",149662,3,"task-ybli",NA,32534974,9628514,NA,"rejected - time limit reached",NA,"653bd27cdb11d6bb6b74689d","computer","Desktop or Laptop","Windows 10","Edge 118.0.2088.69","1536x864","1488x738",NA,NA,0,"Task Introduction and Instructions (removed audio and video)",3,"FGEHDICJBA","Passed AC2","","Spreadsheet1",1,"Task Instructions","Screen 9","8nvnao",4,"continue","",3067.97500000001,3050.638,3067.97500000001,3067.97500000001,3050.638,3067.97500000001,1,3067.97500000001,0,0,NA,"Click To Continue","Continue Button",2,"object-44","Task Instructions",NA,"SUPPRF83676"
"6",1698420348377,"27/10/2023 15:25:48",1698423948377,1,"27/10/2023 17:25:48",149662,3,"task-ybli",NA,32534974,9628514,NA,"rejected - time limit reached",NA,"653bd27cdb11d6bb6b74689d","computer","Desktop or Laptop","Windows 10","Edge 118.0.2088.69","1536x864","1488x738",NA,NA,0,"Task Introduction and Instructions (removed audio and video)",3,"FGEHDICJBA","Passed AC2","","Spreadsheet1",NA,"","","",NA,"5","END",NA,NA,NA,NA,NA,NA,0,NA,NA,NA,NA,"","",NA,"","",NA,"SUPPRF83676"
"1",1698420483328,"27/10/2023 15:28:03",1698424083328,1,"27/10/2023 17:28:03",149662,3,"task-ybli",NA,32535109,9628540,NA,"complete",NA,"653bd3433b287c332000cf0b","computer","Desktop or Laptop","Windows 10","Chrome 118.0.0.0","1366x768","1366x633",NA,NA,0,"Task Introduction and Instructions (removed audio and video)",3,"IJHAGBFCED","Passed AC2","","Spreadsheet1",NA,"","","",NA,"5","BEGIN",NA,NA,NA,NA,NA,NA,0,NA,NA,NA,NA,"","",NA,"","",NA,"SUPPRF32902"
"2",1698420488020,"27/10/2023 15:28:08",1698424088020,1,"27/10/2023 17:28:08",149662,3,"task-ybli",NA,32535109,9628540,NA,"complete",NA,"653bd3433b287c332000cf0b","computer","Desktop or Laptop","Windows 10","Chrome 118.0.0.0","1366x768","1366x633",NA,NA,0,"Task Introduction and Instructions (removed audio and video)",3,"IJHAGBFCED","Passed AC2","","Spreadsheet1",1,"Task Instructions","Screen 1","anr7sn",1,"continue","",4360.36200002384,4349.936,4360.36200002384,4360.36200002384,4349.936,4360.36200002384,1,4360.36200002384,0,0,NA,"Click To Continue","Continue Button",2,"object-1944","Task Instructions",NA,"SUPPRF32902"
"3",1698420496378,"27/10/2023 15:28:16",1698424096378,1,"27/10/2023 17:28:16",149662,3,"task-ybli",NA,32535109,9628540,NA,"complete",NA,"653bd3433b287c332000cf0b","computer","Desktop or Laptop","Windows 10","Chrome 118.0.0.0","1366x768","1366x633",NA,NA,0,"Task Introduction and Instructions (removed audio and video)",3,"IJHAGBFCED","Passed AC2","","Spreadsheet1",1,"Task Instructions","Screen 2","ce2tc8",2,"continue","",8368.72600000596,8366.056,8368.72600000596,8368.72600000596,8366.056,8368.72600000596,1,8368.72600000596,0,0,NA,"Click To Continue","Continue Button",2,"object-7","Task Instructions",NA,"SUPPRF32902"
"4",1698420509668,"27/10/2023 15:28:29",1698424109668,1,"27/10/2023 17:28:29",149662,3,"task-ybli",NA,32535109,9628540,NA,"complete",NA,"653bd3433b287c332000cf0b","computer","Desktop or Laptop","Windows 10","Chrome 118.0.0.0","1366x768","1366x633",NA,NA,0,"Task Introduction and Instructions (removed audio and video)",3,"IJHAGBFCED","Passed AC2","","Spreadsheet1",1,"Task Instructions","Screen 5","spepx9",3,"continue","",13292.8700000238,13283.024,13292.8700000238,13292.8700000238,13283.024,13292.8700000238,1,13292.8700000238,0,0,NA,"Click To Continue","Continue Button",2,"object-9","Task Instructions",NA,"SUPPRF32902"
"5",1698420512862,"27/10/2023 15:28:32",1698424112862,1,"27/10/2023 17:28:32",149662,3,"task-ybli",NA,32535109,9628540,NA,"complete",NA,"653bd3433b287c332000cf0b","computer","Desktop or Laptop","Windows 10","Chrome 118.0.0.0","1366x768","1366x633",NA,NA,0,"Task Introduction and Instructions (removed audio and video)",3,"IJHAGBFCED","Passed AC2","","Spreadsheet1",1,"Task Instructions","Screen 9","8nvnao",4,"continue","",3203.44600001788,3199.914,3203.44600001788,3203.44600001788,3199.914,3203.44600001788,1,3203.44600001788,0,0,NA,"Click To Continue","Continue Button",2,"object-44","Task Instructions",NA,"SUPPRF32902"
"6",1698420512865,"27/10/2023 15:28:32",1698424112865,1,"27/10/2023 17:28:32",149662,3,"task-ybli",NA,32535109,9628540,NA,"complete",NA,"653bd3433b287c332000cf0b","computer","Desktop or Laptop","Windows 10","Chrome 118.0.0.0","1366x768","1366x633",NA,NA,0,"Task Introduction and Instructions (removed audio and video)",3,"IJHAGBFCED","Passed AC2","","Spreadsheet1",NA,"","","",NA,"5","END",NA,NA,NA,NA,NA,NA,0,NA,NA,NA,NA,"","",NA,"","",NA,"SUPPRF32902"
"1",1698420541025,"27/10/2023 15:29:01",1698424141025,1,"27/10/2023 17:29:01",149662,3,"task-ybli",NA,32535165,9628491,NA,"complete",NA,"653bd1d32218deb2bb0fbef1","computer","Desktop or Laptop","Windows 10","Chrome 118.0.0.0","1366x768","1366x659",NA,NA,0,"Task Introduction and Instructions (removed audio and video)",3,"CDBEAFJGIH","Passed AC2","","Spreadsheet1",NA,"","","",NA,"5","BEGIN",NA,NA,NA,NA,NA,NA,0,NA,NA,NA,NA,"","",NA,"","",NA,"SUPPRF94776"
"2",1698420544561,"27/10/2023 15:29:04",1698424144561,1,"27/10/2023 17:29:04",149662,3,"task-ybli",NA,32535165,9628491,NA,"complete",NA,"653bd1d32218deb2bb0fbef1","computer","Desktop or Laptop","Windows 10","Chrome 118.0.0.0","1366x768","1366x659",NA,NA,0,"Task Introduction and Instructions (removed audio and video)",3,"CDBEAFJGIH","Passed AC2","","Spreadsheet1",1,"Task Instructions","Screen 1","anr7sn",1,"continue","",3475.35799997616,3465.882,3475.35799997616,3475.35799997616,3465.882,3475.35799997616,1,3475.35799997616,0,0,NA,"Click To Continue","Continue Button",2,"object-1944","Task Instructions",NA,"SUPPRF94776"
"3",1698420555661,"27/10/2023 15:29:15",1698424155661,1,"27/10/2023 17:29:15",149662,3,"task-ybli",NA,32535165,9628491,NA,"complete",NA,"653bd1d32218deb2bb0fbef1","computer","Desktop or Laptop","Windows 10","Chrome 118.0.0.0","1366x768","1366x659",NA,NA,0,"Task Introduction and Instructions (removed audio and video)",3,"CDBEAFJGIH","Passed AC2","","Spreadsheet1",1,"Task Instructions","Screen 2","ce2tc8",2,"continue","",11110.8759999523,11096.528,11110.8759999523,11110.8759999523,11096.528,11110.8759999523,1,11110.8759999523,0,0,NA,"Click To Continue","Continue Button",2,"object-7","Task Instructions",NA,"SUPPRF94776"
"4",1698420558936,"27/10/2023 15:29:18",1698424158936,1,"27/10/2023 17:29:18",149662,3,"task-ybli",NA,32535165,9628491,NA,"complete",NA,"653bd1d32218deb2bb0fbef1","computer","Desktop or Laptop","Windows 10","Chrome 118.0.0.0","1366x768","1366x659",NA,NA,0,"Task Introduction and Instructions (removed audio and video)",3,"CDBEAFJGIH","Passed AC2","","Spreadsheet1",1,"Task Instructions","Screen 5","spepx9",3,"continue","",3290.24799992848,3282.983,3290.24799992848,3290.24799992848,3282.983,3290.24799992848,1,3290.24799992848,0,0,NA,"Click To Continue","Continue Button",2,"object-9","Task Instructions",NA,"SUPPRF94776"
"5",1698420561573,"27/10/2023 15:29:21",1698424161573,1,"27/10/2023 17:29:21",149662,3,"task-ybli",NA,32535165,9628491,NA,"complete",NA,"653bd1d32218deb2bb0fbef1","computer","Desktop or Laptop","Windows 10","Chrome 118.0.0.0","1366x768","1366x659",NA,NA,0,"Task Introduction and Instructions (removed audio and video)",3,"CDBEAFJGIH","Passed AC2","","Spreadsheet1",1,"Task Instructions","Screen 9","8nvnao",4,"continue","",2643.565,2631.906,2643.565,2643.565,2631.906,2643.565,1,2643.565,0,0,NA,"Click To Continue","Continue Button",2,"object-44","Task Instructions",NA,"SUPPRF94776"
"6",1698420561582,"27/10/2023 15:29:21",1698424161582,1,"27/10/2023 17:29:21",149662,3,"task-ybli",NA,32535165,9628491,NA,"complete",NA,"653bd1d32218deb2bb0fbef1","computer","Desktop or Laptop","Windows 10","Chrome 118.0.0.0","1366x768","1366x659",NA,NA,0,"Task Introduction and Instructions (removed audio and video)",3,"CDBEAFJGIH","Passed AC2","","Spreadsheet1",NA,"","","",NA,"5","END",NA,NA,NA,NA,NA,NA,0,NA,NA,NA,NA,"","",NA,"","",NA,"SUPPRF94776"
"1",1698420661844,"27/10/2023 15:31:01",1698424261844,1,"27/10/2023 17:31:01",149662,3,"task-ybli",NA,32535309,9628524,NA,"complete",NA,"653bd292778969f4e8e9aefa","computer","Desktop or Laptop","Windows 10","Chrome 118.0.0.0","1280x800","1280x683",NA,NA,0,"Task Introduction and Instructions (removed audio and video)",3,"GHFIEJDACB","Passed AC2","","Spreadsheet1",NA,"","","",NA,"5","BEGIN",NA,NA,NA,NA,NA,NA,0,NA,NA,NA,NA,"","",NA,"","",NA,"SUPPRF96217"
"2",1698420813071,"27/10/2023 15:33:33",1698424413071,1,"27/10/2023 17:33:33",149662,3,"task-ybli",NA,32535309,9628524,NA,"complete",NA,"653bd292778969f4e8e9aefa","computer","Desktop or Laptop","Windows 10","Chrome 118.0.0.0","1280x800","1280x683",NA,NA,0,"Task Introduction and Instructions (removed audio and video)",3,"GHFIEJDACB","Passed AC2","","Spreadsheet1",1,"Task Instructions","Screen 1","anr7sn",1,"continue","",151113.467,151096.798,151113.467,151113.467,151096.798,151113.467,1,151113.467,0,0,NA,"Click To Continue","Continue Button",2,"object-1944","Task Instructions",NA,"SUPPRF96217"
"3",1698420817011,"27/10/2023 15:33:37",1698424417011,1,"27/10/2023 17:33:37",149662,3,"task-ybli",NA,32535309,9628524,NA,"complete",NA,"653bd292778969f4e8e9aefa","computer","Desktop or Laptop","Windows 10","Chrome 118.0.0.0","1280x800","1280x683",NA,NA,0,"Task Introduction and Instructions (removed audio and video)",3,"GHFIEJDACB","Passed AC2","","Spreadsheet1",1,"Task Instructions","Screen 2","ce2tc8",2,"continue","",3964.3109999999,3950.18099999998,3964.3109999999,3964.3109999999,3950.18099999998,3964.3109999999,1,3964.3109999999,0,0,NA,"Click To Continue","Continue Button",2,"object-7","Task Instructions",NA,"SUPPRF96217"
"4",1698420819517,"27/10/2023 15:33:39",1698424419517,1,"27/10/2023 17:33:39",149662,3,"task-ybli",NA,32535309,9628524,NA,"complete",NA,"653bd292778969f4e8e9aefa","computer","Desktop or Laptop","Windows 10","Chrome 118.0.0.0","1280x800","1280x683",NA,NA,0,"Task Introduction and Instructions (removed audio and video)",3,"GHFIEJDACB","Passed AC2","","Spreadsheet1",1,"Task Instructions","Screen 5","spepx9",3,"continue","",2520.23000000001,2516.394,2520.23000000001,2520.23000000001,2516.394,2520.23000000001,1,2520.23000000001,0,0,NA,"Click To Continue","Continue Button",2,"object-9","Task Instructions",NA,"SUPPRF96217"
"5",1698421081097,"27/10/2023 15:38:01",1698424681097,1,"27/10/2023 17:38:01",149662,3,"task-ybli",NA,32535309,9628524,NA,"complete",NA,"653bd292778969f4e8e9aefa","computer","Desktop or Laptop","Windows 10","Chrome 118.0.0.0","1280x800","1280x683",NA,NA,0,"Task Introduction and Instructions (removed audio and video)",3,"GHFIEJDACB","Passed AC2","","Spreadsheet1",1,"Task Instructions","Screen 9","8nvnao",4,"continue","",261583.336,261571.465,261583.336,261583.336,261571.465,261583.336,1,261583.336,0,0,NA,"Click To Continue","Continue Button",2,"object-44","Task Instructions",NA,"SUPPRF96217"
"6",1698421081111,"27/10/2023 15:38:01",1698424681111,1,"27/10/2023 17:38:01",149662,3,"task-ybli",NA,32535309,9628524,NA,"complete",NA,"653bd292778969f4e8e9aefa","computer","Desktop or Laptop","Windows 10","Chrome 118.0.0.0","1280x800","1280x683",NA,NA,0,"Task Introduction and Instructions (removed audio and video)",3,"GHFIEJDACB","Passed AC2","","Spreadsheet1",NA,"","","",NA,"5","END",NA,NA,NA,NA,NA,NA,0,NA,NA,NA,NA,"","",NA,"","",NA,"SUPPRF96217"
"1",1698420800410,"27/10/2023 15:33:20",1698424400410,1,"27/10/2023 17:33:20",149662,3,"task-ybli",NA,32535479,9628631,NA,"complete",NA,"653bd5d658d21f476a1a1aef","computer","Desktop or Laptop","Mac OS 10.15.7","Chrome 117.0.0.0","1440x900","1440x782",NA,NA,0,"Task Introduction and Instructions (removed audio and video)",3,"BCADJEIFHG","Passed AC2","","Spreadsheet1",NA,"","","",NA,"5","BEGIN",NA,NA,NA,NA,NA,NA,0,NA,NA,NA,NA,"","",NA,"","",NA,"SUPPRF72685"
"2",1698420829670,"27/10/2023 15:33:49",1698424429670,1,"27/10/2023 17:33:49",149662,3,"task-ybli",NA,32535479,9628631,NA,"complete",NA,"653bd5d658d21f476a1a1aef","computer","Desktop or Laptop","Mac OS 10.15.7","Chrome 117.0.0.0","1440x900","1440x782",NA,NA,0,"Task Introduction and Instructions (removed audio and video)",3,"BCADJEIFHG","Passed AC2","","Spreadsheet1",1,"Task Instructions","Screen 1","anr7sn",1,"continue","",29135.344,29118.677,29135.344,29135.344,29118.677,29135.344,1,29135.344,0,0,NA,"Click To Continue","Continue Button",2,"object-1944","Task Instructions",NA,"SUPPRF72685"
"3",1698420838747,"27/10/2023 15:33:58",1698424438747,1,"27/10/2023 17:33:58",149662,3,"task-ybli",NA,32535479,9628631,NA,"complete",NA,"653bd5d658d21f476a1a1aef","computer","Desktop or Laptop","Mac OS 10.15.7","Chrome 117.0.0.0","1440x900","1440x782",NA,NA,0,"Task Introduction and Instructions (removed audio and video)",3,"BCADJEIFHG","Passed AC2","","Spreadsheet1",1,"Task Instructions","Screen 2","ce2tc8",2,"continue","",9100.658,9083.991,9100.658,9100.658,9083.991,9100.658,1,9100.658,0,0,NA,"Click To Continue","Continue Button",2,"object-7","Task Instructions",NA,"SUPPRF72685"
"4",1698420842531,"27/10/2023 15:34:02",1698424442531,1,"27/10/2023 17:34:02",149662,3,"task-ybli",NA,32535479,9628631,NA,"complete",NA,"653bd5d658d21f476a1a1aef","computer","Desktop or Laptop","Mac OS 10.15.7","Chrome 117.0.0.0","1440x900","1440x782",NA,NA,0,"Task Introduction and Instructions (removed audio and video)",3,"BCADJEIFHG","Passed AC2","","Spreadsheet1",1,"Task Instructions","Screen 5","spepx9",3,"continue","",3800.076,3783.409,3800.076,3800.076,3783.409,3800.076,1,3800.076,0,0,NA,"Click To Continue","Continue Button",2,"object-9","Task Instructions",NA,"SUPPRF72685"
"5",1698420845380,"27/10/2023 15:34:05",1698424445380,1,"27/10/2023 17:34:05",149662,3,"task-ybli",NA,32535479,9628631,NA,"complete",NA,"653bd5d658d21f476a1a1aef","computer","Desktop or Laptop","Mac OS 10.15.7","Chrome 117.0.0.0","1440x900","1440x782",NA,NA,0,"Task Introduction and Instructions (removed audio and video)",3,"BCADJEIFHG","Passed AC2","","Spreadsheet1",1,"Task Instructions","Screen 9","8nvnao",4,"continue","",2867.20099999999,2850.534,2867.20099999999,2867.20099999999,2850.534,2867.20099999999,1,2867.20099999999,0,0,NA,"Click To Continue","Continue Button",2,"object-44","Task Instructions",NA,"SUPPRF72685"
"6",1698420845384,"27/10/2023 15:34:05",1698424445384,1,"27/10/2023 17:34:05",149662,3,"task-ybli",NA,32535479,9628631,NA,"complete",NA,"653bd5d658d21f476a1a1aef","computer","Desktop or Laptop","Mac OS 10.15.7","Chrome 117.0.0.0","1440x900","1440x782",NA,NA,0,"Task Introduction and Instructions (removed audio and video)",3,"BCADJEIFHG","Passed AC2","","Spreadsheet1",NA,"","","",NA,"5","END",NA,NA,NA,NA,NA,NA,0,NA,NA,NA,NA,"","",NA,"","",NA,"SUPPRF72685"
"1",1698420905667,"27/10/2023 15:35:05",1698395705667,-7,"27/10/2023 01:35:05",149662,3,"task-ybli",NA,32535601,9628625,NA,"complete",NA,"653bd5af6778e1739b20621f","computer","Desktop or Laptop","Windows 10","Chrome 118.0.0.0","1920x1080","1920x963",NA,NA,0,"Task Introduction and Instructions (removed audio and video)",3,"DECFBGAHJI","Passed AC2","","Spreadsheet1",NA,"","","",NA,"5","BEGIN",NA,NA,NA,NA,NA,NA,0,NA,NA,NA,NA,"","",NA,"","",NA,"SUPPRF43781"
"2",1698420910023,"27/10/2023 15:35:10",1698395710023,-7,"27/10/2023 01:35:10",149662,3,"task-ybli",NA,32535601,9628625,NA,"complete",NA,"653bd5af6778e1739b20621f","computer","Desktop or Laptop","Windows 10","Chrome 118.0.0.0","1920x1080","1920x963",NA,NA,0,"Task Introduction and Instructions (removed audio and video)",3,"DECFBGAHJI","Passed AC2","","Spreadsheet1",1,"Task Instructions","Screen 1","anr7sn",1,"continue","",3614.68400004768,3600.001,3614.68400004768,3614.68400004768,3600.001,3614.68400004768,1,3614.68400004768,0,0,NA,"Click To Continue","Continue Button",2,"object-1944","Task Instructions",NA,"SUPPRF43781"
"3",1698420919093,"27/10/2023 15:35:19",1698395719093,-7,"27/10/2023 01:35:19",149662,3,"task-ybli",NA,32535601,9628625,NA,"complete",NA,"653bd5af6778e1739b20621f","computer","Desktop or Laptop","Windows 10","Chrome 118.0.0.0","1920x1080","1920x963",NA,NA,0,"Task Introduction and Instructions (removed audio and video)",3,"DECFBGAHJI","Passed AC2","","Spreadsheet1",1,"Task Instructions","Screen 2","ce2tc8",2,"continue","",9085.68300004768,9083.441,9085.68300004768,9085.68300004768,9083.441,9085.68300004768,1,9085.68300004768,0,0,NA,"Click To Continue","Continue Button",2,"object-7","Task Instructions",NA,"SUPPRF43781"
"4",1698420921673,"27/10/2023 15:35:21",1698395721673,-7,"27/10/2023 01:35:21",149662,3,"task-ybli",NA,32535601,9628625,NA,"complete",NA,"653bd5af6778e1739b20621f","computer","Desktop or Laptop","Windows 10","Chrome 118.0.0.0","1920x1080","1920x963",NA,NA,0,"Task Introduction and Instructions (removed audio and video)",3,"DECFBGAHJI","Passed AC2","","Spreadsheet1",1,"Task Instructions","Screen 5","spepx9",3,"continue","",2582.542,2566.763,2582.542,2582.542,2566.763,2582.542,1,2582.542,0,0,NA,"Click To Continue","Continue Button",2,"object-9","Task Instructions",NA,"SUPPRF43781"
"5",1698420924038,"27/10/2023 15:35:24",1698395724038,-7,"27/10/2023 01:35:24",149662,3,"task-ybli",NA,32535601,9628625,NA,"complete",NA,"653bd5af6778e1739b20621f","computer","Desktop or Laptop","Windows 10","Chrome 118.0.0.0","1920x1080","1920x963",NA,NA,0,"Task Introduction and Instructions (removed audio and video)",3,"DECFBGAHJI","Passed AC2","","Spreadsheet1",1,"Task Instructions","Screen 9","8nvnao",4,"continue","",2379.87900002384,2366.781,2379.87900002384,2379.87900002384,2366.781,2379.87900002384,1,2379.87900002384,0,0,NA,"Click To Continue","Continue Button",2,"object-44","Task Instructions",NA,"SUPPRF43781"
"6",1698420924042,"27/10/2023 15:35:24",1698395724042,-7,"27/10/2023 01:35:24",149662,3,"task-ybli",NA,32535601,9628625,NA,"complete",NA,"653bd5af6778e1739b20621f","computer","Desktop or Laptop","Windows 10","Chrome 118.0.0.0","1920x1080","1920x963",NA,NA,0,"Task Introduction and Instructions (removed audio and video)",3,"DECFBGAHJI","Passed AC2","","Spreadsheet1",NA,"","","",NA,"5","END",NA,NA,NA,NA,NA,NA,0,NA,NA,NA,NA,"","",NA,"","",NA,"SUPPRF43781"
"1",1698420922222,"27/10/2023 15:35:22",1698424522222,1,"27/10/2023 17:35:22",149662,3,"task-ybli",NA,32535639,9628642,NA,"complete",NA,"653bd5499f1d379605bd3e8b","computer","Desktop or Laptop","Windows 10","Edge 118.0.2088.69","1920x1080","1872x966",NA,NA,0,"Task Introduction and Instructions (removed audio and video)",3,"CDBEAFJGIH","Passed AC2","","Spreadsheet1",NA,"","","",NA,"5","BEGIN",NA,NA,NA,NA,NA,NA,0,NA,NA,NA,NA,"","",NA,"","",NA,"SUPPRF03208"
"2",1698420926391,"27/10/2023 15:35:26",1698424526391,1,"27/10/2023 17:35:26",149662,3,"task-ybli",NA,32535639,9628642,NA,"complete",NA,"653bd5499f1d379605bd3e8b","computer","Desktop or Laptop","Windows 10","Edge 118.0.2088.69","1920x1080","1872x966",NA,NA,0,"Task Introduction and Instructions (removed audio and video)",3,"CDBEAFJGIH","Passed AC2","","Spreadsheet1",1,"Task Instructions","Screen 1","anr7sn",1,"continue","",4114.21400004768,4099.922,4114.21400004768,4114.21400004768,4099.922,4114.21400004768,1,4114.21400004768,0,0,NA,"Click To Continue","Continue Button",2,"object-1944","Task Instructions",NA,"SUPPRF03208"
"3",1698420936132,"27/10/2023 15:35:36",1698424536132,1,"27/10/2023 17:35:36",149662,3,"task-ybli",NA,32535639,9628642,NA,"complete",NA,"653bd5499f1d379605bd3e8b","computer","Desktop or Laptop","Windows 10","Edge 118.0.2088.69","1920x1080","1872x966",NA,NA,0,"Task Introduction and Instructions (removed audio and video)",3,"CDBEAFJGIH","Passed AC2","","Spreadsheet1",1,"Task Instructions","Screen 2","ce2tc8",2,"continue","",9756.19200002384,9749.871,9756.19200002384,9756.19200002384,9749.871,9756.19200002384,1,9756.19200002384,0,0,NA,"Click To Continue","Continue Button",2,"object-7","Task Instructions",NA,"SUPPRF03208"
"4",1698420938819,"27/10/2023 15:35:38",1698424538819,1,"27/10/2023 17:35:38",149662,3,"task-ybli",NA,32535639,9628642,NA,"complete",NA,"653bd5499f1d379605bd3e8b","computer","Desktop or Laptop","Windows 10","Edge 118.0.2088.69","1920x1080","1872x966",NA,NA,0,"Task Introduction and Instructions (removed audio and video)",3,"CDBEAFJGIH","Passed AC2","","Spreadsheet1",1,"Task Instructions","Screen 5","spepx9",3,"continue","",2692.92100004768,2683.3,2692.92100004768,2692.92100004768,2683.3,2692.92100004768,1,2692.92100004768,0,0,NA,"Click To Continue","Continue Button",2,"object-9","Task Instructions",NA,"SUPPRF03208"
"5",1698420941471,"27/10/2023 15:35:41",1698424541471,1,"27/10/2023 17:35:41",149662,3,"task-ybli",NA,32535639,9628642,NA,"complete",NA,"653bd5499f1d379605bd3e8b","computer","Desktop or Laptop","Windows 10","Edge 118.0.2088.69","1920x1080","1872x966",NA,NA,0,"Task Introduction and Instructions (removed audio and video)",3,"CDBEAFJGIH","Passed AC2","","Spreadsheet1",1,"Task Instructions","Screen 9","8nvnao",4,"continue","",2661.62100004768,2649.965,2661.62100004768,2661.62100004768,2649.965,2661.62100004768,1,2661.62100004768,0,0,NA,"Click To Continue","Continue Button",2,"object-44","Task Instructions",NA,"SUPPRF03208"
"6",1698420941472,"27/10/2023 15:35:41",1698424541472,1,"27/10/2023 17:35:41",149662,3,"task-ybli",NA,32535639,9628642,NA,"complete",NA,"653bd5499f1d379605bd3e8b","computer","Desktop or Laptop","Windows 10","Edge 118.0.2088.69","1920x1080","1872x966",NA,NA,0,"Task Introduction and Instructions (removed audio and video)",3,"CDBEAFJGIH","Passed AC2","","Spreadsheet1",NA,"","","",NA,"5","END",NA,NA,NA,NA,NA,NA,0,NA,NA,NA,NA,"","",NA,"","",NA,"SUPPRF03208"
"1",1698421228543,"27/10/2023 15:40:28",1698424828543,1,"27/10/2023 17:40:28",149662,3,"task-ybli",NA,32536025,9628678,NA,"complete",NA,"653bd6b99cabb88e6b4d37d8","computer","Desktop or Laptop","Windows 10","Chrome 118.0.0.0","1360x768","1360x651",NA,NA,0,"Task Introduction and Instructions (removed audio and video)",3,"EFDGCHBIAJ","Passed AC2","","Spreadsheet1",NA,"","","",NA,"5","BEGIN",NA,NA,NA,NA,NA,NA,0,NA,NA,NA,NA,"","",NA,"","",NA,"SUPPRF83713"
"2",1698421233155,"27/10/2023 15:40:33",1698424833155,1,"27/10/2023 17:40:33",149662,3,"task-ybli",NA,32536025,9628678,NA,"complete",NA,"653bd6b99cabb88e6b4d37d8","computer","Desktop or Laptop","Windows 10","Chrome 118.0.0.0","1360x768","1360x651",NA,NA,0,"Task Introduction and Instructions (removed audio and video)",3,"EFDGCHBIAJ","Passed AC2","","Spreadsheet1",1,"Task Instructions","Screen 1","anr7sn",1,"continue","",4542.53500014305,4538.856,4542.53500014305,4542.53500014305,4538.856,4542.53500014305,1,4542.53500014305,0,0,NA,"Click To Continue","Continue Button",2,"object-1944","Task Instructions",NA,"SUPPRF83713"
"3",1698421242122,"27/10/2023 15:40:42",1698424842122,1,"27/10/2023 17:40:42",149662,3,"task-ybli",NA,32536025,9628678,NA,"complete",NA,"653bd6b99cabb88e6b4d37d8","computer","Desktop or Laptop","Windows 10","Chrome 118.0.0.0","1360x768","1360x651",NA,NA,0,"Task Introduction and Instructions (removed audio and video)",3,"EFDGCHBIAJ","Passed AC2","","Spreadsheet1",1,"Task Instructions","Screen 2","ce2tc8",2,"continue","",8971.67900014305,8968.765,8971.67900014305,8971.67900014305,8968.765,8971.67900014305,1,8971.67900014305,0,0,NA,"Click To Continue","Continue Button",2,"object-7","Task Instructions",NA,"SUPPRF83713"
"4",1698421245783,"27/10/2023 15:40:45",1698424845783,1,"27/10/2023 17:40:45",149662,3,"task-ybli",NA,32536025,9628678,NA,"complete",NA,"653bd6b99cabb88e6b4d37d8","computer","Desktop or Laptop","Windows 10","Chrome 118.0.0.0","1360x768","1360x651",NA,NA,0,"Task Introduction and Instructions (removed audio and video)",3,"EFDGCHBIAJ","Passed AC2","","Spreadsheet1",1,"Task Instructions","Screen 5","spepx9",3,"continue","",3663.249,3646.583,3663.249,3663.249,3646.583,3663.249,1,3663.249,0,0,NA,"Click To Continue","Continue Button",2,"object-9","Task Instructions",NA,"SUPPRF83713"
"5",1698421248607,"27/10/2023 15:40:48",1698424848607,1,"27/10/2023 17:40:48",149662,3,"task-ybli",NA,32536025,9628678,NA,"complete",NA,"653bd6b99cabb88e6b4d37d8","computer","Desktop or Laptop","Windows 10","Chrome 118.0.0.0","1360x768","1360x651",NA,NA,0,"Task Introduction and Instructions (removed audio and video)",3,"EFDGCHBIAJ","Passed AC2","","Spreadsheet1",1,"Task Instructions","Screen 9","8nvnao",4,"continue","",2841.508,2824.842,2841.508,2841.508,2824.842,2841.508,1,2841.508,0,0,NA,"Click To Continue","Continue Button",2,"object-44","Task Instructions",NA,"SUPPRF83713"
"6",1698421248612,"27/10/2023 15:40:48",1698424848612,1,"27/10/2023 17:40:48",149662,3,"task-ybli",NA,32536025,9628678,NA,"complete",NA,"653bd6b99cabb88e6b4d37d8","computer","Desktop or Laptop","Windows 10","Chrome 118.0.0.0","1360x768","1360x651",NA,NA,0,"Task Introduction and Instructions (removed audio and video)",3,"EFDGCHBIAJ","Passed AC2","","Spreadsheet1",NA,"","","",NA,"5","END",NA,NA,NA,NA,NA,NA,0,NA,NA,NA,NA,"","",NA,"","",NA,"SUPPRF83713"
"1",1698421242079,"27/10/2023 15:40:42",1698424842079,1,"27/10/2023 17:40:42",149662,3,"task-ybli",NA,32536045,9628687,NA,"complete",NA,"653bd6ce91a317355c77e660","computer","Desktop or Laptop","Mac OS 10.15.7","Safari 16.5.1","810x1080","1080x707",NA,NA,0,"Task Introduction and Instructions (removed audio and video)",3,"GHFIEJDACB","Passed AC2","","Spreadsheet1",NA,"","","",NA,"5","BEGIN",NA,NA,NA,NA,NA,NA,0,NA,NA,NA,NA,"","",NA,"","",NA,"SUPPRF76101"
"2",1698421248566,"27/10/2023 15:40:48",1698424848566,1,"27/10/2023 17:40:48",149662,3,"task-ybli",NA,32536045,9628687,NA,"complete",NA,"653bd6ce91a317355c77e660","computer","Desktop or Laptop","Mac OS 10.15.7","Safari 16.5.1","810x1080","1080x707",NA,NA,0,"Task Introduction and Instructions (removed audio and video)",3,"GHFIEJDACB","Passed AC2","","Spreadsheet1",1,"Task Instructions","Screen 1","anr7sn",1,"continue","",6416,6399,6416,6416,6399,6416,1,6416,0,0,NA,"Click To Continue","Continue Button",2,"object-1944","Task Instructions",NA,"SUPPRF76101"
"3",1698421264874,"27/10/2023 15:41:04",1698424864874,1,"27/10/2023 17:41:04",149662,3,"task-ybli",NA,32536045,9628687,NA,"complete",NA,"653bd6ce91a317355c77e660","computer","Desktop or Laptop","Mac OS 10.15.7","Safari 16.5.1","810x1080","1080x707",NA,NA,0,"Task Introduction and Instructions (removed audio and video)",3,"GHFIEJDACB","Passed AC2","","Spreadsheet1",1,"Task Instructions","Screen 2","ce2tc8",2,"continue","",16328,16311,16328,16328,16311,16328,1,16328,0,0,NA,"Click To Continue","Continue Button",2,"object-7","Task Instructions",NA,"SUPPRF76101"
"4",1698421268339,"27/10/2023 15:41:08",1698424868339,1,"27/10/2023 17:41:08",149662,3,"task-ybli",NA,32536045,9628687,NA,"complete",NA,"653bd6ce91a317355c77e660","computer","Desktop or Laptop","Mac OS 10.15.7","Safari 16.5.1","810x1080","1080x707",NA,NA,0,"Task Introduction and Instructions (removed audio and video)",3,"GHFIEJDACB","Passed AC2","","Spreadsheet1",1,"Task Instructions","Screen 5","spepx9",3,"continue","",3483,3466,3483,3483,3466,3483,1,3483,0,0,NA,"Click To Continue","Continue Button",2,"object-9","Task Instructions",NA,"SUPPRF76101"
"5",1698421271621,"27/10/2023 15:41:11",1698424871621,1,"27/10/2023 17:41:11",149662,3,"task-ybli",NA,32536045,9628687,NA,"complete",NA,"653bd6ce91a317355c77e660","computer","Desktop or Laptop","Mac OS 10.15.7","Safari 16.5.1","810x1080","1080x707",NA,NA,0,"Task Introduction and Instructions (removed audio and video)",3,"GHFIEJDACB","Passed AC2","","Spreadsheet1",1,"Task Instructions","Screen 9","8nvnao",4,"continue","",3299,3282,3299,3299,3282,3299,1,3299,0,0,NA,"Click To Continue","Continue Button",2,"object-44","Task Instructions",NA,"SUPPRF76101"
"6",1698421271627,"27/10/2023 15:41:11",1698424871627,1,"27/10/2023 17:41:11",149662,3,"task-ybli",NA,32536045,9628687,NA,"complete",NA,"653bd6ce91a317355c77e660","computer","Desktop or Laptop","Mac OS 10.15.7","Safari 16.5.1","810x1080","1080x707",NA,NA,0,"Task Introduction and Instructions (removed audio and video)",3,"GHFIEJDACB","Passed AC2","","Spreadsheet1",NA,"","","",NA,"5","END",NA,NA,NA,NA,NA,NA,0,NA,NA,NA,NA,"","",NA,"","",NA,"SUPPRF76101"
"1",1698421263945,"27/10/2023 15:41:03",1698424863945,1,"27/10/2023 17:41:03",149662,3,"task-ybli",NA,32536074,9628727,NA,"complete",NA,"653bd803dd62f70ac61d69ec","computer","Desktop or Laptop","Windows 10","Chrome 118.0.0.0","1536x864","1536x715",NA,NA,0,"Task Introduction and Instructions (removed audio and video)",3,"BCADJEIFHG","Passed AC2","","Spreadsheet1",NA,"","","",NA,"5","BEGIN",NA,NA,NA,NA,NA,NA,0,NA,NA,NA,NA,"","",NA,"","",NA,"SUPPRF21477"
"2",1698421276779,"27/10/2023 15:41:16",1698424876779,1,"27/10/2023 17:41:16",149662,3,"task-ybli",NA,32536074,9628727,NA,"complete",NA,"653bd803dd62f70ac61d69ec","computer","Desktop or Laptop","Windows 10","Chrome 118.0.0.0","1536x864","803x700",NA,NA,0,"Task Introduction and Instructions (removed audio and video)",3,"BCADJEIFHG","Passed AC2","","Spreadsheet1",1,"Task Instructions","Screen 1","anr7sn",1,"continue","",12734.034,12717.231,12734.034,12734.034,12717.231,12734.034,1,12734.034,0,0,NA,"Click To Continue","Continue Button",2,"object-1944","Task Instructions",NA,"SUPPRF21477"
"3",1698421281190,"27/10/2023 15:41:21",1698424881190,1,"27/10/2023 17:41:21",149662,3,"task-ybli",NA,32536074,9628727,NA,"complete",NA,"653bd803dd62f70ac61d69ec","computer","Desktop or Laptop","Windows 10","Chrome 118.0.0.0","1536x864","803x700",NA,NA,0,"Task Introduction and Instructions (removed audio and video)",3,"BCADJEIFHG","Passed AC2","","Spreadsheet1",1,"Task Instructions","Screen 2","ce2tc8",2,"continue","",4429.77800002384,4416.572,4429.77800002384,4429.77800002384,4416.572,4429.77800002384,1,4429.77800002384,0,0,NA,"Click To Continue","Continue Button",2,"object-7","Task Instructions",NA,"SUPPRF21477"
"4",1698421283779,"27/10/2023 15:41:23",1698424883779,1,"27/10/2023 17:41:23",149662,3,"task-ybli",NA,32536074,9628727,NA,"complete",NA,"653bd803dd62f70ac61d69ec","computer","Desktop or Laptop","Windows 10","Chrome 118.0.0.0","1536x864","803x700",NA,NA,0,"Task Introduction and Instructions (removed audio and video)",3,"BCADJEIFHG","Passed AC2","","Spreadsheet1",1,"Task Instructions","Screen 5","spepx9",3,"continue","",2602.40600001192,2600.282,2602.40600001192,2602.40600001192,2600.282,2602.40600001192,1,2602.40600001192,0,0,NA,"Click To Continue","Continue Button",2,"object-9","Task Instructions",NA,"SUPPRF21477"
"5",1698421286990,"27/10/2023 15:41:26",1698424886990,1,"27/10/2023 17:41:26",149662,3,"task-ybli",NA,32536074,9628727,NA,"complete",NA,"653bd803dd62f70ac61d69ec","computer","Desktop or Laptop","Windows 10","Chrome 118.0.0.0","1536x864","803x700",NA,NA,0,"Task Introduction and Instructions (removed audio and video)",3,"BCADJEIFHG","Passed AC2","","Spreadsheet1",1,"Task Instructions","Screen 9","8nvnao",4,"continue","",3213.12400001192,3200.111,3213.12400001192,3213.12400001192,3200.111,3213.12400001192,1,3213.12400001192,0,0,NA,"Click To Continue","Continue Button",2,"object-44","Task Instructions",NA,"SUPPRF21477"
"6",1698421286997,"27/10/2023 15:41:26",1698424886997,1,"27/10/2023 17:41:26",149662,3,"task-ybli",NA,32536074,9628727,NA,"complete",NA,"653bd803dd62f70ac61d69ec","computer","Desktop or Laptop","Windows 10","Chrome 118.0.0.0","1536x864","803x700",NA,NA,0,"Task Introduction and Instructions (removed audio and video)",3,"BCADJEIFHG","Passed AC2","","Spreadsheet1",NA,"","","",NA,"5","END",NA,NA,NA,NA,NA,NA,0,NA,NA,NA,NA,"","",NA,"","",NA,"SUPPRF21477"
"1",1698421286611,"27/10/2023 15:41:26",1698424886611,1,"27/10/2023 17:41:26",149662,3,"task-ybli",NA,32536104,9628709,NA,"rejected - time limit reached",NA,"653bd7753b287c332000cffe","computer","Desktop or Laptop","Windows 10","Chrome 117.0.0.0","1280x720","1280x595",NA,NA,0,"Task Introduction and Instructions (removed audio and video)",3,"JAIBHCGDFE","Passed AC2","","Spreadsheet1",NA,"","","",NA,"5","BEGIN",NA,NA,NA,NA,NA,NA,0,NA,NA,NA,NA,"","",NA,"","",NA,"SUPPRF30226"
"2",1698421289578,"27/10/2023 15:41:29",1698424889578,1,"27/10/2023 17:41:29",149662,3,"task-ybli",NA,32536104,9628709,NA,"rejected - time limit reached",NA,"653bd7753b287c332000cffe","computer","Desktop or Laptop","Windows 10","Chrome 117.0.0.0","1280x720","1280x595",NA,NA,0,"Task Introduction and Instructions (removed audio and video)",3,"JAIBHCGDFE","Passed AC2","","Spreadsheet1",1,"Task Instructions","Screen 1","anr7sn",1,"continue","",2877.65600004768,2866.552,2877.65600004768,2877.65600004768,2866.552,2877.65600004768,1,2877.65600004768,0,0,NA,"Click To Continue","Continue Button",2,"object-1944","Task Instructions",NA,"SUPPRF30226"
"3",1698421292336,"27/10/2023 15:41:32",1698424892336,1,"27/10/2023 17:41:32",149662,3,"task-ybli",NA,32536104,9628709,NA,"rejected - time limit reached",NA,"653bd7753b287c332000cffe","computer","Desktop or Laptop","Windows 10","Chrome 117.0.0.0","1280x720","1280x595",NA,NA,0,"Task Introduction and Instructions (removed audio and video)",3,"JAIBHCGDFE","Passed AC2","","Spreadsheet1",1,"Task Instructions","Screen 2","ce2tc8",2,"continue","",2768.80400009537,2766.556,2768.80400009537,2768.80400009537,2766.556,2768.80400009537,1,2768.80400009537,0,0,NA,"Click To Continue","Continue Button",2,"object-7","Task Instructions",NA,"SUPPRF30226"
"4",1698421294818,"27/10/2023 15:41:34",1698424894818,1,"27/10/2023 17:41:34",149662,3,"task-ybli",NA,32536104,9628709,NA,"rejected - time limit reached",NA,"653bd7753b287c332000cffe","computer","Desktop or Laptop","Windows 10","Chrome 117.0.0.0","1280x720","1280x595",NA,NA,0,"Task Introduction and Instructions (removed audio and video)",3,"JAIBHCGDFE","Passed AC2","","Spreadsheet1",1,"Task Instructions","Screen 5","spepx9",3,"continue","",2483.234,2466.568,2483.234,2483.234,2466.568,2483.234,1,2483.234,0,0,NA,"Click To Continue","Continue Button",2,"object-9","Task Instructions",NA,"SUPPRF30226"
"5",1698421297919,"27/10/2023 15:41:37",1698424897919,1,"27/10/2023 17:41:37",149662,3,"task-ybli",NA,32536104,9628709,NA,"rejected - time limit reached",NA,"653bd7753b287c332000cffe","computer","Desktop or Laptop","Windows 10","Chrome 117.0.0.0","1280x720","1280x595",NA,NA,0,"Task Introduction and Instructions (removed audio and video)",3,"JAIBHCGDFE","Passed AC2","","Spreadsheet1",1,"Task Instructions","Screen 9","8nvnao",4,"continue","",3118.78,3116.542,3118.78,3118.78,3116.542,3118.78,1,3118.78,0,0,NA,"Click To Continue","Continue Button",2,"object-44","Task Instructions",NA,"SUPPRF30226"
"6",1698421297922,"27/10/2023 15:41:37",1698424897922,1,"27/10/2023 17:41:37",149662,3,"task-ybli",NA,32536104,9628709,NA,"rejected - time limit reached",NA,"653bd7753b287c332000cffe","computer","Desktop or Laptop","Windows 10","Chrome 117.0.0.0","1280x720","1280x595",NA,NA,0,"Task Introduction and Instructions (removed audio and video)",3,"JAIBHCGDFE","Passed AC2","","Spreadsheet1",NA,"","","",NA,"5","END",NA,NA,NA,NA,NA,NA,0,NA,NA,NA,NA,"","",NA,"","",NA,"SUPPRF30226"
"1",1698421522769,"27/10/2023 15:45:22",1698425122769,1,"27/10/2023 17:45:22",149662,3,"task-ybli",NA,32536435,9628698,NA,"complete",NA,"653bd759cb38bfade877e741","computer","Desktop or Laptop","Mac OS 10.15.7","Safari 17.0","1440x900","1440x773",NA,NA,0,"Task Introduction and Instructions (removed audio and video)",3,"IJHAGBFCED","Passed AC2","","Spreadsheet1",NA,"","","",NA,"5","BEGIN",NA,NA,NA,NA,NA,NA,0,NA,NA,NA,NA,"","",NA,"","",NA,"SUPPRF87860"
"2",1698421526286,"27/10/2023 15:45:26",1698425126286,1,"27/10/2023 17:45:26",149662,3,"task-ybli",NA,32536435,9628698,NA,"complete",NA,"653bd759cb38bfade877e741","computer","Desktop or Laptop","Mac OS 10.15.7","Safari 17.0","1440x900","1440x773",NA,NA,0,"Task Introduction and Instructions (removed audio and video)",3,"IJHAGBFCED","Passed AC2","","Spreadsheet1",1,"Task Instructions","Screen 1","anr7sn",1,"continue","",3468,3434,3468,3468,3434,3468,1,3468,0,0,NA,"Click To Continue","Continue Button",2,"object-1944","Task Instructions",NA,"SUPPRF87860"
"3",1698421535729,"27/10/2023 15:45:35",1698425135729,1,"27/10/2023 17:45:35",149662,3,"task-ybli",NA,32536435,9628698,NA,"complete",NA,"653bd759cb38bfade877e741","computer","Desktop or Laptop","Mac OS 10.15.7","Safari 17.0","1440x900","1440x773",NA,NA,0,"Task Introduction and Instructions (removed audio and video)",3,"IJHAGBFCED","Passed AC2","","Spreadsheet1",1,"Task Instructions","Screen 2","ce2tc8",2,"continue","",9479,9467,9479,9479,9467,9479,1,9479,0,0,NA,"Click To Continue","Continue Button",2,"object-7","Task Instructions",NA,"SUPPRF87860"
"4",1698421538976,"27/10/2023 15:45:38",1698425138976,1,"27/10/2023 17:45:38",149662,3,"task-ybli",NA,32536435,9628698,NA,"complete",NA,"653bd759cb38bfade877e741","computer","Desktop or Laptop","Mac OS 10.15.7","Safari 17.0","1440x900","1440x773",NA,NA,0,"Task Introduction and Instructions (removed audio and video)",3,"IJHAGBFCED","Passed AC2","","Spreadsheet1",1,"Task Instructions","Screen 5","spepx9",3,"continue","",3259,3232,3259,3259,3232,3259,1,3259,0,0,NA,"Click To Continue","Continue Button",2,"object-9","Task Instructions",NA,"SUPPRF87860"
"5",1698421541861,"27/10/2023 15:45:41",1698425141861,1,"27/10/2023 17:45:41",149662,3,"task-ybli",NA,32536435,9628698,NA,"complete",NA,"653bd759cb38bfade877e741","computer","Desktop or Laptop","Mac OS 10.15.7","Safari 17.0","1440x900","1440x773",NA,NA,0,"Task Introduction and Instructions (removed audio and video)",3,"IJHAGBFCED","Passed AC2","","Spreadsheet1",1,"Task Instructions","Screen 9","8nvnao",4,"continue","",2912,2901,2912,2912,2901,2912,1,2912,0,0,NA,"Click To Continue","Continue Button",2,"object-44","Task Instructions",NA,"SUPPRF87860"
"6",1698421541863,"27/10/2023 15:45:41",1698425141863,1,"27/10/2023 17:45:41",149662,3,"task-ybli",NA,32536435,9628698,NA,"complete",NA,"653bd759cb38bfade877e741","computer","Desktop or Laptop","Mac OS 10.15.7","Safari 17.0","1440x900","1440x773",NA,NA,0,"Task Introduction and Instructions (removed audio and video)",3,"IJHAGBFCED","Passed AC2","","Spreadsheet1",NA,"","","",NA,"5","END",NA,NA,NA,NA,NA,NA,0,NA,NA,NA,NA,"","",NA,"","",NA,"SUPPRF87860"
"1",1698421582231,"27/10/2023 15:46:22",1698407182231,-4,"27/10/2023 07:46:22",149662,3,"task-ybli",NA,32536493,9628711,NA,"complete",NA,"653bd7791ae04967e68bd4c6","computer","Desktop or Laptop","Linux x86_64","Firefox 108.0","1920x1080","1334x717",NA,NA,0,"Task Introduction and Instructions (removed audio and video)",3,"ABJCIDHEGF","Passed AC2","","Spreadsheet1",NA,"","","",NA,"5","BEGIN",NA,NA,NA,NA,NA,NA,0,NA,NA,NA,NA,"","",NA,"","",NA,"SUPPRF77733"
"2",1698421585656,"27/10/2023 15:46:25",1698407185656,-4,"27/10/2023 07:46:25",149662,3,"task-ybli",NA,32536493,9628711,NA,"complete",NA,"653bd7791ae04967e68bd4c6","computer","Desktop or Laptop","Linux x86_64","Firefox 108.0","1920x1080","1334x717",NA,NA,0,"Task Introduction and Instructions (removed audio and video)",3,"ABJCIDHEGF","Passed AC2","","Spreadsheet1",1,"Task Instructions","Screen 1","anr7sn",1,"continue","",2970.06,2966.44,2970.06,2970.06,2966.44,2970.06,1,2970.06,0,0,NA,"Click To Continue","Continue Button",2,"object-1944","Task Instructions",NA,"SUPPRF77733"
"3",1698421593533,"27/10/2023 15:46:33",1698407193533,-4,"27/10/2023 07:46:33",149662,3,"task-ybli",NA,32536493,9628711,NA,"complete",NA,"653bd7791ae04967e68bd4c6","computer","Desktop or Laptop","Linux x86_64","Firefox 108.0","1920x1080","1334x717",NA,NA,0,"Task Introduction and Instructions (removed audio and video)",3,"ABJCIDHEGF","Passed AC2","","Spreadsheet1",1,"Task Instructions","Screen 2","ce2tc8",2,"continue","",7880.62,7866.92,7880.62,7880.62,7866.92,7880.62,1,7880.62,0,0,NA,"Click To Continue","Continue Button",2,"object-7","Task Instructions",NA,"SUPPRF77733"
"4",1698421596646,"27/10/2023 15:46:36",1698407196646,-4,"27/10/2023 07:46:36",149662,3,"task-ybli",NA,32536493,9628711,NA,"complete",NA,"653bd7791ae04967e68bd4c6","computer","Desktop or Laptop","Linux x86_64","Firefox 108.0","1920x1080","1334x717",NA,NA,0,"Task Introduction and Instructions (removed audio and video)",3,"ABJCIDHEGF","Passed AC2","","Spreadsheet1",1,"Task Instructions","Screen 5","spepx9",3,"continue","",3127.7,3116.52,3127.7,3127.7,3116.52,3127.7,1,3127.7,0,0,NA,"Click To Continue","Continue Button",2,"object-9","Task Instructions",NA,"SUPPRF77733"
"5",1698421600710,"27/10/2023 15:46:40",1698407200710,-4,"27/10/2023 07:46:40",149662,3,"task-ybli",NA,32536493,9628711,NA,"complete",NA,"653bd7791ae04967e68bd4c6","computer","Desktop or Laptop","Linux x86_64","Firefox 108.0","1920x1080","1334x717",NA,NA,0,"Task Introduction and Instructions (removed audio and video)",3,"ABJCIDHEGF","Passed AC2","","Spreadsheet1",1,"Task Instructions","Screen 9","8nvnao",4,"continue","",4075.18,4066.7,4075.18,4075.18,4066.7,4075.18,1,4075.18,0,0,NA,"Click To Continue","Continue Button",2,"object-44","Task Instructions",NA,"SUPPRF77733"
"6",1698421600714,"27/10/2023 15:46:40",1698407200714,-4,"27/10/2023 07:46:40",149662,3,"task-ybli",NA,32536493,9628711,NA,"complete",NA,"653bd7791ae04967e68bd4c6","computer","Desktop or Laptop","Linux x86_64","Firefox 108.0","1920x1080","1334x717",NA,NA,0,"Task Introduction and Instructions (removed audio and video)",3,"ABJCIDHEGF","Passed AC2","","Spreadsheet1",NA,"","","",NA,"5","END",NA,NA,NA,NA,NA,NA,0,NA,NA,NA,NA,"","",NA,"","",NA,"SUPPRF77733"
"1",1698421712472,"27/10/2023 15:48:32",1698425312472,1,"27/10/2023 17:48:32",149662,3,"task-ybli",NA,32536627,9628692,NA,"complete",NA,"653bd71a4526933685a2f45e","computer","Desktop or Laptop","Windows 10","Chrome 118.0.0.0","2048x1152","2048x1027",NA,NA,0,"Task Introduction and Instructions (removed audio and video)",3,"HIGJFAEBDC","Passed AC2","","Spreadsheet1",NA,"","","",NA,"5","BEGIN",NA,NA,NA,NA,NA,NA,0,NA,NA,NA,NA,"","",NA,"","",NA,"SUPPRF74630"
"2",1698421734178,"27/10/2023 15:48:54",1698425334178,1,"27/10/2023 17:48:54",149662,3,"task-ybli",NA,32536627,9628692,NA,"complete",NA,"653bd71a4526933685a2f45e","computer","Desktop or Laptop","Windows 10","Chrome 118.0.0.0","2048x1152","2048x1027",NA,NA,0,"Task Introduction and Instructions (removed audio and video)",3,"HIGJFAEBDC","Passed AC2","","Spreadsheet1",1,"Task Instructions","Screen 1","anr7sn",1,"continue","",21662.9740000022,21655.428,21662.9740000022,21662.9740000022,21655.428,21662.9740000022,1,21662.9740000022,0,0,NA,"Click To Continue","Continue Button",2,"object-1944","Task Instructions",NA,"SUPPRF74630"
"3",1698421739958,"27/10/2023 15:48:59",1698425339958,1,"27/10/2023 17:48:59",149662,3,"task-ybli",NA,32536627,9628692,NA,"complete",NA,"653bd71a4526933685a2f45e","computer","Desktop or Laptop","Windows 10","Chrome 118.0.0.0","2048x1152","2048x1027",NA,NA,0,"Task Introduction and Instructions (removed audio and video)",3,"HIGJFAEBDC","Passed AC2","","Spreadsheet1",1,"Task Instructions","Screen 2","ce2tc8",2,"continue","",5788.44600000075,5772.57,5788.44600000075,5788.44600000075,5772.57,5788.44600000075,1,5788.44600000075,0,0,NA,"Click To Continue","Continue Button",2,"object-7","Task Instructions",NA,"SUPPRF74630"
"4",1698421746872,"27/10/2023 15:49:06",1698425346872,1,"27/10/2023 17:49:06",149662,3,"task-ybli",NA,32536627,9628692,NA,"complete",NA,"653bd71a4526933685a2f45e","computer","Desktop or Laptop","Windows 10","Chrome 118.0.0.0","2048x1152","2048x1027",NA,NA,0,"Task Introduction and Instructions (removed audio and video)",3,"HIGJFAEBDC","Passed AC2","","Spreadsheet1",1,"Task Instructions","Screen 5","spepx9",3,"continue","",6928.87600000075,6923.741,6928.87600000075,6928.87600000075,6923.741,6928.87600000075,1,6928.87600000075,0,0,NA,"Click To Continue","Continue Button",2,"object-9","Task Instructions",NA,"SUPPRF74630"
"5",1698421750706,"27/10/2023 15:49:10",1698425350706,1,"27/10/2023 17:49:10",149662,3,"task-ybli",NA,32536627,9628692,NA,"complete",NA,"653bd71a4526933685a2f45e","computer","Desktop or Laptop","Windows 10","Chrome 118.0.0.0","2048x1152","2048x1027",NA,NA,0,"Task Introduction and Instructions (removed audio and video)",3,"HIGJFAEBDC","Passed AC2","","Spreadsheet1",1,"Task Instructions","Screen 9","8nvnao",4,"continue","",3838.73500000223,3837.299,3838.73500000223,3838.73500000223,3837.299,3838.73500000223,1,3838.73500000223,0,0,NA,"Click To Continue","Continue Button",2,"object-44","Task Instructions",NA,"SUPPRF74630"
"6",1698421750707,"27/10/2023 15:49:10",1698425350707,1,"27/10/2023 17:49:10",149662,3,"task-ybli",NA,32536627,9628692,NA,"complete",NA,"653bd71a4526933685a2f45e","computer","Desktop or Laptop","Windows 10","Chrome 118.0.0.0","2048x1152","2048x1027",NA,NA,0,"Task Introduction and Instructions (removed audio and video)",3,"HIGJFAEBDC","Passed AC2","","Spreadsheet1",NA,"","","",NA,"5","END",NA,NA,NA,NA,NA,NA,0,NA,NA,NA,NA,"","",NA,"","",NA,"SUPPRF74630"
"1",1698421801533,"27/10/2023 15:50:01",1698425401533,1,"27/10/2023 17:50:01",149662,3,"task-ybli",NA,32536734,9628663,NA,"complete",NA,"653bd5795f2d7f3a95a5ae8d","computer","Desktop or Laptop","Mac OS 10.15.7","Chrome 117.0.0.0","1440x900","1440x815",NA,NA,0,"Task Introduction and Instructions (removed audio and video)",3,"FGEHDICJBA","Passed AC2","","Spreadsheet1",NA,"","","",NA,"5","BEGIN",NA,NA,NA,NA,NA,NA,0,NA,NA,NA,NA,"","",NA,"","",NA,"SUPPRF97320"
"2",1698421874885,"27/10/2023 15:51:14",1698425474885,1,"27/10/2023 17:51:14",149662,3,"task-ybli",NA,32536734,9628663,NA,"complete",NA,"653bd5795f2d7f3a95a5ae8d","computer","Desktop or Laptop","Mac OS 10.15.7","Chrome 117.0.0.0","1440x900","1440x815",NA,NA,0,"Task Introduction and Instructions (removed audio and video)",3,"FGEHDICJBA","Passed AC2","","Spreadsheet1",1,"Task Instructions","Screen 1","anr7sn",1,"continue","",73265.573,73248.907,73265.573,73265.573,73248.907,73265.573,1,73265.573,0,0,NA,"Click To Continue","Continue Button",2,"object-1944","Task Instructions",NA,"SUPPRF97320"
"3",1698421885244,"27/10/2023 15:51:25",1698425485244,1,"27/10/2023 17:51:25",149662,3,"task-ybli",NA,32536734,9628663,NA,"complete",NA,"653bd5795f2d7f3a95a5ae8d","computer","Desktop or Laptop","Mac OS 10.15.7","Chrome 117.0.0.0","1440x900","1440x815",NA,NA,0,"Task Introduction and Instructions (removed audio and video)",3,"FGEHDICJBA","Passed AC2","","Spreadsheet1",1,"Task Instructions","Screen 2","ce2tc8",2,"continue","",10381.0640000007,10366.514,10381.0640000007,10381.0640000007,10366.514,10381.0640000007,1,10381.0640000007,0,0,NA,"Click To Continue","Continue Button",2,"object-7","Task Instructions",NA,"SUPPRF97320"
"4",1698421944875,"27/10/2023 15:52:24",1698425544875,1,"27/10/2023 17:52:24",149662,3,"task-ybli",NA,32536734,9628663,NA,"complete",NA,"653bd5795f2d7f3a95a5ae8d","computer","Desktop or Laptop","Mac OS 10.15.7","Chrome 117.0.0.0","1440x900","1440x815",NA,NA,0,"Task Introduction and Instructions (removed audio and video)",3,"FGEHDICJBA","Passed AC2","","Spreadsheet1",1,"Task Instructions","Screen 5","spepx9",3,"continue","",59642.9499999993,59632.523,59642.9499999993,59642.9499999993,59632.523,59642.9499999993,1,59642.9499999993,0,0,NA,"Click To Continue","Continue Button",2,"object-9","Task Instructions",NA,"SUPPRF97320"
"5",1698421948331,"27/10/2023 15:52:28",1698425548331,1,"27/10/2023 17:52:28",149662,3,"task-ybli",NA,32536734,9628663,NA,"complete",NA,"653bd5795f2d7f3a95a5ae8d","computer","Desktop or Laptop","Mac OS 10.15.7","Chrome 117.0.0.0","1440x900","1440x815",NA,NA,0,"Task Introduction and Instructions (removed audio and video)",3,"FGEHDICJBA","Passed AC2","","Spreadsheet1",1,"Task Instructions","Screen 9","8nvnao",4,"continue","",3466.52700000076,3449.86200000002,3466.52700000076,3466.52700000076,3449.86200000002,3466.52700000076,1,3466.52700000076,0,0,NA,"Click To Continue","Continue Button",2,"object-44","Task Instructions",NA,"SUPPRF97320"
"6",1698421948333,"27/10/2023 15:52:28",1698425548333,1,"27/10/2023 17:52:28",149662,3,"task-ybli",NA,32536734,9628663,NA,"complete",NA,"653bd5795f2d7f3a95a5ae8d","computer","Desktop or Laptop","Mac OS 10.15.7","Chrome 117.0.0.0","1440x900","1440x815",NA,NA,0,"Task Introduction and Instructions (removed audio and video)",3,"FGEHDICJBA","Passed AC2","","Spreadsheet1",NA,"","","",NA,"5","END",NA,NA,NA,NA,NA,NA,0,NA,NA,NA,NA,"","",NA,"","",NA,"SUPPRF97320"
"1",1698421806444,"27/10/2023 15:50:06",1698425406444,1,"27/10/2023 17:50:06",149662,3,"task-ybli",NA,32536741,9628800,NA,"complete",NA,"653bd8e33499d0034dcd032b","computer","Desktop or Laptop","Mac OS 10.15.7","Chrome 115.0.0.0","1440x900","1440x782",NA,NA,0,"Task Introduction and Instructions (removed audio and video)",3,"GHFIEJDACB","Passed AC2","","Spreadsheet1",NA,"","","",NA,"5","BEGIN",NA,NA,NA,NA,NA,NA,0,NA,NA,NA,NA,"","",NA,"","",NA,"SUPPRF80658"
"2",1698421811217,"27/10/2023 15:50:11",1698425411217,1,"27/10/2023 17:50:11",149662,3,"task-ybli",NA,32536741,9628800,NA,"complete",NA,"653bd8e33499d0034dcd032b","computer","Desktop or Laptop","Mac OS 10.15.7","Chrome 115.0.0.0","1440x900","1440x782",NA,NA,0,"Task Introduction and Instructions (removed audio and video)",3,"GHFIEJDACB","Passed AC2","","Spreadsheet1",1,"Task Instructions","Screen 1","anr7sn",1,"continue","",4687.01599998808,4679.591,4687.01599998808,4687.01599998808,4679.591,4687.01599998808,1,4687.01599998808,0,0,NA,"Click To Continue","Continue Button",2,"object-1944","Task Instructions",NA,"SUPPRF80658"
"3",1698421820564,"27/10/2023 15:50:20",1698425420564,1,"27/10/2023 17:50:20",149662,3,"task-ybli",NA,32536741,9628800,NA,"complete",NA,"653bd8e33499d0034dcd032b","computer","Desktop or Laptop","Mac OS 10.15.7","Chrome 115.0.0.0","1440x900","1440x782",NA,NA,0,"Task Introduction and Instructions (removed audio and video)",3,"GHFIEJDACB","Passed AC2","","Spreadsheet1",1,"Task Instructions","Screen 2","ce2tc8",2,"continue","",9354.62499997616,9341.807,9354.62499997616,9354.62499997616,9341.807,9354.62499997616,1,9354.62499997616,0,0,NA,"Click To Continue","Continue Button",2,"object-7","Task Instructions",NA,"SUPPRF80658"
"4",1698421824170,"27/10/2023 15:50:24",1698425424170,1,"27/10/2023 17:50:24",149662,3,"task-ybli",NA,32536741,9628800,NA,"complete",NA,"653bd8e33499d0034dcd032b","computer","Desktop or Laptop","Mac OS 10.15.7","Chrome 115.0.0.0","1440x900","1440x782",NA,NA,0,"Task Introduction and Instructions (removed audio and video)",3,"GHFIEJDACB","Passed AC2","","Spreadsheet1",1,"Task Instructions","Screen 5","spepx9",3,"continue","",3616.522,3599.856,3616.522,3616.522,3599.856,3616.522,1,3616.522,0,0,NA,"Click To Continue","Continue Button",2,"object-9","Task Instructions",NA,"SUPPRF80658"
"5",1698421827107,"27/10/2023 15:50:27",1698425427107,1,"27/10/2023 17:50:27",149662,3,"task-ybli",NA,32536741,9628800,NA,"complete",NA,"653bd8e33499d0034dcd032b","computer","Desktop or Laptop","Mac OS 10.15.7","Chrome 115.0.0.0","1440x900","1440x782",NA,NA,0,"Task Introduction and Instructions (removed audio and video)",3,"GHFIEJDACB","Passed AC2","","Spreadsheet1",1,"Task Instructions","Screen 9","8nvnao",4,"continue","",2949.882,2933.216,2949.882,2949.882,2933.216,2949.882,1,2949.882,0,0,NA,"Click To Continue","Continue Button",2,"object-44","Task Instructions",NA,"SUPPRF80658"
"6",1698421827111,"27/10/2023 15:50:27",1698425427111,1,"27/10/2023 17:50:27",149662,3,"task-ybli",NA,32536741,9628800,NA,"complete",NA,"653bd8e33499d0034dcd032b","computer","Desktop or Laptop","Mac OS 10.15.7","Chrome 115.0.0.0","1440x900","1440x782",NA,NA,0,"Task Introduction and Instructions (removed audio and video)",3,"GHFIEJDACB","Passed AC2","","Spreadsheet1",NA,"","","",NA,"5","END",NA,NA,NA,NA,NA,NA,0,NA,NA,NA,NA,"","",NA,"","",NA,"SUPPRF80658"
"1",1698421922091,"27/10/2023 15:52:02",1698425522091,1,"27/10/2023 17:52:02",149662,3,"task-ybli",NA,32536846,9628817,NA,"complete",NA,"653bda672a5167b217d6fd33","computer","Desktop or Laptop","Mac OS 10.15.7","Chrome 118.0.0.0","1440x900","1440x815",NA,NA,0,"Task Introduction and Instructions (removed audio and video)",3,"JAIBHCGDFE","Passed AC2","","Spreadsheet1",NA,"","","",NA,"5","BEGIN",NA,NA,NA,NA,NA,NA,0,NA,NA,NA,NA,"","",NA,"","",NA,"SUPPRF03421"
"2",1698421925473,"27/10/2023 15:52:05",1698425525473,1,"27/10/2023 17:52:05",149662,3,"task-ybli",NA,32536846,9628817,NA,"complete",NA,"653bda672a5167b217d6fd33","computer","Desktop or Laptop","Mac OS 10.15.7","Chrome 118.0.0.0","1440x900","1440x815",NA,NA,0,"Task Introduction and Instructions (removed audio and video)",3,"JAIBHCGDFE","Passed AC2","","Spreadsheet1",1,"Task Instructions","Screen 1","anr7sn",1,"continue","",3341.78100000894,3333.842,3341.78100000894,3341.78100000894,3333.842,3341.78100000894,1,3341.78100000894,0,0,NA,"Click To Continue","Continue Button",2,"object-1944","Task Instructions",NA,"SUPPRF03421"
"3",1698421939023,"27/10/2023 15:52:19",1698425539023,1,"27/10/2023 17:52:19",149662,3,"task-ybli",NA,32536846,9628817,NA,"complete",NA,"653bda672a5167b217d6fd33","computer","Desktop or Laptop","Mac OS 10.15.7","Chrome 118.0.0.0","1440x900","1440x815",NA,NA,0,"Task Introduction and Instructions (removed audio and video)",3,"JAIBHCGDFE","Passed AC2","","Spreadsheet1",1,"Task Instructions","Screen 2","ce2tc8",2,"continue","",13558.539000003,13533.409,13558.539000003,13558.539000003,13533.409,13558.539000003,1,13558.539000003,0,0,NA,"Click To Continue","Continue Button",2,"object-7","Task Instructions",NA,"SUPPRF03421"
"4",1698421941505,"27/10/2023 15:52:21",1698425541505,1,"27/10/2023 17:52:21",149662,3,"task-ybli",NA,32536846,9628817,NA,"complete",NA,"653bda672a5167b217d6fd33","computer","Desktop or Laptop","Mac OS 10.15.7","Chrome 118.0.0.0","1440x900","1440x815",NA,NA,0,"Task Introduction and Instructions (removed audio and video)",3,"JAIBHCGDFE","Passed AC2","","Spreadsheet1",1,"Task Instructions","Screen 5","spepx9",3,"continue","",2507.43,2499.9,2507.43,2507.43,2499.9,2507.43,1,2507.43,0,0,NA,"Click To Continue","Continue Button",2,"object-9","Task Instructions",NA,"SUPPRF03421"
"5",1698421944006,"27/10/2023 15:52:24",1698425544006,1,"27/10/2023 17:52:24",149662,3,"task-ybli",NA,32536846,9628817,NA,"complete",NA,"653bda672a5167b217d6fd33","computer","Desktop or Laptop","Mac OS 10.15.7","Chrome 118.0.0.0","1440x900","1440x815",NA,NA,0,"Task Introduction and Instructions (removed audio and video)",3,"JAIBHCGDFE","Passed AC2","","Spreadsheet1",1,"Task Instructions","Screen 9","8nvnao",4,"continue","",2508.13000000894,2499.9,2508.13000000894,2508.13000000894,2499.9,2508.13000000894,1,2508.13000000894,0,0,NA,"Click To Continue","Continue Button",2,"object-44","Task Instructions",NA,"SUPPRF03421"
"6",1698421944009,"27/10/2023 15:52:24",1698425544009,1,"27/10/2023 17:52:24",149662,3,"task-ybli",NA,32536846,9628817,NA,"complete",NA,"653bda672a5167b217d6fd33","computer","Desktop or Laptop","Mac OS 10.15.7","Chrome 118.0.0.0","1440x900","1440x815",NA,NA,0,"Task Introduction and Instructions (removed audio and video)",3,"JAIBHCGDFE","Passed AC2","","Spreadsheet1",NA,"","","",NA,"5","END",NA,NA,NA,NA,NA,NA,0,NA,NA,NA,NA,"","",NA,"","",NA,"SUPPRF03421"
"1",1698421948232,"27/10/2023 15:52:28",1698425548232,1,"27/10/2023 17:52:28",149662,3,"task-ybli",NA,32536860,9628804,NA,"complete",NA,"653bd9ee3da3a91a67425009","computer","Desktop or Laptop","Windows 10","Chrome 118.0.0.0","1536x864","1536x695",NA,NA,0,"Task Introduction and Instructions (removed audio and video)",3,"IJHAGBFCED","Failed AC2","Passed AC1","Spreadsheet1",NA,"","","",NA,"5","BEGIN",NA,NA,NA,NA,NA,NA,0,NA,NA,NA,NA,"","",NA,"","",NA,"SUPPRF88012"
"2",1698421951919,"27/10/2023 15:52:31",1698425551919,1,"27/10/2023 17:52:31",149662,3,"task-ybli",NA,32536860,9628804,NA,"complete",NA,"653bd9ee3da3a91a67425009","computer","Desktop or Laptop","Windows 10","Chrome 118.0.0.0","1536x864","1536x695",NA,NA,0,"Task Introduction and Instructions (removed audio and video)",3,"IJHAGBFCED","Failed AC2","Passed AC1","Spreadsheet1",1,"Task Instructions","Screen 1","anr7sn",1,"continue","",3644.71400000074,3640.839,3644.71400000074,3644.71400000074,3640.839,3644.71400000074,1,3644.71400000074,0,0,NA,"Click To Continue","Continue Button",2,"object-1944","Task Instructions",NA,"SUPPRF88012"
"3",1698421957389,"27/10/2023 15:52:37",1698425557389,1,"27/10/2023 17:52:37",149662,3,"task-ybli",NA,32536860,9628804,NA,"complete",NA,"653bd9ee3da3a91a67425009","computer","Desktop or Laptop","Windows 10","Chrome 118.0.0.0","1536x864","1536x695",NA,NA,0,"Task Introduction and Instructions (removed audio and video)",3,"IJHAGBFCED","Failed AC2","Passed AC1","Spreadsheet1",1,"Task Instructions","Screen 2","ce2tc8",2,"continue","",5474.578,5465.991,5474.578,5474.578,5465.991,5474.578,1,5474.578,0,0,NA,"Click To Continue","Continue Button",2,"object-7","Task Instructions",NA,"SUPPRF88012"
"4",1698421960244,"27/10/2023 15:52:40",1698425560244,1,"27/10/2023 17:52:40",149662,3,"task-ybli",NA,32536860,9628804,NA,"complete",NA,"653bd9ee3da3a91a67425009","computer","Desktop or Laptop","Windows 10","Chrome 118.0.0.0","1536x864","1536x695",NA,NA,0,"Task Introduction and Instructions (removed audio and video)",3,"IJHAGBFCED","Failed AC2","Passed AC1","Spreadsheet1",1,"Task Instructions","Screen 5","spepx9",3,"continue","",2864.28399999926,2857.765,2864.28399999926,2864.28399999926,2857.765,2864.28399999926,1,2864.28399999926,0,0,NA,"Click To Continue","Continue Button",2,"object-9","Task Instructions",NA,"SUPPRF88012"
"5",1698421963524,"27/10/2023 15:52:43",1698425563524,1,"27/10/2023 17:52:43",149662,3,"task-ybli",NA,32536860,9628804,NA,"complete",NA,"653bd9ee3da3a91a67425009","computer","Desktop or Laptop","Windows 10","Chrome 118.0.0.0","1536x864","1536x695",NA,NA,0,"Task Introduction and Instructions (removed audio and video)",3,"IJHAGBFCED","Failed AC2","Passed AC1","Spreadsheet1",1,"Task Instructions","Screen 9","8nvnao",4,"continue","",3286.51899999925,3283.051,3286.51899999925,3286.51899999925,3283.051,3286.51899999925,1,3286.51899999925,0,0,NA,"Click To Continue","Continue Button",2,"object-44","Task Instructions",NA,"SUPPRF88012"
"6",1698421963538,"27/10/2023 15:52:43",1698425563538,1,"27/10/2023 17:52:43",149662,3,"task-ybli",NA,32536860,9628804,NA,"complete",NA,"653bd9ee3da3a91a67425009","computer","Desktop or Laptop","Windows 10","Chrome 118.0.0.0","1536x864","1536x695",NA,NA,0,"Task Introduction and Instructions (removed audio and video)",3,"IJHAGBFCED","Failed AC2","Passed AC1","Spreadsheet1",NA,"","","",NA,"5","END",NA,NA,NA,NA,NA,NA,0,NA,NA,NA,NA,"","",NA,"","",NA,"SUPPRF88012"
"1",1698421958513,"27/10/2023 15:52:38",1698425558513,1,"27/10/2023 17:52:38",149662,3,"task-ybli",NA,32536879,9628823,NA,"complete",NA,"653bda949357e3bcf65890fc","computer","Desktop or Laptop","Windows 10","Chrome 118.0.0.0","1920x1080","1920x963",NA,NA,0,"Task Introduction and Instructions (removed audio and video)",3,"BCADJEIFHG","Passed AC2","","Spreadsheet1",NA,"","","",NA,"5","BEGIN",NA,NA,NA,NA,NA,NA,0,NA,NA,NA,NA,"","",NA,"","",NA,"SUPPRF01236"
"2",1698421961430,"27/10/2023 15:52:41",1698425561430,1,"27/10/2023 17:52:41",149662,3,"task-ybli",NA,32536879,9628823,NA,"complete",NA,"653bda949357e3bcf65890fc","computer","Desktop or Laptop","Windows 10","Chrome 118.0.0.0","1920x1080","1920x963",NA,NA,0,"Task Introduction and Instructions (removed audio and video)",3,"BCADJEIFHG","Passed AC2","","Spreadsheet1",1,"Task Instructions","Screen 1","anr7sn",1,"continue","",2860.71200000075,2857.183,2860.71200000075,2860.71200000075,2857.183,2860.71200000075,1,2860.71200000075,0,0,NA,"Click To Continue","Continue Button",2,"object-1944","Task Instructions",NA,"SUPPRF01236"
"3",1698421965649,"27/10/2023 15:52:45",1698425565649,1,"27/10/2023 17:52:45",149662,3,"task-ybli",NA,32536879,9628823,NA,"complete",NA,"653bda949357e3bcf65890fc","computer","Desktop or Laptop","Windows 10","Chrome 118.0.0.0","1920x1080","1920x963",NA,NA,0,"Task Introduction and Instructions (removed audio and video)",3,"BCADJEIFHG","Passed AC2","","Spreadsheet1",1,"Task Instructions","Screen 2","ce2tc8",2,"continue","",4222.82900000149,4219.713,4222.82900000149,4222.82900000149,4219.713,4222.82900000149,1,4222.82900000149,0,0,NA,"Click To Continue","Continue Button",2,"object-7","Task Instructions",NA,"SUPPRF01236"
"4",1698421968252,"27/10/2023 15:52:48",1698425568252,1,"27/10/2023 17:52:48",149662,3,"task-ybli",NA,32536879,9628823,NA,"complete",NA,"653bda949357e3bcf65890fc","computer","Desktop or Laptop","Windows 10","Chrome 118.0.0.0","1920x1080","1920x963",NA,NA,0,"Task Introduction and Instructions (removed audio and video)",3,"BCADJEIFHG","Passed AC2","","Spreadsheet1",1,"Task Instructions","Screen 5","spepx9",3,"continue","",2606.016,2599.932,2606.016,2606.016,2599.932,2606.016,1,2606.016,0,0,NA,"Click To Continue","Continue Button",2,"object-9","Task Instructions",NA,"SUPPRF01236"
"5",1698421970873,"27/10/2023 15:52:50",1698425570873,1,"27/10/2023 17:52:50",149662,3,"task-ybli",NA,32536879,9628823,NA,"complete",NA,"653bda949357e3bcf65890fc","computer","Desktop or Laptop","Windows 10","Chrome 118.0.0.0","1920x1080","1920x963",NA,NA,0,"Task Introduction and Instructions (removed audio and video)",3,"BCADJEIFHG","Passed AC2","","Spreadsheet1",1,"Task Instructions","Screen 9","8nvnao",4,"continue","",2627.18400000149,2620.866,2627.18400000149,2627.18400000149,2620.866,2627.18400000149,1,2627.18400000149,0,0,NA,"Click To Continue","Continue Button",2,"object-44","Task Instructions",NA,"SUPPRF01236"
"6",1698421970877,"27/10/2023 15:52:50",1698425570877,1,"27/10/2023 17:52:50",149662,3,"task-ybli",NA,32536879,9628823,NA,"complete",NA,"653bda949357e3bcf65890fc","computer","Desktop or Laptop","Windows 10","Chrome 118.0.0.0","1920x1080","1920x963",NA,NA,0,"Task Introduction and Instructions (removed audio and video)",3,"BCADJEIFHG","Passed AC2","","Spreadsheet1",NA,"","","",NA,"5","END",NA,NA,NA,NA,NA,NA,0,NA,NA,NA,NA,"","",NA,"","",NA,"SUPPRF01236"
"1",1698421961016,"27/10/2023 15:52:41",1698425561016,1,"27/10/2023 17:52:41",149662,3,"task-ybli",NA,32536885,9628819,NA,"complete",NA,"653bda562ec68225405aea75","computer","Desktop or Laptop","Windows 10","Chrome 118.0.0.0","1920x1080","1920x931",NA,NA,0,"Task Introduction and Instructions (removed audio and video)",3,"ABJCIDHEGF","Passed AC2","","Spreadsheet1",NA,"","","",NA,"5","BEGIN",NA,NA,NA,NA,NA,NA,0,NA,NA,NA,NA,"","",NA,"","",NA,"SUPPRF25745"
"2",1698421965646,"27/10/2023 15:52:45",1698425565646,1,"27/10/2023 17:52:45",149662,3,"task-ybli",NA,32536885,9628819,NA,"complete",NA,"653bda562ec68225405aea75","computer","Desktop or Laptop","Windows 10","Chrome 118.0.0.0","1920x1080","1920x931",NA,NA,0,"Task Introduction and Instructions (removed audio and video)",3,"ABJCIDHEGF","Passed AC2","","Spreadsheet1",1,"Task Instructions","Screen 1","anr7sn",1,"continue","",4573.028,4569.444,4573.028,4573.028,4569.444,4573.028,1,4573.028,0,0,NA,"Click To Continue","Continue Button",2,"object-1944","Task Instructions",NA,"SUPPRF25745"
"3",1698421974145,"27/10/2023 15:52:54",1698425574145,1,"27/10/2023 17:52:54",149662,3,"task-ybli",NA,32536885,9628819,NA,"complete",NA,"653bda562ec68225405aea75","computer","Desktop or Laptop","Windows 10","Chrome 118.0.0.0","1920x1080","1920x931",NA,NA,0,"Task Introduction and Instructions (removed audio and video)",3,"ABJCIDHEGF","Passed AC2","","Spreadsheet1",1,"Task Instructions","Screen 2","ce2tc8",2,"continue","",8502.38400000074,8500.351,8502.38400000074,8502.38400000074,8500.351,8502.38400000074,1,8502.38400000074,0,0,NA,"Click To Continue","Continue Button",2,"object-7","Task Instructions",NA,"SUPPRF25745"
"4",1698421982232,"27/10/2023 15:53:02",1698425582232,1,"27/10/2023 17:53:02",149662,3,"task-ybli",NA,32536885,9628819,NA,"complete",NA,"653bda562ec68225405aea75","computer","Desktop or Laptop","Windows 10","Chrome 118.0.0.0","1920x1080","1920x931",NA,NA,0,"Task Introduction and Instructions (removed audio and video)",3,"ABJCIDHEGF","Passed AC2","","Spreadsheet1",1,"Task Instructions","Screen 5","spepx9",3,"continue","",8089.33299999963,8082.818,8089.33299999963,8089.33299999963,8082.818,8089.33299999963,1,8089.33299999963,0,0,NA,"Click To Continue","Continue Button",2,"object-9","Task Instructions",NA,"SUPPRF25745"
"5",1698421985031,"27/10/2023 15:53:05",1698425585031,1,"27/10/2023 17:53:05",149662,3,"task-ybli",NA,32536885,9628819,NA,"complete",NA,"653bda562ec68225405aea75","computer","Desktop or Laptop","Windows 10","Chrome 118.0.0.0","1920x1080","1920x931",NA,NA,0,"Task Introduction and Instructions (removed audio and video)",3,"ABJCIDHEGF","Passed AC2","","Spreadsheet1",1,"Task Instructions","Screen 9","8nvnao",4,"continue","",2805.138,2798.625,2805.138,2805.138,2798.625,2805.138,1,2805.138,0,0,NA,"Click To Continue","Continue Button",2,"object-44","Task Instructions",NA,"SUPPRF25745"
"6",1698421985033,"27/10/2023 15:53:05",1698425585033,1,"27/10/2023 17:53:05",149662,3,"task-ybli",NA,32536885,9628819,NA,"complete",NA,"653bda562ec68225405aea75","computer","Desktop or Laptop","Windows 10","Chrome 118.0.0.0","1920x1080","1920x931",NA,NA,0,"Task Introduction and Instructions (removed audio and video)",3,"ABJCIDHEGF","Passed AC2","","Spreadsheet1",NA,"","","",NA,"5","END",NA,NA,NA,NA,NA,NA,0,NA,NA,NA,NA,"","",NA,"","",NA,"SUPPRF25745"
"1",1698422018568,"27/10/2023 15:53:38",1698425618568,1,"27/10/2023 17:53:38",149662,3,"task-ybli",NA,32536945,9628791,NA,"complete",NA,"653bd7aaaa7b6dc43e97116b","computer","Desktop or Laptop","Mac OS 10.15.7","Safari 16.5","1024x1366","1366x917",NA,NA,0,"Task Introduction and Instructions (removed audio and video)",3,"HIGJFAEBDC","Passed AC2","","Spreadsheet1",NA,"","","",NA,"5","BEGIN",NA,NA,NA,NA,NA,NA,0,NA,NA,NA,NA,"","",NA,"","",NA,"SUPPRF90136"
"2",1698422021419,"27/10/2023 15:53:41",1698425621419,1,"27/10/2023 17:53:41",149662,3,"task-ybli",NA,32536945,9628791,NA,"complete",NA,"653bd7aaaa7b6dc43e97116b","computer","Desktop or Laptop","Mac OS 10.15.7","Safari 16.5","1024x1366","1366x917",NA,NA,0,"Task Introduction and Instructions (removed audio and video)",3,"HIGJFAEBDC","Passed AC2","","Spreadsheet1",1,"Task Instructions","Screen 1","anr7sn",1,"continue","",2802,2785,2802,2802,2785,2802,1,2802,0,0,NA,"Click To Continue","Continue Button",2,"object-1944","Task Instructions",NA,"SUPPRF90136"
"3",1698422027446,"27/10/2023 15:53:47",1698425627446,1,"27/10/2023 17:53:47",149662,3,"task-ybli",NA,32536945,9628791,NA,"complete",NA,"653bd7aaaa7b6dc43e97116b","computer","Desktop or Laptop","Mac OS 10.15.7","Safari 16.5","1024x1366","1366x917",NA,NA,0,"Task Introduction and Instructions (removed audio and video)",3,"HIGJFAEBDC","Passed AC2","","Spreadsheet1",1,"Task Instructions","Screen 2","ce2tc8",2,"continue","",6050,6037,6050,6050,6037,6050,1,6050,0,0,NA,"Click To Continue","Continue Button",2,"object-7","Task Instructions",NA,"SUPPRF90136"
"4",1698422031540,"27/10/2023 15:53:51",1698425631540,1,"27/10/2023 17:53:51",149662,3,"task-ybli",NA,32536945,9628791,NA,"complete",NA,"653bd7aaaa7b6dc43e97116b","computer","Desktop or Laptop","Mac OS 10.15.7","Safari 16.5","1024x1366","1366x917",NA,NA,0,"Task Introduction and Instructions (removed audio and video)",3,"HIGJFAEBDC","Passed AC2","","Spreadsheet1",1,"Task Instructions","Screen 5","spepx9",3,"continue","",4103,4086,4103,4103,4086,4103,1,4103,0,0,NA,"Click To Continue","Continue Button",2,"object-9","Task Instructions",NA,"SUPPRF90136"
"5",1698422034400,"27/10/2023 15:53:54",1698425634400,1,"27/10/2023 17:53:54",149662,3,"task-ybli",NA,32536945,9628791,NA,"complete",NA,"653bd7aaaa7b6dc43e97116b","computer","Desktop or Laptop","Mac OS 10.15.7","Safari 16.5","1024x1366","1366x917",NA,NA,0,"Task Introduction and Instructions (removed audio and video)",3,"HIGJFAEBDC","Passed AC2","","Spreadsheet1",1,"Task Instructions","Screen 9","8nvnao",4,"continue","",2881,2868,2881,2881,2868,2881,1,2881,0,0,NA,"Click To Continue","Continue Button",2,"object-44","Task Instructions",NA,"SUPPRF90136"
"6",1698422034405,"27/10/2023 15:53:54",1698425634405,1,"27/10/2023 17:53:54",149662,3,"task-ybli",NA,32536945,9628791,NA,"complete",NA,"653bd7aaaa7b6dc43e97116b","computer","Desktop or Laptop","Mac OS 10.15.7","Safari 16.5","1024x1366","1366x917",NA,NA,0,"Task Introduction and Instructions (removed audio and video)",3,"HIGJFAEBDC","Passed AC2","","Spreadsheet1",NA,"","","",NA,"5","END",NA,NA,NA,NA,NA,NA,0,NA,NA,NA,NA,"","",NA,"","",NA,"SUPPRF90136"
"1",1698422033237,"27/10/2023 15:53:53",1698425633237,1,"27/10/2023 17:53:53",149662,3,"task-ybli",NA,32536959,9628762,NA,"complete",NA,"653bd84a968964cf047d3858","computer","Desktop or Laptop","Windows 10","Chrome 118.0.0.0","1536x864","1396x506",NA,NA,0,"Task Introduction and Instructions (removed audio and video)",3,"DECFBGAHJI","Passed AC2","","Spreadsheet1",NA,"","","",NA,"5","BEGIN",NA,NA,NA,NA,NA,NA,0,NA,NA,NA,NA,"","",NA,"","",NA,"SUPPRF19517"
"2",1698422036505,"27/10/2023 15:53:56",1698425636505,1,"27/10/2023 17:53:56",149662,3,"task-ybli",NA,32536959,9628762,NA,"complete",NA,"653bd84a968964cf047d3858","computer","Desktop or Laptop","Windows 10","Chrome 118.0.0.0","1536x864","1396x506",NA,NA,0,"Task Introduction and Instructions (removed audio and video)",3,"DECFBGAHJI","Passed AC2","","Spreadsheet1",1,"Task Instructions","Screen 1","anr7sn",1,"continue","",3089.18699999702,3080.947,3089.18699999702,3089.18699999702,3080.947,3089.18699999702,1,3089.18699999702,0,0,NA,"Click To Continue","Continue Button",2,"object-1944","Task Instructions",NA,"SUPPRF19517"
"3",1698422047330,"27/10/2023 15:54:07",1698425647330,1,"27/10/2023 17:54:07",149662,3,"task-ybli",NA,32536959,9628762,NA,"complete",NA,"653bd84a968964cf047d3858","computer","Desktop or Laptop","Windows 10","Chrome 118.0.0.0","1536x864","1396x506",NA,NA,0,"Task Introduction and Instructions (removed audio and video)",3,"DECFBGAHJI","Passed AC2","","Spreadsheet1",1,"Task Instructions","Screen 2","ce2tc8",2,"continue","",10833.840000006,10824.298,10833.840000006,10833.840000006,10824.298,10833.840000006,1,10833.840000006,0,0,NA,"Click To Continue","Continue Button",2,"object-7","Task Instructions",NA,"SUPPRF19517"
"4",1698422050480,"27/10/2023 15:54:10",1698425650480,1,"27/10/2023 17:54:10",149662,3,"task-ybli",NA,32536959,9628762,NA,"complete",NA,"653bd84a968964cf047d3858","computer","Desktop or Laptop","Windows 10","Chrome 118.0.0.0","1536x864","1396x506",NA,NA,0,"Task Introduction and Instructions (removed audio and video)",3,"DECFBGAHJI","Passed AC2","","Spreadsheet1",1,"Task Instructions","Screen 5","spepx9",3,"continue","",3159.24199999404,3147.378,3159.24199999404,3159.24199999404,3147.378,3159.24199999404,1,3159.24199999404,0,0,NA,"Click To Continue","Continue Button",2,"object-9","Task Instructions",NA,"SUPPRF19517"
"5",1698422053324,"27/10/2023 15:54:13",1698425653324,1,"27/10/2023 17:54:13",149662,3,"task-ybli",NA,32536959,9628762,NA,"complete",NA,"653bd84a968964cf047d3858","computer","Desktop or Laptop","Windows 10","Chrome 118.0.0.0","1536x864","1396x506",NA,NA,0,"Task Introduction and Instructions (removed audio and video)",3,"DECFBGAHJI","Passed AC2","","Spreadsheet1",1,"Task Instructions","Screen 9","8nvnao",4,"continue","",2855.36399999404,2847.66,2855.36399999404,2855.36399999404,2847.66,2855.36399999404,1,2855.36399999404,0,0,NA,"Click To Continue","Continue Button",2,"object-44","Task Instructions",NA,"SUPPRF19517"
"6",1698422053327,"27/10/2023 15:54:13",1698425653327,1,"27/10/2023 17:54:13",149662,3,"task-ybli",NA,32536959,9628762,NA,"complete",NA,"653bd84a968964cf047d3858","computer","Desktop or Laptop","Windows 10","Chrome 118.0.0.0","1536x864","1396x506",NA,NA,0,"Task Introduction and Instructions (removed audio and video)",3,"DECFBGAHJI","Passed AC2","","Spreadsheet1",NA,"","","",NA,"5","END",NA,NA,NA,NA,NA,NA,0,NA,NA,NA,NA,"","",NA,"","",NA,"SUPPRF19517"
"1",1698422082147,"27/10/2023 15:54:42",1698425682147,1,"27/10/2023 17:54:42",149662,3,"task-ybli",NA,32536993,9628743,NA,"rejected - time limit reached",NA,"653bd88a0e0f1ce72623a4ba","computer","Desktop or Laptop","Windows 10","Edge 118.0.2088.61","1281x721","1540x757",NA,NA,0,"Task Introduction and Instructions (removed audio and video)",3,"CDBEAFJGIH","Passed AC2","","Spreadsheet1",NA,"","","",NA,"5","BEGIN",NA,NA,NA,NA,NA,NA,0,NA,NA,NA,NA,"","",NA,"","",NA,"SUPPRF69688"
"2",1698422682350,"27/10/2023 16:04:42",1698426282350,1,"27/10/2023 18:04:42",149662,3,"task-ybli",NA,32536993,9628743,NA,"rejected - time limit reached",NA,"653bd88a0e0f1ce72623a4ba","computer","Desktop or Laptop","Windows 10","Edge 118.0.2088.61","1281x721","1540x757",NA,NA,0,"Task Introduction and Instructions (removed audio and video)",3,"CDBEAFJGIH","Passed AC2","","Spreadsheet1",1,"Task Instructions","Screen 1","anr7sn",1,"continue","",600140.241999964,600123.941,600140.241999964,600140.241999964,600123.941,600140.241999964,1,600140.241999964,0,0,NA,"Click To Continue","Continue Button",2,"object-1944","Task Instructions",NA,"SUPPRF69688"
"3",1698422698257,"27/10/2023 16:04:58",1698426298257,1,"27/10/2023 18:04:58",149662,3,"task-ybli",NA,32536993,9628743,NA,"rejected - time limit reached",NA,"653bd88a0e0f1ce72623a4ba","computer","Desktop or Laptop","Windows 10","Edge 118.0.2088.61","1281x721","1540x757",NA,NA,0,"Task Introduction and Instructions (removed audio and video)",3,"CDBEAFJGIH","Passed AC2","","Spreadsheet1",1,"Task Instructions","Screen 2","ce2tc8",2,"continue","",15924.5009999523,15916.882,15924.5009999523,15924.5009999523,15916.882,15924.5009999523,1,15924.5009999523,0,0,NA,"Click To Continue","Continue Button",2,"object-7","Task Instructions",NA,"SUPPRF69688"
