"Event.Index","UTC.Timestamp","UTC.Date.and.Time","Local.Timestamp","Local.Timezone","Local.Date.and.Time","Experiment.ID","Experiment.Version","Tree.Node.Key","Repeat.Key","Schedule.ID","Participant.Private.ID","Participant.Starting.Group","Participant.Status","Participant.Completion.Code","Participant.External.Session.ID","Participant.Device.Type","Participant.Device","Participant.OS","Participant.Browser","Participant.Monitor.Size","Participant.Viewport.Size","Checkpoint","Room.ID","Room.Order","Task.Name","Task.Version","order.ot79","branch.g31k","branch.5gtn","Spreadsheet","Trial.Number","Display","Screen","Screen.ID","Screen.Counter","Response.Type","Response","Onset.Time","Clock.Time","Reaction.Time","Absolute.Onset.Time","Absolute.Clock.Time","Absolute.Reaction.Time","Correct","Response.Onset","Response.Duration","Proportion","Tag","Component.Name","Object.Name","Object.Number","Object.ID","Spreadsheet..display","Manipulation..Spreadsheet","Random_ID"
"1",1698418715535,"27/10/2023 14:58:35",1698422315535,1,"27/10/2023 16:58:35",149662,3,"task-gjqt",NA,32534112,9628414,NA,"rejected - time limit reached",NA,"653bce2a7fa6f396900dfb99","computer","Desktop or Laptop","Windows 10","Edge 118.0.2088.61","1280x720","1272x598",NA,NA,0,"BIQ (Charlotte)",3,"ABJCIDHEGF","Passed AC2","","Spreadsheet1",NA,"","","",NA,"5","BEGIN",NA,NA,NA,NA,NA,NA,0,NA,NA,NA,NA,"","",NA,"","",NA,"SUPPRF31333"
"2",1698418757164,"27/10/2023 14:59:17",1698422357164,1,"27/10/2023 16:59:17",149662,3,"task-gjqt",NA,32534112,9628414,NA,"rejected - time limit reached",NA,"653bce2a7fa6f396900dfb99","computer","Desktop or Laptop","Windows 10","Edge 118.0.2088.61","1280x720","1272x598",NA,NA,0,"BIQ (Charlotte)",3,"ABJCIDHEGF","Passed AC2","","Spreadsheet1",1,"BIQ","Screen 1","9dh6eq",1,"continue","",41638.8770000238,41628.263,41638.8770000238,41638.8770000238,41628.263,41638.8770000238,1,41638.8770000238,0,0,NA,"Click To Continue","Continue Button",23,"object-48","BIQ",NA,"SUPPRF31333"
"3",1698418757166,"27/10/2023 14:59:17",1698422357166,1,"27/10/2023 16:59:17",149662,3,"task-gjqt",NA,32534112,9628414,NA,"rejected - time limit reached",NA,"653bce2a7fa6f396900dfb99","computer","Desktop or Laptop","Windows 10","Edge 118.0.2088.61","1280x720","1272x598",NA,NA,0,"BIQ (Charlotte)",3,"ABJCIDHEGF","Passed AC2","","Spreadsheet1",1,"BIQ","Screen 1","9dh6eq",1,"response","7",27163.195,41628.263,41641.6770000358,27163.195,41628.263,41641.6770000358,1,27163.195,14478.4820000358,0,NA,"Rating Scale","Rating Scale",3,"object-5","BIQ",NA,"SUPPRF31333"
"4",1698418757167,"27/10/2023 14:59:17",1698422357167,1,"27/10/2023 16:59:17",149662,3,"task-gjqt",NA,32534112,9628414,NA,"rejected - time limit reached",NA,"653bce2a7fa6f396900dfb99","computer","Desktop or Laptop","Windows 10","Edge 118.0.2088.61","1280x720","1272x598",NA,NA,0,"BIQ (Charlotte)",3,"ABJCIDHEGF","Passed AC2","","Spreadsheet1",1,"BIQ","Screen 1","9dh6eq",1,"response","6",34245.556,41628.263,41642.0770000119,34245.556,41628.263,41642.0770000119,1,34245.556,7396.52100001192,0,NA,"Rating Scale","Rating Scale",10,"object-18","BIQ",NA,"SUPPRF31333"
"5",1698418757167,"27/10/2023 14:59:17",1698422357167,1,"27/10/2023 16:59:17",149662,3,"task-gjqt",NA,32534112,9628414,NA,"rejected - time limit reached",NA,"653bce2a7fa6f396900dfb99","computer","Desktop or Laptop","Windows 10","Edge 118.0.2088.61","1280x720","1272x598",NA,NA,0,"BIQ (Charlotte)",3,"ABJCIDHEGF","Passed AC2","","Spreadsheet1",1,"BIQ","Screen 1","9dh6eq",1,"response","2",40894.691,41628.263,41642.4769999881,40894.691,41628.263,41642.4769999881,1,40894.691,747.785999988082,0,NA,"Rating Scale","Rating Scale",17,"object-80","BIQ",NA,"SUPPRF31333"
"6",1698418769658,"27/10/2023 14:59:29",1698422369658,1,"27/10/2023 16:59:29",149662,3,"task-gjqt",NA,32534112,9628414,NA,"rejected - time limit reached",NA,"653bce2a7fa6f396900dfb99","computer","Desktop or Laptop","Windows 10","Edge 118.0.2088.61","1280x720","1272x598",NA,NA,0,"BIQ (Charlotte)",3,"ABJCIDHEGF","Passed AC2","","Spreadsheet1",1,"BIQ","Screen 2","o21mwi",2,"continue","",12504.7139999881,12498.123,12504.7139999881,12504.7139999881,12498.123,12504.7139999881,1,12504.7139999881,0,0,NA,"Click To Continue","Continue Button",22,"object-50","BIQ",NA,"SUPPRF31333"
"7",1698418769661,"27/10/2023 14:59:29",1698422369661,1,"27/10/2023 16:59:29",149662,3,"task-gjqt",NA,32534112,9628414,NA,"rejected - time limit reached",NA,"653bce2a7fa6f396900dfb99","computer","Desktop or Laptop","Windows 10","Edge 118.0.2088.61","1280x720","1272x598",NA,NA,0,"BIQ (Charlotte)",3,"ABJCIDHEGF","Passed AC2","","Spreadsheet1",1,"BIQ","Screen 2","o21mwi",2,"response","8",5299.042,12498.123,12507.4140000358,5299.042,12498.123,12507.4140000358,1,5299.042,7208.37200003576,0,NA,"Rating Scale","Rating Scale",2,"object-259","BIQ",NA,"SUPPRF31333"
"8",1698418769661,"27/10/2023 14:59:29",1698422369661,1,"27/10/2023 16:59:29",149662,3,"task-gjqt",NA,32534112,9628414,NA,"rejected - time limit reached",NA,"653bce2a7fa6f396900dfb99","computer","Desktop or Laptop","Windows 10","Edge 118.0.2088.61","1280x720","1272x598",NA,NA,0,"BIQ (Charlotte)",3,"ABJCIDHEGF","Passed AC2","","Spreadsheet1",1,"BIQ","Screen 2","o21mwi",2,"response","0",8315.27800000001,12498.123,12507.7139999881,8315.27800000001,12498.123,12507.7139999881,1,8315.27800000001,4192.43599998808,0,NA,"Rating Scale","Rating Scale",9,"object-36","BIQ",NA,"SUPPRF31333"
"9",1698418769661,"27/10/2023 14:59:29",1698422369661,1,"27/10/2023 16:59:29",149662,3,"task-gjqt",NA,32534112,9628414,NA,"rejected - time limit reached",NA,"653bce2a7fa6f396900dfb99","computer","Desktop or Laptop","Windows 10","Edge 118.0.2088.61","1280x720","1272x598",NA,NA,0,"BIQ (Charlotte)",3,"ABJCIDHEGF","Passed AC2","","Spreadsheet1",1,"BIQ","Screen 2","o21mwi",2,"response","0",11931.497,12498.123,12508.1140000238,11931.497,12498.123,12508.1140000238,1,11931.497,576.617000023842,0,NA,"Rating Scale","Rating Scale",16,"object-86","BIQ",NA,"SUPPRF31333"
"10",1698418780294,"27/10/2023 14:59:40",1698422380294,1,"27/10/2023 16:59:40",149662,3,"task-gjqt",NA,32534112,9628414,NA,"rejected - time limit reached",NA,"653bce2a7fa6f396900dfb99","computer","Desktop or Laptop","Windows 10","Edge 118.0.2088.61","1280x720","1272x598",NA,NA,0,"BIQ (Charlotte)",3,"ABJCIDHEGF","Passed AC2","","Spreadsheet1",1,"BIQ","Screen 3","iz3the",3,"continue","",10642.5909999881,10632.006,10642.5909999881,10642.5909999881,10632.006,10642.5909999881,1,10642.5909999881,0,0,NA,"Click To Continue","Continue Button",22,"object-73","BIQ",NA,"SUPPRF31333"
"11",1698418780299,"27/10/2023 14:59:40",1698422380299,1,"27/10/2023 16:59:40",149662,3,"task-gjqt",NA,32534112,9628414,NA,"rejected - time limit reached",NA,"653bce2a7fa6f396900dfb99","computer","Desktop or Laptop","Windows 10","Edge 118.0.2088.61","1280x720","1272x598",NA,NA,0,"BIQ (Charlotte)",3,"ABJCIDHEGF","Passed AC2","","Spreadsheet1",1,"BIQ","Screen 3","iz3the",3,"response","0",3716.199,10632.006,10647.6910000119,3716.199,10632.006,10647.6910000119,1,3716.199,6931.49200001192,0,NA,"Rating Scale","Rating Scale",2,"object-53","BIQ",NA,"SUPPRF31333"
"12",1698418780300,"27/10/2023 14:59:40",1698422380300,1,"27/10/2023 16:59:40",149662,3,"task-gjqt",NA,32534112,9628414,NA,"rejected - time limit reached",NA,"653bce2a7fa6f396900dfb99","computer","Desktop or Laptop","Windows 10","Edge 118.0.2088.61","1280x720","1272x598",NA,NA,0,"BIQ (Charlotte)",3,"ABJCIDHEGF","Passed AC2","","Spreadsheet1",1,"BIQ","Screen 3","iz3the",3,"response","0",4932.69100000001,10632.006,10648.5909999881,4932.69100000001,10632.006,10648.5909999881,1,4932.69100000001,5715.89999998808,0,NA,"Rating Scale","Rating Scale",9,"object-60","BIQ",NA,"SUPPRF31333"
"13",1698418780301,"27/10/2023 14:59:40",1698422380301,1,"27/10/2023 16:59:40",149662,3,"task-gjqt",NA,32534112,9628414,NA,"rejected - time limit reached",NA,"653bce2a7fa6f396900dfb99","computer","Desktop or Laptop","Windows 10","Edge 118.0.2088.61","1280x720","1272x598",NA,NA,0,"BIQ (Charlotte)",3,"ABJCIDHEGF","Passed AC2","","Spreadsheet1",1,"BIQ","Screen 3","iz3the",3,"response","2",5799.236,10632.006,10648.685,5799.236,10632.006,10648.685,1,5799.236,4849.44900000001,0,NA,"Rating Scale","Rating Scale",16,"object-67","BIQ",NA,"SUPPRF31333"
"14",1698418780305,"27/10/2023 14:59:40",1698422380305,1,"27/10/2023 16:59:40",149662,3,"task-gjqt",NA,32534112,9628414,NA,"rejected - time limit reached",NA,"653bce2a7fa6f396900dfb99","computer","Desktop or Laptop","Windows 10","Edge 118.0.2088.61","1280x720","1272x598",NA,NA,0,"BIQ (Charlotte)",3,"ABJCIDHEGF","Passed AC2","","Spreadsheet1",NA,"","","",NA,"5","END",NA,NA,NA,NA,NA,NA,0,NA,NA,NA,NA,"","",NA,"","",NA,"SUPPRF31333"
"1",1698419452047,"27/10/2023 15:10:52",1698423052047,1,"27/10/2023 17:10:52",149662,3,"task-gjqt",NA,32534431,9628514,NA,"rejected - time limit reached",NA,"653bd27cdb11d6bb6b74689d","computer","Desktop or Laptop","Windows 10","Edge 118.0.2088.69","1536x864","1488x738",NA,NA,0,"BIQ (Charlotte)",3,"FGEHDICJBA","Passed AC2","","Spreadsheet1",NA,"","","",NA,"5","BEGIN",NA,NA,NA,NA,NA,NA,0,NA,NA,NA,NA,"","",NA,"","",NA,"SUPPRF83676"
"2",1698419505525,"27/10/2023 15:11:45",1698423105525,1,"27/10/2023 17:11:45",149662,3,"task-gjqt",NA,32534431,9628514,NA,"rejected - time limit reached",NA,"653bd27cdb11d6bb6b74689d","computer","Desktop or Laptop","Windows 10","Edge 118.0.2088.69","1536x864","1488x738",NA,NA,0,"BIQ (Charlotte)",3,"FGEHDICJBA","Passed AC2","","Spreadsheet1",1,"BIQ","Screen 1","9dh6eq",1,"continue","",53493.8380000002,53482.416,53493.8380000002,53493.8380000002,53482.416,53493.8380000002,1,53493.8380000002,0,0,NA,"Click To Continue","Continue Button",23,"object-48","BIQ",NA,"SUPPRF83676"
"3",1698419505527,"27/10/2023 15:11:45",1698423105527,1,"27/10/2023 17:11:45",149662,3,"task-gjqt",NA,32534431,9628514,NA,"rejected - time limit reached",NA,"653bd27cdb11d6bb6b74689d","computer","Desktop or Laptop","Windows 10","Edge 118.0.2088.69","1536x864","1488x738",NA,NA,0,"BIQ (Charlotte)",3,"FGEHDICJBA","Passed AC2","","Spreadsheet1",1,"BIQ","Screen 1","9dh6eq",1,"response","6",20866.814,53482.416,53496.2380000006,20866.814,53482.416,53496.2380000006,1,20866.814,32629.4240000006,0,NA,"Rating Scale","Rating Scale",3,"object-5","BIQ",NA,"SUPPRF83676"
"4",1698419505528,"27/10/2023 15:11:45",1698423105528,1,"27/10/2023 17:11:45",149662,3,"task-gjqt",NA,32534431,9628514,NA,"rejected - time limit reached",NA,"653bd27cdb11d6bb6b74689d","computer","Desktop or Laptop","Windows 10","Edge 118.0.2088.69","1536x864","1488x738",NA,NA,0,"BIQ (Charlotte)",3,"FGEHDICJBA","Passed AC2","","Spreadsheet1",1,"BIQ","Screen 1","9dh6eq",1,"response","5",42099.584,53482.416,53496.5380000004,42099.584,53482.416,53496.5380000004,1,42099.584,11396.9540000004,0,NA,"Rating Scale","Rating Scale",10,"object-18","BIQ",NA,"SUPPRF83676"
"5",1698419505528,"27/10/2023 15:11:45",1698423105528,1,"27/10/2023 17:11:45",149662,3,"task-gjqt",NA,32534431,9628514,NA,"rejected - time limit reached",NA,"653bd27cdb11d6bb6b74689d","computer","Desktop or Laptop","Windows 10","Edge 118.0.2088.69","1536x864","1488x738",NA,NA,0,"BIQ (Charlotte)",3,"FGEHDICJBA","Passed AC2","","Spreadsheet1",1,"BIQ","Screen 1","9dh6eq",1,"response","0",51582.257,53482.416,53496.7380000006,51582.257,53482.416,53496.7380000006,1,51582.257,1914.48100000056,0,NA,"Rating Scale","Rating Scale",17,"object-80","BIQ",NA,"SUPPRF83676"
"6",1698419541875,"27/10/2023 15:12:21",1698423141875,1,"27/10/2023 17:12:21",149662,3,"task-gjqt",NA,32534431,9628514,NA,"rejected - time limit reached",NA,"653bd27cdb11d6bb6b74689d","computer","Desktop or Laptop","Windows 10","Edge 118.0.2088.69","1536x864","1488x738",NA,NA,0,"BIQ (Charlotte)",3,"FGEHDICJBA","Passed AC2","","Spreadsheet1",1,"BIQ","Screen 2","o21mwi",2,"continue","",36362.722,36349.083,36362.722,36362.722,36349.083,36362.722,1,36362.722,0,0,NA,"Click To Continue","Continue Button",22,"object-50","BIQ",NA,"SUPPRF83676"
"7",1698419541880,"27/10/2023 15:12:21",1698423141880,1,"27/10/2023 17:12:21",149662,3,"task-gjqt",NA,32534431,9628514,NA,"rejected - time limit reached",NA,"653bd27cdb11d6bb6b74689d","computer","Desktop or Laptop","Windows 10","Edge 118.0.2088.69","1536x864","1488x738",NA,NA,0,"BIQ (Charlotte)",3,"FGEHDICJBA","Passed AC2","","Spreadsheet1",1,"BIQ","Screen 2","o21mwi",2,"response","6",15699.534,36349.083,36364.972,15699.534,36349.083,36364.972,1,15699.534,20665.438,0,NA,"Rating Scale","Rating Scale",2,"object-259","BIQ",NA,"SUPPRF83676"
"8",1698419541882,"27/10/2023 15:12:21",1698423141882,1,"27/10/2023 17:12:21",149662,3,"task-gjqt",NA,32534431,9628514,NA,"rejected - time limit reached",NA,"653bd27cdb11d6bb6b74689d","computer","Desktop or Laptop","Windows 10","Edge 118.0.2088.69","1536x864","1488x738",NA,NA,0,"BIQ (Charlotte)",3,"FGEHDICJBA","Passed AC2","","Spreadsheet1",1,"BIQ","Screen 2","o21mwi",2,"response","4",23199.336,36349.083,36364.972,23199.336,36349.083,36364.972,1,23199.336,13165.636,0,NA,"Rating Scale","Rating Scale",9,"object-36","BIQ",NA,"SUPPRF83676"
"9",1698419541883,"27/10/2023 15:12:21",1698423141883,1,"27/10/2023 17:12:21",149662,3,"task-gjqt",NA,32534431,9628514,NA,"rejected - time limit reached",NA,"653bd27cdb11d6bb6b74689d","computer","Desktop or Laptop","Windows 10","Edge 118.0.2088.69","1536x864","1488x738",NA,NA,0,"BIQ (Charlotte)",3,"FGEHDICJBA","Passed AC2","","Spreadsheet1",1,"BIQ","Screen 2","o21mwi",2,"response","5",34915.971,36349.083,36364.972,34915.971,36349.083,36364.972,1,34915.971,1449.00100000002,0,NA,"Rating Scale","Rating Scale",16,"object-86","BIQ",NA,"SUPPRF83676"
"10",1698419545199,"27/10/2023 15:12:25",1698423145199,1,"27/10/2023 17:12:25",149662,3,"task-gjqt",NA,32534431,9628514,NA,"rejected - time limit reached",NA,"653bd27cdb11d6bb6b74689d","computer","Desktop or Laptop","Windows 10","Edge 118.0.2088.69","1536x864","1488x738",NA,NA,0,"BIQ (Charlotte)",3,"FGEHDICJBA","Passed AC2","","Spreadsheet1",1,"BIQ","Screen 3","iz3the",3,"continue","",3337.23900000055,3333.652,3337.23900000055,3337.23900000055,3333.652,3337.23900000055,1,3337.23900000055,0,0,NA,"Click To Continue","Continue Button",22,"object-73","BIQ",NA,"SUPPRF83676"
"11",1698419583842,"27/10/2023 15:13:03",1698423183842,1,"27/10/2023 17:13:03",149662,3,"task-gjqt",NA,32534431,9628514,NA,"rejected - time limit reached",NA,"653bd27cdb11d6bb6b74689d","computer","Desktop or Laptop","Windows 10","Edge 118.0.2088.69","1536x864","1488x738",NA,NA,0,"BIQ (Charlotte)",3,"FGEHDICJBA","Passed AC2","","Spreadsheet1",1,"BIQ","Screen 3","iz3the",3,"continue","",41979.7390000006,41966.447,41979.7390000006,41979.7390000006,41966.447,41979.7390000006,1,41979.7390000006,0,0,NA,"Click To Continue","Continue Button",22,"object-73","BIQ",NA,"SUPPRF83676"
"12",1698419583847,"27/10/2023 15:13:03",1698423183847,1,"27/10/2023 17:13:03",149662,3,"task-gjqt",NA,32534431,9628514,NA,"rejected - time limit reached",NA,"653bd27cdb11d6bb6b74689d","computer","Desktop or Laptop","Windows 10","Edge 118.0.2088.69","1536x864","1488x738",NA,NA,0,"BIQ (Charlotte)",3,"FGEHDICJBA","Passed AC2","","Spreadsheet1",1,"BIQ","Screen 3","iz3the",3,"response","0",23833.403,41966.447,41982.567,23833.403,41966.447,41982.567,1,23833.403,18149.164,0,NA,"Rating Scale","Rating Scale",2,"object-53","BIQ",NA,"SUPPRF83676"
"13",1698419583847,"27/10/2023 15:13:03",1698423183847,1,"27/10/2023 17:13:03",149662,3,"task-gjqt",NA,32534431,9628514,NA,"rejected - time limit reached",NA,"653bd27cdb11d6bb6b74689d","computer","Desktop or Laptop","Windows 10","Edge 118.0.2088.69","1536x864","1488x738",NA,NA,0,"BIQ (Charlotte)",3,"FGEHDICJBA","Passed AC2","","Spreadsheet1",1,"BIQ","Screen 3","iz3the",3,"response","2",28749.472,41966.447,41982.567,28749.472,41966.447,41982.567,1,28749.472,13233.095,0,NA,"Rating Scale","Rating Scale",9,"object-60","BIQ",NA,"SUPPRF83676"
"14",1698419583848,"27/10/2023 15:13:03",1698423183848,1,"27/10/2023 17:13:03",149662,3,"task-gjqt",NA,32534431,9628514,NA,"rejected - time limit reached",NA,"653bd27cdb11d6bb6b74689d","computer","Desktop or Laptop","Windows 10","Edge 118.0.2088.69","1536x864","1488x738",NA,NA,0,"BIQ (Charlotte)",3,"FGEHDICJBA","Passed AC2","","Spreadsheet1",1,"BIQ","Screen 3","iz3the",3,"response","2",40649.273,41966.447,41982.567,40649.273,41966.447,41982.567,1,40649.273,1333.29399999999,0,NA,"Rating Scale","Rating Scale",16,"object-67","BIQ",NA,"SUPPRF83676"
"15",1698419583853,"27/10/2023 15:13:03",1698423183853,1,"27/10/2023 17:13:03",149662,3,"task-gjqt",NA,32534431,9628514,NA,"rejected - time limit reached",NA,"653bd27cdb11d6bb6b74689d","computer","Desktop or Laptop","Windows 10","Edge 118.0.2088.69","1536x864","1488x738",NA,NA,0,"BIQ (Charlotte)",3,"FGEHDICJBA","Passed AC2","","Spreadsheet1",NA,"","","",NA,"5","END",NA,NA,NA,NA,NA,NA,0,NA,NA,NA,NA,"","",NA,"","",NA,"SUPPRF83676"
"1",1698419456608,"27/10/2023 15:10:56",1698423056608,1,"27/10/2023 17:10:56",149662,3,"task-gjqt",NA,32534433,9628512,NA,"complete",NA,"653bd2522953810b3c4366d5","computer","Desktop or Laptop","Chromium OS 14541.0.0","Chrome 118.0.0.0","1366x768","1366x644",NA,NA,0,"BIQ (Charlotte)",3,"EFDGCHBIAJ","Passed AC2","","Spreadsheet1",NA,"","","",NA,"5","BEGIN",NA,NA,NA,NA,NA,NA,0,NA,NA,NA,NA,"","",NA,"","",NA,"SUPPRF18559"
"2",1698419477830,"27/10/2023 15:11:17",1698423077830,1,"27/10/2023 17:11:17",149662,3,"task-gjqt",NA,32534433,9628512,NA,"complete",NA,"653bd2522953810b3c4366d5","computer","Desktop or Laptop","Chromium OS 14541.0.0","Chrome 118.0.0.0","1366x768","1366x644",NA,NA,0,"BIQ (Charlotte)",3,"EFDGCHBIAJ","Passed AC2","","Spreadsheet1",1,"BIQ","Screen 1","9dh6eq",1,"continue","",21255.193,21239.357,21255.193,21255.193,21239.357,21255.193,1,21255.193,0,0,NA,"Click To Continue","Continue Button",23,"object-48","BIQ",NA,"SUPPRF18559"
"3",1698419477846,"27/10/2023 15:11:17",1698423077846,1,"27/10/2023 17:11:17",149662,3,"task-gjqt",NA,32534433,9628512,NA,"complete",NA,"653bd2522953810b3c4366d5","computer","Desktop or Laptop","Chromium OS 14541.0.0","Chrome 118.0.0.0","1366x768","1366x644",NA,NA,0,"BIQ (Charlotte)",3,"EFDGCHBIAJ","Passed AC2","","Spreadsheet1",1,"BIQ","Screen 1","9dh6eq",1,"response","6",6724.989,21239.357,21256.024,6724.989,21239.357,21256.024,1,6724.989,14531.035,0,NA,"Rating Scale","Rating Scale",3,"object-5","BIQ",NA,"SUPPRF18559"
"4",1698419477848,"27/10/2023 15:11:17",1698423077848,1,"27/10/2023 17:11:17",149662,3,"task-gjqt",NA,32534433,9628512,NA,"complete",NA,"653bd2522953810b3c4366d5","computer","Desktop or Laptop","Chromium OS 14541.0.0","Chrome 118.0.0.0","1366x768","1366x644",NA,NA,0,"BIQ (Charlotte)",3,"EFDGCHBIAJ","Passed AC2","","Spreadsheet1",1,"BIQ","Screen 1","9dh6eq",1,"response","5",14398.399,21239.357,21256.024,14398.399,21239.357,21256.024,1,14398.399,6857.625,0,NA,"Rating Scale","Rating Scale",10,"object-18","BIQ",NA,"SUPPRF18559"
"5",1698419477851,"27/10/2023 15:11:17",1698423077851,1,"27/10/2023 17:11:17",149662,3,"task-gjqt",NA,32534433,9628512,NA,"complete",NA,"653bd2522953810b3c4366d5","computer","Desktop or Laptop","Chromium OS 14541.0.0","Chrome 118.0.0.0","1366x768","1366x644",NA,NA,0,"BIQ (Charlotte)",3,"EFDGCHBIAJ","Passed AC2","","Spreadsheet1",1,"BIQ","Screen 1","9dh6eq",1,"response","2",20157.713,21239.357,21256.024,20157.713,21239.357,21256.024,1,20157.713,1098.311,0,NA,"Rating Scale","Rating Scale",17,"object-80","BIQ",NA,"SUPPRF18559"
"6",1698419498509,"27/10/2023 15:11:38",1698423098509,1,"27/10/2023 17:11:38",149662,3,"task-gjqt",NA,32534433,9628512,NA,"complete",NA,"653bd2522953810b3c4366d5","computer","Desktop or Laptop","Chromium OS 14541.0.0","Chrome 118.0.0.0","1366x768","1366x644",NA,NA,0,"BIQ (Charlotte)",3,"EFDGCHBIAJ","Passed AC2","","Spreadsheet1",1,"BIQ","Screen 2","o21mwi",2,"continue","",20697.836,20690.101,20697.836,20697.836,20690.101,20697.836,1,20697.836,0,0,NA,"Click To Continue","Continue Button",22,"object-50","BIQ",NA,"SUPPRF18559"
"7",1698419498522,"27/10/2023 15:11:38",1698423098522,1,"27/10/2023 17:11:38",149662,3,"task-gjqt",NA,32534433,9628512,NA,"complete",NA,"653bd2522953810b3c4366d5","computer","Desktop or Laptop","Chromium OS 14541.0.0","Chrome 118.0.0.0","1366x768","1366x644",NA,NA,0,"BIQ (Charlotte)",3,"EFDGCHBIAJ","Passed AC2","","Spreadsheet1",1,"BIQ","Screen 2","o21mwi",2,"response","7",11669.072,20690.101,20706.768,11669.072,20690.101,20706.768,1,11669.072,9037.696,0,NA,"Rating Scale","Rating Scale",2,"object-259","BIQ",NA,"SUPPRF18559"
"8",1698419498525,"27/10/2023 15:11:38",1698423098525,1,"27/10/2023 17:11:38",149662,3,"task-gjqt",NA,32534433,9628512,NA,"complete",NA,"653bd2522953810b3c4366d5","computer","Desktop or Laptop","Chromium OS 14541.0.0","Chrome 118.0.0.0","1366x768","1366x644",NA,NA,0,"BIQ (Charlotte)",3,"EFDGCHBIAJ","Passed AC2","","Spreadsheet1",1,"BIQ","Screen 2","o21mwi",2,"response","1",14797.805,20690.101,20706.768,14797.805,20690.101,20706.768,1,14797.805,5908.963,0,NA,"Rating Scale","Rating Scale",9,"object-36","BIQ",NA,"SUPPRF18559"
"9",1698419498527,"27/10/2023 15:11:38",1698423098527,1,"27/10/2023 17:11:38",149662,3,"task-gjqt",NA,32534433,9628512,NA,"complete",NA,"653bd2522953810b3c4366d5","computer","Desktop or Laptop","Chromium OS 14541.0.0","Chrome 118.0.0.0","1366x768","1366x644",NA,NA,0,"BIQ (Charlotte)",3,"EFDGCHBIAJ","Passed AC2","","Spreadsheet1",1,"BIQ","Screen 2","o21mwi",2,"response","1",19941.36,20690.101,20706.768,19941.36,20690.101,20706.768,1,19941.36,765.408000000003,0,NA,"Rating Scale","Rating Scale",16,"object-86","BIQ",NA,"SUPPRF18559"
"10",1698419538321,"27/10/2023 15:12:18",1698423138321,1,"27/10/2023 17:12:18",149662,3,"task-gjqt",NA,32534433,9628512,NA,"complete",NA,"653bd2522953810b3c4366d5","computer","Desktop or Laptop","Chromium OS 14541.0.0","Chrome 118.0.0.0","1366x768","1366x644",NA,NA,0,"BIQ (Charlotte)",3,"EFDGCHBIAJ","Passed AC2","","Spreadsheet1",1,"BIQ","Screen 3","iz3the",3,"continue","",39815.994,39799.327,39815.994,39815.994,39799.327,39815.994,1,39815.994,0,0,NA,"Click To Continue","Continue Button",22,"object-73","BIQ",NA,"SUPPRF18559"
"11",1698419538337,"27/10/2023 15:12:18",1698423138337,1,"27/10/2023 17:12:18",149662,3,"task-gjqt",NA,32534433,9628512,NA,"complete",NA,"653bd2522953810b3c4366d5","computer","Desktop or Laptop","Chromium OS 14541.0.0","Chrome 118.0.0.0","1366x768","1366x644",NA,NA,0,"BIQ (Charlotte)",3,"EFDGCHBIAJ","Passed AC2","","Spreadsheet1",1,"BIQ","Screen 3","iz3the",3,"response","1",35289.283,39799.327,39815.994,35289.283,39799.327,39815.994,1,35289.283,4526.71100000001,0,NA,"Rating Scale","Rating Scale",2,"object-53","BIQ",NA,"SUPPRF18559"
"12",1698419538340,"27/10/2023 15:12:18",1698423138340,1,"27/10/2023 17:12:18",149662,3,"task-gjqt",NA,32534433,9628512,NA,"complete",NA,"653bd2522953810b3c4366d5","computer","Desktop or Laptop","Chromium OS 14541.0.0","Chrome 118.0.0.0","1366x768","1366x644",NA,NA,0,"BIQ (Charlotte)",3,"EFDGCHBIAJ","Passed AC2","","Spreadsheet1",1,"BIQ","Screen 3","iz3the",3,"response","1",36120.694,39799.327,39815.994,36120.694,39799.327,39815.994,1,36120.694,3695.3,0,NA,"Rating Scale","Rating Scale",9,"object-60","BIQ",NA,"SUPPRF18559"
"13",1698419538343,"27/10/2023 15:12:18",1698423138343,1,"27/10/2023 17:12:18",149662,3,"task-gjqt",NA,32534433,9628512,NA,"complete",NA,"653bd2522953810b3c4366d5","computer","Desktop or Laptop","Chromium OS 14541.0.0","Chrome 118.0.0.0","1366x768","1366x644",NA,NA,0,"BIQ (Charlotte)",3,"EFDGCHBIAJ","Passed AC2","","Spreadsheet1",1,"BIQ","Screen 3","iz3the",3,"response","3",38618.08,39799.327,39815.994,38618.08,39799.327,39815.994,1,38618.08,1197.914,0,NA,"Rating Scale","Rating Scale",16,"object-67","BIQ",NA,"SUPPRF18559"
"14",1698419538365,"27/10/2023 15:12:18",1698423138365,1,"27/10/2023 17:12:18",149662,3,"task-gjqt",NA,32534433,9628512,NA,"complete",NA,"653bd2522953810b3c4366d5","computer","Desktop or Laptop","Chromium OS 14541.0.0","Chrome 118.0.0.0","1366x768","1366x644",NA,NA,0,"BIQ (Charlotte)",3,"EFDGCHBIAJ","Passed AC2","","Spreadsheet1",NA,"","","",NA,"5","END",NA,NA,NA,NA,NA,NA,0,NA,NA,NA,NA,"","",NA,"","",NA,"SUPPRF18559"
"1",1698419602874,"27/10/2023 15:13:22",1698423202874,1,"27/10/2023 17:13:22",149662,3,"task-gjqt",NA,32534491,9628509,NA,"rejected - time limit reached",NA,"653bd26c013ccdd8ac4e6b6a","computer","Desktop or Laptop","Windows 10","Chrome 118.0.0.0","1366x768","1366x611",NA,NA,0,"BIQ (Charlotte)",3,"DECFBGAHJI","Passed AC2","","Spreadsheet1",NA,"","","",NA,"5","BEGIN",NA,NA,NA,NA,NA,NA,0,NA,NA,NA,NA,"","",NA,"","",NA,"SUPPRF94864"
"2",1698419623213,"27/10/2023 15:13:43",1698423223213,1,"27/10/2023 17:13:43",149662,3,"task-gjqt",NA,32534491,9628509,NA,"rejected - time limit reached",NA,"653bd26c013ccdd8ac4e6b6a","computer","Desktop or Laptop","Windows 10","Chrome 118.0.0.0","1366x768","1366x611",NA,NA,0,"BIQ (Charlotte)",3,"DECFBGAHJI","Passed AC2","","Spreadsheet1",1,"BIQ","Screen 1","9dh6eq",1,"continue","",20361.407,20344.92,20361.407,20361.407,20344.92,20361.407,1,20361.407,0,0,NA,"Click To Continue","Continue Button",23,"object-48","BIQ",NA,"SUPPRF94864"
"3",1698419623215,"27/10/2023 15:13:43",1698423223215,1,"27/10/2023 17:13:43",149662,3,"task-gjqt",NA,32534491,9628509,NA,"rejected - time limit reached",NA,"653bd26c013ccdd8ac4e6b6a","computer","Desktop or Laptop","Windows 10","Chrome 118.0.0.0","1366x768","1366x611",NA,NA,0,"BIQ (Charlotte)",3,"DECFBGAHJI","Passed AC2","","Spreadsheet1",1,"BIQ","Screen 1","9dh6eq",1,"response","5",9897.202,20344.92,20361.407,9897.202,20344.92,20361.407,1,9897.202,10464.205,0,NA,"Rating Scale","Rating Scale",3,"object-5","BIQ",NA,"SUPPRF94864"
"4",1698419623215,"27/10/2023 15:13:43",1698423223215,1,"27/10/2023 17:13:43",149662,3,"task-gjqt",NA,32534491,9628509,NA,"rejected - time limit reached",NA,"653bd26c013ccdd8ac4e6b6a","computer","Desktop or Laptop","Windows 10","Chrome 118.0.0.0","1366x768","1366x611",NA,NA,0,"BIQ (Charlotte)",3,"DECFBGAHJI","Passed AC2","","Spreadsheet1",1,"BIQ","Screen 1","9dh6eq",1,"response","4",13979.764,20344.92,20361.407,13979.764,20344.92,20361.407,1,13979.764,6381.643,0,NA,"Rating Scale","Rating Scale",10,"object-18","BIQ",NA,"SUPPRF94864"
"5",1698419623215,"27/10/2023 15:13:43",1698423223215,1,"27/10/2023 17:13:43",149662,3,"task-gjqt",NA,32534491,9628509,NA,"rejected - time limit reached",NA,"653bd26c013ccdd8ac4e6b6a","computer","Desktop or Laptop","Windows 10","Chrome 118.0.0.0","1366x768","1366x611",NA,NA,0,"BIQ (Charlotte)",3,"DECFBGAHJI","Passed AC2","","Spreadsheet1",1,"BIQ","Screen 1","9dh6eq",1,"response","4",18411.954,20344.92,20361.407,18411.954,20344.92,20361.407,1,18411.954,1949.453,0,NA,"Rating Scale","Rating Scale",17,"object-80","BIQ",NA,"SUPPRF94864"
"6",1698419645578,"27/10/2023 15:14:05",1698423245578,1,"27/10/2023 17:14:05",149662,3,"task-gjqt",NA,32534491,9628509,NA,"rejected - time limit reached",NA,"653bd26c013ccdd8ac4e6b6a","computer","Desktop or Laptop","Windows 10","Chrome 118.0.0.0","1366x768","1366x611",NA,NA,0,"BIQ (Charlotte)",3,"DECFBGAHJI","Passed AC2","","Spreadsheet1",1,"BIQ","Screen 2","o21mwi",2,"continue","",22383.1930000015,22377.296,22383.1930000015,22383.1930000015,22377.296,22383.1930000015,1,22383.1930000015,0,0,NA,"Click To Continue","Continue Button",22,"object-50","BIQ",NA,"SUPPRF94864"
"7",1698419645580,"27/10/2023 15:14:05",1698423245580,1,"27/10/2023 17:14:05",149662,3,"task-gjqt",NA,32534491,9628509,NA,"rejected - time limit reached",NA,"653bd26c013ccdd8ac4e6b6a","computer","Desktop or Laptop","Windows 10","Chrome 118.0.0.0","1366x768","1366x611",NA,NA,0,"BIQ (Charlotte)",3,"DECFBGAHJI","Passed AC2","","Spreadsheet1",1,"BIQ","Screen 2","o21mwi",2,"response","7",8081.435,22377.296,22385.6930000015,8081.435,22377.296,22385.6930000015,1,8081.435,14304.2580000015,0,NA,"Rating Scale","Rating Scale",2,"object-259","BIQ",NA,"SUPPRF94864"
"8",1698419645581,"27/10/2023 15:14:05",1698423245581,1,"27/10/2023 17:14:05",149662,3,"task-gjqt",NA,32534491,9628509,NA,"rejected - time limit reached",NA,"653bd26c013ccdd8ac4e6b6a","computer","Desktop or Laptop","Windows 10","Chrome 118.0.0.0","1366x768","1366x611",NA,NA,0,"BIQ (Charlotte)",3,"DECFBGAHJI","Passed AC2","","Spreadsheet1",1,"BIQ","Screen 2","o21mwi",2,"response","4",13929.867,22377.296,22386.093,13929.867,22377.296,22386.093,1,13929.867,8456.226,0,NA,"Rating Scale","Rating Scale",9,"object-36","BIQ",NA,"SUPPRF94864"
"9",1698419645581,"27/10/2023 15:14:05",1698423245581,1,"27/10/2023 17:14:05",149662,3,"task-gjqt",NA,32534491,9628509,NA,"rejected - time limit reached",NA,"653bd26c013ccdd8ac4e6b6a","computer","Desktop or Laptop","Windows 10","Chrome 118.0.0.0","1366x768","1366x611",NA,NA,0,"BIQ (Charlotte)",3,"DECFBGAHJI","Passed AC2","","Spreadsheet1",1,"BIQ","Screen 2","o21mwi",2,"response","0",21627.692,22377.296,22386.3930000007,21627.692,22377.296,22386.3930000007,1,21627.692,758.701000000743,0,NA,"Rating Scale","Rating Scale",16,"object-86","BIQ",NA,"SUPPRF94864"
"10",1698419656312,"27/10/2023 15:14:16",1698423256312,1,"27/10/2023 17:14:16",149662,3,"task-gjqt",NA,32534491,9628509,NA,"rejected - time limit reached",NA,"653bd26c013ccdd8ac4e6b6a","computer","Desktop or Laptop","Windows 10","Chrome 118.0.0.0","1366x768","1366x611",NA,NA,0,"BIQ (Charlotte)",3,"DECFBGAHJI","Passed AC2","","Spreadsheet1",1,"BIQ","Screen 3","iz3the",3,"continue","",10739.6969999985,10730.797,10739.6969999985,10739.6969999985,10730.797,10739.6969999985,1,10739.6969999985,0,0,NA,"Click To Continue","Continue Button",22,"object-73","BIQ",NA,"SUPPRF94864"
"11",1698419656314,"27/10/2023 15:14:16",1698423256314,1,"27/10/2023 17:14:16",149662,3,"task-gjqt",NA,32534491,9628509,NA,"rejected - time limit reached",NA,"653bd26c013ccdd8ac4e6b6a","computer","Desktop or Laptop","Windows 10","Chrome 118.0.0.0","1366x768","1366x611",NA,NA,0,"BIQ (Charlotte)",3,"DECFBGAHJI","Passed AC2","","Spreadsheet1",1,"BIQ","Screen 3","iz3the",3,"response","0",4098.654,10730.797,10741.8970000015,4098.654,10730.797,10741.8970000015,1,4098.654,6643.24300000149,0,NA,"Rating Scale","Rating Scale",2,"object-53","BIQ",NA,"SUPPRF94864"
"12",1698419656314,"27/10/2023 15:14:16",1698423256314,1,"27/10/2023 17:14:16",149662,3,"task-gjqt",NA,32534491,9628509,NA,"rejected - time limit reached",NA,"653bd26c013ccdd8ac4e6b6a","computer","Desktop or Laptop","Windows 10","Chrome 118.0.0.0","1366x768","1366x611",NA,NA,0,"BIQ (Charlotte)",3,"DECFBGAHJI","Passed AC2","","Spreadsheet1",1,"BIQ","Screen 3","iz3the",3,"response","0",6798.04,10730.797,10742.1969999985,6798.04,10730.797,10742.1969999985,1,6798.04,3944.15699999851,0,NA,"Rating Scale","Rating Scale",9,"object-60","BIQ",NA,"SUPPRF94864"
"13",1698419656314,"27/10/2023 15:14:16",1698423256314,1,"27/10/2023 17:14:16",149662,3,"task-gjqt",NA,32534491,9628509,NA,"rejected - time limit reached",NA,"653bd26c013ccdd8ac4e6b6a","computer","Desktop or Laptop","Windows 10","Chrome 118.0.0.0","1366x768","1366x611",NA,NA,0,"BIQ (Charlotte)",3,"DECFBGAHJI","Passed AC2","","Spreadsheet1",1,"BIQ","Screen 3","iz3the",3,"response","3",10230.465,10730.797,10742.6969999985,10230.465,10730.797,10742.6969999985,1,10230.465,512.231999998512,0,NA,"Rating Scale","Rating Scale",16,"object-67","BIQ",NA,"SUPPRF94864"
"14",1698419656318,"27/10/2023 15:14:16",1698423256318,1,"27/10/2023 17:14:16",149662,3,"task-gjqt",NA,32534491,9628509,NA,"rejected - time limit reached",NA,"653bd26c013ccdd8ac4e6b6a","computer","Desktop or Laptop","Windows 10","Chrome 118.0.0.0","1366x768","1366x611",NA,NA,0,"BIQ (Charlotte)",3,"DECFBGAHJI","Passed AC2","","Spreadsheet1",NA,"","","",NA,"5","END",NA,NA,NA,NA,NA,NA,0,NA,NA,NA,NA,"","",NA,"","",NA,"SUPPRF94864"
"1",1698419736007,"27/10/2023 15:15:36",1698423336007,1,"27/10/2023 17:15:36",149662,3,"task-gjqt",NA,32534563,9628524,NA,"complete",NA,"653bd292778969f4e8e9aefa","computer","Desktop or Laptop","Windows 10","Chrome 118.0.0.0","1280x800","1280x683",NA,NA,0,"BIQ (Charlotte)",3,"GHFIEJDACB","Passed AC2","","Spreadsheet1",NA,"","","",NA,"5","BEGIN",NA,NA,NA,NA,NA,NA,0,NA,NA,NA,NA,"","",NA,"","",NA,"SUPPRF96217"
"2",1698419779094,"27/10/2023 15:16:19",1698423379094,1,"27/10/2023 17:16:19",149662,3,"task-gjqt",NA,32534563,9628524,NA,"complete",NA,"653bd292778969f4e8e9aefa","computer","Desktop or Laptop","Windows 10","Chrome 118.0.0.0","1280x800","1280x683",NA,NA,0,"BIQ (Charlotte)",3,"GHFIEJDACB","Passed AC2","","Spreadsheet1",1,"BIQ","Screen 1","9dh6eq",1,"continue","",43099.01,43082.341,43099.01,43099.01,43082.341,43099.01,1,43099.01,0,0,NA,"Click To Continue","Continue Button",23,"object-48","BIQ",NA,"SUPPRF96217"
"3",1698419779101,"27/10/2023 15:16:19",1698423379101,1,"27/10/2023 17:16:19",149662,3,"task-gjqt",NA,32534563,9628524,NA,"complete",NA,"653bd292778969f4e8e9aefa","computer","Desktop or Laptop","Windows 10","Chrome 118.0.0.0","1280x800","1280x683",NA,NA,0,"BIQ (Charlotte)",3,"GHFIEJDACB","Passed AC2","","Spreadsheet1",1,"BIQ","Screen 1","9dh6eq",1,"response","7",22216.428,43082.341,43099.01,22216.428,43082.341,43099.01,1,22216.428,20882.582,0,NA,"Rating Scale","Rating Scale",3,"object-5","BIQ",NA,"SUPPRF96217"
"4",1698419779102,"27/10/2023 15:16:19",1698423379102,1,"27/10/2023 17:16:19",149662,3,"task-gjqt",NA,32534563,9628524,NA,"complete",NA,"653bd292778969f4e8e9aefa","computer","Desktop or Laptop","Windows 10","Chrome 118.0.0.0","1280x800","1280x683",NA,NA,0,"BIQ (Charlotte)",3,"GHFIEJDACB","Passed AC2","","Spreadsheet1",1,"BIQ","Screen 1","9dh6eq",1,"response","6",28499.338,43082.341,43099.01,28499.338,43082.341,43099.01,1,28499.338,14599.672,0,NA,"Rating Scale","Rating Scale",10,"object-18","BIQ",NA,"SUPPRF96217"
"5",1698419779104,"27/10/2023 15:16:19",1698423379104,1,"27/10/2023 17:16:19",149662,3,"task-gjqt",NA,32534563,9628524,NA,"complete",NA,"653bd292778969f4e8e9aefa","computer","Desktop or Laptop","Windows 10","Chrome 118.0.0.0","1280x800","1280x683",NA,NA,0,"BIQ (Charlotte)",3,"GHFIEJDACB","Passed AC2","","Spreadsheet1",1,"BIQ","Screen 1","9dh6eq",1,"response","1",34332.676,43082.341,43099.01,34332.676,43082.341,43099.01,1,34332.676,8766.334,0,NA,"Rating Scale","Rating Scale",17,"object-80","BIQ",NA,"SUPPRF96217"
"6",1698419858051,"27/10/2023 15:17:38",1698423458051,1,"27/10/2023 17:17:38",149662,3,"task-gjqt",NA,32534563,9628524,NA,"complete",NA,"653bd292778969f4e8e9aefa","computer","Desktop or Laptop","Windows 10","Chrome 118.0.0.0","1280x800","1280x683",NA,NA,0,"BIQ (Charlotte)",3,"GHFIEJDACB","Passed AC2","","Spreadsheet1",1,"BIQ","Screen 2","o21mwi",2,"continue","",78981.743,78965.074,78981.743,78981.743,78965.074,78981.743,1,78981.743,0,0,NA,"Click To Continue","Continue Button",22,"object-50","BIQ",NA,"SUPPRF96217"
"7",1698419858057,"27/10/2023 15:17:38",1698423458057,1,"27/10/2023 17:17:38",149662,3,"task-gjqt",NA,32534563,9628524,NA,"complete",NA,"653bd292778969f4e8e9aefa","computer","Desktop or Laptop","Windows 10","Chrome 118.0.0.0","1280x800","1280x683",NA,NA,0,"BIQ (Charlotte)",3,"GHFIEJDACB","Passed AC2","","Spreadsheet1",1,"BIQ","Screen 2","o21mwi",2,"response","8",4616.621,78965.074,78981.743,4616.621,78965.074,78981.743,1,4616.621,74365.122,0,NA,"Rating Scale","Rating Scale",2,"object-259","BIQ",NA,"SUPPRF96217"
"8",1698419858058,"27/10/2023 15:17:38",1698423458058,1,"27/10/2023 17:17:38",149662,3,"task-gjqt",NA,32534563,9628524,NA,"complete",NA,"653bd292778969f4e8e9aefa","computer","Desktop or Laptop","Windows 10","Chrome 118.0.0.0","1280x800","1280x683",NA,NA,0,"BIQ (Charlotte)",3,"GHFIEJDACB","Passed AC2","","Spreadsheet1",1,"BIQ","Screen 2","o21mwi",2,"response","2",70181.823,78965.074,78981.743,70181.823,78965.074,78981.743,1,70181.823,8799.92000000001,0,NA,"Rating Scale","Rating Scale",9,"object-36","BIQ",NA,"SUPPRF96217"
"9",1698419858060,"27/10/2023 15:17:38",1698423458060,1,"27/10/2023 17:17:38",149662,3,"task-gjqt",NA,32534563,9628524,NA,"complete",NA,"653bd292778969f4e8e9aefa","computer","Desktop or Laptop","Windows 10","Chrome 118.0.0.0","1280x800","1280x683",NA,NA,0,"BIQ (Charlotte)",3,"GHFIEJDACB","Passed AC2","","Spreadsheet1",1,"BIQ","Screen 2","o21mwi",2,"response","0",75715.323,78965.074,78981.743,75715.323,78965.074,78981.743,1,75715.323,3266.42000000001,0,NA,"Rating Scale","Rating Scale",16,"object-86","BIQ",NA,"SUPPRF96217"
"10",1698419883970,"27/10/2023 15:18:03",1698423483970,1,"27/10/2023 17:18:03",149662,3,"task-gjqt",NA,32534563,9628524,NA,"complete",NA,"653bd292778969f4e8e9aefa","computer","Desktop or Laptop","Windows 10","Chrome 118.0.0.0","1280x800","1280x683",NA,NA,0,"BIQ (Charlotte)",3,"GHFIEJDACB","Passed AC2","","Spreadsheet1",1,"BIQ","Screen 3","iz3the",3,"continue","",25936.124,25932.696,25936.124,25936.124,25932.696,25936.124,1,25936.124,0,0,NA,"Click To Continue","Continue Button",22,"object-73","BIQ",NA,"SUPPRF96217"
"11",1698419883978,"27/10/2023 15:18:03",1698423483978,1,"27/10/2023 17:18:03",149662,3,"task-gjqt",NA,32534563,9628524,NA,"complete",NA,"653bd292778969f4e8e9aefa","computer","Desktop or Laptop","Windows 10","Chrome 118.0.0.0","1280x800","1280x683",NA,NA,0,"BIQ (Charlotte)",3,"GHFIEJDACB","Passed AC2","","Spreadsheet1",1,"BIQ","Screen 3","iz3the",3,"response","0",16016.213,25932.696,25943.424,16016.213,25932.696,25943.424,1,16016.213,9927.21099999998,0,NA,"Rating Scale","Rating Scale",2,"object-53","BIQ",NA,"SUPPRF96217"
"12",1698419883979,"27/10/2023 15:18:03",1698423483979,1,"27/10/2023 17:18:03",149662,3,"task-gjqt",NA,32534563,9628524,NA,"complete",NA,"653bd292778969f4e8e9aefa","computer","Desktop or Laptop","Windows 10","Chrome 118.0.0.0","1280x800","1280x683",NA,NA,0,"BIQ (Charlotte)",3,"GHFIEJDACB","Passed AC2","","Spreadsheet1",1,"BIQ","Screen 3","iz3the",3,"response","0",18249.578,25932.696,25945.324,18249.578,25932.696,25945.324,1,18249.578,7695.74600000001,0,NA,"Rating Scale","Rating Scale",9,"object-60","BIQ",NA,"SUPPRF96217"
"13",1698419883981,"27/10/2023 15:18:03",1698423483981,1,"27/10/2023 17:18:03",149662,3,"task-gjqt",NA,32534563,9628524,NA,"complete",NA,"653bd292778969f4e8e9aefa","computer","Desktop or Laptop","Windows 10","Chrome 118.0.0.0","1280x800","1280x683",NA,NA,0,"BIQ (Charlotte)",3,"GHFIEJDACB","Passed AC2","","Spreadsheet1",1,"BIQ","Screen 3","iz3the",3,"response","2",22049.528,25932.696,25947.0240000001,22049.528,25932.696,25947.0240000001,1,22049.528,3897.49600000007,0,NA,"Rating Scale","Rating Scale",16,"object-67","BIQ",NA,"SUPPRF96217"
"14",1698419883994,"27/10/2023 15:18:03",1698423483994,1,"27/10/2023 17:18:03",149662,3,"task-gjqt",NA,32534563,9628524,NA,"complete",NA,"653bd292778969f4e8e9aefa","computer","Desktop or Laptop","Windows 10","Chrome 118.0.0.0","1280x800","1280x683",NA,NA,0,"BIQ (Charlotte)",3,"GHFIEJDACB","Passed AC2","","Spreadsheet1",NA,"","","",NA,"5","END",NA,NA,NA,NA,NA,NA,0,NA,NA,NA,NA,"","",NA,"","",NA,"SUPPRF96217"
"1",1698419791428,"27/10/2023 15:16:31",1698423391428,1,"27/10/2023 17:16:31",149662,3,"task-gjqt",NA,32534587,9628536,NA,"rejected - time limit reached",NA,"653bd27e7680cae353b77855","computer","Desktop or Laptop","Windows 10","Firefox 117.0","1280x720","1280x587",NA,NA,0,"BIQ (Charlotte)",3,"HIGJFAEBDC","Passed AC2","","Spreadsheet1",NA,"","","",NA,"5","BEGIN",NA,NA,NA,NA,NA,NA,0,NA,NA,NA,NA,"","",NA,"","",NA,"SUPPRF87060"
"2",1698419823351,"27/10/2023 15:17:03",1698423423351,1,"27/10/2023 17:17:03",149662,3,"task-gjqt",NA,32534587,9628536,NA,"rejected - time limit reached",NA,"653bd27e7680cae353b77855","computer","Desktop or Laptop","Windows 10","Firefox 117.0","1280x720","1280x587",NA,NA,0,"BIQ (Charlotte)",3,"HIGJFAEBDC","Passed AC2","","Spreadsheet1",1,"BIQ","Screen 1","9dh6eq",1,"continue","",31923.34,31906.68,31923.34,31923.34,31906.68,31923.34,1,31923.34,0,0,NA,"Click To Continue","Continue Button",23,"object-48","BIQ",NA,"SUPPRF87060"
"3",1698419823357,"27/10/2023 15:17:03",1698423423357,1,"27/10/2023 17:17:03",149662,3,"task-gjqt",NA,32534587,9628536,NA,"rejected - time limit reached",NA,"653bd27e7680cae353b77855","computer","Desktop or Laptop","Windows 10","Firefox 117.0","1280x720","1280x587",NA,NA,0,"BIQ (Charlotte)",3,"HIGJFAEBDC","Passed AC2","","Spreadsheet1",1,"BIQ","Screen 1","9dh6eq",1,"response","2",18850.64,31906.68,31923.34,18850.64,31906.68,31923.34,1,18850.64,13072.7,0,NA,"Rating Scale","Rating Scale",3,"object-5","BIQ",NA,"SUPPRF87060"
"4",1698419823359,"27/10/2023 15:17:03",1698423423359,1,"27/10/2023 17:17:03",149662,3,"task-gjqt",NA,32534587,9628536,NA,"rejected - time limit reached",NA,"653bd27e7680cae353b77855","computer","Desktop or Laptop","Windows 10","Firefox 117.0","1280x720","1280x587",NA,NA,0,"BIQ (Charlotte)",3,"HIGJFAEBDC","Passed AC2","","Spreadsheet1",1,"BIQ","Screen 1","9dh6eq",1,"response","7",25727.54,31906.68,31923.34,25727.54,31906.68,31923.34,1,25727.54,6195.8,0,NA,"Rating Scale","Rating Scale",10,"object-18","BIQ",NA,"SUPPRF87060"
"5",1698419823360,"27/10/2023 15:17:03",1698423423360,1,"27/10/2023 17:17:03",149662,3,"task-gjqt",NA,32534587,9628536,NA,"rejected - time limit reached",NA,"653bd27e7680cae353b77855","computer","Desktop or Laptop","Windows 10","Firefox 117.0","1280x720","1280x587",NA,NA,0,"BIQ (Charlotte)",3,"HIGJFAEBDC","Passed AC2","","Spreadsheet1",1,"BIQ","Screen 1","9dh6eq",1,"response","0",29525.56,31906.68,31923.34,29525.56,31906.68,31923.34,1,29525.56,2397.78,0,NA,"Rating Scale","Rating Scale",17,"object-80","BIQ",NA,"SUPPRF87060"
"6",1698419846873,"27/10/2023 15:17:26",1698423446873,1,"27/10/2023 17:17:26",149662,3,"task-gjqt",NA,32534587,9628536,NA,"rejected - time limit reached",NA,"653bd27e7680cae353b77855","computer","Desktop or Laptop","Windows 10","Firefox 117.0","1280x720","1280x587",NA,NA,0,"BIQ (Charlotte)",3,"HIGJFAEBDC","Passed AC2","","Spreadsheet1",1,"BIQ","Screen 2","o21mwi",2,"continue","",23541,23529.64,23541,23541,23529.64,23541,1,23541,0,0,NA,"Click To Continue","Continue Button",22,"object-50","BIQ",NA,"SUPPRF87060"
"7",1698419846876,"27/10/2023 15:17:26",1698423446876,1,"27/10/2023 17:17:26",149662,3,"task-gjqt",NA,32534587,9628536,NA,"rejected - time limit reached",NA,"653bd27e7680cae353b77855","computer","Desktop or Laptop","Windows 10","Firefox 117.0","1280x720","1280x587",NA,NA,0,"BIQ (Charlotte)",3,"HIGJFAEBDC","Passed AC2","","Spreadsheet1",1,"BIQ","Screen 2","o21mwi",2,"response","8",5228.44,23529.64,23544,5228.44,23529.64,23544,1,5228.44,18315.56,0,NA,"Rating Scale","Rating Scale",2,"object-259","BIQ",NA,"SUPPRF87060"
"8",1698419846877,"27/10/2023 15:17:26",1698423446877,1,"27/10/2023 17:17:26",149662,3,"task-gjqt",NA,32534587,9628536,NA,"rejected - time limit reached",NA,"653bd27e7680cae353b77855","computer","Desktop or Laptop","Windows 10","Firefox 117.0","1280x720","1280x587",NA,NA,0,"BIQ (Charlotte)",3,"HIGJFAEBDC","Passed AC2","","Spreadsheet1",1,"BIQ","Screen 2","o21mwi",2,"response","5",11072.98,23529.64,23545,11072.98,23529.64,23545,1,11072.98,12472.02,0,NA,"Rating Scale","Rating Scale",9,"object-36","BIQ",NA,"SUPPRF87060"
"9",1698419846877,"27/10/2023 15:17:26",1698423446877,1,"27/10/2023 17:17:26",149662,3,"task-gjqt",NA,32534587,9628536,NA,"rejected - time limit reached",NA,"653bd27e7680cae353b77855","computer","Desktop or Laptop","Windows 10","Firefox 117.0","1280x720","1280x587",NA,NA,0,"BIQ (Charlotte)",3,"HIGJFAEBDC","Passed AC2","","Spreadsheet1",1,"BIQ","Screen 2","o21mwi",2,"response","4",22430.66,23529.64,23545,22430.66,23529.64,23545,1,22430.66,1114.34,0,NA,"Rating Scale","Rating Scale",16,"object-86","BIQ",NA,"SUPPRF87060"
"10",1698419858617,"27/10/2023 15:17:38",1698423458617,1,"27/10/2023 17:17:38",149662,3,"task-gjqt",NA,32534587,9628536,NA,"rejected - time limit reached",NA,"653bd27e7680cae353b77855","computer","Desktop or Laptop","Windows 10","Firefox 117.0","1280x720","1280x587",NA,NA,0,"BIQ (Charlotte)",3,"HIGJFAEBDC","Passed AC2","","Spreadsheet1",1,"BIQ","Screen 3","iz3the",3,"continue","",11754.36,11740.82,11754.36,11754.36,11740.82,11754.36,1,11754.36,0,0,NA,"Click To Continue","Continue Button",22,"object-73","BIQ",NA,"SUPPRF87060"
"11",1698419858618,"27/10/2023 15:17:38",1698423458618,1,"27/10/2023 17:17:38",149662,3,"task-gjqt",NA,32534587,9628536,NA,"rejected - time limit reached",NA,"653bd27e7680cae353b77855","computer","Desktop or Laptop","Windows 10","Firefox 117.0","1280x720","1280x587",NA,NA,0,"BIQ (Charlotte)",3,"HIGJFAEBDC","Passed AC2","","Spreadsheet1",1,"BIQ","Screen 3","iz3the",3,"response","0",4745.56,11740.82,11756.36,4745.56,11740.82,11756.36,1,4745.56,7010.8,0,NA,"Rating Scale","Rating Scale",2,"object-53","BIQ",NA,"SUPPRF87060"
"12",1698419858618,"27/10/2023 15:17:38",1698423458618,1,"27/10/2023 17:17:38",149662,3,"task-gjqt",NA,32534587,9628536,NA,"rejected - time limit reached",NA,"653bd27e7680cae353b77855","computer","Desktop or Laptop","Windows 10","Firefox 117.0","1280x720","1280x587",NA,NA,0,"BIQ (Charlotte)",3,"HIGJFAEBDC","Passed AC2","","Spreadsheet1",1,"BIQ","Screen 3","iz3the",3,"response","0",7195.08,11740.82,11757.36,7195.08,11740.82,11757.36,1,7195.08,4562.28,0,NA,"Rating Scale","Rating Scale",9,"object-60","BIQ",NA,"SUPPRF87060"
"13",1698419858619,"27/10/2023 15:17:38",1698423458619,1,"27/10/2023 17:17:38",149662,3,"task-gjqt",NA,32534587,9628536,NA,"rejected - time limit reached",NA,"653bd27e7680cae353b77855","computer","Desktop or Laptop","Windows 10","Firefox 117.0","1280x720","1280x587",NA,NA,0,"BIQ (Charlotte)",3,"HIGJFAEBDC","Passed AC2","","Spreadsheet1",1,"BIQ","Screen 3","iz3the",3,"response","3",10342.14,11740.82,11757.36,10342.14,11740.82,11757.36,1,10342.14,1415.22,0,NA,"Rating Scale","Rating Scale",16,"object-67","BIQ",NA,"SUPPRF87060"
"14",1698419858620,"27/10/2023 15:17:38",1698423458620,1,"27/10/2023 17:17:38",149662,3,"task-gjqt",NA,32534587,9628536,NA,"rejected - time limit reached",NA,"653bd27e7680cae353b77855","computer","Desktop or Laptop","Windows 10","Firefox 117.0","1280x720","1280x587",NA,NA,0,"BIQ (Charlotte)",3,"HIGJFAEBDC","Passed AC2","","Spreadsheet1",NA,"","","",NA,"5","END",NA,NA,NA,NA,NA,NA,0,NA,NA,NA,NA,"","",NA,"","",NA,"SUPPRF87060"
"1",1698419787662,"27/10/2023 15:16:27",1698423387662,1,"27/10/2023 17:16:27",149662,3,"task-gjqt",NA,32534589,9628473,NA,"complete",NA,"653bd109a5cd458e981c2df1","computer","Desktop or Laptop","Mac OS 10.15.7","Safari 14.0.3","1440x900","1440x837",NA,NA,0,"BIQ (Charlotte)",3,"BCADJEIFHG","Passed AC2","","Spreadsheet1",NA,"","","",NA,"5","BEGIN",NA,NA,NA,NA,NA,NA,0,NA,NA,NA,NA,"","",NA,"","",NA,"SUPPRF53839"
"2",1698419819723,"27/10/2023 15:16:59",1698423419723,1,"27/10/2023 17:16:59",149662,3,"task-gjqt",NA,32534589,9628473,NA,"complete",NA,"653bd109a5cd458e981c2df1","computer","Desktop or Laptop","Mac OS 10.15.7","Safari 14.0.3","1440x900","1440x837",NA,NA,0,"BIQ (Charlotte)",3,"BCADJEIFHG","Passed AC2","","Spreadsheet1",1,"BIQ","Screen 1","9dh6eq",1,"continue","",32066,32062,32066,32066,32062,32066,1,32066,0,0,NA,"Click To Continue","Continue Button",23,"object-48","BIQ",NA,"SUPPRF53839"
"3",1698419819728,"27/10/2023 15:16:59",1698423419728,1,"27/10/2023 17:16:59",149662,3,"task-gjqt",NA,32534589,9628473,NA,"complete",NA,"653bd109a5cd458e981c2df1","computer","Desktop or Laptop","Mac OS 10.15.7","Safari 14.0.3","1440x900","1440x837",NA,NA,0,"BIQ (Charlotte)",3,"BCADJEIFHG","Passed AC2","","Spreadsheet1",1,"BIQ","Screen 1","9dh6eq",1,"response","6",15595,32062,32074,15595,32062,32074,1,15595,16479,0,NA,"Rating Scale","Rating Scale",3,"object-5","BIQ",NA,"SUPPRF53839"
"4",1698419819729,"27/10/2023 15:16:59",1698423419729,1,"27/10/2023 17:16:59",149662,3,"task-gjqt",NA,32534589,9628473,NA,"complete",NA,"653bd109a5cd458e981c2df1","computer","Desktop or Laptop","Mac OS 10.15.7","Safari 14.0.3","1440x900","1440x837",NA,NA,0,"BIQ (Charlotte)",3,"BCADJEIFHG","Passed AC2","","Spreadsheet1",1,"BIQ","Screen 1","9dh6eq",1,"response","1",25745,32062,32075,25745,32062,32075,1,25745,6330,0,NA,"Rating Scale","Rating Scale",10,"object-18","BIQ",NA,"SUPPRF53839"
"5",1698419819730,"27/10/2023 15:16:59",1698423419730,1,"27/10/2023 17:16:59",149662,3,"task-gjqt",NA,32534589,9628473,NA,"complete",NA,"653bd109a5cd458e981c2df1","computer","Desktop or Laptop","Mac OS 10.15.7","Safari 14.0.3","1440x900","1440x837",NA,NA,0,"BIQ (Charlotte)",3,"BCADJEIFHG","Passed AC2","","Spreadsheet1",1,"BIQ","Screen 1","9dh6eq",1,"response","6",31145,32062,32075,31145,32062,32075,1,31145,930,0,NA,"Rating Scale","Rating Scale",17,"object-80","BIQ",NA,"SUPPRF53839"
"6",1698419852022,"27/10/2023 15:17:32",1698423452022,1,"27/10/2023 17:17:32",149662,3,"task-gjqt",NA,32534589,9628473,NA,"complete",NA,"653bd109a5cd458e981c2df1","computer","Desktop or Laptop","Mac OS 10.15.7","Safari 14.0.3","1440x900","1440x837",NA,NA,0,"BIQ (Charlotte)",3,"BCADJEIFHG","Passed AC2","","Spreadsheet1",1,"BIQ","Screen 2","o21mwi",2,"continue","",32304,32302,32304,32304,32302,32304,1,32304,0,0,NA,"Click To Continue","Continue Button",22,"object-50","BIQ",NA,"SUPPRF53839"
"7",1698419852026,"27/10/2023 15:17:32",1698423452026,1,"27/10/2023 17:17:32",149662,3,"task-gjqt",NA,32534589,9628473,NA,"complete",NA,"653bd109a5cd458e981c2df1","computer","Desktop or Laptop","Mac OS 10.15.7","Safari 14.0.3","1440x900","1440x837",NA,NA,0,"BIQ (Charlotte)",3,"BCADJEIFHG","Passed AC2","","Spreadsheet1",1,"BIQ","Screen 2","o21mwi",2,"response","3",8101,32302,32308,8101,32302,32308,1,8101,24207,0,NA,"Rating Scale","Rating Scale",2,"object-259","BIQ",NA,"SUPPRF53839"
"8",1698419852028,"27/10/2023 15:17:32",1698423452028,1,"27/10/2023 17:17:32",149662,3,"task-gjqt",NA,32534589,9628473,NA,"complete",NA,"653bd109a5cd458e981c2df1","computer","Desktop or Laptop","Mac OS 10.15.7","Safari 14.0.3","1440x900","1440x837",NA,NA,0,"BIQ (Charlotte)",3,"BCADJEIFHG","Passed AC2","","Spreadsheet1",1,"BIQ","Screen 2","o21mwi",2,"response","3",15951,32302,32309,15951,32302,32309,1,15951,16358,0,NA,"Rating Scale","Rating Scale",9,"object-36","BIQ",NA,"SUPPRF53839"
"9",1698419852029,"27/10/2023 15:17:32",1698423452029,1,"27/10/2023 17:17:32",149662,3,"task-gjqt",NA,32534589,9628473,NA,"complete",NA,"653bd109a5cd458e981c2df1","computer","Desktop or Laptop","Mac OS 10.15.7","Safari 14.0.3","1440x900","1440x837",NA,NA,0,"BIQ (Charlotte)",3,"BCADJEIFHG","Passed AC2","","Spreadsheet1",1,"BIQ","Screen 2","o21mwi",2,"response","7",31485,32302,32311,31485,32302,32311,1,31485,826,0,NA,"Rating Scale","Rating Scale",16,"object-86","BIQ",NA,"SUPPRF53839"
"10",1698419889272,"27/10/2023 15:18:09",1698423489272,1,"27/10/2023 17:18:09",149662,3,"task-gjqt",NA,32534589,9628473,NA,"complete",NA,"653bd109a5cd458e981c2df1","computer","Desktop or Laptop","Mac OS 10.15.7","Safari 14.0.3","1440x900","1440x837",NA,NA,0,"BIQ (Charlotte)",3,"BCADJEIFHG","Passed AC2","","Spreadsheet1",1,"BIQ","Screen 3","iz3the",3,"continue","",37251,37236,37251,37251,37236,37251,1,37251,0,0,NA,"Click To Continue","Continue Button",22,"object-73","BIQ",NA,"SUPPRF53839"
"11",1698419889275,"27/10/2023 15:18:09",1698423489275,1,"27/10/2023 17:18:09",149662,3,"task-gjqt",NA,32534589,9628473,NA,"complete",NA,"653bd109a5cd458e981c2df1","computer","Desktop or Laptop","Mac OS 10.15.7","Safari 14.0.3","1440x900","1440x837",NA,NA,0,"BIQ (Charlotte)",3,"BCADJEIFHG","Passed AC2","","Spreadsheet1",1,"BIQ","Screen 3","iz3the",3,"response","4",23618,37236,37253,23618,37236,37253,1,23618,13635,0,NA,"Rating Scale","Rating Scale",2,"object-53","BIQ",NA,"SUPPRF53839"
"12",1698419889276,"27/10/2023 15:18:09",1698423489276,1,"27/10/2023 17:18:09",149662,3,"task-gjqt",NA,32534589,9628473,NA,"complete",NA,"653bd109a5cd458e981c2df1","computer","Desktop or Laptop","Mac OS 10.15.7","Safari 14.0.3","1440x900","1440x837",NA,NA,0,"BIQ (Charlotte)",3,"BCADJEIFHG","Passed AC2","","Spreadsheet1",1,"BIQ","Screen 3","iz3the",3,"response","6",28019,37236,37253,28019,37236,37253,1,28019,9234,0,NA,"Rating Scale","Rating Scale",9,"object-60","BIQ",NA,"SUPPRF53839"
"13",1698419889277,"27/10/2023 15:18:09",1698423489277,1,"27/10/2023 17:18:09",149662,3,"task-gjqt",NA,32534589,9628473,NA,"complete",NA,"653bd109a5cd458e981c2df1","computer","Desktop or Laptop","Mac OS 10.15.7","Safari 14.0.3","1440x900","1440x837",NA,NA,0,"BIQ (Charlotte)",3,"BCADJEIFHG","Passed AC2","","Spreadsheet1",1,"BIQ","Screen 3","iz3the",3,"response","5",35502,37236,37253,35502,37236,37253,1,35502,1751,0,NA,"Rating Scale","Rating Scale",16,"object-67","BIQ",NA,"SUPPRF53839"
"14",1698419889280,"27/10/2023 15:18:09",1698423489280,1,"27/10/2023 17:18:09",149662,3,"task-gjqt",NA,32534589,9628473,NA,"complete",NA,"653bd109a5cd458e981c2df1","computer","Desktop or Laptop","Mac OS 10.15.7","Safari 14.0.3","1440x900","1440x837",NA,NA,0,"BIQ (Charlotte)",3,"BCADJEIFHG","Passed AC2","","Spreadsheet1",NA,"","","",NA,"5","END",NA,NA,NA,NA,NA,NA,0,NA,NA,NA,NA,"","",NA,"","",NA,"SUPPRF53839"
"1",1698419982339,"27/10/2023 15:19:42",1698423582339,1,"27/10/2023 17:19:42",149662,3,"task-gjqt",NA,32534692,9628491,NA,"complete",NA,"653bd1d32218deb2bb0fbef1","computer","Desktop or Laptop","Windows 10","Chrome 118.0.0.0","1366x768","1366x659",NA,NA,0,"BIQ (Charlotte)",3,"CDBEAFJGIH","Passed AC2","","Spreadsheet1",NA,"","","",NA,"5","BEGIN",NA,NA,NA,NA,NA,NA,0,NA,NA,NA,NA,"","",NA,"","",NA,"SUPPRF94776"
"2",1698420102895,"27/10/2023 15:21:42",1698423702895,1,"27/10/2023 17:21:42",149662,3,"task-gjqt",NA,32534692,9628491,NA,"complete",NA,"653bd1d32218deb2bb0fbef1","computer","Desktop or Laptop","Windows 10","Chrome 118.0.0.0","1366x768","1366x659",NA,NA,0,"BIQ (Charlotte)",3,"CDBEAFJGIH","Passed AC2","","Spreadsheet1",1,"BIQ","Screen 1","9dh6eq",1,"continue","",120563.744,120547.033,120563.744,120563.744,120547.033,120563.744,1,120563.744,0,0,NA,"Click To Continue","Continue Button",23,"object-48","BIQ",NA,"SUPPRF94776"
"3",1698420102899,"27/10/2023 15:21:42",1698423702899,1,"27/10/2023 17:21:42",149662,3,"task-gjqt",NA,32534692,9628491,NA,"complete",NA,"653bd1d32218deb2bb0fbef1","computer","Desktop or Laptop","Windows 10","Chrome 118.0.0.0","1366x768","1366x659",NA,NA,0,"BIQ (Charlotte)",3,"CDBEAFJGIH","Passed AC2","","Spreadsheet1",1,"BIQ","Screen 1","9dh6eq",1,"response","4",107451.096,120547.033,120563.744,107451.096,120547.033,120563.744,1,107451.096,13112.648,0,NA,"Rating Scale","Rating Scale",3,"object-5","BIQ",NA,"SUPPRF94776"
"4",1698420102900,"27/10/2023 15:21:42",1698423702900,1,"27/10/2023 17:21:42",149662,3,"task-gjqt",NA,32534692,9628491,NA,"complete",NA,"653bd1d32218deb2bb0fbef1","computer","Desktop or Laptop","Windows 10","Chrome 118.0.0.0","1366x768","1366x659",NA,NA,0,"BIQ (Charlotte)",3,"CDBEAFJGIH","Passed AC2","","Spreadsheet1",1,"BIQ","Screen 1","9dh6eq",1,"response","4",116914.623,120547.033,120563.744,116914.623,120547.033,120563.744,1,116914.623,3649.12100000001,0,NA,"Rating Scale","Rating Scale",10,"object-18","BIQ",NA,"SUPPRF94776"
"5",1698420102901,"27/10/2023 15:21:42",1698423702901,1,"27/10/2023 17:21:42",149662,3,"task-gjqt",NA,32534692,9628491,NA,"complete",NA,"653bd1d32218deb2bb0fbef1","computer","Desktop or Laptop","Windows 10","Chrome 118.0.0.0","1366x768","1366x659",NA,NA,0,"BIQ (Charlotte)",3,"CDBEAFJGIH","Passed AC2","","Spreadsheet1",1,"BIQ","Screen 1","9dh6eq",1,"response","4",119846.972,120547.033,120563.744,119846.972,120547.033,120563.744,1,119846.972,716.772000000012,0,NA,"Rating Scale","Rating Scale",17,"object-80","BIQ",NA,"SUPPRF94776"
"6",1698420132440,"27/10/2023 15:22:12",1698423732440,1,"27/10/2023 17:22:12",149662,3,"task-gjqt",NA,32534692,9628491,NA,"complete",NA,"653bd1d32218deb2bb0fbef1","computer","Desktop or Laptop","Windows 10","Chrome 118.0.0.0","1366x768","1366x659",NA,NA,0,"BIQ (Charlotte)",3,"CDBEAFJGIH","Passed AC2","","Spreadsheet1",1,"BIQ","Screen 2","o21mwi",2,"continue","",29572.6549999523,29557.369,29572.6549999523,29572.6549999523,29557.369,29572.6549999523,1,29572.6549999523,0,0,NA,"Click To Continue","Continue Button",22,"object-50","BIQ",NA,"SUPPRF94776"
"7",1698420132444,"27/10/2023 15:22:12",1698423732444,1,"27/10/2023 17:22:12",149662,3,"task-gjqt",NA,32534692,9628491,NA,"complete",NA,"653bd1d32218deb2bb0fbef1","computer","Desktop or Laptop","Windows 10","Chrome 118.0.0.0","1366x768","1366x659",NA,NA,0,"BIQ (Charlotte)",3,"CDBEAFJGIH","Passed AC2","","Spreadsheet1",1,"BIQ","Screen 2","o21mwi",2,"response","7",11479.744,29557.369,29574.058,11479.744,29557.369,29574.058,1,11479.744,18094.314,0,NA,"Rating Scale","Rating Scale",2,"object-259","BIQ",NA,"SUPPRF94776"
"8",1698420132446,"27/10/2023 15:22:12",1698423732446,1,"27/10/2023 17:22:12",149662,3,"task-gjqt",NA,32534692,9628491,NA,"complete",NA,"653bd1d32218deb2bb0fbef1","computer","Desktop or Laptop","Windows 10","Chrome 118.0.0.0","1366x768","1366x659",NA,NA,0,"BIQ (Charlotte)",3,"CDBEAFJGIH","Passed AC2","","Spreadsheet1",1,"BIQ","Screen 2","o21mwi",2,"response","3",17744.632,29557.369,29574.058,17744.632,29557.369,29574.058,1,17744.632,11829.426,0,NA,"Rating Scale","Rating Scale",9,"object-36","BIQ",NA,"SUPPRF94776"
"9",1698420132447,"27/10/2023 15:22:12",1698423732447,1,"27/10/2023 17:22:12",149662,3,"task-gjqt",NA,32534692,9628491,NA,"complete",NA,"653bd1d32218deb2bb0fbef1","computer","Desktop or Laptop","Windows 10","Chrome 118.0.0.0","1366x768","1366x659",NA,NA,0,"BIQ (Charlotte)",3,"CDBEAFJGIH","Passed AC2","","Spreadsheet1",1,"BIQ","Screen 2","o21mwi",2,"response","2",27041.923,29557.369,29574.058,27041.923,29557.369,29574.058,1,27041.923,2532.13499999998,0,NA,"Rating Scale","Rating Scale",16,"object-86","BIQ",NA,"SUPPRF94776"
"10",1698420147821,"27/10/2023 15:22:27",1698423747821,1,"27/10/2023 17:22:27",149662,3,"task-gjqt",NA,32534692,9628491,NA,"complete",NA,"653bd1d32218deb2bb0fbef1","computer","Desktop or Laptop","Windows 10","Chrome 118.0.0.0","1366x768","1366x659",NA,NA,0,"BIQ (Charlotte)",3,"CDBEAFJGIH","Passed AC2","","Spreadsheet1",1,"BIQ","Screen 3","iz3the",3,"continue","",15395.486,15379.044,15395.486,15395.486,15379.044,15395.486,1,15395.486,0,0,NA,"Click To Continue","Continue Button",22,"object-73","BIQ",NA,"SUPPRF94776"
"11",1698420147834,"27/10/2023 15:22:27",1698423747834,1,"27/10/2023 17:22:27",149662,3,"task-gjqt",NA,32534692,9628491,NA,"complete",NA,"653bd1d32218deb2bb0fbef1","computer","Desktop or Laptop","Windows 10","Chrome 118.0.0.0","1366x768","1366x659",NA,NA,0,"BIQ (Charlotte)",3,"CDBEAFJGIH","Passed AC2","","Spreadsheet1",1,"BIQ","Screen 3","iz3the",3,"response","1",8497.356,15379.044,15395.968,8497.356,15379.044,15395.968,1,8497.356,6898.61199999999,0,NA,"Rating Scale","Rating Scale",2,"object-53","BIQ",NA,"SUPPRF94776"
"12",1698420147838,"27/10/2023 15:22:27",1698423747838,1,"27/10/2023 17:22:27",149662,3,"task-gjqt",NA,32534692,9628491,NA,"complete",NA,"653bd1d32218deb2bb0fbef1","computer","Desktop or Laptop","Windows 10","Chrome 118.0.0.0","1366x768","1366x659",NA,NA,0,"BIQ (Charlotte)",3,"CDBEAFJGIH","Passed AC2","","Spreadsheet1",1,"BIQ","Screen 3","iz3the",3,"response","1",10613.63,15379.044,15395.968,10613.63,15379.044,15395.968,1,10613.63,4782.33799999999,0,NA,"Rating Scale","Rating Scale",9,"object-60","BIQ",NA,"SUPPRF94776"
"13",1698420147840,"27/10/2023 15:22:27",1698423747840,1,"27/10/2023 17:22:27",149662,3,"task-gjqt",NA,32534692,9628491,NA,"complete",NA,"653bd1d32218deb2bb0fbef1","computer","Desktop or Laptop","Windows 10","Chrome 118.0.0.0","1366x768","1366x659",NA,NA,0,"BIQ (Charlotte)",3,"CDBEAFJGIH","Passed AC2","","Spreadsheet1",1,"BIQ","Screen 3","iz3the",3,"response","3",14362.443,15379.044,15395.968,14362.443,15379.044,15395.968,1,14362.443,1033.52499999999,0,NA,"Rating Scale","Rating Scale",16,"object-67","BIQ",NA,"SUPPRF94776"
"14",1698420147849,"27/10/2023 15:22:27",1698423747849,1,"27/10/2023 17:22:27",149662,3,"task-gjqt",NA,32534692,9628491,NA,"complete",NA,"653bd1d32218deb2bb0fbef1","computer","Desktop or Laptop","Windows 10","Chrome 118.0.0.0","1366x768","1366x659",NA,NA,0,"BIQ (Charlotte)",3,"CDBEAFJGIH","Passed AC2","","Spreadsheet1",NA,"","","",NA,"5","END",NA,NA,NA,NA,NA,NA,0,NA,NA,NA,NA,"","",NA,"","",NA,"SUPPRF94776"
"1",1698419991658,"27/10/2023 15:19:51",1698423591658,1,"27/10/2023 17:19:51",149662,3,"task-gjqt",NA,32534697,9628540,NA,"complete",NA,"653bd3433b287c332000cf0b","computer","Desktop or Laptop","Windows 10","Chrome 118.0.0.0","1366x768","1366x633",NA,NA,0,"BIQ (Charlotte)",3,"IJHAGBFCED","Passed AC2","","Spreadsheet1",NA,"","","",NA,"5","BEGIN",NA,NA,NA,NA,NA,NA,0,NA,NA,NA,NA,"","",NA,"","",NA,"SUPPRF32902"
"2",1698420077297,"27/10/2023 15:21:17",1698423677297,1,"27/10/2023 17:21:17",149662,3,"task-gjqt",NA,32534697,9628540,NA,"complete",NA,"653bd3433b287c332000cf0b","computer","Desktop or Laptop","Windows 10","Chrome 118.0.0.0","1366x768","1366x633",NA,NA,0,"BIQ (Charlotte)",3,"IJHAGBFCED","Passed AC2","","Spreadsheet1",1,"BIQ","Screen 1","9dh6eq",1,"continue","",85646.457,85629.816,85646.457,85646.457,85629.816,85646.457,1,85646.457,0,0,NA,"Click To Continue","Continue Button",23,"object-48","BIQ",NA,"SUPPRF32902"
"3",1698420077299,"27/10/2023 15:21:17",1698423677299,1,"27/10/2023 17:21:17",149662,3,"task-gjqt",NA,32534697,9628540,NA,"complete",NA,"653bd3433b287c332000cf0b","computer","Desktop or Laptop","Windows 10","Chrome 118.0.0.0","1366x768","1366x633",NA,NA,0,"BIQ (Charlotte)",3,"IJHAGBFCED","Passed AC2","","Spreadsheet1",1,"BIQ","Screen 1","9dh6eq",1,"response","7",48697.828,85629.816,85646.457,48697.828,85629.816,85646.457,1,48697.828,36948.629,0,NA,"Rating Scale","Rating Scale",3,"object-5","BIQ",NA,"SUPPRF32902"
"4",1698420077300,"27/10/2023 15:21:17",1698423677300,1,"27/10/2023 17:21:17",149662,3,"task-gjqt",NA,32534697,9628540,NA,"complete",NA,"653bd3433b287c332000cf0b","computer","Desktop or Laptop","Windows 10","Chrome 118.0.0.0","1366x768","1366x633",NA,NA,0,"BIQ (Charlotte)",3,"IJHAGBFCED","Passed AC2","","Spreadsheet1",1,"BIQ","Screen 1","9dh6eq",1,"response","8",69564.016,85629.816,85646.457,69564.016,85629.816,85646.457,1,69564.016,16082.441,0,NA,"Rating Scale","Rating Scale",10,"object-18","BIQ",NA,"SUPPRF32902"
"5",1698420077300,"27/10/2023 15:21:17",1698423677300,1,"27/10/2023 17:21:17",149662,3,"task-gjqt",NA,32534697,9628540,NA,"complete",NA,"653bd3433b287c332000cf0b","computer","Desktop or Laptop","Windows 10","Chrome 118.0.0.0","1366x768","1366x633",NA,NA,0,"BIQ (Charlotte)",3,"IJHAGBFCED","Passed AC2","","Spreadsheet1",1,"BIQ","Screen 1","9dh6eq",1,"response","1",82096.669,85629.816,85646.457,82096.669,85629.816,85646.457,1,82096.669,3549.78800000002,0,NA,"Rating Scale","Rating Scale",17,"object-80","BIQ",NA,"SUPPRF32902"
"6",1698420110926,"27/10/2023 15:21:50",1698423710926,1,"27/10/2023 17:21:50",149662,3,"task-gjqt",NA,32534697,9628540,NA,"complete",NA,"653bd3433b287c332000cf0b","computer","Desktop or Laptop","Windows 10","Chrome 118.0.0.0","1366x768","1366x633",NA,NA,0,"BIQ (Charlotte)",3,"IJHAGBFCED","Passed AC2","","Spreadsheet1",1,"BIQ","Screen 2","o21mwi",2,"continue","",33651.556999994,33648.871,33651.556999994,33651.556999994,33648.871,33651.556999994,1,33651.556999994,0,0,NA,"Click To Continue","Continue Button",22,"object-50","BIQ",NA,"SUPPRF32902"
"7",1698420110930,"27/10/2023 15:21:50",1698423710930,1,"27/10/2023 17:21:50",149662,3,"task-gjqt",NA,32534697,9628540,NA,"complete",NA,"653bd3433b287c332000cf0b","computer","Desktop or Laptop","Windows 10","Chrome 118.0.0.0","1366x768","1366x633",NA,NA,0,"BIQ (Charlotte)",3,"IJHAGBFCED","Passed AC2","","Spreadsheet1",1,"BIQ","Screen 2","o21mwi",2,"response","8",8533.29299999999,33648.871,33654.957,8533.29299999999,33648.871,33654.957,1,8533.29299999999,25121.664,0,NA,"Rating Scale","Rating Scale",2,"object-259","BIQ",NA,"SUPPRF32902"
"8",1698420110930,"27/10/2023 15:21:50",1698423710930,1,"27/10/2023 17:21:50",149662,3,"task-gjqt",NA,32534697,9628540,NA,"complete",NA,"653bd3433b287c332000cf0b","computer","Desktop or Laptop","Windows 10","Chrome 118.0.0.0","1366x768","1366x633",NA,NA,0,"BIQ (Charlotte)",3,"IJHAGBFCED","Passed AC2","","Spreadsheet1",1,"BIQ","Screen 2","o21mwi",2,"response","0",15516.369,33648.871,33655.7569999821,15516.369,33648.871,33655.7569999821,1,15516.369,18139.3879999821,0,NA,"Rating Scale","Rating Scale",9,"object-36","BIQ",NA,"SUPPRF32902"
"9",1698420110931,"27/10/2023 15:21:50",1698423710931,1,"27/10/2023 17:21:50",149662,3,"task-gjqt",NA,32534697,9628540,NA,"complete",NA,"653bd3433b287c332000cf0b","computer","Desktop or Laptop","Windows 10","Chrome 118.0.0.0","1366x768","1366x633",NA,NA,0,"BIQ (Charlotte)",3,"IJHAGBFCED","Passed AC2","","Spreadsheet1",1,"BIQ","Screen 2","o21mwi",2,"response","0",31882.398,33648.871,33656.8569999762,31882.398,33648.871,33656.8569999762,1,31882.398,1774.45899997615,0,NA,"Rating Scale","Rating Scale",16,"object-86","BIQ",NA,"SUPPRF32902"
"10",1698420136409,"27/10/2023 15:22:16",1698423736409,1,"27/10/2023 17:22:16",149662,3,"task-gjqt",NA,32534697,9628540,NA,"complete",NA,"653bd3433b287c332000cf0b","computer","Desktop or Laptop","Windows 10","Chrome 118.0.0.0","1366x768","1366x633",NA,NA,0,"BIQ (Charlotte)",3,"IJHAGBFCED","Passed AC2","","Spreadsheet1",1,"BIQ","Screen 3","iz3the",3,"continue","",25484.9859999762,25482.304,25484.9859999762,25484.9859999762,25482.304,25484.9859999762,1,25484.9859999762,0,0,NA,"Click To Continue","Continue Button",22,"object-73","BIQ",NA,"SUPPRF32902"
"11",1698420136412,"27/10/2023 15:22:16",1698423736412,1,"27/10/2023 17:22:16",149662,3,"task-gjqt",NA,32534697,9628540,NA,"complete",NA,"653bd3433b287c332000cf0b","computer","Desktop or Laptop","Windows 10","Chrome 118.0.0.0","1366x768","1366x633",NA,NA,0,"BIQ (Charlotte)",3,"IJHAGBFCED","Passed AC2","","Spreadsheet1",1,"BIQ","Screen 3","iz3the",3,"response","0",12532.802,25482.304,25488.685999994,12532.802,25482.304,25488.685999994,1,12532.802,12955.8839999941,0,NA,"Rating Scale","Rating Scale",2,"object-53","BIQ",NA,"SUPPRF32902"
"12",1698420136413,"27/10/2023 15:22:16",1698423736413,1,"27/10/2023 17:22:16",149662,3,"task-gjqt",NA,32534697,9628540,NA,"complete",NA,"653bd3433b287c332000cf0b","computer","Desktop or Laptop","Windows 10","Chrome 118.0.0.0","1366x768","1366x633",NA,NA,0,"BIQ (Charlotte)",3,"IJHAGBFCED","Passed AC2","","Spreadsheet1",1,"BIQ","Screen 3","iz3the",3,"response","0",15082.647,25482.304,25489.2859999881,15082.647,25482.304,25489.2859999881,1,15082.647,10406.6389999881,0,NA,"Rating Scale","Rating Scale",9,"object-60","BIQ",NA,"SUPPRF32902"
"13",1698420136413,"27/10/2023 15:22:16",1698423736413,1,"27/10/2023 17:22:16",149662,3,"task-gjqt",NA,32534697,9628540,NA,"complete",NA,"653bd3433b287c332000cf0b","computer","Desktop or Laptop","Windows 10","Chrome 118.0.0.0","1366x768","1366x633",NA,NA,0,"BIQ (Charlotte)",3,"IJHAGBFCED","Passed AC2","","Spreadsheet1",1,"BIQ","Screen 3","iz3the",3,"response","4",20949.294,25482.304,25489.685999994,20949.294,25482.304,25489.685999994,1,20949.294,4540.39199999403,0,NA,"Rating Scale","Rating Scale",16,"object-67","BIQ",NA,"SUPPRF32902"
"14",1698420136416,"27/10/2023 15:22:16",1698423736416,1,"27/10/2023 17:22:16",149662,3,"task-gjqt",NA,32534697,9628540,NA,"complete",NA,"653bd3433b287c332000cf0b","computer","Desktop or Laptop","Windows 10","Chrome 118.0.0.0","1366x768","1366x633",NA,NA,0,"BIQ (Charlotte)",3,"IJHAGBFCED","Passed AC2","","Spreadsheet1",NA,"","","",NA,"5","END",NA,NA,NA,NA,NA,NA,0,NA,NA,NA,NA,"","",NA,"","",NA,"SUPPRF32902"
"1",1698420070738,"27/10/2023 15:21:10",1698423670738,1,"27/10/2023 17:21:10",149662,3,"task-gjqt",NA,32534761,9628544,NA,"complete",NA,"653bd31ad282486159ee405e","computer","Desktop or Laptop","Windows 10","Chrome 118.0.0.0","1280x720","1280x585",NA,NA,0,"BIQ (Charlotte)",3,"ABJCIDHEGF","Passed AC2","","Spreadsheet1",NA,"","","",NA,"5","BEGIN",NA,NA,NA,NA,NA,NA,0,NA,NA,NA,NA,"","",NA,"","",NA,"SUPPRF98014"
"2",1698420099127,"27/10/2023 15:21:39",1698423699127,1,"27/10/2023 17:21:39",149662,3,"task-gjqt",NA,32534761,9628544,NA,"complete",NA,"653bd31ad282486159ee405e","computer","Desktop or Laptop","Windows 10","Chrome 118.0.0.0","1280x720","1280x585",NA,NA,0,"BIQ (Charlotte)",3,"ABJCIDHEGF","Passed AC2","","Spreadsheet1",1,"BIQ","Screen 1","9dh6eq",1,"continue","",28430.065,28413.379,28430.065,28430.065,28413.379,28430.065,1,28430.065,0,0,NA,"Click To Continue","Continue Button",23,"object-48","BIQ",NA,"SUPPRF98014"
"3",1698420099136,"27/10/2023 15:21:39",1698423699136,1,"27/10/2023 17:21:39",149662,3,"task-gjqt",NA,32534761,9628544,NA,"complete",NA,"653bd31ad282486159ee405e","computer","Desktop or Laptop","Windows 10","Chrome 118.0.0.0","1280x720","1280x585",NA,NA,0,"BIQ (Charlotte)",3,"ABJCIDHEGF","Passed AC2","","Spreadsheet1",1,"BIQ","Screen 1","9dh6eq",1,"response","3",11482.226,28413.379,28430.065,11482.226,28413.379,28430.065,1,11482.226,16947.839,0,NA,"Rating Scale","Rating Scale",3,"object-5","BIQ",NA,"SUPPRF98014"
"4",1698420099138,"27/10/2023 15:21:39",1698423699138,1,"27/10/2023 17:21:39",149662,3,"task-gjqt",NA,32534761,9628544,NA,"complete",NA,"653bd31ad282486159ee405e","computer","Desktop or Laptop","Windows 10","Chrome 118.0.0.0","1280x720","1280x585",NA,NA,0,"BIQ (Charlotte)",3,"ABJCIDHEGF","Passed AC2","","Spreadsheet1",1,"BIQ","Screen 1","9dh6eq",1,"response","3",16631.21,28413.379,28430.065,16631.21,28413.379,28430.065,1,16631.21,11798.855,0,NA,"Rating Scale","Rating Scale",10,"object-18","BIQ",NA,"SUPPRF98014"
"5",1698420099141,"27/10/2023 15:21:39",1698423699141,1,"27/10/2023 17:21:39",149662,3,"task-gjqt",NA,32534761,9628544,NA,"complete",NA,"653bd31ad282486159ee405e","computer","Desktop or Laptop","Windows 10","Chrome 118.0.0.0","1280x720","1280x585",NA,NA,0,"BIQ (Charlotte)",3,"ABJCIDHEGF","Passed AC2","","Spreadsheet1",1,"BIQ","Screen 1","9dh6eq",1,"response","1",26796.887,28413.379,28430.065,26796.887,28413.379,28430.065,1,26796.887,1633.178,0,NA,"Rating Scale","Rating Scale",17,"object-80","BIQ",NA,"SUPPRF98014"
"6",1698420120325,"27/10/2023 15:22:00",1698423720325,1,"27/10/2023 17:22:00",149662,3,"task-gjqt",NA,32534761,9628544,NA,"complete",NA,"653bd31ad282486159ee405e","computer","Desktop or Laptop","Windows 10","Chrome 118.0.0.0","1280x720","1280x585",NA,NA,0,"BIQ (Charlotte)",3,"ABJCIDHEGF","Passed AC2","","Spreadsheet1",1,"BIQ","Screen 2","o21mwi",2,"continue","",21219.2109999523,21213.903,21219.2109999523,21219.2109999523,21213.903,21219.2109999523,1,21219.2109999523,0,0,NA,"Click To Continue","Continue Button",22,"object-50","BIQ",NA,"SUPPRF98014"
"7",1698420120332,"27/10/2023 15:22:00",1698423720332,1,"27/10/2023 17:22:00",149662,3,"task-gjqt",NA,32534761,9628544,NA,"complete",NA,"653bd31ad282486159ee405e","computer","Desktop or Laptop","Windows 10","Chrome 118.0.0.0","1280x720","1280x585",NA,NA,0,"BIQ (Charlotte)",3,"ABJCIDHEGF","Passed AC2","","Spreadsheet1",1,"BIQ","Screen 2","o21mwi",2,"response","7",8198.581,21213.903,21227.0109999046,8198.581,21213.903,21227.0109999046,1,8198.581,13028.4299999046,0,NA,"Rating Scale","Rating Scale",2,"object-259","BIQ",NA,"SUPPRF98014"
"8",1698420120334,"27/10/2023 15:22:00",1698423720334,1,"27/10/2023 17:22:00",149662,3,"task-gjqt",NA,32534761,9628544,NA,"complete",NA,"653bd31ad282486159ee405e","computer","Desktop or Laptop","Windows 10","Chrome 118.0.0.0","1280x720","1280x585",NA,NA,0,"BIQ (Charlotte)",3,"ABJCIDHEGF","Passed AC2","","Spreadsheet1",1,"BIQ","Screen 2","o21mwi",2,"response","5",12415.018,21213.903,21228.8109998569,12415.018,21213.903,21228.8109998569,1,12415.018,8813.79299985695,0,NA,"Rating Scale","Rating Scale",9,"object-36","BIQ",NA,"SUPPRF98014"
"9",1698420120335,"27/10/2023 15:22:00",1698423720335,1,"27/10/2023 17:22:00",149662,3,"task-gjqt",NA,32534761,9628544,NA,"complete",NA,"653bd31ad282486159ee405e","computer","Desktop or Laptop","Windows 10","Chrome 118.0.0.0","1280x720","1280x585",NA,NA,0,"BIQ (Charlotte)",3,"ABJCIDHEGF","Passed AC2","","Spreadsheet1",1,"BIQ","Screen 2","o21mwi",2,"response","6",20347.38,21213.903,21230.0109999046,20347.38,21213.903,21230.0109999046,1,20347.38,882.630999904635,0,NA,"Rating Scale","Rating Scale",16,"object-86","BIQ",NA,"SUPPRF98014"
"10",1698420136834,"27/10/2023 15:22:16",1698423736834,1,"27/10/2023 17:22:16",149662,3,"task-gjqt",NA,32534761,9628544,NA,"complete",NA,"653bd31ad282486159ee405e","computer","Desktop or Laptop","Windows 10","Chrome 118.0.0.0","1280x720","1280x585",NA,NA,0,"BIQ (Charlotte)",3,"ABJCIDHEGF","Passed AC2","","Spreadsheet1",1,"BIQ","Screen 3","iz3the",3,"continue","",16514.666,16497.978,16514.666,16514.666,16497.978,16514.666,1,16514.666,0,0,NA,"Click To Continue","Continue Button",22,"object-73","BIQ",NA,"SUPPRF98014"
"11",1698420136841,"27/10/2023 15:22:16",1698423736841,1,"27/10/2023 17:22:16",149662,3,"task-gjqt",NA,32534761,9628544,NA,"complete",NA,"653bd31ad282486159ee405e","computer","Desktop or Laptop","Windows 10","Chrome 118.0.0.0","1280x720","1280x585",NA,NA,0,"BIQ (Charlotte)",3,"ABJCIDHEGF","Passed AC2","","Spreadsheet1",1,"BIQ","Screen 3","iz3the",3,"response","0",8615.61500000001,16497.978,16514.666,8615.61500000001,16497.978,16514.666,1,8615.61500000001,7899.05099999999,0,NA,"Rating Scale","Rating Scale",2,"object-53","BIQ",NA,"SUPPRF98014"
"12",1698420136842,"27/10/2023 15:22:16",1698423736842,1,"27/10/2023 17:22:16",149662,3,"task-gjqt",NA,32534761,9628544,NA,"complete",NA,"653bd31ad282486159ee405e","computer","Desktop or Laptop","Windows 10","Chrome 118.0.0.0","1280x720","1280x585",NA,NA,0,"BIQ (Charlotte)",3,"ABJCIDHEGF","Passed AC2","","Spreadsheet1",1,"BIQ","Screen 3","iz3the",3,"response","2",12298.062,16497.978,16514.666,12298.062,16497.978,16514.666,1,12298.062,4216.604,0,NA,"Rating Scale","Rating Scale",9,"object-60","BIQ",NA,"SUPPRF98014"
"13",1698420136844,"27/10/2023 15:22:16",1698423736844,1,"27/10/2023 17:22:16",149662,3,"task-gjqt",NA,32534761,9628544,NA,"complete",NA,"653bd31ad282486159ee405e","computer","Desktop or Laptop","Windows 10","Chrome 118.0.0.0","1280x720","1280x585",NA,NA,0,"BIQ (Charlotte)",3,"ABJCIDHEGF","Passed AC2","","Spreadsheet1",1,"BIQ","Screen 3","iz3the",3,"response","1",14148.112,16497.978,16514.666,14148.112,16497.978,16514.666,1,14148.112,2366.554,0,NA,"Rating Scale","Rating Scale",16,"object-67","BIQ",NA,"SUPPRF98014"
"14",1698420136860,"27/10/2023 15:22:16",1698423736860,1,"27/10/2023 17:22:16",149662,3,"task-gjqt",NA,32534761,9628544,NA,"complete",NA,"653bd31ad282486159ee405e","computer","Desktop or Laptop","Windows 10","Chrome 118.0.0.0","1280x720","1280x585",NA,NA,0,"BIQ (Charlotte)",3,"ABJCIDHEGF","Passed AC2","","Spreadsheet1",NA,"","","",NA,"5","END",NA,NA,NA,NA,NA,NA,0,NA,NA,NA,NA,"","",NA,"","",NA,"SUPPRF98014"
"1",1698420126898,"27/10/2023 15:22:06",1698430926898,3,"27/10/2023 21:22:06",149662,3,"task-gjqt",NA,32534795,9628543,NA,"complete",NA,"653bd1354cd0db68502060ee","computer","Desktop or Laptop","Windows 10","Chrome 118.0.0.0","1920x1080","1745x875",NA,NA,0,"BIQ (Charlotte)",3,"JAIBHCGDFE","Passed AC2","","Spreadsheet1",NA,"","","",NA,"5","BEGIN",NA,NA,NA,NA,NA,NA,0,NA,NA,NA,NA,"","",NA,"","",NA,"SUPPRF28820"
"2",1698420166559,"27/10/2023 15:22:46",1698430966559,3,"27/10/2023 21:22:46",149662,3,"task-gjqt",NA,32534795,9628543,NA,"complete",NA,"653bd1354cd0db68502060ee","computer","Desktop or Laptop","Windows 10","Chrome 118.0.0.0","1920x1080","1745x875",NA,NA,0,"BIQ (Charlotte)",3,"JAIBHCGDFE","Passed AC2","","Spreadsheet1",1,"BIQ","Screen 1","9dh6eq",1,"continue","",39665.467,39657.419,39665.467,39665.467,39657.419,39665.467,1,39665.467,0,0,NA,"Click To Continue","Continue Button",23,"object-48","BIQ",NA,"SUPPRF28820"
"3",1698420166560,"27/10/2023 15:22:46",1698430966560,3,"27/10/2023 21:22:46",149662,3,"task-gjqt",NA,32534795,9628543,NA,"complete",NA,"653bd1354cd0db68502060ee","computer","Desktop or Laptop","Windows 10","Chrome 118.0.0.0","1920x1080","1745x875",NA,NA,0,"BIQ (Charlotte)",3,"JAIBHCGDFE","Passed AC2","","Spreadsheet1",1,"BIQ","Screen 1","9dh6eq",1,"response","4",25041.05,39657.419,39665.467,25041.05,39657.419,39665.467,1,25041.05,14624.417,0,NA,"Rating Scale","Rating Scale",3,"object-5","BIQ",NA,"SUPPRF28820"
"4",1698420166560,"27/10/2023 15:22:46",1698430966560,3,"27/10/2023 21:22:46",149662,3,"task-gjqt",NA,32534795,9628543,NA,"complete",NA,"653bd1354cd0db68502060ee","computer","Desktop or Laptop","Windows 10","Chrome 118.0.0.0","1920x1080","1745x875",NA,NA,0,"BIQ (Charlotte)",3,"JAIBHCGDFE","Passed AC2","","Spreadsheet1",1,"BIQ","Screen 1","9dh6eq",1,"response","6",31182.606,39657.419,39665.467,31182.606,39657.419,39665.467,1,31182.606,8482.86100000001,0,NA,"Rating Scale","Rating Scale",10,"object-18","BIQ",NA,"SUPPRF28820"
"5",1698420166561,"27/10/2023 15:22:46",1698430966561,3,"27/10/2023 21:22:46",149662,3,"task-gjqt",NA,32534795,9628543,NA,"complete",NA,"653bd1354cd0db68502060ee","computer","Desktop or Laptop","Windows 10","Chrome 118.0.0.0","1920x1080","1745x875",NA,NA,0,"BIQ (Charlotte)",3,"JAIBHCGDFE","Passed AC2","","Spreadsheet1",1,"BIQ","Screen 1","9dh6eq",1,"response","5",38657.414,39657.419,39665.467,38657.414,39657.419,39665.467,1,38657.414,1008.053,0,NA,"Rating Scale","Rating Scale",17,"object-80","BIQ",NA,"SUPPRF28820"
"6",1698420192913,"27/10/2023 15:23:12",1698430992913,3,"27/10/2023 21:23:12",149662,3,"task-gjqt",NA,32534795,9628543,NA,"complete",NA,"653bd1354cd0db68502060ee","computer","Desktop or Laptop","Windows 10","Chrome 118.0.0.0","1920x1080","1745x875",NA,NA,0,"BIQ (Charlotte)",3,"JAIBHCGDFE","Passed AC2","","Spreadsheet1",1,"BIQ","Screen 2","o21mwi",2,"continue","",26363.9569999762,26357.75,26363.9569999762,26363.9569999762,26357.75,26363.9569999762,1,26363.9569999762,0,0,NA,"Click To Continue","Continue Button",22,"object-50","BIQ",NA,"SUPPRF28820"
"7",1698420192914,"27/10/2023 15:23:12",1698430992914,3,"27/10/2023 21:23:12",149662,3,"task-gjqt",NA,32534795,9628543,NA,"complete",NA,"653bd1354cd0db68502060ee","computer","Desktop or Laptop","Windows 10","Chrome 118.0.0.0","1920x1080","1745x875",NA,NA,0,"BIQ (Charlotte)",3,"JAIBHCGDFE","Passed AC2","","Spreadsheet1",1,"BIQ","Screen 2","o21mwi",2,"response","7",9149.992,26357.75,26365.2570000477,9149.992,26357.75,26365.2570000477,1,9149.992,17215.2650000477,0,NA,"Rating Scale","Rating Scale",2,"object-259","BIQ",NA,"SUPPRF28820"
"8",1698420192915,"27/10/2023 15:23:12",1698430992915,3,"27/10/2023 21:23:12",149662,3,"task-gjqt",NA,32534795,9628543,NA,"complete",NA,"653bd1354cd0db68502060ee","computer","Desktop or Laptop","Windows 10","Chrome 118.0.0.0","1920x1080","1745x875",NA,NA,0,"BIQ (Charlotte)",3,"JAIBHCGDFE","Passed AC2","","Spreadsheet1",1,"BIQ","Screen 2","o21mwi",2,"response","4",16624.631,26357.75,26365.6570000238,16624.631,26357.75,26365.6570000238,1,16624.631,9741.02600002384,0,NA,"Rating Scale","Rating Scale",9,"object-36","BIQ",NA,"SUPPRF28820"
"9",1698420192915,"27/10/2023 15:23:12",1698430992915,3,"27/10/2023 21:23:12",149662,3,"task-gjqt",NA,32534795,9628543,NA,"complete",NA,"653bd1354cd0db68502060ee","computer","Desktop or Laptop","Windows 10","Chrome 118.0.0.0","1920x1080","1745x875",NA,NA,0,"BIQ (Charlotte)",3,"JAIBHCGDFE","Passed AC2","","Spreadsheet1",1,"BIQ","Screen 2","o21mwi",2,"response","4",25541.19,26357.75,26365.81,25541.19,26357.75,26365.81,1,25541.19,824.619999999995,0,NA,"Rating Scale","Rating Scale",16,"object-86","BIQ",NA,"SUPPRF28820"
"10",1698420224417,"27/10/2023 15:23:44",1698431024417,3,"27/10/2023 21:23:44",149662,3,"task-gjqt",NA,32534795,9628543,NA,"complete",NA,"653bd1354cd0db68502060ee","computer","Desktop or Laptop","Windows 10","Chrome 118.0.0.0","1920x1080","1745x875",NA,NA,0,"BIQ (Charlotte)",3,"JAIBHCGDFE","Passed AC2","","Spreadsheet1",1,"BIQ","Screen 3","iz3the",3,"continue","",31510.6069999523,31507.761,31510.6069999523,31510.6069999523,31507.761,31510.6069999523,1,31510.6069999523,0,0,NA,"Click To Continue","Continue Button",22,"object-73","BIQ",NA,"SUPPRF28820"
"11",1698420224419,"27/10/2023 15:23:44",1698431024419,3,"27/10/2023 21:23:44",149662,3,"task-gjqt",NA,32534795,9628543,NA,"complete",NA,"653bd1354cd0db68502060ee","computer","Desktop or Laptop","Windows 10","Chrome 118.0.0.0","1920x1080","1745x875",NA,NA,0,"BIQ (Charlotte)",3,"JAIBHCGDFE","Passed AC2","","Spreadsheet1",1,"BIQ","Screen 3","iz3the",3,"response","3",21591.271,31507.761,31512.1069999523,21591.271,31507.761,31512.1069999523,1,21591.271,9920.83599995231,0,NA,"Rating Scale","Rating Scale",2,"object-53","BIQ",NA,"SUPPRF28820"
"12",1698420224419,"27/10/2023 15:23:44",1698431024419,3,"27/10/2023 21:23:44",149662,3,"task-gjqt",NA,32534795,9628543,NA,"complete",NA,"653bd1354cd0db68502060ee","computer","Desktop or Laptop","Windows 10","Chrome 118.0.0.0","1920x1080","1745x875",NA,NA,0,"BIQ (Charlotte)",3,"JAIBHCGDFE","Passed AC2","","Spreadsheet1",1,"BIQ","Screen 3","iz3the",3,"response","2",25224.472,31507.761,31512.4070000238,25224.472,31507.761,31512.4070000238,1,25224.472,6287.93500002385,0,NA,"Rating Scale","Rating Scale",9,"object-60","BIQ",NA,"SUPPRF28820"
"13",1698420224419,"27/10/2023 15:23:44",1698431024419,3,"27/10/2023 21:23:44",149662,3,"task-gjqt",NA,32534795,9628543,NA,"complete",NA,"653bd1354cd0db68502060ee","computer","Desktop or Laptop","Windows 10","Chrome 118.0.0.0","1920x1080","1745x875",NA,NA,0,"BIQ (Charlotte)",3,"JAIBHCGDFE","Passed AC2","","Spreadsheet1",1,"BIQ","Screen 3","iz3the",3,"response","0",30924.381,31507.761,31512.7069999762,30924.381,31507.761,31512.7069999762,1,30924.381,588.325999976165,0,NA,"Rating Scale","Rating Scale",16,"object-67","BIQ",NA,"SUPPRF28820"
"14",1698420224423,"27/10/2023 15:23:44",1698431024423,3,"27/10/2023 21:23:44",149662,3,"task-gjqt",NA,32534795,9628543,NA,"complete",NA,"653bd1354cd0db68502060ee","computer","Desktop or Laptop","Windows 10","Chrome 118.0.0.0","1920x1080","1745x875",NA,NA,0,"BIQ (Charlotte)",3,"JAIBHCGDFE","Passed AC2","","Spreadsheet1",NA,"","","",NA,"5","END",NA,NA,NA,NA,NA,NA,0,NA,NA,NA,NA,"","",NA,"","",NA,"SUPPRF28820"
"1",1698420543314,"27/10/2023 15:29:03",1698395343314,-7,"27/10/2023 01:29:03",149662,3,"task-gjqt",NA,32535163,9628625,NA,"complete",NA,"653bd5af6778e1739b20621f","computer","Desktop or Laptop","Windows 10","Chrome 118.0.0.0","1920x1080","1920x963",NA,NA,0,"BIQ (Charlotte)",3,"DECFBGAHJI","Passed AC2","","Spreadsheet1",NA,"","","",NA,"5","BEGIN",NA,NA,NA,NA,NA,NA,0,NA,NA,NA,NA,"","",NA,"","",NA,"SUPPRF43781"
"2",1698420578067,"27/10/2023 15:29:38",1698395378067,-7,"27/10/2023 01:29:38",149662,3,"task-gjqt",NA,32535163,9628625,NA,"complete",NA,"653bd5af6778e1739b20621f","computer","Desktop or Laptop","Windows 10","Chrome 118.0.0.0","1920x1080","1920x963",NA,NA,0,"BIQ (Charlotte)",3,"DECFBGAHJI","Passed AC2","","Spreadsheet1",1,"BIQ","Screen 1","9dh6eq",1,"continue","",34783.913,34767.185,34783.913,34783.913,34767.185,34783.913,1,34783.913,0,0,NA,"Click To Continue","Continue Button",23,"object-48","BIQ",NA,"SUPPRF43781"
"3",1698420578072,"27/10/2023 15:29:38",1698395378072,-7,"27/10/2023 01:29:38",149662,3,"task-gjqt",NA,32535163,9628625,NA,"complete",NA,"653bd5af6778e1739b20621f","computer","Desktop or Laptop","Windows 10","Chrome 118.0.0.0","1920x1080","1920x963",NA,NA,0,"BIQ (Charlotte)",3,"DECFBGAHJI","Passed AC2","","Spreadsheet1",1,"BIQ","Screen 1","9dh6eq",1,"response","2",20600.201,34767.185,34783.913,20600.201,34767.185,34783.913,1,20600.201,14183.712,0,NA,"Rating Scale","Rating Scale",3,"object-5","BIQ",NA,"SUPPRF43781"
"4",1698420578073,"27/10/2023 15:29:38",1698395378073,-7,"27/10/2023 01:29:38",149662,3,"task-gjqt",NA,32535163,9628625,NA,"complete",NA,"653bd5af6778e1739b20621f","computer","Desktop or Laptop","Windows 10","Chrome 118.0.0.0","1920x1080","1920x963",NA,NA,0,"BIQ (Charlotte)",3,"DECFBGAHJI","Passed AC2","","Spreadsheet1",1,"BIQ","Screen 1","9dh6eq",1,"response","2",25867.081,34767.185,34783.913,25867.081,34767.185,34783.913,1,25867.081,8916.832,0,NA,"Rating Scale","Rating Scale",10,"object-18","BIQ",NA,"SUPPRF43781"
"5",1698420578074,"27/10/2023 15:29:38",1698395378074,-7,"27/10/2023 01:29:38",149662,3,"task-gjqt",NA,32535163,9628625,NA,"complete",NA,"653bd5af6778e1739b20621f","computer","Desktop or Laptop","Windows 10","Chrome 118.0.0.0","1920x1080","1920x963",NA,NA,0,"BIQ (Charlotte)",3,"DECFBGAHJI","Passed AC2","","Spreadsheet1",1,"BIQ","Screen 1","9dh6eq",1,"response","6",33683.79,34767.185,34783.913,33683.79,34767.185,34783.913,1,33683.79,1100.12300000001,0,NA,"Rating Scale","Rating Scale",17,"object-80","BIQ",NA,"SUPPRF43781"
"6",1698420595980,"27/10/2023 15:29:55",1698395395980,-7,"27/10/2023 01:29:55",149662,3,"task-gjqt",NA,32535163,9628625,NA,"complete",NA,"653bd5af6778e1739b20621f","computer","Desktop or Laptop","Windows 10","Chrome 118.0.0.0","1920x1080","1920x963",NA,NA,0,"BIQ (Charlotte)",3,"DECFBGAHJI","Passed AC2","","Spreadsheet1",1,"BIQ","Screen 2","o21mwi",2,"continue","",17932.2029999523,17916.869,17932.2029999523,17932.2029999523,17916.869,17932.2029999523,1,17932.2029999523,0,0,NA,"Click To Continue","Continue Button",22,"object-50","BIQ",NA,"SUPPRF43781"
"7",1698420595986,"27/10/2023 15:29:55",1698395395986,-7,"27/10/2023 01:29:55",149662,3,"task-gjqt",NA,32535163,9628625,NA,"complete",NA,"653bd5af6778e1739b20621f","computer","Desktop or Laptop","Windows 10","Chrome 118.0.0.0","1920x1080","1920x963",NA,NA,0,"BIQ (Charlotte)",3,"DECFBGAHJI","Passed AC2","","Spreadsheet1",1,"BIQ","Screen 2","o21mwi",2,"response","6",5199.911,17916.869,17933.651,5199.911,17916.869,17933.651,1,5199.911,12733.74,0,NA,"Rating Scale","Rating Scale",2,"object-259","BIQ",NA,"SUPPRF43781"
"8",1698420595987,"27/10/2023 15:29:55",1698395395987,-7,"27/10/2023 01:29:55",149662,3,"task-gjqt",NA,32535163,9628625,NA,"complete",NA,"653bd5af6778e1739b20621f","computer","Desktop or Laptop","Windows 10","Chrome 118.0.0.0","1920x1080","1920x963",NA,NA,0,"BIQ (Charlotte)",3,"DECFBGAHJI","Passed AC2","","Spreadsheet1",1,"BIQ","Screen 2","o21mwi",2,"response","3",9916.68,17916.869,17933.651,9916.68,17916.869,17933.651,1,9916.68,8016.971,0,NA,"Rating Scale","Rating Scale",9,"object-36","BIQ",NA,"SUPPRF43781"
"9",1698420595988,"27/10/2023 15:29:55",1698395395988,-7,"27/10/2023 01:29:55",149662,3,"task-gjqt",NA,32535163,9628625,NA,"complete",NA,"653bd5af6778e1739b20621f","computer","Desktop or Laptop","Windows 10","Chrome 118.0.0.0","1920x1080","1920x963",NA,NA,0,"BIQ (Charlotte)",3,"DECFBGAHJI","Passed AC2","","Spreadsheet1",1,"BIQ","Screen 2","o21mwi",2,"response","4",17066.751,17916.869,17933.651,17066.751,17916.869,17933.651,1,17066.751,866.900000000001,0,NA,"Rating Scale","Rating Scale",16,"object-86","BIQ",NA,"SUPPRF43781"
"10",1698420615173,"27/10/2023 15:30:15",1698395415173,-7,"27/10/2023 01:30:15",149662,3,"task-gjqt",NA,32535163,9628625,NA,"complete",NA,"653bd5af6778e1739b20621f","computer","Desktop or Laptop","Windows 10","Chrome 118.0.0.0","1920x1080","1920x963",NA,NA,0,"BIQ (Charlotte)",3,"DECFBGAHJI","Passed AC2","","Spreadsheet1",1,"BIQ","Screen 3","iz3the",3,"continue","",19208.534,19200.139,19208.534,19208.534,19200.139,19208.534,1,19208.534,0,0,NA,"Click To Continue","Continue Button",22,"object-73","BIQ",NA,"SUPPRF43781"
"11",1698420615179,"27/10/2023 15:30:15",1698395415179,-7,"27/10/2023 01:30:15",149662,3,"task-gjqt",NA,32535163,9628625,NA,"complete",NA,"653bd5af6778e1739b20621f","computer","Desktop or Laptop","Windows 10","Chrome 118.0.0.0","1920x1080","1920x963",NA,NA,0,"BIQ (Charlotte)",3,"DECFBGAHJI","Passed AC2","","Spreadsheet1",1,"BIQ","Screen 3","iz3the",3,"response","1",10866.706,19200.139,19214.2339999285,10866.706,19200.139,19214.2339999285,1,10866.706,8347.52799992847,0,NA,"Rating Scale","Rating Scale",2,"object-53","BIQ",NA,"SUPPRF43781"
"12",1698420615180,"27/10/2023 15:30:15",1698395415180,-7,"27/10/2023 01:30:15",149662,3,"task-gjqt",NA,32535163,9628625,NA,"complete",NA,"653bd5af6778e1739b20621f","computer","Desktop or Laptop","Windows 10","Chrome 118.0.0.0","1920x1080","1920x963",NA,NA,0,"BIQ (Charlotte)",3,"DECFBGAHJI","Passed AC2","","Spreadsheet1",1,"BIQ","Screen 3","iz3the",3,"response","2",14950.1,19200.139,19215.2339999285,14950.1,19200.139,19215.2339999285,1,14950.1,4265.13399992847,0,NA,"Rating Scale","Rating Scale",9,"object-60","BIQ",NA,"SUPPRF43781"
"13",1698420615181,"27/10/2023 15:30:15",1698395415181,-7,"27/10/2023 01:30:15",149662,3,"task-gjqt",NA,32535163,9628625,NA,"complete",NA,"653bd5af6778e1739b20621f","computer","Desktop or Laptop","Windows 10","Chrome 118.0.0.0","1920x1080","1920x963",NA,NA,0,"BIQ (Charlotte)",3,"DECFBGAHJI","Passed AC2","","Spreadsheet1",1,"BIQ","Screen 3","iz3the",3,"response","1",18283.38,19200.139,19216.534,18283.38,19200.139,19216.534,1,18283.38,933.153999999995,0,NA,"Rating Scale","Rating Scale",16,"object-67","BIQ",NA,"SUPPRF43781"
"14",1698420615191,"27/10/2023 15:30:15",1698395415191,-7,"27/10/2023 01:30:15",149662,3,"task-gjqt",NA,32535163,9628625,NA,"complete",NA,"653bd5af6778e1739b20621f","computer","Desktop or Laptop","Windows 10","Chrome 118.0.0.0","1920x1080","1920x963",NA,NA,0,"BIQ (Charlotte)",3,"DECFBGAHJI","Passed AC2","","Spreadsheet1",NA,"","","",NA,"5","END",NA,NA,NA,NA,NA,NA,0,NA,NA,NA,NA,"","",NA,"","",NA,"SUPPRF43781"
"1",1698420565274,"27/10/2023 15:29:25",1698424165274,1,"27/10/2023 17:29:25",149662,3,"task-gjqt",NA,32535199,9628642,NA,"complete",NA,"653bd5499f1d379605bd3e8b","computer","Desktop or Laptop","Windows 10","Edge 118.0.2088.69","1920x1080","1872x966",NA,NA,0,"BIQ (Charlotte)",3,"CDBEAFJGIH","Passed AC2","","Spreadsheet1",NA,"","","",NA,"5","BEGIN",NA,NA,NA,NA,NA,NA,0,NA,NA,NA,NA,"","",NA,"","",NA,"SUPPRF03208"
"2",1698420598288,"27/10/2023 15:29:58",1698424198288,1,"27/10/2023 17:29:58",149662,3,"task-gjqt",NA,32535199,9628642,NA,"complete",NA,"653bd5499f1d379605bd3e8b","computer","Desktop or Laptop","Windows 10","Edge 118.0.2088.69","1920x1080","1872x966",NA,NA,0,"BIQ (Charlotte)",3,"CDBEAFJGIH","Passed AC2","","Spreadsheet1",1,"BIQ","Screen 1","9dh6eq",1,"continue","",33675.7000000477,33668.976,33675.7000000477,33675.7000000477,33668.976,33675.7000000477,1,33675.7000000477,0,0,NA,"Click To Continue","Continue Button",23,"object-48","BIQ",NA,"SUPPRF03208"
"3",1698420598289,"27/10/2023 15:29:58",1698424198289,1,"27/10/2023 17:29:58",149662,3,"task-gjqt",NA,32535199,9628642,NA,"complete",NA,"653bd5499f1d379605bd3e8b","computer","Desktop or Laptop","Windows 10","Edge 118.0.2088.69","1920x1080","1872x966",NA,NA,0,"BIQ (Charlotte)",3,"CDBEAFJGIH","Passed AC2","","Spreadsheet1",1,"BIQ","Screen 1","9dh6eq",1,"response","4",20285.819,33668.976,33677.6000000238,20285.819,33668.976,33677.6000000238,1,20285.819,13391.7810000238,0,NA,"Rating Scale","Rating Scale",3,"object-5","BIQ",NA,"SUPPRF03208"
"4",1698420598289,"27/10/2023 15:29:58",1698424198289,1,"27/10/2023 17:29:58",149662,3,"task-gjqt",NA,32535199,9628642,NA,"complete",NA,"653bd5499f1d379605bd3e8b","computer","Desktop or Laptop","Windows 10","Edge 118.0.2088.69","1920x1080","1872x966",NA,NA,0,"BIQ (Charlotte)",3,"CDBEAFJGIH","Passed AC2","","Spreadsheet1",1,"BIQ","Screen 1","9dh6eq",1,"response","7",29252.365,33668.976,33677.8000000715,29252.365,33668.976,33677.8000000715,1,29252.365,4425.43500007152,0,NA,"Rating Scale","Rating Scale",10,"object-18","BIQ",NA,"SUPPRF03208"
"5",1698420598289,"27/10/2023 15:29:58",1698424198289,1,"27/10/2023 17:29:58",149662,3,"task-gjqt",NA,32535199,9628642,NA,"complete",NA,"653bd5499f1d379605bd3e8b","computer","Desktop or Laptop","Windows 10","Edge 118.0.2088.69","1920x1080","1872x966",NA,NA,0,"BIQ (Charlotte)",3,"CDBEAFJGIH","Passed AC2","","Spreadsheet1",1,"BIQ","Screen 1","9dh6eq",1,"response","0",31669.001,33668.976,33678.1000000238,31669.001,33668.976,33678.1000000238,1,31669.001,2009.09900002384,0,NA,"Rating Scale","Rating Scale",17,"object-80","BIQ",NA,"SUPPRF03208"
"6",1698420609262,"27/10/2023 15:30:09",1698424209262,1,"27/10/2023 17:30:09",149662,3,"task-gjqt",NA,32535199,9628642,NA,"complete",NA,"653bd5499f1d379605bd3e8b","computer","Desktop or Laptop","Windows 10","Edge 118.0.2088.69","1920x1080","1872x966",NA,NA,0,"BIQ (Charlotte)",3,"CDBEAFJGIH","Passed AC2","","Spreadsheet1",1,"BIQ","Screen 2","o21mwi",2,"continue","",10981.4239999762,10966.524,10981.4239999762,10981.4239999762,10966.524,10981.4239999762,1,10981.4239999762,0,0,NA,"Click To Continue","Continue Button",22,"object-50","BIQ",NA,"SUPPRF03208"
"7",1698420609263,"27/10/2023 15:30:09",1698424209263,1,"27/10/2023 17:30:09",149662,3,"task-gjqt",NA,32535199,9628642,NA,"complete",NA,"653bd5499f1d379605bd3e8b","computer","Desktop or Laptop","Windows 10","Edge 118.0.2088.69","1920x1080","1872x966",NA,NA,0,"BIQ (Charlotte)",3,"CDBEAFJGIH","Passed AC2","","Spreadsheet1",1,"BIQ","Screen 2","o21mwi",2,"response","8",3033.29199999999,10966.524,10982.9239999762,3033.29199999999,10966.524,10982.9239999762,1,3033.29199999999,7949.63199997616,0,NA,"Rating Scale","Rating Scale",2,"object-259","BIQ",NA,"SUPPRF03208"
"8",1698420609264,"27/10/2023 15:30:09",1698424209264,1,"27/10/2023 17:30:09",149662,3,"task-gjqt",NA,32535199,9628642,NA,"complete",NA,"653bd5499f1d379605bd3e8b","computer","Desktop or Laptop","Windows 10","Edge 118.0.2088.69","1920x1080","1872x966",NA,NA,0,"BIQ (Charlotte)",3,"CDBEAFJGIH","Passed AC2","","Spreadsheet1",1,"BIQ","Screen 2","o21mwi",2,"response","0",4066.61399999999,10966.524,10983.193,4066.61399999999,10966.524,10983.193,1,4066.61399999999,6916.57900000001,0,NA,"Rating Scale","Rating Scale",9,"object-36","BIQ",NA,"SUPPRF03208"
"9",1698420609264,"27/10/2023 15:30:09",1698424209264,1,"27/10/2023 17:30:09",149662,3,"task-gjqt",NA,32535199,9628642,NA,"complete",NA,"653bd5499f1d379605bd3e8b","computer","Desktop or Laptop","Windows 10","Edge 118.0.2088.69","1920x1080","1872x966",NA,NA,0,"BIQ (Charlotte)",3,"CDBEAFJGIH","Passed AC2","","Spreadsheet1",1,"BIQ","Screen 2","o21mwi",2,"response","0",5433.262,10966.524,10983.193,5433.262,10966.524,10983.193,1,5433.262,5549.931,0,NA,"Rating Scale","Rating Scale",16,"object-86","BIQ",NA,"SUPPRF03208"
"10",1698420617944,"27/10/2023 15:30:17",1698424217944,1,"27/10/2023 17:30:17",149662,3,"task-gjqt",NA,32535199,9628642,NA,"complete",NA,"653bd5499f1d379605bd3e8b","computer","Desktop or Laptop","Windows 10","Edge 118.0.2088.69","1920x1080","1872x966",NA,NA,0,"BIQ (Charlotte)",3,"CDBEAFJGIH","Passed AC2","","Spreadsheet1",1,"BIQ","Screen 3","iz3the",3,"continue","",8697.20000004768,8683.222,8697.20000004768,8697.20000004768,8683.222,8697.20000004768,1,8697.20000004768,0,0,NA,"Click To Continue","Continue Button",22,"object-73","BIQ",NA,"SUPPRF03208"
"11",1698420617944,"27/10/2023 15:30:17",1698424217944,1,"27/10/2023 17:30:17",149662,3,"task-gjqt",NA,32535199,9628642,NA,"complete",NA,"653bd5499f1d379605bd3e8b","computer","Desktop or Laptop","Windows 10","Edge 118.0.2088.69","1920x1080","1872x966",NA,NA,0,"BIQ (Charlotte)",3,"CDBEAFJGIH","Passed AC2","","Spreadsheet1",1,"BIQ","Screen 3","iz3the",3,"response","0",4433.27,8683.222,8697.5,4433.27,8683.222,8697.5,1,4433.27,4264.23,0,NA,"Rating Scale","Rating Scale",2,"object-53","BIQ",NA,"SUPPRF03208"
"12",1698420617944,"27/10/2023 15:30:17",1698424217944,1,"27/10/2023 17:30:17",149662,3,"task-gjqt",NA,32535199,9628642,NA,"complete",NA,"653bd5499f1d379605bd3e8b","computer","Desktop or Laptop","Windows 10","Edge 118.0.2088.69","1920x1080","1872x966",NA,NA,0,"BIQ (Charlotte)",3,"CDBEAFJGIH","Passed AC2","","Spreadsheet1",1,"BIQ","Screen 3","iz3the",3,"response","0",5416.591,8683.222,8697.70000004768,5416.591,8683.222,8697.70000004768,1,5416.591,3281.10900004768,0,NA,"Rating Scale","Rating Scale",9,"object-60","BIQ",NA,"SUPPRF03208"
"13",1698420617945,"27/10/2023 15:30:17",1698424217945,1,"27/10/2023 17:30:17",149662,3,"task-gjqt",NA,32535199,9628642,NA,"complete",NA,"653bd5499f1d379605bd3e8b","computer","Desktop or Laptop","Windows 10","Edge 118.0.2088.69","1920x1080","1872x966",NA,NA,0,"BIQ (Charlotte)",3,"CDBEAFJGIH","Passed AC2","","Spreadsheet1",1,"BIQ","Screen 3","iz3the",3,"response","0",7199.902,8683.222,8697.89999997616,7199.902,8683.222,8697.89999997616,1,7199.902,1497.99799997616,0,NA,"Rating Scale","Rating Scale",16,"object-67","BIQ",NA,"SUPPRF03208"
"14",1698420617948,"27/10/2023 15:30:17",1698424217948,1,"27/10/2023 17:30:17",149662,3,"task-gjqt",NA,32535199,9628642,NA,"complete",NA,"653bd5499f1d379605bd3e8b","computer","Desktop or Laptop","Windows 10","Edge 118.0.2088.69","1920x1080","1872x966",NA,NA,0,"BIQ (Charlotte)",3,"CDBEAFJGIH","Passed AC2","","Spreadsheet1",NA,"","","",NA,"5","END",NA,NA,NA,NA,NA,NA,0,NA,NA,NA,NA,"","",NA,"","",NA,"SUPPRF03208"
"1",1698420589648,"27/10/2023 15:29:49",1698424189648,1,"27/10/2023 17:29:49",149662,3,"task-gjqt",NA,32535221,9628678,NA,"complete",NA,"653bd6b99cabb88e6b4d37d8","computer","Desktop or Laptop","Windows 10","Chrome 118.0.0.0","1360x768","1360x651",NA,NA,0,"BIQ (Charlotte)",3,"EFDGCHBIAJ","Passed AC2","","Spreadsheet1",NA,"","","",NA,"5","BEGIN",NA,NA,NA,NA,NA,NA,0,NA,NA,NA,NA,"","",NA,"","",NA,"SUPPRF83713"
"2",1698420621716,"27/10/2023 15:30:21",1698424221716,1,"27/10/2023 17:30:21",149662,3,"task-gjqt",NA,32535221,9628678,NA,"complete",NA,"653bd6b99cabb88e6b4d37d8","computer","Desktop or Laptop","Windows 10","Chrome 118.0.0.0","1360x768","1360x651",NA,NA,0,"BIQ (Charlotte)",3,"EFDGCHBIAJ","Passed AC2","","Spreadsheet1",1,"BIQ","Screen 1","9dh6eq",1,"continue","",32076.863,32060.197,32076.863,32076.863,32060.197,32076.863,1,32076.863,0,0,NA,"Click To Continue","Continue Button",23,"object-48","BIQ",NA,"SUPPRF83713"
"3",1698420621721,"27/10/2023 15:30:21",1698424221721,1,"27/10/2023 17:30:21",149662,3,"task-gjqt",NA,32535221,9628678,NA,"complete",NA,"653bd6b99cabb88e6b4d37d8","computer","Desktop or Laptop","Windows 10","Chrome 118.0.0.0","1360x768","1360x651",NA,NA,0,"BIQ (Charlotte)",3,"EFDGCHBIAJ","Passed AC2","","Spreadsheet1",1,"BIQ","Screen 1","9dh6eq",1,"response","2",15720.957,32060.197,32076.863,15720.957,32060.197,32076.863,1,15720.957,16355.906,0,NA,"Rating Scale","Rating Scale",3,"object-5","BIQ",NA,"SUPPRF83713"
"4",1698420621722,"27/10/2023 15:30:21",1698424221722,1,"27/10/2023 17:30:21",149662,3,"task-gjqt",NA,32535221,9628678,NA,"complete",NA,"653bd6b99cabb88e6b4d37d8","computer","Desktop or Laptop","Windows 10","Chrome 118.0.0.0","1360x768","1360x651",NA,NA,0,"BIQ (Charlotte)",3,"EFDGCHBIAJ","Passed AC2","","Spreadsheet1",1,"BIQ","Screen 1","9dh6eq",1,"response","8",22343.446,32060.197,32076.863,22343.446,32060.197,32076.863,1,22343.446,9733.41699999999,0,NA,"Rating Scale","Rating Scale",10,"object-18","BIQ",NA,"SUPPRF83713"
"5",1698420621722,"27/10/2023 15:30:21",1698424221722,1,"27/10/2023 17:30:21",149662,3,"task-gjqt",NA,32535221,9628678,NA,"complete",NA,"653bd6b99cabb88e6b4d37d8","computer","Desktop or Laptop","Windows 10","Chrome 118.0.0.0","1360x768","1360x651",NA,NA,0,"BIQ (Charlotte)",3,"EFDGCHBIAJ","Passed AC2","","Spreadsheet1",1,"BIQ","Screen 1","9dh6eq",1,"response","0",30705.473,32060.197,32076.863,30705.473,32060.197,32076.863,1,30705.473,1371.39,0,NA,"Rating Scale","Rating Scale",17,"object-80","BIQ",NA,"SUPPRF83713"
"6",1698420641272,"27/10/2023 15:30:41",1698424241272,1,"27/10/2023 17:30:41",149662,3,"task-gjqt",NA,32535221,9628678,NA,"complete",NA,"653bd6b99cabb88e6b4d37d8","computer","Desktop or Laptop","Windows 10","Chrome 118.0.0.0","1360x768","1360x651",NA,NA,0,"BIQ (Charlotte)",3,"EFDGCHBIAJ","Passed AC2","","Spreadsheet1",1,"BIQ","Screen 2","o21mwi",2,"continue","",19587.607,19570.941,19587.607,19587.607,19570.941,19587.607,1,19587.607,0,0,NA,"Click To Continue","Continue Button",22,"object-50","BIQ",NA,"SUPPRF83713"
"7",1698420641278,"27/10/2023 15:30:41",1698424241278,1,"27/10/2023 17:30:41",149662,3,"task-gjqt",NA,32535221,9628678,NA,"complete",NA,"653bd6b99cabb88e6b4d37d8","computer","Desktop or Laptop","Windows 10","Chrome 118.0.0.0","1360x768","1360x651",NA,NA,0,"BIQ (Charlotte)",3,"EFDGCHBIAJ","Passed AC2","","Spreadsheet1",1,"BIQ","Screen 2","o21mwi",2,"response","8",7414.92000000001,19570.941,19587.607,7414.92000000001,19570.941,19587.607,1,7414.92000000001,12172.687,0,NA,"Rating Scale","Rating Scale",2,"object-259","BIQ",NA,"SUPPRF83713"
"8",1698420641279,"27/10/2023 15:30:41",1698424241279,1,"27/10/2023 17:30:41",149662,3,"task-gjqt",NA,32535221,9628678,NA,"complete",NA,"653bd6b99cabb88e6b4d37d8","computer","Desktop or Laptop","Windows 10","Chrome 118.0.0.0","1360x768","1360x651",NA,NA,0,"BIQ (Charlotte)",3,"EFDGCHBIAJ","Passed AC2","","Spreadsheet1",1,"BIQ","Screen 2","o21mwi",2,"response","0",12854.023,19570.941,19587.607,12854.023,19570.941,19587.607,1,12854.023,6733.58400000001,0,NA,"Rating Scale","Rating Scale",9,"object-36","BIQ",NA,"SUPPRF83713"
