"Event.Index","UTC.Timestamp","UTC.Date.and.Time","Local.Timestamp","Local.Timezone","Local.Date.and.Time","Experiment.ID","Experiment.Version","Tree.Node.Key","Repeat.Key","Schedule.ID","Participant.Private.ID","Participant.Starting.Group","Participant.Status","Participant.Completion.Code","Participant.External.Session.ID","Participant.Device.Type","Participant.Device","Participant.OS","Participant.Browser","Participant.Monitor.Size","Participant.Viewport.Size","Checkpoint","Room.ID","Room.Order","Task.Name","Task.Version","order.ot79","branch.g31k","branch.5gtn","Spreadsheet","Trial.Number","Display","Screen","Screen.ID","Screen.Counter","Response.Type","Response","Onset.Time","Clock.Time","Reaction.Time","Absolute.Onset.Time","Absolute.Clock.Time","Absolute.Reaction.Time","Correct","Response.Onset","Response.Duration","Proportion","Tag","Component.Name","Object.Name","Object.Number","Object.ID","Spreadsheet..display","Manipulation..Spreadsheet","Random_ID"
"1",1697545856676,"17/10/2023 12:30:56",1697549456676,1,"17/10/2023 14:30:56",147682,3,"task-hbx7",NA,32290931,9549837,NA,"complete",NA,NA,"computer","Desktop or Laptop","Mac OS 10.15.7","Chrome 116.0.0.0","1440x900","1440x815",NA,NA,0,"Task Introduction and Instructions (Clone)",9,"CDBEAFJGIH","Passed AC2",NA,"Spreadsheet1",NA,"","","",NA,"5","BEGIN",NA,NA,NA,NA,NA,NA,0,NA,NA,NA,NA,"","",NA,"","",NA,"SUPPRF43420"
"2",1697545860231,"17/10/2023 12:31:00",1697549460231,1,"17/10/2023 14:31:00",147682,3,"task-hbx7",NA,32290931,9549837,NA,"complete",NA,NA,"computer","Desktop or Laptop","Mac OS 10.15.7","Chrome 116.0.0.0","1440x900","1440x815",NA,NA,0,"Task Introduction and Instructions (Clone)",9,"CDBEAFJGIH","Passed AC2",NA,"Spreadsheet1",1,"Task Instructions","Screen 1","anr7sn",1,"continue","",3291.08900004768,3283.202,3291.08900004768,3291.08900004768,3283.202,3291.08900004768,1,3291.08900004768,0,0,NA,"Click To Continue","Continue Button",2,"object-1944","Task Instructions",NA,"SUPPRF43420"
"3",1697545864281,"17/10/2023 12:31:04",1697549464281,1,"17/10/2023 14:31:04",147682,3,"task-hbx7",NA,32290931,9549837,NA,"complete",NA,NA,"computer","Desktop or Laptop","Mac OS 10.15.7","Chrome 116.0.0.0","1440x900","1440x815",NA,NA,0,"Task Introduction and Instructions (Clone)",9,"CDBEAFJGIH","Passed AC2",NA,"Spreadsheet1",1,"Task Instructions","Screen 2","ce2tc8",2,"continue","",4057.687,4050.447,4057.687,4057.687,4050.447,4057.687,1,4057.687,0,0,NA,"Click To Continue","Continue Button",2,"object-7","Task Instructions",NA,"SUPPRF43420"
"4",1697545866723,"17/10/2023 12:31:06",1697549466723,1,"17/10/2023 14:31:06",147682,3,"task-hbx7",NA,32290931,9549837,NA,"complete",NA,NA,"computer","Desktop or Laptop","Mac OS 10.15.7","Chrome 116.0.0.0","1440x900","1440x815",NA,NA,0,"Task Introduction and Instructions (Clone)",9,"CDBEAFJGIH","Passed AC2",NA,"Spreadsheet1",1,"Task Instructions","Screen 5","spepx9",3,"continue","",2449.54000007153,2433.236,2449.54000007153,2449.54000007153,2433.236,2449.54000007153,1,2449.54000007153,0,0,NA,"Click To Continue","Continue Button",2,"object-9","Task Instructions",NA,"SUPPRF43420"
"5",1697545869332,"17/10/2023 12:31:09",1697549469332,1,"17/10/2023 14:31:09",147682,3,"task-hbx7",NA,32290931,9549837,NA,"complete",NA,NA,"computer","Desktop or Laptop","Mac OS 10.15.7","Chrome 116.0.0.0","1440x900","1440x815",NA,NA,0,"Task Introduction and Instructions (Clone)",9,"CDBEAFJGIH","Passed AC2",NA,"Spreadsheet1",1,"Task Instructions","Screen 9","8nvnao",4,"continue","",2625.70400004768,2616.562,2625.70400004768,2625.70400004768,2616.562,2625.70400004768,1,2625.70400004768,0,0,NA,"Click To Continue","Continue Button",2,"object-44","Task Instructions",NA,"SUPPRF43420"
"6",1697545869334,"17/10/2023 12:31:09",1697549469334,1,"17/10/2023 14:31:09",147682,3,"task-hbx7",NA,32290931,9549837,NA,"complete",NA,NA,"computer","Desktop or Laptop","Mac OS 10.15.7","Chrome 116.0.0.0","1440x900","1440x815",NA,NA,0,"Task Introduction and Instructions (Clone)",9,"CDBEAFJGIH","Passed AC2",NA,"Spreadsheet1",NA,"","","",NA,"5","END",NA,NA,NA,NA,NA,NA,0,NA,NA,NA,NA,"","",NA,"","",NA,"SUPPRF43420"
"1",1697545864481,"17/10/2023 12:31:04",1697549464481,1,"17/10/2023 14:31:04",147682,3,"task-hbx7",NA,32290938,9549831,NA,"complete",NA,NA,"computer","Desktop or Laptop","Windows 10","Firefox 118.0","2560x1440","2560x1279",NA,NA,0,"Task Introduction and Instructions (Clone)",9,"ABJCIDHEGF","Passed AC2",NA,"Spreadsheet1",NA,"","","",NA,"5","BEGIN",NA,NA,NA,NA,NA,NA,0,NA,NA,NA,NA,"","",NA,"","",NA,"SUPPRF96180"
"2",1697545867605,"17/10/2023 12:31:07",1697549467605,1,"17/10/2023 14:31:07",147682,3,"task-hbx7",NA,32290938,9549831,NA,"complete",NA,NA,"computer","Desktop or Laptop","Windows 10","Firefox 118.0","2560x1440","2560x1279",NA,NA,0,"Task Introduction and Instructions (Clone)",9,"ABJCIDHEGF","Passed AC2",NA,"Spreadsheet1",1,"Task Instructions","Screen 1","anr7sn",1,"continue","",2985.22,2968.7,2985.22,2985.22,2968.7,2985.22,1,2985.22,0,0,NA,"Click To Continue","Continue Button",2,"object-1944","Task Instructions",NA,"SUPPRF96180"
"3",1697545871532,"17/10/2023 12:31:11",1697549471532,1,"17/10/2023 14:31:11",147682,3,"task-hbx7",NA,32290938,9549831,NA,"complete",NA,NA,"computer","Desktop or Laptop","Windows 10","Firefox 118.0","2560x1440","2560x1279",NA,NA,0,"Task Introduction and Instructions (Clone)",9,"ABJCIDHEGF","Passed AC2",NA,"Spreadsheet1",1,"Task Instructions","Screen 2","ce2tc8",2,"continue","",3943.52,3936.02,3943.52,3943.52,3936.02,3943.52,1,3943.52,0,0,NA,"Click To Continue","Continue Button",2,"object-7","Task Instructions",NA,"SUPPRF96180"
"4",1697545883641,"17/10/2023 12:31:23",1697549483641,1,"17/10/2023 14:31:23",147682,3,"task-hbx7",NA,32290938,9549831,NA,"complete",NA,NA,"computer","Desktop or Laptop","Windows 10","Firefox 118.0","2560x1440","2560x1279",NA,NA,0,"Task Introduction and Instructions (Clone)",9,"ABJCIDHEGF","Passed AC2",NA,"Spreadsheet1",1,"Task Instructions","Screen 5","spepx9",3,"continue","",12116.5,12110.1,12116.5,12116.5,12110.1,12116.5,1,12116.5,0,0,NA,"Click To Continue","Continue Button",2,"object-9","Task Instructions",NA,"SUPPRF96180"
"5",1697545886386,"17/10/2023 12:31:26",1697549486386,1,"17/10/2023 14:31:26",147682,3,"task-hbx7",NA,32290938,9549831,NA,"complete",NA,NA,"computer","Desktop or Laptop","Windows 10","Firefox 118.0","2560x1440","2560x1279",NA,NA,0,"Task Introduction and Instructions (Clone)",9,"ABJCIDHEGF","Passed AC2",NA,"Spreadsheet1",1,"Task Instructions","Screen 9","8nvnao",4,"continue","",2750.4,2735.22,2750.4,2750.4,2735.22,2750.4,1,2750.4,0,0,NA,"Click To Continue","Continue Button",2,"object-44","Task Instructions",NA,"SUPPRF96180"
"6",1697545886389,"17/10/2023 12:31:26",1697549486389,1,"17/10/2023 14:31:26",147682,3,"task-hbx7",NA,32290938,9549831,NA,"complete",NA,NA,"computer","Desktop or Laptop","Windows 10","Firefox 118.0","2560x1440","2560x1279",NA,NA,0,"Task Introduction and Instructions (Clone)",9,"ABJCIDHEGF","Passed AC2",NA,"Spreadsheet1",NA,"","","",NA,"5","END",NA,NA,NA,NA,NA,NA,0,NA,NA,NA,NA,"","",NA,"","",NA,"SUPPRF96180"
"1",1697546429043,"17/10/2023 12:40:29",1697550029043,1,"17/10/2023 14:40:29",147682,3,"task-hbx7",NA,32291213,9549844,NA,"complete",NA,NA,"computer","Desktop or Laptop","Windows 10","Chrome 118.0.0.0","1920x1080","1920x955",NA,NA,0,"Task Introduction and Instructions (Clone)",9,"BCADJEIFHG","Passed AC2",NA,"Spreadsheet1",NA,"","","",NA,"5","BEGIN",NA,NA,NA,NA,NA,NA,0,NA,NA,NA,NA,"","",NA,"","",NA,"SUPPRF31218"
"2",1697546433245,"17/10/2023 12:40:33",1697550033245,1,"17/10/2023 14:40:33",147682,3,"task-hbx7",NA,32291213,9549844,NA,"complete",NA,NA,"computer","Desktop or Laptop","Windows 10","Chrome 118.0.0.0","1920x1080","1920x955",NA,NA,0,"Task Introduction and Instructions (Clone)",9,"BCADJEIFHG","Passed AC2",NA,"Spreadsheet1",1,"Task Instructions","Screen 1","anr7sn",1,"continue","",4120.74500002384,4118,4120.74500002384,4120.74500002384,4118,4120.74500002384,1,4120.74500002384,0,0,NA,"Click To Continue","Continue Button",2,"object-1944","Task Instructions",NA,"SUPPRF31218"
"3",1697546437784,"17/10/2023 12:40:37",1697550037784,1,"17/10/2023 14:40:37",147682,3,"task-hbx7",NA,32291213,9549844,NA,"complete",NA,NA,"computer","Desktop or Laptop","Windows 10","Chrome 118.0.0.0","1920x1080","1920x955",NA,NA,0,"Task Introduction and Instructions (Clone)",9,"BCADJEIFHG","Passed AC2",NA,"Spreadsheet1",1,"Task Instructions","Screen 2","ce2tc8",2,"continue","",4541.354,4534.411,4541.354,4541.354,4534.411,4541.354,1,4541.354,0,0,NA,"Click To Continue","Continue Button",2,"object-7","Task Instructions",NA,"SUPPRF31218"
"4",1697546483888,"17/10/2023 12:41:23",1697550083888,1,"17/10/2023 14:41:23",147682,3,"task-hbx7",NA,32291213,9549844,NA,"complete",NA,NA,"computer","Desktop or Laptop","Windows 10","Chrome 118.0.0.0","1920x1080","1920x955",NA,NA,0,"Task Introduction and Instructions (Clone)",9,"BCADJEIFHG","Passed AC2",NA,"Spreadsheet1",1,"Task Instructions","Screen 5","spepx9",3,"continue","",46111.4339999881,46104.64,46111.4339999881,46111.4339999881,46104.64,46111.4339999881,1,46111.4339999881,0,0,NA,"Click To Continue","Continue Button",2,"object-9","Task Instructions",NA,"SUPPRF31218"
"5",1697546518357,"17/10/2023 12:41:58",1697550118357,1,"17/10/2023 14:41:58",147682,3,"task-hbx7",NA,32291213,9549844,NA,"complete",NA,NA,"computer","Desktop or Laptop","Windows 10","Chrome 118.0.0.0","1920x1080","1920x955",NA,NA,0,"Task Introduction and Instructions (Clone)",9,"BCADJEIFHG","Passed AC2",NA,"Spreadsheet1",1,"Task Instructions","Screen 9","8nvnao",4,"continue","",34475.3940000119,34472.231,34475.3940000119,34475.3940000119,34472.231,34475.3940000119,1,34475.3940000119,0,0,NA,"Click To Continue","Continue Button",2,"object-44","Task Instructions",NA,"SUPPRF31218"
"6",1697546518360,"17/10/2023 12:41:58",1697550118360,1,"17/10/2023 14:41:58",147682,3,"task-hbx7",NA,32291213,9549844,NA,"complete",NA,NA,"computer","Desktop or Laptop","Windows 10","Chrome 118.0.0.0","1920x1080","1920x955",NA,NA,0,"Task Introduction and Instructions (Clone)",9,"BCADJEIFHG","Passed AC2",NA,"Spreadsheet1",NA,"","","",NA,"5","END",NA,NA,NA,NA,NA,NA,0,NA,NA,NA,NA,"","",NA,"","",NA,"SUPPRF31218"
"1",1697547143543,"17/10/2023 12:52:23",1697550743543,1,"17/10/2023 14:52:23",147682,3,"task-hbx7",NA,32292185,9550140,NA,"complete",NA,NA,"computer","Desktop or Laptop","Windows 10","Chrome 117.0.0.0","1536x864","1536x739",NA,NA,0,"Task Introduction and Instructions (Clone)",9,"GHFIEJDACB","Passed AC2",NA,"Spreadsheet1",NA,"","","",NA,"5","BEGIN",NA,NA,NA,NA,NA,NA,0,NA,NA,NA,NA,"","",NA,"","",NA,"SUPPRF75168"
"2",1697547246862,"17/10/2023 12:54:06",1697550846862,1,"17/10/2023 14:54:06",147682,3,"task-hbx7",NA,32292185,9550140,NA,"complete",NA,NA,"computer","Desktop or Laptop","Windows 10","Chrome 117.0.0.0","1536x864","1536x739",NA,NA,0,"Task Introduction and Instructions (Clone)",9,"GHFIEJDACB","Passed AC2",NA,"Spreadsheet1",1,"Task Instructions","Screen 1","anr7sn",1,"continue","",103264.978000012,103259.942,103264.978000012,103264.978000012,103259.942,103264.978000012,1,103264.978000012,0,0,NA,"Click To Continue","Continue Button",2,"object-1944","Task Instructions",NA,"SUPPRF75168"
"3",1697547251728,"17/10/2023 12:54:11",1697550851728,1,"17/10/2023 14:54:11",147682,3,"task-hbx7",NA,32292185,9550140,NA,"complete",NA,NA,"computer","Desktop or Laptop","Windows 10","Chrome 117.0.0.0","1536x864","1536x739",NA,NA,0,"Task Introduction and Instructions (Clone)",9,"GHFIEJDACB","Passed AC2",NA,"Spreadsheet1",1,"Task Instructions","Screen 2","ce2tc8",2,"continue","",4871.63600003577,4864.023,4871.63600003577,4871.63600003577,4864.023,4871.63600003577,1,4871.63600003577,0,0,NA,"Click To Continue","Continue Button",2,"object-7","Task Instructions",NA,"SUPPRF75168"
"4",1697547256626,"17/10/2023 12:54:16",1697550856626,1,"17/10/2023 14:54:16",147682,3,"task-hbx7",NA,32292185,9550140,NA,"complete",NA,NA,"computer","Desktop or Laptop","Windows 10","Chrome 117.0.0.0","1536x864","1536x739",NA,NA,0,"Task Introduction and Instructions (Clone)",9,"GHFIEJDACB","Passed AC2",NA,"Spreadsheet1",1,"Task Instructions","Screen 5","spepx9",3,"continue","",4905.81300002385,4897.24500000001,4905.81300002385,4905.81300002385,4897.24500000001,4905.81300002385,1,4905.81300002385,0,0,NA,"Click To Continue","Continue Button",2,"object-9","Task Instructions",NA,"SUPPRF75168"
"5",1697547259603,"17/10/2023 12:54:19",1697550859603,1,"17/10/2023 14:54:19",147682,3,"task-hbx7",NA,32292185,9550140,NA,"complete",NA,NA,"computer","Desktop or Laptop","Windows 10","Chrome 117.0.0.0","1536x864","1536x739",NA,NA,0,"Task Introduction and Instructions (Clone)",9,"GHFIEJDACB","Passed AC2",NA,"Spreadsheet1",1,"Task Instructions","Screen 9","8nvnao",4,"continue","",2982.053,2965.386,2982.053,2982.053,2965.386,2982.053,1,2982.053,0,0,NA,"Click To Continue","Continue Button",2,"object-44","Task Instructions",NA,"SUPPRF75168"
"6",1697547259608,"17/10/2023 12:54:19",1697550859608,1,"17/10/2023 14:54:19",147682,3,"task-hbx7",NA,32292185,9550140,NA,"complete",NA,NA,"computer","Desktop or Laptop","Windows 10","Chrome 117.0.0.0","1536x864","1536x739",NA,NA,0,"Task Introduction and Instructions (Clone)",9,"GHFIEJDACB","Passed AC2",NA,"Spreadsheet1",NA,"","","",NA,"5","END",NA,NA,NA,NA,NA,NA,0,NA,NA,NA,NA,"","",NA,"","",NA,"SUPPRF75168"
"1",1697547199792,"17/10/2023 12:53:19",1697550799792,1,"17/10/2023 14:53:19",147682,3,"task-hbx7",NA,32292216,9550001,NA,"complete",NA,NA,"computer","Desktop or Laptop","Windows 10","Edge 117.0.2045.31","1280x720","1272x598",NA,NA,0,"Task Introduction and Instructions (Clone)",9,"FGEHDICJBA","Passed AC2",NA,"Spreadsheet1",NA,"","","",NA,"5","BEGIN",NA,NA,NA,NA,NA,NA,0,NA,NA,NA,NA,"","",NA,"","",NA,"SUPPRF66122"
"2",1697547203228,"17/10/2023 12:53:23",1697550803228,1,"17/10/2023 14:53:23",147682,3,"task-hbx7",NA,32292216,9550001,NA,"complete",NA,NA,"computer","Desktop or Laptop","Windows 10","Edge 117.0.2045.31","1280x720","1272x598",NA,NA,0,"Task Introduction and Instructions (Clone)",9,"FGEHDICJBA","Passed AC2",NA,"Spreadsheet1",1,"Task Instructions","Screen 1","anr7sn",1,"continue","",3325.80199995232,3313.125,3325.80199995232,3325.80199995232,3313.125,3325.80199995232,1,3325.80199995232,0,0,NA,"Click To Continue","Continue Button",2,"object-1944","Task Instructions",NA,"SUPPRF66122"
"3",1697547210557,"17/10/2023 12:53:30",1697550810557,1,"17/10/2023 14:53:30",147682,3,"task-hbx7",NA,32292216,9550001,NA,"complete",NA,NA,"computer","Desktop or Laptop","Windows 10","Edge 117.0.2045.31","1280x720","1272x598",NA,NA,0,"Task Introduction and Instructions (Clone)",9,"FGEHDICJBA","Passed AC2",NA,"Spreadsheet1",1,"Task Instructions","Screen 2","ce2tc8",2,"continue","",7342.07699980927,7327.482,7342.07699980927,7342.07699980927,7327.482,7342.07699980927,1,7342.07699980927,0,0,NA,"Click To Continue","Continue Button",2,"object-7","Task Instructions",NA,"SUPPRF66122"
"4",1697547213220,"17/10/2023 12:53:33",1697550813220,1,"17/10/2023 14:53:33",147682,3,"task-hbx7",NA,32292216,9550001,NA,"complete",NA,NA,"computer","Desktop or Laptop","Windows 10","Edge 117.0.2045.31","1280x720","1272x598",NA,NA,0,"Task Introduction and Instructions (Clone)",9,"FGEHDICJBA","Passed AC2",NA,"Spreadsheet1",1,"Task Instructions","Screen 5","spepx9",3,"continue","",2677.59499980927,2664.508,2677.59499980927,2677.59499980927,2664.508,2677.59499980927,1,2677.59499980927,0,0,NA,"Click To Continue","Continue Button",2,"object-9","Task Instructions",NA,"SUPPRF66122"
"5",1697547215631,"17/10/2023 12:53:35",1697550815631,1,"17/10/2023 14:53:35",147682,3,"task-hbx7",NA,32292216,9550001,NA,"complete",NA,NA,"computer","Desktop or Laptop","Windows 10","Edge 117.0.2045.31","1280x720","1272x598",NA,NA,0,"Task Introduction and Instructions (Clone)",9,"FGEHDICJBA","Passed AC2",NA,"Spreadsheet1",1,"Task Instructions","Screen 9","8nvnao",4,"continue","",2424.78699985695,2414.631,2424.78699985695,2424.78699985695,2414.631,2424.78699985695,1,2424.78699985695,0,0,NA,"Click To Continue","Continue Button",2,"object-44","Task Instructions",NA,"SUPPRF66122"
"6",1697547215634,"17/10/2023 12:53:35",1697550815634,1,"17/10/2023 14:53:35",147682,3,"task-hbx7",NA,32292216,9550001,NA,"complete",NA,NA,"computer","Desktop or Laptop","Windows 10","Edge 117.0.2045.31","1280x720","1272x598",NA,NA,0,"Task Introduction and Instructions (Clone)",9,"FGEHDICJBA","Passed AC2",NA,"Spreadsheet1",NA,"","","",NA,"5","END",NA,NA,NA,NA,NA,NA,0,NA,NA,NA,NA,"","",NA,"","",NA,"SUPPRF66122"
"1",1697547653644,"17/10/2023 13:00:53",1697551253644,1,"17/10/2023 15:00:53",147682,3,"task-hbx7",NA,32292670,9550288,NA,"complete",NA,NA,"computer","Desktop or Laptop","Windows 10","Chrome 118.0.0.0","1920x1080","1920x941",NA,NA,0,"Task Introduction and Instructions (Clone)",9,"HIGJFAEBDC","Passed AC2",NA,"Spreadsheet1",NA,"","","",NA,"5","BEGIN",NA,NA,NA,NA,NA,NA,0,NA,NA,NA,NA,"","",NA,"","",NA,"SUPPRF71510"
"2",1697547656596,"17/10/2023 13:00:56",1697551256596,1,"17/10/2023 15:00:56",147682,3,"task-hbx7",NA,32292670,9550288,NA,"complete",NA,NA,"computer","Desktop or Laptop","Windows 10","Chrome 118.0.0.0","1920x1080","1920x941",NA,NA,0,"Task Introduction and Instructions (Clone)",9,"HIGJFAEBDC","Passed AC2",NA,"Spreadsheet1",1,"Task Instructions","Screen 1","anr7sn",1,"continue","",2914,2910,2914,2914,2910,2914,1,2914,0,0,NA,"Click To Continue","Continue Button",2,"object-1944","Task Instructions",NA,"SUPPRF71510"
"3",1697547659837,"17/10/2023 13:00:59",1697551259837,1,"17/10/2023 15:00:59",147682,3,"task-hbx7",NA,32292670,9550288,NA,"complete",NA,NA,"computer","Desktop or Laptop","Windows 10","Chrome 118.0.0.0","1920x1080","1920x941",NA,NA,0,"Task Introduction and Instructions (Clone)",9,"HIGJFAEBDC","Passed AC2",NA,"Spreadsheet1",1,"Task Instructions","Screen 2","ce2tc8",2,"continue","",3245,3243,3245,3245,3243,3245,1,3245,0,0,NA,"Click To Continue","Continue Button",2,"object-7","Task Instructions",NA,"SUPPRF71510"
"4",1697547663160,"17/10/2023 13:01:03",1697551263160,1,"17/10/2023 15:01:03",147682,3,"task-hbx7",NA,32292670,9550288,NA,"complete",NA,NA,"computer","Desktop or Laptop","Windows 10","Chrome 118.0.0.0","1920x1080","1920x941",NA,NA,0,"Task Introduction and Instructions (Clone)",9,"HIGJFAEBDC","Passed AC2",NA,"Spreadsheet1",1,"Task Instructions","Screen 5","spepx9",3,"continue","",3326,3320,3326,3326,3320,3326,1,3326,0,0,NA,"Click To Continue","Continue Button",2,"object-9","Task Instructions",NA,"SUPPRF71510"
"5",1697547665902,"17/10/2023 13:01:05",1697551265902,1,"17/10/2023 15:01:05",147682,3,"task-hbx7",NA,32292670,9550288,NA,"complete",NA,NA,"computer","Desktop or Laptop","Windows 10","Chrome 118.0.0.0","1920x1080","1920x941",NA,NA,0,"Task Introduction and Instructions (Clone)",9,"HIGJFAEBDC","Passed AC2",NA,"Spreadsheet1",1,"Task Instructions","Screen 9","8nvnao",4,"continue","",2748,2743,2748,2748,2743,2748,1,2748,0,0,NA,"Click To Continue","Continue Button",2,"object-44","Task Instructions",NA,"SUPPRF71510"
"6",1697547665907,"17/10/2023 13:01:05",1697551265907,1,"17/10/2023 15:01:05",147682,3,"task-hbx7",NA,32292670,9550288,NA,"complete",NA,NA,"computer","Desktop or Laptop","Windows 10","Chrome 118.0.0.0","1920x1080","1920x941",NA,NA,0,"Task Introduction and Instructions (Clone)",9,"HIGJFAEBDC","Passed AC2",NA,"Spreadsheet1",NA,"","","",NA,"5","END",NA,NA,NA,NA,NA,NA,0,NA,NA,NA,NA,"","",NA,"","",NA,"SUPPRF71510"
"1",1697566110951,"17/10/2023 18:08:30",1697551710951,-4,"17/10/2023 10:08:30",147682,3,"task-hbx7",NA,32293119,9550439,NA,"complete",NA,NA,"computer","Desktop or Laptop","Mac OS 10.15.7","Chrome 118.0.0.0","1440x900","1440x705",NA,NA,0,"Task Introduction and Instructions (Clone)",9,"IJHAGBFCED","Passed AC2",NA,"Spreadsheet1",NA,"","","",NA,"5","BEGIN",NA,NA,NA,NA,NA,NA,0,NA,NA,NA,NA,"","",NA,"","",NA,"SUPPRF51583"
"2",1697566114579,"17/10/2023 18:08:34",1697551714579,-4,"17/10/2023 10:08:34",147682,3,"task-hbx7",NA,32293119,9550439,NA,"complete",NA,NA,"computer","Desktop or Laptop","Mac OS 10.15.7","Chrome 118.0.0.0","1440x900","1440x705",NA,NA,0,"Task Introduction and Instructions (Clone)",9,"IJHAGBFCED","Passed AC2",NA,"Spreadsheet1",1,"Task Instructions","Screen 1","anr7sn",1,"continue","",2949.882,2933.216,2949.882,2949.882,2933.216,2949.882,1,2949.882,0,0,NA,"Click To Continue","Continue Button",2,"object-1944","Task Instructions",NA,"SUPPRF51583"
"3",1697566118408,"17/10/2023 18:08:38",1697551718408,-4,"17/10/2023 10:08:38",147682,3,"task-hbx7",NA,32293119,9550439,NA,"complete",NA,NA,"computer","Desktop or Laptop","Mac OS 10.15.7","Chrome 118.0.0.0","1440x900","1440x705",NA,NA,0,"Task Introduction and Instructions (Clone)",9,"IJHAGBFCED","Passed AC2",NA,"Spreadsheet1",1,"Task Instructions","Screen 2","ce2tc8",2,"continue","",3847.307,3833.573,3847.307,3847.307,3833.573,3847.307,1,3847.307,0,0,NA,"Click To Continue","Continue Button",2,"object-7","Task Instructions",NA,"SUPPRF51583"
"4",1697566121935,"17/10/2023 18:08:41",1697551721935,-4,"17/10/2023 10:08:41",147682,3,"task-hbx7",NA,32293119,9550439,NA,"complete",NA,NA,"computer","Desktop or Laptop","Mac OS 10.15.7","Chrome 118.0.0.0","1440x900","1440x705",NA,NA,0,"Task Introduction and Instructions (Clone)",9,"IJHAGBFCED","Passed AC2",NA,"Spreadsheet1",1,"Task Instructions","Screen 5","spepx9",3,"continue","",3540.43399992847,3533.192,3540.43399992847,3540.43399992847,3533.192,3540.43399992847,1,3540.43399992847,0,0,NA,"Click To Continue","Continue Button",2,"object-9","Task Instructions",NA,"SUPPRF51583"
"5",1697566124645,"17/10/2023 18:08:44",1697551724645,-4,"17/10/2023 10:08:44",147682,3,"task-hbx7",NA,32293119,9550439,NA,"complete",NA,NA,"computer","Desktop or Laptop","Mac OS 10.15.7","Chrome 118.0.0.0","1440x900","1440x705",NA,NA,0,"Task Introduction and Instructions (Clone)",9,"IJHAGBFCED","Passed AC2",NA,"Spreadsheet1",1,"Task Instructions","Screen 9","8nvnao",4,"continue","",2716.558,2699.892,2716.558,2716.558,2699.892,2716.558,1,2716.558,0,0,NA,"Click To Continue","Continue Button",2,"object-44","Task Instructions",NA,"SUPPRF51583"
"6",1697566124651,"17/10/2023 18:08:44",1697551724651,-4,"17/10/2023 10:08:44",147682,3,"task-hbx7",NA,32293119,9550439,NA,"complete",NA,NA,"computer","Desktop or Laptop","Mac OS 10.15.7","Chrome 118.0.0.0","1440x900","1440x705",NA,NA,0,"Task Introduction and Instructions (Clone)",9,"IJHAGBFCED","Passed AC2",NA,"Spreadsheet1",NA,"","","",NA,"5","END",NA,NA,NA,NA,NA,NA,0,NA,NA,NA,NA,"","",NA,"","",NA,"SUPPRF51583"
"1",1697566952017,"17/10/2023 18:22:32",1697552552017,-4,"17/10/2023 10:22:32",147682,3,"task-hbx7",NA,32293826,9550543,NA,"complete",NA,NA,"computer","Desktop or Laptop","Mac OS 10.15.7","Chrome 117.0.0.0","1440x900","1440x733",NA,NA,0,"Task Introduction and Instructions (Clone)",9,"ABJCIDHEGF","Passed AC2",NA,"Spreadsheet1",NA,"","","",NA,"5","BEGIN",NA,NA,NA,NA,NA,NA,0,NA,NA,NA,NA,"","",NA,"","",NA,"SUPPRF16716"
"2",1697567084933,"17/10/2023 18:24:44",1697552684933,-4,"17/10/2023 10:24:44",147682,3,"task-hbx7",NA,32293826,9550543,NA,"complete",NA,NA,"computer","Desktop or Laptop","Mac OS 10.15.7","Chrome 117.0.0.0","1440x900","1440x733",NA,NA,0,"Task Introduction and Instructions (Clone)",9,"ABJCIDHEGF","Passed AC2",NA,"Spreadsheet1",1,"Task Instructions","Screen 1","anr7sn",1,"continue","",132421.654,132404.985,132421.654,132421.654,132404.985,132421.654,1,132421.654,0,0,NA,"Click To Continue","Continue Button",2,"object-1944","Task Instructions",NA,"SUPPRF16716"
"3",1697567090217,"17/10/2023 18:24:50",1697552690217,-4,"17/10/2023 10:24:50",147682,3,"task-hbx7",NA,32293826,9550543,NA,"complete",NA,NA,"computer","Desktop or Laptop","Mac OS 10.15.7","Chrome 117.0.0.0","1440x900","1440x733",NA,NA,0,"Task Introduction and Instructions (Clone)",9,"ABJCIDHEGF","Passed AC2",NA,"Spreadsheet1",1,"Task Instructions","Screen 2","ce2tc8",2,"continue","",5300.742,5284.073,5300.742,5300.742,5284.073,5300.742,1,5300.742,0,0,NA,"Click To Continue","Continue Button",2,"object-7","Task Instructions",NA,"SUPPRF16716"
"4",1697567093317,"17/10/2023 18:24:53",1697552693317,-4,"17/10/2023 10:24:53",147682,3,"task-hbx7",NA,32293826,9550543,NA,"complete",NA,NA,"computer","Desktop or Laptop","Mac OS 10.15.7","Chrome 117.0.0.0","1440x900","1440x733",NA,NA,0,"Task Introduction and Instructions (Clone)",9,"ABJCIDHEGF","Passed AC2",NA,"Spreadsheet1",1,"Task Instructions","Screen 5","spepx9",3,"continue","",3117.103,3100.43400000001,3117.103,3117.103,3100.43400000001,3117.103,1,3117.103,0,0,NA,"Click To Continue","Continue Button",2,"object-9","Task Instructions",NA,"SUPPRF16716"
"5",1697567095584,"17/10/2023 18:24:55",1697552695584,-4,"17/10/2023 10:24:55",147682,3,"task-hbx7",NA,32293826,9550543,NA,"complete",NA,NA,"computer","Desktop or Laptop","Mac OS 10.15.7","Chrome 117.0.0.0","1440x900","1440x733",NA,NA,0,"Task Introduction and Instructions (Clone)",9,"ABJCIDHEGF","Passed AC2",NA,"Spreadsheet1",1,"Task Instructions","Screen 9","8nvnao",4,"continue","",2283.87599999999,2267.20699999999,2283.87599999999,2283.87599999999,2267.20699999999,2283.87599999999,1,2283.87599999999,0,0,NA,"Click To Continue","Continue Button",2,"object-44","Task Instructions",NA,"SUPPRF16716"
"6",1697567095588,"17/10/2023 18:24:55",1697552695588,-4,"17/10/2023 10:24:55",147682,3,"task-hbx7",NA,32293826,9550543,NA,"complete",NA,NA,"computer","Desktop or Laptop","Mac OS 10.15.7","Chrome 117.0.0.0","1440x900","1440x733",NA,NA,0,"Task Introduction and Instructions (Clone)",9,"ABJCIDHEGF","Passed AC2",NA,"Spreadsheet1",NA,"","","",NA,"5","END",NA,NA,NA,NA,NA,NA,0,NA,NA,NA,NA,"","",NA,"","",NA,"SUPPRF16716"
"1",1697577120216,"17/10/2023 21:12:00",1697562720216,-4,"17/10/2023 13:12:00",147682,3,"task-hbx7",NA,32307092,9553290,NA,"rejected - time limit reached",NA,NA,"computer","Desktop or Laptop","Windows 10","Chrome 117.0.0.0","1280x720","1280x610",NA,NA,0,"Task Introduction and Instructions (Clone)",9,"DECFBGAHJI","Passed AC2",NA,"Spreadsheet1",NA,"","","",NA,"5","BEGIN",NA,NA,NA,NA,NA,NA,0,NA,NA,NA,NA,"","",NA,"","",NA,"SUPPRF34589"
"2",1697577123524,"17/10/2023 21:12:03",1697562723524,-4,"17/10/2023 13:12:03",147682,3,"task-hbx7",NA,32307092,9553290,NA,"rejected - time limit reached",NA,NA,"computer","Desktop or Laptop","Windows 10","Chrome 117.0.0.0","1280x720","1280x610",NA,NA,0,"Task Introduction and Instructions (Clone)",9,"DECFBGAHJI","Passed AC2",NA,"Spreadsheet1",1,"Task Instructions","Screen 1","anr7sn",1,"continue","",3102.19600001192,3099.975,3102.19600001192,3102.19600001192,3099.975,3102.19600001192,1,3102.19600001192,0,0,NA,"Click To Continue","Continue Button",2,"object-1944","Task Instructions",NA,"SUPPRF34589"
"3",1697577128735,"17/10/2023 21:12:08",1697562728735,-4,"17/10/2023 13:12:08",147682,3,"task-hbx7",NA,32307092,9553290,NA,"rejected - time limit reached",NA,NA,"computer","Desktop or Laptop","Windows 10","Chrome 117.0.0.0","1280x720","1280x610",NA,NA,0,"Task Introduction and Instructions (Clone)",9,"DECFBGAHJI","Passed AC2",NA,"Spreadsheet1",1,"Task Instructions","Screen 2","ce2tc8",2,"continue","",5213.22100001192,5199.973,5213.22100001192,5213.22100001192,5199.973,5213.22100001192,1,5213.22100001192,0,0,NA,"Click To Continue","Continue Button",2,"object-7","Task Instructions",NA,"SUPPRF34589"
"4",1697577131832,"17/10/2023 21:12:11",1697562731832,-4,"17/10/2023 13:12:11",147682,3,"task-hbx7",NA,32307092,9553290,NA,"rejected - time limit reached",NA,NA,"computer","Desktop or Laptop","Windows 10","Chrome 117.0.0.0","1280x720","1280x610",NA,NA,0,"Task Introduction and Instructions (Clone)",9,"DECFBGAHJI","Passed AC2",NA,"Spreadsheet1",1,"Task Instructions","Screen 5","spepx9",3,"continue","",3110.04799996424,3099.878,3110.04799996424,3110.04799996424,3099.878,3110.04799996424,1,3110.04799996424,0,0,NA,"Click To Continue","Continue Button",2,"object-9","Task Instructions",NA,"SUPPRF34589"
"5",1697577134439,"17/10/2023 21:12:14",1697562734439,-4,"17/10/2023 13:12:14",147682,3,"task-hbx7",NA,32307092,9553290,NA,"rejected - time limit reached",NA,NA,"computer","Desktop or Laptop","Windows 10","Chrome 117.0.0.0","1280x720","1280x610",NA,NA,0,"Task Introduction and Instructions (Clone)",9,"DECFBGAHJI","Passed AC2",NA,"Spreadsheet1",1,"Task Instructions","Screen 9","8nvnao",4,"continue","",2616.586,2599.934,2616.586,2616.586,2599.934,2616.586,1,2616.586,0,0,NA,"Click To Continue","Continue Button",2,"object-44","Task Instructions",NA,"SUPPRF34589"
"6",1697577134443,"17/10/2023 21:12:14",1697562734443,-4,"17/10/2023 13:12:14",147682,3,"task-hbx7",NA,32307092,9553290,NA,"rejected - time limit reached",NA,NA,"computer","Desktop or Laptop","Windows 10","Chrome 117.0.0.0","1280x720","1280x610",NA,NA,0,"Task Introduction and Instructions (Clone)",9,"DECFBGAHJI","Passed AC2",NA,"Spreadsheet1",NA,"","","",NA,"5","END",NA,NA,NA,NA,NA,NA,0,NA,NA,NA,NA,"","",NA,"","",NA,"SUPPRF34589"
"1",1697560726917,"17/10/2023 16:38:46",1697564326917,1,"17/10/2023 18:38:46",147682,3,"task-hbx7",NA,32310747,9554018,NA,"rejected - time limit reached",NA,NA,"computer","Desktop or Laptop","Windows 10","Chrome 117.0.0.0","1280x720","1280x563",NA,NA,0,"Task Introduction and Instructions (Clone)",9,"EFDGCHBIAJ","Passed AC2",NA,"Spreadsheet1",NA,"","","",NA,"5","BEGIN",NA,NA,NA,NA,NA,NA,0,NA,NA,NA,NA,"","",NA,"","",NA,"SUPPRF08202"
"2",1697560730383,"17/10/2023 16:38:50",1697564330383,1,"17/10/2023 18:38:50",147682,3,"task-hbx7",NA,32310747,9554018,NA,"rejected - time limit reached",NA,NA,"computer","Desktop or Laptop","Windows 10","Chrome 117.0.0.0","1280x720","1280x563",NA,NA,0,"Task Introduction and Instructions (Clone)",9,"EFDGCHBIAJ","Passed AC2",NA,"Spreadsheet1",1,"Task Instructions","Screen 1","anr7sn",1,"continue","",3412.625,3399.917,3412.625,3412.625,3399.917,3412.625,1,3412.625,0,0,NA,"Click To Continue","Continue Button",2,"object-1944","Task Instructions",NA,"SUPPRF08202"
"3",1697560736818,"17/10/2023 16:38:56",1697564336818,1,"17/10/2023 18:38:56",147682,3,"task-hbx7",NA,32310747,9554018,NA,"rejected - time limit reached",NA,NA,"computer","Desktop or Laptop","Windows 10","Chrome 117.0.0.0","1280x720","1280x563",NA,NA,0,"Task Introduction and Instructions (Clone)",9,"EFDGCHBIAJ","Passed AC2",NA,"Spreadsheet1",1,"Task Instructions","Screen 2","ce2tc8",2,"continue","",6447.60799997616,6433.028,6447.60799997616,6447.60799997616,6433.028,6447.60799997616,1,6447.60799997616,0,0,NA,"Click To Continue","Continue Button",2,"object-7","Task Instructions",NA,"SUPPRF08202"
"4",1697560739840,"17/10/2023 16:38:59",1697564339840,1,"17/10/2023 18:38:59",147682,3,"task-hbx7",NA,32310747,9554018,NA,"rejected - time limit reached",NA,NA,"computer","Desktop or Laptop","Windows 10","Chrome 117.0.0.0","1280x720","1280x563",NA,NA,0,"Task Introduction and Instructions (Clone)",9,"EFDGCHBIAJ","Passed AC2",NA,"Spreadsheet1",1,"Task Instructions","Screen 5","spepx9",3,"continue","",3036.78000002384,3033.362,3036.78000002384,3036.78000002384,3033.362,3036.78000002384,1,3036.78000002384,0,0,NA,"Click To Continue","Continue Button",2,"object-9","Task Instructions",NA,"SUPPRF08202"
"5",1697560742779,"17/10/2023 16:39:02",1697564342779,1,"17/10/2023 18:39:02",147682,3,"task-hbx7",NA,32310747,9554018,NA,"rejected - time limit reached",NA,NA,"computer","Desktop or Laptop","Windows 10","Chrome 117.0.0.0","1280x720","1280x563",NA,NA,0,"Task Introduction and Instructions (Clone)",9,"EFDGCHBIAJ","Passed AC2",NA,"Spreadsheet1",1,"Task Instructions","Screen 9","8nvnao",4,"continue","",2942.71799997616,2932.804,2942.71799997616,2942.71799997616,2932.804,2942.71799997616,1,2942.71799997616,0,0,NA,"Click To Continue","Continue Button",2,"object-44","Task Instructions",NA,"SUPPRF08202"
"6",1697560742782,"17/10/2023 16:39:02",1697564342782,1,"17/10/2023 18:39:02",147682,3,"task-hbx7",NA,32310747,9554018,NA,"rejected - time limit reached",NA,NA,"computer","Desktop or Laptop","Windows 10","Chrome 117.0.0.0","1280x720","1280x563",NA,NA,0,"Task Introduction and Instructions (Clone)",9,"EFDGCHBIAJ","Passed AC2",NA,"Spreadsheet1",NA,"","","",NA,"5","END",NA,NA,NA,NA,NA,NA,0,NA,NA,NA,NA,"","",NA,"","",NA,"SUPPRF08202"
"1",1697563743611,"17/10/2023 17:29:03",1697567343611,1,"17/10/2023 19:29:03",147682,3,"task-hbx7",NA,32313210,9554768,NA,"complete",NA,NA,"computer","Desktop or Laptop","Mac OS 10.15.7","Chrome 116.0.0.0","1440x900","1440x815",NA,NA,0,"Task Introduction and Instructions (Clone)",9,"FGEHDICJBA","Passed AC2",NA,"Spreadsheet1",NA,"","","",NA,"5","BEGIN",NA,NA,NA,NA,NA,NA,0,NA,NA,NA,NA,"","",NA,"","",NA,"SUPPRF98941"
"2",1697563746863,"17/10/2023 17:29:06",1697567346863,1,"17/10/2023 19:29:06",147682,3,"task-hbx7",NA,32313210,9554768,NA,"complete",NA,NA,"computer","Desktop or Laptop","Mac OS 10.15.7","Chrome 116.0.0.0","1440x900","1440x815",NA,NA,0,"Task Introduction and Instructions (Clone)",9,"FGEHDICJBA","Passed AC2",NA,"Spreadsheet1",1,"Task Instructions","Screen 1","anr7sn",1,"continue","",3207.63199998808,3200.064,3207.63199998808,3207.63199998808,3200.064,3207.63199998808,1,3207.63199998808,0,0,NA,"Click To Continue","Continue Button",2,"object-1944","Task Instructions",NA,"SUPPRF98941"
"3",1697563752183,"17/10/2023 17:29:12",1697567352183,1,"17/10/2023 19:29:12",147682,3,"task-hbx7",NA,32313210,9554768,NA,"complete",NA,NA,"computer","Desktop or Laptop","Mac OS 10.15.7","Chrome 116.0.0.0","1440x900","1440x815",NA,NA,0,"Task Introduction and Instructions (Clone)",9,"FGEHDICJBA","Passed AC2",NA,"Spreadsheet1",1,"Task Instructions","Screen 2","ce2tc8",2,"continue","",5327.76799997616,5317.265,5327.76799997616,5327.76799997616,5317.265,5327.76799997616,1,5327.76799997616,0,0,NA,"Click To Continue","Continue Button",2,"object-7","Task Instructions",NA,"SUPPRF98941"
"4",1697563754927,"17/10/2023 17:29:14",1697567354927,1,"17/10/2023 19:29:14",147682,3,"task-hbx7",NA,32313210,9554768,NA,"complete",NA,NA,"computer","Desktop or Laptop","Mac OS 10.15.7","Chrome 116.0.0.0","1440x900","1440x815",NA,NA,0,"Task Introduction and Instructions (Clone)",9,"FGEHDICJBA","Passed AC2",NA,"Spreadsheet1",1,"Task Instructions","Screen 5","spepx9",3,"continue","",2755.30299998808,2750.055,2755.30299998808,2755.30299998808,2750.055,2755.30299998808,1,2755.30299998808,0,0,NA,"Click To Continue","Continue Button",2,"object-9","Task Instructions",NA,"SUPPRF98941"
"5",1697563757322,"17/10/2023 17:29:17",1697567357322,1,"17/10/2023 19:29:17",147682,3,"task-hbx7",NA,32313210,9554768,NA,"complete",NA,NA,"computer","Desktop or Laptop","Mac OS 10.15.7","Chrome 116.0.0.0","1440x900","1440x815",NA,NA,0,"Task Introduction and Instructions (Clone)",9,"FGEHDICJBA","Passed AC2",NA,"Spreadsheet1",1,"Task Instructions","Screen 9","8nvnao",4,"continue","",2400.048,2383.381,2400.048,2400.048,2383.381,2400.048,1,2400.048,0,0,NA,"Click To Continue","Continue Button",2,"object-44","Task Instructions",NA,"SUPPRF98941"
"6",1697563757325,"17/10/2023 17:29:17",1697567357325,1,"17/10/2023 19:29:17",147682,3,"task-hbx7",NA,32313210,9554768,NA,"complete",NA,NA,"computer","Desktop or Laptop","Mac OS 10.15.7","Chrome 116.0.0.0","1440x900","1440x815",NA,NA,0,"Task Introduction and Instructions (Clone)",9,"FGEHDICJBA","Passed AC2",NA,"Spreadsheet1",NA,"","","",NA,"5","END",NA,NA,NA,NA,NA,NA,0,NA,NA,NA,NA,"","",NA,"","",NA,"SUPPRF98941"
"1",1697565617025,"17/10/2023 18:00:17",1697569217025,1,"17/10/2023 20:00:17",147682,3,"task-hbx7",NA,32314382,9555080,NA,"complete",NA,NA,"computer","Desktop or Laptop","Mac OS 10.15.7","Safari 15.4","1440x900","1440x820",NA,NA,0,"Task Introduction and Instructions (Clone)",9,"GHFIEJDACB","Passed AC2",NA,"Spreadsheet1",NA,"","","",NA,"5","BEGIN",NA,NA,NA,NA,NA,NA,0,NA,NA,NA,NA,"","",NA,"","",NA,"SUPPRF73880"
"2",1697565620954,"17/10/2023 18:00:20",1697569220954,1,"17/10/2023 20:00:20",147682,3,"task-hbx7",NA,32314382,9555080,NA,"complete",NA,NA,"computer","Desktop or Laptop","Mac OS 10.15.7","Safari 15.4","1440x900","1440x820",NA,NA,0,"Task Introduction and Instructions (Clone)",9,"GHFIEJDACB","Passed AC2",NA,"Spreadsheet1",1,"Task Instructions","Screen 1","anr7sn",1,"continue","",3681,3664,3681,3681,3664,3681,1,3681,0,0,NA,"Click To Continue","Continue Button",2,"object-1944","Task Instructions",NA,"SUPPRF73880"
"3",1697565628650,"17/10/2023 18:00:28",1697569228650,1,"17/10/2023 20:00:28",147682,3,"task-hbx7",NA,32314382,9555080,NA,"complete",NA,NA,"computer","Desktop or Laptop","Mac OS 10.15.7","Safari 15.4","1440x900","1440x820",NA,NA,0,"Task Introduction and Instructions (Clone)",9,"GHFIEJDACB","Passed AC2",NA,"Spreadsheet1",1,"Task Instructions","Screen 2","ce2tc8",2,"continue","",7747,7729,7747,7747,7729,7747,1,7747,0,0,NA,"Click To Continue","Continue Button",2,"object-7","Task Instructions",NA,"SUPPRF73880"
"4",1697565631502,"17/10/2023 18:00:31",1697569231502,1,"17/10/2023 20:00:31",147682,3,"task-hbx7",NA,32314382,9555080,NA,"complete",NA,NA,"computer","Desktop or Laptop","Mac OS 10.15.7","Safari 15.4","1440x900","1440x820",NA,NA,0,"Task Introduction and Instructions (Clone)",9,"GHFIEJDACB","Passed AC2",NA,"Spreadsheet1",1,"Task Instructions","Screen 5","spepx9",3,"continue","",2881,2865,2881,2881,2865,2881,1,2881,0,0,NA,"Click To Continue","Continue Button",2,"object-9","Task Instructions",NA,"SUPPRF73880"
"5",1697565634215,"17/10/2023 18:00:34",1697569234215,1,"17/10/2023 20:00:34",147682,3,"task-hbx7",NA,32314382,9555080,NA,"complete",NA,NA,"computer","Desktop or Laptop","Mac OS 10.15.7","Safari 15.4","1440x900","1440x820",NA,NA,0,"Task Introduction and Instructions (Clone)",9,"GHFIEJDACB","Passed AC2",NA,"Spreadsheet1",1,"Task Instructions","Screen 9","8nvnao",4,"continue","",2714,2697,2714,2714,2697,2714,1,2714,0,0,NA,"Click To Continue","Continue Button",2,"object-44","Task Instructions",NA,"SUPPRF73880"
"6",1697565634218,"17/10/2023 18:00:34",1697569234218,1,"17/10/2023 20:00:34",147682,3,"task-hbx7",NA,32314382,9555080,NA,"complete",NA,NA,"computer","Desktop or Laptop","Mac OS 10.15.7","Safari 15.4","1440x900","1440x820",NA,NA,0,"Task Introduction and Instructions (Clone)",9,"GHFIEJDACB","Passed AC2",NA,"Spreadsheet1",NA,"","","",NA,"5","END",NA,NA,NA,NA,NA,NA,0,NA,NA,NA,NA,"","",NA,"","",NA,"SUPPRF73880"
"1",1697565760857,"17/10/2023 18:02:40",1697569360857,1,"17/10/2023 20:02:40",147682,3,"task-hbx7",NA,32314475,9555131,NA,"complete",NA,NA,"computer","Desktop or Laptop","Windows 10","Chrome 118.0.0.0","1536x864","1536x707",NA,NA,0,"Task Introduction and Instructions (Clone)",9,"HIGJFAEBDC","Passed AC2",NA,"Spreadsheet1",NA,"","","",NA,"5","BEGIN",NA,NA,NA,NA,NA,NA,0,NA,NA,NA,NA,"","",NA,"","",NA,"SUPPRF84507"
"2",1697565764340,"17/10/2023 18:02:44",1697569364340,1,"17/10/2023 20:02:44",147682,3,"task-hbx7",NA,32314475,9555131,NA,"complete",NA,NA,"computer","Desktop or Laptop","Windows 10","Chrome 118.0.0.0","1536x864","1536x707",NA,NA,0,"Task Introduction and Instructions (Clone)",9,"HIGJFAEBDC","Passed AC2",NA,"Spreadsheet1",1,"Task Instructions","Screen 1","anr7sn",1,"continue","",2888.01299999963,2883.123,2888.01299999963,2888.01299999963,2883.123,2888.01299999963,1,2888.01299999963,0,0,NA,"Click To Continue","Continue Button",2,"object-1944","Task Instructions",NA,"SUPPRF84507"
"3",1697565768594,"17/10/2023 18:02:48",1697569368594,1,"17/10/2023 20:02:48",147682,3,"task-hbx7",NA,32314475,9555131,NA,"complete",NA,NA,"computer","Desktop or Laptop","Windows 10","Chrome 118.0.0.0","1536x864","1536x707",NA,NA,0,"Task Introduction and Instructions (Clone)",9,"HIGJFAEBDC","Passed AC2",NA,"Spreadsheet1",1,"Task Instructions","Screen 2","ce2tc8",2,"continue","",4258.29,4249.713,4258.29,4258.29,4249.713,4258.29,1,4258.29,0,0,NA,"Click To Continue","Continue Button",2,"object-7","Task Instructions",NA,"SUPPRF84507"
"4",1697565772855,"17/10/2023 18:02:52",1697569372855,1,"17/10/2023 20:02:52",147682,3,"task-hbx7",NA,32314475,9555131,NA,"complete",NA,NA,"computer","Desktop or Laptop","Windows 10","Chrome 118.0.0.0","1536x864","1536x707",NA,NA,0,"Task Introduction and Instructions (Clone)",9,"HIGJFAEBDC","Passed AC2",NA,"Spreadsheet1",1,"Task Instructions","Screen 5","spepx9",3,"continue","",4269.67699999963,4266.378,4269.67699999963,4269.67699999963,4266.378,4269.67699999963,1,4269.67699999963,0,0,NA,"Click To Continue","Continue Button",2,"object-9","Task Instructions",NA,"SUPPRF84507"
"5",1697565775471,"17/10/2023 18:02:55",1697569375471,1,"17/10/2023 20:02:55",147682,3,"task-hbx7",NA,32314475,9555131,NA,"complete",NA,NA,"computer","Desktop or Laptop","Windows 10","Chrome 118.0.0.0","1536x864","1536x707",NA,NA,0,"Task Introduction and Instructions (Clone)",9,"HIGJFAEBDC","Passed AC2",NA,"Spreadsheet1",1,"Task Instructions","Screen 9","8nvnao",4,"continue","",2619.39899999926,2616.462,2619.39899999926,2619.39899999926,2616.462,2619.39899999926,1,2619.39899999926,0,0,NA,"Click To Continue","Continue Button",2,"object-44","Task Instructions",NA,"SUPPRF84507"
"6",1697565775476,"17/10/2023 18:02:55",1697569375476,1,"17/10/2023 20:02:55",147682,3,"task-hbx7",NA,32314475,9555131,NA,"complete",NA,NA,"computer","Desktop or Laptop","Windows 10","Chrome 118.0.0.0","1536x864","1536x707",NA,NA,0,"Task Introduction and Instructions (Clone)",9,"HIGJFAEBDC","Passed AC2",NA,"Spreadsheet1",NA,"","","",NA,"5","END",NA,NA,NA,NA,NA,NA,0,NA,NA,NA,NA,"","",NA,"","",NA,"SUPPRF84507"
"1",1697600264618,"18/10/2023 03:37:44",1697575064618,-7,"17/10/2023 13:37:44",147682,3,"task-hbx7",NA,32317284,9555828,NA,"complete",NA,NA,"computer","Desktop or Laptop","Windows 10","Edge 118.0.2088.46","1366x768","1366x768",NA,NA,0,"Task Introduction and Instructions (Clone)",9,"JAIBHCGDFE","Passed AC2",NA,"Spreadsheet1",NA,"","","",NA,"5","BEGIN",NA,NA,NA,NA,NA,NA,0,NA,NA,NA,NA,"","",NA,"","",NA,"SUPPRF62013"
"2",1697600271185,"18/10/2023 03:37:51",1697575071185,-7,"17/10/2023 13:37:51",147682,3,"task-hbx7",NA,32317284,9555828,NA,"complete",NA,NA,"computer","Desktop or Laptop","Windows 10","Edge 118.0.2088.46","1366x768","1366x768",NA,NA,0,"Task Introduction and Instructions (Clone)",9,"JAIBHCGDFE","Passed AC2",NA,"Spreadsheet1",1,"Task Instructions","Screen 1","anr7sn",1,"continue","",5682.449,5666.125,5682.449,5682.449,5666.125,5682.449,1,5682.449,0,0,NA,"Click To Continue","Continue Button",2,"object-1944","Task Instructions",NA,"SUPPRF62013"
"3",1697600278233,"18/10/2023 03:37:58",1697575078233,-7,"17/10/2023 13:37:58",147682,3,"task-hbx7",NA,32317284,9555828,NA,"complete",NA,NA,"computer","Desktop or Laptop","Windows 10","Edge 118.0.2088.46","1366x768","1366x768",NA,NA,0,"Task Introduction and Instructions (Clone)",9,"JAIBHCGDFE","Passed AC2",NA,"Spreadsheet1",1,"Task Instructions","Screen 2","ce2tc8",2,"continue","",7064.81000000894,7049.948,7064.81000000894,7064.81000000894,7049.948,7064.81000000894,1,7064.81000000894,0,0,NA,"Click To Continue","Continue Button",2,"object-7","Task Instructions",NA,"SUPPRF62013"
"4",1697600295441,"18/10/2023 03:38:15",1697575095441,-7,"17/10/2023 13:38:15",147682,3,"task-hbx7",NA,32317284,9555828,NA,"complete",NA,NA,"computer","Desktop or Laptop","Windows 10","Edge 118.0.2088.46","1366x768","1366x768",NA,NA,0,"Task Introduction and Instructions (Clone)",9,"JAIBHCGDFE","Passed AC2",NA,"Spreadsheet1",1,"Task Instructions","Screen 5","spepx9",3,"continue","",17222.662000006,17215.904,17222.662000006,17222.662000006,17215.904,17222.662000006,1,17222.662000006,0,0,NA,"Click To Continue","Continue Button",2,"object-9","Task Instructions",NA,"SUPPRF62013"
"5",1697600298165,"18/10/2023 03:38:18",1697575098165,-7,"17/10/2023 13:38:18",147682,3,"task-hbx7",NA,32317284,9555828,NA,"complete",NA,NA,"computer","Desktop or Laptop","Windows 10","Edge 118.0.2088.46","1366x768","1366x768",NA,NA,0,"Task Introduction and Instructions (Clone)",9,"JAIBHCGDFE","Passed AC2",NA,"Spreadsheet1",1,"Task Instructions","Screen 9","8nvnao",4,"continue","",2730.858,2716.685,2730.858,2730.858,2716.685,2730.858,1,2730.858,0,0,NA,"Click To Continue","Continue Button",2,"object-44","Task Instructions",NA,"SUPPRF62013"
"6",1697600298172,"18/10/2023 03:38:18",1697575098172,-7,"17/10/2023 13:38:18",147682,3,"task-hbx7",NA,32317284,9555828,NA,"complete",NA,NA,"computer","Desktop or Laptop","Windows 10","Edge 118.0.2088.46","1366x768","1366x768",NA,NA,0,"Task Introduction and Instructions (Clone)",9,"JAIBHCGDFE","Passed AC2",NA,"Spreadsheet1",NA,"","","",NA,"5","END",NA,NA,NA,NA,NA,NA,0,NA,NA,NA,NA,"","",NA,"","",NA,"SUPPRF62013"
"1",1697589644027,"18/10/2023 00:40:44",1697575244027,-4,"17/10/2023 16:40:44",147682,3,"task-hbx7",NA,32317364,9555765,NA,"complete",NA,NA,"computer","Desktop or Laptop","Windows 10","Edge 118.0.2088.46","1368x912","1360x764",NA,NA,0,"Task Introduction and Instructions (Clone)",9,"IJHAGBFCED","Passed AC2",NA,"Spreadsheet1",NA,"","","",NA,"5","BEGIN",NA,NA,NA,NA,NA,NA,0,NA,NA,NA,NA,"","",NA,"","",NA,"SUPPRF26288"
"2",1697589648236,"18/10/2023 00:40:48",1697575248236,-4,"17/10/2023 16:40:48",147682,3,"task-hbx7",NA,32317364,9555765,NA,"complete",NA,NA,"computer","Desktop or Laptop","Windows 10","Edge 118.0.2088.46","1368x912","1360x764",NA,NA,0,"Task Introduction and Instructions (Clone)",9,"IJHAGBFCED","Passed AC2",NA,"Spreadsheet1",1,"Task Instructions","Screen 1","anr7sn",1,"continue","",3735.35799999851,3719.552,3735.35799999851,3735.35799999851,3719.552,3735.35799999851,1,3735.35799999851,0,0,NA,"Click To Continue","Continue Button",2,"object-1944","Task Instructions",NA,"SUPPRF26288"
"3",1697589651346,"18/10/2023 00:40:51",1697575251346,-4,"17/10/2023 16:40:51",147682,3,"task-hbx7",NA,32317364,9555765,NA,"complete",NA,NA,"computer","Desktop or Laptop","Windows 10","Edge 118.0.2088.46","1368x912","1360x764",NA,NA,0,"Task Introduction and Instructions (Clone)",9,"IJHAGBFCED","Passed AC2",NA,"Spreadsheet1",1,"Task Instructions","Screen 2","ce2tc8",2,"continue","",3125.406,3118.334,3125.406,3125.406,3118.334,3125.406,1,3125.406,0,0,NA,"Click To Continue","Continue Button",2,"object-7","Task Instructions",NA,"SUPPRF26288"
"4",1697589660896,"18/10/2023 00:41:00",1697575260896,-4,"17/10/2023 16:41:00",147682,3,"task-hbx7",NA,32317364,9555765,NA,"complete",NA,NA,"computer","Desktop or Laptop","Windows 10","Edge 118.0.2088.46","1368x912","1360x764",NA,NA,0,"Task Introduction and Instructions (Clone)",9,"IJHAGBFCED","Passed AC2",NA,"Spreadsheet1",1,"Task Instructions","Screen 5","spepx9",3,"continue","",9556.429,9540.082,9556.429,9556.429,9540.082,9556.429,1,9556.429,0,0,NA,"Click To Continue","Continue Button",2,"object-9","Task Instructions",NA,"SUPPRF26288"
"5",1697589663471,"18/10/2023 00:41:03",1697575263471,-4,"17/10/2023 16:41:03",147682,3,"task-hbx7",NA,32317364,9555765,NA,"complete",NA,NA,"computer","Desktop or Laptop","Windows 10","Edge 118.0.2088.46","1368x912","1360x764",NA,NA,0,"Task Introduction and Instructions (Clone)",9,"IJHAGBFCED","Passed AC2",NA,"Spreadsheet1",1,"Task Instructions","Screen 9","8nvnao",4,"continue","",2592.28999999702,2585.182,2592.28999999702,2592.28999999702,2585.182,2592.28999999702,1,2592.28999999702,0,0,NA,"Click To Continue","Continue Button",2,"object-44","Task Instructions",NA,"SUPPRF26288"
"6",1697589663476,"18/10/2023 00:41:03",1697575263476,-4,"17/10/2023 16:41:03",147682,3,"task-hbx7",NA,32317364,9555765,NA,"complete",NA,NA,"computer","Desktop or Laptop","Windows 10","Edge 118.0.2088.46","1368x912","1360x764",NA,NA,0,"Task Introduction and Instructions (Clone)",9,"IJHAGBFCED","Passed AC2",NA,"Spreadsheet1",NA,"","","",NA,"5","END",NA,NA,NA,NA,NA,NA,0,NA,NA,NA,NA,"","",NA,"","",NA,"SUPPRF26288"
"1",1697571843947,"17/10/2023 19:44:03",1697575443947,1,"17/10/2023 21:44:03",147682,3,"task-hbx7",NA,32317431,9555912,NA,"complete",NA,NA,"computer","Desktop or Laptop","Windows 10","Edge 114.0.1823.79","1536x864","1482x746",NA,NA,0,"Task Introduction and Instructions (Clone)",9,"ABJCIDHEGF","Passed AC2",NA,"Spreadsheet1",NA,"","","",NA,"5","BEGIN",NA,NA,NA,NA,NA,NA,0,NA,NA,NA,NA,"","",NA,"","",NA,"SUPPRF86222"
"2",1697571878204,"17/10/2023 19:44:38",1697575478204,1,"17/10/2023 21:44:38",147682,3,"task-hbx7",NA,32317431,9555912,NA,"complete",NA,NA,"computer","Desktop or Laptop","Windows 10","Edge 114.0.1823.79","1536x864","1482x746",NA,NA,0,"Task Introduction and Instructions (Clone)",9,"ABJCIDHEGF","Passed AC2",NA,"Spreadsheet1",1,"Task Instructions","Screen 1","anr7sn",1,"continue","",34142.1290007629,34135.647,34142.1290007629,34142.1290007629,34135.647,34142.1290007629,1,34142.1290007629,0,0,NA,"Click To Continue","Continue Button",2,"object-1944","Task Instructions",NA,"SUPPRF86222"
"3",1697571883248,"17/10/2023 19:44:43",1697575483248,1,"17/10/2023 21:44:43",147682,3,"task-hbx7",NA,32317431,9555912,NA,"complete",NA,NA,"computer","Desktop or Laptop","Windows 10","Edge 114.0.1823.79","1536x864","1482x746",NA,NA,0,"Task Introduction and Instructions (Clone)",9,"ABJCIDHEGF","Passed AC2",NA,"Spreadsheet1",1,"Task Instructions","Screen 2","ce2tc8",2,"continue","",5050.08899999999,5033.675,5050.08899999999,5050.08899999999,5033.675,5050.08899999999,1,5050.08899999999,0,0,NA,"Click To Continue","Continue Button",2,"object-7","Task Instructions",NA,"SUPPRF86222"
"4",1697571887012,"17/10/2023 19:44:47",1697575487012,1,"17/10/2023 21:44:47",147682,3,"task-hbx7",NA,32317431,9555912,NA,"complete",NA,NA,"computer","Desktop or Laptop","Windows 10","Edge 114.0.1823.79","1536x864","1482x746",NA,NA,0,"Task Introduction and Instructions (Clone)",9,"ABJCIDHEGF","Passed AC2",NA,"Spreadsheet1",1,"Task Instructions","Screen 5","spepx9",3,"continue","",3781.30700076294,3766.97,3781.30700076294,3781.30700076294,3766.97,3781.30700076294,1,3781.30700076294,0,0,NA,"Click To Continue","Continue Button",2,"object-9","Task Instructions",NA,"SUPPRF86222"
"5",1697571890038,"17/10/2023 19:44:50",1697575490038,1,"17/10/2023 21:44:50",147682,3,"task-hbx7",NA,32317431,9555912,NA,"complete",NA,NA,"computer","Desktop or Laptop","Windows 10","Edge 114.0.1823.79","1536x864","1482x746",NA,NA,0,"Task Introduction and Instructions (Clone)",9,"ABJCIDHEGF","Passed AC2",NA,"Spreadsheet1",1,"Task Instructions","Screen 9","8nvnao",4,"continue","",3040.137,3033.802,3040.137,3040.137,3033.802,3040.137,1,3040.137,0,0,NA,"Click To Continue","Continue Button",2,"object-44","Task Instructions",NA,"SUPPRF86222"
"6",1697571890045,"17/10/2023 19:44:50",1697575490045,1,"17/10/2023 21:44:50",147682,3,"task-hbx7",NA,32317431,9555912,NA,"complete",NA,NA,"computer","Desktop or Laptop","Windows 10","Edge 114.0.1823.79","1536x864","1482x746",NA,NA,0,"Task Introduction and Instructions (Clone)",9,"ABJCIDHEGF","Passed AC2",NA,"Spreadsheet1",NA,"","","",NA,"5","END",NA,NA,NA,NA,NA,NA,0,NA,NA,NA,NA,"","",NA,"","",NA,"SUPPRF86222"
"1",1697598827294,"18/10/2023 03:13:47",1697577227294,-6,"17/10/2023 15:13:47",147682,3,"task-hbx7",NA,32318024,9556128,NA,"complete",NA,NA,"computer","Desktop or Laptop","Windows 10","Chrome 118.0.0.0","1536x864","1536x715",NA,NA,0,"Task Introduction and Instructions (Clone)",9,"BCADJEIFHG","Passed AC2",NA,"Spreadsheet1",NA,"","","",NA,"5","BEGIN",NA,NA,NA,NA,NA,NA,0,NA,NA,NA,NA,"","",NA,"","",NA,"SUPPRF79503"
"2",1697598830582,"18/10/2023 03:13:50",1697577230582,-6,"17/10/2023 15:13:50",147682,3,"task-hbx7",NA,32318024,9556128,NA,"complete",NA,NA,"computer","Desktop or Laptop","Windows 10","Chrome 118.0.0.0","1536x864","1536x715",NA,NA,0,"Task Introduction and Instructions (Clone)",9,"BCADJEIFHG","Passed AC2",NA,"Spreadsheet1",1,"Task Instructions","Screen 1","anr7sn",1,"continue","",3087.80399995232,3084.461,3087.80399995232,3087.80399995232,3084.461,3087.80399995232,1,3087.80399995232,0,0,NA,"Click To Continue","Continue Button",2,"object-1944","Task Instructions",NA,"SUPPRF79503"
"3",1697598834987,"18/10/2023 03:13:54",1697577234987,-6,"17/10/2023 15:13:54",147682,3,"task-hbx7",NA,32318024,9556128,NA,"complete",NA,NA,"computer","Desktop or Laptop","Windows 10","Chrome 118.0.0.0","1536x864","1536x715",NA,NA,0,"Task Introduction and Instructions (Clone)",9,"BCADJEIFHG","Passed AC2",NA,"Spreadsheet1",1,"Task Instructions","Screen 2","ce2tc8",2,"continue","",4409.043,4401.649,4409.043,4409.043,4401.649,4409.043,1,4409.043,0,0,NA,"Click To Continue","Continue Button",2,"object-7","Task Instructions",NA,"SUPPRF79503"
"4",1697598838037,"18/10/2023 03:13:58",1697577238037,-6,"17/10/2023 15:13:58",147682,3,"task-hbx7",NA,32318024,9556128,NA,"complete",NA,NA,"computer","Desktop or Laptop","Windows 10","Chrome 118.0.0.0","1536x864","1536x715",NA,NA,0,"Task Introduction and Instructions (Clone)",9,"BCADJEIFHG","Passed AC2",NA,"Spreadsheet1",1,"Task Instructions","Screen 5","spepx9",3,"continue","",3051.004,3034.363,3051.004,3051.004,3034.363,3051.004,1,3051.004,0,0,NA,"Click To Continue","Continue Button",2,"object-9","Task Instructions",NA,"SUPPRF79503"
"5",1697598841109,"18/10/2023 03:14:01",1697577241109,-6,"17/10/2023 15:14:01",147682,3,"task-hbx7",NA,32318024,9556128,NA,"complete",NA,NA,"computer","Desktop or Laptop","Windows 10","Chrome 118.0.0.0","1536x864","1536x715",NA,NA,0,"Task Introduction and Instructions (Clone)",9,"BCADJEIFHG","Passed AC2",NA,"Spreadsheet1",1,"Task Instructions","Screen 9","8nvnao",4,"continue","",3095.33099995232,3084.519,3095.33099995232,3095.33099995232,3084.519,3095.33099995232,1,3095.33099995232,0,0,NA,"Click To Continue","Continue Button",2,"object-44","Task Instructions",NA,"SUPPRF79503"
"6",1697598841115,"18/10/2023 03:14:01",1697577241115,-6,"17/10/2023 15:14:01",147682,3,"task-hbx7",NA,32318024,9556128,NA,"complete",NA,NA,"computer","Desktop or Laptop","Windows 10","Chrome 118.0.0.0","1536x864","1536x715",NA,NA,0,"Task Introduction and Instructions (Clone)",9,"BCADJEIFHG","Passed AC2",NA,"Spreadsheet1",NA,"","","",NA,"5","END",NA,NA,NA,NA,NA,NA,0,NA,NA,NA,NA,"","",NA,"","",NA,"SUPPRF79503"
"1",1697576117869,"17/10/2023 20:55:17",1697579717869,1,"17/10/2023 22:55:17",147682,3,"task-hbx7",NA,32318923,9556433,NA,"rejected - time limit reached",NA,NA,"computer","Desktop or Laptop","Windows 10","Chrome 118.0.0.0","1280x720","1280x603",NA,NA,0,"Task Introduction and Instructions (Clone)",9,"CDBEAFJGIH","Passed AC2",NA,"Spreadsheet1",NA,"","","",NA,"5","BEGIN",NA,NA,NA,NA,NA,NA,0,NA,NA,NA,NA,"","",NA,"","",NA,"SUPPRF82878"
"2",1697576121263,"17/10/2023 20:55:21",1697579721263,1,"17/10/2023 22:55:21",147682,3,"task-hbx7",NA,32318923,9556433,NA,"rejected - time limit reached",NA,NA,"computer","Desktop or Laptop","Windows 10","Chrome 118.0.0.0","1280x720","1280x603",NA,NA,0,"Task Introduction and Instructions (Clone)",9,"CDBEAFJGIH","Passed AC2",NA,"Spreadsheet1",1,"Task Instructions","Screen 1","anr7sn",1,"continue","",3233.473,3230.518,3233.473,3233.473,3230.518,3233.473,1,3233.473,0,0,NA,"Click To Continue","Continue Button",2,"object-1944","Task Instructions",NA,"SUPPRF82878"
"3",1697576125112,"17/10/2023 20:55:25",1697579725112,1,"17/10/2023 22:55:25",147682,3,"task-hbx7",NA,32318923,9556433,NA,"rejected - time limit reached",NA,NA,"computer","Desktop or Laptop","Windows 10","Chrome 118.0.0.0","1280x720","1280x603",NA,NA,0,"Task Introduction and Instructions (Clone)",9,"CDBEAFJGIH","Passed AC2",NA,"Spreadsheet1",1,"Task Instructions","Screen 2","ce2tc8",2,"continue","",3848.955,3846.872,3848.955,3848.955,3846.872,3848.955,1,3848.955,0,0,NA,"Click To Continue","Continue Button",2,"object-7","Task Instructions",NA,"SUPPRF82878"
"4",1697576128202,"17/10/2023 20:55:28",1697579728202,1,"17/10/2023 22:55:28",147682,3,"task-hbx7",NA,32318923,9556433,NA,"rejected - time limit reached",NA,NA,"computer","Desktop or Laptop","Windows 10","Chrome 118.0.0.0","1280x720","1280x603",NA,NA,0,"Task Introduction and Instructions (Clone)",9,"CDBEAFJGIH","Passed AC2",NA,"Spreadsheet1",1,"Task Instructions","Screen 5","spepx9",3,"continue","",3092.083,3080.927,3092.083,3092.083,3080.927,3092.083,1,3092.083,0,0,NA,"Click To Continue","Continue Button",2,"object-9","Task Instructions",NA,"SUPPRF82878"
"5",1697576130845,"17/10/2023 20:55:30",1697579730845,1,"17/10/2023 22:55:30",147682,3,"task-hbx7",NA,32318923,9556433,NA,"rejected - time limit reached",NA,NA,"computer","Desktop or Laptop","Windows 10","Chrome 118.0.0.0","1280x720","1280x603",NA,NA,0,"Task Introduction and Instructions (Clone)",9,"CDBEAFJGIH","Passed AC2",NA,"Spreadsheet1",1,"Task Instructions","Screen 9","8nvnao",4,"continue","",2654.55600000596,2647.68,2654.55600000596,2654.55600000596,2647.68,2654.55600000596,1,2654.55600000596,0,0,NA,"Click To Continue","Continue Button",2,"object-44","Task Instructions",NA,"SUPPRF82878"
"6",1697576130848,"17/10/2023 20:55:30",1697579730848,1,"17/10/2023 22:55:30",147682,3,"task-hbx7",NA,32318923,9556433,NA,"rejected - time limit reached",NA,NA,"computer","Desktop or Laptop","Windows 10","Chrome 118.0.0.0","1280x720","1280x603",NA,NA,0,"Task Introduction and Instructions (Clone)",9,"CDBEAFJGIH","Passed AC2",NA,"Spreadsheet1",NA,"","","",NA,"5","END",NA,NA,NA,NA,NA,NA,0,NA,NA,NA,NA,"","",NA,"","",NA,"SUPPRF82878"
"1",1697607550360,"18/10/2023 05:39:10",1697582350360,-7,"17/10/2023 15:39:10",147682,3,"task-hbx7",NA,32319474,9556558,NA,"complete",NA,NA,"computer","Desktop or Laptop","Windows 10","Chrome 118.0.0.0","1920x1080","1920x963",NA,NA,0,"Task Introduction and Instructions (Clone)",9,"DECFBGAHJI","Passed AC2",NA,"Spreadsheet1",NA,"","","",NA,"5","BEGIN",NA,NA,NA,NA,NA,NA,0,NA,NA,NA,NA,"","",NA,"","",NA,"SUPPRF15084"
"2",1697607564686,"18/10/2023 05:39:24",1697582364686,-7,"17/10/2023 15:39:24",147682,3,"task-hbx7",NA,32319474,9556558,NA,"complete",NA,NA,"computer","Desktop or Laptop","Windows 10","Chrome 118.0.0.0","1920x1080","1920x963",NA,NA,0,"Task Introduction and Instructions (Clone)",9,"DECFBGAHJI","Passed AC2",NA,"Spreadsheet1",1,"Task Instructions","Screen 1","anr7sn",1,"continue","",13529.2260001907,13524.491,13529.2260001907,13529.2260001907,13524.491,13529.2260001907,1,13529.2260001907,0,0,NA,"Click To Continue","Continue Button",2,"object-1944","Task Instructions",NA,"SUPPRF15084"
"3",1697607569214,"18/10/2023 05:39:29",1697582369214,-7,"17/10/2023 15:39:29",147682,3,"task-hbx7",NA,32319474,9556558,NA,"complete",NA,NA,"computer","Desktop or Laptop","Windows 10","Chrome 118.0.0.0","1920x1080","1920x963",NA,NA,0,"Task Introduction and Instructions (Clone)",9,"DECFBGAHJI","Passed AC2",NA,"Spreadsheet1",1,"Task Instructions","Screen 2","ce2tc8",2,"continue","",4533.33500009537,4524.989,4533.33500009537,4533.33500009537,4524.989,4533.33500009537,1,4533.33500009537,0,0,NA,"Click To Continue","Continue Button",2,"object-7","Task Instructions",NA,"SUPPRF15084"
"4",1697607572112,"18/10/2023 05:39:32",1697582372112,-7,"17/10/2023 15:39:32",147682,3,"task-hbx7",NA,32319474,9556558,NA,"complete",NA,NA,"computer","Desktop or Laptop","Windows 10","Chrome 118.0.0.0","1920x1080","1920x963",NA,NA,0,"Task Introduction and Instructions (Clone)",9,"DECFBGAHJI","Passed AC2",NA,"Spreadsheet1",1,"Task Instructions","Screen 5","spepx9",3,"continue","",2906.1460002861,2899.629,2906.1460002861,2906.1460002861,2899.629,2906.1460002861,1,2906.1460002861,0,0,NA,"Click To Continue","Continue Button",2,"object-9","Task Instructions",NA,"SUPPRF15084"
"5",1697607575074,"18/10/2023 05:39:35",1697582375074,-7,"17/10/2023 15:39:35",147682,3,"task-hbx7",NA,32319474,9556558,NA,"complete",NA,NA,"computer","Desktop or Laptop","Windows 10","Chrome 118.0.0.0","1920x1080","1920x963",NA,NA,0,"Task Introduction and Instructions (Clone)",9,"DECFBGAHJI","Passed AC2",NA,"Spreadsheet1",1,"Task Instructions","Screen 9","8nvnao",4,"continue","",2969.21700009537,2966.761,2969.21700009537,2969.21700009537,2966.761,2969.21700009537,1,2969.21700009537,0,0,NA,"Click To Continue","Continue Button",2,"object-44","Task Instructions",NA,"SUPPRF15084"
"6",1697607575077,"18/10/2023 05:39:35",1697582375077,-7,"17/10/2023 15:39:35",147682,3,"task-hbx7",NA,32319474,9556558,NA,"complete",NA,NA,"computer","Desktop or Laptop","Windows 10","Chrome 118.0.0.0","1920x1080","1920x963",NA,NA,0,"Task Introduction and Instructions (Clone)",9,"DECFBGAHJI","Passed AC2",NA,"Spreadsheet1",NA,"","","",NA,"5","END",NA,NA,NA,NA,NA,NA,0,NA,NA,NA,NA,"","",NA,"","",NA,"SUPPRF15084"
"1",1697608221460,"18/10/2023 05:50:21",1697611821460,1,"18/10/2023 07:50:21",147682,3,"task-hbx7",NA,32322350,9557617,NA,"rejected - time limit reached",NA,NA,"computer","Desktop or Laptop","Mac OS 10.13.5","Chrome 118","390x844","390x669",NA,NA,0,"Task Introduction and Instructions (Clone)",9,"EFDGCHBIAJ","Passed AC2",NA,"Spreadsheet1",NA,"","","",NA,"5","BEGIN",NA,NA,NA,NA,NA,NA,0,NA,NA,NA,NA,"","",NA,"","",NA,"SUPPRF73286"
"2",1697608227487,"18/10/2023 05:50:27",1697611827487,1,"18/10/2023 07:50:27",147682,3,"task-hbx7",NA,32322350,9557617,NA,"rejected - time limit reached",NA,NA,"computer","Desktop or Laptop","Mac OS 10.13.5","Chrome 118","390x844","390x669",NA,NA,0,"Task Introduction and Instructions (Clone)",9,"EFDGCHBIAJ","Passed AC2",NA,"Spreadsheet1",1,"Task Instructions","Screen 1","anr7sn",1,"continue","",5189,5164,5189,5189,5164,5189,1,5189,0,0,NA,"Click To Continue","Continue Button",2,"object-1944","Task Instructions",NA,"SUPPRF73286"
"3",1697608244546,"18/10/2023 05:50:44",1697611844546,1,"18/10/2023 07:50:44",147682,3,"task-hbx7",NA,32322350,9557617,NA,"rejected - time limit reached",NA,NA,"computer","Desktop or Laptop","Mac OS 10.13.5","Chrome 118","390x844","390x669",NA,NA,0,"Task Introduction and Instructions (Clone)",9,"EFDGCHBIAJ","Passed AC2",NA,"Spreadsheet1",1,"Task Instructions","Screen 2","ce2tc8",2,"continue","",17069,17036,17069,17069,17036,17069,1,17069,0,0,NA,"Click To Continue","Continue Button",2,"object-7","Task Instructions",NA,"SUPPRF73286"
"4",1697608248305,"18/10/2023 05:50:48",1697611848305,1,"18/10/2023 07:50:48",147682,3,"task-hbx7",NA,32322350,9557617,NA,"rejected - time limit reached",NA,NA,"computer","Desktop or Laptop","Mac OS 10.13.5","Chrome 118","390x844","390x669",NA,NA,0,"Task Introduction and Instructions (Clone)",9,"EFDGCHBIAJ","Passed AC2",NA,"Spreadsheet1",1,"Task Instructions","Screen 5","spepx9",3,"continue","",3800,3767,3800,3800,3767,3800,1,3800,0,0,NA,"Click To Continue","Continue Button",2,"object-9","Task Instructions",NA,"SUPPRF73286"
"5",1697608251188,"18/10/2023 05:50:51",1697611851188,1,"18/10/2023 07:50:51",147682,3,"task-hbx7",NA,32322350,9557617,NA,"rejected - time limit reached",NA,NA,"computer","Desktop or Laptop","Mac OS 10.13.5","Chrome 118","390x844","390x669",NA,NA,0,"Task Introduction and Instructions (Clone)",9,"EFDGCHBIAJ","Passed AC2",NA,"Spreadsheet1",1,"Task Instructions","Screen 9","8nvnao",4,"continue","",2923,2899,2923,2923,2899,2923,1,2923,0,0,NA,"Click To Continue","Continue Button",2,"object-44","Task Instructions",NA,"SUPPRF73286"
"6",1697608251195,"18/10/2023 05:50:51",1697611851195,1,"18/10/2023 07:50:51",147682,3,"task-hbx7",NA,32322350,9557617,NA,"rejected - time limit reached",NA,NA,"computer","Desktop or Laptop","Mac OS 10.13.5","Chrome 118","390x844","390x669",NA,NA,0,"Task Introduction and Instructions (Clone)",9,"EFDGCHBIAJ","Passed AC2",NA,"Spreadsheet1",NA,"","","",NA,"5","END",NA,NA,NA,NA,NA,NA,0,NA,NA,NA,NA,"","",NA,"","",NA,"SUPPRF73286"
