"Event.Index","UTC.Timestamp","UTC.Date.and.Time","Local.Timestamp","Local.Timezone","Local.Date.and.Time","Experiment.ID","Experiment.Version","Tree.Node.Key","Repeat.Key","Schedule.ID","Participant.Private.ID","Participant.Starting.Group","Participant.Status","Participant.Completion.Code","Participant.Device.Type","Participant.Device","Participant.OS","Participant.Browser","Participant.Monitor.Size","Participant.Viewport.Size","Checkpoint","Room.ID","Room.Order","Task.Name","Task.Version","order.ot79","branch.g31k","branch.5gtn","counterbalance.qny1","Spreadsheet","Current.Spreadsheet","Trial.Number","Display","Screen","Screen.ID","Screen.Counter","Response.Type","Response","Onset.Time","Clock.Time","Reaction.Time","Absolute.Onset.Time","Absolute.Clock.Time","Absolute.Reaction.Time","Correct","Response.Onset","Response.Duration","Proportion","Tag","Component.Name","Object.Name","Object.Number","Object.ID","Spreadsheet..display","Manipulation..Spreadsheet","Random_ID_new"
"1",1718631588701,"17/06/2024 13:39:48",1718635188701,1,"17/06/2024 15:39:48",177048,9,"task-xk4o",NA,38331562,11266455,NA,"complete",NA,"computer","Desktop or Laptop","Windows 10","Chrome 126.0.0.0","1280x720","1280x585",NA,NA,0,"Task Introduction and Instructions (re-introduce video and audio) (Clone) (Clone)",3,"ABHCGDFE","Passed AC2",NA,"spreadsheet_5","Spreadsheet1","Spreadsheet1",NA,"","","",NA,"info","BEGIN",NA,NA,NA,NA,NA,NA,0,NA,NA,NA,NA,"","",NA,"","",NA,"SUPSCO66122"
"2",1718631593585,"17/06/2024 13:39:53",1718635193585,1,"17/06/2024 15:39:53",177048,9,"task-xk4o",NA,38331562,11266455,NA,"complete",NA,"computer","Desktop or Laptop","Windows 10","Chrome 126.0.0.0","1280x720","1280x585",NA,NA,0,"Task Introduction and Instructions (re-introduce video and audio) (Clone) (Clone)",3,"ABHCGDFE","Passed AC2",NA,"spreadsheet_5","Spreadsheet1","Spreadsheet1",1,"Task Instructions","Screen 1","anr7sn",1,"continue","",4804.7,4799.7,4804.7,4804.7,4799.7,4804.7,1,4804.7,0,0,NA,"Click To Continue","Continue Button",3,"object-60","Task Instructions",NA,"SUPSCO66122"
"3",1718631596496,"17/06/2024 13:39:56",1718635196496,1,"17/06/2024 15:39:56",177048,9,"task-xk4o",NA,38331562,11266455,NA,"complete",NA,"computer","Desktop or Laptop","Windows 10","Chrome 126.0.0.0","1280x720","1280x585",NA,NA,0,"Task Introduction and Instructions (re-introduce video and audio) (Clone) (Clone)",3,"ABHCGDFE","Passed AC2",NA,"spreadsheet_5","Spreadsheet1","Spreadsheet1",1,"Task Instructions","Screen 4","spepx9",2,"continue","",2916.5,2899.8,2916.5,2916.5,2899.8,2916.5,1,2916.5,0,0,NA,"Click To Continue","Continue Button",2,"object-9","Task Instructions",NA,"SUPSCO66122"
"4",1718631610721,"17/06/2024 13:40:10",1718635210721,1,"17/06/2024 15:40:10",177048,9,"task-xk4o",NA,38331562,11266455,NA,"complete",NA,"computer","Desktop or Laptop","Windows 10","Chrome 126.0.0.0","1280x720","1280x585",NA,NA,0,"Task Introduction and Instructions (re-introduce video and audio) (Clone) (Clone)",3,"ABHCGDFE","Passed AC2",NA,"spreadsheet_5","Spreadsheet1","Spreadsheet1",1,"Task Instructions","Screen 2","ce2tc8",3,"continue","",14241.2,14232.4,14241.2,14241.2,14232.4,14241.2,1,14241.2,0,0,NA,"Click To Continue","Continue Button",3,"object-59","Task Instructions",NA,"SUPSCO66122"
"5",1718631622764,"17/06/2024 13:40:22",1718635222764,1,"17/06/2024 15:40:22",177048,9,"task-xk4o",NA,38331562,11266455,NA,"complete",NA,"computer","Desktop or Laptop","Windows 10","Chrome 126.0.0.0","1280x720","1280x585",NA,NA,0,"Task Introduction and Instructions (re-introduce video and audio) (Clone) (Clone)",3,"ABHCGDFE","Passed AC2",NA,"spreadsheet_5","Spreadsheet1","Spreadsheet1",1,"Task Instructions","Screen 3","1qtc8v",4,"continue","",12048.8,12032.4,12048.8,12048.8,12032.4,12048.8,1,12048.8,0,0,NA,"Click To Continue","Continue Button",2,"object-2983","Task Instructions",NA,"SUPSCO66122"
"6",1718631631684,"17/06/2024 13:40:31",1718635231684,1,"17/06/2024 15:40:31",177048,9,"task-xk4o",NA,38331562,11266455,NA,"complete",NA,"computer","Desktop or Laptop","Windows 10","Chrome 126.0.0.0","1280x720","1280x585",NA,NA,0,"Task Introduction and Instructions (re-introduce video and audio) (Clone) (Clone)",3,"ABHCGDFE","Passed AC2",NA,"spreadsheet_5","Spreadsheet1","Spreadsheet1",1,"Task Instructions","Screen 12","1a4vu2",5,"continue","",8936.09999980927,8932.9,8936.09999980927,8936.09999980927,8932.9,8936.09999980927,1,8936.09999980927,0,0,NA,"Click To Continue","Continue Button",2,"object-2466","Task Instructions",NA,"SUPSCO66122"
"7",1718631636789,"17/06/2024 13:40:36",1718635236789,1,"17/06/2024 15:40:36",177048,9,"task-xk4o",NA,38331562,11266455,NA,"complete",NA,"computer","Desktop or Laptop","Windows 10","Chrome 126.0.0.0","1280x720","1280x585",NA,NA,0,"Task Introduction and Instructions (re-introduce video and audio) (Clone) (Clone)",3,"ABHCGDFE","Passed AC2",NA,"spreadsheet_5","Spreadsheet1","Spreadsheet1",1,"Task Instructions","Screen 13","q9vwda",6,"continue","",5107.89999961853,5099.7,5107.89999961853,5107.89999961853,5099.7,5107.89999961853,1,5107.89999961853,0,0,NA,"Click To Continue","Continue Button",2,"object-2989","Task Instructions",NA,"SUPSCO66122"
"8",1718631641364,"17/06/2024 13:40:41",1718635241364,1,"17/06/2024 15:40:41",177048,9,"task-xk4o",NA,38331562,11266455,NA,"complete",NA,"computer","Desktop or Laptop","Windows 10","Chrome 126.0.0.0","1280x720","1280x585",NA,NA,0,"Task Introduction and Instructions (re-introduce video and audio) (Clone) (Clone)",3,"ABHCGDFE","Passed AC2",NA,"spreadsheet_5","Spreadsheet1","Spreadsheet1",1,"Task Instructions","Screen 11","oyulb7",7,"continue","",4583.89999990464,4582.9,4583.89999990464,4583.89999990464,4582.9,4583.89999990464,1,4583.89999990464,0,0,NA,"Click To Continue","Continue Button",2,"object-52","Task Instructions",NA,"SUPSCO66122"
"9",1718631644332,"17/06/2024 13:40:44",1718635244332,1,"17/06/2024 15:40:44",177048,9,"task-xk4o",NA,38331562,11266455,NA,"complete",NA,"computer","Desktop or Laptop","Windows 10","Chrome 126.0.0.0","1280x720","1280x585",NA,NA,0,"Task Introduction and Instructions (re-introduce video and audio) (Clone) (Clone)",3,"ABHCGDFE","Passed AC2",NA,"spreadsheet_5","Spreadsheet1","Spreadsheet1",1,"Task Instructions","Screen 5","8nvnao",8,"continue","",2968.49999990463,2966.4,2968.49999990463,2968.49999990463,2966.4,2968.49999990463,1,2968.49999990463,0,0,NA,"Click To Continue","Continue Button",2,"object-44","Task Instructions",NA,"SUPSCO66122"
"10",1718631644333,"17/06/2024 13:40:44",1718635244333,1,"17/06/2024 15:40:44",177048,9,"task-xk4o",NA,38331562,11266455,NA,"complete",NA,"computer","Desktop or Laptop","Windows 10","Chrome 126.0.0.0","1280x720","1280x585",NA,NA,0,"Task Introduction and Instructions (re-introduce video and audio) (Clone) (Clone)",3,"ABHCGDFE","Passed AC2",NA,"spreadsheet_5","Spreadsheet1","Spreadsheet1",NA,"","","",NA,"info","END",NA,NA,NA,NA,NA,NA,0,NA,NA,NA,NA,"","",NA,"","",NA,"SUPSCO66122"
"1",1718715215163,"18/06/2024 12:53:35",1718718815163,1,"18/06/2024 14:53:35",177048,9,"task-xk4o",NA,38353718,11273152,NA,"complete",NA,"computer","Desktop or Laptop","Windows 10","Chrome 125.0.0.0","1366x768","1242x583",NA,NA,0,"Task Introduction and Instructions (re-introduce video and audio) (Clone) (Clone)",3,"BCADHEGF","Passed AC2",NA,"spreadsheet_2","Spreadsheet1","Spreadsheet1",NA,"","","",NA,"info","BEGIN",NA,NA,NA,NA,NA,NA,0,NA,NA,NA,NA,"","",NA,"","",NA,"SUPSCO18638"
"2",1718715219043,"18/06/2024 12:53:39",1718718819043,1,"18/06/2024 14:53:39",177048,9,"task-xk4o",NA,38353718,11273152,NA,"complete",NA,"computer","Desktop or Laptop","Windows 10","Chrome 125.0.0.0","1366x768","1242x583",NA,NA,0,"Task Introduction and Instructions (re-introduce video and audio) (Clone) (Clone)",3,"BCADHEGF","Passed AC2",NA,"spreadsheet_2","Spreadsheet1","Spreadsheet1",1,"Task Instructions","Screen 1","anr7sn",1,"continue","",3603.1,3578.1,3603.1,3603.1,3578.1,3603.1,1,3603.1,0,0,NA,"Click To Continue","Continue Button",3,"object-60","Task Instructions",NA,"SUPSCO18638"
"3",1718715221969,"18/06/2024 12:53:41",1718718821969,1,"18/06/2024 14:53:41",177048,9,"task-xk4o",NA,38353718,11273152,NA,"complete",NA,"computer","Desktop or Laptop","Windows 10","Chrome 125.0.0.0","1366x768","1242x583",NA,NA,0,"Task Introduction and Instructions (re-introduce video and audio) (Clone) (Clone)",3,"BCADHEGF","Passed AC2",NA,"spreadsheet_2","Spreadsheet1","Spreadsheet1",1,"Task Instructions","Screen 4","spepx9",2,"continue","",2952.4,2927.5,2952.4,2952.4,2927.5,2952.4,1,2952.4,0,0,NA,"Click To Continue","Continue Button",2,"object-9","Task Instructions",NA,"SUPSCO18638"
"4",1718715225606,"18/06/2024 12:53:45",1718718825606,1,"18/06/2024 14:53:45",177048,9,"task-xk4o",NA,38353718,11273152,NA,"complete",NA,"computer","Desktop or Laptop","Windows 10","Chrome 125.0.0.0","1366x768","1242x583",NA,NA,0,"Task Introduction and Instructions (re-introduce video and audio) (Clone) (Clone)",3,"BCADHEGF","Passed AC2",NA,"spreadsheet_2","Spreadsheet1","Spreadsheet1",1,"Task Instructions","Screen 2","ce2tc8",3,"continue","",3664.60000002384,3650.2,3664.60000002384,3664.60000002384,3650.2,3664.60000002384,1,3664.60000002384,0,0,NA,"Click To Continue","Continue Button",3,"object-59","Task Instructions",NA,"SUPSCO18638"
"5",1718715230309,"18/06/2024 12:53:50",1718718830309,1,"18/06/2024 14:53:50",177048,9,"task-xk4o",NA,38353718,11273152,NA,"complete",NA,"computer","Desktop or Laptop","Windows 10","Chrome 125.0.0.0","1366x768","1242x583",NA,NA,0,"Task Introduction and Instructions (re-introduce video and audio) (Clone) (Clone)",3,"BCADHEGF","Passed AC2",NA,"spreadsheet_2","Spreadsheet1","Spreadsheet1",1,"Task Instructions","Screen 3","1qtc8v",4,"continue","",4717.90000002384,4705.1,4717.90000002384,4717.90000002384,4705.1,4717.90000002384,1,4717.90000002384,0,0,NA,"Click To Continue","Continue Button",2,"object-2983","Task Instructions",NA,"SUPSCO18638"
"6",1718715233668,"18/06/2024 12:53:53",1718718833668,1,"18/06/2024 14:53:53",177048,9,"task-xk4o",NA,38353718,11273152,NA,"complete",NA,"computer","Desktop or Laptop","Windows 10","Chrome 125.0.0.0","1366x768","1242x583",NA,NA,0,"Task Introduction and Instructions (re-introduce video and audio) (Clone) (Clone)",3,"BCADHEGF","Passed AC2",NA,"spreadsheet_2","Spreadsheet1","Spreadsheet1",1,"Task Instructions","Screen 12","1a4vu2",5,"continue","",3372.00000001192,3353.6,3372.00000001192,3372.00000001192,3353.6,3372.00000001192,1,3372.00000001192,0,0,NA,"Click To Continue","Continue Button",2,"object-2466","Task Instructions",NA,"SUPSCO18638"
"7",1718715239564,"18/06/2024 12:53:59",1718718839564,1,"18/06/2024 14:53:59",177048,9,"task-xk4o",NA,38353718,11273152,NA,"complete",NA,"computer","Desktop or Laptop","Windows 10","Chrome 125.0.0.0","1366x768","1242x583",NA,NA,0,"Task Introduction and Instructions (re-introduce video and audio) (Clone) (Clone)",3,"BCADHEGF","Passed AC2",NA,"spreadsheet_2","Spreadsheet1","Spreadsheet1",1,"Task Instructions","Screen 13","q9vwda",6,"continue","",5914.1,5905.6,5914.1,5914.1,5905.6,5914.1,1,5914.1,0,0,NA,"Click To Continue","Continue Button",2,"object-2989","Task Instructions",NA,"SUPSCO18638"
"8",1718715242279,"18/06/2024 12:54:02",1718718842279,1,"18/06/2024 14:54:02",177048,9,"task-xk4o",NA,38353718,11273152,NA,"complete",NA,"computer","Desktop or Laptop","Windows 10","Chrome 125.0.0.0","1366x768","1242x583",NA,NA,0,"Task Introduction and Instructions (re-introduce video and audio) (Clone) (Clone)",3,"BCADHEGF","Passed AC2",NA,"spreadsheet_2","Spreadsheet1","Spreadsheet1",1,"Task Instructions","Screen 11","oyulb7",7,"continue","",2723.5,2701.3,2723.5,2723.5,2701.3,2723.5,1,2723.5,0,0,NA,"Click To Continue","Continue Button",2,"object-52","Task Instructions",NA,"SUPSCO18638"
"9",1718715245718,"18/06/2024 12:54:05",1718718845718,1,"18/06/2024 14:54:05",177048,9,"task-xk4o",NA,38353718,11273152,NA,"complete",NA,"computer","Desktop or Laptop","Windows 10","Chrome 125.0.0.0","1366x768","1242x583",NA,NA,0,"Task Introduction and Instructions (re-introduce video and audio) (Clone) (Clone)",3,"BCADHEGF","Passed AC2",NA,"spreadsheet_2","Spreadsheet1","Spreadsheet1",1,"Task Instructions","Screen 5","8nvnao",8,"continue","",3461.2,3453.6,3461.2,3461.2,3453.6,3461.2,1,3461.2,0,0,NA,"Click To Continue","Continue Button",2,"object-44","Task Instructions",NA,"SUPSCO18638"
"10",1718715245722,"18/06/2024 12:54:05",1718718845722,1,"18/06/2024 14:54:05",177048,9,"task-xk4o",NA,38353718,11273152,NA,"complete",NA,"computer","Desktop or Laptop","Windows 10","Chrome 125.0.0.0","1366x768","1242x583",NA,NA,0,"Task Introduction and Instructions (re-introduce video and audio) (Clone) (Clone)",3,"BCADHEGF","Passed AC2",NA,"spreadsheet_2","Spreadsheet1","Spreadsheet1",NA,"","","",NA,"info","END",NA,NA,NA,NA,NA,NA,0,NA,NA,NA,NA,"","",NA,"","",NA,"SUPSCO18638"
"1",1718725566912,"18/06/2024 15:46:06",1718729166912,1,"18/06/2024 17:46:06",177048,9,"task-xk4o",NA,38358529,11274425,NA,"complete",NA,"computer","Desktop or Laptop","Windows 10","Chrome 125.0.0.0","1280x720","1280x585",NA,NA,0,"Task Introduction and Instructions (re-introduce video and audio) (Clone) (Clone)",3,"CDBEAFHG","Passed AC2",NA,"spreadsheet_4","Spreadsheet1","Spreadsheet1",NA,"","","",NA,"info","BEGIN",NA,NA,NA,NA,NA,NA,0,NA,NA,NA,NA,"","",NA,"","",NA,"SUPSCO61449"
"2",1718725571505,"18/06/2024 15:46:11",1718729171505,1,"18/06/2024 17:46:11",177048,9,"task-xk4o",NA,38358529,11274425,NA,"complete",NA,"computer","Desktop or Laptop","Windows 10","Chrome 125.0.0.0","1280x720","1280x585",NA,NA,0,"Task Introduction and Instructions (re-introduce video and audio) (Clone) (Clone)",3,"CDBEAFHG","Passed AC2",NA,"spreadsheet_4","Spreadsheet1","Spreadsheet1",1,"Task Instructions","Screen 1","anr7sn",1,"continue","",4506.70000019073,4499.9,4506.70000019073,4506.70000019073,4499.9,4506.70000019073,1,4506.70000019073,0,0,NA,"Click To Continue","Continue Button",3,"object-60","Task Instructions",NA,"SUPSCO61449"
"3",1718725575031,"18/06/2024 15:46:15",1718729175031,1,"18/06/2024 17:46:15",177048,9,"task-xk4o",NA,38358529,11274425,NA,"complete",NA,"computer","Desktop or Laptop","Windows 10","Chrome 125.0.0.0","1280x720","1280x585",NA,NA,0,"Task Introduction and Instructions (re-introduce video and audio) (Clone) (Clone)",3,"CDBEAFHG","Passed AC2",NA,"spreadsheet_4","Spreadsheet1","Spreadsheet1",1,"Task Instructions","Screen 4","spepx9",2,"continue","",3532.10000014305,3516.3,3532.10000014305,3532.10000014305,3516.3,3532.10000014305,1,3532.10000014305,0,0,NA,"Click To Continue","Continue Button",2,"object-9","Task Instructions",NA,"SUPSCO61449"
"4",1718725587989,"18/06/2024 15:46:27",1718729187989,1,"18/06/2024 17:46:27",177048,9,"task-xk4o",NA,38358529,11274425,NA,"complete",NA,"computer","Desktop or Laptop","Windows 10","Chrome 125.0.0.0","1280x720","1280x585",NA,NA,0,"Task Introduction and Instructions (re-introduce video and audio) (Clone) (Clone)",3,"CDBEAFHG","Passed AC2",NA,"spreadsheet_4","Spreadsheet1","Spreadsheet1",1,"Task Instructions","Screen 2","ce2tc8",3,"continue","",12973.8000001431,12966.1,12973.8000001431,12973.8000001431,12966.1,12973.8000001431,1,12973.8000001431,0,0,NA,"Click To Continue","Continue Button",3,"object-59","Task Instructions",NA,"SUPSCO61449"
"5",1718725595923,"18/06/2024 15:46:35",1718729195923,1,"18/06/2024 17:46:35",177048,9,"task-xk4o",NA,38358529,11274425,NA,"complete",NA,"computer","Desktop or Laptop","Windows 10","Chrome 125.0.0.0","1280x720","1280x585",NA,NA,0,"Task Introduction and Instructions (re-introduce video and audio) (Clone) (Clone)",3,"CDBEAFHG","Passed AC2",NA,"spreadsheet_4","Spreadsheet1","Spreadsheet1",1,"Task Instructions","Screen 3","1qtc8v",4,"continue","",7942.1,7932.7,7942.1,7942.1,7932.7,7942.1,1,7942.1,0,0,NA,"Click To Continue","Continue Button",2,"object-2983","Task Instructions",NA,"SUPSCO61449"
"6",1718725604317,"18/06/2024 15:46:44",1718729204317,1,"18/06/2024 17:46:44",177048,9,"task-xk4o",NA,38358529,11274425,NA,"complete",NA,"computer","Desktop or Laptop","Windows 10","Chrome 125.0.0.0","1280x720","1280x585",NA,NA,0,"Task Introduction and Instructions (re-introduce video and audio) (Clone) (Clone)",3,"CDBEAFHG","Passed AC2",NA,"spreadsheet_4","Spreadsheet1","Spreadsheet1",1,"Task Instructions","Screen 12","1a4vu2",5,"continue","",8403.4,8399.3,8403.4,8403.4,8399.3,8403.4,1,8403.4,0,0,NA,"Click To Continue","Continue Button",2,"object-2466","Task Instructions",NA,"SUPSCO61449"
"7",1718725609775,"18/06/2024 15:46:49",1718729209775,1,"18/06/2024 17:46:49",177048,9,"task-xk4o",NA,38358529,11274425,NA,"complete",NA,"computer","Desktop or Laptop","Windows 10","Chrome 125.0.0.0","1280x720","1280x585",NA,NA,0,"Task Introduction and Instructions (re-introduce video and audio) (Clone) (Clone)",3,"CDBEAFHG","Passed AC2",NA,"spreadsheet_4","Spreadsheet1","Spreadsheet1",1,"Task Instructions","Screen 13","q9vwda",6,"continue","",5462.1,5450,5462.1,5462.1,5450,5462.1,1,5462.1,0,0,NA,"Click To Continue","Continue Button",2,"object-2989","Task Instructions",NA,"SUPSCO61449"
"8",1718725613676,"18/06/2024 15:46:53",1718729213676,1,"18/06/2024 17:46:53",177048,9,"task-xk4o",NA,38358529,11274425,NA,"complete",NA,"computer","Desktop or Laptop","Windows 10","Chrome 125.0.0.0","1280x720","1280x585",NA,NA,0,"Task Introduction and Instructions (re-introduce video and audio) (Clone) (Clone)",3,"CDBEAFHG","Passed AC2",NA,"spreadsheet_4","Spreadsheet1","Spreadsheet1",1,"Task Instructions","Screen 11","oyulb7",7,"continue","",3913.6,3899.6,3913.6,3913.6,3899.6,3913.6,1,3913.6,0,0,NA,"Click To Continue","Continue Button",2,"object-52","Task Instructions",NA,"SUPSCO61449"
"9",1718725616626,"18/06/2024 15:46:56",1718729216626,1,"18/06/2024 17:46:56",177048,9,"task-xk4o",NA,38358529,11274425,NA,"complete",NA,"computer","Desktop or Laptop","Windows 10","Chrome 125.0.0.0","1280x720","1280x585",NA,NA,0,"Task Introduction and Instructions (re-introduce video and audio) (Clone) (Clone)",3,"CDBEAFHG","Passed AC2",NA,"spreadsheet_4","Spreadsheet1","Spreadsheet1",1,"Task Instructions","Screen 5","8nvnao",8,"continue","",2963.90000009537,2949.9,2963.90000009537,2963.90000009537,2949.9,2963.90000009537,1,2963.90000009537,0,0,NA,"Click To Continue","Continue Button",2,"object-44","Task Instructions",NA,"SUPSCO61449"
"10",1718725616629,"18/06/2024 15:46:56",1718729216629,1,"18/06/2024 17:46:56",177048,9,"task-xk4o",NA,38358529,11274425,NA,"complete",NA,"computer","Desktop or Laptop","Windows 10","Chrome 125.0.0.0","1280x720","1280x585",NA,NA,0,"Task Introduction and Instructions (re-introduce video and audio) (Clone) (Clone)",3,"CDBEAFHG","Passed AC2",NA,"spreadsheet_4","Spreadsheet1","Spreadsheet1",NA,"","","",NA,"info","END",NA,NA,NA,NA,NA,NA,0,NA,NA,NA,NA,"","",NA,"","",NA,"SUPSCO61449"
"1",1719224021197,"24/06/2024 10:13:41",1719227621197,1,"24/06/2024 12:13:41",177048,9,"task-xk4o",NA,38452884,11302443,NA,"complete",NA,"computer","Desktop or Laptop","Windows 10","Chrome 126.0.0.0","1280x800","1280x665",NA,NA,0,"Task Introduction and Instructions (re-introduce video and audio) (Clone) (Clone)",3,"DECFBGAH","Passed AC2",NA,"spreadsheet","Spreadsheet1","Spreadsheet1",NA,"","","",NA,"info","BEGIN",NA,NA,NA,NA,NA,NA,0,NA,NA,NA,NA,"","",NA,"","",NA,"SUPSCO91602"
"2",1719224025094,"24/06/2024 10:13:45",1719227625094,1,"24/06/2024 12:13:45",177048,9,"task-xk4o",NA,38452884,11302443,NA,"complete",NA,"computer","Desktop or Laptop","Windows 10","Chrome 126.0.0.0","1280x800","1280x665",NA,NA,0,"Task Introduction and Instructions (re-introduce video and audio) (Clone) (Clone)",3,"DECFBGAH","Passed AC2",NA,"spreadsheet","Spreadsheet1","Spreadsheet1",1,"Task Instructions","Screen 1","anr7sn",1,"continue","",3693.20000007153,3683.3,3693.20000007153,3693.20000007153,3683.3,3693.20000007153,1,3693.20000007153,0,0,NA,"Click To Continue","Continue Button",3,"object-60","Task Instructions",NA,"SUPSCO91602"
"3",1719224027882,"24/06/2024 10:13:47",1719227627882,1,"24/06/2024 12:13:47",177048,9,"task-xk4o",NA,38452884,11302443,NA,"complete",NA,"computer","Desktop or Laptop","Windows 10","Chrome 126.0.0.0","1280x800","1280x665",NA,NA,0,"Task Introduction and Instructions (re-introduce video and audio) (Clone) (Clone)",3,"DECFBGAH","Passed AC2",NA,"spreadsheet","Spreadsheet1","Spreadsheet1",1,"Task Instructions","Screen 4","spepx9",2,"continue","",2798.30000004768,2783.5,2798.30000004768,2798.30000004768,2783.5,2798.30000004768,1,2798.30000004768,0,0,NA,"Click To Continue","Continue Button",2,"object-9","Task Instructions",NA,"SUPSCO91602"
"4",1719224036059,"24/06/2024 10:13:56",1719227636059,1,"24/06/2024 12:13:56",177048,9,"task-xk4o",NA,38452884,11302443,NA,"complete",NA,"computer","Desktop or Laptop","Windows 10","Chrome 126.0.0.0","1280x800","1280x665",NA,NA,0,"Task Introduction and Instructions (re-introduce video and audio) (Clone) (Clone)",3,"DECFBGAH","Passed AC2",NA,"spreadsheet","Spreadsheet1","Spreadsheet1",1,"Task Instructions","Screen 2","ce2tc8",3,"continue","",8191.70000002384,8183.8,8191.70000002384,8191.70000002384,8183.8,8191.70000002384,1,8191.70000002384,0,0,NA,"Click To Continue","Continue Button",3,"object-59","Task Instructions",NA,"SUPSCO91602"
"5",1719224043685,"24/06/2024 10:14:03",1719227643685,1,"24/06/2024 12:14:03",177048,9,"task-xk4o",NA,38452884,11302443,NA,"complete",NA,"computer","Desktop or Laptop","Windows 10","Chrome 126.0.0.0","1280x800","1280x665",NA,NA,0,"Task Introduction and Instructions (re-introduce video and audio) (Clone) (Clone)",3,"DECFBGAH","Passed AC2",NA,"spreadsheet","Spreadsheet1","Spreadsheet1",1,"Task Instructions","Screen 3","1qtc8v",4,"continue","",7633.1,7616.5,7633.1,7633.1,7616.5,7633.1,1,7633.1,0,0,NA,"Click To Continue","Continue Button",2,"object-2983","Task Instructions",NA,"SUPSCO91602"
"6",1719224048707,"24/06/2024 10:14:08",1719227648707,1,"24/06/2024 12:14:08",177048,9,"task-xk4o",NA,38452884,11302443,NA,"complete",NA,"computer","Desktop or Laptop","Windows 10","Chrome 126.0.0.0","1280x800","1280x665",NA,NA,0,"Task Introduction and Instructions (re-introduce video and audio) (Clone) (Clone)",3,"DECFBGAH","Passed AC2",NA,"spreadsheet","Spreadsheet1","Spreadsheet1",1,"Task Instructions","Screen 12","1a4vu2",5,"continue","",5039.70000009537,5033.5,5039.70000009537,5039.70000009537,5033.5,5039.70000009537,1,5039.70000009537,0,0,NA,"Click To Continue","Continue Button",2,"object-2466","Task Instructions",NA,"SUPSCO91602"
"7",1719224053511,"24/06/2024 10:14:13",1719227653511,1,"24/06/2024 12:14:13",177048,9,"task-xk4o",NA,38452884,11302443,NA,"complete",NA,"computer","Desktop or Laptop","Windows 10","Chrome 126.0.0.0","1280x800","1280x665",NA,NA,0,"Task Introduction and Instructions (re-introduce video and audio) (Clone) (Clone)",3,"DECFBGAH","Passed AC2",NA,"spreadsheet","Spreadsheet1","Spreadsheet1",1,"Task Instructions","Screen 13","q9vwda",6,"continue","",4809.70000009537,4799.9,4809.70000009537,4809.70000009537,4799.9,4809.70000009537,1,4809.70000009537,0,0,NA,"Click To Continue","Continue Button",2,"object-2989","Task Instructions",NA,"SUPSCO91602"
"8",1719224056691,"24/06/2024 10:14:16",1719227656691,1,"24/06/2024 12:14:16",177048,9,"task-xk4o",NA,38452884,11302443,NA,"complete",NA,"computer","Desktop or Laptop","Windows 10","Chrome 126.0.0.0","1280x800","1280x665",NA,NA,0,"Task Introduction and Instructions (re-introduce video and audio) (Clone) (Clone)",3,"DECFBGAH","Passed AC2",NA,"spreadsheet","Spreadsheet1","Spreadsheet1",1,"Task Instructions","Screen 11","oyulb7",7,"continue","",3189.60000004769,3183.4,3189.60000004769,3189.60000004769,3183.4,3189.60000004769,1,3189.60000004769,0,0,NA,"Click To Continue","Continue Button",2,"object-52","Task Instructions",NA,"SUPSCO91602"
"9",1719224059672,"24/06/2024 10:14:19",1719227659672,1,"24/06/2024 12:14:19",177048,9,"task-xk4o",NA,38452884,11302443,NA,"complete",NA,"computer","Desktop or Laptop","Windows 10","Chrome 126.0.0.0","1280x800","1280x665",NA,NA,0,"Task Introduction and Instructions (re-introduce video and audio) (Clone) (Clone)",3,"DECFBGAH","Passed AC2",NA,"spreadsheet","Spreadsheet1","Spreadsheet1",1,"Task Instructions","Screen 5","8nvnao",8,"continue","",2987,2983.5,2987,2987,2983.5,2987,1,2987,0,0,NA,"Click To Continue","Continue Button",2,"object-44","Task Instructions",NA,"SUPSCO91602"
"10",1719224059675,"24/06/2024 10:14:19",1719227659675,1,"24/06/2024 12:14:19",177048,9,"task-xk4o",NA,38452884,11302443,NA,"complete",NA,"computer","Desktop or Laptop","Windows 10","Chrome 126.0.0.0","1280x800","1280x665",NA,NA,0,"Task Introduction and Instructions (re-introduce video and audio) (Clone) (Clone)",3,"DECFBGAH","Passed AC2",NA,"spreadsheet","Spreadsheet1","Spreadsheet1",NA,"","","",NA,"info","END",NA,NA,NA,NA,NA,NA,0,NA,NA,NA,NA,"","",NA,"","",NA,"SUPSCO91602"
"1",1719231209757,"24/06/2024 12:13:29",1719234809757,1,"24/06/2024 14:13:29",177048,9,"task-xk4o",NA,38456713,11304199,NA,"complete",NA,"computer","Desktop or Laptop","Windows 10","Chrome 126.0.0.0","1280x720","1280x720",NA,NA,0,"Task Introduction and Instructions (re-introduce video and audio) (Clone) (Clone)",3,"EFDGCHBA","Passed AC2",NA,"spreadsheet_3","Spreadsheet1","Spreadsheet1",NA,"","","",NA,"info","BEGIN",NA,NA,NA,NA,NA,NA,0,NA,NA,NA,NA,"","",NA,"","",NA,"SUPSCO79155"
"2",1719231213383,"24/06/2024 12:13:33",1719234813383,1,"24/06/2024 14:13:33",177048,9,"task-xk4o",NA,38456713,11304199,NA,"complete",NA,"computer","Desktop or Laptop","Windows 10","Chrome 126.0.0.0","1280x720","1280x720",NA,NA,0,"Task Introduction and Instructions (re-introduce video and audio) (Clone) (Clone)",3,"EFDGCHBA","Passed AC2",NA,"spreadsheet_3","Spreadsheet1","Spreadsheet1",1,"Task Instructions","Screen 1","anr7sn",1,"continue","",3527.10000000112,3516.7,3527.10000000112,3527.10000000112,3516.7,3527.10000000112,1,3527.10000000112,0,0,NA,"Click To Continue","Continue Button",3,"object-60","Task Instructions",NA,"SUPSCO79155"
"3",1719231216137,"24/06/2024 12:13:36",1719234816137,1,"24/06/2024 14:13:36",177048,9,"task-xk4o",NA,38456713,11304199,NA,"complete",NA,"computer","Desktop or Laptop","Windows 10","Chrome 126.0.0.0","1280x720","1280x720",NA,NA,0,"Task Introduction and Instructions (re-introduce video and audio) (Clone) (Clone)",3,"EFDGCHBA","Passed AC2",NA,"spreadsheet_3","Spreadsheet1","Spreadsheet1",1,"Task Instructions","Screen 4","spepx9",2,"continue","",2765.30000000149,2750.1,2765.30000000149,2765.30000000149,2750.1,2765.30000000149,1,2765.30000000149,0,0,NA,"Click To Continue","Continue Button",2,"object-9","Task Instructions",NA,"SUPSCO79155"
"4",1719231221940,"24/06/2024 12:13:41",1719234821940,1,"24/06/2024 14:13:41",177048,9,"task-xk4o",NA,38456713,11304199,NA,"complete",NA,"computer","Desktop or Laptop","Windows 10","Chrome 126.0.0.0","1280x720","1280x720",NA,NA,0,"Task Introduction and Instructions (re-introduce video and audio) (Clone) (Clone)",3,"EFDGCHBA","Passed AC2",NA,"spreadsheet_3","Spreadsheet1","Spreadsheet1",1,"Task Instructions","Screen 2","ce2tc8",3,"continue","",5818.40000000075,5816.7,5818.40000000075,5818.40000000075,5816.7,5818.40000000075,1,5818.40000000075,0,0,NA,"Click To Continue","Continue Button",3,"object-59","Task Instructions",NA,"SUPSCO79155"
"5",1719231229698,"24/06/2024 12:13:49",1719234829698,1,"24/06/2024 14:13:49",177048,9,"task-xk4o",NA,38456713,11304199,NA,"complete",NA,"computer","Desktop or Laptop","Windows 10","Chrome 126.0.0.0","1280x720","1280x720",NA,NA,0,"Task Introduction and Instructions (re-introduce video and audio) (Clone) (Clone)",3,"EFDGCHBA","Passed AC2",NA,"spreadsheet_3","Spreadsheet1","Spreadsheet1",1,"Task Instructions","Screen 3","1qtc8v",4,"continue","",7759.50000000149,7750.3,7759.50000000149,7759.50000000149,7750.3,7759.50000000149,1,7759.50000000149,0,0,NA,"Click To Continue","Continue Button",2,"object-2983","Task Instructions",NA,"SUPSCO79155"
"6",1719231238726,"24/06/2024 12:13:58",1719234838726,1,"24/06/2024 14:13:58",177048,9,"task-xk4o",NA,38456713,11304199,NA,"complete",NA,"computer","Desktop or Laptop","Windows 10","Chrome 126.0.0.0","1280x720","1280x720",NA,NA,0,"Task Introduction and Instructions (re-introduce video and audio) (Clone) (Clone)",3,"EFDGCHBA","Passed AC2",NA,"spreadsheet_3","Spreadsheet1","Spreadsheet1",1,"Task Instructions","Screen 12","1a4vu2",5,"continue","",9036.80000000112,9033.3,9036.80000000112,9036.80000000112,9033.3,9036.80000000112,1,9036.80000000112,0,0,NA,"Click To Continue","Continue Button",2,"object-2466","Task Instructions",NA,"SUPSCO79155"
"7",1719231243430,"24/06/2024 12:14:03",1719234843430,1,"24/06/2024 14:14:03",177048,9,"task-xk4o",NA,38456713,11304199,NA,"complete",NA,"computer","Desktop or Laptop","Windows 10","Chrome 126.0.0.0","1280x720","1280x720",NA,NA,0,"Task Introduction and Instructions (re-introduce video and audio) (Clone) (Clone)",3,"EFDGCHBA","Passed AC2",NA,"spreadsheet_3","Spreadsheet1","Spreadsheet1",1,"Task Instructions","Screen 13","q9vwda",6,"continue","",4708.3,4700,4708.3,4708.3,4700,4708.3,1,4708.3,0,0,NA,"Click To Continue","Continue Button",2,"object-2989","Task Instructions",NA,"SUPSCO79155"
"8",1719231249796,"24/06/2024 12:14:09",1719234849796,1,"24/06/2024 14:14:09",177048,9,"task-xk4o",NA,38456713,11304199,NA,"complete",NA,"computer","Desktop or Laptop","Windows 10","Chrome 126.0.0.0","1280x720","1280x720",NA,NA,0,"Task Introduction and Instructions (re-introduce video and audio) (Clone) (Clone)",3,"EFDGCHBA","Passed AC2",NA,"spreadsheet_3","Spreadsheet1","Spreadsheet1",1,"Task Instructions","Screen 11","oyulb7",7,"continue","",6373.8,6367,6373.8,6373.8,6367,6373.8,1,6373.8,0,0,NA,"Click To Continue","Continue Button",2,"object-52","Task Instructions",NA,"SUPSCO79155"
"9",1719231252307,"24/06/2024 12:14:12",1719234852307,1,"24/06/2024 14:14:12",177048,9,"task-xk4o",NA,38456713,11304199,NA,"complete",NA,"computer","Desktop or Laptop","Windows 10","Chrome 126.0.0.0","1280x720","1280x720",NA,NA,0,"Task Introduction and Instructions (re-introduce video and audio) (Clone) (Clone)",3,"EFDGCHBA","Passed AC2",NA,"spreadsheet_3","Spreadsheet1","Spreadsheet1",1,"Task Instructions","Screen 5","8nvnao",8,"continue","",2518.50000000112,2516.5,2518.50000000112,2518.50000000112,2516.5,2518.50000000112,1,2518.50000000112,0,0,NA,"Click To Continue","Continue Button",2,"object-44","Task Instructions",NA,"SUPSCO79155"
"10",1719231252311,"24/06/2024 12:14:12",1719234852311,1,"24/06/2024 14:14:12",177048,9,"task-xk4o",NA,38456713,11304199,NA,"complete",NA,"computer","Desktop or Laptop","Windows 10","Chrome 126.0.0.0","1280x720","1280x720",NA,NA,0,"Task Introduction and Instructions (re-introduce video and audio) (Clone) (Clone)",3,"EFDGCHBA","Passed AC2",NA,"spreadsheet_3","Spreadsheet1","Spreadsheet1",NA,"","","",NA,"info","END",NA,NA,NA,NA,NA,NA,0,NA,NA,NA,NA,"","",NA,"","",NA,"SUPSCO79155"
"1",1719244025924,"24/06/2024 15:47:05",1719247625924,1,"24/06/2024 17:47:05",177048,9,"task-xk4o",NA,38461920,11306131,NA,"complete",NA,"computer","Desktop or Laptop","Windows 10","Chrome 126.0.0.0","1920x1080","1920x953",NA,NA,0,"Task Introduction and Instructions (re-introduce video and audio) (Clone) (Clone)",3,"FGEHDACB","Passed AC2",NA,"spreadsheet","Spreadsheet1","Spreadsheet1",NA,"","","",NA,"info","BEGIN",NA,NA,NA,NA,NA,NA,0,NA,NA,NA,NA,"","",NA,"","",NA,"SUPSCO01588"
"2",1719244030587,"24/06/2024 15:47:10",1719247630587,1,"24/06/2024 17:47:10",177048,9,"task-xk4o",NA,38461920,11306131,NA,"complete",NA,"computer","Desktop or Laptop","Windows 10","Chrome 126.0.0.0","1920x1080","1920x953",NA,NA,0,"Task Introduction and Instructions (re-introduce video and audio) (Clone) (Clone)",3,"FGEHDACB","Passed AC2",NA,"spreadsheet","Spreadsheet1","Spreadsheet1",1,"Task Instructions","Screen 1","anr7sn",1,"continue","",4500.09999999981,4496.3,4500.09999999981,4500.09999999981,4496.3,4500.09999999981,1,4500.09999999981,0,0,NA,"Click To Continue","Continue Button",3,"object-60","Task Instructions",NA,"SUPSCO01588"
"3",1719244034170,"24/06/2024 15:47:14",1719247634170,1,"24/06/2024 17:47:14",177048,9,"task-xk4o",NA,38461920,11306131,NA,"complete",NA,"computer","Desktop or Laptop","Windows 10","Chrome 126.0.0.0","1920x1080","1920x953",NA,NA,0,"Task Introduction and Instructions (re-introduce video and audio) (Clone) (Clone)",3,"FGEHDACB","Passed AC2",NA,"spreadsheet","Spreadsheet1","Spreadsheet1",1,"Task Instructions","Screen 4","spepx9",2,"continue","",3587.39999999991,3583.7,3587.39999999991,3587.39999999991,3583.7,3587.39999999991,1,3587.39999999991,0,0,NA,"Click To Continue","Continue Button",2,"object-9","Task Instructions",NA,"SUPSCO01588"
"4",1719244043162,"24/06/2024 15:47:23",1719247643162,1,"24/06/2024 17:47:23",177048,9,"task-xk4o",NA,38461920,11306131,NA,"complete",NA,"computer","Desktop or Laptop","Windows 10","Chrome 126.0.0.0","1920x1080","1920x953",NA,NA,0,"Task Introduction and Instructions (re-introduce video and audio) (Clone) (Clone)",3,"FGEHDACB","Passed AC2",NA,"spreadsheet","Spreadsheet1","Spreadsheet1",1,"Task Instructions","Screen 2","ce2tc8",3,"continue","",8995.59999999981,8992.5,8995.59999999981,8995.59999999981,8992.5,8995.59999999981,1,8995.59999999981,0,0,NA,"Click To Continue","Continue Button",3,"object-59","Task Instructions",NA,"SUPSCO01588"
"5",1719244051355,"24/06/2024 15:47:31",1719247651355,1,"24/06/2024 17:47:31",177048,9,"task-xk4o",NA,38461920,11306131,NA,"complete",NA,"computer","Desktop or Laptop","Windows 10","Chrome 126.0.0.0","1920x1080","1920x953",NA,NA,0,"Task Introduction and Instructions (re-introduce video and audio) (Clone) (Clone)",3,"FGEHDACB","Passed AC2",NA,"spreadsheet","Spreadsheet1","Spreadsheet1",1,"Task Instructions","Screen 3","1qtc8v",4,"continue","",8195.8,8192.5,8195.8,8195.8,8192.5,8195.8,1,8195.8,0,0,NA,"Click To Continue","Continue Button",2,"object-2983","Task Instructions",NA,"SUPSCO01588"
"6",1719244061450,"24/06/2024 15:47:41",1719247661450,1,"24/06/2024 17:47:41",177048,9,"task-xk4o",NA,38461920,11306131,NA,"complete",NA,"computer","Desktop or Laptop","Windows 10","Chrome 126.0.0.0","1920x1080","1920x953",NA,NA,0,"Task Introduction and Instructions (re-introduce video and audio) (Clone) (Clone)",3,"FGEHDACB","Passed AC2",NA,"spreadsheet","Spreadsheet1","Spreadsheet1",1,"Task Instructions","Screen 12","1a4vu2",5,"continue","",10098.3,10097,10098.3,10098.3,10097,10098.3,1,10098.3,0,0,NA,"Click To Continue","Continue Button",2,"object-2466","Task Instructions",NA,"SUPSCO01588"
"7",1719244068130,"24/06/2024 15:47:48",1719247668130,1,"24/06/2024 17:47:48",177048,9,"task-xk4o",NA,38461920,11306131,NA,"complete",NA,"computer","Desktop or Laptop","Windows 10","Chrome 126.0.0.0","1920x1080","1920x953",NA,NA,0,"Task Introduction and Instructions (re-introduce video and audio) (Clone) (Clone)",3,"FGEHDACB","Passed AC2",NA,"spreadsheet","Spreadsheet1","Spreadsheet1",1,"Task Instructions","Screen 13","q9vwda",6,"continue","",6680.89999999986,6679.8,6680.89999999986,6680.89999999986,6679.8,6680.89999999986,1,6680.89999999986,0,0,NA,"Click To Continue","Continue Button",2,"object-2989","Task Instructions",NA,"SUPSCO01588"
"8",1719244071466,"24/06/2024 15:47:51",1719247671466,1,"24/06/2024 17:47:51",177048,9,"task-xk4o",NA,38461920,11306131,NA,"complete",NA,"computer","Desktop or Laptop","Windows 10","Chrome 126.0.0.0","1920x1080","1920x953",NA,NA,0,"Task Introduction and Instructions (re-introduce video and audio) (Clone) (Clone)",3,"FGEHDACB","Passed AC2",NA,"spreadsheet","Spreadsheet1","Spreadsheet1",1,"Task Instructions","Screen 11","oyulb7",7,"continue","",3337.09999999986,3333.7,3337.09999999986,3337.09999999986,3333.7,3337.09999999986,1,3337.09999999986,0,0,NA,"Click To Continue","Continue Button",2,"object-52","Task Instructions",NA,"SUPSCO01588"
"9",1719244073721,"24/06/2024 15:47:53",1719247673721,1,"24/06/2024 17:47:53",177048,9,"task-xk4o",NA,38461920,11306131,NA,"complete",NA,"computer","Desktop or Laptop","Windows 10","Chrome 126.0.0.0","1920x1080","1920x953",NA,NA,0,"Task Introduction and Instructions (re-introduce video and audio) (Clone) (Clone)",3,"FGEHDACB","Passed AC2",NA,"spreadsheet","Spreadsheet1","Spreadsheet1",1,"Task Instructions","Screen 5","8nvnao",8,"continue","",2259.19999999991,2258.60000000001,2259.19999999991,2259.19999999991,2258.60000000001,2259.19999999991,1,2259.19999999991,0,0,NA,"Click To Continue","Continue Button",2,"object-44","Task Instructions",NA,"SUPSCO01588"
"10",1719244073723,"24/06/2024 15:47:53",1719247673723,1,"24/06/2024 17:47:53",177048,9,"task-xk4o",NA,38461920,11306131,NA,"complete",NA,"computer","Desktop or Laptop","Windows 10","Chrome 126.0.0.0","1920x1080","1920x953",NA,NA,0,"Task Introduction and Instructions (re-introduce video and audio) (Clone) (Clone)",3,"FGEHDACB","Passed AC2",NA,"spreadsheet","Spreadsheet1","Spreadsheet1",NA,"","","",NA,"info","END",NA,NA,NA,NA,NA,NA,0,NA,NA,NA,NA,"","",NA,"","",NA,"SUPSCO01588"
"1",1719328566071,"25/06/2024 15:16:06",1719332166071,1,"25/06/2024 17:16:06",177048,9,"task-xk4o",NA,38487707,11312573,NA,"complete",NA,"computer","Desktop or Laptop","Windows 10","Chrome 126.0.0.0","1920x1080","1920x989",NA,NA,0,"Task Introduction and Instructions (re-introduce video and audio) (Clone) (Clone)",3,"GHFAEBDC","Passed AC2",NA,"spreadsheet_5","Spreadsheet1","Spreadsheet1",NA,"","","",NA,"info","BEGIN",NA,NA,NA,NA,NA,NA,0,NA,NA,NA,NA,"","",NA,"","",NA,"SUPSCO20104"
"2",1719328570446,"25/06/2024 15:16:10",1719332170446,1,"25/06/2024 17:16:10",177048,9,"task-xk4o",NA,38487707,11312573,NA,"complete",NA,"computer","Desktop or Laptop","Windows 10","Chrome 126.0.0.0","1920x1080","1920x989",NA,NA,0,"Task Introduction and Instructions (re-introduce video and audio) (Clone) (Clone)",3,"GHFAEBDC","Passed AC2",NA,"spreadsheet_5","Spreadsheet1","Spreadsheet1",1,"Task Instructions","Screen 1","anr7sn",1,"continue","",4201.5,4188.2,4201.5,4201.5,4188.2,4201.5,1,4201.5,0,0,NA,"Click To Continue","Continue Button",3,"object-60","Task Instructions",NA,"SUPSCO20104"
"3",1719328573851,"25/06/2024 15:16:13",1719332173851,1,"25/06/2024 17:16:13",177048,9,"task-xk4o",NA,38487707,11312573,NA,"complete",NA,"computer","Desktop or Laptop","Windows 10","Chrome 126.0.0.0","1920x1080","1920x989",NA,NA,0,"Task Introduction and Instructions (re-introduce video and audio) (Clone) (Clone)",3,"GHFAEBDC","Passed AC2",NA,"spreadsheet_5","Spreadsheet1","Spreadsheet1",1,"Task Instructions","Screen 4","spepx9",2,"continue","",3419.59999999404,3414.7,3419.59999999404,3419.59999999404,3414.7,3419.59999999404,1,3419.59999999404,0,0,NA,"Click To Continue","Continue Button",2,"object-9","Task Instructions",NA,"SUPSCO20104"
"4",1719328685209,"25/06/2024 15:18:05",1719332285209,1,"25/06/2024 17:18:05",177048,9,"task-xk4o",NA,38487707,11312573,NA,"complete",NA,"computer","Desktop or Laptop","Windows 10","Chrome 126.0.0.0","1920x1080","1920x989",NA,NA,0,"Task Introduction and Instructions (re-introduce video and audio) (Clone) (Clone)",3,"GHFAEBDC","Passed AC2",NA,"spreadsheet_5","Spreadsheet1","Spreadsheet1",1,"Task Instructions","Screen 2","ce2tc8",3,"continue","",111362.3,111361,111362.3,111362.3,111361,111362.3,1,111362.3,0,0,NA,"Click To Continue","Continue Button",3,"object-59","Task Instructions",NA,"SUPSCO20104"
"5",1719328692901,"25/06/2024 15:18:12",1719332292901,1,"25/06/2024 17:18:12",177048,9,"task-xk4o",NA,38487707,11312573,NA,"complete",NA,"computer","Desktop or Laptop","Windows 10","Chrome 126.0.0.0","1920x1080","1920x989",NA,NA,0,"Task Introduction and Instructions (re-introduce video and audio) (Clone) (Clone)",3,"GHFAEBDC","Passed AC2",NA,"spreadsheet_5","Spreadsheet1","Spreadsheet1",1,"Task Instructions","Screen 3","1qtc8v",4,"continue","",7693.19999997616,7682.90000000001,7693.19999997616,7693.19999997616,7682.90000000001,7693.19999997616,1,7693.19999997616,0,0,NA,"Click To Continue","Continue Button",2,"object-2983","Task Instructions",NA,"SUPSCO20104"
"6",1719328710886,"25/06/2024 15:18:30",1719332310886,1,"25/06/2024 17:18:30",177048,9,"task-xk4o",NA,38487707,11312573,NA,"complete",NA,"computer","Desktop or Laptop","Windows 10","Chrome 126.0.0.0","1920x1080","1920x989",NA,NA,0,"Task Introduction and Instructions (re-introduce video and audio) (Clone) (Clone)",3,"GHFAEBDC","Passed AC2",NA,"spreadsheet_5","Spreadsheet1","Spreadsheet1",1,"Task Instructions","Screen 12","1a4vu2",5,"continue","",17996.1999999821,17993.3,17996.1999999821,17996.1999999821,17993.3,17996.1999999821,1,17996.1999999821,0,0,NA,"Click To Continue","Continue Button",2,"object-2466","Task Instructions",NA,"SUPSCO20104"
"7",1719328751620,"25/06/2024 15:19:11",1719332351620,1,"25/06/2024 17:19:11",177048,9,"task-xk4o",NA,38487707,11312573,NA,"complete",NA,"computer","Desktop or Laptop","Windows 10","Chrome 126.0.0.0","1920x1080","1920x989",NA,NA,0,"Task Introduction and Instructions (re-introduce video and audio) (Clone) (Clone)",3,"GHFAEBDC","Passed AC2",NA,"spreadsheet_5","Spreadsheet1","Spreadsheet1",1,"Task Instructions","Screen 13","q9vwda",6,"continue","",40736.699999994,40735.1,40736.699999994,40736.699999994,40735.1,40736.699999994,1,40736.699999994,0,0,NA,"Click To Continue","Continue Button",2,"object-2989","Task Instructions",NA,"SUPSCO20104"
"8",1719328755950,"25/06/2024 15:19:15",1719332355950,1,"25/06/2024 17:19:15",177048,9,"task-xk4o",NA,38487707,11312573,NA,"complete",NA,"computer","Desktop or Laptop","Windows 10","Chrome 126.0.0.0","1920x1080","1920x989",NA,NA,0,"Task Introduction and Instructions (re-introduce video and audio) (Clone) (Clone)",3,"GHFAEBDC","Passed AC2",NA,"spreadsheet_5","Spreadsheet1","Spreadsheet1",1,"Task Instructions","Screen 11","oyulb7",7,"continue","",4331.19999998808,4321.39999999999,4331.19999998808,4331.19999998808,4321.39999999999,4331.19999998808,1,4331.19999998808,0,0,NA,"Click To Continue","Continue Button",2,"object-52","Task Instructions",NA,"SUPSCO20104"
"9",1719328758958,"25/06/2024 15:19:18",1719332358958,1,"25/06/2024 17:19:18",177048,9,"task-xk4o",NA,38487707,11312573,NA,"complete",NA,"computer","Desktop or Laptop","Windows 10","Chrome 126.0.0.0","1920x1080","1920x989",NA,NA,0,"Task Introduction and Instructions (re-introduce video and audio) (Clone) (Clone)",3,"GHFAEBDC","Passed AC2",NA,"spreadsheet_5","Spreadsheet1","Spreadsheet1",1,"Task Instructions","Screen 5","8nvnao",8,"continue","",3018.19999999405,3014.5,3018.19999999405,3018.19999999405,3014.5,3018.19999999405,1,3018.19999999405,0,0,NA,"Click To Continue","Continue Button",2,"object-44","Task Instructions",NA,"SUPSCO20104"
"10",1719328758960,"25/06/2024 15:19:18",1719332358960,1,"25/06/2024 17:19:18",177048,9,"task-xk4o",NA,38487707,11312573,NA,"complete",NA,"computer","Desktop or Laptop","Windows 10","Chrome 126.0.0.0","1920x1080","1920x989",NA,NA,0,"Task Introduction and Instructions (re-introduce video and audio) (Clone) (Clone)",3,"GHFAEBDC","Passed AC2",NA,"spreadsheet_5","Spreadsheet1","Spreadsheet1",NA,"","","",NA,"info","END",NA,NA,NA,NA,NA,NA,0,NA,NA,NA,NA,"","",NA,"","",NA,"SUPSCO20104"
"1",1719414930946,"26/06/2024 15:15:30",1719418530946,1,"26/06/2024 17:15:30",177048,9,"task-xk4o",NA,38522931,11318958,NA,"complete",NA,"computer","Desktop or Laptop","Windows 10","Chrome 126.0.0.0","1920x1080","1920x911",NA,NA,0,"Task Introduction and Instructions (re-introduce video and audio) (Clone) (Clone)",3,"ABHCGDFE","Passed AC2",NA,"spreadsheet_4","Spreadsheet1","Spreadsheet1",NA,"","","",NA,"info","BEGIN",NA,NA,NA,NA,NA,NA,0,NA,NA,NA,NA,"","",NA,"","",NA,"SUPSCO83190"
"2",1719414941767,"26/06/2024 15:15:41",1719418541767,1,"26/06/2024 17:15:41",177048,9,"task-xk4o",NA,38522931,11318958,NA,"complete",NA,"computer","Desktop or Laptop","Windows 10","Chrome 126.0.0.0","1920x1080","1920x911",NA,NA,0,"Task Introduction and Instructions (re-introduce video and audio) (Clone) (Clone)",3,"ABHCGDFE","Passed AC2",NA,"spreadsheet_4","Spreadsheet1","Spreadsheet1",1,"Task Instructions","Screen 1","anr7sn",1,"continue","",10643.7,10633.1,10643.7,10643.7,10633.1,10643.7,1,10643.7,0,0,NA,"Click To Continue","Continue Button",3,"object-60","Task Instructions",NA,"SUPSCO83190"
"3",1719414947295,"26/06/2024 15:15:47",1719418547295,1,"26/06/2024 17:15:47",177048,9,"task-xk4o",NA,38522931,11318958,NA,"complete",NA,"computer","Desktop or Laptop","Windows 10","Chrome 126.0.0.0","1920x1080","1920x911",NA,NA,0,"Task Introduction and Instructions (re-introduce video and audio) (Clone) (Clone)",3,"ABHCGDFE","Passed AC2",NA,"spreadsheet_4","Spreadsheet1","Spreadsheet1",1,"Task Instructions","Screen 4","spepx9",2,"continue","",5538.49999961853,5533.1,5538.49999961853,5538.49999961853,5533.1,5538.49999961853,1,5538.49999961853,0,0,NA,"Click To Continue","Continue Button",2,"object-9","Task Instructions",NA,"SUPSCO83190"
"4",1719414968949,"26/06/2024 15:16:08",1719418568949,1,"26/06/2024 17:16:08",177048,9,"task-xk4o",NA,38522931,11318958,NA,"complete",NA,"computer","Desktop or Laptop","Windows 10","Chrome 126.0.0.0","1920x1080","1920x911",NA,NA,0,"Task Introduction and Instructions (re-introduce video and audio) (Clone) (Clone)",3,"ABHCGDFE","Passed AC2",NA,"spreadsheet_4","Spreadsheet1","Spreadsheet1",1,"Task Instructions","Screen 2","ce2tc8",3,"continue","",21659,21648.9,21659,21659,21648.9,21659,1,21659,0,0,NA,"Click To Continue","Continue Button",3,"object-59","Task Instructions",NA,"SUPSCO83190"
"5",1719414989298,"26/06/2024 15:16:29",1719418589298,1,"26/06/2024 17:16:29",177048,9,"task-xk4o",NA,38522931,11318958,NA,"complete",NA,"computer","Desktop or Laptop","Windows 10","Chrome 126.0.0.0","1920x1080","1920x911",NA,NA,0,"Task Introduction and Instructions (re-introduce video and audio) (Clone) (Clone)",3,"ABHCGDFE","Passed AC2",NA,"spreadsheet_4","Spreadsheet1","Spreadsheet1",1,"Task Instructions","Screen 3","1qtc8v",4,"continue","",20359.6999999046,20349,20359.6999999046,20359.6999999046,20349,20359.6999999046,1,20359.6999999046,0,0,NA,"Click To Continue","Continue Button",2,"object-2983","Task Instructions",NA,"SUPSCO83190"
"6",1719415007649,"26/06/2024 15:16:47",1719418607649,1,"26/06/2024 17:16:47",177048,9,"task-xk4o",NA,38522931,11318958,NA,"complete",NA,"computer","Desktop or Laptop","Windows 10","Chrome 126.0.0.0","1920x1080","1920x911",NA,NA,0,"Task Introduction and Instructions (re-introduce video and audio) (Clone) (Clone)",3,"ABHCGDFE","Passed AC2",NA,"spreadsheet_4","Spreadsheet1","Spreadsheet1",1,"Task Instructions","Screen 12","1a4vu2",5,"continue","",18361.1,18349,18361.1,18361.1,18349,18361.1,1,18361.1,0,0,NA,"Click To Continue","Continue Button",2,"object-2466","Task Instructions",NA,"SUPSCO83190"
"7",1719415011823,"26/06/2024 15:16:51",1719418611823,1,"26/06/2024 17:16:51",177048,9,"task-xk4o",NA,38522931,11318958,NA,"complete",NA,"computer","Desktop or Laptop","Windows 10","Chrome 126.0.0.0","1920x1080","1920x911",NA,NA,0,"Task Introduction and Instructions (re-introduce video and audio) (Clone) (Clone)",3,"ABHCGDFE","Passed AC2",NA,"spreadsheet_4","Spreadsheet1","Spreadsheet1",1,"Task Instructions","Screen 13","q9vwda",6,"continue","",4186.29999980927,4182.8,4186.29999980927,4186.29999980927,4182.8,4186.29999980927,1,4186.29999980927,0,0,NA,"Click To Continue","Continue Button",2,"object-2989","Task Instructions",NA,"SUPSCO83190"
"8",1719415021398,"26/06/2024 15:17:01",1719418621398,1,"26/06/2024 17:17:01",177048,9,"task-xk4o",NA,38522931,11318958,NA,"complete",NA,"computer","Desktop or Laptop","Windows 10","Chrome 126.0.0.0","1920x1080","1920x911",NA,NA,0,"Task Introduction and Instructions (re-introduce video and audio) (Clone) (Clone)",3,"ABHCGDFE","Passed AC2",NA,"spreadsheet_4","Spreadsheet1","Spreadsheet1",1,"Task Instructions","Screen 11","oyulb7",7,"continue","",9578.49999980927,9566.7,9578.49999980927,9578.49999980927,9566.7,9578.49999980927,1,9578.49999980927,0,0,NA,"Click To Continue","Continue Button",2,"object-52","Task Instructions",NA,"SUPSCO83190"
"9",1719415024892,"26/06/2024 15:17:04",1719418624892,1,"26/06/2024 17:17:04",177048,9,"task-xk4o",NA,38522931,11318958,NA,"complete",NA,"computer","Desktop or Laptop","Windows 10","Chrome 126.0.0.0","1920x1080","1920x911",NA,NA,0,"Task Introduction and Instructions (re-introduce video and audio) (Clone) (Clone)",3,"ABHCGDFE","Passed AC2",NA,"spreadsheet_4","Spreadsheet1","Spreadsheet1",1,"Task Instructions","Screen 5","8nvnao",8,"continue","",3505.3999997139,3499.40000000001,3505.3999997139,3505.3999997139,3499.40000000001,3505.3999997139,1,3505.3999997139,0,0,NA,"Click To Continue","Continue Button",2,"object-44","Task Instructions",NA,"SUPSCO83190"
"10",1719415024894,"26/06/2024 15:17:04",1719418624894,1,"26/06/2024 17:17:04",177048,9,"task-xk4o",NA,38522931,11318958,NA,"complete",NA,"computer","Desktop or Laptop","Windows 10","Chrome 126.0.0.0","1920x1080","1920x911",NA,NA,0,"Task Introduction and Instructions (re-introduce video and audio) (Clone) (Clone)",3,"ABHCGDFE","Passed AC2",NA,"spreadsheet_4","Spreadsheet1","Spreadsheet1",NA,"","","",NA,"info","END",NA,NA,NA,NA,NA,NA,0,NA,NA,NA,NA,"","",NA,"","",NA,"SUPSCO83190"
"1",1719416325820,"26/06/2024 15:38:45",1719419925820,1,"26/06/2024 17:38:45",177048,9,"task-xk4o",NA,38523544,11319146,NA,"complete",NA,"computer","Desktop or Laptop","Windows 10","Chrome 126.0.0.0","2560x1440","2560x1440",NA,NA,0,"Task Introduction and Instructions (re-introduce video and audio) (Clone) (Clone)",3,"BCADHEGF","Passed AC2",NA,"spreadsheet_3","Spreadsheet1","Spreadsheet1",NA,"","","",NA,"info","BEGIN",NA,NA,NA,NA,NA,NA,0,NA,NA,NA,NA,"","",NA,"","",NA,"SUPSCO41800"
"2",1719416329508,"26/06/2024 15:38:49",1719419929508,1,"26/06/2024 17:38:49",177048,9,"task-xk4o",NA,38523544,11319146,NA,"complete",NA,"computer","Desktop or Laptop","Windows 10","Chrome 126.0.0.0","2560x1440","2560x1440",NA,NA,0,"Task Introduction and Instructions (re-introduce video and audio) (Clone) (Clone)",3,"BCADHEGF","Passed AC2",NA,"spreadsheet_3","Spreadsheet1","Spreadsheet1",1,"Task Instructions","Screen 1","anr7sn",1,"continue","",3643.49999995232,3636.3,3643.49999995232,3643.49999995232,3636.3,3643.49999995232,1,3643.49999995232,0,0,NA,"Click To Continue","Continue Button",3,"object-60","Task Instructions",NA,"SUPSCO41800"
"3",1719416332577,"26/06/2024 15:38:52",1719419932577,1,"26/06/2024 17:38:52",177048,9,"task-xk4o",NA,38523544,11319146,NA,"complete",NA,"computer","Desktop or Laptop","Windows 10","Chrome 126.0.0.0","2560x1440","2560x1440",NA,NA,0,"Task Introduction and Instructions (re-introduce video and audio) (Clone) (Clone)",3,"BCADHEGF","Passed AC2",NA,"spreadsheet_3","Spreadsheet1","Spreadsheet1",1,"Task Instructions","Screen 4","spepx9",2,"continue","",3076.10000004768,3069.5,3076.10000004768,3076.10000004768,3069.5,3076.10000004768,1,3076.10000004768,0,0,NA,"Click To Continue","Continue Button",2,"object-9","Task Instructions",NA,"SUPSCO41800"
"4",1719416339388,"26/06/2024 15:38:59",1719419939388,1,"26/06/2024 17:38:59",177048,9,"task-xk4o",NA,38523544,11319146,NA,"complete",NA,"computer","Desktop or Laptop","Windows 10","Chrome 126.0.0.0","2560x1440","2560x1440",NA,NA,0,"Task Introduction and Instructions (re-introduce video and audio) (Clone) (Clone)",3,"BCADHEGF","Passed AC2",NA,"spreadsheet_3","Spreadsheet1","Spreadsheet1",1,"Task Instructions","Screen 2","ce2tc8",3,"continue","",6817.80000009537,6805.6,6817.80000009537,6817.80000009537,6805.6,6817.80000009537,1,6817.80000009537,0,0,NA,"Click To Continue","Continue Button",3,"object-59","Task Instructions",NA,"SUPSCO41800"
"5",1719416344842,"26/06/2024 15:39:04",1719419944842,1,"26/06/2024 17:39:04",177048,9,"task-xk4o",NA,38523544,11319146,NA,"complete",NA,"computer","Desktop or Laptop","Windows 10","Chrome 126.0.0.0","2560x1440","2560x1440",NA,NA,0,"Task Introduction and Instructions (re-introduce video and audio) (Clone) (Clone)",3,"BCADHEGF","Passed AC2",NA,"spreadsheet_3","Spreadsheet1","Spreadsheet1",1,"Task Instructions","Screen 3","1qtc8v",4,"continue","",5466.59999995232,5455.1,5466.59999995232,5466.59999995232,5455.1,5466.59999995232,1,5466.59999995232,0,0,NA,"Click To Continue","Continue Button",2,"object-2983","Task Instructions",NA,"SUPSCO41800"
"6",1719416347469,"26/06/2024 15:39:07",1719419947469,1,"26/06/2024 17:39:07",177048,9,"task-xk4o",NA,38523544,11319146,NA,"complete",NA,"computer","Desktop or Laptop","Windows 10","Chrome 126.0.0.0","2560x1440","2560x1440",NA,NA,0,"Task Introduction and Instructions (re-introduce video and audio) (Clone) (Clone)",3,"BCADHEGF","Passed AC2",NA,"spreadsheet_3","Spreadsheet1","Spreadsheet1",1,"Task Instructions","Screen 12","1a4vu2",5,"continue","",2638.49999995232,2635.3,2638.49999995232,2638.49999995232,2635.3,2638.49999995232,1,2638.49999995232,0,0,NA,"Click To Continue","Continue Button",2,"object-2466","Task Instructions",NA,"SUPSCO41800"
"7",1719416352051,"26/06/2024 15:39:12",1719419952051,1,"26/06/2024 17:39:12",177048,9,"task-xk4o",NA,38523544,11319146,NA,"complete",NA,"computer","Desktop or Laptop","Windows 10","Chrome 126.0.0.0","2560x1440","2560x1440",NA,NA,0,"Task Introduction and Instructions (re-introduce video and audio) (Clone) (Clone)",3,"BCADHEGF","Passed AC2",NA,"spreadsheet_3","Spreadsheet1","Spreadsheet1",1,"Task Instructions","Screen 13","q9vwda",6,"continue","",4584.49999990463,4570.3,4584.49999990463,4584.49999990463,4570.3,4584.49999990463,1,4584.49999990463,0,0,NA,"Click To Continue","Continue Button",2,"object-2989","Task Instructions",NA,"SUPSCO41800"
"8",1719416356495,"26/06/2024 15:39:16",1719419956495,1,"26/06/2024 17:39:16",177048,9,"task-xk4o",NA,38523544,11319146,NA,"complete",NA,"computer","Desktop or Laptop","Windows 10","Chrome 126.0.0.0","2560x1440","2560x1440",NA,NA,0,"Task Introduction and Instructions (re-introduce video and audio) (Clone) (Clone)",3,"BCADHEGF","Passed AC2",NA,"spreadsheet_3","Spreadsheet1","Spreadsheet1",1,"Task Instructions","Screen 11","oyulb7",7,"continue","",4458.80000004768,4453.8,4458.80000004768,4458.80000004768,4453.8,4458.80000004768,1,4458.80000004768,0,0,NA,"Click To Continue","Continue Button",2,"object-52","Task Instructions",NA,"SUPSCO41800"
"9",1719416359377,"26/06/2024 15:39:19",1719419959377,1,"26/06/2024 17:39:19",177048,9,"task-xk4o",NA,38523544,11319146,NA,"complete",NA,"computer","Desktop or Laptop","Windows 10","Chrome 126.0.0.0","2560x1440","2560x1440",NA,NA,0,"Task Introduction and Instructions (re-introduce video and audio) (Clone) (Clone)",3,"BCADHEGF","Passed AC2",NA,"spreadsheet_3","Spreadsheet1","Spreadsheet1",1,"Task Instructions","Screen 5","8nvnao",8,"continue","",2885.59999999999,2869,2885.59999999999,2885.59999999999,2869,2885.59999999999,1,2885.59999999999,0,0,NA,"Click To Continue","Continue Button",2,"object-44","Task Instructions",NA,"SUPSCO41800"
"10",1719416359378,"26/06/2024 15:39:19",1719419959378,1,"26/06/2024 17:39:19",177048,9,"task-xk4o",NA,38523544,11319146,NA,"complete",NA,"computer","Desktop or Laptop","Windows 10","Chrome 126.0.0.0","2560x1440","2560x1440",NA,NA,0,"Task Introduction and Instructions (re-introduce video and audio) (Clone) (Clone)",3,"BCADHEGF","Passed AC2",NA,"spreadsheet_3","Spreadsheet1","Spreadsheet1",NA,"","","",NA,"info","END",NA,NA,NA,NA,NA,NA,0,NA,NA,NA,NA,"","",NA,"","",NA,"SUPSCO41800"
"1",1719571157947,"28/06/2024 10:39:17",1719574757947,1,"28/06/2024 12:39:17",177048,9,"task-xk4o",NA,38562336,11330297,NA,"complete",NA,"computer","Desktop or Laptop","Windows 10","Chrome 126.0.0.0","1366x768","1366x641",NA,NA,0,"Task Introduction and Instructions (re-introduce video and audio) (Clone) (Clone)",3,"EFDGCHBA","Passed AC2",NA,"spreadsheet","Spreadsheet1","Spreadsheet1",NA,"","","",NA,"info","BEGIN",NA,NA,NA,NA,NA,NA,0,NA,NA,NA,NA,"","",NA,"","",NA,"SUPSCO12782"
"2",1719571162275,"28/06/2024 10:39:22",1719574762275,1,"28/06/2024 12:39:22",177048,9,"task-xk4o",NA,38562336,11330297,NA,"complete",NA,"computer","Desktop or Laptop","Windows 10","Chrome 126.0.0.0","1366x768","1366x641",NA,NA,0,"Task Introduction and Instructions (re-introduce video and audio) (Clone) (Clone)",3,"EFDGCHBA","Passed AC2",NA,"spreadsheet","Spreadsheet1","Spreadsheet1",1,"Task Instructions","Screen 1","anr7sn",1,"continue","",4225.70000000009,4216.1,4225.70000000009,4225.70000000009,4216.1,4225.70000000009,1,4225.70000000009,0,0,NA,"Click To Continue","Continue Button",3,"object-60","Task Instructions",NA,"SUPSCO12782"
"3",1719571166280,"28/06/2024 10:39:26",1719574766280,1,"28/06/2024 12:39:26",177048,9,"task-xk4o",NA,38562336,11330297,NA,"complete",NA,"computer","Desktop or Laptop","Windows 10","Chrome 126.0.0.0","1366x768","1366x641",NA,NA,0,"Task Introduction and Instructions (re-introduce video and audio) (Clone) (Clone)",3,"EFDGCHBA","Passed AC2",NA,"spreadsheet","Spreadsheet1","Spreadsheet1",1,"Task Instructions","Screen 4","spepx9",2,"continue","",4014.30000000028,3999.4,4014.30000000028,4014.30000000028,3999.4,4014.30000000028,1,4014.30000000028,0,0,NA,"Click To Continue","Continue Button",2,"object-9","Task Instructions",NA,"SUPSCO12782"
"4",1719571177961,"28/06/2024 10:39:37",1719574777961,1,"28/06/2024 12:39:37",177048,9,"task-xk4o",NA,38562336,11330297,NA,"complete",NA,"computer","Desktop or Laptop","Windows 10","Chrome 126.0.0.0","1366x768","1366x641",NA,NA,0,"Task Introduction and Instructions (re-introduce video and audio) (Clone) (Clone)",3,"EFDGCHBA","Passed AC2",NA,"spreadsheet","Spreadsheet1","Spreadsheet1",1,"Task Instructions","Screen 2","ce2tc8",3,"continue","",11696.4999999999,11681.2,11696.4999999999,11696.4999999999,11681.2,11696.4999999999,1,11696.4999999999,0,0,NA,"Click To Continue","Continue Button",3,"object-59","Task Instructions",NA,"SUPSCO12782"
"5",1719571189661,"28/06/2024 10:39:49",1719574789661,1,"28/06/2024 12:39:49",177048,9,"task-xk4o",NA,38562336,11330297,NA,"complete",NA,"computer","Desktop or Laptop","Windows 10","Chrome 126.0.0.0","1366x768","1366x641",NA,NA,0,"Task Introduction and Instructions (re-introduce video and audio) (Clone) (Clone)",3,"EFDGCHBA","Passed AC2",NA,"spreadsheet","Spreadsheet1","Spreadsheet1",1,"Task Instructions","Screen 3","1qtc8v",4,"continue","",11714.5,11698.1,11714.5,11714.5,11698.1,11714.5,1,11714.5,0,0,NA,"Click To Continue","Continue Button",2,"object-2983","Task Instructions",NA,"SUPSCO12782"
"6",1719571193100,"28/06/2024 10:39:53",1719574793100,1,"28/06/2024 12:39:53",177048,9,"task-xk4o",NA,38562336,11330297,NA,"complete",NA,"computer","Desktop or Laptop","Windows 10","Chrome 126.0.0.0","1366x768","1366x641",NA,NA,0,"Task Introduction and Instructions (re-introduce video and audio) (Clone) (Clone)",3,"EFDGCHBA","Passed AC2",NA,"spreadsheet","Spreadsheet1","Spreadsheet1",1,"Task Instructions","Screen 12","1a4vu2",5,"continue","",3455.60000000028,3449.60000000001,3455.60000000028,3455.60000000028,3449.60000000001,3455.60000000028,1,3455.60000000028,0,0,NA,"Click To Continue","Continue Button",2,"object-2466","Task Instructions",NA,"SUPSCO12782"
"7",1719571198016,"28/06/2024 10:39:58",1719574798016,1,"28/06/2024 12:39:58",177048,9,"task-xk4o",NA,38562336,11330297,NA,"complete",NA,"computer","Desktop or Laptop","Windows 10","Chrome 126.0.0.0","1366x768","1366x641",NA,NA,0,"Task Introduction and Instructions (re-introduce video and audio) (Clone) (Clone)",3,"EFDGCHBA","Passed AC2",NA,"spreadsheet","Spreadsheet1","Spreadsheet1",1,"Task Instructions","Screen 13","q9vwda",6,"continue","",4922.0999999999,4915.7,4922.0999999999,4922.0999999999,4915.7,4922.0999999999,1,4922.0999999999,0,0,NA,"Click To Continue","Continue Button",2,"object-2989","Task Instructions",NA,"SUPSCO12782"
"8",1719571202455,"28/06/2024 10:40:02",1719574802455,1,"28/06/2024 12:40:02",177048,9,"task-xk4o",NA,38562336,11330297,NA,"complete",NA,"computer","Desktop or Laptop","Windows 10","Chrome 126.0.0.0","1366x768","1366x641",NA,NA,0,"Task Introduction and Instructions (re-introduce video and audio) (Clone) (Clone)",3,"EFDGCHBA","Passed AC2",NA,"spreadsheet","Spreadsheet1","Spreadsheet1",1,"Task Instructions","Screen 11","oyulb7",7,"continue","",4445.5,4432.6,4445.5,4445.5,4432.6,4445.5,1,4445.5,0,0,NA,"Click To Continue","Continue Button",2,"object-52","Task Instructions",NA,"SUPSCO12782"
"9",1719571205799,"28/06/2024 10:40:05",1719574805799,1,"28/06/2024 12:40:05",177048,9,"task-xk4o",NA,38562336,11330297,NA,"complete",NA,"computer","Desktop or Laptop","Windows 10","Chrome 126.0.0.0","1366x768","1366x641",NA,NA,0,"Task Introduction and Instructions (re-introduce video and audio) (Clone) (Clone)",3,"EFDGCHBA","Passed AC2",NA,"spreadsheet","Spreadsheet1","Spreadsheet1",1,"Task Instructions","Screen 5","8nvnao",8,"continue","",3357.20000000028,3349.7,3357.20000000028,3357.20000000028,3349.7,3357.20000000028,1,3357.20000000028,0,0,NA,"Click To Continue","Continue Button",2,"object-44","Task Instructions",NA,"SUPSCO12782"
"10",1719571205804,"28/06/2024 10:40:05",1719574805804,1,"28/06/2024 12:40:05",177048,9,"task-xk4o",NA,38562336,11330297,NA,"complete",NA,"computer","Desktop or Laptop","Windows 10","Chrome 126.0.0.0","1366x768","1366x641",NA,NA,0,"Task Introduction and Instructions (re-introduce video and audio) (Clone) (Clone)",3,"EFDGCHBA","Passed AC2",NA,"spreadsheet","Spreadsheet1","Spreadsheet1",NA,"","","",NA,"info","END",NA,NA,NA,NA,NA,NA,0,NA,NA,NA,NA,"","",NA,"","",NA,"SUPSCO12782"
"1",1720779703220,"12/07/2024 10:21:43",1720783303220,1,"12/07/2024 12:21:43",177048,9,"task-xk4o",NA,38934734,11415867,NA,"complete",NA,"computer","Desktop or Laptop","Mac OS 10.15.7","Chrome 125.0.0.0","1470x956","1470x799",NA,NA,0,"Task Introduction and Instructions (re-introduce video and audio) (Clone) (Clone)",3,"BCADHEGF","Passed AC2",NA,"spreadsheet","Spreadsheet1","Spreadsheet1",NA,"","","",NA,"info","BEGIN",NA,NA,NA,NA,NA,NA,0,NA,NA,NA,NA,"","",NA,"","",NA,"SUPSCO34679"
"2",1720779707287,"12/07/2024 10:21:47",1720783307287,1,"12/07/2024 12:21:47",177048,9,"task-xk4o",NA,38934734,11415867,NA,"complete",NA,"computer","Desktop or Laptop","Mac OS 10.15.7","Chrome 125.0.0.0","1470x956","1470x799",NA,NA,0,"Task Introduction and Instructions (re-introduce video and audio) (Clone) (Clone)",3,"BCADHEGF","Passed AC2",NA,"spreadsheet","Spreadsheet1","Spreadsheet1",1,"Task Instructions","Screen 1","anr7sn",1,"continue","",3595.4,3583.3,3595.4,3595.4,3583.3,3595.4,1,3595.4,0,0,NA,"Click To Continue","Continue Button",3,"object-60","Task Instructions",NA,"SUPSCO34679"
"3",1720779711611,"12/07/2024 10:21:51",1720783311611,1,"12/07/2024 12:21:51",177048,9,"task-xk4o",NA,38934734,11415867,NA,"complete",NA,"computer","Desktop or Laptop","Mac OS 10.15.7","Chrome 125.0.0.0","1470x956","1470x799",NA,NA,0,"Task Introduction and Instructions (re-introduce video and audio) (Clone) (Clone)",3,"BCADHEGF","Passed AC2",NA,"spreadsheet","Spreadsheet1","Spreadsheet1",1,"Task Instructions","Screen 4","spepx9",2,"continue","",4336.29999980927,4333.3,4336.29999980927,4336.29999980927,4333.3,4336.29999980927,1,4336.29999980927,0,0,NA,"Click To Continue","Continue Button",2,"object-9","Task Instructions",NA,"SUPSCO34679"
"4",1720779741735,"12/07/2024 10:22:21",1720783341735,1,"12/07/2024 12:22:21",177048,9,"task-xk4o",NA,38934734,11415867,NA,"complete",NA,"computer","Desktop or Laptop","Mac OS 10.15.7","Chrome 125.0.0.0","1470x956","1470x799",NA,NA,0,"Task Introduction and Instructions (re-introduce video and audio) (Clone) (Clone)",3,"BCADHEGF","Passed AC2",NA,"spreadsheet","Spreadsheet1","Spreadsheet1",1,"Task Instructions","Screen 2","ce2tc8",3,"continue","",30128.0999999523,30116.6,30128.0999999523,30128.0999999523,30116.6,30128.0999999523,1,30128.0999999523,0,0,NA,"Click To Continue","Continue Button",3,"object-59","Task Instructions",NA,"SUPSCO34679"
"5",1720779775890,"12/07/2024 10:22:55",1720783375890,1,"12/07/2024 12:22:55",177048,9,"task-xk4o",NA,38934734,11415867,NA,"complete",NA,"computer","Desktop or Laptop","Mac OS 10.15.7","Chrome 125.0.0.0","1470x956","1470x799",NA,NA,0,"Task Introduction and Instructions (re-introduce video and audio) (Clone) (Clone)",3,"BCADHEGF","Passed AC2",NA,"spreadsheet","Spreadsheet1","Spreadsheet1",1,"Task Instructions","Screen 3","1qtc8v",4,"continue","",34149.8,34133.2,34149.8,34149.8,34133.2,34149.8,1,34149.8,0,0,NA,"Click To Continue","Continue Button",2,"object-2983","Task Instructions",NA,"SUPSCO34679"
"6",1720779797337,"12/07/2024 10:23:17",1720783397337,1,"12/07/2024 12:23:17",177048,9,"task-xk4o",NA,38934734,11415867,NA,"complete",NA,"computer","Desktop or Laptop","Mac OS 10.15.7","Chrome 125.0.0.0","1470x956","1470x799",NA,NA,0,"Task Introduction and Instructions (re-introduce video and audio) (Clone) (Clone)",3,"BCADHEGF","Passed AC2",NA,"spreadsheet","Spreadsheet1","Spreadsheet1",1,"Task Instructions","Screen 12","1a4vu2",5,"continue","",21457.6999998093,21449.9,21457.6999998093,21457.6999998093,21449.9,21457.6999998093,1,21457.6999998093,0,0,NA,"Click To Continue","Continue Button",2,"object-2466","Task Instructions",NA,"SUPSCO34679"
"7",1720779810041,"12/07/2024 10:23:30",1720783410041,1,"12/07/2024 12:23:30",177048,9,"task-xk4o",NA,38934734,11415867,NA,"complete",NA,"computer","Desktop or Laptop","Mac OS 10.15.7","Chrome 125.0.0.0","1470x956","1470x799",NA,NA,0,"Task Introduction and Instructions (re-introduce video and audio) (Clone) (Clone)",3,"BCADHEGF","Passed AC2",NA,"spreadsheet","Spreadsheet1","Spreadsheet1",1,"Task Instructions","Screen 13","q9vwda",6,"continue","",12711.3999999523,12700,12711.3999999523,12711.3999999523,12700,12711.3999999523,1,12711.3999999523,0,0,NA,"Click To Continue","Continue Button",2,"object-2989","Task Instructions",NA,"SUPSCO34679"
"8",1720779838879,"12/07/2024 10:23:58",1720783438879,1,"12/07/2024 12:23:58",177048,9,"task-xk4o",NA,38934734,11415867,NA,"complete",NA,"computer","Desktop or Laptop","Mac OS 10.15.7","Chrome 125.0.0.0","1470x956","1470x799",NA,NA,0,"Task Introduction and Instructions (re-introduce video and audio) (Clone) (Clone)",3,"BCADHEGF","Passed AC2",NA,"spreadsheet","Spreadsheet1","Spreadsheet1",1,"Task Instructions","Screen 11","oyulb7",7,"continue","",28848.499999857,28833.2,28848.499999857,28848.499999857,28833.2,28848.499999857,1,28848.499999857,0,0,NA,"Click To Continue","Continue Button",2,"object-52","Task Instructions",NA,"SUPSCO34679"
"9",1720779886891,"12/07/2024 10:24:46",1720783486891,1,"12/07/2024 12:24:46",177048,9,"task-xk4o",NA,38934734,11415867,NA,"complete",NA,"computer","Desktop or Laptop","Mac OS 10.15.7","Chrome 125.0.0.0","1470x956","1470x799",NA,NA,0,"Task Introduction and Instructions (re-introduce video and audio) (Clone) (Clone)",3,"BCADHEGF","Passed AC2",NA,"spreadsheet","Spreadsheet1","Spreadsheet1",1,"Task Instructions","Screen 5","8nvnao",8,"continue","",48026.6999999523,48016.4,48026.6999999523,48026.6999999523,48016.4,48026.6999999523,1,48026.6999999523,0,0,NA,"Click To Continue","Continue Button",2,"object-44","Task Instructions",NA,"SUPSCO34679"
"10",1720779886901,"12/07/2024 10:24:46",1720783486901,1,"12/07/2024 12:24:46",177048,9,"task-xk4o",NA,38934734,11415867,NA,"complete",NA,"computer","Desktop or Laptop","Mac OS 10.15.7","Chrome 125.0.0.0","1470x956","1470x799",NA,NA,0,"Task Introduction and Instructions (re-introduce video and audio) (Clone) (Clone)",3,"BCADHEGF","Passed AC2",NA,"spreadsheet","Spreadsheet1","Spreadsheet1",NA,"","","",NA,"info","END",NA,NA,NA,NA,NA,NA,0,NA,NA,NA,NA,"","",NA,"","",NA,"SUPSCO34679"
"1",1721308903579,"18/07/2024 13:21:43",1721312503579,1,"18/07/2024 15:21:43",177048,9,"task-xk4o",NA,39055115,11454198,NA,"complete",NA,"computer","Desktop or Laptop","Windows 10","Chrome 126.0.0.0","1536x1024","1536x889",NA,NA,0,"Task Introduction and Instructions (re-introduce video and audio) (Clone) (Clone)",3,"DECFBGAH","Passed AC2",NA,"spreadsheet_2","Spreadsheet1","Spreadsheet1",NA,"","","",NA,"info","BEGIN",NA,NA,NA,NA,NA,NA,0,NA,NA,NA,NA,"","",NA,"","",NA,"SUPSCO96648"
"2",1721308915842,"18/07/2024 13:21:55",1721312515842,1,"18/07/2024 15:21:55",177048,9,"task-xk4o",NA,39055115,11454198,NA,"complete",NA,"computer","Desktop or Laptop","Windows 10","Chrome 126.0.0.0","1536x1024","1536x889",NA,NA,0,"Task Introduction and Instructions (re-introduce video and audio) (Clone) (Clone)",3,"DECFBGAH","Passed AC2",NA,"spreadsheet_2","Spreadsheet1","Spreadsheet1",1,"Task Instructions","Screen 1","anr7sn",1,"continue","",11993.7999999523,11983.5,11993.7999999523,11993.7999999523,11983.5,11993.7999999523,1,11993.7999999523,0,0,NA,"Click To Continue","Continue Button",3,"object-60","Task Instructions",NA,"SUPSCO96648"
"3",1721308919154,"18/07/2024 13:21:59",1721312519154,1,"18/07/2024 15:21:59",177048,9,"task-xk4o",NA,39055115,11454198,NA,"complete",NA,"computer","Desktop or Laptop","Windows 10","Chrome 126.0.0.0","1536x1024","1536x889",NA,NA,0,"Task Introduction and Instructions (re-introduce video and audio) (Clone) (Clone)",3,"DECFBGAH","Passed AC2",NA,"spreadsheet_2","Spreadsheet1","Spreadsheet1",1,"Task Instructions","Screen 4","spepx9",2,"continue","",3322.19999980927,3316.9,3322.19999980927,3322.19999980927,3316.9,3322.19999980927,1,3322.19999980927,0,0,NA,"Click To Continue","Continue Button",2,"object-9","Task Instructions",NA,"SUPSCO96648"
"4",1721308938119,"18/07/2024 13:22:18",1721312538119,1,"18/07/2024 15:22:18",177048,9,"task-xk4o",NA,39055115,11454198,NA,"complete",NA,"computer","Desktop or Laptop","Windows 10","Chrome 126.0.0.0","1536x1024","1536x889",NA,NA,0,"Task Introduction and Instructions (re-introduce video and audio) (Clone) (Clone)",3,"DECFBGAH","Passed AC2",NA,"spreadsheet_2","Spreadsheet1","Spreadsheet1",1,"Task Instructions","Screen 2","ce2tc8",3,"continue","",18970.6,18967.5,18970.6,18970.6,18967.5,18970.6,1,18970.6,0,0,NA,"Click To Continue","Continue Button",3,"object-59","Task Instructions",NA,"SUPSCO96648"
"5",1721308954725,"18/07/2024 13:22:34",1721312554725,1,"18/07/2024 15:22:34",177048,9,"task-xk4o",NA,39055115,11454198,NA,"complete",NA,"computer","Desktop or Laptop","Windows 10","Chrome 126.0.0.0","1536x1024","1536x889",NA,NA,0,"Task Introduction and Instructions (re-introduce video and audio) (Clone) (Clone)",3,"DECFBGAH","Passed AC2",NA,"spreadsheet_2","Spreadsheet1","Spreadsheet1",1,"Task Instructions","Screen 3","1qtc8v",4,"continue","",16609.1999999046,16601.2,16609.1999999046,16609.1999999046,16601.2,16609.1999999046,1,16609.1999999046,0,0,NA,"Click To Continue","Continue Button",2,"object-2983","Task Instructions",NA,"SUPSCO96648"
"6",1721308971763,"18/07/2024 13:22:51",1721312571763,1,"18/07/2024 15:22:51",177048,9,"task-xk4o",NA,39055115,11454198,NA,"complete",NA,"computer","Desktop or Laptop","Windows 10","Chrome 126.0.0.0","1536x1024","1536x889",NA,NA,0,"Task Introduction and Instructions (re-introduce video and audio) (Clone) (Clone)",3,"DECFBGAH","Passed AC2",NA,"spreadsheet_2","Spreadsheet1","Spreadsheet1",1,"Task Instructions","Screen 12","1a4vu2",5,"continue","",17045.1999999523,17033.7,17045.1999999523,17045.1999999523,17033.7,17045.1999999523,1,17045.1999999523,0,0,NA,"Click To Continue","Continue Button",2,"object-2466","Task Instructions",NA,"SUPSCO96648"
"7",1721308976705,"18/07/2024 13:22:56",1721312576705,1,"18/07/2024 15:22:56",177048,9,"task-xk4o",NA,39055115,11454198,NA,"complete",NA,"computer","Desktop or Laptop","Windows 10","Chrome 126.0.0.0","1536x1024","1536x889",NA,NA,0,"Task Introduction and Instructions (re-introduce video and audio) (Clone) (Clone)",3,"DECFBGAH","Passed AC2",NA,"spreadsheet_2","Spreadsheet1","Spreadsheet1",1,"Task Instructions","Screen 13","q9vwda",6,"continue","",4953.09999985695,4950.09999999999,4953.09999985695,4953.09999985695,4950.09999999999,4953.09999985695,1,4953.09999985695,0,0,NA,"Click To Continue","Continue Button",2,"object-2989","Task Instructions",NA,"SUPSCO96648"
"8",1721308987719,"18/07/2024 13:23:07",1721312587719,1,"18/07/2024 15:23:07",177048,9,"task-xk4o",NA,39055115,11454198,NA,"complete",NA,"computer","Desktop or Laptop","Windows 10","Chrome 126.0.0.0","1536x1024","1536x889",NA,NA,0,"Task Introduction and Instructions (re-introduce video and audio) (Clone) (Clone)",3,"DECFBGAH","Passed AC2",NA,"spreadsheet_2","Spreadsheet1","Spreadsheet1",1,"Task Instructions","Screen 11","oyulb7",7,"continue","",11017.499999857,11000.9,11017.499999857,11017.499999857,11000.9,11017.499999857,1,11017.499999857,0,0,NA,"Click To Continue","Continue Button",2,"object-52","Task Instructions",NA,"SUPSCO96648"
"9",1721308990112,"18/07/2024 13:23:10",1721312590112,1,"18/07/2024 15:23:10",177048,9,"task-xk4o",NA,39055115,11454198,NA,"complete",NA,"computer","Desktop or Laptop","Windows 10","Chrome 126.0.0.0","1536x1024","1536x889",NA,NA,0,"Task Introduction and Instructions (re-introduce video and audio) (Clone) (Clone)",3,"DECFBGAH","Passed AC2",NA,"spreadsheet_2","Spreadsheet1","Spreadsheet1",1,"Task Instructions","Screen 5","8nvnao",8,"continue","",2409.49999995231,2400.09999999999,2409.49999995231,2409.49999995231,2400.09999999999,2409.49999995231,1,2409.49999995231,0,0,NA,"Click To Continue","Continue Button",2,"object-44","Task Instructions",NA,"SUPSCO96648"
"10",1721308990115,"18/07/2024 13:23:10",1721312590115,1,"18/07/2024 15:23:10",177048,9,"task-xk4o",NA,39055115,11454198,NA,"complete",NA,"computer","Desktop or Laptop","Windows 10","Chrome 126.0.0.0","1536x1024","1536x889",NA,NA,0,"Task Introduction and Instructions (re-introduce video and audio) (Clone) (Clone)",3,"DECFBGAH","Passed AC2",NA,"spreadsheet_2","Spreadsheet1","Spreadsheet1",NA,"","","",NA,"info","END",NA,NA,NA,NA,NA,NA,0,NA,NA,NA,NA,"","",NA,"","",NA,"SUPSCO96648"
"1",1721824952469,"24/07/2024 12:42:32",1721828552469,1,"24/07/2024 14:42:32",177048,9,"task-xk4o",NA,39179294,11493943,NA,"complete",NA,"computer","Desktop or Laptop","Mac OS 10.15.7","Chrome 126.0.0.0","1920x1080","1654x1028",NA,NA,0,"Task Introduction and Instructions (re-introduce video and audio) (Clone) (Clone)",3,"HAGBFCED","Passed AC2",NA,"spreadsheet_5","Spreadsheet1","Spreadsheet1",NA,"","","",NA,"info","BEGIN",NA,NA,NA,NA,NA,NA,0,NA,NA,NA,NA,"","",NA,"","",NA,"SUPSCO84507"
"2",1721824955585,"24/07/2024 12:42:35",1721828555585,1,"24/07/2024 14:42:35",177048,9,"task-xk4o",NA,39179294,11493943,NA,"complete",NA,"computer","Desktop or Laptop","Mac OS 10.15.7","Chrome 126.0.0.0","1920x1080","1654x1028",NA,NA,0,"Task Introduction and Instructions (re-introduce video and audio) (Clone) (Clone)",3,"HAGBFCED","Passed AC2",NA,"spreadsheet_5","Spreadsheet1","Spreadsheet1",1,"Task Instructions","Screen 1","anr7sn",1,"continue","",3066.9,3050,3066.9,3066.9,3050,3066.9,1,3066.9,0,0,NA,"Click To Continue","Continue Button",3,"object-60","Task Instructions",NA,"SUPSCO84507"
"3",1721824958417,"24/07/2024 12:42:38",1721828558417,1,"24/07/2024 14:42:38",177048,9,"task-xk4o",NA,39179294,11493943,NA,"complete",NA,"computer","Desktop or Laptop","Mac OS 10.15.7","Chrome 126.0.0.0","1920x1080","1654x1028",NA,NA,0,"Task Introduction and Instructions (re-introduce video and audio) (Clone) (Clone)",3,"HAGBFCED","Passed AC2",NA,"spreadsheet_5","Spreadsheet1","Spreadsheet1",1,"Task Instructions","Screen 4","spepx9",2,"continue","",2852.60000001192,2849.3,2852.60000001192,2852.60000001192,2849.3,2852.60000001192,1,2852.60000001192,0,0,NA,"Click To Continue","Continue Button",2,"object-9","Task Instructions",NA,"SUPSCO84507"
"4",1721824974415,"24/07/2024 12:42:54",1721828574415,1,"24/07/2024 14:42:54",177048,9,"task-xk4o",NA,39179294,11493943,NA,"complete",NA,"computer","Desktop or Laptop","Mac OS 10.15.7","Chrome 126.0.0.0","1920x1080","1920x1048",NA,NA,0,"Task Introduction and Instructions (re-introduce video and audio) (Clone) (Clone)",3,"HAGBFCED","Passed AC2",NA,"spreadsheet_5","Spreadsheet1","Spreadsheet1",1,"Task Instructions","Screen 2","ce2tc8",3,"continue","",15999.9,15983.6,15999.9,15999.9,15983.6,15999.9,1,15999.9,0,0,NA,"Click To Continue","Continue Button",3,"object-59","Task Instructions",NA,"SUPSCO84507"
"5",1721824988485,"24/07/2024 12:43:08",1721828588485,1,"24/07/2024 14:43:08",177048,9,"task-xk4o",NA,39179294,11493943,NA,"complete",NA,"computer","Desktop or Laptop","Mac OS 10.15.7","Chrome 126.0.0.0","1920x1080","1920x1048",NA,NA,0,"Task Introduction and Instructions (re-introduce video and audio) (Clone) (Clone)",3,"HAGBFCED","Passed AC2",NA,"spreadsheet_5","Spreadsheet1","Spreadsheet1",1,"Task Instructions","Screen 3","1qtc8v",4,"continue","",14087.7000000119,14083.7,14087.7000000119,14087.7000000119,14083.7,14087.7000000119,1,14087.7000000119,0,0,NA,"Click To Continue","Continue Button",2,"object-2983","Task Instructions",NA,"SUPSCO84507"
"6",1721824996384,"24/07/2024 12:43:16",1721828596384,1,"24/07/2024 14:43:16",177048,9,"task-xk4o",NA,39179294,11493943,NA,"complete",NA,"computer","Desktop or Laptop","Mac OS 10.15.7","Chrome 126.0.0.0","1920x1080","1920x1048",NA,NA,0,"Task Introduction and Instructions (re-introduce video and audio) (Clone) (Clone)",3,"HAGBFCED","Passed AC2",NA,"spreadsheet_5","Spreadsheet1","Spreadsheet1",1,"Task Instructions","Screen 12","1a4vu2",5,"continue","",7900.49999999999,7883.3,7900.49999999999,7900.49999999999,7883.3,7900.49999999999,1,7900.49999999999,0,0,NA,"Click To Continue","Continue Button",2,"object-2466","Task Instructions",NA,"SUPSCO84507"
"7",1721825000712,"24/07/2024 12:43:20",1721828600712,1,"24/07/2024 14:43:20",177048,9,"task-xk4o",NA,39179294,11493943,NA,"complete",NA,"computer","Desktop or Laptop","Mac OS 10.15.7","Chrome 126.0.0.0","1920x1080","1920x1048",NA,NA,0,"Task Introduction and Instructions (re-introduce video and audio) (Clone) (Clone)",3,"HAGBFCED","Passed AC2",NA,"spreadsheet_5","Spreadsheet1","Spreadsheet1",1,"Task Instructions","Screen 13","q9vwda",6,"continue","",4346.9,4333.3,4346.9,4346.9,4333.3,4346.9,1,4346.9,0,0,NA,"Click To Continue","Continue Button",2,"object-2989","Task Instructions",NA,"SUPSCO84507"
"8",1721825003568,"24/07/2024 12:43:23",1721828603568,1,"24/07/2024 14:43:23",177048,9,"task-xk4o",NA,39179294,11493943,NA,"complete",NA,"computer","Desktop or Laptop","Mac OS 10.15.7","Chrome 126.0.0.0","1920x1080","1920x1048",NA,NA,0,"Task Introduction and Instructions (re-introduce video and audio) (Clone) (Clone)",3,"HAGBFCED","Passed AC2",NA,"spreadsheet_5","Spreadsheet1","Spreadsheet1",1,"Task Instructions","Screen 11","oyulb7",7,"continue","",2869.99999997616,2866.8,2869.99999997616,2869.99999997616,2866.8,2869.99999997616,1,2869.99999997616,0,0,NA,"Click To Continue","Continue Button",2,"object-52","Task Instructions",NA,"SUPSCO84507"
"9",1721825007318,"24/07/2024 12:43:27",1721828607318,1,"24/07/2024 14:43:27",177048,9,"task-xk4o",NA,39179294,11493943,NA,"complete",NA,"computer","Desktop or Laptop","Mac OS 10.15.7","Chrome 126.0.0.0","1920x1080","1920x1048",NA,NA,0,"Task Introduction and Instructions (re-introduce video and audio) (Clone) (Clone)",3,"HAGBFCED","Passed AC2",NA,"spreadsheet_5","Spreadsheet1","Spreadsheet1",1,"Task Instructions","Screen 5","8nvnao",8,"continue","",3753.40000002384,3749,3753.40000002384,3753.40000002384,3749,3753.40000002384,1,3753.40000002384,0,0,NA,"Click To Continue","Continue Button",2,"object-44","Task Instructions",NA,"SUPSCO84507"
"10",1721825007320,"24/07/2024 12:43:27",1721828607320,1,"24/07/2024 14:43:27",177048,9,"task-xk4o",NA,39179294,11493943,NA,"complete",NA,"computer","Desktop or Laptop","Mac OS 10.15.7","Chrome 126.0.0.0","1920x1080","1920x1048",NA,NA,0,"Task Introduction and Instructions (re-introduce video and audio) (Clone) (Clone)",3,"HAGBFCED","Passed AC2",NA,"spreadsheet_5","Spreadsheet1","Spreadsheet1",NA,"","","",NA,"info","END",NA,NA,NA,NA,NA,NA,0,NA,NA,NA,NA,"","",NA,"","",NA,"SUPSCO84507"
"1",1721835978832,"24/07/2024 15:46:18",1721839578832,1,"24/07/2024 17:46:18",177048,9,"task-xk4o",NA,39183556,11494997,NA,"complete",NA,"computer","Desktop or Laptop","Windows 10","Chrome 127.0.0.0","3460x1442","3460x1320",NA,NA,0,"Task Introduction and Instructions (re-introduce video and audio) (Clone) (Clone)",3,"ABHCGDFE","Passed AC2",NA,"spreadsheet_4","Spreadsheet1","Spreadsheet1",NA,"","","",NA,"info","BEGIN",NA,NA,NA,NA,NA,NA,0,NA,NA,NA,NA,"","",NA,"","",NA,"SUPSCO05489"
"2",1721835982421,"24/07/2024 15:46:22",1721839582421,1,"24/07/2024 17:46:22",177048,9,"task-xk4o",NA,39183556,11494997,NA,"complete",NA,"computer","Desktop or Laptop","Windows 10","Chrome 127.0.0.0","3460x1442","3460x1320",NA,NA,0,"Task Introduction and Instructions (re-introduce video and audio) (Clone) (Clone)",3,"ABHCGDFE","Passed AC2",NA,"spreadsheet_4","Spreadsheet1","Spreadsheet1",1,"Task Instructions","Screen 1","anr7sn",1,"continue","",3563.60000009537,3537,3563.60000009537,3563.60000009537,3537,3563.60000009537,1,3563.60000009537,0,0,NA,"Click To Continue","Continue Button",3,"object-60","Task Instructions",NA,"SUPSCO05489"
"3",1721835985610,"24/07/2024 15:46:25",1721839585610,1,"24/07/2024 17:46:25",177048,9,"task-xk4o",NA,39183556,11494997,NA,"complete",NA,"computer","Desktop or Laptop","Windows 10","Chrome 127.0.0.0","3460x1442","3460x1320",NA,NA,0,"Task Introduction and Instructions (re-introduce video and audio) (Clone) (Clone)",3,"ABHCGDFE","Passed AC2",NA,"spreadsheet_4","Spreadsheet1","Spreadsheet1",1,"Task Instructions","Screen 4","spepx9",2,"continue","",3215.29999990463,3203.5,3215.29999990463,3215.29999990463,3203.5,3215.29999990463,1,3215.29999990463,0,0,NA,"Click To Continue","Continue Button",2,"object-9","Task Instructions",NA,"SUPSCO05489"
"4",1721835991537,"24/07/2024 15:46:31",1721839591537,1,"24/07/2024 17:46:31",177048,9,"task-xk4o",NA,39183556,11494997,NA,"complete",NA,"computer","Desktop or Laptop","Windows 10","Chrome 127.0.0.0","3460x1442","3460x1320",NA,NA,0,"Task Introduction and Instructions (re-introduce video and audio) (Clone) (Clone)",3,"ABHCGDFE","Passed AC2",NA,"spreadsheet_4","Spreadsheet1","Spreadsheet1",1,"Task Instructions","Screen 2","ce2tc8",3,"continue","",5938.99999995232,5906.1,5938.99999995232,5938.99999995232,5906.1,5938.99999995232,1,5938.99999995232,0,0,NA,"Click To Continue","Continue Button",3,"object-59","Task Instructions",NA,"SUPSCO05489"
"5",1721836009358,"24/07/2024 15:46:49",1721839609358,1,"24/07/2024 17:46:49",177048,9,"task-xk4o",NA,39183556,11494997,NA,"complete",NA,"computer","Desktop or Laptop","Windows 10","Chrome 127.0.0.0","3460x1442","3460x1320",NA,NA,0,"Task Introduction and Instructions (re-introduce video and audio) (Clone) (Clone)",3,"ABHCGDFE","Passed AC2",NA,"spreadsheet_4","Spreadsheet1","Spreadsheet1",1,"Task Instructions","Screen 3","1qtc8v",4,"continue","",17853.1999999046,17852,17853.1999999046,17853.1999999046,17852,17853.1999999046,1,17853.1999999046,0,0,NA,"Click To Continue","Continue Button",2,"object-2983","Task Instructions",NA,"SUPSCO05489"
"6",1721836013177,"24/07/2024 15:46:53",1721839613177,1,"24/07/2024 17:46:53",177048,9,"task-xk4o",NA,39183556,11494997,NA,"complete",NA,"computer","Desktop or Laptop","Windows 10","Chrome 127.0.0.0","3460x1442","3460x1320",NA,NA,0,"Task Introduction and Instructions (re-introduce video and audio) (Clone) (Clone)",3,"ABHCGDFE","Passed AC2",NA,"spreadsheet_4","Spreadsheet1","Spreadsheet1",1,"Task Instructions","Screen 12","1a4vu2",5,"continue","",3820.39999995231,3804.1,3820.39999995231,3820.39999995231,3804.1,3820.39999995231,1,3820.39999995231,0,0,NA,"Click To Continue","Continue Button",2,"object-2466","Task Instructions",NA,"SUPSCO05489"
"7",1721836018099,"24/07/2024 15:46:58",1721839618099,1,"24/07/2024 17:46:58",177048,9,"task-xk4o",NA,39183556,11494997,NA,"complete",NA,"computer","Desktop or Laptop","Windows 10","Chrome 127.0.0.0","3460x1442","3460x1320",NA,NA,0,"Task Introduction and Instructions (re-introduce video and audio) (Clone) (Clone)",3,"ABHCGDFE","Passed AC2",NA,"spreadsheet_4","Spreadsheet1","Spreadsheet1",1,"Task Instructions","Screen 13","q9vwda",6,"continue","",4938.40000009537,4905.1,4938.40000009537,4938.40000009537,4905.1,4938.40000009537,1,4938.40000009537,0,0,NA,"Click To Continue","Continue Button",2,"object-2989","Task Instructions",NA,"SUPSCO05489"
"8",1721836023223,"24/07/2024 15:47:03",1721839623223,1,"24/07/2024 17:47:03",177048,9,"task-xk4o",NA,39183556,11494997,NA,"complete",NA,"computer","Desktop or Laptop","Windows 10","Chrome 127.0.0.0","3460x1442","3460x1320",NA,NA,0,"Task Introduction and Instructions (re-introduce video and audio) (Clone) (Clone)",3,"ABHCGDFE","Passed AC2",NA,"spreadsheet_4","Spreadsheet1","Spreadsheet1",1,"Task Instructions","Screen 11","oyulb7",7,"continue","",5157.60000004769,5138.7,5157.60000004769,5157.60000004769,5138.7,5157.60000004769,1,5157.60000004769,0,0,NA,"Click To Continue","Continue Button",2,"object-52","Task Instructions",NA,"SUPSCO05489"
"9",1721836025970,"24/07/2024 15:47:05",1721839625970,1,"24/07/2024 17:47:05",177048,9,"task-xk4o",NA,39183556,11494997,NA,"complete",NA,"computer","Desktop or Laptop","Windows 10","Chrome 127.0.0.0","3460x1442","3460x1320",NA,NA,0,"Task Introduction and Instructions (re-introduce video and audio) (Clone) (Clone)",3,"ABHCGDFE","Passed AC2",NA,"spreadsheet_4","Spreadsheet1","Spreadsheet1",1,"Task Instructions","Screen 5","8nvnao",8,"continue","",2765.10000009536,2736.3,2765.10000009536,2765.10000009536,2736.3,2765.10000009536,1,2765.10000009536,0,0,NA,"Click To Continue","Continue Button",2,"object-44","Task Instructions",NA,"SUPSCO05489"
"10",1721836025974,"24/07/2024 15:47:05",1721839625974,1,"24/07/2024 17:47:05",177048,9,"task-xk4o",NA,39183556,11494997,NA,"complete",NA,"computer","Desktop or Laptop","Windows 10","Chrome 127.0.0.0","3460x1442","3460x1320",NA,NA,0,"Task Introduction and Instructions (re-introduce video and audio) (Clone) (Clone)",3,"ABHCGDFE","Passed AC2",NA,"spreadsheet_4","Spreadsheet1","Spreadsheet1",NA,"","","",NA,"info","END",NA,NA,NA,NA,NA,NA,0,NA,NA,NA,NA,"","",NA,"","",NA,"SUPSCO05489"
"1",1721989082352,"26/07/2024 10:18:02",1721992682352,1,"26/07/2024 12:18:02",177048,9,"task-xk4o",NA,39213858,11503486,NA,"complete",NA,"computer","Desktop or Laptop","Chromium OS 14541.0.0","Chrome 126.0.0.0","1920x1080","1920x945",NA,NA,0,"Task Introduction and Instructions (re-introduce video and audio) (Clone) (Clone)",3,"DECFBGAH","Passed AC2",NA,"spreadsheet","Spreadsheet1","Spreadsheet1",NA,"","","",NA,"info","BEGIN",NA,NA,NA,NA,NA,NA,0,NA,NA,NA,NA,"","",NA,"","",NA,"SUPSCO15787"
"2",1721989087998,"26/07/2024 10:18:07",1721992687998,1,"26/07/2024 12:18:07",177048,9,"task-xk4o",NA,39213858,11503486,NA,"complete",NA,"computer","Desktop or Laptop","Chromium OS 14541.0.0","Chrome 126.0.0.0","1920x1080","1920x945",NA,NA,0,"Task Introduction and Instructions (re-introduce video and audio) (Clone) (Clone)",3,"DECFBGAH","Passed AC2",NA,"spreadsheet","Spreadsheet1","Spreadsheet1",1,"Task Instructions","Screen 1","anr7sn",1,"continue","",5159.00000000014,5145.5,5159.00000000014,5159.00000000014,5145.5,5159.00000000014,1,5159.00000000014,0,0,NA,"Click To Continue","Continue Button",3,"object-60","Task Instructions",NA,"SUPSCO15787"
"3",1721989090975,"26/07/2024 10:18:10",1721992690975,1,"26/07/2024 12:18:10",177048,9,"task-xk4o",NA,39213858,11503486,NA,"complete",NA,"computer","Desktop or Laptop","Chromium OS 14541.0.0","Chrome 126.0.0.0","1920x1080","1920x945",NA,NA,0,"Task Introduction and Instructions (re-introduce video and audio) (Clone) (Clone)",3,"DECFBGAH","Passed AC2",NA,"spreadsheet","Spreadsheet1","Spreadsheet1",1,"Task Instructions","Screen 4","spepx9",2,"continue","",2990.50000000014,2980.7,2990.50000000014,2990.50000000014,2980.7,2990.50000000014,1,2990.50000000014,0,0,NA,"Click To Continue","Continue Button",2,"object-9","Task Instructions",NA,"SUPSCO15787"
"4",1721989100265,"26/07/2024 10:18:20",1721992700265,1,"26/07/2024 12:18:20",177048,9,"task-xk4o",NA,39213858,11503486,NA,"complete",NA,"computer","Desktop or Laptop","Chromium OS 14541.0.0","Chrome 126.0.0.0","1920x1080","1920x945",NA,NA,0,"Task Introduction and Instructions (re-introduce video and audio) (Clone) (Clone)",3,"DECFBGAH","Passed AC2",NA,"spreadsheet","Spreadsheet1","Spreadsheet1",1,"Task Instructions","Screen 2","ce2tc8",3,"continue","",9299.70000000005,9291.8,9299.70000000005,9299.70000000005,9291.8,9299.70000000005,1,9299.70000000005,0,0,NA,"Click To Continue","Continue Button",3,"object-59","Task Instructions",NA,"SUPSCO15787"
"5",1721989119723,"26/07/2024 10:18:39",1721992719723,1,"26/07/2024 12:18:39",177048,9,"task-xk4o",NA,39213858,11503486,NA,"complete",NA,"computer","Desktop or Laptop","Chromium OS 14541.0.0","Chrome 126.0.0.0","1920x1080","1920x945",NA,NA,0,"Task Introduction and Instructions (re-introduce video and audio) (Clone) (Clone)",3,"DECFBGAH","Passed AC2",NA,"spreadsheet","Spreadsheet1","Spreadsheet1",1,"Task Instructions","Screen 3","1qtc8v",4,"continue","",19466.6,19449.8,19466.6,19466.6,19449.8,19466.6,1,19466.6,0,0,NA,"Click To Continue","Continue Button",2,"object-2983","Task Instructions",NA,"SUPSCO15787"
"6",1721989132309,"26/07/2024 10:18:52",1721992732309,1,"26/07/2024 12:18:52",177048,9,"task-xk4o",NA,39213858,11503486,NA,"complete",NA,"computer","Desktop or Laptop","Chromium OS 14541.0.0","Chrome 126.0.0.0","1920x1080","1920x945",NA,NA,0,"Task Introduction and Instructions (re-introduce video and audio) (Clone) (Clone)",3,"DECFBGAH","Passed AC2",NA,"spreadsheet","Spreadsheet1","Spreadsheet1",1,"Task Instructions","Screen 12","1a4vu2",5,"continue","",12603.1,12588.9,12603.1,12603.1,12588.9,12603.1,1,12603.1,0,0,NA,"Click To Continue","Continue Button",2,"object-2466","Task Instructions",NA,"SUPSCO15787"
"7",1721989137470,"26/07/2024 10:18:57",1721992737470,1,"26/07/2024 12:18:57",177048,9,"task-xk4o",NA,39213858,11503486,NA,"complete",NA,"computer","Desktop or Laptop","Chromium OS 14541.0.0","Chrome 126.0.0.0","1920x1080","1920x945",NA,NA,0,"Task Introduction and Instructions (re-introduce video and audio) (Clone) (Clone)",3,"DECFBGAH","Passed AC2",NA,"spreadsheet","Spreadsheet1","Spreadsheet1",1,"Task Instructions","Screen 13","q9vwda",6,"continue","",5174.9,5162.2,5174.9,5174.9,5162.2,5174.9,1,5174.9,0,0,NA,"Click To Continue","Continue Button",2,"object-2989","Task Instructions",NA,"SUPSCO15787"
"8",1721989144815,"26/07/2024 10:19:04",1721992744815,1,"26/07/2024 12:19:04",177048,9,"task-xk4o",NA,39213858,11503486,NA,"complete",NA,"computer","Desktop or Laptop","Chromium OS 14541.0.0","Chrome 126.0.0.0","1920x1080","1920x945",NA,NA,0,"Task Introduction and Instructions (re-introduce video and audio) (Clone) (Clone)",3,"DECFBGAH","Passed AC2",NA,"spreadsheet","Spreadsheet1","Spreadsheet1",1,"Task Instructions","Screen 11","oyulb7",7,"continue","",7357.40000000018,7343.5,7357.40000000018,7357.40000000018,7343.5,7357.40000000018,1,7357.40000000018,0,0,NA,"Click To Continue","Continue Button",2,"object-52","Task Instructions",NA,"SUPSCO15787"
"9",1721989147753,"26/07/2024 10:19:07",1721992747753,1,"26/07/2024 12:19:07",177048,9,"task-xk4o",NA,39213858,11503486,NA,"complete",NA,"computer","Desktop or Laptop","Chromium OS 14541.0.0","Chrome 126.0.0.0","1920x1080","1920x945",NA,NA,0,"Task Introduction and Instructions (re-introduce video and audio) (Clone) (Clone)",3,"DECFBGAH","Passed AC2",NA,"spreadsheet","Spreadsheet1","Spreadsheet1",1,"Task Instructions","Screen 5","8nvnao",8,"continue","",2952.30000000009,2947.39999999999,2952.30000000009,2952.30000000009,2947.39999999999,2952.30000000009,1,2952.30000000009,0,0,NA,"Click To Continue","Continue Button",2,"object-44","Task Instructions",NA,"SUPSCO15787"
"10",1721989147758,"26/07/2024 10:19:07",1721992747758,1,"26/07/2024 12:19:07",177048,9,"task-xk4o",NA,39213858,11503486,NA,"complete",NA,"computer","Desktop or Laptop","Chromium OS 14541.0.0","Chrome 126.0.0.0","1920x1080","1920x945",NA,NA,0,"Task Introduction and Instructions (re-introduce video and audio) (Clone) (Clone)",3,"DECFBGAH","Passed AC2",NA,"spreadsheet","Spreadsheet1","Spreadsheet1",NA,"","","",NA,"info","END",NA,NA,NA,NA,NA,NA,0,NA,NA,NA,NA,"","",NA,"","",NA,"SUPSCO15787"
"1",1722262644949,"29/07/2024 14:17:24",1722266244949,1,"29/07/2024 16:17:24",177048,9,"task-xk4o",NA,39258507,11513960,NA,"complete",NA,"computer","Desktop or Laptop","Windows 10","Chrome 126.0.0.0","1536x864","1536x730",NA,NA,0,"Task Introduction and Instructions (re-introduce video and audio) (Clone) (Clone)",3,"EFDGCHBA","Passed AC2",NA,"spreadsheet_5","Spreadsheet1","Spreadsheet1",NA,"","","",NA,"info","BEGIN",NA,NA,NA,NA,NA,NA,0,NA,NA,NA,NA,"","",NA,"","",NA,"SUPSCO97532"
"2",1722262648068,"29/07/2024 14:17:28",1722266248068,1,"29/07/2024 16:17:28",177048,9,"task-xk4o",NA,39258507,11513960,NA,"complete",NA,"computer","Desktop or Laptop","Windows 10","Chrome 126.0.0.0","1536x864","1536x730",NA,NA,0,"Task Introduction and Instructions (re-introduce video and audio) (Clone) (Clone)",3,"EFDGCHBA","Passed AC2",NA,"spreadsheet_5","Spreadsheet1","Spreadsheet1",1,"Task Instructions","Screen 1","anr7sn",1,"continue","",2919.30000009537,2913.9,2919.30000009537,2919.30000009537,2913.9,2919.30000009537,1,2919.30000009537,0,0,NA,"Click To Continue","Continue Button",3,"object-60","Task Instructions",NA,"SUPSCO97532"
"3",1722262650876,"29/07/2024 14:17:30",1722266250876,1,"29/07/2024 16:17:30",177048,9,"task-xk4o",NA,39258507,11513960,NA,"complete",NA,"computer","Desktop or Laptop","Windows 10","Chrome 126.0.0.0","1536x864","1536x730",NA,NA,0,"Task Introduction and Instructions (re-introduce video and audio) (Clone) (Clone)",3,"EFDGCHBA","Passed AC2",NA,"spreadsheet_5","Spreadsheet1","Spreadsheet1",1,"Task Instructions","Screen 4","spepx9",2,"continue","",2813.40000009537,2797.9,2813.40000009537,2813.40000009537,2797.9,2813.40000009537,1,2813.40000009537,0,0,NA,"Click To Continue","Continue Button",2,"object-9","Task Instructions",NA,"SUPSCO97532"
"4",1722262663924,"29/07/2024 14:17:43",1722266263924,1,"29/07/2024 16:17:43",177048,9,"task-xk4o",NA,39258507,11513960,NA,"complete",NA,"computer","Desktop or Laptop","Windows 10","Chrome 126.0.0.0","1536x864","1536x730",NA,NA,0,"Task Introduction and Instructions (re-introduce video and audio) (Clone) (Clone)",3,"EFDGCHBA","Passed AC2",NA,"spreadsheet_5","Spreadsheet1","Spreadsheet1",1,"Task Instructions","Screen 2","ce2tc8",3,"continue","",13065.1,13055.1,13065.1,13065.1,13055.1,13065.1,1,13065.1,0,0,NA,"Click To Continue","Continue Button",3,"object-59","Task Instructions",NA,"SUPSCO97532"
"5",1722262671928,"29/07/2024 14:17:51",1722266271928,1,"29/07/2024 16:17:51",177048,9,"task-xk4o",NA,39258507,11513960,NA,"complete",NA,"computer","Desktop or Laptop","Windows 10","Chrome 126.0.0.0","1536x864","1536x730",NA,NA,0,"Task Introduction and Instructions (re-introduce video and audio) (Clone) (Clone)",3,"EFDGCHBA","Passed AC2",NA,"spreadsheet_5","Spreadsheet1","Spreadsheet1",1,"Task Instructions","Screen 3","1qtc8v",4,"continue","",8014.80000019073,8009.9,8014.80000019073,8014.80000019073,8009.9,8014.80000019073,1,8014.80000019073,0,0,NA,"Click To Continue","Continue Button",2,"object-2983","Task Instructions",NA,"SUPSCO97532"
"6",1722262680080,"29/07/2024 14:18:00",1722266280080,1,"29/07/2024 16:18:00",177048,9,"task-xk4o",NA,39258507,11513960,NA,"complete",NA,"computer","Desktop or Laptop","Windows 10","Chrome 126.0.0.0","1536x864","1536x730",NA,NA,0,"Task Introduction and Instructions (re-introduce video and audio) (Clone) (Clone)",3,"EFDGCHBA","Passed AC2",NA,"spreadsheet_5","Spreadsheet1","Spreadsheet1",1,"Task Instructions","Screen 12","1a4vu2",5,"continue","",8156.50000009537,8142.9,8156.50000009537,8156.50000009537,8142.9,8156.50000009537,1,8156.50000009537,0,0,NA,"Click To Continue","Continue Button",2,"object-2466","Task Instructions",NA,"SUPSCO97532"
"7",1722262685693,"29/07/2024 14:18:05",1722266285693,1,"29/07/2024 16:18:05",177048,9,"task-xk4o",NA,39258507,11513960,NA,"complete",NA,"computer","Desktop or Laptop","Windows 10","Chrome 126.0.0.0","1536x864","1536x730",NA,NA,0,"Task Introduction and Instructions (re-introduce video and audio) (Clone) (Clone)",3,"EFDGCHBA","Passed AC2",NA,"spreadsheet_5","Spreadsheet1","Spreadsheet1",1,"Task Instructions","Screen 13","q9vwda",6,"continue","",5626.40000004768,5612,5626.40000004768,5626.40000004768,5612,5626.40000004768,1,5626.40000004768,0,0,NA,"Click To Continue","Continue Button",2,"object-2989","Task Instructions",NA,"SUPSCO97532"
"8",1722262688493,"29/07/2024 14:18:08",1722266288493,1,"29/07/2024 16:18:08",177048,9,"task-xk4o",NA,39258507,11513960,NA,"complete",NA,"computer","Desktop or Laptop","Windows 10","Chrome 126.0.0.0","1536x864","1536x730",NA,NA,0,"Task Introduction and Instructions (re-introduce video and audio) (Clone) (Clone)",3,"EFDGCHBA","Passed AC2",NA,"spreadsheet_5","Spreadsheet1","Spreadsheet1",1,"Task Instructions","Screen 11","oyulb7",7,"continue","",2814,2797.5,2814,2814,2797.5,2814,1,2814,0,0,NA,"Click To Continue","Continue Button",2,"object-52","Task Instructions",NA,"SUPSCO97532"
"9",1722262691265,"29/07/2024 14:18:11",1722266291265,1,"29/07/2024 16:18:11",177048,9,"task-xk4o",NA,39258507,11513960,NA,"complete",NA,"computer","Desktop or Laptop","Windows 10","Chrome 126.0.0.0","1536x864","1536x730",NA,NA,0,"Task Introduction and Instructions (re-introduce video and audio) (Clone) (Clone)",3,"EFDGCHBA","Passed AC2",NA,"spreadsheet_5","Spreadsheet1","Spreadsheet1",1,"Task Instructions","Screen 5","8nvnao",8,"continue","",2788.90000004768,2781.1,2788.90000004768,2788.90000004768,2781.1,2788.90000004768,1,2788.90000004768,0,0,NA,"Click To Continue","Continue Button",2,"object-44","Task Instructions",NA,"SUPSCO97532"
"10",1722262691270,"29/07/2024 14:18:11",1722266291270,1,"29/07/2024 16:18:11",177048,9,"task-xk4o",NA,39258507,11513960,NA,"complete",NA,"computer","Desktop or Laptop","Windows 10","Chrome 126.0.0.0","1536x864","1536x730",NA,NA,0,"Task Introduction and Instructions (re-introduce video and audio) (Clone) (Clone)",3,"EFDGCHBA","Passed AC2",NA,"spreadsheet_5","Spreadsheet1","Spreadsheet1",NA,"","","",NA,"info","END",NA,NA,NA,NA,NA,NA,0,NA,NA,NA,NA,"","",NA,"","",NA,"SUPSCO97532"
"1",1721912127833,"25/07/2024 12:55:27",1721915727833,1,"25/07/2024 14:55:27",177048,9,"task-xk4o",NA,39199714,11498723,NA,"complete",NA,"computer","Desktop or Laptop","Windows 10","Chrome 126.0.0.0","1536x864","1536x730",NA,NA,0,"Task Introduction and Instructions (re-introduce video and audio) (Clone) (Clone)",3,"CDBEAFHG","Passed AC2",NA,"spreadsheet_2","Spreadsheet1","Spreadsheet1",NA,"","","",NA,"info","BEGIN",NA,NA,NA,NA,NA,NA,0,NA,NA,NA,NA,"","",NA,"","",NA,"SUPSCO05791"
"2",1721912132866,"25/07/2024 12:55:32",1721915732866,1,"25/07/2024 14:55:32",177048,9,"task-xk4o",NA,39199714,11498723,NA,"complete",NA,"computer","Desktop or Laptop","Windows 10","Chrome 126.0.0.0","1536x864","1536x730",NA,NA,0,"Task Introduction and Instructions (re-introduce video and audio) (Clone) (Clone)",3,"CDBEAFHG","Passed AC2",NA,"spreadsheet_2","Spreadsheet1","Spreadsheet1",1,"Task Instructions","Screen 1","anr7sn",1,"continue","",4867.4,4858.8,4867.4,4867.4,4858.8,4867.4,1,4867.4,0,0,NA,"Click To Continue","Continue Button",3,"object-60","Task Instructions",NA,"SUPSCO05791"
"3",1721912135751,"25/07/2024 12:55:35",1721915735751,1,"25/07/2024 14:55:35",177048,9,"task-xk4o",NA,39199714,11498723,NA,"complete",NA,"computer","Desktop or Laptop","Windows 10","Chrome 126.0.0.0","1536x864","1536x730",NA,NA,0,"Task Introduction and Instructions (re-introduce video and audio) (Clone) (Clone)",3,"CDBEAFHG","Passed AC2",NA,"spreadsheet_2","Spreadsheet1","Spreadsheet1",1,"Task Instructions","Screen 4","spepx9",2,"continue","",2898.09999999702,2890.8,2898.09999999702,2898.09999999702,2890.8,2898.09999999702,1,2898.09999999702,0,0,NA,"Click To Continue","Continue Button",2,"object-9","Task Instructions",NA,"SUPSCO05791"
"4",1721912159273,"25/07/2024 12:55:59",1721915759273,1,"25/07/2024 14:55:59",177048,9,"task-xk4o",NA,39199714,11498723,NA,"complete",NA,"computer","Desktop or Laptop","Windows 10","Chrome 126.0.0.0","1536x864","1536x730",NA,NA,0,"Task Introduction and Instructions (re-introduce video and audio) (Clone) (Clone)",3,"CDBEAFHG","Passed AC2",NA,"spreadsheet_2","Spreadsheet1","Spreadsheet1",1,"Task Instructions","Screen 2","ce2tc8",3,"continue","",23528.3999999911,23524.4,23528.3999999911,23528.3999999911,23524.4,23528.3999999911,1,23528.3999999911,0,0,NA,"Click To Continue","Continue Button",3,"object-59","Task Instructions",NA,"SUPSCO05791"
