"Event.Index","UTC.Timestamp","UTC.Date.and.Time","Local.Timestamp","Local.Timezone","Local.Date.and.Time","Experiment.ID","Experiment.Version","Tree.Node.Key","Repeat.Key","Schedule.ID","Participant.Private.ID","Participant.Starting.Group","Participant.Status","Participant.Completion.Code","Participant.External.Session.ID","Participant.Device.Type","Participant.Device","Participant.OS","Participant.Browser","Participant.Monitor.Size","Participant.Viewport.Size","Checkpoint","Room.ID","Room.Order","Task.Name","Task.Version","order.ot79","branch.g31k","branch.5gtn","counterbalance.qny1","Spreadsheet","Current.Spreadsheet","Trial.Number","Display","Screen","Screen.ID","Screen.Counter","Response.Type","Response","Onset.Time","Clock.Time","Reaction.Time","Absolute.Onset.Time","Absolute.Clock.Time","Absolute.Reaction.Time","Correct","Response.Onset","Response.Duration","Proportion","Tag","Component.Name","Object.Name","Object.Number","Object.ID","Spreadsheet..display","Manipulation..Spreadsheet","Random_ID_new"
"1",1719230939613,"24/06/2024 12:08:59",1719234539613,1,"24/06/2024 14:08:59",177048,9,"task-vy7n",NA,38456619,11304199,NA,"complete",NA,NA,"computer","Desktop or Laptop","Windows 10","Chrome 126.0.0.0","1280x720","1280x720",NA,NA,0,"BIQ-A",3,"EFDGCHBA","Passed AC2","","spreadsheet_3","Spreadsheet1","Spreadsheet1",NA,"","","",NA,"info","BEGIN",NA,NA,NA,NA,NA,NA,0,NA,NA,NA,NA,"","",NA,"","",NA,"SUPSCO79155"
"2",1719230983290,"24/06/2024 12:09:43",1719234583290,1,"24/06/2024 14:09:43",177048,9,"task-vy7n",NA,38456619,11304199,NA,"complete",NA,NA,"computer","Desktop or Laptop","Windows 10","Chrome 126.0.0.0","1280x720","1280x720",NA,NA,0,"BIQ-A",3,"EFDGCHBA","Passed AC2","","spreadsheet_3","Spreadsheet1","Spreadsheet1",1,"BIQ","Screen 1","9dh6eq",1,"continue","",43700.3,43683.8,43700.3,43700.3,43683.8,43700.3,1,43700.3,0,0,NA,"Click To Continue","Continue Button",23,"object-48","BIQ",NA,"SUPSCO79155"
"3",1719230983294,"24/06/2024 12:09:43",1719234583294,1,"24/06/2024 14:09:43",177048,9,"task-vy7n",NA,38456619,11304199,NA,"complete",NA,NA,"computer","Desktop or Laptop","Windows 10","Chrome 126.0.0.0","1280x720","1280x720",NA,NA,0,"BIQ-A",3,"EFDGCHBA","Passed AC2","","spreadsheet_3","Spreadsheet1","Spreadsheet1",1,"BIQ","Screen 1","9dh6eq",1,"response","6",28700.2,43683.8,43700.3,28700.2,43683.8,43700.3,1,28700.2,15000.1,0,NA,"Rating Scale","Rating Scale",3,"object-5","BIQ",NA,"SUPSCO79155"
"4",1719230983295,"24/06/2024 12:09:43",1719234583295,1,"24/06/2024 14:09:43",177048,9,"task-vy7n",NA,38456619,11304199,NA,"complete",NA,NA,"computer","Desktop or Laptop","Windows 10","Chrome 126.0.0.0","1280x720","1280x720",NA,NA,0,"BIQ-A",3,"EFDGCHBA","Passed AC2","","spreadsheet_3","Spreadsheet1","Spreadsheet1",1,"BIQ","Screen 1","9dh6eq",1,"response","5",35617,43683.8,43700.3,35617,43683.8,43700.3,1,35617,8083.3,0,NA,"Rating Scale","Rating Scale",10,"object-18","BIQ",NA,"SUPSCO79155"
"5",1719230983296,"24/06/2024 12:09:43",1719234583296,1,"24/06/2024 14:09:43",177048,9,"task-vy7n",NA,38456619,11304199,NA,"complete",NA,NA,"computer","Desktop or Laptop","Windows 10","Chrome 126.0.0.0","1280x720","1280x720",NA,NA,0,"BIQ-A",3,"EFDGCHBA","Passed AC2","","spreadsheet_3","Spreadsheet1","Spreadsheet1",1,"BIQ","Screen 1","9dh6eq",1,"response","4",42633.9,43683.8,43700.3,42633.9,43683.8,43700.3,1,42633.9,1066.39999999999,0,NA,"Rating Scale","Rating Scale",17,"object-80","BIQ",NA,"SUPSCO79155"
"6",1719231006857,"24/06/2024 12:10:06",1719234606857,1,"24/06/2024 14:10:06",177048,9,"task-vy7n",NA,38456619,11304199,NA,"complete",NA,NA,"computer","Desktop or Laptop","Windows 10","Chrome 126.0.0.0","1280x720","1280x720",NA,NA,0,"BIQ-A",3,"EFDGCHBA","Passed AC2","","spreadsheet_3","Spreadsheet1","Spreadsheet1",1,"BIQ","Screen 2","o21mwi",2,"continue","",23588.1000000007,23583.7,23588.1000000007,23588.1000000007,23583.7,23588.1000000007,1,23588.1000000007,0,0,NA,"Click To Continue","Continue Button",22,"object-50","BIQ",NA,"SUPSCO79155"
"7",1719231006863,"24/06/2024 12:10:06",1719234606863,1,"24/06/2024 14:10:06",177048,9,"task-vy7n",NA,38456619,11304199,NA,"complete",NA,NA,"computer","Desktop or Laptop","Windows 10","Chrome 126.0.0.0","1280x720","1280x720",NA,NA,0,"BIQ-A",3,"EFDGCHBA","Passed AC2","","spreadsheet_3","Spreadsheet1","Spreadsheet1",1,"BIQ","Screen 2","o21mwi",2,"response","6",8166.8,23583.7,23594.1000000007,8166.8,23583.7,23594.1000000007,1,8166.8,15427.3000000007,0,NA,"Rating Scale","Rating Scale",2,"object-259","BIQ",NA,"SUPSCO79155"
"8",1719231006864,"24/06/2024 12:10:06",1719234606864,1,"24/06/2024 14:10:06",177048,9,"task-vy7n",NA,38456619,11304199,NA,"complete",NA,NA,"computer","Desktop or Laptop","Windows 10","Chrome 126.0.0.0","1280x720","1280x720",NA,NA,0,"BIQ-A",3,"EFDGCHBA","Passed AC2","","spreadsheet_3","Spreadsheet1","Spreadsheet1",1,"BIQ","Screen 2","o21mwi",2,"response","6",11783.6,23583.7,23595.6000000007,11783.6,23583.7,23595.6000000007,1,11783.6,11812.0000000007,0,NA,"Rating Scale","Rating Scale",9,"object-36","BIQ",NA,"SUPSCO79155"
"9",1719231006866,"24/06/2024 12:10:06",1719234606866,1,"24/06/2024 14:10:06",177048,9,"task-vy7n",NA,38456619,11304199,NA,"complete",NA,NA,"computer","Desktop or Laptop","Windows 10","Chrome 126.0.0.0","1280x720","1280x720",NA,NA,0,"BIQ-A",3,"EFDGCHBA","Passed AC2","","spreadsheet_3","Spreadsheet1","Spreadsheet1",1,"BIQ","Screen 2","o21mwi",2,"response","1",17266.9,23583.7,23596.9999999993,17266.9,23583.7,23596.9999999993,1,17266.9,6330.09999999926,0,NA,"Rating Scale","Rating Scale",16,"object-86","BIQ",NA,"SUPSCO79155"
"10",1719231019232,"24/06/2024 12:10:19",1719234619232,1,"24/06/2024 14:10:19",177048,9,"task-vy7n",NA,38456619,11304199,NA,"complete",NA,NA,"computer","Desktop or Laptop","Windows 10","Chrome 126.0.0.0","1280x720","1280x720",NA,NA,0,"BIQ-A",3,"EFDGCHBA","Passed AC2","","spreadsheet_3","Spreadsheet1","Spreadsheet1",1,"BIQ","Screen 3","iz3the",3,"continue","",12380.0000000004,12367,12380.0000000004,12380.0000000004,12367,12380.0000000004,1,12380.0000000004,0,0,NA,"Click To Continue","Continue Button",22,"object-73","BIQ",NA,"SUPSCO79155"
"11",1719231019234,"24/06/2024 12:10:19",1719234619234,1,"24/06/2024 14:10:19",177048,9,"task-vy7n",NA,38456619,11304199,NA,"complete",NA,NA,"computer","Desktop or Laptop","Windows 10","Chrome 126.0.0.0","1280x720","1280x720",NA,NA,0,"BIQ-A",3,"EFDGCHBA","Passed AC2","","spreadsheet_3","Spreadsheet1","Spreadsheet1",1,"BIQ","Screen 3","iz3the",3,"response","1",6016.70000000001,12367,12382.4000000008,6016.70000000001,12367,12382.4000000008,1,6016.70000000001,6365.70000000074,0,NA,"Rating Scale","Rating Scale",2,"object-53","BIQ",NA,"SUPSCO79155"
"12",1719231019235,"24/06/2024 12:10:19",1719234619235,1,"24/06/2024 14:10:19",177048,9,"task-vy7n",NA,38456619,11304199,NA,"complete",NA,NA,"computer","Desktop or Laptop","Windows 10","Chrome 126.0.0.0","1280x720","1280x720",NA,NA,0,"BIQ-A",3,"EFDGCHBA","Passed AC2","","spreadsheet_3","Spreadsheet1","Spreadsheet1",1,"BIQ","Screen 3","iz3the",3,"response","2",8783.5,12367,12382.9000000008,8783.5,12367,12382.9000000008,1,8783.5,3599.40000000075,0,NA,"Rating Scale","Rating Scale",9,"object-60","BIQ",NA,"SUPSCO79155"
"13",1719231019236,"24/06/2024 12:10:19",1719234619236,1,"24/06/2024 14:10:19",177048,9,"task-vy7n",NA,38456619,11304199,NA,"complete",NA,NA,"computer","Desktop or Laptop","Windows 10","Chrome 126.0.0.0","1280x720","1280x720",NA,NA,0,"BIQ-A",3,"EFDGCHBA","Passed AC2","","spreadsheet_3","Spreadsheet1","Spreadsheet1",1,"BIQ","Screen 3","iz3the",3,"response","4",11416.9,12367,12383.5000000004,11416.9,12367,12383.5000000004,1,11416.9,966.60000000037,0,NA,"Rating Scale","Rating Scale",16,"object-67","BIQ",NA,"SUPSCO79155"
"14",1719231019240,"24/06/2024 12:10:19",1719234619240,1,"24/06/2024 14:10:19",177048,9,"task-vy7n",NA,38456619,11304199,NA,"complete",NA,NA,"computer","Desktop or Laptop","Windows 10","Chrome 126.0.0.0","1280x720","1280x720",NA,NA,0,"BIQ-A",3,"EFDGCHBA","Passed AC2","","spreadsheet_3","Spreadsheet1","Spreadsheet1",NA,"","","",NA,"info","END",NA,NA,NA,NA,NA,NA,0,NA,NA,NA,NA,"","",NA,"","",NA,"SUPSCO79155"
"1",1719416291972,"26/06/2024 15:38:11",1719419891972,1,"26/06/2024 17:38:11",177048,9,"task-vy7n",NA,38523528,11319143,NA,"complete",NA,NA,"computer","Desktop or Laptop","Windows 10","Chrome 125.0.0.0","2560x1440","2560x1271",NA,NA,0,"BIQ-A",3,"CDBEAFHG","Passed AC2","","spreadsheet_4","Spreadsheet1","Spreadsheet1",NA,"","","",NA,"info","BEGIN",NA,NA,NA,NA,NA,NA,0,NA,NA,NA,NA,"","",NA,"","",NA,"SUPSCO81666"
"2",1719416322127,"26/06/2024 15:38:42",1719419922127,1,"26/06/2024 17:38:42",177048,9,"task-vy7n",NA,38523528,11319143,NA,"complete",NA,NA,"computer","Desktop or Laptop","Windows 10","Chrome 125.0.0.0","2560x1440","2560x1271",NA,NA,0,"BIQ-A",3,"CDBEAFHG","Passed AC2","","spreadsheet_4","Spreadsheet1","Spreadsheet1",1,"BIQ","Screen 1","9dh6eq",1,"continue","",30165.6999999523,30158.2,30165.6999999523,30165.6999999523,30158.2,30165.6999999523,1,30165.6999999523,0,0,NA,"Click To Continue","Continue Button",23,"object-48","BIQ",NA,"SUPSCO81666"
"3",1719416322128,"26/06/2024 15:38:42",1719419922128,1,"26/06/2024 17:38:42",177048,9,"task-vy7n",NA,38523528,11319143,NA,"complete",NA,NA,"computer","Desktop or Laptop","Windows 10","Chrome 125.0.0.0","2560x1440","2560x1271",NA,NA,0,"BIQ-A",3,"CDBEAFHG","Passed AC2","","spreadsheet_4","Spreadsheet1","Spreadsheet1",1,"BIQ","Screen 1","9dh6eq",1,"response","1",11459.5,30158.2,30168.7999999762,11459.5,30158.2,30168.7999999762,1,11459.5,18709.2999999762,0,NA,"Rating Scale","Rating Scale",3,"object-5","BIQ",NA,"SUPSCO81666"
"4",1719416322128,"26/06/2024 15:38:42",1719419922128,1,"26/06/2024 17:38:42",177048,9,"task-vy7n",NA,38523528,11319143,NA,"complete",NA,NA,"computer","Desktop or Laptop","Windows 10","Chrome 125.0.0.0","2560x1440","2560x1271",NA,NA,0,"BIQ-A",3,"CDBEAFHG","Passed AC2","","spreadsheet_4","Spreadsheet1","Spreadsheet1",1,"BIQ","Screen 1","9dh6eq",1,"response","6",24003.2,30158.2,30168.9999999046,24003.2,30158.2,30168.9999999046,1,24003.2,6165.79999990463,0,NA,"Rating Scale","Rating Scale",10,"object-18","BIQ",NA,"SUPSCO81666"
"5",1719416322128,"26/06/2024 15:38:42",1719419922128,1,"26/06/2024 17:38:42",177048,9,"task-vy7n",NA,38523528,11319143,NA,"complete",NA,NA,"computer","Desktop or Laptop","Windows 10","Chrome 125.0.0.0","2560x1440","2560x1271",NA,NA,0,"BIQ-A",3,"CDBEAFHG","Passed AC2","","spreadsheet_4","Spreadsheet1","Spreadsheet1",1,"BIQ","Screen 1","9dh6eq",1,"response","6",28556.9,30158.2,30168.9999999046,28556.9,30158.2,30168.9999999046,1,28556.9,1612.09999990463,0,NA,"Rating Scale","Rating Scale",17,"object-80","BIQ",NA,"SUPSCO81666"
"6",1719416340860,"26/06/2024 15:39:00",1719419940860,1,"26/06/2024 17:39:00",177048,9,"task-vy7n",NA,38523528,11319143,NA,"complete",NA,NA,"computer","Desktop or Laptop","Windows 10","Chrome 125.0.0.0","2560x1440","2560x1271",NA,NA,0,"BIQ-A",3,"CDBEAFHG","Passed AC2","","spreadsheet_4","Spreadsheet1","Spreadsheet1",1,"BIQ","Screen 2","o21mwi",2,"continue","",18742.5999999762,18732.2,18742.5999999762,18742.5999999762,18732.2,18742.5999999762,1,18742.5999999762,0,0,NA,"Click To Continue","Continue Button",22,"object-50","BIQ",NA,"SUPSCO81666"
"7",1719416340864,"26/06/2024 15:39:00",1719419940864,1,"26/06/2024 17:39:00",177048,9,"task-vy7n",NA,38523528,11319143,NA,"complete",NA,NA,"computer","Desktop or Laptop","Windows 10","Chrome 125.0.0.0","2560x1440","2560x1271",NA,NA,0,"BIQ-A",3,"CDBEAFHG","Passed AC2","","spreadsheet_4","Spreadsheet1","Spreadsheet1",1,"BIQ","Screen 2","o21mwi",2,"response","8",3703.1,18732.2,18746.3999999285,3703.1,18732.2,18746.3999999285,1,3703.1,15043.2999999285,0,NA,"Rating Scale","Rating Scale",2,"object-259","BIQ",NA,"SUPSCO81666"
"8",1719416340864,"26/06/2024 15:39:00",1719419940864,1,"26/06/2024 17:39:00",177048,9,"task-vy7n",NA,38523528,11319143,NA,"complete",NA,NA,"computer","Desktop or Laptop","Windows 10","Chrome 125.0.0.0","2560x1440","2560x1271",NA,NA,0,"BIQ-A",3,"CDBEAFHG","Passed AC2","","spreadsheet_4","Spreadsheet1","Spreadsheet1",1,"BIQ","Screen 2","o21mwi",2,"response","7",6355.5,18732.2,18746.8999999285,6355.5,18732.2,18746.8999999285,1,6355.5,12391.3999999285,0,NA,"Rating Scale","Rating Scale",9,"object-36","BIQ",NA,"SUPSCO81666"
"9",1719416340865,"26/06/2024 15:39:00",1719419940865,1,"26/06/2024 17:39:00",177048,9,"task-vy7n",NA,38523528,11319143,NA,"complete",NA,NA,"computer","Desktop or Laptop","Windows 10","Chrome 125.0.0.0","2560x1440","2560x1271",NA,NA,0,"BIQ-A",3,"CDBEAFHG","Passed AC2","","spreadsheet_4","Spreadsheet1","Spreadsheet1",1,"BIQ","Screen 2","o21mwi",2,"response","3",14712.4,18732.2,18747.3999999285,14712.4,18732.2,18747.3999999285,1,14712.4,4034.99999992848,0,NA,"Rating Scale","Rating Scale",16,"object-86","BIQ",NA,"SUPSCO81666"
"10",1719416349446,"26/06/2024 15:39:09",1719419949446,1,"26/06/2024 17:39:09",177048,9,"task-vy7n",NA,38523528,11319143,NA,"complete",NA,NA,"computer","Desktop or Laptop","Windows 10","Chrome 125.0.0.0","2560x1440","2560x1271",NA,NA,0,"BIQ-A",3,"CDBEAFHG","Passed AC2","","spreadsheet_4","Spreadsheet1","Spreadsheet1",1,"BIQ","Screen 3","iz3the",3,"continue","",8596.59999990463,8590.4,8596.59999990463,8596.59999990463,8590.4,8596.59999990463,1,8596.59999990463,0,0,NA,"Click To Continue","Continue Button",22,"object-73","BIQ",NA,"SUPSCO81666"
"11",1719416349446,"26/06/2024 15:39:09",1719419949446,1,"26/06/2024 17:39:09",177048,9,"task-vy7n",NA,38523528,11319143,NA,"complete",NA,NA,"computer","Desktop or Laptop","Windows 10","Chrome 125.0.0.0","2560x1440","2560x1271",NA,NA,0,"BIQ-A",3,"CDBEAFHG","Passed AC2","","spreadsheet_4","Spreadsheet1","Spreadsheet1",1,"BIQ","Screen 3","iz3the",3,"response","0",2568.8,8590.4,8596.89999997616,2568.8,8590.4,8596.89999997616,1,2568.8,6028.09999997616,0,NA,"Rating Scale","Rating Scale",2,"object-53","BIQ",NA,"SUPSCO81666"
"12",1719416349446,"26/06/2024 15:39:09",1719419949446,1,"26/06/2024 17:39:09",177048,9,"task-vy7n",NA,38523528,11319143,NA,"complete",NA,NA,"computer","Desktop or Laptop","Windows 10","Chrome 125.0.0.0","2560x1440","2560x1271",NA,NA,0,"BIQ-A",3,"CDBEAFHG","Passed AC2","","spreadsheet_4","Spreadsheet1","Spreadsheet1",1,"BIQ","Screen 3","iz3the",3,"response","0",5788.1,8590.4,8597.09999990463,5788.1,8590.4,8597.09999990463,1,5788.1,2808.99999990463,0,NA,"Rating Scale","Rating Scale",9,"object-60","BIQ",NA,"SUPSCO81666"
"13",1719416349447,"26/06/2024 15:39:09",1719419949447,1,"26/06/2024 17:39:09",177048,9,"task-vy7n",NA,38523528,11319143,NA,"complete",NA,NA,"computer","Desktop or Laptop","Windows 10","Chrome 125.0.0.0","2560x1440","2560x1271",NA,NA,0,"BIQ-A",3,"CDBEAFHG","Passed AC2","","spreadsheet_4","Spreadsheet1","Spreadsheet1",1,"BIQ","Screen 3","iz3the",3,"response","8",7539.5,8590.4,8597.29999995232,7539.5,8590.4,8597.29999995232,1,7539.5,1057.79999995232,0,NA,"Rating Scale","Rating Scale",16,"object-67","BIQ",NA,"SUPSCO81666"
"14",1719416349449,"26/06/2024 15:39:09",1719419949449,1,"26/06/2024 17:39:09",177048,9,"task-vy7n",NA,38523528,11319143,NA,"complete",NA,NA,"computer","Desktop or Laptop","Windows 10","Chrome 125.0.0.0","2560x1440","2560x1271",NA,NA,0,"BIQ-A",3,"CDBEAFHG","Passed AC2","","spreadsheet_4","Spreadsheet1","Spreadsheet1",NA,"","","",NA,"info","END",NA,NA,NA,NA,NA,NA,0,NA,NA,NA,NA,"","",NA,"","",NA,"SUPSCO81666"
"1",1719570917179,"28/06/2024 10:35:17",1719574517179,1,"28/06/2024 12:35:17",177048,9,"task-vy7n",NA,38562211,11330297,NA,"complete",NA,NA,"computer","Desktop or Laptop","Windows 10","Chrome 126.0.0.0","1366x768","1366x641",NA,NA,0,"BIQ-A",3,"EFDGCHBA","Passed AC2","","spreadsheet","Spreadsheet1","Spreadsheet1",NA,"","","",NA,"info","BEGIN",NA,NA,NA,NA,NA,NA,0,NA,NA,NA,NA,"","",NA,"","",NA,"SUPSCO12782"
"2",1719570953566,"28/06/2024 10:35:53",1719574553566,1,"28/06/2024 12:35:53",177048,9,"task-vy7n",NA,38562211,11330297,NA,"complete",NA,NA,"computer","Desktop or Laptop","Windows 10","Chrome 126.0.0.0","1366x768","1366x641",NA,NA,0,"BIQ-A",3,"EFDGCHBA","Passed AC2","","spreadsheet","Spreadsheet1","Spreadsheet1",1,"BIQ","Screen 1","9dh6eq",1,"continue","",36392.1000000001,36377.6,36392.1000000001,36392.1000000001,36377.6,36392.1000000001,1,36392.1000000001,0,0,NA,"Click To Continue","Continue Button",23,"object-48","BIQ",NA,"SUPSCO12782"
"3",1719570953570,"28/06/2024 10:35:53",1719574553570,1,"28/06/2024 12:35:53",177048,9,"task-vy7n",NA,38562211,11330297,NA,"complete",NA,NA,"computer","Desktop or Laptop","Windows 10","Chrome 126.0.0.0","1366x768","1366x641",NA,NA,0,"BIQ-A",3,"EFDGCHBA","Passed AC2","","spreadsheet","Spreadsheet1","Spreadsheet1",1,"BIQ","Screen 1","9dh6eq",1,"response","3",15014.3,36377.6,36394.4,15014.3,36377.6,36394.4,1,15014.3,21380.1,0,NA,"Rating Scale","Rating Scale",3,"object-5","BIQ",NA,"SUPSCO12782"
"4",1719570953571,"28/06/2024 10:35:53",1719574553571,1,"28/06/2024 12:35:53",177048,9,"task-vy7n",NA,38562211,11330297,NA,"complete",NA,NA,"computer","Desktop or Laptop","Windows 10","Chrome 126.0.0.0","1366x768","1366x641",NA,NA,0,"BIQ-A",3,"EFDGCHBA","Passed AC2","","spreadsheet","Spreadsheet1","Spreadsheet1",1,"BIQ","Screen 1","9dh6eq",1,"response","8",31645.1,36377.6,36394.4,31645.1,36377.6,36394.4,1,31645.1,4749.3,0,NA,"Rating Scale","Rating Scale",10,"object-18","BIQ",NA,"SUPSCO12782"
"5",1719570953572,"28/06/2024 10:35:53",1719574553572,1,"28/06/2024 12:35:53",177048,9,"task-vy7n",NA,38562211,11330297,NA,"complete",NA,NA,"computer","Desktop or Laptop","Windows 10","Chrome 126.0.0.0","1366x768","1366x641",NA,NA,0,"BIQ-A",3,"EFDGCHBA","Passed AC2","","spreadsheet","Spreadsheet1","Spreadsheet1",1,"BIQ","Screen 1","9dh6eq",1,"response","4",35744.3,36377.6,36394.4,35744.3,36377.6,36394.4,1,35744.3,650.099999999991,0,NA,"Rating Scale","Rating Scale",17,"object-80","BIQ",NA,"SUPSCO12782"
"6",1719570975232,"28/06/2024 10:36:15",1719574575232,1,"28/06/2024 12:36:15",177048,9,"task-vy7n",NA,38562211,11330297,NA,"complete",NA,NA,"computer","Desktop or Laptop","Windows 10","Chrome 126.0.0.0","1366x768","1366x641",NA,NA,0,"BIQ-A",3,"EFDGCHBA","Passed AC2","","spreadsheet","Spreadsheet1","Spreadsheet1",1,"BIQ","Screen 2","o21mwi",2,"continue","",21682.0000000001,21679.8,21682.0000000001,21682.0000000001,21679.8,21682.0000000001,1,21682.0000000001,0,0,NA,"Click To Continue","Continue Button",22,"object-50","BIQ",NA,"SUPSCO12782"
"7",1719570975238,"28/06/2024 10:36:15",1719574575238,1,"28/06/2024 12:36:15",177048,9,"task-vy7n",NA,38562211,11330297,NA,"complete",NA,NA,"computer","Desktop or Laptop","Windows 10","Chrome 126.0.0.0","1366x768","1366x641",NA,NA,0,"BIQ-A",3,"EFDGCHBA","Passed AC2","","spreadsheet","Spreadsheet1","Spreadsheet1",1,"BIQ","Screen 2","o21mwi",2,"response","7",7382.1,21679.8,21687.7000000003,7382.1,21679.8,21687.7000000003,1,7382.1,14305.6000000003,0,NA,"Rating Scale","Rating Scale",2,"object-259","BIQ",NA,"SUPSCO12782"
"8",1719570975240,"28/06/2024 10:36:15",1719574575240,1,"28/06/2024 12:36:15",177048,9,"task-vy7n",NA,38562211,11330297,NA,"complete",NA,NA,"computer","Desktop or Laptop","Windows 10","Chrome 126.0.0.0","1366x768","1366x641",NA,NA,0,"BIQ-A",3,"EFDGCHBA","Passed AC2","","spreadsheet","Spreadsheet1","Spreadsheet1",1,"BIQ","Screen 2","o21mwi",2,"response","6",10614.9,21679.8,21689.2999999999,10614.9,21679.8,21689.2999999999,1,10614.9,11074.3999999999,0,NA,"Rating Scale","Rating Scale",9,"object-36","BIQ",NA,"SUPSCO12782"
"9",1719570975242,"28/06/2024 10:36:15",1719574575242,1,"28/06/2024 12:36:15",177048,9,"task-vy7n",NA,38562211,11330297,NA,"complete",NA,NA,"computer","Desktop or Laptop","Windows 10","Chrome 126.0.0.0","1366x768","1366x641",NA,NA,0,"BIQ-A",3,"EFDGCHBA","Passed AC2","","spreadsheet","Spreadsheet1","Spreadsheet1",1,"BIQ","Screen 2","o21mwi",2,"response","4",20913.2,21679.8,21691.5000000001,20913.2,21679.8,21691.5000000001,1,20913.2,778.30000000009,0,NA,"Rating Scale","Rating Scale",16,"object-86","BIQ",NA,"SUPSCO12782"
"10",1719570994097,"28/06/2024 10:36:34",1719574594097,1,"28/06/2024 12:36:34",177048,9,"task-vy7n",NA,38562211,11330297,NA,"complete",NA,NA,"computer","Desktop or Laptop","Windows 10","Chrome 126.0.0.0","1366x768","1366x641",NA,NA,0,"BIQ-A",3,"EFDGCHBA","Passed AC2","","spreadsheet","Spreadsheet1","Spreadsheet1",1,"BIQ","Screen 3","iz3the",3,"continue","",18866.4000000003,18863.6,18866.4000000003,18866.4000000003,18863.6,18866.4000000003,1,18866.4000000003,0,0,NA,"Click To Continue","Continue Button",22,"object-73","BIQ",NA,"SUPSCO12782"
"11",1719570994104,"28/06/2024 10:36:34",1719574594104,1,"28/06/2024 12:36:34",177048,9,"task-vy7n",NA,38562211,11330297,NA,"complete",NA,NA,"computer","Desktop or Laptop","Windows 10","Chrome 126.0.0.0","1366x768","1366x641",NA,NA,0,"BIQ-A",3,"EFDGCHBA","Passed AC2","","spreadsheet","Spreadsheet1","Spreadsheet1",1,"BIQ","Screen 3","iz3the",3,"response","0",5382.4,18863.6,18873.3000000002,5382.4,18863.6,18873.3000000002,1,5382.4,13490.9000000002,0,NA,"Rating Scale","Rating Scale",2,"object-53","BIQ",NA,"SUPSCO12782"
"12",1719570994106,"28/06/2024 10:36:34",1719574594106,1,"28/06/2024 12:36:34",177048,9,"task-vy7n",NA,38562211,11330297,NA,"complete",NA,NA,"computer","Desktop or Laptop","Windows 10","Chrome 126.0.0.0","1366x768","1366x641",NA,NA,0,"BIQ-A",3,"EFDGCHBA","Passed AC2","","spreadsheet","Spreadsheet1","Spreadsheet1",1,"BIQ","Screen 3","iz3the",3,"response","3",15380.7,18863.6,18875.2000000001,15380.7,18863.6,18875.2000000001,1,15380.7,3494.50000000009,0,NA,"Rating Scale","Rating Scale",9,"object-60","BIQ",NA,"SUPSCO12782"
"13",1719570994108,"28/06/2024 10:36:34",1719574594108,1,"28/06/2024 12:36:34",177048,9,"task-vy7n",NA,38562211,11330297,NA,"complete",NA,NA,"computer","Desktop or Laptop","Windows 10","Chrome 126.0.0.0","1366x768","1366x641",NA,NA,0,"BIQ-A",3,"EFDGCHBA","Passed AC2","","spreadsheet","Spreadsheet1","Spreadsheet1",1,"BIQ","Screen 3","iz3the",3,"response","6",18147,18863.6,18877.9000000003,18147,18863.6,18877.9000000003,1,18147,730.900000000285,0,NA,"Rating Scale","Rating Scale",16,"object-67","BIQ",NA,"SUPSCO12782"
"14",1719570994120,"28/06/2024 10:36:34",1719574594120,1,"28/06/2024 12:36:34",177048,9,"task-vy7n",NA,38562211,11330297,NA,"complete",NA,NA,"computer","Desktop or Laptop","Windows 10","Chrome 126.0.0.0","1366x768","1366x641",NA,NA,0,"BIQ-A",3,"EFDGCHBA","Passed AC2","","spreadsheet","Spreadsheet1","Spreadsheet1",NA,"","","",NA,"info","END",NA,NA,NA,NA,NA,NA,0,NA,NA,NA,NA,"","",NA,"","",NA,"SUPSCO12782"
"1",1719926565598,"02/07/2024 13:22:45",1719930165598,1,"02/07/2024 15:22:45",177048,9,"task-vy7n",NA,38688121,11357255,NA,"complete",NA,NA,"computer","Desktop or Laptop","Windows 10","Chrome 121.0.0.0","1366x768","1366x641",NA,NA,0,"BIQ-A",3,"GHFAEBDC","Passed AC2","","spreadsheet_3","Spreadsheet1","Spreadsheet1",NA,"","","",NA,"info","BEGIN",NA,NA,NA,NA,NA,NA,0,NA,NA,NA,NA,"","",NA,"","",NA,"SUPSCO50909"
"2",1719926594574,"02/07/2024 13:23:14",1719930194574,1,"02/07/2024 15:23:14",177048,9,"task-vy7n",NA,38688121,11357255,NA,"complete",NA,NA,"computer","Desktop or Laptop","Windows 10","Chrome 121.0.0.0","1366x768","1366x641",NA,NA,0,"BIQ-A",3,"GHFAEBDC","Passed AC2","","spreadsheet_3","Spreadsheet1","Spreadsheet1",1,"BIQ","Screen 1","9dh6eq",1,"continue","",29023.546,29006.846,29023.546,29023.546,29006.846,29023.546,1,29023.546,0,0,NA,"Click To Continue","Continue Button",23,"object-48","BIQ",NA,"SUPSCO50909"
"3",1719926594580,"02/07/2024 13:23:14",1719930194580,1,"02/07/2024 15:23:14",177048,9,"task-vy7n",NA,38688121,11357255,NA,"complete",NA,NA,"computer","Desktop or Laptop","Windows 10","Chrome 121.0.0.0","1366x768","1366x641",NA,NA,0,"BIQ-A",3,"GHFAEBDC","Passed AC2","","spreadsheet_3","Spreadsheet1","Spreadsheet1",1,"BIQ","Screen 1","9dh6eq",1,"response","5",5401.146,29006.846,29023.546,5401.146,29006.846,29023.546,1,5401.146,23622.4,0,NA,"Rating Scale","Rating Scale",3,"object-5","BIQ",NA,"SUPSCO50909"
"4",1719926594582,"02/07/2024 13:23:14",1719930194582,1,"02/07/2024 15:23:14",177048,9,"task-vy7n",NA,38688121,11357255,NA,"complete",NA,NA,"computer","Desktop or Laptop","Windows 10","Chrome 121.0.0.0","1366x768","1366x641",NA,NA,0,"BIQ-A",3,"GHFAEBDC","Passed AC2","","spreadsheet_3","Spreadsheet1","Spreadsheet1",1,"BIQ","Screen 1","9dh6eq",1,"response","2",19287.646,29006.846,29023.546,19287.646,29006.846,29023.546,1,19287.646,9735.9,0,NA,"Rating Scale","Rating Scale",10,"object-18","BIQ",NA,"SUPSCO50909"
"5",1719926594582,"02/07/2024 13:23:14",1719930194582,1,"02/07/2024 15:23:14",177048,9,"task-vy7n",NA,38688121,11357255,NA,"complete",NA,NA,"computer","Desktop or Laptop","Windows 10","Chrome 121.0.0.0","1366x768","1366x641",NA,NA,0,"BIQ-A",3,"GHFAEBDC","Passed AC2","","spreadsheet_3","Spreadsheet1","Spreadsheet1",1,"BIQ","Screen 1","9dh6eq",1,"response","6",27871.046,29006.846,29023.546,27871.046,29006.846,29023.546,1,27871.046,1152.5,0,NA,"Rating Scale","Rating Scale",17,"object-80","BIQ",NA,"SUPSCO50909"
"6",1719926620063,"02/07/2024 13:23:40",1719930220063,1,"02/07/2024 15:23:40",177048,9,"task-vy7n",NA,38688121,11357255,NA,"complete",NA,NA,"computer","Desktop or Laptop","Windows 10","Chrome 121.0.0.0","1366x768","1366x641",NA,NA,0,"BIQ-A",3,"GHFAEBDC","Passed AC2","","spreadsheet_3","Spreadsheet1","Spreadsheet1",1,"BIQ","Screen 2","o21mwi",2,"continue","",25513.3000002861,25506.3,25513.3000002861,25513.3000002861,25506.3,25513.3000002861,1,25513.3000002861,0,0,NA,"Click To Continue","Continue Button",22,"object-50","BIQ",NA,"SUPSCO50909"
"7",1719926620069,"02/07/2024 13:23:40",1719930220069,1,"02/07/2024 15:23:40",177048,9,"task-vy7n",NA,38688121,11357255,NA,"complete",NA,NA,"computer","Desktop or Laptop","Windows 10","Chrome 121.0.0.0","1366x768","1366x641",NA,NA,0,"BIQ-A",3,"GHFAEBDC","Passed AC2","","spreadsheet_3","Spreadsheet1","Spreadsheet1",1,"BIQ","Screen 2","o21mwi",2,"response","5",14136.4,25506.3,25519.2000003815,14136.4,25506.3,25519.2000003815,1,14136.4,11382.8000003815,0,NA,"Rating Scale","Rating Scale",2,"object-259","BIQ",NA,"SUPSCO50909"
"8",1719926620070,"02/07/2024 13:23:40",1719930220070,1,"02/07/2024 15:23:40",177048,9,"task-vy7n",NA,38688121,11357255,NA,"complete",NA,NA,"computer","Desktop or Laptop","Windows 10","Chrome 121.0.0.0","1366x768","1366x641",NA,NA,0,"BIQ-A",3,"GHFAEBDC","Passed AC2","","spreadsheet_3","Spreadsheet1","Spreadsheet1",1,"BIQ","Screen 2","o21mwi",2,"response","7",19286.9,25506.3,25520.4000001907,19286.9,25506.3,25520.4000001907,1,19286.9,6233.50000019073,0,NA,"Rating Scale","Rating Scale",9,"object-36","BIQ",NA,"SUPSCO50909"
"9",1719926620072,"02/07/2024 13:23:40",1719930220072,1,"02/07/2024 15:23:40",177048,9,"task-vy7n",NA,38688121,11357255,NA,"complete",NA,NA,"computer","Desktop or Laptop","Windows 10","Chrome 121.0.0.0","1366x768","1366x641",NA,NA,0,"BIQ-A",3,"GHFAEBDC","Passed AC2","","spreadsheet_3","Spreadsheet1","Spreadsheet1",1,"BIQ","Screen 2","o21mwi",2,"response","8",24871.4,25506.3,25522.0000000954,24871.4,25506.3,25522.0000000954,1,24871.4,650.600000095365,0,NA,"Rating Scale","Rating Scale",16,"object-86","BIQ",NA,"SUPSCO50909"
"10",1719926634717,"02/07/2024 13:23:54",1719930234717,1,"02/07/2024 15:23:54",177048,9,"task-vy7n",NA,38688121,11357255,NA,"complete",NA,NA,"computer","Desktop or Laptop","Windows 10","Chrome 121.0.0.0","1366x768","1366x641",NA,NA,0,"BIQ-A",3,"GHFAEBDC","Passed AC2","","spreadsheet_3","Spreadsheet1","Spreadsheet1",1,"BIQ","Screen 3","iz3the",3,"continue","",14660.8,14653.5,14660.8,14660.8,14653.5,14660.8,1,14660.8,0,0,NA,"Click To Continue","Continue Button",22,"object-73","BIQ",NA,"SUPSCO50909"
"11",1719926634727,"02/07/2024 13:23:54",1719930234727,1,"02/07/2024 15:23:54",177048,9,"task-vy7n",NA,38688121,11357255,NA,"complete",NA,NA,"computer","Desktop or Laptop","Windows 10","Chrome 121.0.0.0","1366x768","1366x641",NA,NA,0,"BIQ-A",3,"GHFAEBDC","Passed AC2","","spreadsheet_3","Spreadsheet1","Spreadsheet1",1,"BIQ","Screen 3","iz3the",3,"response","1",7083.2,14653.5,14669.8,7083.2,14653.5,14669.8,1,7083.2,7586.6,0,NA,"Rating Scale","Rating Scale",2,"object-53","BIQ",NA,"SUPSCO50909"
"12",1719926634728,"02/07/2024 13:23:54",1719930234728,1,"02/07/2024 15:23:54",177048,9,"task-vy7n",NA,38688121,11357255,NA,"complete",NA,NA,"computer","Desktop or Laptop","Windows 10","Chrome 121.0.0.0","1366x768","1366x641",NA,NA,0,"BIQ-A",3,"GHFAEBDC","Passed AC2","","spreadsheet_3","Spreadsheet1","Spreadsheet1",1,"BIQ","Screen 3","iz3the",3,"response","3",11401.7,14653.5,14670.2,11401.7,14653.5,14670.2,1,11401.7,3268.5,0,NA,"Rating Scale","Rating Scale",9,"object-60","BIQ",NA,"SUPSCO50909"
"13",1719926634730,"02/07/2024 13:23:54",1719930234730,1,"02/07/2024 15:23:54",177048,9,"task-vy7n",NA,38688121,11357255,NA,"complete",NA,NA,"computer","Desktop or Laptop","Windows 10","Chrome 121.0.0.0","1366x768","1366x641",NA,NA,0,"BIQ-A",3,"GHFAEBDC","Passed AC2","","spreadsheet_3","Spreadsheet1","Spreadsheet1",1,"BIQ","Screen 3","iz3the",3,"response","8",13869.5,14653.5,14670.2,13869.5,14653.5,14670.2,1,13869.5,800.699999999997,0,NA,"Rating Scale","Rating Scale",16,"object-67","BIQ",NA,"SUPSCO50909"
"14",1719926634742,"02/07/2024 13:23:54",1719930234742,1,"02/07/2024 15:23:54",177048,9,"task-vy7n",NA,38688121,11357255,NA,"complete",NA,NA,"computer","Desktop or Laptop","Windows 10","Chrome 121.0.0.0","1366x768","1366x641",NA,NA,0,"BIQ-A",3,"GHFAEBDC","Passed AC2","","spreadsheet_3","Spreadsheet1","Spreadsheet1",NA,"","","",NA,"info","END",NA,NA,NA,NA,NA,NA,0,NA,NA,NA,NA,"","",NA,"","",NA,"SUPSCO50909"
"1",1720098303131,"04/07/2024 13:05:03",1720101903131,1,"04/07/2024 15:05:03",177048,9,"task-vy7n",NA,38752978,11372330,NA,"complete",NA,NA,"computer","Desktop or Laptop","Windows 10","Chrome 126.0.0.0","1536x864","1536x738",NA,NA,0,"BIQ-A",3,"HAGBFCED","Passed AC2","","spreadsheet_5","Spreadsheet1","Spreadsheet1",NA,"","","",NA,"info","BEGIN",NA,NA,NA,NA,NA,NA,0,NA,NA,NA,NA,"","",NA,"","",NA,"SUPSCO05151"
"2",1720098336257,"04/07/2024 13:05:36",1720101936257,1,"04/07/2024 15:05:36",177048,9,"task-vy7n",NA,38752978,11372330,NA,"complete",NA,NA,"computer","Desktop or Laptop","Windows 10","Chrome 126.0.0.0","1536x864","1536x738",NA,NA,0,"BIQ-A",3,"HAGBFCED","Passed AC2","","spreadsheet_5","Spreadsheet1","Spreadsheet1",1,"BIQ","Screen 1","9dh6eq",1,"continue","",33135.399999994,33129.2,33135.399999994,33135.399999994,33129.2,33135.399999994,1,33135.399999994,0,0,NA,"Click To Continue","Continue Button",23,"object-48","BIQ",NA,"SUPSCO05151"
"3",1720098336259,"04/07/2024 13:05:36",1720101936259,1,"04/07/2024 15:05:36",177048,9,"task-vy7n",NA,38752978,11372330,NA,"complete",NA,NA,"computer","Desktop or Laptop","Windows 10","Chrome 126.0.0.0","1536x864","1536x738",NA,NA,0,"BIQ-A",3,"HAGBFCED","Passed AC2","","spreadsheet_5","Spreadsheet1","Spreadsheet1",1,"BIQ","Screen 1","9dh6eq",1,"response","4",16189.5,33129.2,33138.3,16189.5,33129.2,33138.3,1,16189.5,16948.8,0,NA,"Rating Scale","Rating Scale",3,"object-5","BIQ",NA,"SUPSCO05151"
"4",1720098336260,"04/07/2024 13:05:36",1720101936260,1,"04/07/2024 15:05:36",177048,9,"task-vy7n",NA,38752978,11372330,NA,"complete",NA,NA,"computer","Desktop or Laptop","Windows 10","Chrome 126.0.0.0","1536x864","1536x738",NA,NA,0,"BIQ-A",3,"HAGBFCED","Passed AC2","","spreadsheet_5","Spreadsheet1","Spreadsheet1",1,"BIQ","Screen 1","9dh6eq",1,"response","5",27377.1,33129.2,33138.5999999821,27377.1,33129.2,33138.5999999821,1,27377.1,5761.49999998212,0,NA,"Rating Scale","Rating Scale",10,"object-18","BIQ",NA,"SUPSCO05151"
"5",1720098336260,"04/07/2024 13:05:36",1720101936260,1,"04/07/2024 15:05:36",177048,9,"task-vy7n",NA,38752978,11372330,NA,"complete",NA,NA,"computer","Desktop or Laptop","Windows 10","Chrome 126.0.0.0","1536x864","1536x738",NA,NA,0,"BIQ-A",3,"HAGBFCED","Passed AC2","","spreadsheet_5","Spreadsheet1","Spreadsheet1",1,"BIQ","Screen 1","9dh6eq",1,"response","4",32595.7,33129.2,33138.6999999762,32595.7,33129.2,33138.6999999762,1,32595.7,542.99999997616,0,NA,"Rating Scale","Rating Scale",17,"object-80","BIQ",NA,"SUPSCO05151"
"6",1720098358111,"04/07/2024 13:05:58",1720101958111,1,"04/07/2024 15:05:58",177048,9,"task-vy7n",NA,38752978,11372330,NA,"complete",NA,NA,"computer","Desktop or Laptop","Windows 10","Chrome 126.0.0.0","1536x864","1536x738",NA,NA,0,"BIQ-A",3,"HAGBFCED","Passed AC2","","spreadsheet_5","Spreadsheet1","Spreadsheet1",1,"BIQ","Screen 2","o21mwi",2,"continue","",21860.2999999881,21858.3,21860.2999999881,21860.2999999881,21858.3,21860.2999999881,1,21860.2999999881,0,0,NA,"Click To Continue","Continue Button",22,"object-50","BIQ",NA,"SUPSCO05151"
"7",1720098358112,"04/07/2024 13:05:58",1720101958112,1,"04/07/2024 15:05:58",177048,9,"task-vy7n",NA,38752978,11372330,NA,"complete",NA,NA,"computer","Desktop or Laptop","Windows 10","Chrome 126.0.0.0","1536x864","1536x738",NA,NA,0,"BIQ-A",3,"HAGBFCED","Passed AC2","","spreadsheet_5","Spreadsheet1","Spreadsheet1",1,"BIQ","Screen 2","o21mwi",2,"response","7",6219.2,21858.3,21861.8999999821,6219.2,21858.3,21861.8999999821,1,6219.2,15642.6999999821,0,NA,"Rating Scale","Rating Scale",2,"object-259","BIQ",NA,"SUPSCO05151"
"8",1720098358113,"04/07/2024 13:05:58",1720101958113,1,"04/07/2024 15:05:58",177048,9,"task-vy7n",NA,38752978,11372330,NA,"complete",NA,NA,"computer","Desktop or Laptop","Windows 10","Chrome 126.0.0.0","1536x864","1536x738",NA,NA,0,"BIQ-A",3,"HAGBFCED","Passed AC2","","spreadsheet_5","Spreadsheet1","Spreadsheet1",1,"BIQ","Screen 2","o21mwi",2,"response","2",11087.8,21858.3,21862.2999999881,11087.8,21858.3,21862.2999999881,1,11087.8,10774.4999999881,0,NA,"Rating Scale","Rating Scale",9,"object-36","BIQ",NA,"SUPSCO05151"
"9",1720098358113,"04/07/2024 13:05:58",1720101958113,1,"04/07/2024 15:05:58",177048,9,"task-vy7n",NA,38752978,11372330,NA,"complete",NA,NA,"computer","Desktop or Laptop","Windows 10","Chrome 126.0.0.0","1536x864","1536x738",NA,NA,0,"BIQ-A",3,"HAGBFCED","Passed AC2","","spreadsheet_5","Spreadsheet1","Spreadsheet1",1,"BIQ","Screen 2","o21mwi",2,"response","4",21124.9,21858.3,21862.4999999762,21124.9,21858.3,21862.4999999762,1,21124.9,737.599999976155,0,NA,"Rating Scale","Rating Scale",16,"object-86","BIQ",NA,"SUPSCO05151"
"10",1720098382951,"04/07/2024 13:06:22",1720101982951,1,"04/07/2024 15:06:22",177048,9,"task-vy7n",NA,38752978,11372330,NA,"complete",NA,NA,"computer","Desktop or Laptop","Windows 10","Chrome 126.0.0.0","1536x864","1536x738",NA,NA,0,"BIQ-A",3,"HAGBFCED","Passed AC2","","spreadsheet_5","Spreadsheet1","Spreadsheet1",1,"BIQ","Screen 3","iz3the",3,"continue","",24841.9999999881,24826.2,24841.9999999881,24841.9999999881,24826.2,24841.9999999881,1,24841.9999999881,0,0,NA,"Click To Continue","Continue Button",22,"object-73","BIQ",NA,"SUPSCO05151"
"11",1720098382953,"04/07/2024 13:06:22",1720101982953,1,"04/07/2024 15:06:22",177048,9,"task-vy7n",NA,38752978,11372330,NA,"complete",NA,NA,"computer","Desktop or Laptop","Windows 10","Chrome 126.0.0.0","1536x864","1536x738",NA,NA,0,"BIQ-A",3,"HAGBFCED","Passed AC2","","spreadsheet_5","Spreadsheet1","Spreadsheet1",1,"BIQ","Screen 3","iz3the",3,"response","1",7903.10000000001,24826.2,24842.9,7903.10000000001,24826.2,24842.9,1,7903.10000000001,16939.8,0,NA,"Rating Scale","Rating Scale",2,"object-53","BIQ",NA,"SUPSCO05151"
"12",1720098382953,"04/07/2024 13:06:22",1720101982953,1,"04/07/2024 15:06:22",177048,9,"task-vy7n",NA,38752978,11372330,NA,"complete",NA,NA,"computer","Desktop or Laptop","Windows 10","Chrome 126.0.0.0","1536x864","1536x738",NA,NA,0,"BIQ-A",3,"HAGBFCED","Passed AC2","","spreadsheet_5","Spreadsheet1","Spreadsheet1",1,"BIQ","Screen 3","iz3the",3,"response","1",17123.3,24826.2,24842.9,17123.3,24826.2,24842.9,1,17123.3,7719.59999999999,0,NA,"Rating Scale","Rating Scale",9,"object-60","BIQ",NA,"SUPSCO05151"
"13",1720098382953,"04/07/2024 13:06:22",1720101982953,1,"04/07/2024 15:06:22",177048,9,"task-vy7n",NA,38752978,11372330,NA,"complete",NA,NA,"computer","Desktop or Laptop","Windows 10","Chrome 126.0.0.0","1536x864","1536x738",NA,NA,0,"BIQ-A",3,"HAGBFCED","Passed AC2","","spreadsheet_5","Spreadsheet1","Spreadsheet1",1,"BIQ","Screen 3","iz3the",3,"response","6",22375.2,24826.2,24842.9,22375.2,24826.2,24842.9,1,22375.2,2467.7,0,NA,"Rating Scale","Rating Scale",16,"object-67","BIQ",NA,"SUPSCO05151"
"14",1720098382956,"04/07/2024 13:06:22",1720101982956,1,"04/07/2024 15:06:22",177048,9,"task-vy7n",NA,38752978,11372330,NA,"complete",NA,NA,"computer","Desktop or Laptop","Windows 10","Chrome 126.0.0.0","1536x864","1536x738",NA,NA,0,"BIQ-A",3,"HAGBFCED","Passed AC2","","spreadsheet_5","Spreadsheet1","Spreadsheet1",NA,"","","",NA,"info","END",NA,NA,NA,NA,NA,NA,0,NA,NA,NA,NA,"","",NA,"","",NA,"SUPSCO05151"
"1",1720625935731,"10/07/2024 15:38:55",1720629535731,1,"10/07/2024 17:38:55",177048,9,"task-vy7n",NA,38876762,11404343,NA,"complete",NA,NA,"computer","Desktop or Laptop","Windows 10","Chrome 115.0.0.0","1920x1080","1920x963",NA,NA,0,"BIQ-A",3,"ABHCGDFE","Passed AC2","","spreadsheet_4","Spreadsheet1","Spreadsheet1",NA,"","","",NA,"info","BEGIN",NA,NA,NA,NA,NA,NA,0,NA,NA,NA,NA,"","",NA,"","",NA,"SUPSCO31721"
"2",1720625990497,"10/07/2024 15:39:50",1720629590497,1,"10/07/2024 17:39:50",177048,9,"task-vy7n",NA,38876762,11404343,NA,"complete",NA,NA,"computer","Desktop or Laptop","Windows 10","Chrome 115.0.0.0","1920x1080","1920x963",NA,NA,0,"BIQ-A",3,"ABHCGDFE","Passed AC2","","spreadsheet_4","Spreadsheet1","Spreadsheet1",1,"BIQ","Screen 1","9dh6eq",1,"continue","",54771.977,54758.601,54771.977,54771.977,54758.601,54771.977,1,54771.977,0,0,NA,"Click To Continue","Continue Button",23,"object-48","BIQ",NA,"SUPSCO31721"
"3",1720625990499,"10/07/2024 15:39:50",1720629590499,1,"10/07/2024 17:39:50",177048,9,"task-vy7n",NA,38876762,11404343,NA,"complete",NA,NA,"computer","Desktop or Laptop","Windows 10","Chrome 115.0.0.0","1920x1080","1920x963",NA,NA,0,"BIQ-A",3,"ABHCGDFE","Passed AC2","","spreadsheet_4","Spreadsheet1","Spreadsheet1",1,"BIQ","Screen 1","9dh6eq",1,"response","5",22138.72,54758.601,54771.977,22138.72,54758.601,54771.977,1,22138.72,32633.257,0,NA,"Rating Scale","Rating Scale",3,"object-5","BIQ",NA,"SUPSCO31721"
"4",1720625990499,"10/07/2024 15:39:50",1720629590499,1,"10/07/2024 17:39:50",177048,9,"task-vy7n",NA,38876762,11404343,NA,"complete",NA,NA,"computer","Desktop or Laptop","Windows 10","Chrome 115.0.0.0","1920x1080","1920x963",NA,NA,0,"BIQ-A",3,"ABHCGDFE","Passed AC2","","spreadsheet_4","Spreadsheet1","Spreadsheet1",1,"BIQ","Screen 1","9dh6eq",1,"response","4",33729.577,54758.601,54771.977,33729.577,54758.601,54771.977,1,33729.577,21042.4,0,NA,"Rating Scale","Rating Scale",10,"object-18","BIQ",NA,"SUPSCO31721"
"5",1720625990500,"10/07/2024 15:39:50",1720629590500,1,"10/07/2024 17:39:50",177048,9,"task-vy7n",NA,38876762,11404343,NA,"complete",NA,NA,"computer","Desktop or Laptop","Windows 10","Chrome 115.0.0.0","1920x1080","1920x963",NA,NA,0,"BIQ-A",3,"ABHCGDFE","Passed AC2","","spreadsheet_4","Spreadsheet1","Spreadsheet1",1,"BIQ","Screen 1","9dh6eq",1,"response","2",53301.381,54758.601,54771.977,53301.381,54758.601,54771.977,1,53301.381,1470.596,0,NA,"Rating Scale","Rating Scale",17,"object-80","BIQ",NA,"SUPSCO31721"
"6",1720626034061,"10/07/2024 15:40:34",1720629634061,1,"10/07/2024 17:40:34",177048,9,"task-vy7n",NA,38876762,11404343,NA,"complete",NA,NA,"computer","Desktop or Laptop","Windows 10","Chrome 115.0.0.0","1920x1080","1920x963",NA,NA,0,"BIQ-A",3,"ABHCGDFE","Passed AC2","","spreadsheet_4","Spreadsheet1","Spreadsheet1",1,"BIQ","Screen 2","o21mwi",2,"continue","",43581.908,43568.669,43581.908,43581.908,43568.669,43581.908,1,43581.908,0,0,NA,"Click To Continue","Continue Button",22,"object-50","BIQ",NA,"SUPSCO31721"
"7",1720626034066,"10/07/2024 15:40:34",1720629634066,1,"10/07/2024 17:40:34",177048,9,"task-vy7n",NA,38876762,11404343,NA,"complete",NA,NA,"computer","Desktop or Laptop","Windows 10","Chrome 115.0.0.0","1920x1080","1920x963",NA,NA,0,"BIQ-A",3,"ABHCGDFE","Passed AC2","","spreadsheet_4","Spreadsheet1","Spreadsheet1",1,"BIQ","Screen 2","o21mwi",2,"response","7",27700.047,43568.669,43581.908,27700.047,43568.669,43581.908,1,27700.047,15881.861,0,NA,"Rating Scale","Rating Scale",2,"object-259","BIQ",NA,"SUPSCO31721"
"8",1720626034067,"10/07/2024 15:40:34",1720629634067,1,"10/07/2024 17:40:34",177048,9,"task-vy7n",NA,38876762,11404343,NA,"complete",NA,NA,"computer","Desktop or Laptop","Windows 10","Chrome 115.0.0.0","1920x1080","1920x963",NA,NA,0,"BIQ-A",3,"ABHCGDFE","Passed AC2","","spreadsheet_4","Spreadsheet1","Spreadsheet1",1,"BIQ","Screen 2","o21mwi",2,"response","5",33956.607,43568.669,43581.908,33956.607,43568.669,43581.908,1,33956.607,9625.30100000001,0,NA,"Rating Scale","Rating Scale",9,"object-36","BIQ",NA,"SUPSCO31721"
"9",1720626034067,"10/07/2024 15:40:34",1720629634067,1,"10/07/2024 17:40:34",177048,9,"task-vy7n",NA,38876762,11404343,NA,"complete",NA,NA,"computer","Desktop or Laptop","Windows 10","Chrome 115.0.0.0","1920x1080","1920x963",NA,NA,0,"BIQ-A",3,"ABHCGDFE","Passed AC2","","spreadsheet_4","Spreadsheet1","Spreadsheet1",1,"BIQ","Screen 2","o21mwi",2,"response","3",3515.951,43568.669,43581.908,3515.951,43568.669,43581.908,1,3515.951,40065.957,0,NA,"Rating Scale","Rating Scale",16,"object-86","BIQ",NA,"SUPSCO31721"
"10",1720626065068,"10/07/2024 15:41:05",1720629665068,1,"10/07/2024 17:41:05",177048,9,"task-vy7n",NA,38876762,11404343,NA,"complete",NA,NA,"computer","Desktop or Laptop","Windows 10","Chrome 115.0.0.0","1920x1080","1920x963",NA,NA,0,"BIQ-A",3,"ABHCGDFE","Passed AC2","","spreadsheet_4","Spreadsheet1","Spreadsheet1",1,"BIQ","Screen 3","iz3the",3,"continue","",31020.6309977112,31015.417,31020.6309977112,31020.6309977112,31015.417,31020.6309977112,1,31020.6309977112,0,0,NA,"Click To Continue","Continue Button",22,"object-73","BIQ",NA,"SUPSCO31721"
"11",1720626065073,"10/07/2024 15:41:05",1720629665073,1,"10/07/2024 17:41:05",177048,9,"task-vy7n",NA,38876762,11404343,NA,"complete",NA,NA,"computer","Desktop or Laptop","Windows 10","Chrome 115.0.0.0","1920x1080","1920x963",NA,NA,0,"BIQ-A",3,"ABHCGDFE","Passed AC2","","spreadsheet_4","Spreadsheet1","Spreadsheet1",1,"BIQ","Screen 3","iz3the",3,"response","1",14558.604,31015.417,31025.9309969482,14558.604,31015.417,31025.9309969482,1,14558.604,16467.3269969482,0,NA,"Rating Scale","Rating Scale",2,"object-53","BIQ",NA,"SUPSCO31721"
"12",1720626065074,"10/07/2024 15:41:05",1720629665074,1,"10/07/2024 17:41:05",177048,9,"task-vy7n",NA,38876762,11404343,NA,"complete",NA,NA,"computer","Desktop or Laptop","Windows 10","Chrome 115.0.0.0","1920x1080","1920x963",NA,NA,0,"BIQ-A",3,"ABHCGDFE","Passed AC2","","spreadsheet_4","Spreadsheet1","Spreadsheet1",1,"BIQ","Screen 3","iz3the",3,"response","2",21724.331,31015.417,31026.5309992371,21724.331,31015.417,31026.5309992371,1,21724.331,9302.19999923706,0,NA,"Rating Scale","Rating Scale",9,"object-60","BIQ",NA,"SUPSCO31721"
"13",1720626065074,"10/07/2024 15:41:05",1720629665074,1,"10/07/2024 17:41:05",177048,9,"task-vy7n",NA,38876762,11404343,NA,"complete",NA,NA,"computer","Desktop or Laptop","Windows 10","Chrome 115.0.0.0","1920x1080","1920x963",NA,NA,0,"BIQ-A",3,"ABHCGDFE","Passed AC2","","spreadsheet_4","Spreadsheet1","Spreadsheet1",1,"BIQ","Screen 3","iz3the",3,"response","3",29491.622,31015.417,31027.0309992371,29491.622,31015.417,31027.0309992371,1,29491.622,1535.40899923706,0,NA,"Rating Scale","Rating Scale",16,"object-67","BIQ",NA,"SUPSCO31721"
"14",1720626065079,"10/07/2024 15:41:05",1720629665079,1,"10/07/2024 17:41:05",177048,9,"task-vy7n",NA,38876762,11404343,NA,"complete",NA,NA,"computer","Desktop or Laptop","Windows 10","Chrome 115.0.0.0","1920x1080","1920x963",NA,NA,0,"BIQ-A",3,"ABHCGDFE","Passed AC2","","spreadsheet_4","Spreadsheet1","Spreadsheet1",NA,"","","",NA,"info","END",NA,NA,NA,NA,NA,NA,0,NA,NA,NA,NA,"","",NA,"","",NA,"SUPSCO31721"
"1",1721057905766,"15/07/2024 15:38:25",1721061505766,1,"15/07/2024 17:38:25",177048,9,"task-vy7n",NA,38979060,11428727,NA,"complete",NA,NA,"computer","Desktop or Laptop","Mac OS 10.15.7","Chrome 126.0.0.0","1440x900","1440x813",NA,NA,0,"BIQ-A",3,"CDBEAFHG","Passed AC2","","spreadsheet_3","Spreadsheet1","Spreadsheet1",NA,"","","",NA,"info","BEGIN",NA,NA,NA,NA,NA,NA,0,NA,NA,NA,NA,"","",NA,"","",NA,"SUPSCO16544"
"2",1721057965540,"15/07/2024 15:39:25",1721061565540,1,"15/07/2024 17:39:25",177048,9,"task-vy7n",NA,38979060,11428727,NA,"complete",NA,NA,"computer","Desktop or Laptop","Mac OS 10.15.7","Chrome 126.0.0.0","1440x900","1440x813",NA,NA,0,"BIQ-A",3,"CDBEAFHG","Passed AC2","","spreadsheet_3","Spreadsheet1","Spreadsheet1",1,"BIQ","Screen 1","9dh6eq",1,"continue","",59785.85,59769.25,59785.85,59785.85,59769.25,59785.85,1,59785.85,0,0,NA,"Click To Continue","Continue Button",23,"object-48","BIQ",NA,"SUPSCO16544"
"3",1721057965542,"15/07/2024 15:39:25",1721061565542,1,"15/07/2024 17:39:25",177048,9,"task-vy7n",NA,38979060,11428727,NA,"complete",NA,NA,"computer","Desktop or Laptop","Mac OS 10.15.7","Chrome 126.0.0.0","1440x900","1440x813",NA,NA,0,"BIQ-A",3,"CDBEAFHG","Passed AC2","","spreadsheet_3","Spreadsheet1","Spreadsheet1",1,"BIQ","Screen 1","9dh6eq",1,"response","5",12367.25,59769.25,59785.85,12367.25,59769.25,59785.85,1,12367.25,47418.6,0,NA,"Rating Scale","Rating Scale",3,"object-5","BIQ",NA,"SUPSCO16544"
"4",1721057965542,"15/07/2024 15:39:25",1721061565542,1,"15/07/2024 17:39:25",177048,9,"task-vy7n",NA,38979060,11428727,NA,"complete",NA,NA,"computer","Desktop or Laptop","Mac OS 10.15.7","Chrome 126.0.0.0","1440x900","1440x813",NA,NA,0,"BIQ-A",3,"CDBEAFHG","Passed AC2","","spreadsheet_3","Spreadsheet1","Spreadsheet1",1,"BIQ","Screen 1","9dh6eq",1,"response","6",20784.25,59769.25,59785.85,20784.25,59769.25,59785.85,1,20784.25,39001.6,0,NA,"Rating Scale","Rating Scale",10,"object-18","BIQ",NA,"SUPSCO16544"
"5",1721057965543,"15/07/2024 15:39:25",1721061565543,1,"15/07/2024 17:39:25",177048,9,"task-vy7n",NA,38979060,11428727,NA,"complete",NA,NA,"computer","Desktop or Laptop","Mac OS 10.15.7","Chrome 126.0.0.0","1440x900","1440x813",NA,NA,0,"BIQ-A",3,"CDBEAFHG","Passed AC2","","spreadsheet_3","Spreadsheet1","Spreadsheet1",1,"BIQ","Screen 1","9dh6eq",1,"response","1",55501.45,59769.25,59785.85,55501.45,59769.25,59785.85,1,55501.45,4284.40000000001,0,NA,"Rating Scale","Rating Scale",17,"object-80","BIQ",NA,"SUPSCO16544"
"6",1721057984095,"15/07/2024 15:39:44",1721061584095,1,"15/07/2024 17:39:44",177048,9,"task-vy7n",NA,38979060,11428727,NA,"complete",NA,NA,"computer","Desktop or Laptop","Mac OS 10.15.7","Chrome 126.0.0.0","1440x900","1440x813",NA,NA,0,"BIQ-A",3,"CDBEAFHG","Passed AC2","","spreadsheet_3","Spreadsheet1","Spreadsheet1",1,"BIQ","Screen 2","o21mwi",2,"continue","",18581.9999999821,18567.5,18581.9999999821,18581.9999999821,18567.5,18581.9999999821,1,18581.9999999821,0,0,NA,"Click To Continue","Continue Button",22,"object-50","BIQ",NA,"SUPSCO16544"
"7",1721057984098,"15/07/2024 15:39:44",1721061584098,1,"15/07/2024 17:39:44",177048,9,"task-vy7n",NA,38979060,11428727,NA,"complete",NA,NA,"computer","Desktop or Laptop","Mac OS 10.15.7","Chrome 126.0.0.0","1440x900","1440x813",NA,NA,0,"BIQ-A",3,"CDBEAFHG","Passed AC2","","spreadsheet_3","Spreadsheet1","Spreadsheet1",1,"BIQ","Screen 2","o21mwi",2,"response","7",5266.89999999999,18567.5,18584.1,5266.89999999999,18567.5,18584.1,1,5266.89999999999,13317.2,0,NA,"Rating Scale","Rating Scale",2,"object-259","BIQ",NA,"SUPSCO16544"
"8",1721057984099,"15/07/2024 15:39:44",1721061584099,1,"15/07/2024 17:39:44",177048,9,"task-vy7n",NA,38979060,11428727,NA,"complete",NA,NA,"computer","Desktop or Laptop","Mac OS 10.15.7","Chrome 126.0.0.0","1440x900","1440x813",NA,NA,0,"BIQ-A",3,"CDBEAFHG","Passed AC2","","spreadsheet_3","Spreadsheet1","Spreadsheet1",1,"BIQ","Screen 2","o21mwi",2,"response","2",9749.5,18567.5,18584.1,9749.5,18567.5,18584.1,1,9749.5,8834.60000000001,0,NA,"Rating Scale","Rating Scale",9,"object-36","BIQ",NA,"SUPSCO16544"
"9",1721057984099,"15/07/2024 15:39:44",1721061584099,1,"15/07/2024 17:39:44",177048,9,"task-vy7n",NA,38979060,11428727,NA,"complete",NA,NA,"computer","Desktop or Laptop","Mac OS 10.15.7","Chrome 126.0.0.0","1440x900","1440x813",NA,NA,0,"BIQ-A",3,"CDBEAFHG","Passed AC2","","spreadsheet_3","Spreadsheet1","Spreadsheet1",1,"BIQ","Screen 2","o21mwi",2,"response","2",17900.7,18567.5,18584.1,17900.7,18567.5,18584.1,1,17900.7,683.400000000009,0,NA,"Rating Scale","Rating Scale",16,"object-86","BIQ",NA,"SUPSCO16544"
"10",1721058001562,"15/07/2024 15:40:01",1721061601562,1,"15/07/2024 17:40:01",177048,9,"task-vy7n",NA,38979060,11428727,NA,"complete",NA,NA,"computer","Desktop or Laptop","Mac OS 10.15.7","Chrome 126.0.0.0","1440x900","1440x813",NA,NA,0,"BIQ-A",3,"CDBEAFHG","Passed AC2","","spreadsheet_3","Spreadsheet1","Spreadsheet1",1,"BIQ","Screen 3","iz3the",3,"continue","",17481.4999999821,17467.4,17481.4999999821,17481.4999999821,17467.4,17481.4999999821,1,17481.4999999821,0,0,NA,"Click To Continue","Continue Button",22,"object-73","BIQ",NA,"SUPSCO16544"
"11",1721058001565,"15/07/2024 15:40:01",1721061601565,1,"15/07/2024 17:40:01",177048,9,"task-vy7n",NA,38979060,11428727,NA,"complete",NA,NA,"computer","Desktop or Laptop","Mac OS 10.15.7","Chrome 126.0.0.0","1440x900","1440x813",NA,NA,0,"BIQ-A",3,"CDBEAFHG","Passed AC2","","spreadsheet_3","Spreadsheet1","Spreadsheet1",1,"BIQ","Screen 3","iz3the",3,"response","0",8383.8,17467.4,17484,8383.8,17467.4,17484,1,8383.8,9100.19999999998,0,NA,"Rating Scale","Rating Scale",2,"object-53","BIQ",NA,"SUPSCO16544"
"12",1721058001566,"15/07/2024 15:40:01",1721061601566,1,"15/07/2024 17:40:01",177048,9,"task-vy7n",NA,38979060,11428727,NA,"complete",NA,NA,"computer","Desktop or Laptop","Mac OS 10.15.7","Chrome 126.0.0.0","1440x900","1440x813",NA,NA,0,"BIQ-A",3,"CDBEAFHG","Passed AC2","","spreadsheet_3","Spreadsheet1","Spreadsheet1",1,"BIQ","Screen 3","iz3the",3,"response","2",11850.5,17467.4,17484,11850.5,17467.4,17484,1,11850.5,5633.49999999999,0,NA,"Rating Scale","Rating Scale",9,"object-60","BIQ",NA,"SUPSCO16544"
"13",1721058001566,"15/07/2024 15:40:01",1721061601566,1,"15/07/2024 17:40:01",177048,9,"task-vy7n",NA,38979060,11428727,NA,"complete",NA,NA,"computer","Desktop or Laptop","Mac OS 10.15.7","Chrome 126.0.0.0","1440x900","1440x813",NA,NA,0,"BIQ-A",3,"CDBEAFHG","Passed AC2","","spreadsheet_3","Spreadsheet1","Spreadsheet1",1,"BIQ","Screen 3","iz3the",3,"response","2",15183.1,17467.4,17484,15183.1,17467.4,17484,1,15183.1,2300.89999999999,0,NA,"Rating Scale","Rating Scale",16,"object-67","BIQ",NA,"SUPSCO16544"
"14",1721058001571,"15/07/2024 15:40:01",1721061601571,1,"15/07/2024 17:40:01",177048,9,"task-vy7n",NA,38979060,11428727,NA,"complete",NA,NA,"computer","Desktop or Laptop","Mac OS 10.15.7","Chrome 126.0.0.0","1440x900","1440x813",NA,NA,0,"BIQ-A",3,"CDBEAFHG","Passed AC2","","spreadsheet_3","Spreadsheet1","Spreadsheet1",NA,"","","",NA,"info","END",NA,NA,NA,NA,NA,NA,0,NA,NA,NA,NA,"","",NA,"","",NA,"SUPSCO16544"
"1",1722262437810,"29/07/2024 14:13:57",1722266037810,1,"29/07/2024 16:13:57",177048,9,"task-vy7n",NA,39258427,11513960,NA,"complete",NA,NA,"computer","Desktop or Laptop","Windows 10","Chrome 126.0.0.0","1536x864","1536x730",NA,NA,0,"BIQ-A",3,"EFDGCHBA","Passed AC2","","spreadsheet_5","Spreadsheet1","Spreadsheet1",NA,"","","",NA,"info","BEGIN",NA,NA,NA,NA,NA,NA,0,NA,NA,NA,NA,"","",NA,"","",NA,"SUPSCO97532"
"2",1722262466216,"29/07/2024 14:14:26",1722266066216,1,"29/07/2024 16:14:26",177048,9,"task-vy7n",NA,39258427,11513960,NA,"complete",NA,NA,"computer","Desktop or Laptop","Windows 10","Chrome 126.0.0.0","1536x864","1536x730",NA,NA,0,"BIQ-A",3,"EFDGCHBA","Passed AC2","","spreadsheet_5","Spreadsheet1","Spreadsheet1",1,"BIQ","Screen 1","9dh6eq",1,"continue","",28425.326,28408.526,28425.326,28425.326,28408.526,28425.326,1,28425.326,0,0,NA,"Click To Continue","Continue Button",23,"object-48","BIQ",NA,"SUPSCO97532"
"3",1722262466219,"29/07/2024 14:14:26",1722266066219,1,"29/07/2024 16:14:26",177048,9,"task-vy7n",NA,39258427,11513960,NA,"complete",NA,NA,"computer","Desktop or Laptop","Windows 10","Chrome 126.0.0.0","1536x864","1536x730",NA,NA,0,"BIQ-A",3,"EFDGCHBA","Passed AC2","","spreadsheet_5","Spreadsheet1","Spreadsheet1",1,"BIQ","Screen 1","9dh6eq",1,"response","2",11206.726,28408.526,28425.326,11206.726,28408.526,28425.326,1,11206.726,17218.6,0,NA,"Rating Scale","Rating Scale",3,"object-5","BIQ",NA,"SUPSCO97532"
"4",1722262466220,"29/07/2024 14:14:26",1722266066220,1,"29/07/2024 16:14:26",177048,9,"task-vy7n",NA,39258427,11513960,NA,"complete",NA,NA,"computer","Desktop or Laptop","Windows 10","Chrome 126.0.0.0","1536x864","1536x730",NA,NA,0,"BIQ-A",3,"EFDGCHBA","Passed AC2","","spreadsheet_5","Spreadsheet1","Spreadsheet1",1,"BIQ","Screen 1","9dh6eq",1,"response","5",19915.926,28408.526,28425.326,19915.926,28408.526,28425.326,1,19915.926,8509.4,0,NA,"Rating Scale","Rating Scale",10,"object-18","BIQ",NA,"SUPSCO97532"
"5",1722262466220,"29/07/2024 14:14:26",1722266066220,1,"29/07/2024 16:14:26",177048,9,"task-vy7n",NA,39258427,11513960,NA,"complete",NA,NA,"computer","Desktop or Laptop","Windows 10","Chrome 126.0.0.0","1536x864","1536x730",NA,NA,0,"BIQ-A",3,"EFDGCHBA","Passed AC2","","spreadsheet_5","Spreadsheet1","Spreadsheet1",1,"BIQ","Screen 1","9dh6eq",1,"response","3",26743.326,28408.526,28425.326,26743.326,28408.526,28425.326,1,26743.326,1682,0,NA,"Rating Scale","Rating Scale",17,"object-80","BIQ",NA,"SUPSCO97532"
"6",1722262486645,"29/07/2024 14:14:46",1722266086645,1,"29/07/2024 16:14:46",177048,9,"task-vy7n",NA,39258427,11513960,NA,"complete",NA,NA,"computer","Desktop or Laptop","Windows 10","Chrome 126.0.0.0","1536x864","1536x730",NA,NA,0,"BIQ-A",3,"EFDGCHBA","Passed AC2","","spreadsheet_5","Spreadsheet1","Spreadsheet1",1,"BIQ","Screen 2","o21mwi",2,"continue","",20441.399999857,20432.4,20441.399999857,20441.399999857,20432.4,20441.399999857,1,20441.399999857,0,0,NA,"Click To Continue","Continue Button",22,"object-50","BIQ",NA,"SUPSCO97532"
"7",1722262486648,"29/07/2024 14:14:46",1722266086648,1,"29/07/2024 16:14:46",177048,9,"task-vy7n",NA,39258427,11513960,NA,"complete",NA,NA,"computer","Desktop or Laptop","Windows 10","Chrome 126.0.0.0","1536x864","1536x730",NA,NA,0,"BIQ-A",3,"EFDGCHBA","Passed AC2","","spreadsheet_5","Spreadsheet1","Spreadsheet1",1,"BIQ","Screen 2","o21mwi",2,"response","8",5845.1,20432.4,20444.399999857,5845.1,20432.4,20444.399999857,1,5845.1,14599.299999857,0,NA,"Rating Scale","Rating Scale",2,"object-259","BIQ",NA,"SUPSCO97532"
"8",1722262486649,"29/07/2024 14:14:46",1722266086649,1,"29/07/2024 16:14:46",177048,9,"task-vy7n",NA,39258427,11513960,NA,"complete",NA,NA,"computer","Desktop or Laptop","Windows 10","Chrome 126.0.0.0","1536x864","1536x730",NA,NA,0,"BIQ-A",3,"EFDGCHBA","Passed AC2","","spreadsheet_5","Spreadsheet1","Spreadsheet1",1,"BIQ","Screen 2","o21mwi",2,"response","4",10207.8,20432.4,20445.1999998093,10207.8,20432.4,20445.1999998093,1,10207.8,10237.3999998093,0,NA,"Rating Scale","Rating Scale",9,"object-36","BIQ",NA,"SUPSCO97532"
"9",1722262486649,"29/07/2024 14:14:46",1722266086649,1,"29/07/2024 16:14:46",177048,9,"task-vy7n",NA,39258427,11513960,NA,"complete",NA,NA,"computer","Desktop or Laptop","Windows 10","Chrome 126.0.0.0","1536x864","1536x730",NA,NA,0,"BIQ-A",3,"EFDGCHBA","Passed AC2","","spreadsheet_5","Spreadsheet1","Spreadsheet1",1,"BIQ","Screen 2","o21mwi",2,"response","4",14321,20432.4,20446.0999999046,14321,20432.4,20446.0999999046,1,14321,6125.09999990463,0,NA,"Rating Scale","Rating Scale",16,"object-86","BIQ",NA,"SUPSCO97532"
"10",1722262498790,"29/07/2024 14:14:58",1722266098790,1,"29/07/2024 16:14:58",177048,9,"task-vy7n",NA,39258427,11513960,NA,"complete",NA,NA,"computer","Desktop or Laptop","Windows 10","Chrome 126.0.0.0","1536x864","1536x730",NA,NA,0,"BIQ-A",3,"EFDGCHBA","Passed AC2","","spreadsheet_5","Spreadsheet1","Spreadsheet1",1,"BIQ","Screen 3","iz3the",3,"continue","",12154.6999999046,12139.5,12154.6999999046,12154.6999999046,12139.5,12154.6999999046,1,12154.6999999046,0,0,NA,"Click To Continue","Continue Button",22,"object-73","BIQ",NA,"SUPSCO97532"
"11",1722262498795,"29/07/2024 14:14:58",1722266098795,1,"29/07/2024 16:14:58",177048,9,"task-vy7n",NA,39258427,11513960,NA,"complete",NA,NA,"computer","Desktop or Laptop","Windows 10","Chrome 126.0.0.0","1536x864","1536x730",NA,NA,0,"BIQ-A",3,"EFDGCHBA","Passed AC2","","spreadsheet_5","Spreadsheet1","Spreadsheet1",1,"BIQ","Screen 3","iz3the",3,"response","0",4529.3,12139.5,12156.2,4529.3,12139.5,12156.2,1,4529.3,7626.90000000001,0,NA,"Rating Scale","Rating Scale",2,"object-53","BIQ",NA,"SUPSCO97532"
"12",1722262498796,"29/07/2024 14:14:58",1722266098796,1,"29/07/2024 16:14:58",177048,9,"task-vy7n",NA,39258427,11513960,NA,"complete",NA,NA,"computer","Desktop or Laptop","Windows 10","Chrome 126.0.0.0","1536x864","1536x730",NA,NA,0,"BIQ-A",3,"EFDGCHBA","Passed AC2","","spreadsheet_5","Spreadsheet1","Spreadsheet1",1,"BIQ","Screen 3","iz3the",3,"response","0",8192.8,12139.5,12156.2,8192.8,12139.5,12156.2,1,8192.8,3963.40000000001,0,NA,"Rating Scale","Rating Scale",9,"object-60","BIQ",NA,"SUPSCO97532"
"13",1722262498796,"29/07/2024 14:14:58",1722266098796,1,"29/07/2024 16:14:58",177048,9,"task-vy7n",NA,39258427,11513960,NA,"complete",NA,NA,"computer","Desktop or Laptop","Windows 10","Chrome 126.0.0.0","1536x864","1536x730",NA,NA,0,"BIQ-A",3,"EFDGCHBA","Passed AC2","","spreadsheet_5","Spreadsheet1","Spreadsheet1",1,"BIQ","Screen 3","iz3the",3,"response","4",11206.5,12139.5,12156.2,11206.5,12139.5,12156.2,1,11206.5,949.700000000004,0,NA,"Rating Scale","Rating Scale",16,"object-67","BIQ",NA,"SUPSCO97532"
"14",1722262498805,"29/07/2024 14:14:58",1722266098805,1,"29/07/2024 16:14:58",177048,9,"task-vy7n",NA,39258427,11513960,NA,"complete",NA,NA,"computer","Desktop or Laptop","Windows 10","Chrome 126.0.0.0","1536x864","1536x730",NA,NA,0,"BIQ-A",3,"EFDGCHBA","Passed AC2","","spreadsheet_5","Spreadsheet1","Spreadsheet1",NA,"","","",NA,"info","END",NA,NA,NA,NA,NA,NA,0,NA,NA,NA,NA,"","",NA,"","",NA,"SUPSCO97532"
"1",1727883127946,"02/10/2024 15:32:07",1727886727946,1,"02/10/2024 17:32:07",177048,9,"task-vy7n",NA,40405920,11790142,NA,"complete",NA,NA,"computer","Desktop or Laptop","Windows 10","Chrome 129.0.0.0","1536x864","1536x864",NA,NA,0,"BIQ-A",3,"ABHCGDFE","Passed AC2","","spreadsheet_2","Spreadsheet1","Spreadsheet1",NA,"","","",NA,"info","BEGIN",NA,NA,NA,NA,NA,NA,0,NA,NA,NA,NA,"","",NA,"","",NA,"SUPSCO24909"
"2",1727883148025,"02/10/2024 15:32:28",1727886748025,1,"02/10/2024 17:32:28",177048,9,"task-vy7n",NA,40405920,11790142,NA,"complete",NA,NA,"computer","Desktop or Laptop","Windows 10","Chrome 129.0.0.0","1536x864","1536x864",NA,NA,0,"BIQ-A",3,"ABHCGDFE","Passed AC2","","spreadsheet_2","Spreadsheet1","Spreadsheet1",1,"BIQ","Screen 1","9dh6eq",1,"continue","",20099.1000000119,20083.1,20099.1000000119,20099.1000000119,20083.1,20099.1000000119,1,20099.1000000119,0,0,NA,"Click To Continue","Continue Button",23,"object-48","BIQ",NA,"SUPSCO24909"
"3",1727883148029,"02/10/2024 15:32:28",1727886748029,1,"02/10/2024 17:32:28",177048,9,"task-vy7n",NA,40405920,11790142,NA,"complete",NA,NA,"computer","Desktop or Laptop","Windows 10","Chrome 129.0.0.0","1536x864","1536x864",NA,NA,0,"BIQ-A",3,"ABHCGDFE","Passed AC2","","spreadsheet_2","Spreadsheet1","Spreadsheet1",1,"BIQ","Screen 1","9dh6eq",1,"response","6",7516.4,20083.1,20099.7,7516.4,20083.1,20099.7,1,7516.4,12583.3,0,NA,"Rating Scale","Rating Scale",3,"object-5","BIQ",NA,"SUPSCO24909"
"4",1727883148030,"02/10/2024 15:32:28",1727886748030,1,"02/10/2024 17:32:28",177048,9,"task-vy7n",NA,40405920,11790142,NA,"complete",NA,NA,"computer","Desktop or Laptop","Windows 10","Chrome 129.0.0.0","1536x864","1536x864",NA,NA,0,"BIQ-A",3,"ABHCGDFE","Passed AC2","","spreadsheet_2","Spreadsheet1","Spreadsheet1",1,"BIQ","Screen 1","9dh6eq",1,"response","6",11983.3,20083.1,20099.7,11983.3,20083.1,20099.7,1,11983.3,8116.4,0,NA,"Rating Scale","Rating Scale",10,"object-18","BIQ",NA,"SUPSCO24909"
"5",1727883148030,"02/10/2024 15:32:28",1727886748030,1,"02/10/2024 17:32:28",177048,9,"task-vy7n",NA,40405920,11790142,NA,"complete",NA,NA,"computer","Desktop or Laptop","Windows 10","Chrome 129.0.0.0","1536x864","1536x864",NA,NA,0,"BIQ-A",3,"ABHCGDFE","Passed AC2","","spreadsheet_2","Spreadsheet1","Spreadsheet1",1,"BIQ","Screen 1","9dh6eq",1,"response","1",16216.6,20083.1,20099.7,16216.6,20083.1,20099.7,1,16216.6,3883.1,0,NA,"Rating Scale","Rating Scale",17,"object-80","BIQ",NA,"SUPSCO24909"
"6",1727883164174,"02/10/2024 15:32:44",1727886764174,1,"02/10/2024 17:32:44",177048,9,"task-vy7n",NA,40405920,11790142,NA,"complete",NA,NA,"computer","Desktop or Laptop","Windows 10","Chrome 129.0.0.0","1536x864","1536x864",NA,NA,0,"BIQ-A",3,"ABHCGDFE","Passed AC2","","spreadsheet_2","Spreadsheet1","Spreadsheet1",1,"BIQ","Screen 2","o21mwi",2,"continue","",16166.7,16150.1,16166.7,16166.7,16150.1,16166.7,1,16166.7,0,0,NA,"Click To Continue","Continue Button",22,"object-50","BIQ",NA,"SUPSCO24909"
"7",1727883164179,"02/10/2024 15:32:44",1727886764179,1,"02/10/2024 17:32:44",177048,9,"task-vy7n",NA,40405920,11790142,NA,"complete",NA,NA,"computer","Desktop or Laptop","Windows 10","Chrome 129.0.0.0","1536x864","1536x864",NA,NA,0,"BIQ-A",3,"ABHCGDFE","Passed AC2","","spreadsheet_2","Spreadsheet1","Spreadsheet1",1,"BIQ","Screen 2","o21mwi",2,"response","7",6983.6,16150.1,16166.7,6983.6,16150.1,16166.7,1,6983.6,9183.1,0,NA,"Rating Scale","Rating Scale",2,"object-259","BIQ",NA,"SUPSCO24909"
"8",1727883164181,"02/10/2024 15:32:44",1727886764181,1,"02/10/2024 17:32:44",177048,9,"task-vy7n",NA,40405920,11790142,NA,"complete",NA,NA,"computer","Desktop or Laptop","Windows 10","Chrome 129.0.0.0","1536x864","1536x864",NA,NA,0,"BIQ-A",3,"ABHCGDFE","Passed AC2","","spreadsheet_2","Spreadsheet1","Spreadsheet1",1,"BIQ","Screen 2","o21mwi",2,"response","0",8966.7,16150.1,16166.7,8966.7,16150.1,16166.7,1,8966.7,7200,0,NA,"Rating Scale","Rating Scale",9,"object-36","BIQ",NA,"SUPSCO24909"
"9",1727883164182,"02/10/2024 15:32:44",1727886764182,1,"02/10/2024 17:32:44",177048,9,"task-vy7n",NA,40405920,11790142,NA,"complete",NA,NA,"computer","Desktop or Laptop","Windows 10","Chrome 129.0.0.0","1536x864","1536x864",NA,NA,0,"BIQ-A",3,"ABHCGDFE","Passed AC2","","spreadsheet_2","Spreadsheet1","Spreadsheet1",1,"BIQ","Screen 2","o21mwi",2,"response","1",15466.9,16150.1,16166.7,15466.9,16150.1,16166.7,1,15466.9,699.800000000003,0,NA,"Rating Scale","Rating Scale",16,"object-86","BIQ",NA,"SUPSCO24909"
"10",1727883176541,"02/10/2024 15:32:56",1727886776541,1,"02/10/2024 17:32:56",177048,9,"task-vy7n",NA,40405920,11790142,NA,"complete",NA,NA,"computer","Desktop or Laptop","Windows 10","Chrome 129.0.0.0","1536x864","1536x864",NA,NA,0,"BIQ-A",3,"ABHCGDFE","Passed AC2","","spreadsheet_2","Spreadsheet1","Spreadsheet1",1,"BIQ","Screen 3","iz3the",3,"continue","",12384.8000000179,12383.2,12384.8000000179,12384.8000000179,12383.2,12384.8000000179,1,12384.8000000179,0,0,NA,"Click To Continue","Continue Button",22,"object-73","BIQ",NA,"SUPSCO24909"
"11",1727883176545,"02/10/2024 15:32:56",1727886776545,1,"02/10/2024 17:32:56",177048,9,"task-vy7n",NA,40405920,11790142,NA,"complete",NA,NA,"computer","Desktop or Laptop","Windows 10","Chrome 129.0.0.0","1536x864","1536x864",NA,NA,0,"BIQ-A",3,"ABHCGDFE","Passed AC2","","spreadsheet_2","Spreadsheet1","Spreadsheet1",1,"BIQ","Screen 3","iz3the",3,"response","0",4699.8,12383.2,12389.000000006,4699.8,12383.2,12389.000000006,1,4699.8,7689.20000000596,0,NA,"Rating Scale","Rating Scale",2,"object-53","BIQ",NA,"SUPSCO24909"
"12",1727883176546,"02/10/2024 15:32:56",1727886776546,1,"02/10/2024 17:32:56",177048,9,"task-vy7n",NA,40405920,11790142,NA,"complete",NA,NA,"computer","Desktop or Laptop","Windows 10","Chrome 129.0.0.0","1536x864","1536x864",NA,NA,0,"BIQ-A",3,"ABHCGDFE","Passed AC2","","spreadsheet_2","Spreadsheet1","Spreadsheet1",1,"BIQ","Screen 3","iz3the",3,"response","0",6351.1,12383.2,12389.8000000179,6351.1,12383.2,12389.8000000179,1,6351.1,6038.70000001788,0,NA,"Rating Scale","Rating Scale",9,"object-60","BIQ",NA,"SUPSCO24909"
"13",1727883176547,"02/10/2024 15:32:56",1727886776547,1,"02/10/2024 17:32:56",177048,9,"task-vy7n",NA,40405920,11790142,NA,"complete",NA,NA,"computer","Desktop or Laptop","Windows 10","Chrome 129.0.0.0","1536x864","1536x864",NA,NA,0,"BIQ-A",3,"ABHCGDFE","Passed AC2","","spreadsheet_2","Spreadsheet1","Spreadsheet1",1,"BIQ","Screen 3","iz3the",3,"response","0",7383.5,12383.2,12390.9000000119,7383.5,12383.2,12390.9000000119,1,7383.5,5007.40000001192,0,NA,"Rating Scale","Rating Scale",16,"object-67","BIQ",NA,"SUPSCO24909"
"14",1727883176553,"02/10/2024 15:32:56",1727886776553,1,"02/10/2024 17:32:56",177048,9,"task-vy7n",NA,40405920,11790142,NA,"complete",NA,NA,"computer","Desktop or Laptop","Windows 10","Chrome 129.0.0.0","1536x864","1536x864",NA,NA,0,"BIQ-A",3,"ABHCGDFE","Passed AC2","","spreadsheet_2","Spreadsheet1","Spreadsheet1",NA,"","","",NA,"info","END",NA,NA,NA,NA,NA,NA,0,NA,NA,NA,NA,"","",NA,"","",NA,"SUPSCO24909"
"1",1732032509964,"19/11/2024 16:08:29",1732032509964,0,"19/11/2024 16:08:29",177048,9,"task-vy7n",NA,41463356,12102817,NA,"complete",NA,NA,"computer","Desktop or Laptop","Mac OS 10.15.7","Chrome 131.0.0.0","1440x900","1440x812",NA,NA,0,"BIQ-A",3,"EFDGCHBA","Passed AC2","","spreadsheet_2","Spreadsheet1","Spreadsheet1",NA,"","","",NA,"info","BEGIN",NA,NA,NA,NA,NA,NA,0,NA,NA,NA,NA,"","",NA,"","",NA,"SUPSCO70172"
"2",1732032563908,"19/11/2024 16:09:23",1732032563908,0,"19/11/2024 16:09:23",177048,9,"task-vy7n",NA,41463356,12102817,NA,"complete",NA,NA,"computer","Desktop or Laptop","Mac OS 10.15.7","Chrome 131.0.0.0","1440x900","1440x812",NA,NA,0,"BIQ-A",3,"EFDGCHBA","Passed AC2","","spreadsheet_2","Spreadsheet1","Spreadsheet1",1,"BIQ","Screen 1","9dh6eq",1,"continue","",53967.1,53951.6,53967.1,53967.1,53951.6,53967.1,1,53967.1,0,0,NA,"Click To Continue","Continue Button",23,"object-48","BIQ",NA,"SUPSCO70172"
"3",1732032563911,"19/11/2024 16:09:23",1732032563911,0,"19/11/2024 16:09:23",177048,9,"task-vy7n",NA,41463356,12102817,NA,"complete",NA,NA,"computer","Desktop or Laptop","Mac OS 10.15.7","Chrome 131.0.0.0","1440x900","1440x812",NA,NA,0,"BIQ-A",3,"EFDGCHBA","Passed AC2","","spreadsheet_2","Spreadsheet1","Spreadsheet1",1,"BIQ","Screen 1","9dh6eq",1,"response","5",31100.8,53951.6,53968.2,31100.8,53951.6,53968.2,1,31100.8,22867.4,0,NA,"Rating Scale","Rating Scale",3,"object-5","BIQ",NA,"SUPSCO70172"
"4",1732032563912,"19/11/2024 16:09:23",1732032563912,0,"19/11/2024 16:09:23",177048,9,"task-vy7n",NA,41463356,12102817,NA,"complete",NA,NA,"computer","Desktop or Laptop","Mac OS 10.15.7","Chrome 131.0.0.0","1440x900","1440x812",NA,NA,0,"BIQ-A",3,"EFDGCHBA","Passed AC2","","spreadsheet_2","Spreadsheet1","Spreadsheet1",1,"BIQ","Screen 1","9dh6eq",1,"response","3",42183.8,53951.6,53968.2,42183.8,53951.6,53968.2,1,42183.8,11784.4,0,NA,"Rating Scale","Rating Scale",10,"object-18","BIQ",NA,"SUPSCO70172"
"5",1732032563912,"19/11/2024 16:09:23",1732032563912,0,"19/11/2024 16:09:23",177048,9,"task-vy7n",NA,41463356,12102817,NA,"complete",NA,NA,"computer","Desktop or Laptop","Mac OS 10.15.7","Chrome 131.0.0.0","1440x900","1440x812",NA,NA,0,"BIQ-A",3,"EFDGCHBA","Passed AC2","","spreadsheet_2","Spreadsheet1","Spreadsheet1",1,"BIQ","Screen 1","9dh6eq",1,"response","4",52151.6,53951.6,53968.2,52151.6,53951.6,53968.2,1,52151.6,1816.6,0,NA,"Rating Scale","Rating Scale",17,"object-80","BIQ",NA,"SUPSCO70172"
"6",1732032597689,"19/11/2024 16:09:57",1732032597689,0,"19/11/2024 16:09:57",177048,9,"task-vy7n",NA,41463356,12102817,NA,"complete",NA,NA,"computer","Desktop or Laptop","Mac OS 10.15.7","Chrome 131.0.0.0","1440x900","1440x812",NA,NA,0,"BIQ-A",3,"EFDGCHBA","Passed AC2","","spreadsheet_2","Spreadsheet1","Spreadsheet1",1,"BIQ","Screen 2","o21mwi",2,"continue","",33798.2999999821,33783.5,33798.2999999821,33798.2999999821,33783.5,33798.2999999821,1,33798.2999999821,0,0,NA,"Click To Continue","Continue Button",22,"object-50","BIQ",NA,"SUPSCO70172"
"7",1732032597692,"19/11/2024 16:09:57",1732032597692,0,"19/11/2024 16:09:57",177048,9,"task-vy7n",NA,41463356,12102817,NA,"complete",NA,NA,"computer","Desktop or Laptop","Mac OS 10.15.7","Chrome 131.0.0.0","1440x900","1440x812",NA,NA,0,"BIQ-A",3,"EFDGCHBA","Passed AC2","","spreadsheet_2","Spreadsheet1","Spreadsheet1",1,"BIQ","Screen 2","o21mwi",2,"response","4",11667.1,33783.5,33799.3,11667.1,33783.5,33799.3,1,11667.1,22132.2,0,NA,"Rating Scale","Rating Scale",2,"object-259","BIQ",NA,"SUPSCO70172"
"8",1732032597692,"19/11/2024 16:09:57",1732032597692,0,"19/11/2024 16:09:57",177048,9,"task-vy7n",NA,41463356,12102817,NA,"complete",NA,NA,"computer","Desktop or Laptop","Mac OS 10.15.7","Chrome 131.0.0.0","1440x900","1440x812",NA,NA,0,"BIQ-A",3,"EFDGCHBA","Passed AC2","","spreadsheet_2","Spreadsheet1","Spreadsheet1",1,"BIQ","Screen 2","o21mwi",2,"response","6",17617.2,33783.5,33799.3,17617.2,33783.5,33799.3,1,17617.2,16182.1,0,NA,"Rating Scale","Rating Scale",9,"object-36","BIQ",NA,"SUPSCO70172"
"9",1732032597693,"19/11/2024 16:09:57",1732032597693,0,"19/11/2024 16:09:57",177048,9,"task-vy7n",NA,41463356,12102817,NA,"complete",NA,NA,"computer","Desktop or Laptop","Mac OS 10.15.7","Chrome 131.0.0.0","1440x900","1440x812",NA,NA,0,"BIQ-A",3,"EFDGCHBA","Passed AC2","","spreadsheet_2","Spreadsheet1","Spreadsheet1",1,"BIQ","Screen 2","o21mwi",2,"response","5",32317.6,33783.5,33799.3,32317.6,33783.5,33799.3,1,32317.6,1481.7,0,NA,"Rating Scale","Rating Scale",16,"object-86","BIQ",NA,"SUPSCO70172"
"10",1732032625822,"19/11/2024 16:10:25",1732032625822,0,"19/11/2024 16:10:25",177048,9,"task-vy7n",NA,41463356,12102817,NA,"complete",NA,NA,"computer","Desktop or Laptop","Mac OS 10.15.7","Chrome 131.0.0.0","1440x900","1440x812",NA,NA,0,"BIQ-A",3,"EFDGCHBA","Passed AC2","","spreadsheet_2","Spreadsheet1","Spreadsheet1",1,"BIQ","Screen 3","iz3the",3,"continue","",28149.900000006,28134.2,28149.900000006,28149.900000006,28134.2,28149.900000006,1,28149.900000006,0,0,NA,"Click To Continue","Continue Button",22,"object-73","BIQ",NA,"SUPSCO70172"
"11",1732032625826,"19/11/2024 16:10:25",1732032625826,0,"19/11/2024 16:10:25",177048,9,"task-vy7n",NA,41463356,12102817,NA,"complete",NA,NA,"computer","Desktop or Laptop","Mac OS 10.15.7","Chrome 131.0.0.0","1440x900","1440x812",NA,NA,0,"BIQ-A",3,"EFDGCHBA","Passed AC2","","spreadsheet_2","Spreadsheet1","Spreadsheet1",1,"BIQ","Screen 3","iz3the",3,"response","1",13067.4,28134.2,28150,13067.4,28134.2,28150,1,13067.4,15082.6,0,NA,"Rating Scale","Rating Scale",2,"object-53","BIQ",NA,"SUPSCO70172"
"12",1732032625826,"19/11/2024 16:10:25",1732032625826,0,"19/11/2024 16:10:25",177048,9,"task-vy7n",NA,41463356,12102817,NA,"complete",NA,NA,"computer","Desktop or Laptop","Mac OS 10.15.7","Chrome 131.0.0.0","1440x900","1440x812",NA,NA,0,"BIQ-A",3,"EFDGCHBA","Passed AC2","","spreadsheet_2","Spreadsheet1","Spreadsheet1",1,"BIQ","Screen 3","iz3the",3,"response","6",19751.5,28134.2,28150,19751.5,28134.2,28150,1,19751.5,8398.5,0,NA,"Rating Scale","Rating Scale",9,"object-60","BIQ",NA,"SUPSCO70172"
"13",1732032625826,"19/11/2024 16:10:25",1732032625826,0,"19/11/2024 16:10:25",177048,9,"task-vy7n",NA,41463356,12102817,NA,"complete",NA,NA,"computer","Desktop or Laptop","Mac OS 10.15.7","Chrome 131.0.0.0","1440x900","1440x812",NA,NA,0,"BIQ-A",3,"EFDGCHBA","Passed AC2","","spreadsheet_2","Spreadsheet1","Spreadsheet1",1,"BIQ","Screen 3","iz3the",3,"response","7",25285,28134.2,28150,25285,28134.2,28150,1,25285,2865,0,NA,"Rating Scale","Rating Scale",16,"object-67","BIQ",NA,"SUPSCO70172"
"14",1732032625828,"19/11/2024 16:10:25",1732032625828,0,"19/11/2024 16:10:25",177048,9,"task-vy7n",NA,41463356,12102817,NA,"complete",NA,NA,"computer","Desktop or Laptop","Mac OS 10.15.7","Chrome 131.0.0.0","1440x900","1440x812",NA,NA,0,"BIQ-A",3,"EFDGCHBA","Passed AC2","","spreadsheet_2","Spreadsheet1","Spreadsheet1",NA,"","","",NA,"info","END",NA,NA,115805,NA,NA,NA,0,NA,NA,NA,NA,"","",NA,"","",NA,"SUPSCO70172"
"1",1732120146161,"20/11/2024 16:29:06",1732120146161,0,"20/11/2024 16:29:06",177048,9,"task-vy7n",NA,41493826,12111313,NA,"complete",NA,NA,"computer","Desktop or Laptop","Windows 10","Chrome 131.0.0.0","1280x720","1280x585",NA,NA,0,"BIQ-A",3,"GHFAEBDC","Passed AC2","","spreadsheet_5","Spreadsheet1","Spreadsheet1",NA,"","","",NA,"info","BEGIN",NA,NA,NA,NA,NA,NA,0,NA,NA,NA,NA,"","",NA,"","",NA,"SUPSCO80310"
"2",1732120209977,"20/11/2024 16:30:09",1732120209977,0,"20/11/2024 16:30:09",177048,9,"task-vy7n",NA,41493826,12111313,NA,"complete",NA,NA,"computer","Desktop or Laptop","Windows 10","Chrome 131.0.0.0","1280x720","1280x585",NA,NA,0,"BIQ-A",3,"GHFAEBDC","Passed AC2","","spreadsheet_5","Spreadsheet1","Spreadsheet1",1,"BIQ","Screen 1","9dh6eq",1,"continue","",63823.952,63813.052,63823.952,63823.952,63813.052,63823.952,1,63823.952,0,0,NA,"Click To Continue","Continue Button",23,"object-48","BIQ",NA,"SUPSCO80310"
"3",1732120209980,"20/11/2024 16:30:09",1732120209980,0,"20/11/2024 16:30:09",177048,9,"task-vy7n",NA,41493826,12111313,NA,"complete",NA,NA,"computer","Desktop or Laptop","Windows 10","Chrome 131.0.0.0","1280x720","1280x585",NA,NA,0,"BIQ-A",3,"GHFAEBDC","Passed AC2","","spreadsheet_5","Spreadsheet1","Spreadsheet1",1,"BIQ","Screen 1","9dh6eq",1,"response","2",25611.252,63813.052,63827.652,25611.252,63813.052,63827.652,1,25611.252,38216.4,0,NA,"Rating Scale","Rating Scale",3,"object-5","BIQ",NA,"SUPSCO80310"
"4",1732120209980,"20/11/2024 16:30:09",1732120209980,0,"20/11/2024 16:30:09",177048,9,"task-vy7n",NA,41493826,12111313,NA,"complete",NA,NA,"computer","Desktop or Laptop","Windows 10","Chrome 131.0.0.0","1280x720","1280x585",NA,NA,0,"BIQ-A",3,"GHFAEBDC","Passed AC2","","spreadsheet_5","Spreadsheet1","Spreadsheet1",1,"BIQ","Screen 1","9dh6eq",1,"response","4",37967.552,63813.052,63828.0520000001,37967.552,63813.052,63828.0520000001,1,37967.552,25860.5000000001,0,NA,"Rating Scale","Rating Scale",10,"object-18","BIQ",NA,"SUPSCO80310"
"5",1732120209981,"20/11/2024 16:30:09",1732120209981,0,"20/11/2024 16:30:09",177048,9,"task-vy7n",NA,41493826,12111313,NA,"complete",NA,NA,"computer","Desktop or Laptop","Windows 10","Chrome 131.0.0.0","1280x720","1280x585",NA,NA,0,"BIQ-A",3,"GHFAEBDC","Passed AC2","","spreadsheet_5","Spreadsheet1","Spreadsheet1",1,"BIQ","Screen 1","9dh6eq",1,"response","3",59949.552,63813.052,63828.3520000002,59949.552,63813.052,63828.3520000002,1,59949.552,3878.80000000018,0,NA,"Rating Scale","Rating Scale",17,"object-80","BIQ",NA,"SUPSCO80310"
"6",1732120271933,"20/11/2024 16:31:11",1732120271933,0,"20/11/2024 16:31:11",177048,9,"task-vy7n",NA,41493826,12111313,NA,"complete",NA,NA,"computer","Desktop or Laptop","Windows 10","Chrome 131.0.0.0","1280x720","1280x585",NA,NA,0,"BIQ-A",3,"GHFAEBDC","Passed AC2","","spreadsheet_5","Spreadsheet1","Spreadsheet1",1,"BIQ","Screen 2","o21mwi",2,"continue","",61966,61949.2,61966,61966,61949.2,61966,1,61966,0,0,NA,"Click To Continue","Continue Button",22,"object-50","BIQ",NA,"SUPSCO80310"
"7",1732120271936,"20/11/2024 16:31:11",1732120271936,0,"20/11/2024 16:31:11",177048,9,"task-vy7n",NA,41493826,12111313,NA,"complete",NA,NA,"computer","Desktop or Laptop","Windows 10","Chrome 131.0.0.0","1280x720","1280x585",NA,NA,0,"BIQ-A",3,"GHFAEBDC","Passed AC2","","spreadsheet_5","Spreadsheet1","Spreadsheet1",1,"BIQ","Screen 2","o21mwi",2,"response","6",23347.3,61949.2,61966,23347.3,61949.2,61966,1,23347.3,38618.7,0,NA,"Rating Scale","Rating Scale",2,"object-259","BIQ",NA,"SUPSCO80310"
"8",1732120271936,"20/11/2024 16:31:11",1732120271936,0,"20/11/2024 16:31:11",177048,9,"task-vy7n",NA,41493826,12111313,NA,"complete",NA,NA,"computer","Desktop or Laptop","Windows 10","Chrome 131.0.0.0","1280x720","1280x585",NA,NA,0,"BIQ-A",3,"GHFAEBDC","Passed AC2","","spreadsheet_5","Spreadsheet1","Spreadsheet1",1,"BIQ","Screen 2","o21mwi",2,"response","4",35287.6,61949.2,61966,35287.6,61949.2,61966,1,35287.6,26678.4,0,NA,"Rating Scale","Rating Scale",9,"object-36","BIQ",NA,"SUPSCO80310"
"9",1732120271937,"20/11/2024 16:31:11",1732120271937,0,"20/11/2024 16:31:11",177048,9,"task-vy7n",NA,41493826,12111313,NA,"complete",NA,NA,"computer","Desktop or Laptop","Windows 10","Chrome 131.0.0.0","1280x720","1280x585",NA,NA,0,"BIQ-A",3,"GHFAEBDC","Passed AC2","","spreadsheet_5","Spreadsheet1","Spreadsheet1",1,"BIQ","Screen 2","o21mwi",2,"response","3",56170.6,61949.2,61966,56170.6,61949.2,61966,1,56170.6,5795.40000000001,0,NA,"Rating Scale","Rating Scale",16,"object-86","BIQ",NA,"SUPSCO80310"
"10",1732120315092,"20/11/2024 16:31:55",1732120315092,0,"20/11/2024 16:31:55",177048,9,"task-vy7n",NA,41493826,12111313,NA,"complete",NA,NA,"computer","Desktop or Laptop","Windows 10","Chrome 131.0.0.0","1280x720","1280x585",NA,NA,0,"BIQ-A",3,"GHFAEBDC","Passed AC2","","spreadsheet_5","Spreadsheet1","Spreadsheet1",1,"BIQ","Screen 3","iz3the",3,"continue","",43176.7,43164.4,43176.7,43176.7,43164.4,43176.7,1,43176.7,0,0,NA,"Click To Continue","Continue Button",22,"object-73","BIQ",NA,"SUPSCO80310"
"11",1732120315095,"20/11/2024 16:31:55",1732120315095,0,"20/11/2024 16:31:55",177048,9,"task-vy7n",NA,41493826,12111313,NA,"complete",NA,NA,"computer","Desktop or Laptop","Windows 10","Chrome 131.0.0.0","1280x720","1280x585",NA,NA,0,"BIQ-A",3,"GHFAEBDC","Passed AC2","","spreadsheet_5","Spreadsheet1","Spreadsheet1",1,"BIQ","Screen 3","iz3the",3,"response","2",21149.3,43164.4,43180.6000000002,21149.3,43164.4,43180.6000000002,1,21149.3,22031.3000000002,0,NA,"Rating Scale","Rating Scale",2,"object-53","BIQ",NA,"SUPSCO80310"
"12",1732120315096,"20/11/2024 16:31:55",1732120315096,0,"20/11/2024 16:31:55",177048,9,"task-vy7n",NA,41493826,12111313,NA,"complete",NA,NA,"computer","Desktop or Laptop","Windows 10","Chrome 131.0.0.0","1280x720","1280x585",NA,NA,0,"BIQ-A",3,"GHFAEBDC","Passed AC2","","spreadsheet_5","Spreadsheet1","Spreadsheet1",1,"BIQ","Screen 3","iz3the",3,"response","2",27110.8,43164.4,43180.9,27110.8,43164.4,43180.9,1,27110.8,16070.1,0,NA,"Rating Scale","Rating Scale",9,"object-60","BIQ",NA,"SUPSCO80310"
"13",1732120315096,"20/11/2024 16:31:55",1732120315096,0,"20/11/2024 16:31:55",177048,9,"task-vy7n",NA,41493826,12111313,NA,"complete",NA,NA,"computer","Desktop or Laptop","Windows 10","Chrome 131.0.0.0","1280x720","1280x585",NA,NA,0,"BIQ-A",3,"GHFAEBDC","Passed AC2","","spreadsheet_5","Spreadsheet1","Spreadsheet1",1,"BIQ","Screen 3","iz3the",3,"response","3",41832.2,43164.4,43180.9,41832.2,43164.4,43180.9,1,41832.2,1348.70000000001,0,NA,"Rating Scale","Rating Scale",16,"object-67","BIQ",NA,"SUPSCO80310"
"14",1732120315097,"20/11/2024 16:31:55",1732120315097,0,"20/11/2024 16:31:55",177048,9,"task-vy7n",NA,41493826,12111313,NA,"complete",NA,NA,"computer","Desktop or Laptop","Windows 10","Chrome 131.0.0.0","1280x720","1280x585",NA,NA,0,"BIQ-A",3,"GHFAEBDC","Passed AC2","","spreadsheet_5","Spreadsheet1","Spreadsheet1",NA,"","","",NA,"info","END",NA,NA,168882,NA,NA,NA,0,NA,NA,NA,NA,"","",NA,"","",NA,"SUPSCO80310"
"1",1732120344273,"20/11/2024 16:32:24",1732120344273,0,"20/11/2024 16:32:24",177048,9,"task-vy7n",NA,41493915,12111307,NA,"complete",NA,NA,"computer","Desktop or Laptop","Chromium OS 14541.0.0","Chrome 130.0.0.0","1616x909","1616x741",NA,NA,0,"BIQ-A",3,"FGEHDACB","Passed AC2","","spreadsheet_4","Spreadsheet1","Spreadsheet1",NA,"","","",NA,"info","BEGIN",NA,NA,NA,NA,NA,NA,0,NA,NA,NA,NA,"","",NA,"","",NA,"SUPSCO79674"
"2",1732120489355,"20/11/2024 16:34:49",1732120489355,0,"20/11/2024 16:34:49",177048,9,"task-vy7n",NA,41493915,12111307,NA,"complete",NA,NA,"computer","Desktop or Laptop","Chromium OS 14541.0.0","Chrome 130.0.0.0","1616x909","1616x741",NA,NA,0,"BIQ-A",3,"FGEHDACB","Passed AC2","","spreadsheet_4","Spreadsheet1","Spreadsheet1",1,"BIQ","Screen 1","9dh6eq",1,"continue","",145109.964,145093.364,145109.964,145109.964,145093.364,145109.964,1,145109.964,0,0,NA,"Click To Continue","Continue Button",23,"object-48","BIQ",NA,"SUPSCO79674"
"3",1732120489360,"20/11/2024 16:34:49",1732120489360,0,"20/11/2024 16:34:49",177048,9,"task-vy7n",NA,41493915,12111307,NA,"complete",NA,NA,"computer","Desktop or Laptop","Chromium OS 14541.0.0","Chrome 130.0.0.0","1616x909","1616x741",NA,NA,0,"BIQ-A",3,"FGEHDACB","Passed AC2","","spreadsheet_4","Spreadsheet1","Spreadsheet1",1,"BIQ","Screen 1","9dh6eq",1,"response","7",58257.064,145093.364,145109.964,58257.064,145093.364,145109.964,1,58257.064,86852.9,0,NA,"Rating Scale","Rating Scale",3,"object-5","BIQ",NA,"SUPSCO79674"
"4",1732120489361,"20/11/2024 16:34:49",1732120489361,0,"20/11/2024 16:34:49",177048,9,"task-vy7n",NA,41493915,12111307,NA,"complete",NA,NA,"computer","Desktop or Laptop","Chromium OS 14541.0.0","Chrome 130.0.0.0","1616x909","1616x741",NA,NA,0,"BIQ-A",3,"FGEHDACB","Passed AC2","","spreadsheet_4","Spreadsheet1","Spreadsheet1",1,"BIQ","Screen 1","9dh6eq",1,"response","8",120897.264,145093.364,145109.964,120897.264,145093.364,145109.964,1,120897.264,24212.7,0,NA,"Rating Scale","Rating Scale",10,"object-18","BIQ",NA,"SUPSCO79674"
"5",1732120489362,"20/11/2024 16:34:49",1732120489362,0,"20/11/2024 16:34:49",177048,9,"task-vy7n",NA,41493915,12111307,NA,"complete",NA,NA,"computer","Desktop or Laptop","Chromium OS 14541.0.0","Chrome 130.0.0.0","1616x909","1616x741",NA,NA,0,"BIQ-A",3,"FGEHDACB","Passed AC2","","spreadsheet_4","Spreadsheet1","Spreadsheet1",1,"BIQ","Screen 1","9dh6eq",1,"response","0",143010.364,145093.364,145109.964,143010.364,145093.364,145109.964,1,143010.364,2099.59999999998,0,NA,"Rating Scale","Rating Scale",17,"object-80","BIQ",NA,"SUPSCO79674"
"6",1732120554117,"20/11/2024 16:35:54",1732120554117,0,"20/11/2024 16:35:54",177048,9,"task-vy7n",NA,41493915,12111307,NA,"complete",NA,NA,"computer","Desktop or Laptop","Chromium OS 14541.0.0","Chrome 130.0.0.0","1616x909","1616x741",NA,NA,0,"BIQ-A",3,"FGEHDACB","Passed AC2","","spreadsheet_4","Spreadsheet1","Spreadsheet1",1,"BIQ","Screen 2","o21mwi",2,"continue","",64781.8000000001,64773.1,64781.8000000001,64781.8000000001,64773.1,64781.8000000001,1,64781.8000000001,0,0,NA,"Click To Continue","Continue Button",22,"object-50","BIQ",NA,"SUPSCO79674"
"7",1732120554122,"20/11/2024 16:35:54",1732120554122,0,"20/11/2024 16:35:54",177048,9,"task-vy7n",NA,41493915,12111307,NA,"complete",NA,NA,"computer","Desktop or Laptop","Chromium OS 14541.0.0","Chrome 130.0.0.0","1616x909","1616x741",NA,NA,0,"BIQ-A",3,"FGEHDACB","Passed AC2","","spreadsheet_4","Spreadsheet1","Spreadsheet1",1,"BIQ","Screen 2","o21mwi",2,"response","8",20163.4,64773.1,64786.4000000002,20163.4,64773.1,64786.4000000002,1,20163.4,44623.0000000002,0,NA,"Rating Scale","Rating Scale",2,"object-259","BIQ",NA,"SUPSCO79674"
"8",1732120554122,"20/11/2024 16:35:54",1732120554122,0,"20/11/2024 16:35:54",177048,9,"task-vy7n",NA,41493915,12111307,NA,"complete",NA,NA,"computer","Desktop or Laptop","Chromium OS 14541.0.0","Chrome 130.0.0.0","1616x909","1616x741",NA,NA,0,"BIQ-A",3,"FGEHDACB","Passed AC2","","spreadsheet_4","Spreadsheet1","Spreadsheet1",1,"BIQ","Screen 2","o21mwi",2,"response","1",38910.4,64773.1,64787.0000000003,38910.4,64773.1,64787.0000000003,1,38910.4,25876.6000000003,0,NA,"Rating Scale","Rating Scale",9,"object-36","BIQ",NA,"SUPSCO79674"
"9",1732120554123,"20/11/2024 16:35:54",1732120554123,0,"20/11/2024 16:35:54",177048,9,"task-vy7n",NA,41493915,12111307,NA,"complete",NA,NA,"computer","Desktop or Laptop","Chromium OS 14541.0.0","Chrome 130.0.0.0","1616x909","1616x741",NA,NA,0,"BIQ-A",3,"FGEHDACB","Passed AC2","","spreadsheet_4","Spreadsheet1","Spreadsheet1",1,"BIQ","Screen 2","o21mwi",2,"response","0",63090.1,64773.1,64787.4000000002,63090.1,64773.1,64787.4000000002,1,63090.1,1697.30000000019,0,NA,"Rating Scale","Rating Scale",16,"object-86","BIQ",NA,"SUPSCO79674"
"10",1732120592500,"20/11/2024 16:36:32",1732120592500,0,"20/11/2024 16:36:32",177048,9,"task-vy7n",NA,41493915,12111307,NA,"complete",NA,NA,"computer","Desktop or Laptop","Chromium OS 14541.0.0","Chrome 130.0.0.0","1616x909","1616x741",NA,NA,0,"BIQ-A",3,"FGEHDACB","Passed AC2","","spreadsheet_4","Spreadsheet1","Spreadsheet1",1,"BIQ","Screen 3","iz3the",3,"continue","",38391.3000000002,38377.2,38391.3000000002,38391.3000000002,38377.2,38391.3000000002,1,38391.3000000002,0,0,NA,"Click To Continue","Continue Button",22,"object-73","BIQ",NA,"SUPSCO79674"
"11",1732120592504,"20/11/2024 16:36:32",1732120592504,0,"20/11/2024 16:36:32",177048,9,"task-vy7n",NA,41493915,12111307,NA,"complete",NA,NA,"computer","Desktop or Laptop","Chromium OS 14541.0.0","Chrome 130.0.0.0","1616x909","1616x741",NA,NA,0,"BIQ-A",3,"FGEHDACB","Passed AC2","","spreadsheet_4","Spreadsheet1","Spreadsheet1",1,"BIQ","Screen 3","iz3the",3,"response","0",25046,38377.2,38393.8,25046,38377.2,38393.8,1,25046,13347.8,0,NA,"Rating Scale","Rating Scale",2,"object-53","BIQ",NA,"SUPSCO79674"
"12",1732120592506,"20/11/2024 16:36:32",1732120592506,0,"20/11/2024 16:36:32",177048,9,"task-vy7n",NA,41493915,12111307,NA,"complete",NA,NA,"computer","Desktop or Laptop","Chromium OS 14541.0.0","Chrome 130.0.0.0","1616x909","1616x741",NA,NA,0,"BIQ-A",3,"FGEHDACB","Passed AC2","","spreadsheet_4","Spreadsheet1","Spreadsheet1",1,"BIQ","Screen 3","iz3the",3,"response","0",30261.9,38377.2,38393.8,30261.9,38377.2,38393.8,1,30261.9,8131.90000000002,0,NA,"Rating Scale","Rating Scale",9,"object-60","BIQ",NA,"SUPSCO79674"
"13",1732120592507,"20/11/2024 16:36:32",1732120592507,0,"20/11/2024 16:36:32",177048,9,"task-vy7n",NA,41493915,12111307,NA,"complete",NA,NA,"computer","Desktop or Laptop","Chromium OS 14541.0.0","Chrome 130.0.0.0","1616x909","1616x741",NA,NA,0,"BIQ-A",3,"FGEHDACB","Passed AC2","","spreadsheet_4","Spreadsheet1","Spreadsheet1",1,"BIQ","Screen 3","iz3the",3,"response","0",35794.3,38377.2,38393.8,35794.3,38377.2,38393.8,1,35794.3,2599.5,0,NA,"Rating Scale","Rating Scale",16,"object-67","BIQ",NA,"SUPSCO79674"
"14",1732120592511,"20/11/2024 16:36:32",1732120592511,0,"20/11/2024 16:36:32",177048,9,"task-vy7n",NA,41493915,12111307,NA,"complete",NA,NA,"computer","Desktop or Laptop","Chromium OS 14541.0.0","Chrome 130.0.0.0","1616x909","1616x741",NA,NA,0,"BIQ-A",3,"FGEHDACB","Passed AC2","","spreadsheet_4","Spreadsheet1","Spreadsheet1",NA,"","","",NA,"info","END",NA,NA,247992,NA,NA,NA,0,NA,NA,NA,NA,"","",NA,"","",NA,"SUPSCO79674"
"1",1732294305752,"22/11/2024 16:51:45",1732294305752,0,"22/11/2024 16:51:45",177048,9,"task-vy7n",NA,41546467,12126113,NA,"complete",NA,NA,"computer","Desktop or Laptop","Mac OS 10.15.7","Chrome 131.0.0.0","1710x1107","1710x981",NA,NA,0,"BIQ-A",3,"DECFBGAH","Passed AC2","","spreadsheet_5","Spreadsheet1","Spreadsheet1",NA,"","","",NA,"info","BEGIN",NA,NA,NA,NA,NA,NA,0,NA,NA,NA,NA,"","",NA,"","",NA,"SUPSCO98743"
"2",1732294352022,"22/11/2024 16:52:32",1732294352022,0,"22/11/2024 16:52:32",177048,9,"task-vy7n",NA,41546467,12126113,NA,"complete",NA,NA,"computer","Desktop or Laptop","Mac OS 10.15.7","Chrome 131.0.0.0","1710x1107","1710x981",NA,NA,0,"BIQ-A",3,"DECFBGAH","Passed AC2","","spreadsheet_5","Spreadsheet1","Spreadsheet1",1,"BIQ","Screen 1","9dh6eq",1,"continue","",47088.6,47072.3,47088.6,47088.6,47072.3,47088.6,1,47088.6,0,0,NA,"Click To Continue","Continue Button",23,"object-48","BIQ",NA,"SUPSCO98743"
"3",1732294352025,"22/11/2024 16:52:32",1732294352025,0,"22/11/2024 16:52:32",177048,9,"task-vy7n",NA,41546467,12126113,NA,"complete",NA,NA,"computer","Desktop or Laptop","Mac OS 10.15.7","Chrome 131.0.0.0","1710x1107","1710x981",NA,NA,0,"BIQ-A",3,"DECFBGAH","Passed AC2","","spreadsheet_5","Spreadsheet1","Spreadsheet1",1,"BIQ","Screen 1","9dh6eq",1,"response","4",32106.1,47072.3,47088.6,32106.1,47072.3,47088.6,1,32106.1,14982.5,0,NA,"Rating Scale","Rating Scale",3,"object-5","BIQ",NA,"SUPSCO98743"
"4",1732294352026,"22/11/2024 16:52:32",1732294352026,0,"22/11/2024 16:52:32",177048,9,"task-vy7n",NA,41546467,12126113,NA,"complete",NA,NA,"computer","Desktop or Laptop","Mac OS 10.15.7","Chrome 131.0.0.0","1710x1107","1710x981",NA,NA,0,"BIQ-A",3,"DECFBGAH","Passed AC2","","spreadsheet_5","Spreadsheet1","Spreadsheet1",1,"BIQ","Screen 1","9dh6eq",1,"response","1",39506,47072.3,47088.6,39506,47072.3,47088.6,1,39506,7582.60000000001,0,NA,"Rating Scale","Rating Scale",10,"object-18","BIQ",NA,"SUPSCO98743"
"5",1732294352026,"22/11/2024 16:52:32",1732294352026,0,"22/11/2024 16:52:32",177048,9,"task-vy7n",NA,41546467,12126113,NA,"complete",NA,NA,"computer","Desktop or Laptop","Mac OS 10.15.7","Chrome 131.0.0.0","1710x1107","1710x981",NA,NA,0,"BIQ-A",3,"DECFBGAH","Passed AC2","","spreadsheet_5","Spreadsheet1","Spreadsheet1",1,"BIQ","Screen 1","9dh6eq",1,"response","1",44156,47072.3,47088.6,44156,47072.3,47088.6,1,44156,2932.60000000001,0,NA,"Rating Scale","Rating Scale",17,"object-80","BIQ",NA,"SUPSCO98743"
"6",1732294390983,"22/11/2024 16:53:10",1732294390983,0,"22/11/2024 16:53:10",177048,9,"task-vy7n",NA,41546467,12126113,NA,"complete",NA,NA,"computer","Desktop or Laptop","Mac OS 10.15.7","Chrome 131.0.0.0","1710x1107","1710x981",NA,NA,0,"BIQ-A",3,"DECFBGAH","Passed AC2","","spreadsheet_5","Spreadsheet1","Spreadsheet1",1,"BIQ","Screen 2","o21mwi",2,"continue","",38980.900000003,38966.9,38980.900000003,38980.900000003,38966.9,38980.900000003,1,38980.900000003,0,0,NA,"Click To Continue","Continue Button",22,"object-50","BIQ",NA,"SUPSCO98743"
"7",1732294390986,"22/11/2024 16:53:10",1732294390986,0,"22/11/2024 16:53:10",177048,9,"task-vy7n",NA,41546467,12126113,NA,"complete",NA,NA,"computer","Desktop or Laptop","Mac OS 10.15.7","Chrome 131.0.0.0","1710x1107","1710x981",NA,NA,0,"BIQ-A",3,"DECFBGAH","Passed AC2","","spreadsheet_5","Spreadsheet1","Spreadsheet1",1,"BIQ","Screen 2","o21mwi",2,"response","6",17083.6,38966.9,38983.7,17083.6,38966.9,38983.7,1,17083.6,21900.1,0,NA,"Rating Scale","Rating Scale",2,"object-259","BIQ",NA,"SUPSCO98743"
"8",1732294390986,"22/11/2024 16:53:10",1732294390986,0,"22/11/2024 16:53:10",177048,9,"task-vy7n",NA,41546467,12126113,NA,"complete",NA,NA,"computer","Desktop or Laptop","Mac OS 10.15.7","Chrome 131.0.0.0","1710x1107","1710x981",NA,NA,0,"BIQ-A",3,"DECFBGAH","Passed AC2","","spreadsheet_5","Spreadsheet1","Spreadsheet1",1,"BIQ","Screen 2","o21mwi",2,"response","6",20449.5,38966.9,38983.7,20449.5,38966.9,38983.7,1,20449.5,18534.2,0,NA,"Rating Scale","Rating Scale",9,"object-36","BIQ",NA,"SUPSCO98743"
"9",1732294390987,"22/11/2024 16:53:10",1732294390987,0,"22/11/2024 16:53:10",177048,9,"task-vy7n",NA,41546467,12126113,NA,"complete",NA,NA,"computer","Desktop or Laptop","Mac OS 10.15.7","Chrome 131.0.0.0","1710x1107","1710x981",NA,NA,0,"BIQ-A",3,"DECFBGAH","Passed AC2","","spreadsheet_5","Spreadsheet1","Spreadsheet1",1,"BIQ","Screen 2","o21mwi",2,"response","4",37433.5,38966.9,38983.7,37433.5,38966.9,38983.7,1,37433.5,1550.2,0,NA,"Rating Scale","Rating Scale",16,"object-86","BIQ",NA,"SUPSCO98743"
"10",1732294434049,"22/11/2024 16:53:54",1732294434049,0,"22/11/2024 16:53:54",177048,9,"task-vy7n",NA,41546467,12126113,NA,"complete",NA,NA,"computer","Desktop or Laptop","Mac OS 10.15.7","Chrome 131.0.0.0","1710x1107","1710x981",NA,NA,0,"BIQ-A",3,"DECFBGAH","Passed AC2","","spreadsheet_5","Spreadsheet1","Spreadsheet1",1,"BIQ","Screen 3","iz3the",3,"continue","",43080.500000003,43066.3,43080.500000003,43080.500000003,43066.3,43080.500000003,1,43080.500000003,0,0,NA,"Click To Continue","Continue Button",22,"object-73","BIQ",NA,"SUPSCO98743"
"11",1732294434052,"22/11/2024 16:53:54",1732294434052,0,"22/11/2024 16:53:54",177048,9,"task-vy7n",NA,41546467,12126113,NA,"complete",NA,NA,"computer","Desktop or Laptop","Mac OS 10.15.7","Chrome 131.0.0.0","1710x1107","1710x981",NA,NA,0,"BIQ-A",3,"DECFBGAH","Passed AC2","","spreadsheet_5","Spreadsheet1","Spreadsheet1",1,"BIQ","Screen 3","iz3the",3,"response","0",33916.4,43066.3,43083,33916.4,43066.3,43083,1,33916.4,9166.59999999999,0,NA,"Rating Scale","Rating Scale",2,"object-53","BIQ",NA,"SUPSCO98743"
"12",1732294434052,"22/11/2024 16:53:54",1732294434052,0,"22/11/2024 16:53:54",177048,9,"task-vy7n",NA,41546467,12126113,NA,"complete",NA,NA,"computer","Desktop or Laptop","Mac OS 10.15.7","Chrome 131.0.0.0","1710x1107","1710x981",NA,NA,0,"BIQ-A",3,"DECFBGAH","Passed AC2","","spreadsheet_5","Spreadsheet1","Spreadsheet1",1,"BIQ","Screen 3","iz3the",3,"response","2",35766.4,43066.3,43083,35766.4,43066.3,43083,1,35766.4,7316.59999999999,0,NA,"Rating Scale","Rating Scale",9,"object-60","BIQ",NA,"SUPSCO98743"
"13",1732294434052,"22/11/2024 16:53:54",1732294434052,0,"22/11/2024 16:53:54",177048,9,"task-vy7n",NA,41546467,12126113,NA,"complete",NA,NA,"computer","Desktop or Laptop","Mac OS 10.15.7","Chrome 131.0.0.0","1710x1107","1710x981",NA,NA,0,"BIQ-A",3,"DECFBGAH","Passed AC2","","spreadsheet_5","Spreadsheet1","Spreadsheet1",1,"BIQ","Screen 3","iz3the",3,"response","7",38849.8,43066.3,43083,38849.8,43066.3,43083,1,38849.8,4233.2,0,NA,"Rating Scale","Rating Scale",16,"object-67","BIQ",NA,"SUPSCO98743"
"14",1732294434058,"22/11/2024 16:53:54",1732294434058,0,"22/11/2024 16:53:54",177048,9,"task-vy7n",NA,41546467,12126113,NA,"complete",NA,NA,"computer","Desktop or Laptop","Mac OS 10.15.7","Chrome 131.0.0.0","1710x1107","1710x981",NA,NA,0,"BIQ-A",3,"DECFBGAH","Passed AC2","","spreadsheet_5","Spreadsheet1","Spreadsheet1",NA,"","","",NA,"info","END",NA,NA,128261,NA,NA,NA,0,NA,NA,NA,NA,"","",NA,"","",NA,"SUPSCO98743"
"1",1732548806986,"25/11/2024 15:33:26",1732548806986,0,"25/11/2024 15:33:26",177048,9,"task-vy7n",NA,41598216,12140738,NA,"complete",NA,NA,"computer","Desktop or Laptop","Chromium OS 14541.0.0","Chrome 130.0.0.0","1536x864","1536x743",NA,NA,0,"BIQ-A",3,"EFDGCHBA","Passed AC2","","spreadsheet","Spreadsheet1","Spreadsheet1",NA,"","","",NA,"info","BEGIN",NA,NA,NA,NA,NA,NA,0,NA,NA,NA,NA,"","",NA,"","",NA,"SUPSCO36211"
"2",1732548852151,"25/11/2024 15:34:12",1732548852151,0,"25/11/2024 15:34:12",177048,9,"task-vy7n",NA,41598216,12140738,NA,"complete",NA,NA,"computer","Desktop or Laptop","Chromium OS 14541.0.0","Chrome 130.0.0.0","1536x864","1536x743",NA,NA,0,"BIQ-A",3,"EFDGCHBA","Passed AC2","","spreadsheet","Spreadsheet1","Spreadsheet1",1,"BIQ","Screen 1","9dh6eq",1,"continue","",45188.692,45178.392,45188.692,45188.692,45178.392,45188.692,1,45188.692,0,0,NA,"Click To Continue","Continue Button",23,"object-48","BIQ",NA,"SUPSCO36211"
"3",1732548852175,"25/11/2024 15:34:12",1732548852175,0,"25/11/2024 15:34:12",177048,9,"task-vy7n",NA,41598216,12140738,NA,"complete",NA,NA,"computer","Desktop or Laptop","Chromium OS 14541.0.0","Chrome 130.0.0.0","1536x864","1536x743",NA,NA,0,"BIQ-A",3,"EFDGCHBA","Passed AC2","","spreadsheet","Spreadsheet1","Spreadsheet1",1,"BIQ","Screen 1","9dh6eq",1,"response","3",9291.092,45178.392,45195.092,9291.092,45178.392,45195.092,1,9291.092,35904,0,NA,"Rating Scale","Rating Scale",3,"object-5","BIQ",NA,"SUPSCO36211"
"4",1732548852181,"25/11/2024 15:34:12",1732548852181,0,"25/11/2024 15:34:12",177048,9,"task-vy7n",NA,41598216,12140738,NA,"complete",NA,NA,"computer","Desktop or Laptop","Chromium OS 14541.0.0","Chrome 130.0.0.0","1536x864","1536x743",NA,NA,0,"BIQ-A",3,"EFDGCHBA","Passed AC2","","spreadsheet","Spreadsheet1","Spreadsheet1",1,"BIQ","Screen 1","9dh6eq",1,"response","0",29624.492,45178.392,45195.092,29624.492,45178.392,45195.092,1,29624.492,15570.6,0,NA,"Rating Scale","Rating Scale",10,"object-18","BIQ",NA,"SUPSCO36211"
"5",1732548852182,"25/11/2024 15:34:12",1732548852182,0,"25/11/2024 15:34:12",177048,9,"task-vy7n",NA,41598216,12140738,NA,"complete",NA,NA,"computer","Desktop or Laptop","Chromium OS 14541.0.0","Chrome 130.0.0.0","1536x864","1536x743",NA,NA,0,"BIQ-A",3,"EFDGCHBA","Passed AC2","","spreadsheet","Spreadsheet1","Spreadsheet1",1,"BIQ","Screen 1","9dh6eq",1,"response","6",40848.692,45178.392,45195.092,40848.692,45178.392,45195.092,1,40848.692,4346.40000000001,0,NA,"Rating Scale","Rating Scale",17,"object-80","BIQ",NA,"SUPSCO36211"
"6",1732548881474,"25/11/2024 15:34:41",1732548881474,0,"25/11/2024 15:34:41",177048,9,"task-vy7n",NA,41598216,12140738,NA,"complete",NA,NA,"computer","Desktop or Laptop","Chromium OS 14541.0.0","Chrome 130.0.0.0","1536x864","1536x743",NA,NA,0,"BIQ-A",3,"EFDGCHBA","Passed AC2","","spreadsheet","Spreadsheet1","Spreadsheet1",1,"BIQ","Screen 2","o21mwi",2,"continue","",29335.5,29326,29335.5,29335.5,29326,29335.5,1,29335.5,0,0,NA,"Click To Continue","Continue Button",22,"object-50","BIQ",NA,"SUPSCO36211"
"7",1732548881483,"25/11/2024 15:34:41",1732548881483,0,"25/11/2024 15:34:41",177048,9,"task-vy7n",NA,41598216,12140738,NA,"complete",NA,NA,"computer","Desktop or Laptop","Chromium OS 14541.0.0","Chrome 130.0.0.0","1536x864","1536x743",NA,NA,0,"BIQ-A",3,"EFDGCHBA","Passed AC2","","spreadsheet","Spreadsheet1","Spreadsheet1",1,"BIQ","Screen 2","o21mwi",2,"response","4",4812.6,29326,29342.7,4812.6,29326,29342.7,1,4812.6,24530.1,0,NA,"Rating Scale","Rating Scale",2,"object-259","BIQ",NA,"SUPSCO36211"
"8",1732548881484,"25/11/2024 15:34:41",1732548881484,0,"25/11/2024 15:34:41",177048,9,"task-vy7n",NA,41598216,12140738,NA,"complete",NA,NA,"computer","Desktop or Laptop","Chromium OS 14541.0.0","Chrome 130.0.0.0","1536x864","1536x743",NA,NA,0,"BIQ-A",3,"EFDGCHBA","Passed AC2","","spreadsheet","Spreadsheet1","Spreadsheet1",1,"BIQ","Screen 2","o21mwi",2,"response","5",8126.6,29326,29342.7,8126.6,29326,29342.7,1,8126.6,21216.1,0,NA,"Rating Scale","Rating Scale",9,"object-36","BIQ",NA,"SUPSCO36211"
"9",1732548881486,"25/11/2024 15:34:41",1732548881486,0,"25/11/2024 15:34:41",177048,9,"task-vy7n",NA,41598216,12140738,NA,"complete",NA,NA,"computer","Desktop or Laptop","Chromium OS 14541.0.0","Chrome 130.0.0.0","1536x864","1536x743",NA,NA,0,"BIQ-A",3,"EFDGCHBA","Passed AC2","","spreadsheet","Spreadsheet1","Spreadsheet1",1,"BIQ","Screen 2","o21mwi",2,"response","5",18218.2,29326,29342.7,18218.2,29326,29342.7,1,18218.2,11124.5,0,NA,"Rating Scale","Rating Scale",16,"object-86","BIQ",NA,"SUPSCO36211"
"10",1732548907724,"25/11/2024 15:35:07",1732548907724,0,"25/11/2024 15:35:07",177048,9,"task-vy7n",NA,41598216,12140738,NA,"complete",NA,NA,"computer","Desktop or Laptop","Chromium OS 14541.0.0","Chrome 130.0.0.0","1536x864","1536x743",NA,NA,0,"BIQ-A",3,"EFDGCHBA","Passed AC2","","spreadsheet","Spreadsheet1","Spreadsheet1",1,"BIQ","Screen 3","iz3the",3,"continue","",26260.1,26245.1,26260.1,26260.1,26245.1,26260.1,1,26260.1,0,0,NA,"Click To Continue","Continue Button",22,"object-73","BIQ",NA,"SUPSCO36211"
"11",1732548907733,"25/11/2024 15:35:07",1732548907733,0,"25/11/2024 15:35:07",177048,9,"task-vy7n",NA,41598216,12140738,NA,"complete",NA,NA,"computer","Desktop or Laptop","Chromium OS 14541.0.0","Chrome 130.0.0.0","1536x864","1536x743",NA,NA,0,"BIQ-A",3,"EFDGCHBA","Passed AC2","","spreadsheet","Spreadsheet1","Spreadsheet1",1,"BIQ","Screen 3","iz3the",3,"response","1",3996.59999999999,26245.1,26261.7,3996.59999999999,26245.1,26261.7,1,3996.59999999999,22265.1,0,NA,"Rating Scale","Rating Scale",2,"object-53","BIQ",NA,"SUPSCO36211"
"12",1732548907736,"25/11/2024 15:35:07",1732548907736,0,"25/11/2024 15:35:07",177048,9,"task-vy7n",NA,41598216,12140738,NA,"complete",NA,NA,"computer","Desktop or Laptop","Chromium OS 14541.0.0","Chrome 130.0.0.0","1536x864","1536x743",NA,NA,0,"BIQ-A",3,"EFDGCHBA","Passed AC2","","spreadsheet","Spreadsheet1","Spreadsheet1",1,"BIQ","Screen 3","iz3the",3,"response","1",16436.5,26245.1,26261.7,16436.5,26245.1,26261.7,1,16436.5,9825.19999999998,0,NA,"Rating Scale","Rating Scale",9,"object-60","BIQ",NA,"SUPSCO36211"
"13",1732548907739,"25/11/2024 15:35:07",1732548907739,0,"25/11/2024 15:35:07",177048,9,"task-vy7n",NA,41598216,12140738,NA,"complete",NA,NA,"computer","Desktop or Laptop","Chromium OS 14541.0.0","Chrome 130.0.0.0","1536x864","1536x743",NA,NA,0,"BIQ-A",3,"EFDGCHBA","Passed AC2","","spreadsheet","Spreadsheet1","Spreadsheet1",1,"BIQ","Screen 3","iz3the",3,"response","5",21998.6,26245.1,26261.7,21998.6,26245.1,26261.7,1,21998.6,4263.09999999999,0,NA,"Rating Scale","Rating Scale",16,"object-67","BIQ",NA,"SUPSCO36211"
"14",1732548907745,"25/11/2024 15:35:07",1732548907745,0,"25/11/2024 15:35:07",177048,9,"task-vy7n",NA,41598216,12140738,NA,"complete",NA,NA,"computer","Desktop or Laptop","Chromium OS 14541.0.0","Chrome 130.0.0.0","1536x864","1536x743",NA,NA,0,"BIQ-A",3,"EFDGCHBA","Passed AC2","","spreadsheet","Spreadsheet1","Spreadsheet1",NA,"","","",NA,"info","END",NA,NA,100596,NA,NA,NA,0,NA,NA,NA,NA,"","",NA,"","",NA,"SUPSCO36211"
