"Event.Index","UTC.Timestamp","UTC.Date.and.Time","Local.Timestamp","Local.Timezone","Local.Date.and.Time","Experiment.ID","Experiment.Version","Tree.Node.Key","Repeat.Key","Schedule.ID","Participant.Private.ID","Participant.Starting.Group","Participant.Status","Participant.Completion.Code","Participant.External.Session.ID","Participant.Device.Type","Participant.Device","Participant.OS","Participant.Browser","Participant.Monitor.Size","Participant.Viewport.Size","Checkpoint","Room.ID","Room.Order","Task.Name","Task.Version","branch.hkzp","order.ot79","randomiser.lqqr","randomiser.28m8","randomiser.tf5j","branch.vlgf","Spreadsheet","Current.Spreadsheet","Trial.Number","Display","Screen","Screen.ID","Screen.Counter","Response.Type","Response","Onset.Time","Clock.Time","Reaction.Time","Absolute.Onset.Time","Absolute.Clock.Time","Absolute.Reaction.Time","Correct","Response.Onset","Response.Duration","Proportion","Tag","Component.Name","Object.Name","Object.Number","Object.ID","Spreadsheet..display","Spreadsheet..stimulus","Spreadsheet..P","Spreadsheet..N","Manipulation..Spreadsheet","Random_ID"
"1",1691496711940,"08/08/2023 12:11:51",1691500311940,1,"08/08/2023 14:11:51",139282,42,"task-f6fg",NA,31101323,9218851,NA,"complete",NA,NA,"computer","Desktop or Laptop","Windows 10","Chrome 115.0.0.0","1923x942","1920x941",NA,NA,NA,"Video Feedback Task (Clone)",6,"In","EFDGCHBIAJ",NA,"study_2 (video_feedback and feedback_list_2)","Feedback_ranking_L2_first","In",1,1,NA,"","","",NA,"5","BEGIN",NA,NA,NA,NA,NA,NA,0,NA,NA,NA,NA,"","",NA,"","","","","",NA,"SUPTM81666"
"2",1691496750689,"08/08/2023 12:12:30",1691500350689,1,"08/08/2023 14:12:30",139282,42,"task-f6fg",NA,31101323,9218851,NA,"complete",NA,NA,"computer","Desktop or Laptop","Windows 10","Chrome 115.0.0.0","1923x942","1920x941",NA,NA,NA,"Video Feedback Task (Clone)",6,"In","EFDGCHBIAJ",NA,"study_2 (video_feedback and feedback_list_2)","Feedback_ranking_L2_first","In",1,1,1,"Neutral Feedback","Screen 1","3zrml3",1,"continue","",38426,38422,38426,38426,38422,38426,1,38426,0,0,NA,"Click To Continue","Continue Button",1,"object-155","Neutral Feedback","P2_N.mp4","Screenshot 2023-06-30 at 15.00.42.png","Screenshot 2023-06-30 at 15.00.55.png",NA,"SUPTM81666"
"3",1691496750691,"08/08/2023 12:12:30",1691500350691,1,"08/08/2023 14:12:30",139282,42,"task-f6fg",NA,31101323,9218851,NA,"complete",NA,NA,"computer","Desktop or Laptop","Windows 10","Chrome 115.0.0.0","1923x942","1920x941",NA,NA,NA,"Video Feedback Task (Clone)",6,"In","EFDGCHBIAJ",NA,"study_2 (video_feedback and feedback_list_2)","Feedback_ranking_L2_first","In",1,1,1,"Neutral Feedback","Screen 1","3zrml3",1,"response","Described the setting more in depth and targetted each point in detail.",19100,38422,38427,19100,38422,38427,1,19100,19327,0,NA,"Text Entry","Text Entry",4,"object-158","Neutral Feedback","P2_N.mp4","Screenshot 2023-06-30 at 15.00.42.png","Screenshot 2023-06-30 at 15.00.55.png",NA,"SUPTM81666"
"4",1691496750691,"08/08/2023 12:12:30",1691500350691,1,"08/08/2023 14:12:30",139282,42,"task-f6fg",NA,31101323,9218851,NA,"complete",NA,NA,"computer","Desktop or Laptop","Windows 10","Chrome 115.0.0.0","1923x942","1920x941",NA,NA,NA,"Video Feedback Task (Clone)",6,"In","EFDGCHBIAJ",NA,"study_2 (video_feedback and feedback_list_2)","Feedback_ranking_L2_first","In",1,1,1,"Neutral Feedback","Screen 1","3zrml3",1,"response","Gave pointers about where in the picture each item is.",9952,38422,38428,9952,38422,38428,1,9952,28476,0,NA,"Text Entry","Text Entry",5,"object-159","Neutral Feedback","P2_N.mp4","Screenshot 2023-06-30 at 15.00.42.png","Screenshot 2023-06-30 at 15.00.55.png",NA,"SUPTM81666"
"5",1691496751665,"08/08/2023 12:12:31",1691500351665,1,"08/08/2023 14:12:31",139282,42,"task-f6fg",NA,31101323,9218851,NA,"complete",NA,NA,"computer","Desktop or Laptop","Windows 10","Chrome 115.0.0.0","1923x942","1920x941",NA,NA,NA,"Video Feedback Task (Clone)",6,"In","EFDGCHBIAJ",NA,"study_2 (video_feedback and feedback_list_2)","Feedback_ranking_L2_first","In",1,1,1,"Neutral Feedback","Screen 2","vv4mhq",2,"continue","",979,979,979,979,979,979,1,979,0,0,NA,"Fixation Timing","Fixation",1,"object-153","Neutral Feedback","P2_N.mp4","Screenshot 2023-06-30 at 15.00.42.png","Screenshot 2023-06-30 at 15.00.55.png",NA,"SUPTM81666"
"6",1691496797894,"08/08/2023 12:13:17",1691500397894,1,"08/08/2023 14:13:17",139282,42,"task-f6fg",NA,31101323,9218851,NA,"complete",NA,NA,"computer","Desktop or Laptop","Windows 10","Chrome 115.0.0.0","1923x942","1920x941",NA,NA,NA,"Video Feedback Task (Clone)",6,"In","EFDGCHBIAJ",NA,"study_2 (video_feedback and feedback_list_2)","Feedback_ranking_L2_first","In",1,1,1,"Positive Feedback","Video","w2ir4b",1,"continue","",46229,46222,46229,46229,46222,46229,1,46229,0,0,NA,"Click To Continue","Continue Button",1,"object-14","Positive Feedback","P5_P.mp4","Screenshot 2023-06-30 at 15.01.08.png","Screenshot 2023-06-30 at 15.00.55.png",NA,"SUPTM81666"
"7",1691496797895,"08/08/2023 12:13:17",1691500397895,1,"08/08/2023 14:13:17",139282,42,"task-f6fg",NA,31101323,9218851,NA,"complete",NA,NA,"computer","Desktop or Laptop","Windows 10","Chrome 115.0.0.0","1923x942","1920x941",NA,NA,NA,"Video Feedback Task (Clone)",6,"In","EFDGCHBIAJ",NA,"study_2 (video_feedback and feedback_list_2)","Feedback_ranking_L2_first","In",1,1,1,"Positive Feedback","Video","w2ir4b",1,"response","Lots of detail given which was not present in previous explanations.",32484,46222,46229,32484,46222,46229,1,32484,13745,0,NA,"Text Entry","Text Entry",4,"object-19","Positive Feedback","P5_P.mp4","Screenshot 2023-06-30 at 15.01.08.png","Screenshot 2023-06-30 at 15.00.55.png",NA,"SUPTM81666"
"8",1691496797896,"08/08/2023 12:13:17",1691500397896,1,"08/08/2023 14:13:17",139282,42,"task-f6fg",NA,31101323,9218851,NA,"complete",NA,NA,"computer","Desktop or Laptop","Windows 10","Chrome 115.0.0.0","1923x942","1920x941",NA,NA,NA,"Video Feedback Task (Clone)",6,"In","EFDGCHBIAJ",NA,"study_2 (video_feedback and feedback_list_2)","Feedback_ranking_L2_first","In",1,1,1,"Positive Feedback","Video","w2ir4b",1,"response","Alot more depth and imagination can be easily achieved.",12509,46222,46229,12509,46222,46229,1,12509,33720,0,NA,"Text Entry","Text Entry",5,"object-20","Positive Feedback","P5_P.mp4","Screenshot 2023-06-30 at 15.01.08.png","Screenshot 2023-06-30 at 15.00.55.png",NA,"SUPTM81666"
"9",1691496798866,"08/08/2023 12:13:18",1691500398866,1,"08/08/2023 14:13:18",139282,42,"task-f6fg",NA,31101323,9218851,NA,"complete",NA,NA,"computer","Desktop or Laptop","Windows 10","Chrome 115.0.0.0","1923x942","1920x941",NA,NA,NA,"Video Feedback Task (Clone)",6,"In","EFDGCHBIAJ",NA,"study_2 (video_feedback and feedback_list_2)","Feedback_ranking_L2_first","In",1,1,1,"Positive Feedback","Fixation","mtm832",2,"continue","",980,980,980,980,980,980,1,980,0,0,NA,"Fixation Timing","Fixation",1,"object-65","Positive Feedback","P5_P.mp4","Screenshot 2023-06-30 at 15.01.08.png","Screenshot 2023-06-30 at 15.00.55.png",NA,"SUPTM81666"
"10",1691496843964,"08/08/2023 12:14:03",1691500443964,1,"08/08/2023 14:14:03",139282,42,"task-f6fg",NA,31101323,9218851,NA,"complete",NA,NA,"computer","Desktop or Laptop","Windows 10","Chrome 115.0.0.0","1923x942","1920x941",NA,NA,NA,"Video Feedback Task (Clone)",6,"In","EFDGCHBIAJ",NA,"study_2 (video_feedback and feedback_list_2)","Feedback_ranking_L2_first","In",1,1,2,"Positive Feedback","Video","w2ir4b",1,"continue","",45098,45097,45098,45098,45097,45098,1,45098,0,0,NA,"Click To Continue","Continue Button",1,"object-14","Positive Feedback","P2_P.mp4","Screenshot 2023-06-30 at 15.01.08.png","Screenshot 2023-06-30 at 15.02.01.png",NA,"SUPTM81666"
"11",1691496843965,"08/08/2023 12:14:03",1691500443965,1,"08/08/2023 14:14:03",139282,42,"task-f6fg",NA,31101323,9218851,NA,"complete",NA,NA,"computer","Desktop or Laptop","Windows 10","Chrome 115.0.0.0","1923x942","1920x941",NA,NA,NA,"Video Feedback Task (Clone)",6,"In","EFDGCHBIAJ",NA,"study_2 (video_feedback and feedback_list_2)","Feedback_ranking_L2_first","In",1,1,2,"Positive Feedback","Video","w2ir4b",1,"response","Gave ideas that were going through their head, creates more imaginative response.",32734,45097,45099,32734,45097,45099,1,32734,12365,0,NA,"Text Entry","Text Entry",4,"object-19","Positive Feedback","P2_P.mp4","Screenshot 2023-06-30 at 15.01.08.png","Screenshot 2023-06-30 at 15.02.01.png",NA,"SUPTM81666"
"12",1691496843966,"08/08/2023 12:14:03",1691500443966,1,"08/08/2023 14:14:03",139282,42,"task-f6fg",NA,31101323,9218851,NA,"complete",NA,NA,"computer","Desktop or Laptop","Windows 10","Chrome 115.0.0.0","1923x942","1920x941",NA,NA,NA,"Video Feedback Task (Clone)",6,"In","EFDGCHBIAJ",NA,"study_2 (video_feedback and feedback_list_2)","Feedback_ranking_L2_first","In",1,1,2,"Positive Feedback","Video","w2ir4b",1,"response","Described the situation well and gave interpretations of what could be happening.",9446,45097,45099,9446,45097,45099,1,9446,35653,0,NA,"Text Entry","Text Entry",5,"object-20","Positive Feedback","P2_P.mp4","Screenshot 2023-06-30 at 15.01.08.png","Screenshot 2023-06-30 at 15.02.01.png",NA,"SUPTM81666"
"13",1691496844942,"08/08/2023 12:14:04",1691500444942,1,"08/08/2023 14:14:04",139282,42,"task-f6fg",NA,31101323,9218851,NA,"complete",NA,NA,"computer","Desktop or Laptop","Windows 10","Chrome 115.0.0.0","1923x942","1920x941",NA,NA,NA,"Video Feedback Task (Clone)",6,"In","EFDGCHBIAJ",NA,"study_2 (video_feedback and feedback_list_2)","Feedback_ranking_L2_first","In",1,1,2,"Positive Feedback","Fixation","mtm832",2,"continue","",979,979,979,979,979,979,1,979,0,0,NA,"Fixation Timing","Fixation",1,"object-65","Positive Feedback","P2_P.mp4","Screenshot 2023-06-30 at 15.01.08.png","Screenshot 2023-06-30 at 15.02.01.png",NA,"SUPTM81666"
"14",1691496879801,"08/08/2023 12:14:39",1691500479801,1,"08/08/2023 14:14:39",139282,42,"task-f6fg",NA,31101323,9218851,NA,"complete",NA,NA,"computer","Desktop or Laptop","Windows 10","Chrome 115.0.0.0","1923x942","1920x941",NA,NA,NA,"Video Feedback Task (Clone)",6,"In","EFDGCHBIAJ",NA,"study_2 (video_feedback and feedback_list_2)","Feedback_ranking_L2_first","In",1,1,2,"Neutral Feedback","Screen 1","3zrml3",1,"continue","",34859,34852,34859,34859,34852,34859,1,34859,0,0,NA,"Click To Continue","Continue Button",1,"object-155","Neutral Feedback","P3_N.mp4","Screenshot 2023-06-30 at 15.00.42.png","Screenshot 2023-06-30 at 15.00.55.png",NA,"SUPTM81666"
"15",1691496879803,"08/08/2023 12:14:39",1691500479803,1,"08/08/2023 14:14:39",139282,42,"task-f6fg",NA,31101323,9218851,NA,"complete",NA,NA,"computer","Desktop or Laptop","Windows 10","Chrome 115.0.0.0","1923x942","1920x941",NA,NA,NA,"Video Feedback Task (Clone)",6,"In","EFDGCHBIAJ",NA,"study_2 (video_feedback and feedback_list_2)","Feedback_ranking_L2_first","In",1,1,2,"Neutral Feedback","Screen 1","3zrml3",1,"response","Talked about different things and not just one.",28636,34852,34859,28636,34852,34859,1,28636,6223,0,NA,"Text Entry","Text Entry",4,"object-158","Neutral Feedback","P3_N.mp4","Screenshot 2023-06-30 at 15.00.42.png","Screenshot 2023-06-30 at 15.00.55.png",NA,"SUPTM81666"
"16",1691496879804,"08/08/2023 12:14:39",1691500479804,1,"08/08/2023 14:14:39",139282,42,"task-f6fg",NA,31101323,9218851,NA,"complete",NA,NA,"computer","Desktop or Laptop","Windows 10","Chrome 115.0.0.0","1923x942","1920x941",NA,NA,NA,"Video Feedback Task (Clone)",6,"In","EFDGCHBIAJ",NA,"study_2 (video_feedback and feedback_list_2)","Feedback_ranking_L2_first","In",1,1,2,"Neutral Feedback","Screen 1","3zrml3",1,"response","They did OK, described the setting in brief description.",5466,34852,34859,5466,34852,34859,1,5466,29393,0,NA,"Text Entry","Text Entry",5,"object-159","Neutral Feedback","P3_N.mp4","Screenshot 2023-06-30 at 15.00.42.png","Screenshot 2023-06-30 at 15.00.55.png",NA,"SUPTM81666"
"17",1691496880774,"08/08/2023 12:14:40",1691500480774,1,"08/08/2023 14:14:40",139282,42,"task-f6fg",NA,31101323,9218851,NA,"complete",NA,NA,"computer","Desktop or Laptop","Windows 10","Chrome 115.0.0.0","1923x942","1920x941",NA,NA,NA,"Video Feedback Task (Clone)",6,"In","EFDGCHBIAJ",NA,"study_2 (video_feedback and feedback_list_2)","Feedback_ranking_L2_first","In",1,1,2,"Neutral Feedback","Screen 2","vv4mhq",2,"continue","",980,980,980,980,980,980,1,980,0,0,NA,"Fixation Timing","Fixation",1,"object-153","Neutral Feedback","P3_N.mp4","Screenshot 2023-06-30 at 15.00.42.png","Screenshot 2023-06-30 at 15.00.55.png",NA,"SUPTM81666"
"18",1691496917791,"08/08/2023 12:15:17",1691500517791,1,"08/08/2023 14:15:17",139282,42,"task-f6fg",NA,31101323,9218851,NA,"complete",NA,NA,"computer","Desktop or Laptop","Windows 10","Chrome 115.0.0.0","1923x942","1920x941",NA,NA,NA,"Video Feedback Task (Clone)",6,"In","EFDGCHBIAJ",NA,"study_2 (video_feedback and feedback_list_2)","Feedback_ranking_L2_first","In",1,1,3,"Positive Feedback","Video","w2ir4b",1,"continue","",37017,37012,37017,37017,37012,37017,1,37017,0,0,NA,"Click To Continue","Continue Button",1,"object-14","Positive Feedback","P1_P.mp4","Screenshot 2023-06-30 at 15.01.08.png","Screenshot 2023-06-30 at 15.02.01.png",NA,"SUPTM81666"
"19",1691496917793,"08/08/2023 12:15:17",1691500517793,1,"08/08/2023 14:15:17",139282,42,"task-f6fg",NA,31101323,9218851,NA,"complete",NA,NA,"computer","Desktop or Laptop","Windows 10","Chrome 115.0.0.0","1923x942","1920x941",NA,NA,NA,"Video Feedback Task (Clone)",6,"In","EFDGCHBIAJ",NA,"study_2 (video_feedback and feedback_list_2)","Feedback_ranking_L2_first","In",1,1,3,"Positive Feedback","Video","w2ir4b",1,"response","Colour was talked about here, much more positive.",23767,37012,37018,23767,37012,37018,1,23767,13251,0,NA,"Text Entry","Text Entry",4,"object-19","Positive Feedback","P1_P.mp4","Screenshot 2023-06-30 at 15.01.08.png","Screenshot 2023-06-30 at 15.02.01.png",NA,"SUPTM81666"
"20",1691496917793,"08/08/2023 12:15:17",1691500517793,1,"08/08/2023 14:15:17",139282,42,"task-f6fg",NA,31101323,9218851,NA,"complete",NA,NA,"computer","Desktop or Laptop","Windows 10","Chrome 115.0.0.0","1923x942","1920x941",NA,NA,NA,"Video Feedback Task (Clone)",6,"In","EFDGCHBIAJ",NA,"study_2 (video_feedback and feedback_list_2)","Feedback_ranking_L2_first","In",1,1,3,"Positive Feedback","Video","w2ir4b",1,"response","More detail given instead of 'many people', a number was given.",7334,37012,37018,7334,37012,37018,1,7334,29684,0,NA,"Text Entry","Text Entry",5,"object-20","Positive Feedback","P1_P.mp4","Screenshot 2023-06-30 at 15.01.08.png","Screenshot 2023-06-30 at 15.02.01.png",NA,"SUPTM81666"
"21",1691496918766,"08/08/2023 12:15:18",1691500518766,1,"08/08/2023 14:15:18",139282,42,"task-f6fg",NA,31101323,9218851,NA,"complete",NA,NA,"computer","Desktop or Laptop","Windows 10","Chrome 115.0.0.0","1923x942","1920x941",NA,NA,NA,"Video Feedback Task (Clone)",6,"In","EFDGCHBIAJ",NA,"study_2 (video_feedback and feedback_list_2)","Feedback_ranking_L2_first","In",1,1,3,"Positive Feedback","Fixation","mtm832",2,"continue","",979,979,979,979,979,979,1,979,0,0,NA,"Fixation Timing","Fixation",1,"object-65","Positive Feedback","P1_P.mp4","Screenshot 2023-06-30 at 15.01.08.png","Screenshot 2023-06-30 at 15.02.01.png",NA,"SUPTM81666"
"22",1691496961368,"08/08/2023 12:16:01",1691500561368,1,"08/08/2023 14:16:01",139282,42,"task-f6fg",NA,31101323,9218851,NA,"complete",NA,NA,"computer","Desktop or Laptop","Windows 10","Chrome 115.0.0.0","1923x942","1920x941",NA,NA,NA,"Video Feedback Task (Clone)",6,"In","EFDGCHBIAJ",NA,"study_2 (video_feedback and feedback_list_2)","Feedback_ranking_L2_first","In",1,1,3,"Neutral Feedback","Screen 1","3zrml3",1,"continue","",42603,42597,42603,42603,42597,42603,1,42603,0,0,NA,"Click To Continue","Continue Button",1,"object-155","Neutral Feedback","P4_N.mp4","Screenshot 2023-06-30 at 15.01.08.png","Screenshot 2023-06-30 at 15.02.01.png",NA,"SUPTM81666"
"23",1691496961370,"08/08/2023 12:16:01",1691500561370,1,"08/08/2023 14:16:01",139282,42,"task-f6fg",NA,31101323,9218851,NA,"complete",NA,NA,"computer","Desktop or Laptop","Windows 10","Chrome 115.0.0.0","1923x942","1920x941",NA,NA,NA,"Video Feedback Task (Clone)",6,"In","EFDGCHBIAJ",NA,"study_2 (video_feedback and feedback_list_2)","Feedback_ranking_L2_first","In",1,1,3,"Neutral Feedback","Screen 1","3zrml3",1,"response","Described what they were wearing, and a brief description of the setting though not alot.",28324,42597,42604,28324,42597,42604,1,28324,14280,0,NA,"Text Entry","Text Entry",4,"object-158","Neutral Feedback","P4_N.mp4","Screenshot 2023-06-30 at 15.01.08.png","Screenshot 2023-06-30 at 15.02.01.png",NA,"SUPTM81666"
"24",1691496961371,"08/08/2023 12:16:01",1691500561371,1,"08/08/2023 14:16:01",139282,42,"task-f6fg",NA,31101323,9218851,NA,"complete",NA,NA,"computer","Desktop or Laptop","Windows 10","Chrome 115.0.0.0","1923x942","1920x941",NA,NA,NA,"Video Feedback Task (Clone)",6,"In","EFDGCHBIAJ",NA,"study_2 (video_feedback and feedback_list_2)","Feedback_ranking_L2_first","In",1,1,3,"Neutral Feedback","Screen 1","3zrml3",1,"response","Described who was in the picture.",19330,42597,42604,19330,42597,42604,1,19330,23274,0,NA,"Text Entry","Text Entry",5,"object-159","Neutral Feedback","P4_N.mp4","Screenshot 2023-06-30 at 15.01.08.png","Screenshot 2023-06-30 at 15.02.01.png",NA,"SUPTM81666"
"25",1691496962342,"08/08/2023 12:16:02",1691500562342,1,"08/08/2023 14:16:02",139282,42,"task-f6fg",NA,31101323,9218851,NA,"complete",NA,NA,"computer","Desktop or Laptop","Windows 10","Chrome 115.0.0.0","1923x942","1920x941",NA,NA,NA,"Video Feedback Task (Clone)",6,"In","EFDGCHBIAJ",NA,"study_2 (video_feedback and feedback_list_2)","Feedback_ranking_L2_first","In",1,1,3,"Neutral Feedback","Screen 2","vv4mhq",2,"continue","",979,979,979,979,979,979,1,979,0,0,NA,"Fixation Timing","Fixation",1,"object-153","Neutral Feedback","P4_N.mp4","Screenshot 2023-06-30 at 15.01.08.png","Screenshot 2023-06-30 at 15.02.01.png",NA,"SUPTM81666"
"26",1691496991224,"08/08/2023 12:16:31",1691500591224,1,"08/08/2023 14:16:31",139282,42,"task-f6fg",NA,31101323,9218851,NA,"complete",NA,NA,"computer","Desktop or Laptop","Windows 10","Chrome 115.0.0.0","1923x942","1920x941",NA,NA,NA,"Video Feedback Task (Clone)",6,"In","EFDGCHBIAJ",NA,"study_2 (video_feedback and feedback_list_2)","Feedback_ranking_L2_first","In",1,1,4,"Positive Feedback","Video","w2ir4b",1,"continue","",28883,28880,28883,28883,28880,28883,1,28883,0,0,NA,"Click To Continue","Continue Button",1,"object-14","Positive Feedback","P3_P.mp4","Screenshot 2023-06-30 at 15.00.42.png","Screenshot 2023-06-30 at 15.00.55.png",NA,"SUPTM81666"
"27",1691496991226,"08/08/2023 12:16:31",1691500591226,1,"08/08/2023 14:16:31",139282,42,"task-f6fg",NA,31101323,9218851,NA,"complete",NA,NA,"computer","Desktop or Laptop","Windows 10","Chrome 115.0.0.0","1923x942","1920x941",NA,NA,NA,"Video Feedback Task (Clone)",6,"In","EFDGCHBIAJ",NA,"study_2 (video_feedback and feedback_list_2)","Feedback_ranking_L2_first","In",1,1,4,"Positive Feedback","Video","w2ir4b",1,"response","Gave their own opinion on the picture.",18093,28880,28886,18093,28880,28886,1,18093,10793,0,NA,"Text Entry","Text Entry",4,"object-19","Positive Feedback","P3_P.mp4","Screenshot 2023-06-30 at 15.00.42.png","Screenshot 2023-06-30 at 15.00.55.png",NA,"SUPTM81666"
"28",1691496991227,"08/08/2023 12:16:31",1691500591227,1,"08/08/2023 14:16:31",139282,42,"task-f6fg",NA,31101323,9218851,NA,"complete",NA,NA,"computer","Desktop or Laptop","Windows 10","Chrome 115.0.0.0","1923x942","1920x941",NA,NA,NA,"Video Feedback Task (Clone)",6,"In","EFDGCHBIAJ",NA,"study_2 (video_feedback and feedback_list_2)","Feedback_ranking_L2_first","In",1,1,4,"Positive Feedback","Video","w2ir4b",1,"response","Lots more imagination and creativity in the response.",6800,28880,28886,6800,28880,28886,1,6800,22086,0,NA,"Text Entry","Text Entry",5,"object-20","Positive Feedback","P3_P.mp4","Screenshot 2023-06-30 at 15.00.42.png","Screenshot 2023-06-30 at 15.00.55.png",NA,"SUPTM81666"
"29",1691496992200,"08/08/2023 12:16:32",1691500592200,1,"08/08/2023 14:16:32",139282,42,"task-f6fg",NA,31101323,9218851,NA,"complete",NA,NA,"computer","Desktop or Laptop","Windows 10","Chrome 115.0.0.0","1923x942","1920x941",NA,NA,NA,"Video Feedback Task (Clone)",6,"In","EFDGCHBIAJ",NA,"study_2 (video_feedback and feedback_list_2)","Feedback_ranking_L2_first","In",1,1,4,"Positive Feedback","Fixation","mtm832",2,"continue","",979,979,979,979,979,979,1,979,0,0,NA,"Fixation Timing","Fixation",1,"object-65","Positive Feedback","P3_P.mp4","Screenshot 2023-06-30 at 15.00.42.png","Screenshot 2023-06-30 at 15.00.55.png",NA,"SUPTM81666"
"30",1691497028453,"08/08/2023 12:17:08",1691500628453,1,"08/08/2023 14:17:08",139282,42,"task-f6fg",NA,31101323,9218851,NA,"complete",NA,NA,"computer","Desktop or Laptop","Windows 10","Chrome 115.0.0.0","1923x942","1920x941",NA,NA,NA,"Video Feedback Task (Clone)",6,"In","EFDGCHBIAJ",NA,"study_2 (video_feedback and feedback_list_2)","Feedback_ranking_L2_first","In",1,1,4,"Neutral Feedback","Screen 1","3zrml3",1,"continue","",36252,36248,36252,36252,36248,36252,1,36252,0,0,NA,"Click To Continue","Continue Button",1,"object-155","Neutral Feedback","P5_N.mp4","Screenshot 2023-06-30 at 15.01.08.png","Screenshot 2023-06-30 at 15.02.01.png",NA,"SUPTM81666"
"31",1691497028454,"08/08/2023 12:17:08",1691500628454,1,"08/08/2023 14:17:08",139282,42,"task-f6fg",NA,31101323,9218851,NA,"complete",NA,NA,"computer","Desktop or Laptop","Windows 10","Chrome 115.0.0.0","1923x942","1920x941",NA,NA,NA,"Video Feedback Task (Clone)",6,"In","EFDGCHBIAJ",NA,"study_2 (video_feedback and feedback_list_2)","Feedback_ranking_L2_first","In",1,1,4,"Neutral Feedback","Screen 1","3zrml3",1,"response","Gave detailed descriptions of what people were doing relatively.",19267,36248,36255,19267,36248,36255,1,19267,16988,0,NA,"Text Entry","Text Entry",4,"object-158","Neutral Feedback","P5_N.mp4","Screenshot 2023-06-30 at 15.01.08.png","Screenshot 2023-06-30 at 15.02.01.png",NA,"SUPTM81666"
"32",1691497028454,"08/08/2023 12:17:08",1691500628454,1,"08/08/2023 14:17:08",139282,42,"task-f6fg",NA,31101323,9218851,NA,"complete",NA,NA,"computer","Desktop or Laptop","Windows 10","Chrome 115.0.0.0","1923x942","1920x941",NA,NA,NA,"Video Feedback Task (Clone)",6,"In","EFDGCHBIAJ",NA,"study_2 (video_feedback and feedback_list_2)","Feedback_ranking_L2_first","In",1,1,4,"Neutral Feedback","Screen 1","3zrml3",1,"response","Described the emotions of the people in the photo.",9633,36248,36255,9633,36248,36255,1,9633,26622,0,NA,"Text Entry","Text Entry",5,"object-159","Neutral Feedback","P5_N.mp4","Screenshot 2023-06-30 at 15.01.08.png","Screenshot 2023-06-30 at 15.02.01.png",NA,"SUPTM81666"
"33",1691497029428,"08/08/2023 12:17:09",1691500629428,1,"08/08/2023 14:17:09",139282,42,"task-f6fg",NA,31101323,9218851,NA,"complete",NA,NA,"computer","Desktop or Laptop","Windows 10","Chrome 115.0.0.0","1923x942","1920x941",NA,NA,NA,"Video Feedback Task (Clone)",6,"In","EFDGCHBIAJ",NA,"study_2 (video_feedback and feedback_list_2)","Feedback_ranking_L2_first","In",1,1,4,"Neutral Feedback","Screen 2","vv4mhq",2,"continue","",980,980,980,980,980,980,1,980,0,0,NA,"Fixation Timing","Fixation",1,"object-153","Neutral Feedback","P5_N.mp4","Screenshot 2023-06-30 at 15.01.08.png","Screenshot 2023-06-30 at 15.02.01.png",NA,"SUPTM81666"
"34",1691497074669,"08/08/2023 12:17:54",1691500674669,1,"08/08/2023 14:17:54",139282,42,"task-f6fg",NA,31101323,9218851,NA,"complete",NA,NA,"computer","Desktop or Laptop","Windows 10","Chrome 115.0.0.0","1923x942","1920x941",NA,NA,NA,"Video Feedback Task (Clone)",6,"In","EFDGCHBIAJ",NA,"study_2 (video_feedback and feedback_list_2)","Feedback_ranking_L2_first","In",1,1,5,"Neutral Feedback","Screen 1","3zrml3",1,"continue","",45241,45235,45241,45241,45235,45241,1,45241,0,0,NA,"Click To Continue","Continue Button",1,"object-155","Neutral Feedback","P1_N.mp4","Screenshot 2023-06-30 at 15.00.42.png","Screenshot 2023-06-30 at 15.00.55.png",NA,"SUPTM81666"
"35",1691497074671,"08/08/2023 12:17:54",1691500674671,1,"08/08/2023 14:17:54",139282,42,"task-f6fg",NA,31101323,9218851,NA,"complete",NA,NA,"computer","Desktop or Laptop","Windows 10","Chrome 115.0.0.0","1923x942","1920x941",NA,NA,NA,"Video Feedback Task (Clone)",6,"In","EFDGCHBIAJ",NA,"study_2 (video_feedback and feedback_list_2)","Feedback_ranking_L2_first","In",1,1,5,"Neutral Feedback","Screen 1","3zrml3",1,"response","Described the amount of people and gave some imagination.",34373,45235,45241,34373,45235,45241,1,34373,10868,0,NA,"Text Entry","Text Entry",4,"object-158","Neutral Feedback","P1_N.mp4","Screenshot 2023-06-30 at 15.00.42.png","Screenshot 2023-06-30 at 15.00.55.png",NA,"SUPTM81666"
"36",1691497074672,"08/08/2023 12:17:54",1691500674672,1,"08/08/2023 14:17:54",139282,42,"task-f6fg",NA,31101323,9218851,NA,"complete",NA,NA,"computer","Desktop or Laptop","Windows 10","Chrome 115.0.0.0","1923x942","1920x941",NA,NA,NA,"Video Feedback Task (Clone)",6,"In","EFDGCHBIAJ",NA,"study_2 (video_feedback and feedback_list_2)","Feedback_ranking_L2_first","In",1,1,5,"Neutral Feedback","Screen 1","3zrml3",1,"response","They were neutral feeling about the photo.",22760,45235,45241,22760,45235,45241,1,22760,22481,0,NA,"Text Entry","Text Entry",5,"object-159","Neutral Feedback","P1_N.mp4","Screenshot 2023-06-30 at 15.00.42.png","Screenshot 2023-06-30 at 15.00.55.png",NA,"SUPTM81666"
"37",1691497075643,"08/08/2023 12:17:55",1691500675643,1,"08/08/2023 14:17:55",139282,42,"task-f6fg",NA,31101323,9218851,NA,"complete",NA,NA,"computer","Desktop or Laptop","Windows 10","Chrome 115.0.0.0","1923x942","1920x941",NA,NA,NA,"Video Feedback Task (Clone)",6,"In","EFDGCHBIAJ",NA,"study_2 (video_feedback and feedback_list_2)","Feedback_ranking_L2_first","In",1,1,5,"Neutral Feedback","Screen 2","vv4mhq",2,"continue","",980,980,980,980,980,980,1,980,0,0,NA,"Fixation Timing","Fixation",1,"object-153","Neutral Feedback","P1_N.mp4","Screenshot 2023-06-30 at 15.00.42.png","Screenshot 2023-06-30 at 15.00.55.png",NA,"SUPTM81666"
"38",1691497107348,"08/08/2023 12:18:27",1691500707348,1,"08/08/2023 14:18:27",139282,42,"task-f6fg",NA,31101323,9218851,NA,"complete",NA,NA,"computer","Desktop or Laptop","Windows 10","Chrome 115.0.0.0","1923x942","1920x941",NA,NA,NA,"Video Feedback Task (Clone)",6,"In","EFDGCHBIAJ",NA,"study_2 (video_feedback and feedback_list_2)","Feedback_ranking_L2_first","In",1,1,5,"Positive Feedback","Video","w2ir4b",1,"continue","",31705,31699,31705,31705,31699,31705,1,31705,0,0,NA,"Click To Continue","Continue Button",1,"object-14","Positive Feedback","P4_P.mp4","Screenshot 2023-06-30 at 15.00.42.png","Screenshot 2023-06-30 at 15.02.01.png",NA,"SUPTM81666"
"39",1691497107350,"08/08/2023 12:18:27",1691500707350,1,"08/08/2023 14:18:27",139282,42,"task-f6fg",NA,31101323,9218851,NA,"complete",NA,NA,"computer","Desktop or Laptop","Windows 10","Chrome 115.0.0.0","1923x942","1920x941",NA,NA,NA,"Video Feedback Task (Clone)",6,"In","EFDGCHBIAJ",NA,"study_2 (video_feedback and feedback_list_2)","Feedback_ranking_L2_first","In",1,1,5,"Positive Feedback","Video","w2ir4b",1,"response","Gave some assumptions and ideas.",25504,31699,31706,25504,31699,31706,1,25504,6202,0,NA,"Text Entry","Text Entry",4,"object-19","Positive Feedback","P4_P.mp4","Screenshot 2023-06-30 at 15.00.42.png","Screenshot 2023-06-30 at 15.02.01.png",NA,"SUPTM81666"
"40",1691497107350,"08/08/2023 12:18:27",1691500707350,1,"08/08/2023 14:18:27",139282,42,"task-f6fg",NA,31101323,9218851,NA,"complete",NA,NA,"computer","Desktop or Laptop","Windows 10","Chrome 115.0.0.0","1923x942","1920x941",NA,NA,NA,"Video Feedback Task (Clone)",6,"In","EFDGCHBIAJ",NA,"study_2 (video_feedback and feedback_list_2)","Feedback_ranking_L2_first","In",1,1,5,"Positive Feedback","Video","w2ir4b",1,"response","Lots of detail, very useful for imagination. Most detailed out of the responses.",11224,31699,31706,11224,31699,31706,1,11224,20482,0,NA,"Text Entry","Text Entry",5,"object-20","Positive Feedback","P4_P.mp4","Screenshot 2023-06-30 at 15.00.42.png","Screenshot 2023-06-30 at 15.02.01.png",NA,"SUPTM81666"
"41",1691497108322,"08/08/2023 12:18:28",1691500708322,1,"08/08/2023 14:18:28",139282,42,"task-f6fg",NA,31101323,9218851,NA,"complete",NA,NA,"computer","Desktop or Laptop","Windows 10","Chrome 115.0.0.0","1923x942","1920x941",NA,NA,NA,"Video Feedback Task (Clone)",6,"In","EFDGCHBIAJ",NA,"study_2 (video_feedback and feedback_list_2)","Feedback_ranking_L2_first","In",1,1,5,"Positive Feedback","Fixation","mtm832",2,"continue","",979,979,979,979,979,979,1,979,0,0,NA,"Fixation Timing","Fixation",1,"object-65","Positive Feedback","P4_P.mp4","Screenshot 2023-06-30 at 15.00.42.png","Screenshot 2023-06-30 at 15.02.01.png",NA,"SUPTM81666"
"42",1691497108324,"08/08/2023 12:18:28",1691500708324,1,"08/08/2023 14:18:28",139282,42,"task-f6fg",NA,31101323,9218851,NA,"complete",NA,NA,"computer","Desktop or Laptop","Windows 10","Chrome 115.0.0.0","1923x942","1920x941",NA,NA,NA,"Video Feedback Task (Clone)",6,"In","EFDGCHBIAJ",NA,"study_2 (video_feedback and feedback_list_2)","Feedback_ranking_L2_first","In",1,1,NA,"","","",NA,"5","END",NA,NA,NA,NA,NA,NA,0,NA,NA,NA,NA,"","",NA,"","","","","",NA,"SUPTM81666"
"1",1691097423841,"03/08/2023 21:17:03",1691101023841,1,"03/08/2023 23:17:03",139282,42,"task-f6fg",NA,31043429,9205048,NA,"complete",NA,NA,"computer","Desktop or Laptop","Windows 10","Chrome 115.0.0.0","1280x720","1280x571",NA,NA,NA,"Video Feedback Task (Clone)",6,"In","JAIBHCGDFE",NA,"study_2 (video_feedback and feedback_list_2)","Feedback_ranking_L2_first","In",1,1,NA,"","","",NA,"5","BEGIN",NA,NA,NA,NA,NA,NA,0,NA,NA,NA,NA,"","",NA,"","","","","",NA,"SUPTM79155"
"2",1691097488778,"03/08/2023 21:18:08",1691101088778,1,"03/08/2023 23:18:08",139282,42,"task-f6fg",NA,31043429,9205048,NA,"complete",NA,NA,"computer","Desktop or Laptop","Windows 10","Chrome 115.0.0.0","1280x720","1280x571",NA,NA,NA,"Video Feedback Task (Clone)",6,"In","JAIBHCGDFE",NA,"study_2 (video_feedback and feedback_list_2)","Feedback_ranking_L2_first","In",1,1,1,"Neutral Feedback","Screen 1","3zrml3",1,"continue","",63023.041000006,63008.949,63023.041000006,63023.041000006,63008.949,63023.041000006,1,63023.041000006,0,0,NA,"Click To Continue","Continue Button",1,"object-155","Neutral Feedback","P2_N.mp4","Screenshot 2023-06-30 at 15.00.42.png","Screenshot 2023-06-30 at 15.00.55.png",NA,"SUPTM79155"
"3",1691097488780,"03/08/2023 21:18:08",1691101088780,1,"03/08/2023 23:18:08",139282,42,"task-f6fg",NA,31043429,9205048,NA,"complete",NA,NA,"computer","Desktop or Laptop","Windows 10","Chrome 115.0.0.0","1280x720","1280x571",NA,NA,NA,"Video Feedback Task (Clone)",6,"In","JAIBHCGDFE",NA,"study_2 (video_feedback and feedback_list_2)","Feedback_ranking_L2_first","In",1,1,1,"Neutral Feedback","Screen 1","3zrml3",1,"response","You sound like you're mumbling",52343.642,63008.949,63025.341000003,52343.642,63008.949,63025.341000003,1,52343.642,10681.699000003,0,NA,"Text Entry","Text Entry",4,"object-158","Neutral Feedback","P2_N.mp4","Screenshot 2023-06-30 at 15.00.42.png","Screenshot 2023-06-30 at 15.00.55.png",NA,"SUPTM79155"
"4",1691097488780,"03/08/2023 21:18:08",1691101088780,1,"03/08/2023 23:18:08",139282,42,"task-f6fg",NA,31043429,9205048,NA,"complete",NA,NA,"computer","Desktop or Laptop","Windows 10","Chrome 115.0.0.0","1280x720","1280x571",NA,NA,NA,"Video Feedback Task (Clone)",6,"In","JAIBHCGDFE",NA,"study_2 (video_feedback and feedback_list_2)","Feedback_ranking_L2_first","In",1,1,1,"Neutral Feedback","Screen 1","3zrml3",1,"response","I can't really hear you",25163.504,63008.949,63025.7410000015,25163.504,63008.949,63025.7410000015,1,25163.504,37862.2370000015,0,NA,"Text Entry","Text Entry",5,"object-159","Neutral Feedback","P2_N.mp4","Screenshot 2023-06-30 at 15.00.42.png","Screenshot 2023-06-30 at 15.00.55.png",NA,"SUPTM79155"
"5",1691097489730,"03/08/2023 21:18:09",1691101089730,1,"03/08/2023 23:18:09",139282,42,"task-f6fg",NA,31043429,9205048,NA,"complete",NA,NA,"computer","Desktop or Laptop","Windows 10","Chrome 115.0.0.0","1280x720","1280x571",NA,NA,NA,"Video Feedback Task (Clone)",6,"In","JAIBHCGDFE",NA,"study_2 (video_feedback and feedback_list_2)","Feedback_ranking_L2_first","In",1,1,1,"Neutral Feedback","Screen 2","vv4mhq",2,"continue","",966.572,966.572,966.572,966.572,966.572,966.572,1,966.572,0,0,NA,"Fixation Timing","Fixation",1,"object-153","Neutral Feedback","P2_N.mp4","Screenshot 2023-06-30 at 15.00.42.png","Screenshot 2023-06-30 at 15.00.55.png",NA,"SUPTM79155"
"6",1691097570903,"03/08/2023 21:19:30",1691101170903,1,"03/08/2023 23:19:30",139282,42,"task-f6fg",NA,31043429,9205048,NA,"complete",NA,NA,"computer","Desktop or Laptop","Windows 10","Chrome 115.0.0.0","1280x720","1280x571",NA,NA,NA,"Video Feedback Task (Clone)",6,"In","JAIBHCGDFE",NA,"study_2 (video_feedback and feedback_list_2)","Feedback_ranking_L2_first","In",1,1,1,"Positive Feedback","Video","w2ir4b",1,"continue","",81172.466,81155.867,81172.466,81172.466,81155.867,81172.466,1,81172.466,0,0,NA,"Click To Continue","Continue Button",1,"object-14","Positive Feedback","P5_P.mp4","Screenshot 2023-06-30 at 15.01.08.png","Screenshot 2023-06-30 at 15.02.01.png",NA,"SUPTM79155"
"7",1691097570906,"03/08/2023 21:19:30",1691101170906,1,"03/08/2023 23:19:30",139282,42,"task-f6fg",NA,31043429,9205048,NA,"complete",NA,NA,"computer","Desktop or Laptop","Windows 10","Chrome 115.0.0.0","1280x720","1280x571",NA,NA,NA,"Video Feedback Task (Clone)",6,"In","JAIBHCGDFE",NA,"study_2 (video_feedback and feedback_list_2)","Feedback_ranking_L2_first","In",1,1,1,"Positive Feedback","Video","w2ir4b",1,"response","Your speech is clear and concise",31045.657,81155.867,81172.466,31045.657,81155.867,81172.466,1,31045.657,50126.809,0,NA,"Text Entry","Text Entry",4,"object-19","Positive Feedback","P5_P.mp4","Screenshot 2023-06-30 at 15.01.08.png","Screenshot 2023-06-30 at 15.02.01.png",NA,"SUPTM79155"
"8",1691097570906,"03/08/2023 21:19:30",1691101170906,1,"03/08/2023 23:19:30",139282,42,"task-f6fg",NA,31043429,9205048,NA,"complete",NA,NA,"computer","Desktop or Laptop","Windows 10","Chrome 115.0.0.0","1280x720","1280x571",NA,NA,NA,"Video Feedback Task (Clone)",6,"In","JAIBHCGDFE",NA,"study_2 (video_feedback and feedback_list_2)","Feedback_ranking_L2_first","In",1,1,1,"Positive Feedback","Video","w2ir4b",1,"response","This was descriptive and I can picture the classroom well",25313.133,81155.867,81172.466,25313.133,81155.867,81172.466,1,25313.133,55859.333,0,NA,"Text Entry","Text Entry",5,"object-20","Positive Feedback","P5_P.mp4","Screenshot 2023-06-30 at 15.01.08.png","Screenshot 2023-06-30 at 15.02.01.png",NA,"SUPTM79155"
"9",1691097571854,"03/08/2023 21:19:31",1691101171854,1,"03/08/2023 23:19:31",139282,42,"task-f6fg",NA,31043429,9205048,NA,"complete",NA,NA,"computer","Desktop or Laptop","Windows 10","Chrome 115.0.0.0","1280x720","1280x571",NA,NA,NA,"Video Feedback Task (Clone)",6,"In","JAIBHCGDFE",NA,"study_2 (video_feedback and feedback_list_2)","Feedback_ranking_L2_first","In",1,1,1,"Positive Feedback","Fixation","mtm832",2,"continue","",966.69200000001,966.69200000001,966.69200000001,966.69200000001,966.69200000001,966.69200000001,1,966.69200000001,0,0,NA,"Fixation Timing","Fixation",1,"object-65","Positive Feedback","P5_P.mp4","Screenshot 2023-06-30 at 15.01.08.png","Screenshot 2023-06-30 at 15.02.01.png",NA,"SUPTM79155"
"10",1691097656539,"03/08/2023 21:20:56",1691101256539,1,"03/08/2023 23:20:56",139282,42,"task-f6fg",NA,31043429,9205048,NA,"complete",NA,NA,"computer","Desktop or Laptop","Windows 10","Chrome 115.0.0.0","1280x720","1280x571",NA,NA,NA,"Video Feedback Task (Clone)",6,"In","JAIBHCGDFE",NA,"study_2 (video_feedback and feedback_list_2)","Feedback_ranking_L2_first","In",1,1,2,"Positive Feedback","Video","w2ir4b",1,"continue","",84686.761000003,84672.637,84686.761000003,84686.761000003,84672.637,84686.761000003,1,84686.761000003,0,0,NA,"Click To Continue","Continue Button",1,"object-14","Positive Feedback","P2_P.mp4","Screenshot 2023-06-30 at 15.01.08.png","Screenshot 2023-06-30 at 15.00.55.png",NA,"SUPTM79155"
"11",1691097656542,"03/08/2023 21:20:56",1691101256542,1,"03/08/2023 23:20:56",139282,42,"task-f6fg",NA,31043429,9205048,NA,"complete",NA,NA,"computer","Desktop or Laptop","Windows 10","Chrome 115.0.0.0","1280x720","1280x571",NA,NA,NA,"Video Feedback Task (Clone)",6,"In","JAIBHCGDFE",NA,"study_2 (video_feedback and feedback_list_2)","Feedback_ranking_L2_first","In",1,1,2,"Positive Feedback","Video","w2ir4b",1,"response","The description gave an insight to what peoople are feeling in the picture ",66458.095,84672.637,84688.9610000059,66458.095,84672.637,84688.9610000059,1,66458.095,18230.8660000059,0,NA,"Text Entry","Text Entry",4,"object-19","Positive Feedback","P2_P.mp4","Screenshot 2023-06-30 at 15.01.08.png","Screenshot 2023-06-30 at 15.00.55.png",NA,"SUPTM79155"
"12",1691097656542,"03/08/2023 21:20:56",1691101256542,1,"03/08/2023 23:20:56",139282,42,"task-f6fg",NA,31043429,9205048,NA,"complete",NA,NA,"computer","Desktop or Laptop","Windows 10","Chrome 115.0.0.0","1280x720","1280x571",NA,NA,NA,"Video Feedback Task (Clone)",6,"In","JAIBHCGDFE",NA,"study_2 (video_feedback and feedback_list_2)","Feedback_ranking_L2_first","In",1,1,2,"Positive Feedback","Video","w2ir4b",1,"response","You cleary described the emotions of the people in the picture ",31379.507,84672.637,84689.261000003,31379.507,84672.637,84689.261000003,1,31379.507,53309.754000003,0,NA,"Text Entry","Text Entry",5,"object-20","Positive Feedback","P2_P.mp4","Screenshot 2023-06-30 at 15.01.08.png","Screenshot 2023-06-30 at 15.00.55.png",NA,"SUPTM79155"
"13",1691097657493,"03/08/2023 21:20:57",1691101257493,1,"03/08/2023 23:20:57",139282,42,"task-f6fg",NA,31043429,9205048,NA,"complete",NA,NA,"computer","Desktop or Laptop","Windows 10","Chrome 115.0.0.0","1280x720","1280x571",NA,NA,NA,"Video Feedback Task (Clone)",6,"In","JAIBHCGDFE",NA,"study_2 (video_feedback and feedback_list_2)","Feedback_ranking_L2_first","In",1,1,2,"Positive Feedback","Fixation","mtm832",2,"continue","",966.602000000014,966.602000000014,966.602000000014,966.602000000014,966.602000000014,966.602000000014,1,966.602000000014,0,0,NA,"Fixation Timing","Fixation",1,"object-65","Positive Feedback","P2_P.mp4","Screenshot 2023-06-30 at 15.01.08.png","Screenshot 2023-06-30 at 15.00.55.png",NA,"SUPTM79155"
"14",1691097719263,"03/08/2023 21:21:59",1691101319263,1,"03/08/2023 23:21:59",139282,42,"task-f6fg",NA,31043429,9205048,NA,"complete",NA,NA,"computer","Desktop or Laptop","Windows 10","Chrome 115.0.0.0","1280x720","1280x571",NA,NA,NA,"Video Feedback Task (Clone)",6,"In","JAIBHCGDFE",NA,"study_2 (video_feedback and feedback_list_2)","Feedback_ranking_L2_first","In",1,1,2,"Neutral Feedback","Screen 1","3zrml3",1,"continue","",61771.2220000059,61758.674,61771.2220000059,61771.2220000059,61758.674,61771.2220000059,1,61771.2220000059,0,0,NA,"Click To Continue","Continue Button",1,"object-155","Neutral Feedback","P3_N.mp4","Screenshot 2023-06-30 at 15.00.42.png","Screenshot 2023-06-30 at 15.00.55.png",NA,"SUPTM79155"
"15",1691097719265,"03/08/2023 21:21:59",1691101319265,1,"03/08/2023 23:21:59",139282,42,"task-f6fg",NA,31043429,9205048,NA,"complete",NA,NA,"computer","Desktop or Laptop","Windows 10","Chrome 115.0.0.0","1280x720","1280x571",NA,NA,NA,"Video Feedback Task (Clone)",6,"In","JAIBHCGDFE",NA,"study_2 (video_feedback and feedback_list_2)","Feedback_ranking_L2_first","In",1,1,2,"Neutral Feedback","Screen 1","3zrml3",1,"response","The description is vague and doesn't include much detail ",39761.173,61758.674,61773.6220000045,39761.173,61758.674,61773.6220000045,1,39761.173,22012.4490000044,0,NA,"Text Entry","Text Entry",4,"object-158","Neutral Feedback","P3_N.mp4","Screenshot 2023-06-30 at 15.00.42.png","Screenshot 2023-06-30 at 15.00.55.png",NA,"SUPTM79155"
"16",1691097719265,"03/08/2023 21:21:59",1691101319265,1,"03/08/2023 23:21:59",139282,42,"task-f6fg",NA,31043429,9205048,NA,"complete",NA,NA,"computer","Desktop or Laptop","Windows 10","Chrome 115.0.0.0","1280x720","1280x571",NA,NA,NA,"Video Feedback Task (Clone)",6,"In","JAIBHCGDFE",NA,"study_2 (video_feedback and feedback_list_2)","Feedback_ranking_L2_first","In",1,1,2,"Neutral Feedback","Screen 1","3zrml3",1,"response","The speech could be a bit more articulate ",31079.244,61758.674,61774.022000003,31079.244,61758.674,61774.022000003,1,31079.244,30694.778000003,0,NA,"Text Entry","Text Entry",5,"object-159","Neutral Feedback","P3_N.mp4","Screenshot 2023-06-30 at 15.00.42.png","Screenshot 2023-06-30 at 15.00.55.png",NA,"SUPTM79155"
"17",1691097720217,"03/08/2023 21:22:00",1691101320217,1,"03/08/2023 23:22:00",139282,42,"task-f6fg",NA,31043429,9205048,NA,"complete",NA,NA,"computer","Desktop or Laptop","Windows 10","Chrome 115.0.0.0","1280x720","1280x571",NA,NA,NA,"Video Feedback Task (Clone)",6,"In","JAIBHCGDFE",NA,"study_2 (video_feedback and feedback_list_2)","Feedback_ranking_L2_first","In",1,1,2,"Neutral Feedback","Screen 2","vv4mhq",2,"continue","",966.594999999972,966.594999999972,966.594999999972,966.594999999972,966.594999999972,966.594999999972,1,966.594999999972,0,0,NA,"Fixation Timing","Fixation",1,"object-153","Neutral Feedback","P3_N.mp4","Screenshot 2023-06-30 at 15.00.42.png","Screenshot 2023-06-30 at 15.00.55.png",NA,"SUPTM79155"
"18",1691097784402,"03/08/2023 21:23:04",1691101384402,1,"03/08/2023 23:23:04",139282,42,"task-f6fg",NA,31043429,9205048,NA,"complete",NA,NA,"computer","Desktop or Laptop","Windows 10","Chrome 115.0.0.0","1280x720","1280x571",NA,NA,NA,"Video Feedback Task (Clone)",6,"In","JAIBHCGDFE",NA,"study_2 (video_feedback and feedback_list_2)","Feedback_ranking_L2_first","In",1,1,3,"Positive Feedback","Video","w2ir4b",1,"continue","",64184.553,64175.042,64184.553,64184.553,64175.042,64184.553,1,64184.553,0,0,NA,"Click To Continue","Continue Button",1,"object-14","Positive Feedback","P1_P.mp4","Screenshot 2023-06-30 at 15.00.42.png","Screenshot 2023-06-30 at 15.02.01.png",NA,"SUPTM79155"
"19",1691097784404,"03/08/2023 21:23:04",1691101384404,1,"03/08/2023 23:23:04",139282,42,"task-f6fg",NA,31043429,9205048,NA,"complete",NA,NA,"computer","Desktop or Laptop","Windows 10","Chrome 115.0.0.0","1280x720","1280x571",NA,NA,NA,"Video Feedback Task (Clone)",6,"In","JAIBHCGDFE",NA,"study_2 (video_feedback and feedback_list_2)","Feedback_ranking_L2_first","In",1,1,3,"Positive Feedback","Video","w2ir4b",1,"response","Giving the number of people gives a clearer image in my head",47326.987,64175.042,64186.753000003,47326.987,64175.042,64186.753000003,1,47326.987,16859.766000003,0,NA,"Text Entry","Text Entry",4,"object-19","Positive Feedback","P1_P.mp4","Screenshot 2023-06-30 at 15.00.42.png","Screenshot 2023-06-30 at 15.02.01.png",NA,"SUPTM79155"
"20",1691097784404,"03/08/2023 21:23:04",1691101384404,1,"03/08/2023 23:23:04",139282,42,"task-f6fg",NA,31043429,9205048,NA,"complete",NA,NA,"computer","Desktop or Laptop","Windows 10","Chrome 115.0.0.0","1280x720","1280x571",NA,NA,NA,"Video Feedback Task (Clone)",6,"In","JAIBHCGDFE",NA,"study_2 (video_feedback and feedback_list_2)","Feedback_ranking_L2_first","In",1,1,3,"Positive Feedback","Video","w2ir4b",1,"response","I like how you describe the demographics of the people in the room",25246.461,64175.042,64187.1530000015,25246.461,64175.042,64187.1530000015,1,25246.461,38940.6920000015,0,NA,"Text Entry","Text Entry",5,"object-20","Positive Feedback","P1_P.mp4","Screenshot 2023-06-30 at 15.00.42.png","Screenshot 2023-06-30 at 15.02.01.png",NA,"SUPTM79155"
"21",1691097785359,"03/08/2023 21:23:05",1691101385359,1,"03/08/2023 23:23:05",139282,42,"task-f6fg",NA,31043429,9205048,NA,"complete",NA,NA,"computer","Desktop or Laptop","Windows 10","Chrome 115.0.0.0","1280x720","1280x571",NA,NA,NA,"Video Feedback Task (Clone)",6,"In","JAIBHCGDFE",NA,"study_2 (video_feedback and feedback_list_2)","Feedback_ranking_L2_first","In",1,1,3,"Positive Feedback","Fixation","mtm832",2,"continue","",966.707999999984,966.707999999984,966.707999999984,966.707999999984,966.707999999984,966.707999999984,1,966.707999999984,0,0,NA,"Fixation Timing","Fixation",1,"object-65","Positive Feedback","P1_P.mp4","Screenshot 2023-06-30 at 15.00.42.png","Screenshot 2023-06-30 at 15.02.01.png",NA,"SUPTM79155"
"22",1691097889464,"03/08/2023 21:24:49",1691101489464,1,"03/08/2023 23:24:49",139282,42,"task-f6fg",NA,31043429,9205048,NA,"complete",NA,NA,"computer","Desktop or Laptop","Windows 10","Chrome 115.0.0.0","1280x720","1280x571",NA,NA,NA,"Video Feedback Task (Clone)",6,"In","JAIBHCGDFE",NA,"study_2 (video_feedback and feedback_list_2)","Feedback_ranking_L2_first","In",1,1,3,"Neutral Feedback","Screen 1","3zrml3",1,"continue","",104104.703000006,104102.841,104104.703000006,104104.703000006,104102.841,104104.703000006,1,104104.703000006,0,0,NA,"Click To Continue","Continue Button",1,"object-155","Neutral Feedback","P4_N.mp4","Screenshot 2023-06-30 at 15.01.08.png","Screenshot 2023-06-30 at 15.00.55.png",NA,"SUPTM79155"
"23",1691097889466,"03/08/2023 21:24:49",1691101489466,1,"03/08/2023 23:24:49",139282,42,"task-f6fg",NA,31043429,9205048,NA,"complete",NA,NA,"computer","Desktop or Laptop","Windows 10","Chrome 115.0.0.0","1280x720","1280x571",NA,NA,NA,"Video Feedback Task (Clone)",6,"In","JAIBHCGDFE",NA,"study_2 (video_feedback and feedback_list_2)","Feedback_ranking_L2_first","In",1,1,3,"Neutral Feedback","Screen 1","3zrml3",1,"response","I cannot imagine the image in my head as the description lacked depth ",67290.874,104102.841,104107.003000003,67290.874,104102.841,104107.003000003,1,67290.874,36816.129000003,0,NA,"Text Entry","Text Entry",4,"object-158","Neutral Feedback","P4_N.mp4","Screenshot 2023-06-30 at 15.01.08.png","Screenshot 2023-06-30 at 15.00.55.png",NA,"SUPTM79155"
"24",1691097889466,"03/08/2023 21:24:49",1691101489466,1,"03/08/2023 23:24:49",139282,42,"task-f6fg",NA,31043429,9205048,NA,"complete",NA,NA,"computer","Desktop or Laptop","Windows 10","Chrome 115.0.0.0","1280x720","1280x571",NA,NA,NA,"Video Feedback Task (Clone)",6,"In","JAIBHCGDFE",NA,"study_2 (video_feedback and feedback_list_2)","Feedback_ranking_L2_first","In",1,1,3,"Neutral Feedback","Screen 1","3zrml3",1,"response","The description was basic",24296.522,104102.841,104107.303,24296.522,104102.841,104107.303,1,24296.522,79810.781,0,NA,"Text Entry","Text Entry",5,"object-159","Neutral Feedback","P4_N.mp4","Screenshot 2023-06-30 at 15.01.08.png","Screenshot 2023-06-30 at 15.00.55.png",NA,"SUPTM79155"
"25",1691097890429,"03/08/2023 21:24:50",1691101490429,1,"03/08/2023 23:24:50",139282,42,"task-f6fg",NA,31043429,9205048,NA,"complete",NA,NA,"computer","Desktop or Laptop","Windows 10","Chrome 115.0.0.0","1280x720","1280x571",NA,NA,NA,"Video Feedback Task (Clone)",6,"In","JAIBHCGDFE",NA,"study_2 (video_feedback and feedback_list_2)","Feedback_ranking_L2_first","In",1,1,3,"Neutral Feedback","Screen 2","vv4mhq",2,"continue","",966.684999999998,966.684999999998,966.684999999998,966.684999999998,966.684999999998,966.684999999998,1,966.684999999998,0,0,NA,"Fixation Timing","Fixation",1,"object-153","Neutral Feedback","P4_N.mp4","Screenshot 2023-06-30 at 15.01.08.png","Screenshot 2023-06-30 at 15.00.55.png",NA,"SUPTM79155"
"26",1691097983741,"03/08/2023 21:26:23",1691101583741,1,"03/08/2023 23:26:23",139282,42,"task-f6fg",NA,31043429,9205048,NA,"complete",NA,NA,"computer","Desktop or Laptop","Windows 10","Chrome 115.0.0.0","1280x720","1280x571",NA,NA,NA,"Video Feedback Task (Clone)",6,"In","JAIBHCGDFE",NA,"study_2 (video_feedback and feedback_list_2)","Feedback_ranking_L2_first","In",1,1,4,"Positive Feedback","Video","w2ir4b",1,"continue","",93312.677000006,93304.782,93312.677000006,93312.677000006,93304.782,93312.677000006,1,93312.677000006,0,0,NA,"Click To Continue","Continue Button",1,"object-14","Positive Feedback","P3_P.mp4","Screenshot 2023-06-30 at 15.01.08.png","Screenshot 2023-06-30 at 15.00.55.png",NA,"SUPTM79155"
"27",1691097983743,"03/08/2023 21:26:23",1691101583743,1,"03/08/2023 23:26:23",139282,42,"task-f6fg",NA,31043429,9205048,NA,"complete",NA,NA,"computer","Desktop or Laptop","Windows 10","Chrome 115.0.0.0","1280x720","1280x571",NA,NA,NA,"Video Feedback Task (Clone)",6,"In","JAIBHCGDFE",NA,"study_2 (video_feedback and feedback_list_2)","Feedback_ranking_L2_first","In",1,1,4,"Positive Feedback","Video","w2ir4b",1,"response","I can imagine the scene well in my head",57559.4179999999,93304.782,93314.977000003,57559.4179999999,93304.782,93314.977000003,1,57559.4179999999,35755.559000003,0,NA,"Text Entry","Text Entry",4,"object-19","Positive Feedback","P3_P.mp4","Screenshot 2023-06-30 at 15.01.08.png","Screenshot 2023-06-30 at 15.00.55.png",NA,"SUPTM79155"
"28",1691097983744,"03/08/2023 21:26:23",1691101583744,1,"03/08/2023 23:26:23",139282,42,"task-f6fg",NA,31043429,9205048,NA,"complete",NA,NA,"computer","Desktop or Laptop","Windows 10","Chrome 115.0.0.0","1280x720","1280x571",NA,NA,NA,"Video Feedback Task (Clone)",6,"In","JAIBHCGDFE",NA,"study_2 (video_feedback and feedback_list_2)","Feedback_ranking_L2_first","In",1,1,4,"Positive Feedback","Video","w2ir4b",1,"response","The description of the position of people was helpful to imagine ",21697.36,93304.782,93315.177000006,21697.36,93304.782,93315.177000006,1,21697.36,71617.817000006,0,NA,"Text Entry","Text Entry",5,"object-20","Positive Feedback","P3_P.mp4","Screenshot 2023-06-30 at 15.01.08.png","Screenshot 2023-06-30 at 15.00.55.png",NA,"SUPTM79155"
"29",1691097984700,"03/08/2023 21:26:24",1691101584700,1,"03/08/2023 23:26:24",139282,42,"task-f6fg",NA,31043429,9205048,NA,"complete",NA,NA,"computer","Desktop or Laptop","Windows 10","Chrome 115.0.0.0","1280x720","1280x571",NA,NA,NA,"Video Feedback Task (Clone)",6,"In","JAIBHCGDFE",NA,"study_2 (video_feedback and feedback_list_2)","Feedback_ranking_L2_first","In",1,1,4,"Positive Feedback","Fixation","mtm832",2,"continue","",966.601000000024,966.601000000024,966.601000000024,966.601000000024,966.601000000024,966.601000000024,1,966.601000000024,0,0,NA,"Fixation Timing","Fixation",1,"object-65","Positive Feedback","P3_P.mp4","Screenshot 2023-06-30 at 15.01.08.png","Screenshot 2023-06-30 at 15.00.55.png",NA,"SUPTM79155"
"30",1691098045013,"03/08/2023 21:27:25",1691101645013,1,"03/08/2023 23:27:25",139282,42,"task-f6fg",NA,31043429,9205048,NA,"complete",NA,NA,"computer","Desktop or Laptop","Windows 10","Chrome 115.0.0.0","1280x720","1280x571",NA,NA,NA,"Video Feedback Task (Clone)",6,"In","JAIBHCGDFE",NA,"study_2 (video_feedback and feedback_list_2)","Feedback_ranking_L2_first","In",1,1,4,"Neutral Feedback","Screen 1","3zrml3",1,"continue","",60313.594000003,60308.895,60313.594000003,60313.594000003,60308.895,60313.594000003,1,60313.594000003,0,0,NA,"Click To Continue","Continue Button",1,"object-155","Neutral Feedback","P5_N.mp4","Screenshot 2023-06-30 at 15.01.08.png","Screenshot 2023-06-30 at 15.02.01.png",NA,"SUPTM79155"
"31",1691098045016,"03/08/2023 21:27:25",1691101645016,1,"03/08/2023 23:27:25",139282,42,"task-f6fg",NA,31043429,9205048,NA,"complete",NA,NA,"computer","Desktop or Laptop","Windows 10","Chrome 115.0.0.0","1280x720","1280x571",NA,NA,NA,"Video Feedback Task (Clone)",6,"In","JAIBHCGDFE",NA,"study_2 (video_feedback and feedback_list_2)","Feedback_ranking_L2_first","In",1,1,4,"Neutral Feedback","Screen 1","3zrml3",1,"response","Your words are easy to understand",43761.059,60308.895,60315.894,43761.059,60308.895,60315.894,1,43761.059,16554.835,0,NA,"Text Entry","Text Entry",4,"object-158","Neutral Feedback","P5_N.mp4","Screenshot 2023-06-30 at 15.01.08.png","Screenshot 2023-06-30 at 15.02.01.png",NA,"SUPTM79155"
"32",1691098045016,"03/08/2023 21:27:25",1691101645016,1,"03/08/2023 23:27:25",139282,42,"task-f6fg",NA,31043429,9205048,NA,"complete",NA,NA,"computer","Desktop or Laptop","Windows 10","Chrome 115.0.0.0","1280x720","1280x571",NA,NA,NA,"Video Feedback Task (Clone)",6,"In","JAIBHCGDFE",NA,"study_2 (video_feedback and feedback_list_2)","Feedback_ranking_L2_first","In",1,1,4,"Neutral Feedback","Screen 1","3zrml3",1,"response","You seem comfortable ",11548.3119999999,60308.895,60316.1940000044,11548.3119999999,60308.895,60316.1940000044,1,11548.3119999999,48767.8820000045,0,NA,"Text Entry","Text Entry",5,"object-159","Neutral Feedback","P5_N.mp4","Screenshot 2023-06-30 at 15.01.08.png","Screenshot 2023-06-30 at 15.02.01.png",NA,"SUPTM79155"
"33",1691098045976,"03/08/2023 21:27:25",1691101645976,1,"03/08/2023 23:27:25",139282,42,"task-f6fg",NA,31043429,9205048,NA,"complete",NA,NA,"computer","Desktop or Laptop","Windows 10","Chrome 115.0.0.0","1280x720","1280x571",NA,NA,NA,"Video Feedback Task (Clone)",6,"In","JAIBHCGDFE",NA,"study_2 (video_feedback and feedback_list_2)","Feedback_ranking_L2_first","In",1,1,4,"Neutral Feedback","Screen 2","vv4mhq",2,"continue","",966.673999999999,966.673999999999,966.673999999999,966.673999999999,966.673999999999,966.673999999999,1,966.673999999999,0,0,NA,"Fixation Timing","Fixation",1,"object-153","Neutral Feedback","P5_N.mp4","Screenshot 2023-06-30 at 15.01.08.png","Screenshot 2023-06-30 at 15.02.01.png",NA,"SUPTM79155"
"34",1691098075552,"03/08/2023 21:27:55",1691101675552,1,"03/08/2023 23:27:55",139282,42,"task-f6fg",NA,31043429,9205048,NA,"complete",NA,NA,"computer","Desktop or Laptop","Windows 10","Chrome 115.0.0.0","1280x720","1280x571",NA,NA,NA,"Video Feedback Task (Clone)",6,"In","JAIBHCGDFE",NA,"study_2 (video_feedback and feedback_list_2)","Feedback_ranking_L2_first","In",1,1,5,"Neutral Feedback","Screen 1","3zrml3",1,"continue","",29576.825,29562.48,29576.825,29576.825,29562.48,29576.825,1,29576.825,0,0,NA,"Click To Continue","Continue Button",1,"object-155","Neutral Feedback","P1_N.mp4","Screenshot 2023-06-30 at 15.00.42.png","Screenshot 2023-06-30 at 15.02.01.png",NA,"SUPTM79155"
"35",1691098075554,"03/08/2023 21:27:55",1691101675554,1,"03/08/2023 23:27:55",139282,42,"task-f6fg",NA,31043429,9205048,NA,"complete",NA,NA,"computer","Desktop or Laptop","Windows 10","Chrome 115.0.0.0","1280x720","1280x571",NA,NA,NA,"Video Feedback Task (Clone)",6,"In","JAIBHCGDFE",NA,"study_2 (video_feedback and feedback_list_2)","Feedback_ranking_L2_first","In",1,1,5,"Neutral Feedback","Screen 1","3zrml3",1,"response","You don't seem social ",13014.664,29562.48,29578.8,13014.664,29562.48,29578.8,1,13014.664,16564.1360000001,0,NA,"Text Entry","Text Entry",4,"object-158","Neutral Feedback","P1_N.mp4","Screenshot 2023-06-30 at 15.00.42.png","Screenshot 2023-06-30 at 15.02.01.png",NA,"SUPTM79155"
"36",1691098075555,"03/08/2023 21:27:55",1691101675555,1,"03/08/2023 23:27:55",139282,42,"task-f6fg",NA,31043429,9205048,NA,"complete",NA,NA,"computer","Desktop or Laptop","Windows 10","Chrome 115.0.0.0","1280x720","1280x571",NA,NA,NA,"Video Feedback Task (Clone)",6,"In","JAIBHCGDFE",NA,"study_2 (video_feedback and feedback_list_2)","Feedback_ranking_L2_first","In",1,1,5,"Neutral Feedback","Screen 1","3zrml3",1,"response","You seem like a shy person",4432.44899999991,29562.48,29578.8,4432.44899999991,29562.48,29578.8,1,4432.44899999991,25146.3510000001,0,NA,"Text Entry","Text Entry",5,"object-159","Neutral Feedback","P1_N.mp4","Screenshot 2023-06-30 at 15.00.42.png","Screenshot 2023-06-30 at 15.02.01.png",NA,"SUPTM79155"
"37",1691098076505,"03/08/2023 21:27:56",1691101676505,1,"03/08/2023 23:27:56",139282,42,"task-f6fg",NA,31043429,9205048,NA,"complete",NA,NA,"computer","Desktop or Laptop","Windows 10","Chrome 115.0.0.0","1280x720","1280x571",NA,NA,NA,"Video Feedback Task (Clone)",6,"In","JAIBHCGDFE",NA,"study_2 (video_feedback and feedback_list_2)","Feedback_ranking_L2_first","In",1,1,5,"Neutral Feedback","Screen 2","vv4mhq",2,"continue","",966.598999999929,966.598999999929,966.598999999929,966.598999999929,966.598999999929,966.598999999929,1,966.598999999929,0,0,NA,"Fixation Timing","Fixation",1,"object-153","Neutral Feedback","P1_N.mp4","Screenshot 2023-06-30 at 15.00.42.png","Screenshot 2023-06-30 at 15.02.01.png",NA,"SUPTM79155"
"38",1691098105793,"03/08/2023 21:28:25",1691101705793,1,"03/08/2023 23:28:25",139282,42,"task-f6fg",NA,31043429,9205048,NA,"complete",NA,NA,"computer","Desktop or Laptop","Windows 10","Chrome 115.0.0.0","1280x720","1280x571",NA,NA,NA,"Video Feedback Task (Clone)",6,"In","JAIBHCGDFE",NA,"study_2 (video_feedback and feedback_list_2)","Feedback_ranking_L2_first","In",1,1,5,"Positive Feedback","Video","w2ir4b",1,"continue","",29288.446000003,29279.6320000001,29288.446000003,29288.446000003,29279.6320000001,29288.446000003,1,29288.446000003,0,0,NA,"Click To Continue","Continue Button",1,"object-14","Positive Feedback","P4_P.mp4","Screenshot 2023-06-30 at 15.00.42.png","Screenshot 2023-06-30 at 15.02.01.png",NA,"SUPTM79155"
"39",1691098105795,"03/08/2023 21:28:25",1691101705795,1,"03/08/2023 23:28:25",139282,42,"task-f6fg",NA,31043429,9205048,NA,"complete",NA,NA,"computer","Desktop or Laptop","Windows 10","Chrome 115.0.0.0","1280x720","1280x571",NA,NA,NA,"Video Feedback Task (Clone)",6,"In","JAIBHCGDFE",NA,"study_2 (video_feedback and feedback_list_2)","Feedback_ranking_L2_first","In",1,1,5,"Positive Feedback","Video","w2ir4b",1,"response","You seem like a friendly person ",14798.219,29279.6320000001,29290.646000006,14798.219,29279.6320000001,29290.646000006,1,14798.219,14492.427000006,0,NA,"Text Entry","Text Entry",4,"object-19","Positive Feedback","P4_P.mp4","Screenshot 2023-06-30 at 15.00.42.png","Screenshot 2023-06-30 at 15.02.01.png",NA,"SUPTM79155"
"40",1691098105796,"03/08/2023 21:28:25",1691101705796,1,"03/08/2023 23:28:25",139282,42,"task-f6fg",NA,31043429,9205048,NA,"complete",NA,NA,"computer","Desktop or Laptop","Windows 10","Chrome 115.0.0.0","1280x720","1280x571",NA,NA,NA,"Video Feedback Task (Clone)",6,"In","JAIBHCGDFE",NA,"study_2 (video_feedback and feedback_list_2)","Feedback_ranking_L2_first","In",1,1,5,"Positive Feedback","Video","w2ir4b",1,"response","You look like a person who is always in a positive mood",3599.53500000003,29279.6320000001,29290.946000003,3599.53500000003,29279.6320000001,29290.946000003,1,3599.53500000003,25691.411000003,0,NA,"Text Entry","Text Entry",5,"object-20","Positive Feedback","P4_P.mp4","Screenshot 2023-06-30 at 15.00.42.png","Screenshot 2023-06-30 at 15.02.01.png",NA,"SUPTM79155"
"41",1691098106752,"03/08/2023 21:28:26",1691101706752,1,"03/08/2023 23:28:26",139282,42,"task-f6fg",NA,31043429,9205048,NA,"complete",NA,NA,"computer","Desktop or Laptop","Windows 10","Chrome 115.0.0.0","1280x720","1280x571",NA,NA,NA,"Video Feedback Task (Clone)",6,"In","JAIBHCGDFE",NA,"study_2 (video_feedback and feedback_list_2)","Feedback_ranking_L2_first","In",1,1,5,"Positive Feedback","Fixation","mtm832",2,"continue","",966.622999999905,966.622999999905,966.622999999905,966.622999999905,966.622999999905,966.622999999905,1,966.622999999905,0,0,NA,"Fixation Timing","Fixation",1,"object-65","Positive Feedback","P4_P.mp4","Screenshot 2023-06-30 at 15.00.42.png","Screenshot 2023-06-30 at 15.02.01.png",NA,"SUPTM79155"
"42",1691098106762,"03/08/2023 21:28:26",1691101706762,1,"03/08/2023 23:28:26",139282,42,"task-f6fg",NA,31043429,9205048,NA,"complete",NA,NA,"computer","Desktop or Laptop","Windows 10","Chrome 115.0.0.0","1280x720","1280x571",NA,NA,NA,"Video Feedback Task (Clone)",6,"In","JAIBHCGDFE",NA,"study_2 (video_feedback and feedback_list_2)","Feedback_ranking_L2_first","In",1,1,NA,"","","",NA,"5","END",NA,NA,NA,NA,NA,NA,0,NA,NA,NA,NA,"","",NA,"","","","","",NA,"SUPTM79155"
"1",1690980825428,"02/08/2023 12:53:45",1690984425428,1,"02/08/2023 14:53:45",139282,42,"task-f6fg",NA,31007102,9196981,NA,"complete",NA,NA,"computer","Desktop or Laptop","Chromium OS 14541.0.0","Chrome 114.0.0.0","1241x697","1194x627",NA,NA,NA,"Video Feedback Task (Clone)",6,"In","FGEHDICJBA",NA,"study_2 (video_feedback and feedback_list_2)","Feedback_ranking_L2_first","In",1,1,NA,"","","",NA,"5","BEGIN",NA,NA,NA,NA,NA,NA,0,NA,NA,NA,NA,"","",NA,"","","","","",NA,"SUPTM66122"
"2",1690980916259,"02/08/2023 12:55:16",1690984516259,1,"02/08/2023 14:55:16",139282,42,"task-f6fg",NA,31007102,9196981,NA,"complete",NA,NA,"computer","Desktop or Laptop","Chromium OS 14541.0.0","Chrome 114.0.0.0","1241x697","1194x627",NA,NA,NA,"Video Feedback Task (Clone)",6,"In","FGEHDICJBA",NA,"study_2 (video_feedback and feedback_list_2)","Feedback_ranking_L2_first","In",1,1,1,"Neutral Feedback","Screen 1","3zrml3",1,"continue","",89996.456,89979.782,89996.456,89996.456,89979.782,89996.456,1,89996.456,0,0,NA,"Click To Continue","Continue Button",1,"object-155","Neutral Feedback","P2_N.mp4","Screenshot 2023-06-30 at 15.01.08.png","Screenshot 2023-06-30 at 15.00.55.png",NA,"SUPTM66122"
"3",1690980916272,"02/08/2023 12:55:16",1690984516272,1,"02/08/2023 14:55:16",139282,42,"task-f6fg",NA,31007102,9196981,NA,"complete",NA,NA,"computer","Desktop or Laptop","Chromium OS 14541.0.0","Chrome 114.0.0.0","1241x697","1194x627",NA,NA,NA,"Video Feedback Task (Clone)",6,"In","FGEHDICJBA",NA,"study_2 (video_feedback and feedback_list_2)","Feedback_ranking_L2_first","In",1,1,1,"Neutral Feedback","Screen 1","3zrml3",1,"response","You adequetly described some of the the people in the scene ",61415.018,89979.782,89996.456,61415.018,89979.782,89996.456,1,61415.018,28581.438,0,NA,"Text Entry","Text Entry",4,"object-158","Neutral Feedback","P2_N.mp4","Screenshot 2023-06-30 at 15.01.08.png","Screenshot 2023-06-30 at 15.00.55.png",NA,"SUPTM66122"
"4",1690980916274,"02/08/2023 12:55:16",1690984516274,1,"02/08/2023 14:55:16",139282,42,"task-f6fg",NA,31007102,9196981,NA,"complete",NA,NA,"computer","Desktop or Laptop","Chromium OS 14541.0.0","Chrome 114.0.0.0","1241x697","1194x627",NA,NA,NA,"Video Feedback Task (Clone)",6,"In","FGEHDICJBA",NA,"study_2 (video_feedback and feedback_list_2)","Feedback_ranking_L2_first","In",1,1,1,"Neutral Feedback","Screen 1","3zrml3",1,"response","Your description of the room was alright.",51910.007,89979.782,89996.456,51910.007,89979.782,89996.456,1,51910.007,38086.449,0,NA,"Text Entry","Text Entry",5,"object-159","Neutral Feedback","P2_N.mp4","Screenshot 2023-06-30 at 15.01.08.png","Screenshot 2023-06-30 at 15.00.55.png",NA,"SUPTM66122"
"5",1690980917206,"02/08/2023 12:55:17",1690984517206,1,"02/08/2023 14:55:17",139282,42,"task-f6fg",NA,31007102,9196981,NA,"complete",NA,NA,"computer","Desktop or Laptop","Chromium OS 14541.0.0","Chrome 114.0.0.0","1241x697","1194x627",NA,NA,NA,"Video Feedback Task (Clone)",6,"In","FGEHDICJBA",NA,"study_2 (video_feedback and feedback_list_2)","Feedback_ranking_L2_first","In",1,1,1,"Neutral Feedback","Screen 2","vv4mhq",2,"continue","",967.119000000006,967.119000000006,967.119000000006,967.119000000006,967.119000000006,967.119000000006,1,967.119000000006,0,0,NA,"Fixation Timing","Fixation",1,"object-153","Neutral Feedback","P2_N.mp4","Screenshot 2023-06-30 at 15.01.08.png","Screenshot 2023-06-30 at 15.00.55.png",NA,"SUPTM66122"
"6",1690980959730,"02/08/2023 12:55:59",1690984559730,1,"02/08/2023 14:55:59",139282,42,"task-f6fg",NA,31007102,9196981,NA,"complete",NA,NA,"computer","Desktop or Laptop","Chromium OS 14541.0.0","Chrome 114.0.0.0","1241x697","1194x627",NA,NA,NA,"Video Feedback Task (Clone)",6,"In","FGEHDICJBA",NA,"study_2 (video_feedback and feedback_list_2)","Feedback_ranking_L2_first","In",1,1,1,"Positive Feedback","Video","w2ir4b",1,"continue","",42521.587,42504.913,42521.587,42521.587,42504.913,42521.587,1,42521.587,0,0,NA,"Click To Continue","Continue Button",1,"object-14","Positive Feedback","P5_P.mp4","Screenshot 2023-06-30 at 15.00.42.png","Screenshot 2023-06-30 at 15.02.01.png",NA,"SUPTM66122"
"7",1690980959742,"02/08/2023 12:55:59",1690984559742,1,"02/08/2023 14:55:59",139282,42,"task-f6fg",NA,31007102,9196981,NA,"complete",NA,NA,"computer","Desktop or Laptop","Chromium OS 14541.0.0","Chrome 114.0.0.0","1241x697","1194x627",NA,NA,NA,"Video Feedback Task (Clone)",6,"In","FGEHDICJBA",NA,"study_2 (video_feedback and feedback_list_2)","Feedback_ranking_L2_first","In",1,1,1,"Positive Feedback","Video","w2ir4b",1,"response","You broke down the bigger elements of the scene/people then the smaller elements really well.",20910.657,42504.913,42521.587,20910.657,42504.913,42521.587,1,20910.657,21610.93,0,NA,"Text Entry","Text Entry",4,"object-19","Positive Feedback","P5_P.mp4","Screenshot 2023-06-30 at 15.00.42.png","Screenshot 2023-06-30 at 15.02.01.png",NA,"SUPTM66122"
"8",1690980959744,"02/08/2023 12:55:59",1690984559744,1,"02/08/2023 14:55:59",139282,42,"task-f6fg",NA,31007102,9196981,NA,"complete",NA,NA,"computer","Desktop or Laptop","Chromium OS 14541.0.0","Chrome 114.0.0.0","1241x697","1194x627",NA,NA,NA,"Video Feedback Task (Clone)",6,"In","FGEHDICJBA",NA,"study_2 (video_feedback and feedback_list_2)","Feedback_ranking_L2_first","In",1,1,1,"Positive Feedback","Video","w2ir4b",1,"response","You described the scene in a logical way.",11155.671,42504.913,42521.587,11155.671,42504.913,42521.587,1,11155.671,31365.916,0,NA,"Text Entry","Text Entry",5,"object-20","Positive Feedback","P5_P.mp4","Screenshot 2023-06-30 at 15.00.42.png","Screenshot 2023-06-30 at 15.02.01.png",NA,"SUPTM66122"
"9",1690980960678,"02/08/2023 12:56:00",1690984560678,1,"02/08/2023 14:56:00",139282,42,"task-f6fg",NA,31007102,9196981,NA,"complete",NA,NA,"computer","Desktop or Laptop","Chromium OS 14541.0.0","Chrome 114.0.0.0","1241x697","1194x627",NA,NA,NA,"Video Feedback Task (Clone)",6,"In","FGEHDICJBA",NA,"study_2 (video_feedback and feedback_list_2)","Feedback_ranking_L2_first","In",1,1,1,"Positive Feedback","Fixation","mtm832",2,"continue","",967.195000000007,967.195000000007,967.195000000007,967.195000000007,967.195000000007,967.195000000007,1,967.195000000007,0,0,NA,"Fixation Timing","Fixation",1,"object-65","Positive Feedback","P5_P.mp4","Screenshot 2023-06-30 at 15.00.42.png","Screenshot 2023-06-30 at 15.02.01.png",NA,"SUPTM66122"
"10",1690981019394,"02/08/2023 12:56:59",1690984619394,1,"02/08/2023 14:56:59",139282,42,"task-f6fg",NA,31007102,9196981,NA,"complete",NA,NA,"computer","Desktop or Laptop","Chromium OS 14541.0.0","Chrome 114.0.0.0","1241x697","1194x627",NA,NA,NA,"Video Feedback Task (Clone)",6,"In","FGEHDICJBA",NA,"study_2 (video_feedback and feedback_list_2)","Feedback_ranking_L2_first","In",1,1,2,"Positive Feedback","Video","w2ir4b",1,"continue","",58713.624,58696.95,58713.624,58713.624,58696.95,58713.624,1,58713.624,0,0,NA,"Click To Continue","Continue Button",1,"object-14","Positive Feedback","P2_P.mp4","Screenshot 2023-06-30 at 15.00.42.png","Screenshot 2023-06-30 at 15.00.55.png",NA,"SUPTM66122"
"11",1690981019408,"02/08/2023 12:56:59",1690984619408,1,"02/08/2023 14:56:59",139282,42,"task-f6fg",NA,31007102,9196981,NA,"complete",NA,NA,"computer","Desktop or Laptop","Chromium OS 14541.0.0","Chrome 114.0.0.0","1241x697","1194x627",NA,NA,NA,"Video Feedback Task (Clone)",6,"In","FGEHDICJBA",NA,"study_2 (video_feedback and feedback_list_2)","Feedback_ranking_L2_first","In",1,1,2,"Positive Feedback","Video","w2ir4b",1,"response","You were able to depict a vivid and lively scene through your description.",34150.847,58696.95,58713.624,34150.847,58696.95,58713.624,1,34150.847,24562.777,0,NA,"Text Entry","Text Entry",4,"object-19","Positive Feedback","P2_P.mp4","Screenshot 2023-06-30 at 15.00.42.png","Screenshot 2023-06-30 at 15.00.55.png",NA,"SUPTM66122"
"12",1690981019410,"02/08/2023 12:56:59",1690984619410,1,"02/08/2023 14:56:59",139282,42,"task-f6fg",NA,31007102,9196981,NA,"complete",NA,NA,"computer","Desktop or Laptop","Chromium OS 14541.0.0","Chrome 114.0.0.0","1241x697","1194x627",NA,NA,NA,"Video Feedback Task (Clone)",6,"In","FGEHDICJBA",NA,"study_2 (video_feedback and feedback_list_2)","Feedback_ranking_L2_first","In",1,1,2,"Positive Feedback","Video","w2ir4b",1,"response","You described the scene with good emotional depth/interpretation.",14240.764,58696.95,58713.624,14240.764,58696.95,58713.624,1,14240.764,44472.86,0,NA,"Text Entry","Text Entry",5,"object-20","Positive Feedback","P2_P.mp4","Screenshot 2023-06-30 at 15.00.42.png","Screenshot 2023-06-30 at 15.00.55.png",NA,"SUPTM66122"
"13",1690981020342,"02/08/2023 12:57:00",1690984620342,1,"02/08/2023 14:57:00",139282,42,"task-f6fg",NA,31007102,9196981,NA,"complete",NA,NA,"computer","Desktop or Laptop","Chromium OS 14541.0.0","Chrome 114.0.0.0","1241x697","1194x627",NA,NA,NA,"Video Feedback Task (Clone)",6,"In","FGEHDICJBA",NA,"study_2 (video_feedback and feedback_list_2)","Feedback_ranking_L2_first","In",1,1,2,"Positive Feedback","Fixation","mtm832",2,"continue","",966.987999999983,966.987999999983,966.987999999983,966.987999999983,966.987999999983,966.987999999983,1,966.987999999983,0,0,NA,"Fixation Timing","Fixation",1,"object-65","Positive Feedback","P2_P.mp4","Screenshot 2023-06-30 at 15.00.42.png","Screenshot 2023-06-30 at 15.00.55.png",NA,"SUPTM66122"
"14",1690981089489,"02/08/2023 12:58:09",1690984689489,1,"02/08/2023 14:58:09",139282,42,"task-f6fg",NA,31007102,9196981,NA,"complete",NA,NA,"computer","Desktop or Laptop","Chromium OS 14541.0.0","Chrome 114.0.0.0","1241x697","1194x627",NA,NA,NA,"Video Feedback Task (Clone)",6,"In","FGEHDICJBA",NA,"study_2 (video_feedback and feedback_list_2)","Feedback_ranking_L2_first","In",1,1,2,"Neutral Feedback","Screen 1","3zrml3",1,"continue","",69148.9410000002,69135.677,69148.9410000002,69148.9410000002,69135.677,69148.9410000002,1,69148.9410000002,0,0,NA,"Click To Continue","Continue Button",1,"object-155","Neutral Feedback","P3_N.mp4","Screenshot 2023-06-30 at 15.00.42.png","Screenshot 2023-06-30 at 15.00.55.png",NA,"SUPTM66122"
"15",1690981089506,"02/08/2023 12:58:09",1690984689506,1,"02/08/2023 14:58:09",139282,42,"task-f6fg",NA,31007102,9196981,NA,"complete",NA,NA,"computer","Desktop or Laptop","Chromium OS 14541.0.0","Chrome 114.0.0.0","1241x697","1194x627",NA,NA,NA,"Video Feedback Task (Clone)",6,"In","FGEHDICJBA",NA,"study_2 (video_feedback and feedback_list_2)","Feedback_ranking_L2_first","In",1,1,2,"Neutral Feedback","Screen 1","3zrml3",1,"response","Your explanation of the scene was so-so.",48358.296,69135.677,69152.351,48358.296,69135.677,69152.351,1,48358.296,20794.055,0,NA,"Text Entry","Text Entry",4,"object-158","Neutral Feedback","P3_N.mp4","Screenshot 2023-06-30 at 15.00.42.png","Screenshot 2023-06-30 at 15.00.55.png",NA,"SUPTM66122"
"16",1690981089507,"02/08/2023 12:58:09",1690984689507,1,"02/08/2023 14:58:09",139282,42,"task-f6fg",NA,31007102,9196981,NA,"complete",NA,NA,"computer","Desktop or Laptop","Chromium OS 14541.0.0","Chrome 114.0.0.0","1241x697","1194x627",NA,NA,NA,"Video Feedback Task (Clone)",6,"In","FGEHDICJBA",NA,"study_2 (video_feedback and feedback_list_2)","Feedback_ranking_L2_first","In",1,1,2,"Neutral Feedback","Screen 1","3zrml3",1,"response","Your description of the people involved was alright.",30248.852,69135.677,69152.351,30248.852,69135.677,69152.351,1,30248.852,38903.499,0,NA,"Text Entry","Text Entry",5,"object-159","Neutral Feedback","P3_N.mp4","Screenshot 2023-06-30 at 15.00.42.png","Screenshot 2023-06-30 at 15.00.55.png",NA,"SUPTM66122"
"17",1690981090446,"02/08/2023 12:58:10",1690984690446,1,"02/08/2023 14:58:10",139282,42,"task-f6fg",NA,31007102,9196981,NA,"complete",NA,NA,"computer","Desktop or Laptop","Chromium OS 14541.0.0","Chrome 114.0.0.0","1241x697","1194x627",NA,NA,NA,"Video Feedback Task (Clone)",6,"In","FGEHDICJBA",NA,"study_2 (video_feedback and feedback_list_2)","Feedback_ranking_L2_first","In",1,1,2,"Neutral Feedback","Screen 2","vv4mhq",2,"continue","",967.170000000042,967.170000000042,967.170000000042,967.170000000042,967.170000000042,967.170000000042,1,967.170000000042,0,0,NA,"Fixation Timing","Fixation",1,"object-153","Neutral Feedback","P3_N.mp4","Screenshot 2023-06-30 at 15.00.42.png","Screenshot 2023-06-30 at 15.00.55.png",NA,"SUPTM66122"
"18",1690981149857,"02/08/2023 12:59:09",1690984749857,1,"02/08/2023 14:59:09",139282,42,"task-f6fg",NA,31007102,9196981,NA,"complete",NA,NA,"computer","Desktop or Laptop","Chromium OS 14541.0.0","Chrome 114.0.0.0","1241x697","1194x627",NA,NA,NA,"Video Feedback Task (Clone)",6,"In","FGEHDICJBA",NA,"study_2 (video_feedback and feedback_list_2)","Feedback_ranking_L2_first","In",1,1,3,"Positive Feedback","Video","w2ir4b",1,"continue","",59413.563,59396.889,59413.563,59413.563,59396.889,59413.563,1,59413.563,0,0,NA,"Click To Continue","Continue Button",1,"object-14","Positive Feedback","P1_P.mp4","Screenshot 2023-06-30 at 15.01.08.png","Screenshot 2023-06-30 at 15.02.01.png",NA,"SUPTM66122"
"19",1690981149871,"02/08/2023 12:59:09",1690984749871,1,"02/08/2023 14:59:09",139282,42,"task-f6fg",NA,31007102,9196981,NA,"complete",NA,NA,"computer","Desktop or Laptop","Chromium OS 14541.0.0","Chrome 114.0.0.0","1241x697","1194x627",NA,NA,NA,"Video Feedback Task (Clone)",6,"In","FGEHDICJBA",NA,"study_2 (video_feedback and feedback_list_2)","Feedback_ranking_L2_first","In",1,1,3,"Positive Feedback","Video","w2ir4b",1,"response","You built up a scene with your words very well.",45306.51,59396.889,59413.563,45306.51,59396.889,59413.563,1,45306.51,14107.053,0,NA,"Text Entry","Text Entry",4,"object-19","Positive Feedback","P1_P.mp4","Screenshot 2023-06-30 at 15.01.08.png","Screenshot 2023-06-30 at 15.02.01.png",NA,"SUPTM66122"
"20",1690981149872,"02/08/2023 12:59:09",1690984749872,1,"02/08/2023 14:59:09",139282,42,"task-f6fg",NA,31007102,9196981,NA,"complete",NA,NA,"computer","Desktop or Laptop","Chromium OS 14541.0.0","Chrome 114.0.0.0","1241x697","1194x627",NA,NA,NA,"Video Feedback Task (Clone)",6,"In","FGEHDICJBA",NA,"study_2 (video_feedback and feedback_list_2)","Feedback_ranking_L2_first","In",1,1,3,"Positive Feedback","Video","w2ir4b",1,"response","You explained in good detail the different sorts of people in the image.",22795.035,59396.889,59413.563,22795.035,59396.889,59413.563,1,22795.035,36618.528,0,NA,"Text Entry","Text Entry",5,"object-20","Positive Feedback","P1_P.mp4","Screenshot 2023-06-30 at 15.01.08.png","Screenshot 2023-06-30 at 15.02.01.png",NA,"SUPTM66122"
"21",1690981150810,"02/08/2023 12:59:10",1690984750810,1,"02/08/2023 14:59:10",139282,42,"task-f6fg",NA,31007102,9196981,NA,"complete",NA,NA,"computer","Desktop or Laptop","Chromium OS 14541.0.0","Chrome 114.0.0.0","1241x697","1194x627",NA,NA,NA,"Video Feedback Task (Clone)",6,"In","FGEHDICJBA",NA,"study_2 (video_feedback and feedback_list_2)","Feedback_ranking_L2_first","In",1,1,3,"Positive Feedback","Fixation","mtm832",2,"continue","",967.195000000007,967.195000000007,967.195000000007,967.195000000007,967.195000000007,967.195000000007,1,967.195000000007,0,0,NA,"Fixation Timing","Fixation",1,"object-65","Positive Feedback","P1_P.mp4","Screenshot 2023-06-30 at 15.01.08.png","Screenshot 2023-06-30 at 15.02.01.png",NA,"SUPTM66122"
"22",1690981218256,"02/08/2023 13:00:18",1690984818256,1,"02/08/2023 15:00:18",139282,42,"task-f6fg",NA,31007102,9196981,NA,"complete",NA,NA,"computer","Desktop or Laptop","Chromium OS 14541.0.0","Chrome 114.0.0.0","1241x697","1194x627",NA,NA,NA,"Video Feedback Task (Clone)",6,"In","FGEHDICJBA",NA,"study_2 (video_feedback and feedback_list_2)","Feedback_ranking_L2_first","In",1,1,3,"Neutral Feedback","Screen 1","3zrml3",1,"continue","",67448.81,67434.827,67448.81,67448.81,67434.827,67448.81,1,67448.81,0,0,NA,"Click To Continue","Continue Button",1,"object-155","Neutral Feedback","P4_N.mp4","Screenshot 2023-06-30 at 15.00.42.png","Screenshot 2023-06-30 at 15.02.01.png",NA,"SUPTM66122"
"23",1690981218269,"02/08/2023 13:00:18",1690984818269,1,"02/08/2023 15:00:18",139282,42,"task-f6fg",NA,31007102,9196981,NA,"complete",NA,NA,"computer","Desktop or Laptop","Chromium OS 14541.0.0","Chrome 114.0.0.0","1241x697","1194x627",NA,NA,NA,"Video Feedback Task (Clone)",6,"In","FGEHDICJBA",NA,"study_2 (video_feedback and feedback_list_2)","Feedback_ranking_L2_first","In",1,1,3,"Neutral Feedback","Screen 1","3zrml3",1,"response","Your explaination of the setting was so-so.",57346.291,67434.827,67451.501,57346.291,67434.827,67451.501,1,57346.291,10105.21,0,NA,"Text Entry","Text Entry",4,"object-158","Neutral Feedback","P4_N.mp4","Screenshot 2023-06-30 at 15.00.42.png","Screenshot 2023-06-30 at 15.02.01.png",NA,"SUPTM66122"
"24",1690981218272,"02/08/2023 13:00:18",1690984818272,1,"02/08/2023 15:00:18",139282,42,"task-f6fg",NA,31007102,9196981,NA,"complete",NA,NA,"computer","Desktop or Laptop","Chromium OS 14541.0.0","Chrome 114.0.0.0","1241x697","1194x627",NA,NA,NA,"Video Feedback Task (Clone)",6,"In","FGEHDICJBA",NA,"study_2 (video_feedback and feedback_list_2)","Feedback_ranking_L2_first","In",1,1,3,"Neutral Feedback","Screen 1","3zrml3",1,"response","Your description of the group was satisfactory",40087.431,67434.827,67451.501,40087.431,67434.827,67451.501,1,40087.431,27364.07,0,NA,"Text Entry","Text Entry",5,"object-159","Neutral Feedback","P4_N.mp4","Screenshot 2023-06-30 at 15.00.42.png","Screenshot 2023-06-30 at 15.02.01.png",NA,"SUPTM66122"
"25",1690981219211,"02/08/2023 13:00:19",1690984819211,1,"02/08/2023 15:00:19",139282,42,"task-f6fg",NA,31007102,9196981,NA,"complete",NA,NA,"computer","Desktop or Laptop","Chromium OS 14541.0.0","Chrome 114.0.0.0","1241x697","1194x627",NA,NA,NA,"Video Feedback Task (Clone)",6,"In","FGEHDICJBA",NA,"study_2 (video_feedback and feedback_list_2)","Feedback_ranking_L2_first","In",1,1,3,"Neutral Feedback","Screen 2","vv4mhq",2,"continue","",967.052000000025,967.052000000025,967.052000000025,967.052000000025,967.052000000025,967.052000000025,1,967.052000000025,0,0,NA,"Fixation Timing","Fixation",1,"object-153","Neutral Feedback","P4_N.mp4","Screenshot 2023-06-30 at 15.00.42.png","Screenshot 2023-06-30 at 15.02.01.png",NA,"SUPTM66122"
"26",1690981267753,"02/08/2023 13:01:07",1690984867753,1,"02/08/2023 15:01:07",139282,42,"task-f6fg",NA,31007102,9196981,NA,"complete",NA,NA,"computer","Desktop or Laptop","Chromium OS 14541.0.0","Chrome 114.0.0.0","1241x697","1194x627",NA,NA,NA,"Video Feedback Task (Clone)",6,"In","FGEHDICJBA",NA,"study_2 (video_feedback and feedback_list_2)","Feedback_ranking_L2_first","In",1,1,4,"Positive Feedback","Video","w2ir4b",1,"continue","",48541.436,48524.762,48541.436,48541.436,48524.762,48541.436,1,48541.436,0,0,NA,"Click To Continue","Continue Button",1,"object-14","Positive Feedback","P3_P.mp4","Screenshot 2023-06-30 at 15.01.08.png","Screenshot 2023-06-30 at 15.02.01.png",NA,"SUPTM66122"
"27",1690981267766,"02/08/2023 13:01:07",1690984867766,1,"02/08/2023 15:01:07",139282,42,"task-f6fg",NA,31007102,9196981,NA,"complete",NA,NA,"computer","Desktop or Laptop","Chromium OS 14541.0.0","Chrome 114.0.0.0","1241x697","1194x627",NA,NA,NA,"Video Feedback Task (Clone)",6,"In","FGEHDICJBA",NA,"study_2 (video_feedback and feedback_list_2)","Feedback_ranking_L2_first","In",1,1,4,"Positive Feedback","Video","w2ir4b",1,"response","You described the positive energy within the image in a rich and vivid way.",23962.36,48524.762,48541.436,23962.36,48524.762,48541.436,1,23962.36,24579.076,0,NA,"Text Entry","Text Entry",4,"object-19","Positive Feedback","P3_P.mp4","Screenshot 2023-06-30 at 15.01.08.png","Screenshot 2023-06-30 at 15.02.01.png",NA,"SUPTM66122"
"28",1690981267767,"02/08/2023 13:01:07",1690984867767,1,"02/08/2023 15:01:07",139282,42,"task-f6fg",NA,31007102,9196981,NA,"complete",NA,NA,"computer","Desktop or Laptop","Chromium OS 14541.0.0","Chrome 114.0.0.0","1241x697","1194x627",NA,NA,NA,"Video Feedback Task (Clone)",6,"In","FGEHDICJBA",NA,"study_2 (video_feedback and feedback_list_2)","Feedback_ranking_L2_first","In",1,1,4,"Positive Feedback","Video","w2ir4b",1,"response","You described lots of elements of the image in good detail.",12122.855,48524.762,48541.436,12122.855,48524.762,48541.436,1,12122.855,36418.581,0,NA,"Text Entry","Text Entry",5,"object-20","Positive Feedback","P3_P.mp4","Screenshot 2023-06-30 at 15.01.08.png","Screenshot 2023-06-30 at 15.02.01.png",NA,"SUPTM66122"
"29",1690981268703,"02/08/2023 13:01:08",1690984868703,1,"02/08/2023 15:01:08",139282,42,"task-f6fg",NA,31007102,9196981,NA,"complete",NA,NA,"computer","Desktop or Laptop","Chromium OS 14541.0.0","Chrome 114.0.0.0","1241x697","1194x627",NA,NA,NA,"Video Feedback Task (Clone)",6,"In","FGEHDICJBA",NA,"study_2 (video_feedback and feedback_list_2)","Feedback_ranking_L2_first","In",1,1,4,"Positive Feedback","Fixation","mtm832",2,"continue","",967.170999999973,967.170999999973,967.170999999973,967.170999999973,967.170999999973,967.170999999973,1,967.170999999973,0,0,NA,"Fixation Timing","Fixation",1,"object-65","Positive Feedback","P3_P.mp4","Screenshot 2023-06-30 at 15.01.08.png","Screenshot 2023-06-30 at 15.02.01.png",NA,"SUPTM66122"
"30",1690981318736,"02/08/2023 13:01:58",1690984918736,1,"02/08/2023 15:01:58",139282,42,"task-f6fg",NA,31007102,9196981,NA,"complete",NA,NA,"computer","Desktop or Laptop","Chromium OS 14541.0.0","Chrome 114.0.0.0","1241x697","1194x627",NA,NA,NA,"Video Feedback Task (Clone)",6,"In","FGEHDICJBA",NA,"study_2 (video_feedback and feedback_list_2)","Feedback_ranking_L2_first","In",1,1,4,"Neutral Feedback","Screen 1","3zrml3",1,"continue","",50035.0980000001,50025.791,50035.0980000001,50035.0980000001,50025.791,50035.0980000001,1,50035.0980000001,0,0,NA,"Click To Continue","Continue Button",1,"object-155","Neutral Feedback","P5_N.mp4","Screenshot 2023-06-30 at 15.01.08.png","Screenshot 2023-06-30 at 15.02.01.png",NA,"SUPTM66122"
"31",1690981318750,"02/08/2023 13:01:58",1690984918750,1,"02/08/2023 15:01:58",139282,42,"task-f6fg",NA,31007102,9196981,NA,"complete",NA,NA,"computer","Desktop or Laptop","Chromium OS 14541.0.0","Chrome 114.0.0.0","1241x697","1194x627",NA,NA,NA,"Video Feedback Task (Clone)",6,"In","FGEHDICJBA",NA,"study_2 (video_feedback and feedback_list_2)","Feedback_ranking_L2_first","In",1,1,4,"Neutral Feedback","Screen 1","3zrml3",1,"response","You sort of explained what was going on between the people.",28314.658,50025.791,50042.465,28314.658,50025.791,50042.465,1,28314.658,21727.807,0,NA,"Text Entry","Text Entry",4,"object-158","Neutral Feedback","P5_N.mp4","Screenshot 2023-06-30 at 15.01.08.png","Screenshot 2023-06-30 at 15.02.01.png",NA,"SUPTM66122"
"32",1690981318751,"02/08/2023 13:01:58",1690984918751,1,"02/08/2023 15:01:58",139282,42,"task-f6fg",NA,31007102,9196981,NA,"complete",NA,NA,"computer","Desktop or Laptop","Chromium OS 14541.0.0","Chrome 114.0.0.0","1241x697","1194x627",NA,NA,NA,"Video Feedback Task (Clone)",6,"In","FGEHDICJBA",NA,"study_2 (video_feedback and feedback_list_2)","Feedback_ranking_L2_first","In",1,1,4,"Neutral Feedback","Screen 1","3zrml3",1,"response","Your description of the friends was passable.",11022.454,50025.791,50042.465,11022.454,50025.791,50042.465,1,11022.454,39020.011,0,NA,"Text Entry","Text Entry",5,"object-159","Neutral Feedback","P5_N.mp4","Screenshot 2023-06-30 at 15.01.08.png","Screenshot 2023-06-30 at 15.02.01.png",NA,"SUPTM66122"
"33",1690981319697,"02/08/2023 13:01:59",1690984919697,1,"02/08/2023 15:01:59",139282,42,"task-f6fg",NA,31007102,9196981,NA,"complete",NA,NA,"computer","Desktop or Laptop","Chromium OS 14541.0.0","Chrome 114.0.0.0","1241x697","1194x627",NA,NA,NA,"Video Feedback Task (Clone)",6,"In","FGEHDICJBA",NA,"study_2 (video_feedback and feedback_list_2)","Feedback_ranking_L2_first","In",1,1,4,"Neutral Feedback","Screen 2","vv4mhq",2,"continue","",967.239000000001,967.239000000001,967.239000000001,967.239000000001,967.239000000001,967.239000000001,1,967.239000000001,0,0,NA,"Fixation Timing","Fixation",1,"object-153","Neutral Feedback","P5_N.mp4","Screenshot 2023-06-30 at 15.01.08.png","Screenshot 2023-06-30 at 15.02.01.png",NA,"SUPTM66122"
"34",1690981384753,"02/08/2023 13:03:04",1690984984753,1,"02/08/2023 15:03:04",139282,42,"task-f6fg",NA,31007102,9196981,NA,"complete",NA,NA,"computer","Desktop or Laptop","Chromium OS 14541.0.0","Chrome 114.0.0.0","1241x697","1194x627",NA,NA,NA,"Video Feedback Task (Clone)",6,"In","FGEHDICJBA",NA,"study_2 (video_feedback and feedback_list_2)","Feedback_ranking_L2_first","In",1,1,5,"Neutral Feedback","Screen 1","3zrml3",1,"continue","",65058.968,65050.074,65058.968,65058.968,65050.074,65058.968,1,65058.968,0,0,NA,"Click To Continue","Continue Button",1,"object-155","Neutral Feedback","P1_N.mp4","Screenshot 2023-06-30 at 15.01.08.png","Screenshot 2023-06-30 at 15.00.55.png",NA,"SUPTM66122"
"35",1690981384766,"02/08/2023 13:03:04",1690984984766,1,"02/08/2023 15:03:04",139282,42,"task-f6fg",NA,31007102,9196981,NA,"complete",NA,NA,"computer","Desktop or Laptop","Chromium OS 14541.0.0","Chrome 114.0.0.0","1241x697","1194x627",NA,NA,NA,"Video Feedback Task (Clone)",6,"In","FGEHDICJBA",NA,"study_2 (video_feedback and feedback_list_2)","Feedback_ranking_L2_first","In",1,1,5,"Neutral Feedback","Screen 1","3zrml3",1,"response","You seemed somewhat engaged in the image description I suppose.",41638.083,65050.074,65066.748,41638.083,65050.074,65066.748,1,41638.083,23428.665,0,NA,"Text Entry","Text Entry",4,"object-158","Neutral Feedback","P1_N.mp4","Screenshot 2023-06-30 at 15.01.08.png","Screenshot 2023-06-30 at 15.00.55.png",NA,"SUPTM66122"
"36",1690981384768,"02/08/2023 13:03:04",1690984984768,1,"02/08/2023 15:03:04",139282,42,"task-f6fg",NA,31007102,9196981,NA,"complete",NA,NA,"computer","Desktop or Laptop","Chromium OS 14541.0.0","Chrome 114.0.0.0","1241x697","1194x627",NA,NA,NA,"Video Feedback Task (Clone)",6,"In","FGEHDICJBA",NA,"study_2 (video_feedback and feedback_list_2)","Feedback_ranking_L2_first","In",1,1,5,"Neutral Feedback","Screen 1","3zrml3",1,"response","Your explanation of the image was fine.",12122.849,65050.074,65066.748,12122.849,65050.074,65066.748,1,12122.849,52943.899,0,NA,"Text Entry","Text Entry",5,"object-159","Neutral Feedback","P1_N.mp4","Screenshot 2023-06-30 at 15.01.08.png","Screenshot 2023-06-30 at 15.00.55.png",NA,"SUPTM66122"
"37",1690981385712,"02/08/2023 13:03:05",1690984985712,1,"02/08/2023 15:03:05",139282,42,"task-f6fg",NA,31007102,9196981,NA,"complete",NA,NA,"computer","Desktop or Laptop","Chromium OS 14541.0.0","Chrome 114.0.0.0","1241x697","1194x627",NA,NA,NA,"Video Feedback Task (Clone)",6,"In","FGEHDICJBA",NA,"study_2 (video_feedback and feedback_list_2)","Feedback_ranking_L2_first","In",1,1,5,"Neutral Feedback","Screen 2","vv4mhq",2,"continue","",967.059000000008,967.059000000008,967.059000000008,967.059000000008,967.059000000008,967.059000000008,1,967.059000000008,0,0,NA,"Fixation Timing","Fixation",1,"object-153","Neutral Feedback","P1_N.mp4","Screenshot 2023-06-30 at 15.01.08.png","Screenshot 2023-06-30 at 15.00.55.png",NA,"SUPTM66122"
"38",1690981420218,"02/08/2023 13:03:40",1690985020218,1,"02/08/2023 15:03:40",139282,42,"task-f6fg",NA,31007102,9196981,NA,"complete",NA,NA,"computer","Desktop or Laptop","Chromium OS 14541.0.0","Chrome 114.0.0.0","1241x697","1194x627",NA,NA,NA,"Video Feedback Task (Clone)",6,"In","FGEHDICJBA",NA,"study_2 (video_feedback and feedback_list_2)","Feedback_ranking_L2_first","In",1,1,5,"Positive Feedback","Video","w2ir4b",1,"continue","",34501.024,34484.35,34501.024,34501.024,34484.35,34501.024,1,34501.024,0,0,NA,"Click To Continue","Continue Button",1,"object-14","Positive Feedback","P4_P.mp4","Screenshot 2023-06-30 at 15.00.42.png","Screenshot 2023-06-30 at 15.00.55.png",NA,"SUPTM66122"
"39",1690981420232,"02/08/2023 13:03:40",1690985020232,1,"02/08/2023 15:03:40",139282,42,"task-f6fg",NA,31007102,9196981,NA,"complete",NA,NA,"computer","Desktop or Laptop","Chromium OS 14541.0.0","Chrome 114.0.0.0","1241x697","1194x627",NA,NA,NA,"Video Feedback Task (Clone)",6,"In","FGEHDICJBA",NA,"study_2 (video_feedback and feedback_list_2)","Feedback_ranking_L2_first","In",1,1,5,"Positive Feedback","Video","w2ir4b",1,"response","Your description aptly covers major elements of the image and paints a good picture.",17108.7679999999,34484.35,34501.024,17108.7679999999,34484.35,34501.024,1,17108.7679999999,17392.2560000001,0,NA,"Text Entry","Text Entry",4,"object-19","Positive Feedback","P4_P.mp4","Screenshot 2023-06-30 at 15.00.42.png","Screenshot 2023-06-30 at 15.00.55.png",NA,"SUPTM66122"
"40",1690981420233,"02/08/2023 13:03:40",1690985020233,1,"02/08/2023 15:03:40",139282,42,"task-f6fg",NA,31007102,9196981,NA,"complete",NA,NA,"computer","Desktop or Laptop","Chromium OS 14541.0.0","Chrome 114.0.0.0","1241x697","1194x627",NA,NA,NA,"Video Feedback Task (Clone)",6,"In","FGEHDICJBA",NA,"study_2 (video_feedback and feedback_list_2)","Feedback_ranking_L2_first","In",1,1,5,"Positive Feedback","Video","w2ir4b",1,"response","You seem very happy and engaged.",4051.94699999993,34484.35,34501.024,4051.94699999993,34484.35,34501.024,1,4051.94699999993,30449.077,0,NA,"Text Entry","Text Entry",5,"object-20","Positive Feedback","P4_P.mp4","Screenshot 2023-06-30 at 15.00.42.png","Screenshot 2023-06-30 at 15.00.55.png",NA,"SUPTM66122"
"41",1690981421165,"02/08/2023 13:03:41",1690985021165,1,"02/08/2023 15:03:41",139282,42,"task-f6fg",NA,31007102,9196981,NA,"complete",NA,NA,"computer","Desktop or Laptop","Chromium OS 14541.0.0","Chrome 114.0.0.0","1241x697","1194x627",NA,NA,NA,"Video Feedback Task (Clone)",6,"In","FGEHDICJBA",NA,"study_2 (video_feedback and feedback_list_2)","Feedback_ranking_L2_first","In",1,1,5,"Positive Feedback","Fixation","mtm832",2,"continue","",967.206000000006,967.206000000006,967.206000000006,967.206000000006,967.206000000006,967.206000000006,1,967.206000000006,0,0,NA,"Fixation Timing","Fixation",1,"object-65","Positive Feedback","P4_P.mp4","Screenshot 2023-06-30 at 15.00.42.png","Screenshot 2023-06-30 at 15.00.55.png",NA,"SUPTM66122"
"42",1690981421177,"02/08/2023 13:03:41",1690985021177,1,"02/08/2023 15:03:41",139282,42,"task-f6fg",NA,31007102,9196981,NA,"complete",NA,NA,"computer","Desktop or Laptop","Chromium OS 14541.0.0","Chrome 114.0.0.0","1241x697","1194x627",NA,NA,NA,"Video Feedback Task (Clone)",6,"In","FGEHDICJBA",NA,"study_2 (video_feedback and feedback_list_2)","Feedback_ranking_L2_first","In",1,1,NA,"","","",NA,"5","END",NA,NA,NA,NA,NA,NA,0,NA,NA,NA,NA,"","",NA,"","","","","",NA,"SUPTM66122"
"1",1690962066013,"02/08/2023 07:41:06",1690965666013,1,"02/08/2023 09:41:06",139282,42,"task-f6fg",NA,30997202,9195426,NA,"complete",NA,NA,"computer","Desktop or Laptop","Windows 10","Chrome 115.0.0.0","1200x800","1200x651",NA,NA,NA,"Video Feedback Task (Clone)",6,"In","DECFBGAHJI",NA,"study_2 (video_feedback and feedback_list_2)","Feedback_ranking_L2_first","In",1,1,NA,"","","",NA,"5","BEGIN",NA,NA,NA,NA,NA,NA,0,NA,NA,NA,NA,"","",NA,"","","","","",NA,"SUPTM46030"
"2",1690962135507,"02/08/2023 07:42:15",1690965735507,1,"02/08/2023 09:42:15",139282,42,"task-f6fg",NA,30997202,9195426,NA,"complete",NA,NA,"computer","Desktop or Laptop","Windows 10","Chrome 115.0.0.0","1200x800","1200x651",NA,NA,NA,"Video Feedback Task (Clone)",6,"In","DECFBGAHJI",NA,"study_2 (video_feedback and feedback_list_2)","Feedback_ranking_L2_first","In",1,1,1,"Neutral Feedback","Screen 1","3zrml3",1,"continue","",68532.799,68520.403,68532.799,68532.799,68520.403,68532.799,1,68532.799,0,0,NA,"Click To Continue","Continue Button",1,"object-155","Neutral Feedback","P2_N.mp4","Screenshot 2023-06-30 at 15.01.08.png","Screenshot 2023-06-30 at 15.02.01.png",NA,"SUPTM46030"
"3",1690962135511,"02/08/2023 07:42:15",1690965735511,1,"02/08/2023 09:42:15",139282,42,"task-f6fg",NA,30997202,9195426,NA,"complete",NA,NA,"computer","Desktop or Laptop","Windows 10","Chrome 115.0.0.0","1200x800","1200x651",NA,NA,NA,"Video Feedback Task (Clone)",6,"In","DECFBGAHJI",NA,"study_2 (video_feedback and feedback_list_2)","Feedback_ranking_L2_first","In",1,1,1,"Neutral Feedback","Screen 1","3zrml3",1,"response","You were okay with focusing in on the minutiae of the scene.",44767.711,68520.403,68537.071,44767.711,68520.403,68537.071,1,44767.711,23769.36,0,NA,"Text Entry","Text Entry",4,"object-158","Neutral Feedback","P2_N.mp4","Screenshot 2023-06-30 at 15.01.08.png","Screenshot 2023-06-30 at 15.02.01.png",NA,"SUPTM46030"
"4",1690962135512,"02/08/2023 07:42:15",1690965735512,1,"02/08/2023 09:42:15",139282,42,"task-f6fg",NA,30997202,9195426,NA,"complete",NA,NA,"computer","Desktop or Laptop","Windows 10","Chrome 115.0.0.0","1200x800","1200x651",NA,NA,NA,"Video Feedback Task (Clone)",6,"In","DECFBGAHJI",NA,"study_2 (video_feedback and feedback_list_2)","Feedback_ranking_L2_first","In",1,1,1,"Neutral Feedback","Screen 1","3zrml3",1,"response","You were fine at explaining the basic details.",12702.693,68520.403,68537.071,12702.693,68520.403,68537.071,1,12702.693,55834.378,0,NA,"Text Entry","Text Entry",5,"object-159","Neutral Feedback","P2_N.mp4","Screenshot 2023-06-30 at 15.01.08.png","Screenshot 2023-06-30 at 15.02.01.png",NA,"SUPTM46030"
"5",1690962136456,"02/08/2023 07:42:16",1690965736456,1,"02/08/2023 09:42:16",139282,42,"task-f6fg",NA,30997202,9195426,NA,"complete",NA,NA,"computer","Desktop or Laptop","Windows 10","Chrome 115.0.0.0","1200x800","1200x651",NA,NA,NA,"Video Feedback Task (Clone)",6,"In","DECFBGAHJI",NA,"study_2 (video_feedback and feedback_list_2)","Feedback_ranking_L2_first","In",1,1,1,"Neutral Feedback","Screen 2","vv4mhq",2,"continue","",968.14899999999,968.14899999999,968.14899999999,968.14899999999,968.14899999999,968.14899999999,1,968.14899999999,0,0,NA,"Fixation Timing","Fixation",1,"object-153","Neutral Feedback","P2_N.mp4","Screenshot 2023-06-30 at 15.01.08.png","Screenshot 2023-06-30 at 15.02.01.png",NA,"SUPTM46030"
"6",1690962164221,"02/08/2023 07:42:44",1690965764221,1,"02/08/2023 09:42:44",139282,42,"task-f6fg",NA,30997202,9195426,NA,"complete",NA,NA,"computer","Desktop or Laptop","Windows 10","Chrome 115.0.0.0","1200x800","1200x651",NA,NA,NA,"Video Feedback Task (Clone)",6,"In","DECFBGAHJI",NA,"study_2 (video_feedback and feedback_list_2)","Feedback_ranking_L2_first","In",1,1,1,"Positive Feedback","Video","w2ir4b",1,"continue","",27765.9469999881,27758.398,27765.9469999881,27765.9469999881,27758.398,27765.9469999881,1,27765.9469999881,0,0,NA,"Click To Continue","Continue Button",1,"object-14","Positive Feedback","P5_P.mp4","Screenshot 2023-06-30 at 15.01.08.png","Screenshot 2023-06-30 at 15.00.55.png",NA,"SUPTM46030"
"7",1690962164225,"02/08/2023 07:42:44",1690965764225,1,"02/08/2023 09:42:44",139282,42,"task-f6fg",NA,30997202,9195426,NA,"complete",NA,NA,"computer","Desktop or Laptop","Windows 10","Chrome 115.0.0.0","1200x800","1200x651",NA,NA,NA,"Video Feedback Task (Clone)",6,"In","DECFBGAHJI",NA,"study_2 (video_feedback and feedback_list_2)","Feedback_ranking_L2_first","In",1,1,1,"Positive Feedback","Video","w2ir4b",1,"response","Your description was incredibly detailed!",19796.259,27758.398,27769.9469999881,19796.259,27758.398,27769.9469999881,1,19796.259,7973.68799998808,0,NA,"Text Entry","Text Entry",4,"object-19","Positive Feedback","P5_P.mp4","Screenshot 2023-06-30 at 15.01.08.png","Screenshot 2023-06-30 at 15.00.55.png",NA,"SUPTM46030"
"8",1690962164226,"02/08/2023 07:42:44",1690965764226,1,"02/08/2023 09:42:44",139282,42,"task-f6fg",NA,30997202,9195426,NA,"complete",NA,NA,"computer","Desktop or Laptop","Windows 10","Chrome 115.0.0.0","1200x800","1200x651",NA,NA,NA,"Video Feedback Task (Clone)",6,"In","DECFBGAHJI",NA,"study_2 (video_feedback and feedback_list_2)","Feedback_ranking_L2_first","In",1,1,1,"Positive Feedback","Video","w2ir4b",1,"response","You were incredibly articulate!",10699.451,27758.398,27771.147000006,10699.451,27758.398,27771.147000006,1,10699.451,17071.696000006,0,NA,"Text Entry","Text Entry",5,"object-20","Positive Feedback","P5_P.mp4","Screenshot 2023-06-30 at 15.01.08.png","Screenshot 2023-06-30 at 15.00.55.png",NA,"SUPTM46030"
"9",1690962165183,"02/08/2023 07:42:45",1690965765183,1,"02/08/2023 09:42:45",139282,42,"task-f6fg",NA,30997202,9195426,NA,"complete",NA,NA,"computer","Desktop or Laptop","Windows 10","Chrome 115.0.0.0","1200x800","1200x651",NA,NA,NA,"Video Feedback Task (Clone)",6,"In","DECFBGAHJI",NA,"study_2 (video_feedback and feedback_list_2)","Feedback_ranking_L2_first","In",1,1,1,"Positive Feedback","Fixation","mtm832",2,"continue","",968.157999999996,968.157999999996,968.157999999996,968.157999999996,968.157999999996,968.157999999996,1,968.157999999996,0,0,NA,"Fixation Timing","Fixation",1,"object-65","Positive Feedback","P5_P.mp4","Screenshot 2023-06-30 at 15.01.08.png","Screenshot 2023-06-30 at 15.00.55.png",NA,"SUPTM46030"
"10",1690962251147,"02/08/2023 07:44:11",1690965851147,1,"02/08/2023 09:44:11",139282,42,"task-f6fg",NA,30997202,9195426,NA,"complete",NA,NA,"computer","Desktop or Laptop","Windows 10","Chrome 115.0.0.0","1200x800","1200x651",NA,NA,NA,"Video Feedback Task (Clone)",6,"In","DECFBGAHJI",NA,"study_2 (video_feedback and feedback_list_2)","Feedback_ranking_L2_first","In",1,1,2,"Positive Feedback","Video","w2ir4b",1,"continue","",85962.8909999881,85947.032,85962.8909999881,85962.8909999881,85947.032,85962.8909999881,1,85962.8909999881,0,0,NA,"Click To Continue","Continue Button",1,"object-14","Positive Feedback","P2_P.mp4","Screenshot 2023-06-30 at 15.00.42.png","Screenshot 2023-06-30 at 15.02.01.png",NA,"SUPTM46030"
"11",1690962251156,"02/08/2023 07:44:11",1690965851156,1,"02/08/2023 09:44:11",139282,42,"task-f6fg",NA,30997202,9195426,NA,"complete",NA,NA,"computer","Desktop or Laptop","Windows 10","Chrome 115.0.0.0","1200x800","1200x651",NA,NA,NA,"Video Feedback Task (Clone)",6,"In","DECFBGAHJI",NA,"study_2 (video_feedback and feedback_list_2)","Feedback_ranking_L2_first","In",1,1,2,"Positive Feedback","Video","w2ir4b",1,"response","You really provided a clear insight into what the picture looked like!",44985.353,85947.032,85963.685,44985.353,85947.032,85963.685,1,44985.353,40978.332,0,NA,"Text Entry","Text Entry",4,"object-19","Positive Feedback","P2_P.mp4","Screenshot 2023-06-30 at 15.00.42.png","Screenshot 2023-06-30 at 15.02.01.png",NA,"SUPTM46030"
"12",1690962251156,"02/08/2023 07:44:11",1690965851156,1,"02/08/2023 09:44:11",139282,42,"task-f6fg",NA,30997202,9195426,NA,"complete",NA,NA,"computer","Desktop or Laptop","Windows 10","Chrome 115.0.0.0","1200x800","1200x651",NA,NA,NA,"Video Feedback Task (Clone)",6,"In","DECFBGAHJI",NA,"study_2 (video_feedback and feedback_list_2)","Feedback_ranking_L2_first","In",1,1,2,"Positive Feedback","Video","w2ir4b",1,"response","You were incredibly clear when explaining the details!",29812.313,85947.032,85963.685,29812.313,85947.032,85963.685,1,29812.313,56151.372,0,NA,"Text Entry","Text Entry",5,"object-20","Positive Feedback","P2_P.mp4","Screenshot 2023-06-30 at 15.00.42.png","Screenshot 2023-06-30 at 15.02.01.png",NA,"SUPTM46030"
"13",1690962252034,"02/08/2023 07:44:12",1690965852034,1,"02/08/2023 09:44:12",139282,42,"task-f6fg",NA,30997202,9195426,NA,"complete",NA,NA,"computer","Desktop or Laptop","Windows 10","Chrome 115.0.0.0","1200x800","1200x651",NA,NA,NA,"Video Feedback Task (Clone)",6,"In","DECFBGAHJI",NA,"study_2 (video_feedback and feedback_list_2)","Feedback_ranking_L2_first","In",1,1,2,"Positive Feedback","Fixation","mtm832",2,"continue","",901.367000000027,901.367000000027,901.367000000027,901.367000000027,901.367000000027,901.367000000027,1,901.367000000027,0,0,NA,"Fixation Timing","Fixation",1,"object-65","Positive Feedback","P2_P.mp4","Screenshot 2023-06-30 at 15.00.42.png","Screenshot 2023-06-30 at 15.02.01.png",NA,"SUPTM46030"
"14",1690962310361,"02/08/2023 07:45:10",1690965910361,1,"02/08/2023 09:45:10",139282,42,"task-f6fg",NA,30997202,9195426,NA,"complete",NA,NA,"computer","Desktop or Laptop","Windows 10","Chrome 115.0.0.0","1200x800","1200x651",NA,NA,NA,"Video Feedback Task (Clone)",6,"In","DECFBGAHJI",NA,"study_2 (video_feedback and feedback_list_2)","Feedback_ranking_L2_first","In",1,1,2,"Neutral Feedback","Screen 1","3zrml3",1,"continue","",58334.1920000059,58321.555,58334.1920000059,58334.1920000059,58321.555,58334.1920000059,1,58334.1920000059,0,0,NA,"Click To Continue","Continue Button",1,"object-155","Neutral Feedback","P3_N.mp4","Screenshot 2023-06-30 at 15.01.08.png","Screenshot 2023-06-30 at 15.00.55.png",NA,"SUPTM46030"
