"Event.Index","UTC.Timestamp","UTC.Date.and.Time","Local.Timestamp","Local.Timezone","Local.Date.and.Time","Experiment.ID","Experiment.Version","Tree.Node.Key","Repeat.Key","Schedule.ID","Participant.Private.ID","Participant.Starting.Group","Participant.Status","Participant.Completion.Code","Participant.External.Session.ID","Participant.Device.Type","Participant.Device","Participant.OS","Participant.Browser","Participant.Monitor.Size","Participant.Viewport.Size","Checkpoint","Room.ID","Room.Order","Task.Name","Task.Version","branch.hkzp","order.ot79","randomiser.lqqr","randomiser.28m8","randomiser.tf5j","branch.vlgf","Spreadsheet","Current.Spreadsheet","Trial.Number","Display","Screen","Screen.ID","Screen.Counter","Response.Type","Response","Onset.Time","Clock.Time","Reaction.Time","Absolute.Onset.Time","Absolute.Clock.Time","Absolute.Reaction.Time","Correct","Response.Onset","Response.Duration","Proportion","Tag","Component.Name","Object.Name","Object.Number","Object.ID","Spreadsheet..display","Spreadsheet..Index","Spreadsheet..X1","Spreadsheet..X2","Spreadsheet..Display","Manipulation..Spreadsheet","Random_ID"
"1",1691930192497,"13/08/2023 12:36:32",1691933792497,1,"13/08/2023 14:36:32",139282,42,"task-nyoq",NA,31165598,9239672,NA,"complete",NA,NA,"computer","Desktop or Laptop","Windows 10","Chrome 115.0.0.0","1536x864","1536x739",NA,NA,0,"Feedback Phrases Task - List 1 (study_2)",2,"In","FGEHDICJBA","A (JV first)","study_1 (JV and feedback_list_1)",NA,"In","Feedback List 1","Feedback List 1",NA,"","","",NA,"5","BEGIN",NA,NA,NA,NA,NA,NA,0,NA,NA,NA,NA,"","",NA,"",NA,NA,"","","",NA,"SUPTM41800"
"2",1691930249182,"13/08/2023 12:37:29",1691933849182,1,"13/08/2023 14:37:29",139282,42,"task-nyoq",NA,31165598,9239672,NA,"complete",NA,NA,"computer","Desktop or Laptop","Windows 10","Chrome 115.0.0.0","1536x864","1536x739",NA,NA,0,"Feedback Phrases Task - List 1 (study_2)",2,"In","FGEHDICJBA","A (JV first)","study_1 (JV and feedback_list_1)",NA,"In","Feedback List 1","Feedback List 1",1,"Instructions","Screen 3","6w7c99",1,"continue","",56698.871,56681.585,56698.871,56698.871,56681.585,56698.871,1,56698.871,0,0,NA,"Click To Continue","Continue Button",2,"object-29",NA,NA,"","","Instructions",NA,"SUPTM41800"
"3",1691930251630,"13/08/2023 12:37:31",1691933851630,1,"13/08/2023 14:37:31",139282,42,"task-nyoq",NA,31165598,9239672,NA,"complete",NA,NA,"computer","Desktop or Laptop","Windows 10","Chrome 115.0.0.0","1536x864","1536x739",NA,NA,0,"Feedback Phrases Task - List 1 (study_2)",2,"In","FGEHDICJBA","A (JV first)","study_1 (JV and feedback_list_1)",NA,"In","Feedback List 1","Feedback List 1",1,"Instructions","Screen 4","4vof69",2,"continue","",2466.459,2465.042,2466.459,2466.459,2465.042,2466.459,1,2466.459,0,0,NA,"Click To Continue","Continue Button",2,"object-41",NA,NA,"","","Instructions",NA,"SUPTM41800"
"4",1691930261442,"13/08/2023 12:37:41",1691933861442,1,"13/08/2023 14:37:41",139282,42,"task-nyoq",NA,31165598,9239672,NA,"complete",NA,NA,"computer","Desktop or Laptop","Windows 10","Chrome 115.0.0.0","1536x864","1536x739",NA,NA,0,"Feedback Phrases Task - List 1 (study_2)",2,"In","FGEHDICJBA","A (JV first)","study_1 (JV and feedback_list_1)",NA,"In","Feedback List 1","Feedback List 1",1,"Task","Screen 1","113qg5",1,"response","You made a great impression.",9813.11699998808,9799.827,9813.11699998808,9813.11699998808,9799.827,9813.11699998808,1,9813.11699998808,0,0,NA,"Click Response","Text_right_X2",3,"object-19",NA,1,"You were very interesting to listen to.","You made a great impression.","Task",NA,"SUPTM41800"
"5",1691930261443,"13/08/2023 12:37:41",1691933861443,1,"13/08/2023 14:37:41",139282,42,"task-nyoq",NA,31165598,9239672,NA,"complete",NA,NA,"computer","Desktop or Laptop","Windows 10","Chrome 115.0.0.0","1536x864","1536x739",NA,NA,0,"Feedback Phrases Task - List 1 (study_2)",2,"In","FGEHDICJBA","A (JV first)","study_1 (JV and feedback_list_1)",NA,"In","Feedback List 1","Feedback List 1",1,"Task","Screen 1","113qg5",1,"action","Text",9814.71700001192,9799.827,9814.71700001192,9814.71700001192,9799.827,9814.71700001192,1,9814.71700001192,0,0,NA,"Mousetracking","screen",0,"screen",NA,1,"You were very interesting to listen to.","You made a great impression.","Task",NA,"SUPTM41800"
"6",1691930261444,"13/08/2023 12:37:41",1691933861444,1,"13/08/2023 14:37:41",139282,42,"task-nyoq",NA,31165598,9239672,NA,"complete",NA,NA,"computer","Desktop or Laptop","Windows 10","Chrome 115.0.0.0","1536x864","1536x739",NA,NA,0,"Feedback Phrases Task - List 1 (study_2)",2,"In","FGEHDICJBA","A (JV first)","study_1 (JV and feedback_list_1)",NA,"In","Feedback List 1","Feedback List 1",1,"Task","Screen 1","113qg5",1,"action","Text_left_X1",9814.81700003576,9799.827,9814.81700003576,9814.81700003576,9799.827,9814.81700003576,1,9814.81700003576,0,0,NA,"Mousetracking","screen",0,"screen",NA,1,"You were very interesting to listen to.","You made a great impression.","Task",NA,"SUPTM41800"
"7",1691930261444,"13/08/2023 12:37:41",1691933861444,1,"13/08/2023 14:37:41",139282,42,"task-nyoq",NA,31165598,9239672,NA,"complete",NA,NA,"computer","Desktop or Laptop","Windows 10","Chrome 115.0.0.0","1536x864","1536x739",NA,NA,0,"Feedback Phrases Task - List 1 (study_2)",2,"In","FGEHDICJBA","A (JV first)","study_1 (JV and feedback_list_1)",NA,"In","Feedback List 1","Feedback List 1",1,"Task","Screen 1","113qg5",1,"action","Text_right_X2",9815.11699998808,9799.827,9815.11699998808,9815.11699998808,9799.827,9815.11699998808,1,9815.11699998808,0,0,NA,"Mousetracking","screen",0,"screen",NA,1,"You were very interesting to listen to.","You made a great impression.","Task",NA,"SUPTM41800"
"8",1691930263196,"13/08/2023 12:37:43",1691933863196,1,"13/08/2023 14:37:43",139282,42,"task-nyoq",NA,31165598,9239672,NA,"complete",NA,NA,"computer","Desktop or Laptop","Windows 10","Chrome 115.0.0.0","1536x864","1536x739",NA,NA,0,"Feedback Phrases Task - List 1 (study_2)",2,"In","FGEHDICJBA","A (JV first)","study_1 (JV and feedback_list_1)",NA,"In","Feedback List 1","Feedback List 1",1,"Task","Screen 3","izqege",2,"continue","",1766.50499999999,1766.50499999999,1766.50499999999,1766.50499999999,1766.50499999999,1766.50499999999,1,1766.50499999999,0,0,NA,"Fixation Timing","Fixation Cross",1,"object-48",NA,1,"You were very interesting to listen to.","You made a great impression.","Task",NA,"SUPTM41800"
"9",1691930276429,"13/08/2023 12:37:56",1691933876429,1,"13/08/2023 14:37:56",139282,42,"task-nyoq",NA,31165598,9239672,NA,"complete",NA,NA,"computer","Desktop or Laptop","Windows 10","Chrome 115.0.0.0","1536x864","1536x739",NA,NA,0,"Feedback Phrases Task - List 1 (study_2)",2,"In","FGEHDICJBA","A (JV first)","study_1 (JV and feedback_list_1)",NA,"In","Feedback List 1","Feedback List 1",2,"Task","Screen 1","113qg5",1,"response","You seem very clever.",13234.2849999881,13232.296,13234.2849999881,13234.2849999881,13232.296,13234.2849999881,1,13234.2849999881,0,0,NA,"Click Response","Text_right_X2",3,"object-19",NA,1,"I didn't notice any mistakes.","You seem very clever.","Task",NA,"SUPTM41800"
"10",1691930276432,"13/08/2023 12:37:56",1691933876432,1,"13/08/2023 14:37:56",139282,42,"task-nyoq",NA,31165598,9239672,NA,"complete",NA,NA,"computer","Desktop or Laptop","Windows 10","Chrome 115.0.0.0","1536x864","1536x739",NA,NA,0,"Feedback Phrases Task - List 1 (study_2)",2,"In","FGEHDICJBA","A (JV first)","study_1 (JV and feedback_list_1)",NA,"In","Feedback List 1","Feedback List 1",2,"Task","Screen 1","113qg5",1,"action","Text",13236.4850000358,13232.296,13236.4850000358,13236.4850000358,13232.296,13236.4850000358,1,13236.4850000358,0,0,NA,"Mousetracking","screen",0,"screen",NA,1,"I didn't notice any mistakes.","You seem very clever.","Task",NA,"SUPTM41800"
"11",1691930276432,"13/08/2023 12:37:56",1691933876432,1,"13/08/2023 14:37:56",139282,42,"task-nyoq",NA,31165598,9239672,NA,"complete",NA,NA,"computer","Desktop or Laptop","Windows 10","Chrome 115.0.0.0","1536x864","1536x739",NA,NA,0,"Feedback Phrases Task - List 1 (study_2)",2,"In","FGEHDICJBA","A (JV first)","study_1 (JV and feedback_list_1)",NA,"In","Feedback List 1","Feedback List 1",2,"Task","Screen 1","113qg5",1,"action","Text_left_X1",13236.6850000238,13232.296,13236.6850000238,13236.6850000238,13232.296,13236.6850000238,1,13236.6850000238,0,0,NA,"Mousetracking","screen",0,"screen",NA,1,"I didn't notice any mistakes.","You seem very clever.","Task",NA,"SUPTM41800"
"12",1691930276432,"13/08/2023 12:37:56",1691933876432,1,"13/08/2023 14:37:56",139282,42,"task-nyoq",NA,31165598,9239672,NA,"complete",NA,NA,"computer","Desktop or Laptop","Windows 10","Chrome 115.0.0.0","1536x864","1536x739",NA,NA,0,"Feedback Phrases Task - List 1 (study_2)",2,"In","FGEHDICJBA","A (JV first)","study_1 (JV and feedback_list_1)",NA,"In","Feedback List 1","Feedback List 1",2,"Task","Screen 1","113qg5",1,"action","Text_right_X2",13236.9850000358,13232.296,13236.9850000358,13236.9850000358,13232.296,13236.9850000358,1,13236.9850000358,0,0,NA,"Mousetracking","screen",0,"screen",NA,1,"I didn't notice any mistakes.","You seem very clever.","Task",NA,"SUPTM41800"
"13",1691930278195,"13/08/2023 12:37:58",1691933878195,1,"13/08/2023 14:37:58",139282,42,"task-nyoq",NA,31165598,9239672,NA,"complete",NA,NA,"computer","Desktop or Laptop","Windows 10","Chrome 115.0.0.0","1536x864","1536x739",NA,NA,0,"Feedback Phrases Task - List 1 (study_2)",2,"In","FGEHDICJBA","A (JV first)","study_1 (JV and feedback_list_1)",NA,"In","Feedback List 1","Feedback List 1",2,"Task","Screen 3","izqege",2,"continue","",1766.758,1766.758,1766.758,1766.758,1766.758,1766.758,1,1766.758,0,0,NA,"Fixation Timing","Fixation Cross",1,"object-48",NA,1,"I didn't notice any mistakes.","You seem very clever.","Task",NA,"SUPTM41800"
"14",1691930280952,"13/08/2023 12:38:00",1691933880952,1,"13/08/2023 14:38:00",139282,42,"task-nyoq",NA,31165598,9239672,NA,"complete",NA,NA,"computer","Desktop or Laptop","Windows 10","Chrome 115.0.0.0","1536x864","1536x739",NA,NA,0,"Feedback Phrases Task - List 1 (study_2)",2,"In","FGEHDICJBA","A (JV first)","study_1 (JV and feedback_list_1)",NA,"In","Feedback List 1","Feedback List 1",3,"Task","Screen 1","113qg5",1,"response","Your description was very clear and concise.",2757.63100002384,2749.874,2757.63100002384,2757.63100002384,2749.874,2757.63100002384,1,2757.63100002384,0,0,NA,"Click Response","Text_right_X2",3,"object-19",NA,1,"You met expectations.","Your description was very clear and concise.","Task",NA,"SUPTM41800"
"15",1691930280952,"13/08/2023 12:38:00",1691933880952,1,"13/08/2023 14:38:00",139282,42,"task-nyoq",NA,31165598,9239672,NA,"complete",NA,NA,"computer","Desktop or Laptop","Windows 10","Chrome 115.0.0.0","1536x864","1536x739",NA,NA,0,"Feedback Phrases Task - List 1 (study_2)",2,"In","FGEHDICJBA","A (JV first)","study_1 (JV and feedback_list_1)",NA,"In","Feedback List 1","Feedback List 1",3,"Task","Screen 1","113qg5",1,"action","Text",2757.83100001192,2749.874,2757.83100001192,2757.83100001192,2749.874,2757.83100001192,1,2757.83100001192,0,0,NA,"Mousetracking","screen",0,"screen",NA,1,"You met expectations.","Your description was very clear and concise.","Task",NA,"SUPTM41800"
"16",1691930280952,"13/08/2023 12:38:00",1691933880952,1,"13/08/2023 14:38:00",139282,42,"task-nyoq",NA,31165598,9239672,NA,"complete",NA,NA,"computer","Desktop or Laptop","Windows 10","Chrome 115.0.0.0","1536x864","1536x739",NA,NA,0,"Feedback Phrases Task - List 1 (study_2)",2,"In","FGEHDICJBA","A (JV first)","study_1 (JV and feedback_list_1)",NA,"In","Feedback List 1","Feedback List 1",3,"Task","Screen 1","113qg5",1,"action","Text_left_X1",2758.031,2749.874,2758.031,2758.031,2749.874,2758.031,1,2758.031,0,0,NA,"Mousetracking","screen",0,"screen",NA,1,"You met expectations.","Your description was very clear and concise.","Task",NA,"SUPTM41800"
"17",1691930280952,"13/08/2023 12:38:00",1691933880952,1,"13/08/2023 14:38:00",139282,42,"task-nyoq",NA,31165598,9239672,NA,"complete",NA,NA,"computer","Desktop or Laptop","Windows 10","Chrome 115.0.0.0","1536x864","1536x739",NA,NA,0,"Feedback Phrases Task - List 1 (study_2)",2,"In","FGEHDICJBA","A (JV first)","study_1 (JV and feedback_list_1)",NA,"In","Feedback List 1","Feedback List 1",3,"Task","Screen 1","113qg5",1,"action","Text_right_X2",2758.33100001192,2749.874,2758.33100001192,2758.33100001192,2749.874,2758.33100001192,1,2758.33100001192,0,0,NA,"Mousetracking","screen",0,"screen",NA,1,"You met expectations.","Your description was very clear and concise.","Task",NA,"SUPTM41800"
"18",1691930282711,"13/08/2023 12:38:02",1691933882711,1,"13/08/2023 14:38:02",139282,42,"task-nyoq",NA,31165598,9239672,NA,"complete",NA,NA,"computer","Desktop or Laptop","Windows 10","Chrome 115.0.0.0","1536x864","1536x739",NA,NA,0,"Feedback Phrases Task - List 1 (study_2)",2,"In","FGEHDICJBA","A (JV first)","study_1 (JV and feedback_list_1)",NA,"In","Feedback List 1","Feedback List 1",3,"Task","Screen 3","izqege",2,"continue","",1766.67200000001,1766.67200000001,1766.67200000001,1766.67200000001,1766.67200000001,1766.67200000001,1,1766.67200000001,0,0,NA,"Fixation Timing","Fixation Cross",1,"object-48",NA,1,"You met expectations.","Your description was very clear and concise.","Task",NA,"SUPTM41800"
"19",1691930285645,"13/08/2023 12:38:05",1691933885645,1,"13/08/2023 14:38:05",139282,42,"task-nyoq",NA,31165598,9239672,NA,"complete",NA,NA,"computer","Desktop or Laptop","Windows 10","Chrome 115.0.0.0","1536x864","1536x739",NA,NA,0,"Feedback Phrases Task - List 1 (study_2)",2,"In","FGEHDICJBA","A (JV first)","study_1 (JV and feedback_list_1)",NA,"In","Feedback List 1","Feedback List 1",4,"Task","Screen 1","113qg5",1,"response","You spoke very well.",2933.414,2916.603,2933.414,2933.414,2916.603,2933.414,1,2933.414,0,0,NA,"Click Response","Text_right_X2",3,"object-19",NA,1,"You did a great job of capturing the details.","You spoke very well.","Task",NA,"SUPTM41800"
"20",1691930285645,"13/08/2023 12:38:05",1691933885645,1,"13/08/2023 14:38:05",139282,42,"task-nyoq",NA,31165598,9239672,NA,"complete",NA,NA,"computer","Desktop or Laptop","Windows 10","Chrome 115.0.0.0","1536x864","1536x739",NA,NA,0,"Feedback Phrases Task - List 1 (study_2)",2,"In","FGEHDICJBA","A (JV first)","study_1 (JV and feedback_list_1)",NA,"In","Feedback List 1","Feedback List 1",4,"Task","Screen 1","113qg5",1,"action","Text",2933.414,2916.603,2933.414,2933.414,2916.603,2933.414,1,2933.414,0,0,NA,"Mousetracking","screen",0,"screen",NA,1,"You did a great job of capturing the details.","You spoke very well.","Task",NA,"SUPTM41800"
"21",1691930285645,"13/08/2023 12:38:05",1691933885645,1,"13/08/2023 14:38:05",139282,42,"task-nyoq",NA,31165598,9239672,NA,"complete",NA,NA,"computer","Desktop or Laptop","Windows 10","Chrome 115.0.0.0","1536x864","1536x739",NA,NA,0,"Feedback Phrases Task - List 1 (study_2)",2,"In","FGEHDICJBA","A (JV first)","study_1 (JV and feedback_list_1)",NA,"In","Feedback List 1","Feedback List 1",4,"Task","Screen 1","113qg5",1,"action","Text_left_X1",2933.414,2916.603,2933.414,2933.414,2916.603,2933.414,1,2933.414,0,0,NA,"Mousetracking","screen",0,"screen",NA,1,"You did a great job of capturing the details.","You spoke very well.","Task",NA,"SUPTM41800"
"22",1691930285646,"13/08/2023 12:38:05",1691933885646,1,"13/08/2023 14:38:05",139282,42,"task-nyoq",NA,31165598,9239672,NA,"complete",NA,NA,"computer","Desktop or Laptop","Windows 10","Chrome 115.0.0.0","1536x864","1536x739",NA,NA,0,"Feedback Phrases Task - List 1 (study_2)",2,"In","FGEHDICJBA","A (JV first)","study_1 (JV and feedback_list_1)",NA,"In","Feedback List 1","Feedback List 1",4,"Task","Screen 1","113qg5",1,"action","Text_right_X2",2933.414,2916.603,2933.414,2933.414,2916.603,2933.414,1,2933.414,0,0,NA,"Mousetracking","screen",0,"screen",NA,1,"You did a great job of capturing the details.","You spoke very well.","Task",NA,"SUPTM41800"
"23",1691930287395,"13/08/2023 12:38:07",1691933887395,1,"13/08/2023 14:38:07",139282,42,"task-nyoq",NA,31165598,9239672,NA,"complete",NA,NA,"computer","Desktop or Laptop","Windows 10","Chrome 115.0.0.0","1536x864","1536x739",NA,NA,0,"Feedback Phrases Task - List 1 (study_2)",2,"In","FGEHDICJBA","A (JV first)","study_1 (JV and feedback_list_1)",NA,"In","Feedback List 1","Feedback List 1",4,"Task","Screen 3","izqege",2,"continue","",1766.42,1766.42,1766.42,1766.42,1766.42,1766.42,1,1766.42,0,0,NA,"Fixation Timing","Fixation Cross",1,"object-48",NA,1,"You did a great job of capturing the details.","You spoke very well.","Task",NA,"SUPTM41800"
"24",1691930365862,"13/08/2023 12:39:25",1691933965862,1,"13/08/2023 14:39:25",139282,42,"task-nyoq",NA,31165598,9239672,NA,"complete",NA,NA,"computer","Desktop or Laptop","Windows 10","Chrome 115.0.0.0","1536x864","1536x739",NA,NA,0,"Feedback Phrases Task - List 1 (study_2)",2,"In","FGEHDICJBA","A (JV first)","study_1 (JV and feedback_list_1)",NA,"In","Feedback List 1","Feedback List 1",5,"Task","Screen 1","113qg5",1,"response","Your description was very clear and concise.",78463.28,78446.314,78463.28,78463.28,78446.314,78463.28,1,78463.28,0,0,NA,"Click Response","Text_right_X2",3,"object-19",NA,1,"You did a great job of capturing the details.","Your description was very clear and concise.","Task",NA,"SUPTM41800"
"25",1691930365863,"13/08/2023 12:39:25",1691933965863,1,"13/08/2023 14:39:25",139282,42,"task-nyoq",NA,31165598,9239672,NA,"complete",NA,NA,"computer","Desktop or Laptop","Windows 10","Chrome 115.0.0.0","1536x864","1536x739",NA,NA,0,"Feedback Phrases Task - List 1 (study_2)",2,"In","FGEHDICJBA","A (JV first)","study_1 (JV and feedback_list_1)",NA,"In","Feedback List 1","Feedback List 1",5,"Task","Screen 1","113qg5",1,"action","Text",78463.28,78446.314,78463.28,78463.28,78446.314,78463.28,1,78463.28,0,0,NA,"Mousetracking","screen",0,"screen",NA,1,"You did a great job of capturing the details.","Your description was very clear and concise.","Task",NA,"SUPTM41800"
"26",1691930365864,"13/08/2023 12:39:25",1691933965864,1,"13/08/2023 14:39:25",139282,42,"task-nyoq",NA,31165598,9239672,NA,"complete",NA,NA,"computer","Desktop or Laptop","Windows 10","Chrome 115.0.0.0","1536x864","1536x739",NA,NA,0,"Feedback Phrases Task - List 1 (study_2)",2,"In","FGEHDICJBA","A (JV first)","study_1 (JV and feedback_list_1)",NA,"In","Feedback List 1","Feedback List 1",5,"Task","Screen 1","113qg5",1,"action","Text_left_X1",78463.28,78446.314,78463.28,78463.28,78446.314,78463.28,1,78463.28,0,0,NA,"Mousetracking","screen",0,"screen",NA,1,"You did a great job of capturing the details.","Your description was very clear and concise.","Task",NA,"SUPTM41800"
"27",1691930365864,"13/08/2023 12:39:25",1691933965864,1,"13/08/2023 14:39:25",139282,42,"task-nyoq",NA,31165598,9239672,NA,"complete",NA,NA,"computer","Desktop or Laptop","Windows 10","Chrome 115.0.0.0","1536x864","1536x739",NA,NA,0,"Feedback Phrases Task - List 1 (study_2)",2,"In","FGEHDICJBA","A (JV first)","study_1 (JV and feedback_list_1)",NA,"In","Feedback List 1","Feedback List 1",5,"Task","Screen 1","113qg5",1,"action","Text_right_X2",78463.28,78446.314,78463.28,78463.28,78446.314,78463.28,1,78463.28,0,0,NA,"Mousetracking","screen",0,"screen",NA,1,"You did a great job of capturing the details.","Your description was very clear and concise.","Task",NA,"SUPTM41800"
"28",1691930367611,"13/08/2023 12:39:27",1691933967611,1,"13/08/2023 14:39:27",139282,42,"task-nyoq",NA,31165598,9239672,NA,"complete",NA,NA,"computer","Desktop or Laptop","Windows 10","Chrome 115.0.0.0","1536x864","1536x739",NA,NA,0,"Feedback Phrases Task - List 1 (study_2)",2,"In","FGEHDICJBA","A (JV first)","study_1 (JV and feedback_list_1)",NA,"In","Feedback List 1","Feedback List 1",5,"Task","Screen 3","izqege",2,"continue","",1765.46799999999,1765.46799999999,1765.46799999999,1765.46799999999,1765.46799999999,1765.46799999999,1,1765.46799999999,0,0,NA,"Fixation Timing","Fixation Cross",1,"object-48",NA,1,"You did a great job of capturing the details.","Your description was very clear and concise.","Task",NA,"SUPTM41800"
"29",1691930370423,"13/08/2023 12:39:30",1691933970423,1,"13/08/2023 14:39:30",139282,42,"task-nyoq",NA,31165598,9239672,NA,"complete",NA,NA,"computer","Desktop or Laptop","Windows 10","Chrome 115.0.0.0","1536x864","1536x739",NA,NA,0,"Feedback Phrases Task - List 1 (study_2)",2,"In","FGEHDICJBA","A (JV first)","study_1 (JV and feedback_list_1)",NA,"In","Feedback List 1","Feedback List 1",6,"Task","Screen 1","113qg5",1,"response","You came across as very calm and collected.",2815.17999999999,2799.89799999999,2815.17999999999,2815.17999999999,2799.89799999999,2815.17999999999,1,2815.17999999999,0,0,NA,"Click Response","Text_left_X1",2,"object-18",NA,1,"You came across as very calm and collected.","You were very interesting to listen to.","Task",NA,"SUPTM41800"
"30",1691930370424,"13/08/2023 12:39:30",1691933970424,1,"13/08/2023 14:39:30",139282,42,"task-nyoq",NA,31165598,9239672,NA,"complete",NA,NA,"computer","Desktop or Laptop","Windows 10","Chrome 115.0.0.0","1536x864","1536x739",NA,NA,0,"Feedback Phrases Task - List 1 (study_2)",2,"In","FGEHDICJBA","A (JV first)","study_1 (JV and feedback_list_1)",NA,"In","Feedback List 1","Feedback List 1",6,"Task","Screen 1","113qg5",1,"action","Text",2815.98899999997,2799.89799999999,2815.98899999997,2815.98899999997,2799.89799999999,2815.98899999997,1,2815.98899999997,0,0,NA,"Mousetracking","screen",0,"screen",NA,1,"You came across as very calm and collected.","You were very interesting to listen to.","Task",NA,"SUPTM41800"
"31",1691930370424,"13/08/2023 12:39:30",1691933970424,1,"13/08/2023 14:39:30",139282,42,"task-nyoq",NA,31165598,9239672,NA,"complete",NA,NA,"computer","Desktop or Laptop","Windows 10","Chrome 115.0.0.0","1536x864","1536x739",NA,NA,0,"Feedback Phrases Task - List 1 (study_2)",2,"In","FGEHDICJBA","A (JV first)","study_1 (JV and feedback_list_1)",NA,"In","Feedback List 1","Feedback List 1",6,"Task","Screen 1","113qg5",1,"action","Text_left_X1",2815.98899999997,2799.89799999999,2815.98899999997,2815.98899999997,2799.89799999999,2815.98899999997,1,2815.98899999997,0,0,NA,"Mousetracking","screen",0,"screen",NA,1,"You came across as very calm and collected.","You were very interesting to listen to.","Task",NA,"SUPTM41800"
"32",1691930370425,"13/08/2023 12:39:30",1691933970425,1,"13/08/2023 14:39:30",139282,42,"task-nyoq",NA,31165598,9239672,NA,"complete",NA,NA,"computer","Desktop or Laptop","Windows 10","Chrome 115.0.0.0","1536x864","1536x739",NA,NA,0,"Feedback Phrases Task - List 1 (study_2)",2,"In","FGEHDICJBA","A (JV first)","study_1 (JV and feedback_list_1)",NA,"In","Feedback List 1","Feedback List 1",6,"Task","Screen 1","113qg5",1,"action","Text_right_X2",2815.98899999997,2799.89799999999,2815.98899999997,2815.98899999997,2799.89799999999,2815.98899999997,1,2815.98899999997,0,0,NA,"Mousetracking","screen",0,"screen",NA,1,"You came across as very calm and collected.","You were very interesting to listen to.","Task",NA,"SUPTM41800"
"33",1691930372176,"13/08/2023 12:39:32",1691933972176,1,"13/08/2023 14:39:32",139282,42,"task-nyoq",NA,31165598,9239672,NA,"complete",NA,NA,"computer","Desktop or Laptop","Windows 10","Chrome 115.0.0.0","1536x864","1536x739",NA,NA,0,"Feedback Phrases Task - List 1 (study_2)",2,"In","FGEHDICJBA","A (JV first)","study_1 (JV and feedback_list_1)",NA,"In","Feedback List 1","Feedback List 1",6,"Task","Screen 3","izqege",2,"continue","",1766.81200000001,1766.81200000001,1766.81200000001,1766.81200000001,1766.81200000001,1766.81200000001,1,1766.81200000001,0,0,NA,"Fixation Timing","Fixation Cross",1,"object-48",NA,1,"You came across as very calm and collected.","You were very interesting to listen to.","Task",NA,"SUPTM41800"
"34",1691930373512,"13/08/2023 12:39:33",1691933973512,1,"13/08/2023 14:39:33",139282,42,"task-nyoq",NA,31165598,9239672,NA,"complete",NA,NA,"computer","Desktop or Laptop","Windows 10","Chrome 115.0.0.0","1536x864","1536x739",NA,NA,0,"Feedback Phrases Task - List 1 (study_2)",2,"In","FGEHDICJBA","A (JV first)","study_1 (JV and feedback_list_1)",NA,"In","Feedback List 1","Feedback List 1",7,"Task","Screen 1","113qg5",1,"response","You completed the task.",1337.47,1333.64499999999,1337.47,1337.47,1333.64499999999,1337.47,1,1337.47,0,0,NA,"Click Response","Text_left_X1",2,"object-18",NA,1,"You completed the task.","You met expectations.","Task",NA,"SUPTM41800"
"35",1691930373513,"13/08/2023 12:39:33",1691933973513,1,"13/08/2023 14:39:33",139282,42,"task-nyoq",NA,31165598,9239672,NA,"complete",NA,NA,"computer","Desktop or Laptop","Windows 10","Chrome 115.0.0.0","1536x864","1536x739",NA,NA,0,"Feedback Phrases Task - List 1 (study_2)",2,"In","FGEHDICJBA","A (JV first)","study_1 (JV and feedback_list_1)",NA,"In","Feedback List 1","Feedback List 1",7,"Task","Screen 1","113qg5",1,"action","Text",1337.77000001192,1333.64499999999,1337.77000001192,1337.77000001192,1333.64499999999,1337.77000001192,1,1337.77000001192,0,0,NA,"Mousetracking","screen",0,"screen",NA,1,"You completed the task.","You met expectations.","Task",NA,"SUPTM41800"
"36",1691930373513,"13/08/2023 12:39:33",1691933973513,1,"13/08/2023 14:39:33",139282,42,"task-nyoq",NA,31165598,9239672,NA,"complete",NA,NA,"computer","Desktop or Laptop","Windows 10","Chrome 115.0.0.0","1536x864","1536x739",NA,NA,0,"Feedback Phrases Task - List 1 (study_2)",2,"In","FGEHDICJBA","A (JV first)","study_1 (JV and feedback_list_1)",NA,"In","Feedback List 1","Feedback List 1",7,"Task","Screen 1","113qg5",1,"action","Text_left_X1",1337.97,1333.64499999999,1337.97,1337.97,1333.64499999999,1337.97,1,1337.97,0,0,NA,"Mousetracking","screen",0,"screen",NA,1,"You completed the task.","You met expectations.","Task",NA,"SUPTM41800"
"37",1691930373513,"13/08/2023 12:39:33",1691933973513,1,"13/08/2023 14:39:33",139282,42,"task-nyoq",NA,31165598,9239672,NA,"complete",NA,NA,"computer","Desktop or Laptop","Windows 10","Chrome 115.0.0.0","1536x864","1536x739",NA,NA,0,"Feedback Phrases Task - List 1 (study_2)",2,"In","FGEHDICJBA","A (JV first)","study_1 (JV and feedback_list_1)",NA,"In","Feedback List 1","Feedback List 1",7,"Task","Screen 1","113qg5",1,"action","Text_right_X2",1338.37000003576,1333.64499999999,1338.37000003576,1338.37000003576,1333.64499999999,1338.37000003576,1,1338.37000003576,0,0,NA,"Mousetracking","screen",0,"screen",NA,1,"You completed the task.","You met expectations.","Task",NA,"SUPTM41800"
"38",1691930375275,"13/08/2023 12:39:35",1691933975275,1,"13/08/2023 14:39:35",139282,42,"task-nyoq",NA,31165598,9239672,NA,"complete",NA,NA,"computer","Desktop or Laptop","Windows 10","Chrome 115.0.0.0","1536x864","1536x739",NA,NA,0,"Feedback Phrases Task - List 1 (study_2)",2,"In","FGEHDICJBA","A (JV first)","study_1 (JV and feedback_list_1)",NA,"In","Feedback List 1","Feedback List 1",7,"Task","Screen 3","izqege",2,"continue","",1766.18400000001,1766.18400000001,1766.18400000001,1766.18400000001,1766.18400000001,1766.18400000001,1,1766.18400000001,0,0,NA,"Fixation Timing","Fixation Cross",1,"object-48",NA,1,"You completed the task.","You met expectations.","Task",NA,"SUPTM41800"
"39",1691930377042,"13/08/2023 12:39:37",1691933977042,1,"13/08/2023 14:39:37",139282,42,"task-nyoq",NA,31165598,9239672,NA,"complete",NA,NA,"computer","Desktop or Laptop","Windows 10","Chrome 115.0.0.0","1536x864","1536x739",NA,NA,0,"Feedback Phrases Task - List 1 (study_2)",2,"In","FGEHDICJBA","A (JV first)","study_1 (JV and feedback_list_1)",NA,"In","Feedback List 1","Feedback List 1",8,"Task","Screen 1","113qg5",1,"response","You did a great job of capturing the details.",1766.74100002385,1750.764,1766.74100002385,1766.74100002385,1750.764,1766.74100002385,1,1766.74100002385,0,0,NA,"Click Response","Text_left_X1",2,"object-18",NA,1,"You did a great job of capturing the details.","I didn't notice any mistakes.","Task",NA,"SUPTM41800"
"40",1691930377048,"13/08/2023 12:39:37",1691933977048,1,"13/08/2023 14:39:37",139282,42,"task-nyoq",NA,31165598,9239672,NA,"complete",NA,NA,"computer","Desktop or Laptop","Windows 10","Chrome 115.0.0.0","1536x864","1536x739",NA,NA,0,"Feedback Phrases Task - List 1 (study_2)",2,"In","FGEHDICJBA","A (JV first)","study_1 (JV and feedback_list_1)",NA,"In","Feedback List 1","Feedback List 1",8,"Task","Screen 1","113qg5",1,"action","Text",1767.04499999998,1750.764,1767.04499999998,1767.04499999998,1750.764,1767.04499999998,1,1767.04499999998,0,0,NA,"Mousetracking","screen",0,"screen",NA,1,"You did a great job of capturing the details.","I didn't notice any mistakes.","Task",NA,"SUPTM41800"
"41",1691930377049,"13/08/2023 12:39:37",1691933977049,1,"13/08/2023 14:39:37",139282,42,"task-nyoq",NA,31165598,9239672,NA,"complete",NA,NA,"computer","Desktop or Laptop","Windows 10","Chrome 115.0.0.0","1536x864","1536x739",NA,NA,0,"Feedback Phrases Task - List 1 (study_2)",2,"In","FGEHDICJBA","A (JV first)","study_1 (JV and feedback_list_1)",NA,"In","Feedback List 1","Feedback List 1",8,"Task","Screen 1","113qg5",1,"action","Text_left_X1",1767.04499999998,1750.764,1767.04499999998,1767.04499999998,1750.764,1767.04499999998,1,1767.04499999998,0,0,NA,"Mousetracking","screen",0,"screen",NA,1,"You did a great job of capturing the details.","I didn't notice any mistakes.","Task",NA,"SUPTM41800"
"42",1691930377049,"13/08/2023 12:39:37",1691933977049,1,"13/08/2023 14:39:37",139282,42,"task-nyoq",NA,31165598,9239672,NA,"complete",NA,NA,"computer","Desktop or Laptop","Windows 10","Chrome 115.0.0.0","1536x864","1536x739",NA,NA,0,"Feedback Phrases Task - List 1 (study_2)",2,"In","FGEHDICJBA","A (JV first)","study_1 (JV and feedback_list_1)",NA,"In","Feedback List 1","Feedback List 1",8,"Task","Screen 1","113qg5",1,"action","Text_right_X2",1767.04499999998,1750.764,1767.04499999998,1767.04499999998,1750.764,1767.04499999998,1,1767.04499999998,0,0,NA,"Mousetracking","screen",0,"screen",NA,1,"You did a great job of capturing the details.","I didn't notice any mistakes.","Task",NA,"SUPTM41800"
"43",1691930378792,"13/08/2023 12:39:38",1691933978792,1,"13/08/2023 14:39:38",139282,42,"task-nyoq",NA,31165598,9239672,NA,"complete",NA,NA,"computer","Desktop or Laptop","Windows 10","Chrome 115.0.0.0","1536x864","1536x739",NA,NA,0,"Feedback Phrases Task - List 1 (study_2)",2,"In","FGEHDICJBA","A (JV first)","study_1 (JV and feedback_list_1)",NA,"In","Feedback List 1","Feedback List 1",8,"Task","Screen 3","izqege",2,"continue","",1765.69899999999,1765.69899999999,1765.69899999999,1765.69899999999,1765.69899999999,1765.69899999999,1,1765.69899999999,0,0,NA,"Fixation Timing","Fixation Cross",1,"object-48",NA,1,"You did a great job of capturing the details.","I didn't notice any mistakes.","Task",NA,"SUPTM41800"
"44",1691930383088,"13/08/2023 12:39:43",1691933983088,1,"13/08/2023 14:39:43",139282,42,"task-nyoq",NA,31165598,9239672,NA,"complete",NA,NA,"computer","Desktop or Laptop","Windows 10","Chrome 115.0.0.0","1536x864","1536x739",NA,NA,0,"Feedback Phrases Task - List 1 (study_2)",2,"In","FGEHDICJBA","A (JV first)","study_1 (JV and feedback_list_1)",NA,"In","Feedback List 1","Feedback List 1",9,"Task","Screen 1","113qg5",1,"response","You came across as very calm and collected.",4296.57800003578,4283.05900000001,4296.57800003578,4296.57800003578,4283.05900000001,4296.57800003578,1,4296.57800003578,0,0,NA,"Click Response","Text_right_X2",3,"object-19",NA,1,"You appeared very composed.","You came across as very calm and collected.","Task",NA,"SUPTM41800"
"45",1691930383088,"13/08/2023 12:39:43",1691933983088,1,"13/08/2023 14:39:43",139282,42,"task-nyoq",NA,31165598,9239672,NA,"complete",NA,NA,"computer","Desktop or Laptop","Windows 10","Chrome 115.0.0.0","1536x864","1536x739",NA,NA,0,"Feedback Phrases Task - List 1 (study_2)",2,"In","FGEHDICJBA","A (JV first)","study_1 (JV and feedback_list_1)",NA,"In","Feedback List 1","Feedback List 1",9,"Task","Screen 1","113qg5",1,"action","Text",4296.77800002386,4283.05900000001,4296.77800002386,4296.77800002386,4283.05900000001,4296.77800002386,1,4296.77800002386,0,0,NA,"Mousetracking","screen",0,"screen",NA,1,"You appeared very composed.","You came across as very calm and collected.","Task",NA,"SUPTM41800"
"46",1691930383088,"13/08/2023 12:39:43",1691933983088,1,"13/08/2023 14:39:43",139282,42,"task-nyoq",NA,31165598,9239672,NA,"complete",NA,NA,"computer","Desktop or Laptop","Windows 10","Chrome 115.0.0.0","1536x864","1536x739",NA,NA,0,"Feedback Phrases Task - List 1 (study_2)",2,"In","FGEHDICJBA","A (JV first)","study_1 (JV and feedback_list_1)",NA,"In","Feedback List 1","Feedback List 1",9,"Task","Screen 1","113qg5",1,"action","Text_left_X1",4296.97800001194,4283.05900000001,4296.97800001194,4296.97800001194,4283.05900000001,4296.97800001194,1,4296.97800001194,0,0,NA,"Mousetracking","screen",0,"screen",NA,1,"You appeared very composed.","You came across as very calm and collected.","Task",NA,"SUPTM41800"
"47",1691930383088,"13/08/2023 12:39:43",1691933983088,1,"13/08/2023 14:39:43",139282,42,"task-nyoq",NA,31165598,9239672,NA,"complete",NA,NA,"computer","Desktop or Laptop","Windows 10","Chrome 115.0.0.0","1536x864","1536x739",NA,NA,0,"Feedback Phrases Task - List 1 (study_2)",2,"In","FGEHDICJBA","A (JV first)","study_1 (JV and feedback_list_1)",NA,"In","Feedback List 1","Feedback List 1",9,"Task","Screen 1","113qg5",1,"action","Text_right_X2",4297.17800000001,4283.05900000001,4297.17800000001,4297.17800000001,4283.05900000001,4297.17800000001,1,4297.17800000001,0,0,NA,"Mousetracking","screen",0,"screen",NA,1,"You appeared very composed.","You came across as very calm and collected.","Task",NA,"SUPTM41800"
"48",1691930384842,"13/08/2023 12:39:44",1691933984842,1,"13/08/2023 14:39:44",139282,42,"task-nyoq",NA,31165598,9239672,NA,"complete",NA,NA,"computer","Desktop or Laptop","Windows 10","Chrome 115.0.0.0","1536x864","1536x739",NA,NA,0,"Feedback Phrases Task - List 1 (study_2)",2,"In","FGEHDICJBA","A (JV first)","study_1 (JV and feedback_list_1)",NA,"In","Feedback List 1","Feedback List 1",9,"Task","Screen 3","izqege",2,"continue","",1766.63099999999,1766.63099999999,1766.63099999999,1766.63099999999,1766.63099999999,1766.63099999999,1,1766.63099999999,0,0,NA,"Fixation Timing","Fixation Cross",1,"object-48",NA,1,"You appeared very composed.","You came across as very calm and collected.","Task",NA,"SUPTM41800"
"49",1691930386011,"13/08/2023 12:39:46",1691933986011,1,"13/08/2023 14:39:46",139282,42,"task-nyoq",NA,31165598,9239672,NA,"complete",NA,NA,"computer","Desktop or Laptop","Windows 10","Chrome 115.0.0.0","1536x864","1536x739",NA,NA,0,"Feedback Phrases Task - List 1 (study_2)",2,"In","FGEHDICJBA","A (JV first)","study_1 (JV and feedback_list_1)",NA,"In","Feedback List 1","Feedback List 1",10,"Task","Screen 1","113qg5",1,"response","You appeared very composed.",1170.38800003577,1167.25900000002,1170.38800003577,1170.38800003577,1167.25900000002,1170.38800003577,1,1170.38800003577,0,0,NA,"Click Response","Text_right_X2",3,"object-19",NA,1,"I didn't notice any mistakes.","You appeared very composed.","Task",NA,"SUPTM41800"
"50",1691930386012,"13/08/2023 12:39:46",1691933986012,1,"13/08/2023 14:39:46",139282,42,"task-nyoq",NA,31165598,9239672,NA,"complete",NA,NA,"computer","Desktop or Laptop","Windows 10","Chrome 115.0.0.0","1536x864","1536x739",NA,NA,0,"Feedback Phrases Task - List 1 (study_2)",2,"In","FGEHDICJBA","A (JV first)","study_1 (JV and feedback_list_1)",NA,"In","Feedback List 1","Feedback List 1",10,"Task","Screen 1","113qg5",1,"action","Text",1170.78800001193,1167.25900000002,1170.78800001193,1170.78800001193,1167.25900000002,1170.78800001193,1,1170.78800001193,0,0,NA,"Mousetracking","screen",0,"screen",NA,1,"I didn't notice any mistakes.","You appeared very composed.","Task",NA,"SUPTM41800"
"51",1691930386012,"13/08/2023 12:39:46",1691933986012,1,"13/08/2023 14:39:46",139282,42,"task-nyoq",NA,31165598,9239672,NA,"complete",NA,NA,"computer","Desktop or Laptop","Windows 10","Chrome 115.0.0.0","1536x864","1536x739",NA,NA,0,"Feedback Phrases Task - List 1 (study_2)",2,"In","FGEHDICJBA","A (JV first)","study_1 (JV and feedback_list_1)",NA,"In","Feedback List 1","Feedback List 1",10,"Task","Screen 1","113qg5",1,"action","Text_left_X1",1171.18799998809,1167.25900000002,1171.18799998809,1171.18799998809,1167.25900000002,1171.18799998809,1,1171.18799998809,0,0,NA,"Mousetracking","screen",0,"screen",NA,1,"I didn't notice any mistakes.","You appeared very composed.","Task",NA,"SUPTM41800"
"52",1691930386012,"13/08/2023 12:39:46",1691933986012,1,"13/08/2023 14:39:46",139282,42,"task-nyoq",NA,31165598,9239672,NA,"complete",NA,NA,"computer","Desktop or Laptop","Windows 10","Chrome 115.0.0.0","1536x864","1536x739",NA,NA,0,"Feedback Phrases Task - List 1 (study_2)",2,"In","FGEHDICJBA","A (JV first)","study_1 (JV and feedback_list_1)",NA,"In","Feedback List 1","Feedback List 1",10,"Task","Screen 1","113qg5",1,"action","Text_right_X2",1171.48800000001,1167.25900000002,1171.48800000001,1171.48800000001,1167.25900000002,1171.48800000001,1,1171.48800000001,0,0,NA,"Mousetracking","screen",0,"screen",NA,1,"I didn't notice any mistakes.","You appeared very composed.","Task",NA,"SUPTM41800"
"53",1691930387775,"13/08/2023 12:39:47",1691933987775,1,"13/08/2023 14:39:47",139282,42,"task-nyoq",NA,31165598,9239672,NA,"complete",NA,NA,"computer","Desktop or Laptop","Windows 10","Chrome 115.0.0.0","1536x864","1536x739",NA,NA,0,"Feedback Phrases Task - List 1 (study_2)",2,"In","FGEHDICJBA","A (JV first)","study_1 (JV and feedback_list_1)",NA,"In","Feedback List 1","Feedback List 1",10,"Task","Screen 3","izqege",2,"continue","",1765.85499999998,1765.85499999998,1765.85499999998,1765.85499999998,1765.85499999998,1765.85499999998,1,1765.85499999998,0,0,NA,"Fixation Timing","Fixation Cross",1,"object-48",NA,1,"I didn't notice any mistakes.","You appeared very composed.","Task",NA,"SUPTM41800"
"54",1691930389693,"13/08/2023 12:39:49",1691933989693,1,"13/08/2023 14:39:49",139282,42,"task-nyoq",NA,31165598,9239672,NA,"complete",NA,NA,"computer","Desktop or Laptop","Windows 10","Chrome 115.0.0.0","1536x864","1536x739",NA,NA,0,"Feedback Phrases Task - List 1 (study_2)",2,"In","FGEHDICJBA","A (JV first)","study_1 (JV and feedback_list_1)",NA,"In","Feedback List 1","Feedback List 1",11,"Task","Screen 1","113qg5",1,"response","Your description was very clear and concise.",1918.67400001193,1916.72600000002,1918.67400001193,1918.67400001193,1916.72600000002,1918.67400001193,1,1918.67400001193,0,0,NA,"Click Response","Text_right_X2",3,"object-19",NA,1,"That was acceptable.","Your description was very clear and concise.","Task",NA,"SUPTM41800"
"55",1691930389693,"13/08/2023 12:39:49",1691933989693,1,"13/08/2023 14:39:49",139282,42,"task-nyoq",NA,31165598,9239672,NA,"complete",NA,NA,"computer","Desktop or Laptop","Windows 10","Chrome 115.0.0.0","1536x864","1536x739",NA,NA,0,"Feedback Phrases Task - List 1 (study_2)",2,"In","FGEHDICJBA","A (JV first)","study_1 (JV and feedback_list_1)",NA,"In","Feedback List 1","Feedback List 1",11,"Task","Screen 1","113qg5",1,"action","Text",1918.87400000001,1916.72600000002,1918.87400000001,1918.87400000001,1916.72600000002,1918.87400000001,1,1918.87400000001,0,0,NA,"Mousetracking","screen",0,"screen",NA,1,"That was acceptable.","Your description was very clear and concise.","Task",NA,"SUPTM41800"
"56",1691930389693,"13/08/2023 12:39:49",1691933989693,1,"13/08/2023 14:39:49",139282,42,"task-nyoq",NA,31165598,9239672,NA,"complete",NA,NA,"computer","Desktop or Laptop","Windows 10","Chrome 115.0.0.0","1536x864","1536x739",NA,NA,0,"Feedback Phrases Task - List 1 (study_2)",2,"In","FGEHDICJBA","A (JV first)","study_1 (JV and feedback_list_1)",NA,"In","Feedback List 1","Feedback List 1",11,"Task","Screen 1","113qg5",1,"action","Text_left_X1",1919.07399998809,1916.72600000002,1919.07399998809,1919.07399998809,1916.72600000002,1919.07399998809,1,1919.07399998809,0,0,NA,"Mousetracking","screen",0,"screen",NA,1,"That was acceptable.","Your description was very clear and concise.","Task",NA,"SUPTM41800"
"57",1691930389693,"13/08/2023 12:39:49",1691933989693,1,"13/08/2023 14:39:49",139282,42,"task-nyoq",NA,31165598,9239672,NA,"complete",NA,NA,"computer","Desktop or Laptop","Windows 10","Chrome 115.0.0.0","1536x864","1536x739",NA,NA,0,"Feedback Phrases Task - List 1 (study_2)",2,"In","FGEHDICJBA","A (JV first)","study_1 (JV and feedback_list_1)",NA,"In","Feedback List 1","Feedback List 1",11,"Task","Screen 1","113qg5",1,"action","Text_right_X2",1919.37400000001,1916.72600000002,1919.37400000001,1919.37400000001,1916.72600000002,1919.37400000001,1,1919.37400000001,0,0,NA,"Mousetracking","screen",0,"screen",NA,1,"That was acceptable.","Your description was very clear and concise.","Task",NA,"SUPTM41800"
"58",1691930391459,"13/08/2023 12:39:51",1691933991459,1,"13/08/2023 14:39:51",139282,42,"task-nyoq",NA,31165598,9239672,NA,"complete",NA,NA,"computer","Desktop or Laptop","Windows 10","Chrome 115.0.0.0","1536x864","1536x739",NA,NA,0,"Feedback Phrases Task - List 1 (study_2)",2,"In","FGEHDICJBA","A (JV first)","study_1 (JV and feedback_list_1)",NA,"In","Feedback List 1","Feedback List 1",11,"Task","Screen 3","izqege",2,"continue","",1766.291,1766.291,1766.291,1766.291,1766.291,1766.291,1,1766.291,0,0,NA,"Fixation Timing","Fixation Cross",1,"object-48",NA,1,"That was acceptable.","Your description was very clear and concise.","Task",NA,"SUPTM41800"
"59",1691930393890,"13/08/2023 12:39:53",1691933993890,1,"13/08/2023 14:39:53",139282,42,"task-nyoq",NA,31165598,9239672,NA,"complete",NA,NA,"computer","Desktop or Laptop","Windows 10","Chrome 115.0.0.0","1536x864","1536x739",NA,NA,0,"Feedback Phrases Task - List 1 (study_2)",2,"In","FGEHDICJBA","A (JV first)","study_1 (JV and feedback_list_1)",NA,"In","Feedback List 1","Feedback List 1",12,"Task","Screen 1","113qg5",1,"response","You spoke very well.",2432.68899999998,2416.60999999999,2432.68899999998,2432.68899999998,2416.60999999999,2432.68899999998,1,2432.68899999998,0,0,NA,"Click Response","Text_left_X1",2,"object-18",NA,1,"You spoke very well.","You made a great impression.","Task",NA,"SUPTM41800"
"60",1691930393891,"13/08/2023 12:39:53",1691933993891,1,"13/08/2023 14:39:53",139282,42,"task-nyoq",NA,31165598,9239672,NA,"complete",NA,NA,"computer","Desktop or Laptop","Windows 10","Chrome 115.0.0.0","1536x864","1536x739",NA,NA,0,"Feedback Phrases Task - List 1 (study_2)",2,"In","FGEHDICJBA","A (JV first)","study_1 (JV and feedback_list_1)",NA,"In","Feedback List 1","Feedback List 1",12,"Task","Screen 1","113qg5",1,"action","Text",2432.68899999998,2416.60999999999,2432.68899999998,2432.68899999998,2416.60999999999,2432.68899999998,1,2432.68899999998,0,0,NA,"Mousetracking","screen",0,"screen",NA,1,"You spoke very well.","You made a great impression.","Task",NA,"SUPTM41800"
"61",1691930393891,"13/08/2023 12:39:53",1691933993891,1,"13/08/2023 14:39:53",139282,42,"task-nyoq",NA,31165598,9239672,NA,"complete",NA,NA,"computer","Desktop or Laptop","Windows 10","Chrome 115.0.0.0","1536x864","1536x739",NA,NA,0,"Feedback Phrases Task - List 1 (study_2)",2,"In","FGEHDICJBA","A (JV first)","study_1 (JV and feedback_list_1)",NA,"In","Feedback List 1","Feedback List 1",12,"Task","Screen 1","113qg5",1,"action","Text_left_X1",2432.68899999998,2416.60999999999,2432.68899999998,2432.68899999998,2416.60999999999,2432.68899999998,1,2432.68899999998,0,0,NA,"Mousetracking","screen",0,"screen",NA,1,"You spoke very well.","You made a great impression.","Task",NA,"SUPTM41800"
"62",1691930393891,"13/08/2023 12:39:53",1691933993891,1,"13/08/2023 14:39:53",139282,42,"task-nyoq",NA,31165598,9239672,NA,"complete",NA,NA,"computer","Desktop or Laptop","Windows 10","Chrome 115.0.0.0","1536x864","1536x739",NA,NA,0,"Feedback Phrases Task - List 1 (study_2)",2,"In","FGEHDICJBA","A (JV first)","study_1 (JV and feedback_list_1)",NA,"In","Feedback List 1","Feedback List 1",12,"Task","Screen 1","113qg5",1,"action","Text_right_X2",2432.68899999998,2416.60999999999,2432.68899999998,2432.68899999998,2416.60999999999,2432.68899999998,1,2432.68899999998,0,0,NA,"Mousetracking","screen",0,"screen",NA,1,"You spoke very well.","You made a great impression.","Task",NA,"SUPTM41800"
"63",1691930395641,"13/08/2023 12:39:55",1691933995641,1,"13/08/2023 14:39:55",139282,42,"task-nyoq",NA,31165598,9239672,NA,"complete",NA,NA,"computer","Desktop or Laptop","Windows 10","Chrome 115.0.0.0","1536x864","1536x739",NA,NA,0,"Feedback Phrases Task - List 1 (study_2)",2,"In","FGEHDICJBA","A (JV first)","study_1 (JV and feedback_list_1)",NA,"In","Feedback List 1","Feedback List 1",12,"Task","Screen 3","izqege",2,"continue","",1766.62900000002,1766.62900000002,1766.62900000002,1766.62900000002,1766.62900000002,1766.62900000002,1,1766.62900000002,0,0,NA,"Fixation Timing","Fixation Cross",1,"object-48",NA,1,"You spoke very well.","You made a great impression.","Task",NA,"SUPTM41800"
"64",1691930397874,"13/08/2023 12:39:57",1691933997874,1,"13/08/2023 14:39:57",139282,42,"task-nyoq",NA,31165598,9239672,NA,"complete",NA,NA,"computer","Desktop or Laptop","Windows 10","Chrome 115.0.0.0","1536x864","1536x739",NA,NA,0,"Feedback Phrases Task - List 1 (study_2)",2,"In","FGEHDICJBA","A (JV first)","study_1 (JV and feedback_list_1)",NA,"In","Feedback List 1","Feedback List 1",13,"Task","Screen 1","113qg5",1,"response","You did a great job of capturing the details.",2233.50899999996,2216.68699999998,2233.50899999996,2233.50899999996,2216.68699999998,2233.50899999996,1,2233.50899999996,0,0,NA,"Click Response","Text_left_X1",2,"object-18",NA,1,"You did a great job of capturing the details.","You made a great impression.","Task",NA,"SUPTM41800"
"65",1691930397878,"13/08/2023 12:39:57",1691933997878,1,"13/08/2023 14:39:57",139282,42,"task-nyoq",NA,31165598,9239672,NA,"complete",NA,NA,"computer","Desktop or Laptop","Windows 10","Chrome 115.0.0.0","1536x864","1536x739",NA,NA,0,"Feedback Phrases Task - List 1 (study_2)",2,"In","FGEHDICJBA","A (JV first)","study_1 (JV and feedback_list_1)",NA,"In","Feedback List 1","Feedback List 1",13,"Task","Screen 1","113qg5",1,"action","Text",2233.50899999996,2216.68699999998,2233.50899999996,2233.50899999996,2216.68699999998,2233.50899999996,1,2233.50899999996,0,0,NA,"Mousetracking","screen",0,"screen",NA,1,"You did a great job of capturing the details.","You made a great impression.","Task",NA,"SUPTM41800"
"66",1691930397879,"13/08/2023 12:39:57",1691933997879,1,"13/08/2023 14:39:57",139282,42,"task-nyoq",NA,31165598,9239672,NA,"complete",NA,NA,"computer","Desktop or Laptop","Windows 10","Chrome 115.0.0.0","1536x864","1536x739",NA,NA,0,"Feedback Phrases Task - List 1 (study_2)",2,"In","FGEHDICJBA","A (JV first)","study_1 (JV and feedback_list_1)",NA,"In","Feedback List 1","Feedback List 1",13,"Task","Screen 1","113qg5",1,"action","Text_left_X1",2233.50899999996,2216.68699999998,2233.50899999996,2233.50899999996,2216.68699999998,2233.50899999996,1,2233.50899999996,0,0,NA,"Mousetracking","screen",0,"screen",NA,1,"You did a great job of capturing the details.","You made a great impression.","Task",NA,"SUPTM41800"
"67",1691930397879,"13/08/2023 12:39:57",1691933997879,1,"13/08/2023 14:39:57",139282,42,"task-nyoq",NA,31165598,9239672,NA,"complete",NA,NA,"computer","Desktop or Laptop","Windows 10","Chrome 115.0.0.0","1536x864","1536x739",NA,NA,0,"Feedback Phrases Task - List 1 (study_2)",2,"In","FGEHDICJBA","A (JV first)","study_1 (JV and feedback_list_1)",NA,"In","Feedback List 1","Feedback List 1",13,"Task","Screen 1","113qg5",1,"action","Text_right_X2",2233.50899999996,2216.68699999998,2233.50899999996,2233.50899999996,2216.68699999998,2233.50899999996,1,2233.50899999996,0,0,NA,"Mousetracking","screen",0,"screen",NA,1,"You did a great job of capturing the details.","You made a great impression.","Task",NA,"SUPTM41800"
"68",1691930399624,"13/08/2023 12:39:59",1691933999624,1,"13/08/2023 14:39:59",139282,42,"task-nyoq",NA,31165598,9239672,NA,"complete",NA,NA,"computer","Desktop or Laptop","Windows 10","Chrome 115.0.0.0","1536x864","1536x739",NA,NA,0,"Feedback Phrases Task - List 1 (study_2)",2,"In","FGEHDICJBA","A (JV first)","study_1 (JV and feedback_list_1)",NA,"In","Feedback List 1","Feedback List 1",13,"Task","Screen 3","izqege",2,"continue","",1766.41900000002,1766.41900000002,1766.41900000002,1766.41900000002,1766.41900000002,1766.41900000002,1,1766.41900000002,0,0,NA,"Fixation Timing","Fixation Cross",1,"object-48",NA,1,"You did a great job of capturing the details.","You made a great impression.","Task",NA,"SUPTM41800"
"69",1691930401028,"13/08/2023 12:40:01",1691934001028,1,"13/08/2023 14:40:01",139282,42,"task-nyoq",NA,31165598,9239672,NA,"complete",NA,NA,"computer","Desktop or Laptop","Windows 10","Chrome 115.0.0.0","1536x864","1536x739",NA,NA,0,"Feedback Phrases Task - List 1 (study_2)",2,"In","FGEHDICJBA","A (JV first)","study_1 (JV and feedback_list_1)",NA,"In","Feedback List 1","Feedback List 1",14,"Task","Screen 1","113qg5",1,"response","Your description was very clear and concise.",1404.51199999999,1400.56299999999,1404.51199999999,1404.51199999999,1400.56299999999,1404.51199999999,1,1404.51199999999,0,0,NA,"Click Response","Text_right_X2",3,"object-19",NA,1,"You completed the task.","Your description was very clear and concise.","Task",NA,"SUPTM41800"
"70",1691930401028,"13/08/2023 12:40:01",1691934001028,1,"13/08/2023 14:40:01",139282,42,"task-nyoq",NA,31165598,9239672,NA,"complete",NA,NA,"computer","Desktop or Laptop","Windows 10","Chrome 115.0.0.0","1536x864","1536x739",NA,NA,0,"Feedback Phrases Task - List 1 (study_2)",2,"In","FGEHDICJBA","A (JV first)","study_1 (JV and feedback_list_1)",NA,"In","Feedback List 1","Feedback List 1",14,"Task","Screen 1","113qg5",1,"action","Text",1404.91200003575,1400.56299999999,1404.91200003575,1404.91200003575,1400.56299999999,1404.91200003575,1,1404.91200003575,0,0,NA,"Mousetracking","screen",0,"screen",NA,1,"You completed the task.","Your description was very clear and concise.","Task",NA,"SUPTM41800"
"71",1691930401028,"13/08/2023 12:40:01",1691934001028,1,"13/08/2023 14:40:01",139282,42,"task-nyoq",NA,31165598,9239672,NA,"complete",NA,NA,"computer","Desktop or Laptop","Windows 10","Chrome 115.0.0.0","1536x864","1536x739",NA,NA,0,"Feedback Phrases Task - List 1 (study_2)",2,"In","FGEHDICJBA","A (JV first)","study_1 (JV and feedback_list_1)",NA,"In","Feedback List 1","Feedback List 1",14,"Task","Screen 1","113qg5",1,"action","Text_left_X1",1405.11200002383,1400.56299999999,1405.11200002383,1405.11200002383,1400.56299999999,1405.11200002383,1,1405.11200002383,0,0,NA,"Mousetracking","screen",0,"screen",NA,1,"You completed the task.","Your description was very clear and concise.","Task",NA,"SUPTM41800"
"72",1691930401029,"13/08/2023 12:40:01",1691934001029,1,"13/08/2023 14:40:01",139282,42,"task-nyoq",NA,31165598,9239672,NA,"complete",NA,NA,"computer","Desktop or Laptop","Windows 10","Chrome 115.0.0.0","1536x864","1536x739",NA,NA,0,"Feedback Phrases Task - List 1 (study_2)",2,"In","FGEHDICJBA","A (JV first)","study_1 (JV and feedback_list_1)",NA,"In","Feedback List 1","Feedback List 1",14,"Task","Screen 1","113qg5",1,"action","Text_right_X2",1405.31200001191,1400.56299999999,1405.31200001191,1405.31200001191,1400.56299999999,1405.31200001191,1,1405.31200001191,0,0,NA,"Mousetracking","screen",0,"screen",NA,1,"You completed the task.","Your description was very clear and concise.","Task",NA,"SUPTM41800"
"73",1691930402791,"13/08/2023 12:40:02",1691934002791,1,"13/08/2023 14:40:02",139282,42,"task-nyoq",NA,31165598,9239672,NA,"complete",NA,NA,"computer","Desktop or Laptop","Windows 10","Chrome 115.0.0.0","1536x864","1536x739",NA,NA,0,"Feedback Phrases Task - List 1 (study_2)",2,"In","FGEHDICJBA","A (JV first)","study_1 (JV and feedback_list_1)",NA,"In","Feedback List 1","Feedback List 1",14,"Task","Screen 3","izqege",2,"continue","",1765.92199999999,1765.92199999999,1765.92199999999,1765.92199999999,1765.92199999999,1765.92199999999,1,1765.92199999999,0,0,NA,"Fixation Timing","Fixation Cross",1,"object-48",NA,1,"You completed the task.","Your description was very clear and concise.","Task",NA,"SUPTM41800"
"74",1691930404485,"13/08/2023 12:40:04",1691934004485,1,"13/08/2023 14:40:04",139282,42,"task-nyoq",NA,31165598,9239672,NA,"complete",NA,NA,"computer","Desktop or Laptop","Windows 10","Chrome 115.0.0.0","1536x864","1536x739",NA,NA,0,"Feedback Phrases Task - List 1 (study_2)",2,"In","FGEHDICJBA","A (JV first)","study_1 (JV and feedback_list_1)",NA,"In","Feedback List 1","Feedback List 1",15,"Task","Screen 1","113qg5",1,"response","You came across as very calm and collected.",1695.027,1683.383,1695.027,1695.027,1683.383,1695.027,1,1695.027,0,0,NA,"Click Response","Text_right_X2",3,"object-19",NA,1,"You spoke very well.","You came across as very calm and collected.","Task",NA,"SUPTM41800"
"75",1691930404485,"13/08/2023 12:40:04",1691934004485,1,"13/08/2023 14:40:04",139282,42,"task-nyoq",NA,31165598,9239672,NA,"complete",NA,NA,"computer","Desktop or Laptop","Windows 10","Chrome 115.0.0.0","1536x864","1536x739",NA,NA,0,"Feedback Phrases Task - List 1 (study_2)",2,"In","FGEHDICJBA","A (JV first)","study_1 (JV and feedback_list_1)",NA,"In","Feedback List 1","Feedback List 1",15,"Task","Screen 1","113qg5",1,"action","Text",1695.527,1683.383,1695.527,1695.527,1683.383,1695.527,1,1695.527,0,0,NA,"Mousetracking","screen",0,"screen",NA,1,"You spoke very well.","You came across as very calm and collected.","Task",NA,"SUPTM41800"
"76",1691930404486,"13/08/2023 12:40:04",1691934004486,1,"13/08/2023 14:40:04",139282,42,"task-nyoq",NA,31165598,9239672,NA,"complete",NA,NA,"computer","Desktop or Laptop","Windows 10","Chrome 115.0.0.0","1536x864","1536x739",NA,NA,0,"Feedback Phrases Task - List 1 (study_2)",2,"In","FGEHDICJBA","A (JV first)","study_1 (JV and feedback_list_1)",NA,"In","Feedback List 1","Feedback List 1",15,"Task","Screen 1","113qg5",1,"action","Text_left_X1",1695.72699998808,1683.383,1695.72699998808,1695.72699998808,1683.383,1695.72699998808,1,1695.72699998808,0,0,NA,"Mousetracking","screen",0,"screen",NA,1,"You spoke very well.","You came across as very calm and collected.","Task",NA,"SUPTM41800"
"77",1691930404486,"13/08/2023 12:40:04",1691934004486,1,"13/08/2023 14:40:04",139282,42,"task-nyoq",NA,31165598,9239672,NA,"complete",NA,NA,"computer","Desktop or Laptop","Windows 10","Chrome 115.0.0.0","1536x864","1536x739",NA,NA,0,"Feedback Phrases Task - List 1 (study_2)",2,"In","FGEHDICJBA","A (JV first)","study_1 (JV and feedback_list_1)",NA,"In","Feedback List 1","Feedback List 1",15,"Task","Screen 1","113qg5",1,"action","Text_right_X2",1696.12700002384,1683.383,1696.12700002384,1696.12700002384,1683.383,1696.12700002384,1,1696.12700002384,0,0,NA,"Mousetracking","screen",0,"screen",NA,1,"You spoke very well.","You came across as very calm and collected.","Task",NA,"SUPTM41800"
"78",1691930406240,"13/08/2023 12:40:06",1691934006240,1,"13/08/2023 14:40:06",139282,42,"task-nyoq",NA,31165598,9239672,NA,"complete",NA,NA,"computer","Desktop or Laptop","Windows 10","Chrome 115.0.0.0","1536x864","1536x739",NA,NA,0,"Feedback Phrases Task - List 1 (study_2)",2,"In","FGEHDICJBA","A (JV first)","study_1 (JV and feedback_list_1)",NA,"In","Feedback List 1","Feedback List 1",15,"Task","Screen 3","izqege",2,"continue","",1766.378,1766.378,1766.378,1766.378,1766.378,1766.378,1,1766.378,0,0,NA,"Fixation Timing","Fixation Cross",1,"object-48",NA,1,"You spoke very well.","You came across as very calm and collected.","Task",NA,"SUPTM41800"
"79",1691930409028,"13/08/2023 12:40:09",1691934009028,1,"13/08/2023 14:40:09",139282,42,"task-nyoq",NA,31165598,9239672,NA,"complete",NA,NA,"computer","Desktop or Laptop","Windows 10","Chrome 115.0.0.0","1536x864","1536x739",NA,NA,0,"Feedback Phrases Task - List 1 (study_2)",2,"In","FGEHDICJBA","A (JV first)","study_1 (JV and feedback_list_1)",NA,"In","Feedback List 1","Feedback List 1",16,"Task","Screen 1","113qg5",1,"response","Everything you said was correct.",2788.06600001192,2782.902,2788.06600001192,2788.06600001192,2782.902,2788.06600001192,1,2788.06600001192,0,0,NA,"Click Response","Text_right_X2",3,"object-19",NA,1,"That was acceptable.","Everything you said was correct.","Task",NA,"SUPTM41800"
"80",1691930409035,"13/08/2023 12:40:09",1691934009035,1,"13/08/2023 14:40:09",139282,42,"task-nyoq",NA,31165598,9239672,NA,"complete",NA,NA,"computer","Desktop or Laptop","Windows 10","Chrome 115.0.0.0","1536x864","1536x739",NA,NA,0,"Feedback Phrases Task - List 1 (study_2)",2,"In","FGEHDICJBA","A (JV first)","study_1 (JV and feedback_list_1)",NA,"In","Feedback List 1","Feedback List 1",16,"Task","Screen 1","113qg5",1,"action","Text",2795.56600001192,2782.902,2795.56600001192,2795.56600001192,2782.902,2795.56600001192,1,2795.56600001192,0,0,NA,"Mousetracking","screen",0,"screen",NA,1,"That was acceptable.","Everything you said was correct.","Task",NA,"SUPTM41800"
"81",1691930409036,"13/08/2023 12:40:09",1691934009036,1,"13/08/2023 14:40:09",139282,42,"task-nyoq",NA,31165598,9239672,NA,"complete",NA,NA,"computer","Desktop or Laptop","Windows 10","Chrome 115.0.0.0","1536x864","1536x739",NA,NA,0,"Feedback Phrases Task - List 1 (study_2)",2,"In","FGEHDICJBA","A (JV first)","study_1 (JV and feedback_list_1)",NA,"In","Feedback List 1","Feedback List 1",16,"Task","Screen 1","113qg5",1,"action","Text_left_X1",2795.96599998808,2782.902,2795.96599998808,2795.96599998808,2782.902,2795.96599998808,1,2795.96599998808,0,0,NA,"Mousetracking","screen",0,"screen",NA,1,"That was acceptable.","Everything you said was correct.","Task",NA,"SUPTM41800"
"82",1691930409036,"13/08/2023 12:40:09",1691934009036,1,"13/08/2023 14:40:09",139282,42,"task-nyoq",NA,31165598,9239672,NA,"complete",NA,NA,"computer","Desktop or Laptop","Windows 10","Chrome 115.0.0.0","1536x864","1536x739",NA,NA,0,"Feedback Phrases Task - List 1 (study_2)",2,"In","FGEHDICJBA","A (JV first)","study_1 (JV and feedback_list_1)",NA,"In","Feedback List 1","Feedback List 1",16,"Task","Screen 1","113qg5",1,"action","Text_right_X2",2796.46599998808,2782.902,2796.46599998808,2796.46599998808,2782.902,2796.46599998808,1,2796.46599998808,0,0,NA,"Mousetracking","screen",0,"screen",NA,1,"That was acceptable.","Everything you said was correct.","Task",NA,"SUPTM41800"
"83",1691930410790,"13/08/2023 12:40:10",1691934010790,1,"13/08/2023 14:40:10",139282,42,"task-nyoq",NA,31165598,9239672,NA,"complete",NA,NA,"computer","Desktop or Laptop","Windows 10","Chrome 115.0.0.0","1536x864","1536x739",NA,NA,0,"Feedback Phrases Task - List 1 (study_2)",2,"In","FGEHDICJBA","A (JV first)","study_1 (JV and feedback_list_1)",NA,"In","Feedback List 1","Feedback List 1",16,"Task","Screen 3","izqege",2,"continue","",1766.894,1766.894,1766.894,1766.894,1766.894,1766.894,1,1766.894,0,0,NA,"Fixation Timing","Fixation Cross",1,"object-48",NA,1,"That was acceptable.","Everything you said was correct.","Task",NA,"SUPTM41800"
"84",1691930412330,"13/08/2023 12:40:12",1691934012330,1,"13/08/2023 14:40:12",139282,42,"task-nyoq",NA,31165598,9239672,NA,"complete",NA,NA,"computer","Desktop or Laptop","Windows 10","Chrome 115.0.0.0","1536x864","1536x739",NA,NA,0,"Feedback Phrases Task - List 1 (study_2)",2,"In","FGEHDICJBA","A (JV first)","study_1 (JV and feedback_list_1)",NA,"In","Feedback List 1","Feedback List 1",17,"Task","Screen 1","113qg5",1,"response","You spoke very well.",1540.57000002384,1533.11000000002,1540.57000002384,1540.57000002384,1533.11000000002,1540.57000002384,1,1540.57000002384,0,0,NA,"Click Response","Text_right_X2",3,"object-19",NA,1,"Your description was very clear and concise.","You spoke very well.","Task",NA,"SUPTM41800"
"85",1691930412330,"13/08/2023 12:40:12",1691934012330,1,"13/08/2023 14:40:12",139282,42,"task-nyoq",NA,31165598,9239672,NA,"complete",NA,NA,"computer","Desktop or Laptop","Windows 10","Chrome 115.0.0.0","1536x864","1536x739",NA,NA,0,"Feedback Phrases Task - List 1 (study_2)",2,"In","FGEHDICJBA","A (JV first)","study_1 (JV and feedback_list_1)",NA,"In","Feedback List 1","Feedback List 1",17,"Task","Screen 1","113qg5",1,"action","Text",1540.87000003576,1533.11000000002,1540.87000003576,1540.87000003576,1533.11000000002,1540.87000003576,1,1540.87000003576,0,0,NA,"Mousetracking","screen",0,"screen",NA,1,"Your description was very clear and concise.","You spoke very well.","Task",NA,"SUPTM41800"
"86",1691930412330,"13/08/2023 12:40:12",1691934012330,1,"13/08/2023 14:40:12",139282,42,"task-nyoq",NA,31165598,9239672,NA,"complete",NA,NA,"computer","Desktop or Laptop","Windows 10","Chrome 115.0.0.0","1536x864","1536x739",NA,NA,0,"Feedback Phrases Task - List 1 (study_2)",2,"In","FGEHDICJBA","A (JV first)","study_1 (JV and feedback_list_1)",NA,"In","Feedback List 1","Feedback List 1",17,"Task","Screen 1","113qg5",1,"action","Text_left_X1",1540.97,1533.11000000002,1540.97,1540.97,1533.11000000002,1540.97,1,1540.97,0,0,NA,"Mousetracking","screen",0,"screen",NA,1,"Your description was very clear and concise.","You spoke very well.","Task",NA,"SUPTM41800"
"87",1691930412331,"13/08/2023 12:40:12",1691934012331,1,"13/08/2023 14:40:12",139282,42,"task-nyoq",NA,31165598,9239672,NA,"complete",NA,NA,"computer","Desktop or Laptop","Windows 10","Chrome 115.0.0.0","1536x864","1536x739",NA,NA,0,"Feedback Phrases Task - List 1 (study_2)",2,"In","FGEHDICJBA","A (JV first)","study_1 (JV and feedback_list_1)",NA,"In","Feedback List 1","Feedback List 1",17,"Task","Screen 1","113qg5",1,"action","Text_right_X2",1542.07000002384,1533.11000000002,1542.07000002384,1542.07000002384,1533.11000000002,1542.07000002384,1,1542.07000002384,0,0,NA,"Mousetracking","screen",0,"screen",NA,1,"Your description was very clear and concise.","You spoke very well.","Task",NA,"SUPTM41800"
"88",1691930414090,"13/08/2023 12:40:14",1691934014090,1,"13/08/2023 14:40:14",139282,42,"task-nyoq",NA,31165598,9239672,NA,"complete",NA,NA,"computer","Desktop or Laptop","Windows 10","Chrome 115.0.0.0","1536x864","1536x739",NA,NA,0,"Feedback Phrases Task - List 1 (study_2)",2,"In","FGEHDICJBA","A (JV first)","study_1 (JV and feedback_list_1)",NA,"In","Feedback List 1","Feedback List 1",17,"Task","Screen 3","izqege",2,"continue","",1766.666,1766.666,1766.666,1766.666,1766.666,1766.666,1,1766.666,0,0,NA,"Fixation Timing","Fixation Cross",1,"object-48",NA,1,"Your description was very clear and concise.","You spoke very well.","Task",NA,"SUPTM41800"
"89",1691930419120,"13/08/2023 12:40:19",1691934019120,1,"13/08/2023 14:40:19",139282,42,"task-nyoq",NA,31165598,9239672,NA,"complete",NA,NA,"computer","Desktop or Laptop","Windows 10","Chrome 115.0.0.0","1536x864","1536x739",NA,NA,0,"Feedback Phrases Task - List 1 (study_2)",2,"In","FGEHDICJBA","A (JV first)","study_1 (JV and feedback_list_1)",NA,"In","Feedback List 1","Feedback List 1",18,"Task","Screen 1","113qg5",1,"response","You appeared very composed.",5030.99400001191,5016.27499999999,5030.99400001191,5030.99400001191,5016.27499999999,5030.99400001191,1,5030.99400001191,0,0,NA,"Click Response","Text_right_X2",3,"object-19",NA,1,"That was acceptable.","You appeared very composed.","Task",NA,"SUPTM41800"
"90",1691930419124,"13/08/2023 12:40:19",1691934019124,1,"13/08/2023 14:40:19",139282,42,"task-nyoq",NA,31165598,9239672,NA,"complete",NA,NA,"computer","Desktop or Laptop","Windows 10","Chrome 115.0.0.0","1536x864","1536x739",NA,NA,0,"Feedback Phrases Task - List 1 (study_2)",2,"In","FGEHDICJBA","A (JV first)","study_1 (JV and feedback_list_1)",NA,"In","Feedback List 1","Feedback List 1",18,"Task","Screen 1","113qg5",1,"action","Text",5033.08300000001,5016.27499999999,5033.08300000001,5033.08300000001,5016.27499999999,5033.08300000001,1,5033.08300000001,0,0,NA,"Mousetracking","screen",0,"screen",NA,1,"That was acceptable.","You appeared very composed.","Task",NA,"SUPTM41800"
"91",1691930419124,"13/08/2023 12:40:19",1691934019124,1,"13/08/2023 14:40:19",139282,42,"task-nyoq",NA,31165598,9239672,NA,"complete",NA,NA,"computer","Desktop or Laptop","Windows 10","Chrome 115.0.0.0","1536x864","1536x739",NA,NA,0,"Feedback Phrases Task - List 1 (study_2)",2,"In","FGEHDICJBA","A (JV first)","study_1 (JV and feedback_list_1)",NA,"In","Feedback List 1","Feedback List 1",18,"Task","Screen 1","113qg5",1,"action","Text_left_X1",5033.08300000001,5016.27499999999,5033.08300000001,5033.08300000001,5016.27499999999,5033.08300000001,1,5033.08300000001,0,0,NA,"Mousetracking","screen",0,"screen",NA,1,"That was acceptable.","You appeared very composed.","Task",NA,"SUPTM41800"
"92",1691930419124,"13/08/2023 12:40:19",1691934019124,1,"13/08/2023 14:40:19",139282,42,"task-nyoq",NA,31165598,9239672,NA,"complete",NA,NA,"computer","Desktop or Laptop","Windows 10","Chrome 115.0.0.0","1536x864","1536x739",NA,NA,0,"Feedback Phrases Task - List 1 (study_2)",2,"In","FGEHDICJBA","A (JV first)","study_1 (JV and feedback_list_1)",NA,"In","Feedback List 1","Feedback List 1",18,"Task","Screen 1","113qg5",1,"action","Text_right_X2",5033.08300000001,5016.27499999999,5033.08300000001,5033.08300000001,5016.27499999999,5033.08300000001,1,5033.08300000001,0,0,NA,"Mousetracking","screen",0,"screen",NA,1,"That was acceptable.","You appeared very composed.","Task",NA,"SUPTM41800"
"93",1691930420873,"13/08/2023 12:40:20",1691934020873,1,"13/08/2023 14:40:20",139282,42,"task-nyoq",NA,31165598,9239672,NA,"complete",NA,NA,"computer","Desktop or Laptop","Windows 10","Chrome 115.0.0.0","1536x864","1536x739",NA,NA,0,"Feedback Phrases Task - List 1 (study_2)",2,"In","FGEHDICJBA","A (JV first)","study_1 (JV and feedback_list_1)",NA,"In","Feedback List 1","Feedback List 1",18,"Task","Screen 3","izqege",2,"continue","",1766.69199999998,1766.69199999998,1766.69199999998,1766.69199999998,1766.69199999998,1766.69199999998,1,1766.69199999998,0,0,NA,"Fixation Timing","Fixation Cross",1,"object-48",NA,1,"That was acceptable.","You appeared very composed.","Task",NA,"SUPTM41800"
"94",1691930423104,"13/08/2023 12:40:23",1691934023104,1,"13/08/2023 14:40:23",139282,42,"task-nyoq",NA,31165598,9239672,NA,"complete",NA,NA,"computer","Desktop or Laptop","Windows 10","Chrome 115.0.0.0","1536x864","1536x739",NA,NA,0,"Feedback Phrases Task - List 1 (study_2)",2,"In","FGEHDICJBA","A (JV first)","study_1 (JV and feedback_list_1)",NA,"In","Feedback List 1","Feedback List 1",19,"Task","Screen 1","113qg5",1,"response","Everything you said was correct.",2232.02700001193,2216.587,2232.02700001193,2232.02700001193,2216.587,2232.02700001193,1,2232.02700001193,0,0,NA,"Click Response","Text_right_X2",3,"object-19",NA,1,"You completed the task.","Everything you said was correct.","Task",NA,"SUPTM41800"
"95",1691930423104,"13/08/2023 12:40:23",1691934023104,1,"13/08/2023 14:40:23",139282,42,"task-nyoq",NA,31165598,9239672,NA,"complete",NA,NA,"computer","Desktop or Laptop","Windows 10","Chrome 115.0.0.0","1536x864","1536x739",NA,NA,0,"Feedback Phrases Task - List 1 (study_2)",2,"In","FGEHDICJBA","A (JV first)","study_1 (JV and feedback_list_1)",NA,"In","Feedback List 1","Feedback List 1",19,"Task","Screen 1","113qg5",1,"action","Text",2232.42699998809,2216.587,2232.42699998809,2232.42699998809,2216.587,2232.42699998809,1,2232.42699998809,0,0,NA,"Mousetracking","screen",0,"screen",NA,1,"You completed the task.","Everything you said was correct.","Task",NA,"SUPTM41800"
"96",1691930423105,"13/08/2023 12:40:23",1691934023105,1,"13/08/2023 14:40:23",139282,42,"task-nyoq",NA,31165598,9239672,NA,"complete",NA,NA,"computer","Desktop or Laptop","Windows 10","Chrome 115.0.0.0","1536x864","1536x739",NA,NA,0,"Feedback Phrases Task - List 1 (study_2)",2,"In","FGEHDICJBA","A (JV first)","study_1 (JV and feedback_list_1)",NA,"In","Feedback List 1","Feedback List 1",19,"Task","Screen 1","113qg5",1,"action","Text_left_X1",2232.42699998809,2216.587,2232.42699998809,2232.42699998809,2216.587,2232.42699998809,1,2232.42699998809,0,0,NA,"Mousetracking","screen",0,"screen",NA,1,"You completed the task.","Everything you said was correct.","Task",NA,"SUPTM41800"
"97",1691930423105,"13/08/2023 12:40:23",1691934023105,1,"13/08/2023 14:40:23",139282,42,"task-nyoq",NA,31165598,9239672,NA,"complete",NA,NA,"computer","Desktop or Laptop","Windows 10","Chrome 115.0.0.0","1536x864","1536x739",NA,NA,0,"Feedback Phrases Task - List 1 (study_2)",2,"In","FGEHDICJBA","A (JV first)","study_1 (JV and feedback_list_1)",NA,"In","Feedback List 1","Feedback List 1",19,"Task","Screen 1","113qg5",1,"action","Text_right_X2",2232.72700000001,2216.587,2232.72700000001,2232.72700000001,2216.587,2232.72700000001,1,2232.72700000001,0,0,NA,"Mousetracking","screen",0,"screen",NA,1,"You completed the task.","Everything you said was correct.","Task",NA,"SUPTM41800"
"98",1691930424856,"13/08/2023 12:40:24",1691934024856,1,"13/08/2023 14:40:24",139282,42,"task-nyoq",NA,31165598,9239672,NA,"complete",NA,NA,"computer","Desktop or Laptop","Windows 10","Chrome 115.0.0.0","1536x864","1536x739",NA,NA,0,"Feedback Phrases Task - List 1 (study_2)",2,"In","FGEHDICJBA","A (JV first)","study_1 (JV and feedback_list_1)",NA,"In","Feedback List 1","Feedback List 1",19,"Task","Screen 3","izqege",2,"continue","",1766.20000000001,1766.20000000001,1766.20000000001,1766.20000000001,1766.20000000001,1766.20000000001,1,1766.20000000001,0,0,NA,"Fixation Timing","Fixation Cross",1,"object-48",NA,1,"You completed the task.","Everything you said was correct.","Task",NA,"SUPTM41800"
"99",1691930425879,"13/08/2023 12:40:25",1691934025879,1,"13/08/2023 14:40:25",139282,42,"task-nyoq",NA,31165598,9239672,NA,"complete",NA,NA,"computer","Desktop or Laptop","Windows 10","Chrome 115.0.0.0","1536x864","1536x739",NA,NA,0,"Feedback Phrases Task - List 1 (study_2)",2,"In","FGEHDICJBA","A (JV first)","study_1 (JV and feedback_list_1)",NA,"In","Feedback List 1","Feedback List 1",20,"Task","Screen 1","113qg5",1,"response","Everything you said was correct.",1023.63999998808,1017.60699999999,1023.63999998808,1023.63999998808,1017.60699999999,1023.63999998808,1,1023.63999998808,0,0,NA,"Click Response","Text_left_X1",2,"object-18",NA,1,"Everything you said was correct.","You made a great impression.","Task",NA,"SUPTM41800"
"100",1691930425879,"13/08/2023 12:40:25",1691934025879,1,"13/08/2023 14:40:25",139282,42,"task-nyoq",NA,31165598,9239672,NA,"complete",NA,NA,"computer","Desktop or Laptop","Windows 10","Chrome 115.0.0.0","1536x864","1536x739",NA,NA,0,"Feedback Phrases Task - List 1 (study_2)",2,"In","FGEHDICJBA","A (JV first)","study_1 (JV and feedback_list_1)",NA,"In","Feedback List 1","Feedback List 1",20,"Task","Screen 1","113qg5",1,"action","Text",1024.04000002384,1017.60699999999,1024.04000002384,1024.04000002384,1017.60699999999,1024.04000002384,1,1024.04000002384,0,0,NA,"Mousetracking","screen",0,"screen",NA,1,"Everything you said was correct.","You made a great impression.","Task",NA,"SUPTM41800"
"101",1691930425879,"13/08/2023 12:40:25",1691934025879,1,"13/08/2023 14:40:25",139282,42,"task-nyoq",NA,31165598,9239672,NA,"complete",NA,NA,"computer","Desktop or Laptop","Windows 10","Chrome 115.0.0.0","1536x864","1536x739",NA,NA,0,"Feedback Phrases Task - List 1 (study_2)",2,"In","FGEHDICJBA","A (JV first)","study_1 (JV and feedback_list_1)",NA,"In","Feedback List 1","Feedback List 1",20,"Task","Screen 1","113qg5",1,"action","Text_left_X1",1024.34000003577,1017.60699999999,1024.34000003577,1024.34000003577,1017.60699999999,1024.34000003577,1,1024.34000003577,0,0,NA,"Mousetracking","screen",0,"screen",NA,1,"Everything you said was correct.","You made a great impression.","Task",NA,"SUPTM41800"
"102",1691930425879,"13/08/2023 12:40:25",1691934025879,1,"13/08/2023 14:40:25",139282,42,"task-nyoq",NA,31165598,9239672,NA,"complete",NA,NA,"computer","Desktop or Laptop","Windows 10","Chrome 115.0.0.0","1536x864","1536x739",NA,NA,0,"Feedback Phrases Task - List 1 (study_2)",2,"In","FGEHDICJBA","A (JV first)","study_1 (JV and feedback_list_1)",NA,"In","Feedback List 1","Feedback List 1",20,"Task","Screen 1","113qg5",1,"action","Text_right_X2",1024.54000002384,1017.60699999999,1024.54000002384,1024.54000002384,1017.60699999999,1024.54000002384,1,1024.54000002384,0,0,NA,"Mousetracking","screen",0,"screen",NA,1,"Everything you said was correct.","You made a great impression.","Task",NA,"SUPTM41800"
"103",1691930427639,"13/08/2023 12:40:27",1691934027639,1,"13/08/2023 14:40:27",139282,42,"task-nyoq",NA,31165598,9239672,NA,"complete",NA,NA,"computer","Desktop or Laptop","Windows 10","Chrome 115.0.0.0","1536x864","1536x739",NA,NA,0,"Feedback Phrases Task - List 1 (study_2)",2,"In","FGEHDICJBA","A (JV first)","study_1 (JV and feedback_list_1)",NA,"In","Feedback List 1","Feedback List 1",20,"Task","Screen 3","izqege",2,"continue","",1765.875,1765.875,1765.875,1765.875,1765.875,1765.875,1,1765.875,0,0,NA,"Fixation Timing","Fixation Cross",1,"object-48",NA,1,"Everything you said was correct.","You made a great impression.","Task",NA,"SUPTM41800"
"104",1691930428891,"13/08/2023 12:40:28",1691934028891,1,"13/08/2023 14:40:28",139282,42,"task-nyoq",NA,31165598,9239672,NA,"complete",NA,NA,"computer","Desktop or Laptop","Windows 10","Chrome 115.0.0.0","1536x864","1536x739",NA,NA,0,"Feedback Phrases Task - List 1 (study_2)",2,"In","FGEHDICJBA","A (JV first)","study_1 (JV and feedback_list_1)",NA,"In","Feedback List 1","Feedback List 1",21,"Task","Screen 1","113qg5",1,"response","You seem very clever.",1253.55800002386,1249.91100000002,1253.55800002386,1253.55800002386,1249.91100000002,1253.55800002386,1,1253.55800002386,0,0,NA,"Click Response","Text_right_X2",3,"object-19",NA,1,"You came across as very calm and collected.","You seem very clever.","Task",NA,"SUPTM41800"
"105",1691930428891,"13/08/2023 12:40:28",1691934028891,1,"13/08/2023 14:40:28",139282,42,"task-nyoq",NA,31165598,9239672,NA,"complete",NA,NA,"computer","Desktop or Laptop","Windows 10","Chrome 115.0.0.0","1536x864","1536x739",NA,NA,0,"Feedback Phrases Task - List 1 (study_2)",2,"In","FGEHDICJBA","A (JV first)","study_1 (JV and feedback_list_1)",NA,"In","Feedback List 1","Feedback List 1",21,"Task","Screen 1","113qg5",1,"action","Text",1253.85800003578,1249.91100000002,1253.85800003578,1253.85800003578,1249.91100000002,1253.85800003578,1,1253.85800003578,0,0,NA,"Mousetracking","screen",0,"screen",NA,1,"You came across as very calm and collected.","You seem very clever.","Task",NA,"SUPTM41800"
"106",1691930428892,"13/08/2023 12:40:28",1691934028892,1,"13/08/2023 14:40:28",139282,42,"task-nyoq",NA,31165598,9239672,NA,"complete",NA,NA,"computer","Desktop or Laptop","Windows 10","Chrome 115.0.0.0","1536x864","1536x739",NA,NA,0,"Feedback Phrases Task - List 1 (study_2)",2,"In","FGEHDICJBA","A (JV first)","study_1 (JV and feedback_list_1)",NA,"In","Feedback List 1","Feedback List 1",21,"Task","Screen 1","113qg5",1,"action","Text_left_X1",1254.35800003578,1249.91100000002,1254.35800003578,1254.35800003578,1249.91100000002,1254.35800003578,1,1254.35800003578,0,0,NA,"Mousetracking","screen",0,"screen",NA,1,"You came across as very calm and collected.","You seem very clever.","Task",NA,"SUPTM41800"
"107",1691930428892,"13/08/2023 12:40:28",1691934028892,1,"13/08/2023 14:40:28",139282,42,"task-nyoq",NA,31165598,9239672,NA,"complete",NA,NA,"computer","Desktop or Laptop","Windows 10","Chrome 115.0.0.0","1536x864","1536x739",NA,NA,0,"Feedback Phrases Task - List 1 (study_2)",2,"In","FGEHDICJBA","A (JV first)","study_1 (JV and feedback_list_1)",NA,"In","Feedback List 1","Feedback List 1",21,"Task","Screen 1","113qg5",1,"action","Text_right_X2",1254.65799998809,1249.91100000002,1254.65799998809,1254.65799998809,1249.91100000002,1254.65799998809,1,1254.65799998809,0,0,NA,"Mousetracking","screen",0,"screen",NA,1,"You came across as very calm and collected.","You seem very clever.","Task",NA,"SUPTM41800"
"108",1691930430655,"13/08/2023 12:40:30",1691934030655,1,"13/08/2023 14:40:30",139282,42,"task-nyoq",NA,31165598,9239672,NA,"complete",NA,NA,"computer","Desktop or Laptop","Windows 10","Chrome 115.0.0.0","1536x864","1536x739",NA,NA,0,"Feedback Phrases Task - List 1 (study_2)",2,"In","FGEHDICJBA","A (JV first)","study_1 (JV and feedback_list_1)",NA,"In","Feedback List 1","Feedback List 1",21,"Task","Screen 3","izqege",2,"continue","",1766.601,1766.601,1766.601,1766.601,1766.601,1766.601,1,1766.601,0,0,NA,"Fixation Timing","Fixation Cross",1,"object-48",NA,1,"You came across as very calm and collected.","You seem very clever.","Task",NA,"SUPTM41800"
"109",1691930434239,"13/08/2023 12:40:34",1691934034239,1,"13/08/2023 14:40:34",139282,42,"task-nyoq",NA,31165598,9239672,NA,"complete",NA,NA,"computer","Desktop or Laptop","Windows 10","Chrome 115.0.0.0","1536x864","1536x739",NA,NA,0,"Feedback Phrases Task - List 1 (study_2)",2,"In","FGEHDICJBA","A (JV first)","study_1 (JV and feedback_list_1)",NA,"In","Feedback List 1","Feedback List 1",22,"Task","Screen 1","113qg5",1,"response","You spoke very well.",3585.24600001192,3583.446,3585.24600001192,3585.24600001192,3583.446,3585.24600001192,1,3585.24600001192,0,0,NA,"Click Response","Text_right_X2",3,"object-19",NA,1,"Good work!","You spoke very well.","Task",NA,"SUPTM41800"
"110",1691930434239,"13/08/2023 12:40:34",1691934034239,1,"13/08/2023 14:40:34",139282,42,"task-nyoq",NA,31165598,9239672,NA,"complete",NA,NA,"computer","Desktop or Laptop","Windows 10","Chrome 115.0.0.0","1536x864","1536x739",NA,NA,0,"Feedback Phrases Task - List 1 (study_2)",2,"In","FGEHDICJBA","A (JV first)","study_1 (JV and feedback_list_1)",NA,"In","Feedback List 1","Feedback List 1",22,"Task","Screen 1","113qg5",1,"action","Text",3585.54600002384,3583.446,3585.54600002384,3585.54600002384,3583.446,3585.54600002384,1,3585.54600002384,0,0,NA,"Mousetracking","screen",0,"screen",NA,1,"Good work!","You spoke very well.","Task",NA,"SUPTM41800"
"111",1691930434239,"13/08/2023 12:40:34",1691934034239,1,"13/08/2023 14:40:34",139282,42,"task-nyoq",NA,31165598,9239672,NA,"complete",NA,NA,"computer","Desktop or Laptop","Windows 10","Chrome 115.0.0.0","1536x864","1536x739",NA,NA,0,"Feedback Phrases Task - List 1 (study_2)",2,"In","FGEHDICJBA","A (JV first)","study_1 (JV and feedback_list_1)",NA,"In","Feedback List 1","Feedback List 1",22,"Task","Screen 1","113qg5",1,"action","Text_left_X1",3585.64599998808,3583.446,3585.64599998808,3585.64599998808,3583.446,3585.64599998808,1,3585.64599998808,0,0,NA,"Mousetracking","screen",0,"screen",NA,1,"Good work!","You spoke very well.","Task",NA,"SUPTM41800"
"112",1691930434240,"13/08/2023 12:40:34",1691934034240,1,"13/08/2023 14:40:34",139282,42,"task-nyoq",NA,31165598,9239672,NA,"complete",NA,NA,"computer","Desktop or Laptop","Windows 10","Chrome 115.0.0.0","1536x864","1536x739",NA,NA,0,"Feedback Phrases Task - List 1 (study_2)",2,"In","FGEHDICJBA","A (JV first)","study_1 (JV and feedback_list_1)",NA,"In","Feedback List 1","Feedback List 1",22,"Task","Screen 1","113qg5",1,"action","Text_right_X2",3585.84600003576,3583.446,3585.84600003576,3585.84600003576,3583.446,3585.84600003576,1,3585.84600003576,0,0,NA,"Mousetracking","screen",0,"screen",NA,1,"Good work!","You spoke very well.","Task",NA,"SUPTM41800"
"113",1691930436004,"13/08/2023 12:40:36",1691934036004,1,"13/08/2023 14:40:36",139282,42,"task-nyoq",NA,31165598,9239672,NA,"complete",NA,NA,"computer","Desktop or Laptop","Windows 10","Chrome 115.0.0.0","1536x864","1536x739",NA,NA,0,"Feedback Phrases Task - List 1 (study_2)",2,"In","FGEHDICJBA","A (JV first)","study_1 (JV and feedback_list_1)",NA,"In","Feedback List 1","Feedback List 1",22,"Task","Screen 3","izqege",2,"continue","",1766.22899999999,1766.22899999999,1766.22899999999,1766.22899999999,1766.22899999999,1766.22899999999,1,1766.22899999999,0,0,NA,"Fixation Timing","Fixation Cross",1,"object-48",NA,1,"Good work!","You spoke very well.","Task",NA,"SUPTM41800"
"114",1691930437166,"13/08/2023 12:40:37",1691934037166,1,"13/08/2023 14:40:37",139282,42,"task-nyoq",NA,31165598,9239672,NA,"complete",NA,NA,"computer","Desktop or Laptop","Windows 10","Chrome 115.0.0.0","1536x864","1536x739",NA,NA,0,"Feedback Phrases Task - List 1 (study_2)",2,"In","FGEHDICJBA","A (JV first)","study_1 (JV and feedback_list_1)",NA,"In","Feedback List 1","Feedback List 1",23,"Task","Screen 1","113qg5",1,"response","You spoke very well.",1162.97099998809,1149.94100000002,1162.97099998809,1162.97099998809,1149.94100000002,1162.97099998809,1,1162.97099998809,0,0,NA,"Click Response","Text_right_X2",3,"object-19",NA,1,"You completed the task.","You spoke very well.","Task",NA,"SUPTM41800"
"115",1691930437167,"13/08/2023 12:40:37",1691934037167,1,"13/08/2023 14:40:37",139282,42,"task-nyoq",NA,31165598,9239672,NA,"complete",NA,NA,"computer","Desktop or Laptop","Windows 10","Chrome 115.0.0.0","1536x864","1536x739",NA,NA,0,"Feedback Phrases Task - List 1 (study_2)",2,"In","FGEHDICJBA","A (JV first)","study_1 (JV and feedback_list_1)",NA,"In","Feedback List 1","Feedback List 1",23,"Task","Screen 1","113qg5",1,"action","Text",1163.17100003577,1149.94100000002,1163.17100003577,1163.17100003577,1149.94100000002,1163.17100003577,1,1163.17100003577,0,0,NA,"Mousetracking","screen",0,"screen",NA,1,"You completed the task.","You spoke very well.","Task",NA,"SUPTM41800"
"116",1691930437167,"13/08/2023 12:40:37",1691934037167,1,"13/08/2023 14:40:37",139282,42,"task-nyoq",NA,31165598,9239672,NA,"complete",NA,NA,"computer","Desktop or Laptop","Windows 10","Chrome 115.0.0.0","1536x864","1536x739",NA,NA,0,"Feedback Phrases Task - List 1 (study_2)",2,"In","FGEHDICJBA","A (JV first)","study_1 (JV and feedback_list_1)",NA,"In","Feedback List 1","Feedback List 1",23,"Task","Screen 1","113qg5",1,"action","Text_left_X1",1163.27100000001,1149.94100000002,1163.27100000001,1163.27100000001,1149.94100000002,1163.27100000001,1,1163.27100000001,0,0,NA,"Mousetracking","screen",0,"screen",NA,1,"You completed the task.","You spoke very well.","Task",NA,"SUPTM41800"
"117",1691930437167,"13/08/2023 12:40:37",1691934037167,1,"13/08/2023 14:40:37",139282,42,"task-nyoq",NA,31165598,9239672,NA,"complete",NA,NA,"computer","Desktop or Laptop","Windows 10","Chrome 115.0.0.0","1536x864","1536x739",NA,NA,0,"Feedback Phrases Task - List 1 (study_2)",2,"In","FGEHDICJBA","A (JV first)","study_1 (JV and feedback_list_1)",NA,"In","Feedback List 1","Feedback List 1",23,"Task","Screen 1","113qg5",1,"action","Text_right_X2",1163.67100003577,1149.94100000002,1163.67100003577,1163.67100003577,1149.94100000002,1163.67100003577,1,1163.67100003577,0,0,NA,"Mousetracking","screen",0,"screen",NA,1,"You completed the task.","You spoke very well.","Task",NA,"SUPTM41800"
"118",1691930438921,"13/08/2023 12:40:38",1691934038921,1,"13/08/2023 14:40:38",139282,42,"task-nyoq",NA,31165598,9239672,NA,"complete",NA,NA,"computer","Desktop or Laptop","Windows 10","Chrome 115.0.0.0","1536x864","1536x739",NA,NA,0,"Feedback Phrases Task - List 1 (study_2)",2,"In","FGEHDICJBA","A (JV first)","study_1 (JV and feedback_list_1)",NA,"In","Feedback List 1","Feedback List 1",23,"Task","Screen 3","izqege",2,"continue","",1766.57699999999,1766.57699999999,1766.57699999999,1766.57699999999,1766.57699999999,1766.57699999999,1,1766.57699999999,0,0,NA,"Fixation Timing","Fixation Cross",1,"object-48",NA,1,"You completed the task.","You spoke very well.","Task",NA,"SUPTM41800"
"119",1691930440163,"13/08/2023 12:40:40",1691934040163,1,"13/08/2023 14:40:40",139282,42,"task-nyoq",NA,31165598,9239672,NA,"complete",NA,NA,"computer","Desktop or Laptop","Windows 10","Chrome 115.0.0.0","1536x864","1536x739",NA,NA,0,"Feedback Phrases Task - List 1 (study_2)",2,"In","FGEHDICJBA","A (JV first)","study_1 (JV and feedback_list_1)",NA,"In","Feedback List 1","Feedback List 1",24,"Task","Screen 1","113qg5",1,"response","You came across as very calm and collected.",1242.85300002384,1232.94399999999,1242.85300002384,1242.85300002384,1232.94399999999,1242.85300002384,1,1242.85300002384,0,0,NA,"Click Response","Text_right_X2",3,"object-19",NA,1,"You completed the task.","You came across as very calm and collected.","Task",NA,"SUPTM41800"
"120",1691930440163,"13/08/2023 12:40:40",1691934040163,1,"13/08/2023 14:40:40",139282,42,"task-nyoq",NA,31165598,9239672,NA,"complete",NA,NA,"computer","Desktop or Laptop","Windows 10","Chrome 115.0.0.0","1536x864","1536x739",NA,NA,0,"Feedback Phrases Task - List 1 (study_2)",2,"In","FGEHDICJBA","A (JV first)","study_1 (JV and feedback_list_1)",NA,"In","Feedback List 1","Feedback List 1",24,"Task","Screen 1","113qg5",1,"action","Text",1243.15300003576,1232.94399999999,1243.15300003576,1243.15300003576,1232.94399999999,1243.15300003576,1,1243.15300003576,0,0,NA,"Mousetracking","screen",0,"screen",NA,1,"You completed the task.","You came across as very calm and collected.","Task",NA,"SUPTM41800"
"121",1691930440163,"13/08/2023 12:40:40",1691934040163,1,"13/08/2023 14:40:40",139282,42,"task-nyoq",NA,31165598,9239672,NA,"complete",NA,NA,"computer","Desktop or Laptop","Windows 10","Chrome 115.0.0.0","1536x864","1536x739",NA,NA,0,"Feedback Phrases Task - List 1 (study_2)",2,"In","FGEHDICJBA","A (JV first)","study_1 (JV and feedback_list_1)",NA,"In","Feedback List 1","Feedback List 1",24,"Task","Screen 1","113qg5",1,"action","Text_left_X1",1243.45299998808,1232.94399999999,1243.45299998808,1243.45299998808,1232.94399999999,1243.45299998808,1,1243.45299998808,0,0,NA,"Mousetracking","screen",0,"screen",NA,1,"You completed the task.","You came across as very calm and collected.","Task",NA,"SUPTM41800"
"122",1691930440164,"13/08/2023 12:40:40",1691934040164,1,"13/08/2023 14:40:40",139282,42,"task-nyoq",NA,31165598,9239672,NA,"complete",NA,NA,"computer","Desktop or Laptop","Windows 10","Chrome 115.0.0.0","1536x864","1536x739",NA,NA,0,"Feedback Phrases Task - List 1 (study_2)",2,"In","FGEHDICJBA","A (JV first)","study_1 (JV and feedback_list_1)",NA,"In","Feedback List 1","Feedback List 1",24,"Task","Screen 1","113qg5",1,"action","Text_right_X2",1244.35300002384,1232.94399999999,1244.35300002384,1244.35300002384,1232.94399999999,1244.35300002384,1,1244.35300002384,0,0,NA,"Mousetracking","screen",0,"screen",NA,1,"You completed the task.","You came across as very calm and collected.","Task",NA,"SUPTM41800"
"123",1691930441921,"13/08/2023 12:40:41",1691934041921,1,"13/08/2023 14:40:41",139282,42,"task-nyoq",NA,31165598,9239672,NA,"complete",NA,NA,"computer","Desktop or Laptop","Windows 10","Chrome 115.0.0.0","1536x864","1536x739",NA,NA,0,"Feedback Phrases Task - List 1 (study_2)",2,"In","FGEHDICJBA","A (JV first)","study_1 (JV and feedback_list_1)",NA,"In","Feedback List 1","Feedback List 1",24,"Task","Screen 3","izqege",2,"continue","",1766.86600000001,1766.86600000001,1766.86600000001,1766.86600000001,1766.86600000001,1766.86600000001,1,1766.86600000001,0,0,NA,"Fixation Timing","Fixation Cross",1,"object-48",NA,1,"You completed the task.","You came across as very calm and collected.","Task",NA,"SUPTM41800"
"124",1691930444023,"13/08/2023 12:40:44",1691934044023,1,"13/08/2023 14:40:44",139282,42,"task-nyoq",NA,31165598,9239672,NA,"complete",NA,NA,"computer","Desktop or Laptop","Windows 10","Chrome 115.0.0.0","1536x864","1536x739",NA,NA,0,"Feedback Phrases Task - List 1 (study_2)",2,"In","FGEHDICJBA","A (JV first)","study_1 (JV and feedback_list_1)",NA,"In","Feedback List 1","Feedback List 1",25,"Task","Screen 1","113qg5",1,"response","That was great!",2103.54300002384,2099.77799999999,2103.54300002384,2103.54300002384,2099.77799999999,2103.54300002384,1,2103.54300002384,0,0,NA,"Click Response","Text_left_X1",2,"object-18",NA,1,"That was great!","You were very interesting to listen to.","Task",NA,"SUPTM41800"
"125",1691930444023,"13/08/2023 12:40:44",1691934044023,1,"13/08/2023 14:40:44",139282,42,"task-nyoq",NA,31165598,9239672,NA,"complete",NA,NA,"computer","Desktop or Laptop","Windows 10","Chrome 115.0.0.0","1536x864","1536x739",NA,NA,0,"Feedback Phrases Task - List 1 (study_2)",2,"In","FGEHDICJBA","A (JV first)","study_1 (JV and feedback_list_1)",NA,"In","Feedback List 1","Feedback List 1",25,"Task","Screen 1","113qg5",1,"action","Text",2103.64299998808,2099.77799999999,2103.64299998808,2103.64299998808,2099.77799999999,2103.64299998808,1,2103.64299998808,0,0,NA,"Mousetracking","screen",0,"screen",NA,1,"That was great!","You were very interesting to listen to.","Task",NA,"SUPTM41800"
"126",1691930444024,"13/08/2023 12:40:44",1691934044024,1,"13/08/2023 14:40:44",139282,42,"task-nyoq",NA,31165598,9239672,NA,"complete",NA,NA,"computer","Desktop or Laptop","Windows 10","Chrome 115.0.0.0","1536x864","1536x739",NA,NA,0,"Feedback Phrases Task - List 1 (study_2)",2,"In","FGEHDICJBA","A (JV first)","study_1 (JV and feedback_list_1)",NA,"In","Feedback List 1","Feedback List 1",25,"Task","Screen 1","113qg5",1,"action","Text_left_X1",2103.84300003576,2099.77799999999,2103.84300003576,2103.84300003576,2099.77799999999,2103.84300003576,1,2103.84300003576,0,0,NA,"Mousetracking","screen",0,"screen",NA,1,"That was great!","You were very interesting to listen to.","Task",NA,"SUPTM41800"
"127",1691930444024,"13/08/2023 12:40:44",1691934044024,1,"13/08/2023 14:40:44",139282,42,"task-nyoq",NA,31165598,9239672,NA,"complete",NA,NA,"computer","Desktop or Laptop","Windows 10","Chrome 115.0.0.0","1536x864","1536x739",NA,NA,0,"Feedback Phrases Task - List 1 (study_2)",2,"In","FGEHDICJBA","A (JV first)","study_1 (JV and feedback_list_1)",NA,"In","Feedback List 1","Feedback List 1",25,"Task","Screen 1","113qg5",1,"action","Text_right_X2",2103.84300003576,2099.77799999999,2103.84300003576,2103.84300003576,2099.77799999999,2103.84300003576,1,2103.84300003576,0,0,NA,"Mousetracking","screen",0,"screen",NA,1,"That was great!","You were very interesting to listen to.","Task",NA,"SUPTM41800"
"128",1691930445787,"13/08/2023 12:40:45",1691934045787,1,"13/08/2023 14:40:45",139282,42,"task-nyoq",NA,31165598,9239672,NA,"complete",NA,NA,"computer","Desktop or Laptop","Windows 10","Chrome 115.0.0.0","1536x864","1536x739",NA,NA,0,"Feedback Phrases Task - List 1 (study_2)",2,"In","FGEHDICJBA","A (JV first)","study_1 (JV and feedback_list_1)",NA,"In","Feedback List 1","Feedback List 1",25,"Task","Screen 3","izqege",2,"continue","",1766.685,1766.685,1766.685,1766.685,1766.685,1766.685,1,1766.685,0,0,NA,"Fixation Timing","Fixation Cross",1,"object-48",NA,1,"That was great!","You were very interesting to listen to.","Task",NA,"SUPTM41800"
"129",1691930446923,"13/08/2023 12:40:46",1691934046923,1,"13/08/2023 14:40:46",139282,42,"task-nyoq",NA,31165598,9239672,NA,"complete",NA,NA,"computer","Desktop or Laptop","Windows 10","Chrome 115.0.0.0","1536x864","1536x739",NA,NA,0,"Feedback Phrases Task - List 1 (study_2)",2,"In","FGEHDICJBA","A (JV first)","study_1 (JV and feedback_list_1)",NA,"In","Feedback List 1","Feedback List 1",26,"Task","Screen 1","113qg5",1,"response","You were very interesting to listen to.",1136.78000001193,1132.962,1136.78000001193,1136.78000001193,1132.962,1136.78000001193,1,1136.78000001193,0,0,NA,"Click Response","Text_right_X2",3,"object-19",NA,1,"I didn't notice any mistakes.","You were very interesting to listen to.","Task",NA,"SUPTM41800"
"130",1691930446923,"13/08/2023 12:40:46",1691934046923,1,"13/08/2023 14:40:46",139282,42,"task-nyoq",NA,31165598,9239672,NA,"complete",NA,NA,"computer","Desktop or Laptop","Windows 10","Chrome 115.0.0.0","1536x864","1536x739",NA,NA,0,"Feedback Phrases Task - List 1 (study_2)",2,"In","FGEHDICJBA","A (JV first)","study_1 (JV and feedback_list_1)",NA,"In","Feedback List 1","Feedback List 1",26,"Task","Screen 1","113qg5",1,"action","Text",1137.08000002385,1132.962,1137.08000002385,1137.08000002385,1132.962,1137.08000002385,1,1137.08000002385,0,0,NA,"Mousetracking","screen",0,"screen",NA,1,"I didn't notice any mistakes.","You were very interesting to listen to.","Task",NA,"SUPTM41800"
"131",1691930446924,"13/08/2023 12:40:46",1691934046924,1,"13/08/2023 14:40:46",139282,42,"task-nyoq",NA,31165598,9239672,NA,"complete",NA,NA,"computer","Desktop or Laptop","Windows 10","Chrome 115.0.0.0","1536x864","1536x739",NA,NA,0,"Feedback Phrases Task - List 1 (study_2)",2,"In","FGEHDICJBA","A (JV first)","study_1 (JV and feedback_list_1)",NA,"In","Feedback List 1","Feedback List 1",26,"Task","Screen 1","113qg5",1,"action","Text_left_X1",1137.28000001193,1132.962,1137.28000001193,1137.28000001193,1132.962,1137.28000001193,1,1137.28000001193,0,0,NA,"Mousetracking","screen",0,"screen",NA,1,"I didn't notice any mistakes.","You were very interesting to listen to.","Task",NA,"SUPTM41800"
"132",1691930446924,"13/08/2023 12:40:46",1691934046924,1,"13/08/2023 14:40:46",139282,42,"task-nyoq",NA,31165598,9239672,NA,"complete",NA,NA,"computer","Desktop or Laptop","Windows 10","Chrome 115.0.0.0","1536x864","1536x739",NA,NA,0,"Feedback Phrases Task - List 1 (study_2)",2,"In","FGEHDICJBA","A (JV first)","study_1 (JV and feedback_list_1)",NA,"In","Feedback List 1","Feedback List 1",26,"Task","Screen 1","113qg5",1,"action","Text_right_X2",1137.48000000001,1132.962,1137.48000000001,1137.48000000001,1132.962,1137.48000000001,1,1137.48000000001,0,0,NA,"Mousetracking","screen",0,"screen",NA,1,"I didn't notice any mistakes.","You were very interesting to listen to.","Task",NA,"SUPTM41800"
"133",1691930448687,"13/08/2023 12:40:48",1691934048687,1,"13/08/2023 14:40:48",139282,42,"task-nyoq",NA,31165598,9239672,NA,"complete",NA,NA,"computer","Desktop or Laptop","Windows 10","Chrome 115.0.0.0","1536x864","1536x739",NA,NA,0,"Feedback Phrases Task - List 1 (study_2)",2,"In","FGEHDICJBA","A (JV first)","study_1 (JV and feedback_list_1)",NA,"In","Feedback List 1","Feedback List 1",26,"Task","Screen 3","izqege",2,"continue","",1766.894,1766.894,1766.894,1766.894,1766.894,1766.894,1,1766.894,0,0,NA,"Fixation Timing","Fixation Cross",1,"object-48",NA,1,"I didn't notice any mistakes.","You were very interesting to listen to.","Task",NA,"SUPTM41800"
"134",1691930452482,"13/08/2023 12:40:52",1691934052482,1,"13/08/2023 14:40:52",139282,42,"task-nyoq",NA,31165598,9239672,NA,"complete",NA,NA,"computer","Desktop or Laptop","Windows 10","Chrome 115.0.0.0","1536x864","1536x739",NA,NA,0,"Feedback Phrases Task - List 1 (study_2)",2,"In","FGEHDICJBA","A (JV first)","study_1 (JV and feedback_list_1)",NA,"In","Feedback List 1","Feedback List 1",27,"Task","Screen 1","113qg5",1,"response","Your description was very clear and concise.",3796.22400002385,3782.83300000001,3796.22400002385,3796.22400002385,3782.83300000001,3796.22400002385,1,3796.22400002385,0,0,NA,"Click Response","Text_right_X2",3,"object-19",NA,1,"Good work!","Your description was very clear and concise.","Task",NA,"SUPTM41800"
"135",1691930452487,"13/08/2023 12:40:52",1691934052487,1,"13/08/2023 14:40:52",139282,42,"task-nyoq",NA,31165598,9239672,NA,"complete",NA,NA,"computer","Desktop or Laptop","Windows 10","Chrome 115.0.0.0","1536x864","1536x739",NA,NA,0,"Feedback Phrases Task - List 1 (study_2)",2,"In","FGEHDICJBA","A (JV first)","study_1 (JV and feedback_list_1)",NA,"In","Feedback List 1","Feedback List 1",27,"Task","Screen 1","113qg5",1,"action","Text",3799.25400000002,3782.83300000001,3799.25400000002,3799.25400000002,3782.83300000001,3799.25400000002,1,3799.25400000002,0,0,NA,"Mousetracking","screen",0,"screen",NA,1,"Good work!","Your description was very clear and concise.","Task",NA,"SUPTM41800"
"136",1691930452487,"13/08/2023 12:40:52",1691934052487,1,"13/08/2023 14:40:52",139282,42,"task-nyoq",NA,31165598,9239672,NA,"complete",NA,NA,"computer","Desktop or Laptop","Windows 10","Chrome 115.0.0.0","1536x864","1536x739",NA,NA,0,"Feedback Phrases Task - List 1 (study_2)",2,"In","FGEHDICJBA","A (JV first)","study_1 (JV and feedback_list_1)",NA,"In","Feedback List 1","Feedback List 1",27,"Task","Screen 1","113qg5",1,"action","Text_left_X1",3799.25400000002,3782.83300000001,3799.25400000002,3799.25400000002,3782.83300000001,3799.25400000002,1,3799.25400000002,0,0,NA,"Mousetracking","screen",0,"screen",NA,1,"Good work!","Your description was very clear and concise.","Task",NA,"SUPTM41800"
"137",1691930452488,"13/08/2023 12:40:52",1691934052488,1,"13/08/2023 14:40:52",139282,42,"task-nyoq",NA,31165598,9239672,NA,"complete",NA,NA,"computer","Desktop or Laptop","Windows 10","Chrome 115.0.0.0","1536x864","1536x739",NA,NA,0,"Feedback Phrases Task - List 1 (study_2)",2,"In","FGEHDICJBA","A (JV first)","study_1 (JV and feedback_list_1)",NA,"In","Feedback List 1","Feedback List 1",27,"Task","Screen 1","113qg5",1,"action","Text_right_X2",3799.25400000002,3782.83300000001,3799.25400000002,3799.25400000002,3782.83300000001,3799.25400000002,1,3799.25400000002,0,0,NA,"Mousetracking","screen",0,"screen",NA,1,"Good work!","Your description was very clear and concise.","Task",NA,"SUPTM41800"
"138",1691930454236,"13/08/2023 12:40:54",1691934054236,1,"13/08/2023 14:40:54",139282,42,"task-nyoq",NA,31165598,9239672,NA,"complete",NA,NA,"computer","Desktop or Laptop","Windows 10","Chrome 115.0.0.0","1536x864","1536x739",NA,NA,0,"Feedback Phrases Task - List 1 (study_2)",2,"In","FGEHDICJBA","A (JV first)","study_1 (JV and feedback_list_1)",NA,"In","Feedback List 1","Feedback List 1",27,"Task","Screen 3","izqege",2,"continue","",1766.823,1766.823,1766.823,1766.823,1766.823,1766.823,1,1766.823,0,0,NA,"Fixation Timing","Fixation Cross",1,"object-48",NA,1,"Good work!","Your description was very clear and concise.","Task",NA,"SUPTM41800"
"139",1691930457220,"13/08/2023 12:40:57",1691934057220,1,"13/08/2023 14:40:57",139282,42,"task-nyoq",NA,31165598,9239672,NA,"complete",NA,NA,"computer","Desktop or Laptop","Windows 10","Chrome 115.0.0.0","1536x864","1536x739",NA,NA,0,"Feedback Phrases Task - List 1 (study_2)",2,"In","FGEHDICJBA","A (JV first)","study_1 (JV and feedback_list_1)",NA,"In","Feedback List 1","Feedback List 1",28,"Task","Screen 1","113qg5",1,"response","You did a great job of capturing the details.",2984.26800001191,2982.86900000001,2984.26800001191,2984.26800001191,2982.86900000001,2984.26800001191,1,2984.26800001191,0,0,NA,"Click Response","Text_left_X1",2,"object-18",NA,1,"You did a great job of capturing the details.","You appeared very composed.","Task",NA,"SUPTM41800"
"140",1691930457220,"13/08/2023 12:40:57",1691934057220,1,"13/08/2023 14:40:57",139282,42,"task-nyoq",NA,31165598,9239672,NA,"complete",NA,NA,"computer","Desktop or Laptop","Windows 10","Chrome 115.0.0.0","1536x864","1536x739",NA,NA,0,"Feedback Phrases Task - List 1 (study_2)",2,"In","FGEHDICJBA","A (JV first)","study_1 (JV and feedback_list_1)",NA,"In","Feedback List 1","Feedback List 1",28,"Task","Screen 1","113qg5",1,"action","Text",2984.46799999999,2982.86900000001,2984.46799999999,2984.46799999999,2982.86900000001,2984.46799999999,1,2984.46799999999,0,0,NA,"Mousetracking","screen",0,"screen",NA,1,"You did a great job of capturing the details.","You appeared very composed.","Task",NA,"SUPTM41800"
"141",1691930457220,"13/08/2023 12:40:57",1691934057220,1,"13/08/2023 14:40:57",139282,42,"task-nyoq",NA,31165598,9239672,NA,"complete",NA,NA,"computer","Desktop or Laptop","Windows 10","Chrome 115.0.0.0","1536x864","1536x739",NA,NA,0,"Feedback Phrases Task - List 1 (study_2)",2,"In","FGEHDICJBA","A (JV first)","study_1 (JV and feedback_list_1)",NA,"In","Feedback List 1","Feedback List 1",28,"Task","Screen 1","113qg5",1,"action","Text_left_X1",2984.66799998807,2982.86900000001,2984.66799998807,2984.66799998807,2982.86900000001,2984.66799998807,1,2984.66799998807,0,0,NA,"Mousetracking","screen",0,"screen",NA,1,"You did a great job of capturing the details.","You appeared very composed.","Task",NA,"SUPTM41800"
"142",1691930457221,"13/08/2023 12:40:57",1691934057221,1,"13/08/2023 14:40:57",139282,42,"task-nyoq",NA,31165598,9239672,NA,"complete",NA,NA,"computer","Desktop or Laptop","Windows 10","Chrome 115.0.0.0","1536x864","1536x739",NA,NA,0,"Feedback Phrases Task - List 1 (study_2)",2,"In","FGEHDICJBA","A (JV first)","study_1 (JV and feedback_list_1)",NA,"In","Feedback List 1","Feedback List 1",28,"Task","Screen 1","113qg5",1,"action","Text_right_X2",2984.86800003576,2982.86900000001,2984.86800003576,2984.86800003576,2982.86900000001,2984.86800003576,1,2984.86800003576,0,0,NA,"Mousetracking","screen",0,"screen",NA,1,"You did a great job of capturing the details.","You appeared very composed.","Task",NA,"SUPTM41800"
