"Event.Index","UTC.Timestamp","UTC.Date.and.Time","Local.Timestamp","Local.Timezone","Local.Date.and.Time","Experiment.ID","Experiment.Version","Tree.Node.Key","Repeat.Key","Schedule.ID","Participant.Private.ID","Participant.Starting.Group","Participant.Status","Participant.Completion.Code","Participant.External.Session.ID","Participant.Device.Type","Participant.Device","Participant.OS","Participant.Browser","Participant.Monitor.Size","Participant.Viewport.Size","Checkpoint","Room.ID","Room.Order","Task.Name","Task.Version","branch.hkzp","order.ot79","randomiser.lqqr","randomiser.28m8","randomiser.tf5j","branch.vlgf","Spreadsheet","Current.Spreadsheet","Trial.Number","Display","Screen","Screen.ID","Screen.Counter","Response.Type","Response","Onset.Time","Clock.Time","Reaction.Time","Absolute.Onset.Time","Absolute.Clock.Time","Absolute.Reaction.Time","Correct","Response.Onset","Response.Duration","Proportion","Tag","Component.Name","Object.Name","Object.Number","Object.ID","Spreadsheet..display","Spreadsheet..Index","Spreadsheet..X1","Spreadsheet..X2","Spreadsheet..Display","Spreadsheet..test_response_save","Manipulation..Spreadsheet","Store..test_response_save","Random_ID"
"1",1691005733286,"02/08/2023 19:48:53",1691009333286,1,"02/08/2023 21:48:53",139282,42,"task-lqy7",NA,31015924,9199072,NA,"complete",NA,NA,"computer","Desktop or Laptop","Linux x86_64","Chrome 114.0.0.0","1920x1080","1920x905",NA,NA,NA,"Feedback Phrases Task - List 2",8,"In","HIGJFAEBDC",NA,"study_2 (video_feedback and feedback_list_2)","VF_1st","In","Feedback Phrases List 2","Feedback Phrases List 2",NA,"","","",NA,"5","BEGIN",NA,NA,NA,NA,NA,NA,0,NA,NA,NA,NA,"","",NA,"",NA,NA,"","","",NA,NA,NA,"SUPTM61449"
"2",1691005735967,"02/08/2023 19:48:55",1691009335967,1,"02/08/2023 21:48:55",139282,42,"task-lqy7",NA,31015924,9199072,NA,"complete",NA,NA,"computer","Desktop or Laptop","Linux x86_64","Chrome 114.0.0.0","1920x1080","1920x905",NA,NA,NA,"Feedback Phrases Task - List 2",8,"In","HIGJFAEBDC",NA,"study_2 (video_feedback and feedback_list_2)","VF_1st","In","Feedback Phrases List 2","Feedback Phrases List 2",1,"Instructions","Screen 3","6w7c99",1,"continue","",2707.06199999981,2700.023,2707.06199999981,2707.06199999981,2700.023,2707.06199999981,1,2707.06199999981,0,0,NA,"Click To Continue","Continue Button",2,"object-29",NA,NA,"","","Instructions",NA,NA,NA,"SUPTM61449"
"3",1691005737291,"02/08/2023 19:48:57",1691009337291,1,"02/08/2023 21:48:57",139282,42,"task-lqy7",NA,31015924,9199072,NA,"complete",NA,NA,"computer","Desktop or Laptop","Linux x86_64","Chrome 114.0.0.0","1920x1080","1920x905",NA,NA,NA,"Feedback Phrases Task - List 2",8,"In","HIGJFAEBDC",NA,"study_2 (video_feedback and feedback_list_2)","VF_1st","In","Feedback Phrases List 2","Feedback Phrases List 2",1,"Instructions","Screen 4","4vof69",2,"continue","",1332.53899999981,1316.639,1332.53899999981,1332.53899999981,1316.639,1332.53899999981,1,1332.53899999981,0,0,NA,"Click To Continue","Continue Button",2,"object-41",NA,NA,"","","Instructions",NA,NA,NA,"SUPTM61449"
"4",1691005822564,"02/08/2023 19:50:22",1691009422564,1,"02/08/2023 21:50:22",139282,42,"task-lqy7",NA,31015924,9199072,NA,"complete",NA,NA,"computer","Desktop or Laptop","Linux x86_64","Chrome 114.0.0.0","1920x1080","1920x905",NA,NA,NA,"Feedback Phrases Task - List 2",8,"In","HIGJFAEBDC",NA,"study_2 (video_feedback and feedback_list_2)","VF_1st","In","Feedback Phrases List 2","Feedback Phrases List 2",1,"Task","Screen 1","113qg5",1,"continue","",85288.1,85284.077,85288.1,85288.1,85284.077,85288.1,1,85288.1,0,0,NA,"Click To Continue","Text_left_X2",3,"object-19",NA,1,"I could easily picture what you were describing.","You seemed very in-control.","Task",NA,NA,NA,"SUPTM61449"
"5",1691005824328,"02/08/2023 19:50:24",1691009424328,1,"02/08/2023 21:50:24",139282,42,"task-lqy7",NA,31015924,9199072,NA,"complete",NA,NA,"computer","Desktop or Laptop","Linux x86_64","Chrome 114.0.0.0","1920x1080","1920x905",NA,NA,NA,"Feedback Phrases Task - List 2",8,"In","HIGJFAEBDC",NA,"study_2 (video_feedback and feedback_list_2)","VF_1st","In","Feedback Phrases List 2","Feedback Phrases List 2",1,"Task","Screen 3","izqege",2,"continue","",1766.833,1766.833,1766.833,1766.833,1766.833,1766.833,1,1766.833,0,0,NA,"Fixation Timing","Fixation Cross",1,"object-48",NA,1,"I could easily picture what you were describing.","You seemed very in-control.","Task",NA,NA,NA,"SUPTM61449"
"6",1691005829612,"02/08/2023 19:50:29",1691009429612,1,"02/08/2023 21:50:29",139282,42,"task-lqy7",NA,31015924,9199072,NA,"complete",NA,NA,"computer","Desktop or Laptop","Linux x86_64","Chrome 114.0.0.0","1920x1080","1920x905",NA,NA,NA,"Feedback Phrases Task - List 2",8,"In","HIGJFAEBDC",NA,"study_2 (video_feedback and feedback_list_2)","VF_1st","In","Feedback Phrases List 2","Feedback Phrases List 2",2,"Task","Screen 1","113qg5",1,"continue","",5285.69,5283.139,5285.69,5285.69,5283.139,5285.69,1,5285.69,0,0,NA,"Click To Continue","Text_left_X2",3,"object-19",NA,1,"That was perfect.","You are really engaging when you speak.","Task",NA,NA,NA,"SUPTM61449"
"7",1691005831377,"02/08/2023 19:50:31",1691009431377,1,"02/08/2023 21:50:31",139282,42,"task-lqy7",NA,31015924,9199072,NA,"complete",NA,NA,"computer","Desktop or Laptop","Linux x86_64","Chrome 114.0.0.0","1920x1080","1920x905",NA,NA,NA,"Feedback Phrases Task - List 2",8,"In","HIGJFAEBDC",NA,"study_2 (video_feedback and feedback_list_2)","VF_1st","In","Feedback Phrases List 2","Feedback Phrases List 2",2,"Task","Screen 3","izqege",2,"continue","",1766.92600000001,1766.92600000001,1766.92600000001,1766.92600000001,1766.92600000001,1766.92600000001,1,1766.92600000001,0,0,NA,"Fixation Timing","Fixation Cross",1,"object-48",NA,1,"That was perfect.","You are really engaging when you speak.","Task",NA,NA,NA,"SUPTM61449"
"8",1691005865928,"02/08/2023 19:51:05",1691009465928,1,"02/08/2023 21:51:05",139282,42,"task-lqy7",NA,31015924,9199072,NA,"complete",NA,NA,"computer","Desktop or Laptop","Linux x86_64","Chrome 114.0.0.0","1920x1080","1920x905",NA,NA,NA,"Feedback Phrases Task - List 2",8,"In","HIGJFAEBDC",NA,"study_2 (video_feedback and feedback_list_2)","VF_1st","In","Feedback Phrases List 2","Feedback Phrases List 2",3,"Task","Screen 1","113qg5",1,"continue","",34551.4250000007,34550.107,34551.4250000007,34551.4250000007,34550.107,34551.4250000007,1,34551.4250000007,0,0,NA,"Click To Continue","Text_left_X1",2,"object-18",NA,1,"That was decent.","You said all the right things.","Task",NA,NA,NA,"SUPTM61449"
"9",1691005867694,"02/08/2023 19:51:07",1691009467694,1,"02/08/2023 21:51:07",139282,42,"task-lqy7",NA,31015924,9199072,NA,"complete",NA,NA,"computer","Desktop or Laptop","Linux x86_64","Chrome 114.0.0.0","1920x1080","1920x905",NA,NA,NA,"Feedback Phrases Task - List 2",8,"In","HIGJFAEBDC",NA,"study_2 (video_feedback and feedback_list_2)","VF_1st","In","Feedback Phrases List 2","Feedback Phrases List 2",3,"Task","Screen 3","izqege",2,"continue","",1766.897,1766.897,1766.897,1766.897,1766.897,1766.897,1,1766.897,0,0,NA,"Fixation Timing","Fixation Cross",1,"object-48",NA,1,"That was decent.","You said all the right things.","Task",NA,NA,NA,"SUPTM61449"
"10",1691005959264,"02/08/2023 19:52:39",1691009559264,1,"02/08/2023 21:52:39",139282,42,"task-lqy7",NA,31015924,9199072,NA,"complete",NA,NA,"computer","Desktop or Laptop","Linux x86_64","Chrome 114.0.0.0","1920x1080","1920x905",NA,NA,NA,"Feedback Phrases Task - List 2",8,"In","HIGJFAEBDC",NA,"study_2 (video_feedback and feedback_list_2)","VF_1st","In","Feedback Phrases List 2","Feedback Phrases List 2",4,"Task","Screen 1","113qg5",1,"continue","",91570.9210000008,91565.708,91570.9210000008,91570.9210000008,91565.708,91570.9210000008,1,91570.9210000008,0,0,NA,"Click To Continue","Text_left_X1",2,"object-18",NA,1,"That was decent.","Well done!","Task",NA,NA,NA,"SUPTM61449"
"11",1691005961029,"02/08/2023 19:52:41",1691009561029,1,"02/08/2023 21:52:41",139282,42,"task-lqy7",NA,31015924,9199072,NA,"complete",NA,NA,"computer","Desktop or Laptop","Linux x86_64","Chrome 114.0.0.0","1920x1080","1920x905",NA,NA,NA,"Feedback Phrases Task - List 2",8,"In","HIGJFAEBDC",NA,"study_2 (video_feedback and feedback_list_2)","VF_1st","In","Feedback Phrases List 2","Feedback Phrases List 2",4,"Task","Screen 3","izqege",2,"continue","",1768.43400000001,1768.43400000001,1768.43400000001,1768.43400000001,1768.43400000001,1768.43400000001,1,1768.43400000001,0,0,NA,"Fixation Timing","Fixation Cross",1,"object-48",NA,1,"That was decent.","Well done!","Task",NA,NA,NA,"SUPTM61449"
"12",1691005963101,"02/08/2023 19:52:43",1691009563101,1,"02/08/2023 21:52:43",139282,42,"task-lqy7",NA,31015924,9199072,NA,"complete",NA,NA,"computer","Desktop or Laptop","Linux x86_64","Chrome 114.0.0.0","1920x1080","1920x905",NA,NA,NA,"Feedback Phrases Task - List 2",8,"In","HIGJFAEBDC",NA,"study_2 (video_feedback and feedback_list_2)","VF_1st","In","Feedback Phrases List 2","Feedback Phrases List 2",5,"Task","Screen 1","113qg5",1,"continue","",2072.87900000036,2066.60499999998,2072.87900000036,2072.87900000036,2066.60499999998,2072.87900000036,1,2072.87900000036,0,0,NA,"Click To Continue","Text_left_X1",2,"object-18",NA,1,"You appeared very confident.","You appear very smart.","Task",NA,NA,NA,"SUPTM61449"
"13",1691005964863,"02/08/2023 19:52:44",1691009564863,1,"02/08/2023 21:52:44",139282,42,"task-lqy7",NA,31015924,9199072,NA,"complete",NA,NA,"computer","Desktop or Laptop","Linux x86_64","Chrome 114.0.0.0","1920x1080","1920x905",NA,NA,NA,"Feedback Phrases Task - List 2",8,"In","HIGJFAEBDC",NA,"study_2 (video_feedback and feedback_list_2)","VF_1st","In","Feedback Phrases List 2","Feedback Phrases List 2",5,"Task","Screen 3","izqege",2,"continue","",1766.76700000002,1766.76700000002,1766.76700000002,1766.76700000002,1766.76700000002,1766.76700000002,1,1766.76700000002,0,0,NA,"Fixation Timing","Fixation Cross",1,"object-48",NA,1,"You appeared very confident.","You appear very smart.","Task",NA,NA,NA,"SUPTM61449"
"14",1691005966557,"02/08/2023 19:52:46",1691009566557,1,"02/08/2023 21:52:46",139282,42,"task-lqy7",NA,31015924,9199072,NA,"complete",NA,NA,"computer","Desktop or Laptop","Linux x86_64","Chrome 114.0.0.0","1920x1080","1920x905",NA,NA,NA,"Feedback Phrases Task - List 2",8,"In","HIGJFAEBDC",NA,"study_2 (video_feedback and feedback_list_2)","VF_1st","In","Feedback Phrases List 2","Feedback Phrases List 2",6,"Task","Screen 1","113qg5",1,"continue","",1696.00700000036,1683.288,1696.00700000036,1696.00700000036,1683.288,1696.00700000036,1,1696.00700000036,0,0,NA,"Click To Continue","Text_left_X1",2,"object-18",NA,1,"Well done!","You appear very smart.","Task",NA,NA,NA,"SUPTM61449"
"15",1691005968312,"02/08/2023 19:52:48",1691009568312,1,"02/08/2023 21:52:48",139282,42,"task-lqy7",NA,31015924,9199072,NA,"complete",NA,NA,"computer","Desktop or Laptop","Linux x86_64","Chrome 114.0.0.0","1920x1080","1920x905",NA,NA,NA,"Feedback Phrases Task - List 2",8,"In","HIGJFAEBDC",NA,"study_2 (video_feedback and feedback_list_2)","VF_1st","In","Feedback Phrases List 2","Feedback Phrases List 2",6,"Task","Screen 3","izqege",2,"continue","",1766.73799999998,1766.73799999998,1766.73799999998,1766.73799999998,1766.73799999998,1766.73799999998,1,1766.73799999998,0,0,NA,"Fixation Timing","Fixation Cross",1,"object-48",NA,1,"Well done!","You appear very smart.","Task",NA,NA,NA,"SUPTM61449"
"16",1691005988381,"02/08/2023 19:53:08",1691009588381,1,"02/08/2023 21:53:08",139282,42,"task-lqy7",NA,31015924,9199072,NA,"complete",NA,NA,"computer","Desktop or Laptop","Linux x86_64","Chrome 114.0.0.0","1920x1080","1920x905",NA,NA,NA,"Feedback Phrases Task - List 2",8,"In","HIGJFAEBDC",NA,"study_2 (video_feedback and feedback_list_2)","VF_1st","In","Feedback Phrases List 2","Feedback Phrases List 2",7,"Task","Screen 1","113qg5",1,"continue","",20070.2809999993,20065.882,20070.2809999993,20070.2809999993,20065.882,20070.2809999993,1,20070.2809999993,0,0,NA,"Click To Continue","Text_left_X2",3,"object-19",NA,1,"That was satisfactory.","You appeared very confident.","Task",NA,NA,NA,"SUPTM61449"
"17",1691005990146,"02/08/2023 19:53:10",1691009590146,1,"02/08/2023 21:53:10",139282,42,"task-lqy7",NA,31015924,9199072,NA,"complete",NA,NA,"computer","Desktop or Laptop","Linux x86_64","Chrome 114.0.0.0","1920x1080","1920x905",NA,NA,NA,"Feedback Phrases Task - List 2",8,"In","HIGJFAEBDC",NA,"study_2 (video_feedback and feedback_list_2)","VF_1st","In","Feedback Phrases List 2","Feedback Phrases List 2",7,"Task","Screen 3","izqege",2,"continue","",1767.63399999999,1767.63399999999,1767.63399999999,1767.63399999999,1767.63399999999,1767.63399999999,1,1767.63399999999,0,0,NA,"Fixation Timing","Fixation Cross",1,"object-48",NA,1,"That was satisfactory.","You appeared very confident.","Task",NA,NA,NA,"SUPTM61449"
"18",1691005992141,"02/08/2023 19:53:12",1691009592141,1,"02/08/2023 21:53:12",139282,42,"task-lqy7",NA,31015924,9199072,NA,"complete",NA,NA,"computer","Desktop or Laptop","Linux x86_64","Chrome 114.0.0.0","1920x1080","1920x905",NA,NA,NA,"Feedback Phrases Task - List 2",8,"In","HIGJFAEBDC",NA,"study_2 (video_feedback and feedback_list_2)","VF_1st","In","Feedback Phrases List 2","Feedback Phrases List 2",8,"Task","Screen 1","113qg5",1,"continue","",1996.16499999963,1983.27499999999,1996.16499999963,1996.16499999963,1983.27499999999,1996.16499999963,1,1996.16499999963,0,0,NA,"Click To Continue","Text_left_X1",2,"object-18",NA,1,"You're very articulate.","You appear very smart.","Task",NA,NA,NA,"SUPTM61449"
"19",1691005993896,"02/08/2023 19:53:13",1691009593896,1,"02/08/2023 21:53:13",139282,42,"task-lqy7",NA,31015924,9199072,NA,"complete",NA,NA,"computer","Desktop or Laptop","Linux x86_64","Chrome 114.0.0.0","1920x1080","1920x905",NA,NA,NA,"Feedback Phrases Task - List 2",8,"In","HIGJFAEBDC",NA,"study_2 (video_feedback and feedback_list_2)","VF_1st","In","Feedback Phrases List 2","Feedback Phrases List 2",8,"Task","Screen 3","izqege",2,"continue","",1766.77100000001,1766.77100000001,1766.77100000001,1766.77100000001,1766.77100000001,1766.77100000001,1,1766.77100000001,0,0,NA,"Fixation Timing","Fixation Cross",1,"object-48",NA,1,"You're very articulate.","You appear very smart.","Task",NA,NA,NA,"SUPTM61449"
"20",1691005997447,"02/08/2023 19:53:17",1691009597447,1,"02/08/2023 21:53:17",139282,42,"task-lqy7",NA,31015924,9199072,NA,"complete",NA,NA,"computer","Desktop or Laptop","Linux x86_64","Chrome 114.0.0.0","1920x1080","1920x905",NA,NA,NA,"Feedback Phrases Task - List 2",8,"In","HIGJFAEBDC",NA,"study_2 (video_feedback and feedback_list_2)","VF_1st","In","Feedback Phrases List 2","Feedback Phrases List 2",9,"Task","Screen 1","113qg5",1,"continue","",3552.61899999963,3549.867,3552.61899999963,3552.61899999963,3549.867,3552.61899999963,1,3552.61899999963,0,0,NA,"Click To Continue","Text_left_X2",3,"object-19",NA,1,"That was decent.","Excellent!","Task",NA,NA,NA,"SUPTM61449"
"21",1691005999213,"02/08/2023 19:53:19",1691009599213,1,"02/08/2023 21:53:19",139282,42,"task-lqy7",NA,31015924,9199072,NA,"complete",NA,NA,"computer","Desktop or Laptop","Linux x86_64","Chrome 114.0.0.0","1920x1080","1920x905",NA,NA,NA,"Feedback Phrases Task - List 2",8,"In","HIGJFAEBDC",NA,"study_2 (video_feedback and feedback_list_2)","VF_1st","In","Feedback Phrases List 2","Feedback Phrases List 2",9,"Task","Screen 3","izqege",2,"continue","",1766.821,1766.821,1766.821,1766.821,1766.821,1766.821,1,1766.821,0,0,NA,"Fixation Timing","Fixation Cross",1,"object-48",NA,1,"That was decent.","Excellent!","Task",NA,NA,NA,"SUPTM61449"
"22",1691006000502,"02/08/2023 19:53:20",1691009600502,1,"02/08/2023 21:53:20",139282,42,"task-lqy7",NA,31015924,9199072,NA,"complete",NA,NA,"computer","Desktop or Laptop","Linux x86_64","Chrome 114.0.0.0","1920x1080","1920x905",NA,NA,NA,"Feedback Phrases Task - List 2",8,"In","HIGJFAEBDC",NA,"study_2 (video_feedback and feedback_list_2)","VF_1st","In","Feedback Phrases List 2","Feedback Phrases List 2",10,"Task","Screen 1","113qg5",1,"continue","",1290.63100000075,1283.304,1290.63100000075,1290.63100000075,1283.304,1290.63100000075,1,1290.63100000075,0,0,NA,"Click To Continue","Text_left_X1",2,"object-18",NA,1,"Well done!","You appeared very confident.","Task",NA,NA,NA,"SUPTM61449"
"23",1691006002262,"02/08/2023 19:53:22",1691009602262,1,"02/08/2023 21:53:22",139282,42,"task-lqy7",NA,31015924,9199072,NA,"complete",NA,NA,"computer","Desktop or Laptop","Linux x86_64","Chrome 114.0.0.0","1920x1080","1920x905",NA,NA,NA,"Feedback Phrases Task - List 2",8,"In","HIGJFAEBDC",NA,"study_2 (video_feedback and feedback_list_2)","VF_1st","In","Feedback Phrases List 2","Feedback Phrases List 2",10,"Task","Screen 3","izqege",2,"continue","",1766.72399999999,1766.72399999999,1766.72399999999,1766.72399999999,1766.72399999999,1766.72399999999,1,1766.72399999999,0,0,NA,"Fixation Timing","Fixation Cross",1,"object-48",NA,1,"Well done!","You appeared very confident.","Task",NA,NA,NA,"SUPTM61449"
"24",1691006003653,"02/08/2023 19:53:23",1691009603653,1,"02/08/2023 21:53:23",139282,42,"task-lqy7",NA,31015924,9199072,NA,"complete",NA,NA,"computer","Desktop or Laptop","Linux x86_64","Chrome 114.0.0.0","1920x1080","1920x905",NA,NA,NA,"Feedback Phrases Task - List 2",8,"In","HIGJFAEBDC",NA,"study_2 (video_feedback and feedback_list_2)","VF_1st","In","Feedback Phrases List 2","Feedback Phrases List 2",11,"Task","Screen 1","113qg5",1,"continue","",1391.30300000001,1383.29500000004,1391.30300000001,1391.30300000001,1383.29500000004,1391.30300000001,1,1391.30300000001,0,0,NA,"Click To Continue","Text_left_X1",2,"object-18",NA,1,"Your description was very insightful.","That was perfect.","Task",NA,NA,NA,"SUPTM61449"
"25",1691006005413,"02/08/2023 19:53:25",1691009605413,1,"02/08/2023 21:53:25",139282,42,"task-lqy7",NA,31015924,9199072,NA,"complete",NA,NA,"computer","Desktop or Laptop","Linux x86_64","Chrome 114.0.0.0","1920x1080","1920x905",NA,NA,NA,"Feedback Phrases Task - List 2",8,"In","HIGJFAEBDC",NA,"study_2 (video_feedback and feedback_list_2)","VF_1st","In","Feedback Phrases List 2","Feedback Phrases List 2",11,"Task","Screen 3","izqege",2,"continue","",1766.734,1766.734,1766.734,1766.734,1766.734,1766.734,1,1766.734,0,0,NA,"Fixation Timing","Fixation Cross",1,"object-48",NA,1,"Your description was very insightful.","That was perfect.","Task",NA,NA,NA,"SUPTM61449"
"26",1691006006901,"02/08/2023 19:53:26",1691009606901,1,"02/08/2023 21:53:26",139282,42,"task-lqy7",NA,31015924,9199072,NA,"complete",NA,NA,"computer","Desktop or Laptop","Linux x86_64","Chrome 114.0.0.0","1920x1080","1920x905",NA,NA,NA,"Feedback Phrases Task - List 2",8,"In","HIGJFAEBDC",NA,"study_2 (video_feedback and feedback_list_2)","VF_1st","In","Feedback Phrases List 2","Feedback Phrases List 2",12,"Task","Screen 1","113qg5",1,"continue","",1489.47399999923,1483.28499999997,1489.47399999923,1489.47399999923,1483.28499999997,1489.47399999923,1,1489.47399999923,0,0,NA,"Click To Continue","Text_left_X2",3,"object-19",NA,1,"That was satisfactory.","That was decent.","Task",NA,NA,NA,"SUPTM61449"
"27",1691006008663,"02/08/2023 19:53:28",1691009608663,1,"02/08/2023 21:53:28",139282,42,"task-lqy7",NA,31015924,9199072,NA,"complete",NA,NA,"computer","Desktop or Laptop","Linux x86_64","Chrome 114.0.0.0","1920x1080","1920x905",NA,NA,NA,"Feedback Phrases Task - List 2",8,"In","HIGJFAEBDC",NA,"study_2 (video_feedback and feedback_list_2)","VF_1st","In","Feedback Phrases List 2","Feedback Phrases List 2",12,"Task","Screen 3","izqege",2,"continue","",1766.73999999999,1766.73999999999,1766.73999999999,1766.73999999999,1766.73999999999,1766.73999999999,1,1766.73999999999,0,0,NA,"Fixation Timing","Fixation Cross",1,"object-48",NA,1,"That was satisfactory.","That was decent.","Task",NA,NA,NA,"SUPTM61449"
"28",1691006219736,"02/08/2023 19:56:59",1691009819736,1,"02/08/2023 21:56:59",139282,42,"task-lqy7",NA,31015924,9199072,NA,"complete",NA,NA,"computer","Desktop or Laptop","Linux x86_64","Chrome 114.0.0.0","1920x1080","1920x905",NA,NA,NA,"Feedback Phrases Task - List 2",8,"In","HIGJFAEBDC",NA,"study_2 (video_feedback and feedback_list_2)","VF_1st","In","Feedback Phrases List 2","Feedback Phrases List 2",13,"Task","Screen 1","113qg5",1,"continue","",211074.948999999,211066.951,211074.948999999,211074.948999999,211066.951,211074.948999999,1,211074.948999999,0,0,NA,"Click To Continue","Text_left_X2",3,"object-19",NA,1,"You did what was asked of you.","You said all the right things.","Task",NA,NA,NA,"SUPTM61449"
"29",1691006221497,"02/08/2023 19:57:01",1691009821497,1,"02/08/2023 21:57:01",139282,42,"task-lqy7",NA,31015924,9199072,NA,"complete",NA,NA,"computer","Desktop or Laptop","Linux x86_64","Chrome 114.0.0.0","1920x1080","1920x905",NA,NA,NA,"Feedback Phrases Task - List 2",8,"In","HIGJFAEBDC",NA,"study_2 (video_feedback and feedback_list_2)","VF_1st","In","Feedback Phrases List 2","Feedback Phrases List 2",13,"Task","Screen 3","izqege",2,"continue","",1767.96500000003,1767.96500000003,1767.96500000003,1767.96500000003,1767.96500000003,1767.96500000003,1,1767.96500000003,0,0,NA,"Fixation Timing","Fixation Cross",1,"object-48",NA,1,"You did what was asked of you.","You said all the right things.","Task",NA,NA,NA,"SUPTM61449"
"30",1691006223231,"02/08/2023 19:57:03",1691009823231,1,"02/08/2023 21:57:03",139282,42,"task-lqy7",NA,31015924,9199072,NA,"complete",NA,NA,"computer","Desktop or Laptop","Linux x86_64","Chrome 114.0.0.0","1920x1080","1920x905",NA,NA,NA,"Feedback Phrases Task - List 2",8,"In","HIGJFAEBDC",NA,"study_2 (video_feedback and feedback_list_2)","VF_1st","In","Feedback Phrases List 2","Feedback Phrases List 2",14,"Task","Screen 1","113qg5",1,"continue","",1733.28299999994,1716.61699999997,1733.28299999994,1733.28299999994,1716.61699999997,1733.28299999994,1,1733.28299999994,0,0,NA,"Click To Continue","Text_left_X2",3,"object-19",NA,1,"That was satisfactory.","That was perfect.","Task",NA,NA,NA,"SUPTM61449"
"31",1691006224981,"02/08/2023 19:57:04",1691009824981,1,"02/08/2023 21:57:04",139282,42,"task-lqy7",NA,31015924,9199072,NA,"complete",NA,NA,"computer","Desktop or Laptop","Linux x86_64","Chrome 114.0.0.0","1920x1080","1920x905",NA,NA,NA,"Feedback Phrases Task - List 2",8,"In","HIGJFAEBDC",NA,"study_2 (video_feedback and feedback_list_2)","VF_1st","In","Feedback Phrases List 2","Feedback Phrases List 2",14,"Task","Screen 3","izqege",2,"continue","",1766.74400000001,1766.74400000001,1766.74400000001,1766.74400000001,1766.74400000001,1766.74400000001,1,1766.74400000001,0,0,NA,"Fixation Timing","Fixation Cross",1,"object-48",NA,1,"That was satisfactory.","That was perfect.","Task",NA,NA,NA,"SUPTM61449"
"32",1691006226759,"02/08/2023 19:57:06",1691009826759,1,"02/08/2023 21:57:06",139282,42,"task-lqy7",NA,31015924,9199072,NA,"complete",NA,NA,"computer","Desktop or Laptop","Linux x86_64","Chrome 114.0.0.0","1920x1080","1920x905",NA,NA,NA,"Feedback Phrases Task - List 2",8,"In","HIGJFAEBDC",NA,"study_2 (video_feedback and feedback_list_2)","VF_1st","In","Feedback Phrases List 2","Feedback Phrases List 2",15,"Task","Screen 1","113qg5",1,"continue","",1779.37200000038,1766.62300000002,1779.37200000038,1779.37200000038,1766.62300000002,1779.37200000038,1,1779.37200000038,0,0,NA,"Click To Continue","Text_left_X1",2,"object-18",NA,1,"Your description was very insightful.","You appeared very confident.","Task",NA,NA,NA,"SUPTM61449"
"33",1691006228515,"02/08/2023 19:57:08",1691009828515,1,"02/08/2023 21:57:08",139282,42,"task-lqy7",NA,31015924,9199072,NA,"complete",NA,NA,"computer","Desktop or Laptop","Linux x86_64","Chrome 114.0.0.0","1920x1080","1920x905",NA,NA,NA,"Feedback Phrases Task - List 2",8,"In","HIGJFAEBDC",NA,"study_2 (video_feedback and feedback_list_2)","VF_1st","In","Feedback Phrases List 2","Feedback Phrases List 2",15,"Task","Screen 3","izqege",2,"continue","",1766.734,1766.734,1766.734,1766.734,1766.734,1766.734,1,1766.734,0,0,NA,"Fixation Timing","Fixation Cross",1,"object-48",NA,1,"Your description was very insightful.","You appeared very confident.","Task",NA,NA,NA,"SUPTM61449"
"34",1691006229456,"02/08/2023 19:57:09",1691009829456,1,"02/08/2023 21:57:09",139282,42,"task-lqy7",NA,31015924,9199072,NA,"complete",NA,NA,"computer","Desktop or Laptop","Linux x86_64","Chrome 114.0.0.0","1920x1080","1920x905",NA,NA,NA,"Feedback Phrases Task - List 2",8,"In","HIGJFAEBDC",NA,"study_2 (video_feedback and feedback_list_2)","VF_1st","In","Feedback Phrases List 2","Feedback Phrases List 2",16,"Task","Screen 1","113qg5",1,"continue","",942.515000000363,933.321999999986,942.515000000363,942.515000000363,933.321999999986,942.515000000363,1,942.515000000363,0,0,NA,"Click To Continue","Text_left_X2",3,"object-19",NA,1,"Excellent!","That was perfect.","Task",NA,NA,NA,"SUPTM61449"
"35",1691006231214,"02/08/2023 19:57:11",1691009831214,1,"02/08/2023 21:57:11",139282,42,"task-lqy7",NA,31015924,9199072,NA,"complete",NA,NA,"computer","Desktop or Laptop","Linux x86_64","Chrome 114.0.0.0","1920x1080","1920x905",NA,NA,NA,"Feedback Phrases Task - List 2",8,"In","HIGJFAEBDC",NA,"study_2 (video_feedback and feedback_list_2)","VF_1st","In","Feedback Phrases List 2","Feedback Phrases List 2",16,"Task","Screen 3","izqege",2,"continue","",1766.69500000001,1766.69500000001,1766.69500000001,1766.69500000001,1766.69500000001,1766.69500000001,1,1766.69500000001,0,0,NA,"Fixation Timing","Fixation Cross",1,"object-48",NA,1,"Excellent!","That was perfect.","Task",NA,NA,NA,"SUPTM61449"
"36",1691006232328,"02/08/2023 19:57:12",1691009832328,1,"02/08/2023 21:57:12",139282,42,"task-lqy7",NA,31015924,9199072,NA,"complete",NA,NA,"computer","Desktop or Laptop","Linux x86_64","Chrome 114.0.0.0","1920x1080","1920x905",NA,NA,NA,"Feedback Phrases Task - List 2",8,"In","HIGJFAEBDC",NA,"study_2 (video_feedback and feedback_list_2)","VF_1st","In","Feedback Phrases List 2","Feedback Phrases List 2",17,"Task","Screen 1","113qg5",1,"continue","",1115.098,1099.97899999999,1115.098,1115.098,1099.97899999999,1115.098,1,1115.098,0,0,NA,"Click To Continue","Text_left_X1",2,"object-18",NA,1,"Your description was very insightful.","You seemed very in-control.","Task",NA,NA,NA,"SUPTM61449"
"37",1691006234081,"02/08/2023 19:57:14",1691009834081,1,"02/08/2023 21:57:14",139282,42,"task-lqy7",NA,31015924,9199072,NA,"complete",NA,NA,"computer","Desktop or Laptop","Linux x86_64","Chrome 114.0.0.0","1920x1080","1920x905",NA,NA,NA,"Feedback Phrases Task - List 2",8,"In","HIGJFAEBDC",NA,"study_2 (video_feedback and feedback_list_2)","VF_1st","In","Feedback Phrases List 2","Feedback Phrases List 2",17,"Task","Screen 3","izqege",2,"continue","",1766.70199999999,1766.70199999999,1766.70199999999,1766.70199999999,1766.70199999999,1766.70199999999,1,1766.70199999999,0,0,NA,"Fixation Timing","Fixation Cross",1,"object-48",NA,1,"Your description was very insightful.","You seemed very in-control.","Task",NA,NA,NA,"SUPTM61449"
"38",1691006234872,"02/08/2023 19:57:14",1691009834872,1,"02/08/2023 21:57:14",139282,42,"task-lqy7",NA,31015924,9199072,NA,"complete",NA,NA,"computer","Desktop or Laptop","Linux x86_64","Chrome 114.0.0.0","1920x1080","1920x905",NA,NA,NA,"Feedback Phrases Task - List 2",8,"In","HIGJFAEBDC",NA,"study_2 (video_feedback and feedback_list_2)","VF_1st","In","Feedback Phrases List 2","Feedback Phrases List 2",18,"Task","Screen 1","113qg5",1,"continue","",792.317000000388,783.331999999995,792.317000000388,792.317000000388,783.331999999995,792.317000000388,1,792.317000000388,0,0,NA,"Click To Continue","Text_left_X2",3,"object-19",NA,1,"You did what was asked of you.","You seemed very in-control.","Task",NA,NA,NA,"SUPTM61449"
"39",1691006236632,"02/08/2023 19:57:16",1691009836632,1,"02/08/2023 21:57:16",139282,42,"task-lqy7",NA,31015924,9199072,NA,"complete",NA,NA,"computer","Desktop or Laptop","Linux x86_64","Chrome 114.0.0.0","1920x1080","1920x905",NA,NA,NA,"Feedback Phrases Task - List 2",8,"In","HIGJFAEBDC",NA,"study_2 (video_feedback and feedback_list_2)","VF_1st","In","Feedback Phrases List 2","Feedback Phrases List 2",18,"Task","Screen 3","izqege",2,"continue","",1766.68800000002,1766.68800000002,1766.68800000002,1766.68800000002,1766.68800000002,1766.68800000002,1,1766.68800000002,0,0,NA,"Fixation Timing","Fixation Cross",1,"object-48",NA,1,"You did what was asked of you.","You seemed very in-control.","Task",NA,NA,NA,"SUPTM61449"
"40",1691006237246,"02/08/2023 19:57:17",1691009837246,1,"02/08/2023 21:57:17",139282,42,"task-lqy7",NA,31015924,9199072,NA,"complete",NA,NA,"computer","Desktop or Laptop","Linux x86_64","Chrome 114.0.0.0","1920x1080","1920x905",NA,NA,NA,"Feedback Phrases Task - List 2",8,"In","HIGJFAEBDC",NA,"study_2 (video_feedback and feedback_list_2)","VF_1st","In","Feedback Phrases List 2","Feedback Phrases List 2",19,"Task","Screen 1","113qg5",1,"continue","",616.496999999625,600.000999999989,616.496999999625,616.496999999625,600.000999999989,616.496999999625,1,616.496999999625,0,0,NA,"Click To Continue","Text_left_X1",2,"object-18",NA,1,"You're very articulate.","You came across really well.","Task",NA,NA,NA,"SUPTM61449"
"41",1691006238998,"02/08/2023 19:57:18",1691009838998,1,"02/08/2023 21:57:18",139282,42,"task-lqy7",NA,31015924,9199072,NA,"complete",NA,NA,"computer","Desktop or Laptop","Linux x86_64","Chrome 114.0.0.0","1920x1080","1920x905",NA,NA,NA,"Feedback Phrases Task - List 2",8,"In","HIGJFAEBDC",NA,"study_2 (video_feedback and feedback_list_2)","VF_1st","In","Feedback Phrases List 2","Feedback Phrases List 2",19,"Task","Screen 3","izqege",2,"continue","",1766.68300000002,1766.68300000002,1766.68300000002,1766.68300000002,1766.68300000002,1766.68300000002,1,1766.68300000002,0,0,NA,"Fixation Timing","Fixation Cross",1,"object-48",NA,1,"You're very articulate.","You came across really well.","Task",NA,NA,NA,"SUPTM61449"
"42",1691006239303,"02/08/2023 19:57:19",1691009839303,1,"02/08/2023 21:57:19",139282,42,"task-lqy7",NA,31015924,9199072,NA,"complete",NA,NA,"computer","Desktop or Laptop","Linux x86_64","Chrome 114.0.0.0","1920x1080","1920x905",NA,NA,NA,"Feedback Phrases Task - List 2",8,"In","HIGJFAEBDC",NA,"study_2 (video_feedback and feedback_list_2)","VF_1st","In","Feedback Phrases List 2","Feedback Phrases List 2",20,"Task","Screen 1","113qg5",1,"continue","",306.212999999989,300.018999999971,306.212999999989,306.212999999989,300.018999999971,306.212999999989,1,306.212999999989,0,0,NA,"Click To Continue","Text_left_X1",2,"object-18",NA,1,"That was satisfactory.","You said all the right things.","Task",NA,NA,NA,"SUPTM61449"
"43",1691006241308,"02/08/2023 19:57:21",1691009841308,1,"02/08/2023 21:57:21",139282,42,"task-lqy7",NA,31015924,9199072,NA,"complete",NA,NA,"computer","Desktop or Laptop","Linux x86_64","Chrome 114.0.0.0","1920x1080","1920x905",NA,NA,NA,"Feedback Phrases Task - List 2",8,"In","HIGJFAEBDC",NA,"study_2 (video_feedback and feedback_list_2)","VF_1st","In","Feedback Phrases List 2","Feedback Phrases List 2",20,"Task","Screen 3","izqege",2,"continue","",2000.01200000005,2000.01200000005,2000.01200000005,2000.01200000005,2000.01200000005,2000.01200000005,1,2000.01200000005,0,0,NA,"Fixation Timing","Fixation Cross",1,"object-48",NA,1,"That was satisfactory.","You said all the right things.","Task",NA,NA,NA,"SUPTM61449"
"44",1691006242064,"02/08/2023 19:57:22",1691009842064,1,"02/08/2023 21:57:22",139282,42,"task-lqy7",NA,31015924,9199072,NA,"complete",NA,NA,"computer","Desktop or Laptop","Linux x86_64","Chrome 114.0.0.0","1920x1080","1920x905",NA,NA,NA,"Feedback Phrases Task - List 2",8,"In","HIGJFAEBDC",NA,"study_2 (video_feedback and feedback_list_2)","VF_1st","In","Feedback Phrases List 2","Feedback Phrases List 2",21,"Task","Screen 1","113qg5",1,"continue","",766.668999999936,750.002999999968,766.668999999936,766.668999999936,750.002999999968,766.668999999936,1,766.668999999936,0,0,NA,"Click To Continue","Text_left_X2",3,"object-19",NA,1,"You did what was asked of you.","Excellent!","Task",NA,NA,NA,"SUPTM61449"
"45",1691006243815,"02/08/2023 19:57:23",1691009843815,1,"02/08/2023 21:57:23",139282,42,"task-lqy7",NA,31015924,9199072,NA,"complete",NA,NA,"computer","Desktop or Laptop","Linux x86_64","Chrome 114.0.0.0","1920x1080","1920x905",NA,NA,NA,"Feedback Phrases Task - List 2",8,"In","HIGJFAEBDC",NA,"study_2 (video_feedback and feedback_list_2)","VF_1st","In","Feedback Phrases List 2","Feedback Phrases List 2",21,"Task","Screen 3","izqege",2,"continue","",1766.66499999998,1766.66499999998,1766.66499999998,1766.66499999998,1766.66499999998,1766.66499999998,1,1766.66499999998,0,0,NA,"Fixation Timing","Fixation Cross",1,"object-48",NA,1,"You did what was asked of you.","Excellent!","Task",NA,NA,NA,"SUPTM61449"
"46",1691006244128,"02/08/2023 19:57:24",1691009844128,1,"02/08/2023 21:57:24",139282,42,"task-lqy7",NA,31015924,9199072,NA,"complete",NA,NA,"computer","Desktop or Laptop","Linux x86_64","Chrome 114.0.0.0","1920x1080","1920x905",NA,NA,NA,"Feedback Phrases Task - List 2",8,"In","HIGJFAEBDC",NA,"study_2 (video_feedback and feedback_list_2)","VF_1st","In","Feedback Phrases List 2","Feedback Phrases List 2",22,"Task","Screen 1","113qg5",1,"continue","",314.514000000025,300.008000000031,314.514000000025,314.514000000025,300.008000000031,314.514000000025,1,314.514000000025,0,0,NA,"Click To Continue","Text_left_X2",3,"object-19",NA,1,"You said all the right things.","You appear very smart.","Task",NA,NA,NA,"SUPTM61449"
"47",1691006245882,"02/08/2023 19:57:25",1691009845882,1,"02/08/2023 21:57:25",139282,42,"task-lqy7",NA,31015924,9199072,NA,"complete",NA,NA,"computer","Desktop or Laptop","Linux x86_64","Chrome 114.0.0.0","1920x1080","1920x905",NA,NA,NA,"Feedback Phrases Task - List 2",8,"In","HIGJFAEBDC",NA,"study_2 (video_feedback and feedback_list_2)","VF_1st","In","Feedback Phrases List 2","Feedback Phrases List 2",22,"Task","Screen 3","izqege",2,"continue","",1766.679,1766.679,1766.679,1766.679,1766.679,1766.679,1,1766.679,0,0,NA,"Fixation Timing","Fixation Cross",1,"object-48",NA,1,"You said all the right things.","You appear very smart.","Task",NA,NA,NA,"SUPTM61449"
"48",1691006246646,"02/08/2023 19:57:26",1691009846646,1,"02/08/2023 21:57:26",139282,42,"task-lqy7",NA,31015924,9199072,NA,"complete",NA,NA,"computer","Desktop or Laptop","Linux x86_64","Chrome 114.0.0.0","1920x1080","1920x905",NA,NA,NA,"Feedback Phrases Task - List 2",8,"In","HIGJFAEBDC",NA,"study_2 (video_feedback and feedback_list_2)","VF_1st","In","Feedback Phrases List 2","Feedback Phrases List 2",23,"Task","Screen 1","113qg5",1,"continue","",766.227000000363,749.980999999971,766.227000000363,766.227000000363,749.980999999971,766.227000000363,1,766.227000000363,0,0,NA,"Click To Continue","Text_left_X1",2,"object-18",NA,1,"Excellent!","You are really engaging when you speak.","Task",NA,NA,NA,"SUPTM61449"
"49",1691006248397,"02/08/2023 19:57:28",1691009848397,1,"02/08/2023 21:57:28",139282,42,"task-lqy7",NA,31015924,9199072,NA,"complete",NA,NA,"computer","Desktop or Laptop","Linux x86_64","Chrome 114.0.0.0","1920x1080","1920x905",NA,NA,NA,"Feedback Phrases Task - List 2",8,"In","HIGJFAEBDC",NA,"study_2 (video_feedback and feedback_list_2)","VF_1st","In","Feedback Phrases List 2","Feedback Phrases List 2",23,"Task","Screen 3","izqege",2,"continue","",1766.69900000002,1766.69900000002,1766.69900000002,1766.69900000002,1766.69900000002,1766.69900000002,1,1766.69900000002,0,0,NA,"Fixation Timing","Fixation Cross",1,"object-48",NA,1,"Excellent!","You are really engaging when you speak.","Task",NA,NA,NA,"SUPTM61449"
"50",1691006248959,"02/08/2023 19:57:28",1691009848959,1,"02/08/2023 21:57:28",139282,42,"task-lqy7",NA,31015924,9199072,NA,"complete",NA,NA,"computer","Desktop or Laptop","Linux x86_64","Chrome 114.0.0.0","1920x1080","1920x905",NA,NA,NA,"Feedback Phrases Task - List 2",8,"In","HIGJFAEBDC",NA,"study_2 (video_feedback and feedback_list_2)","VF_1st","In","Feedback Phrases List 2","Feedback Phrases List 2",24,"Task","Screen 1","113qg5",1,"continue","",562.346999999252,550.005999999994,562.346999999252,562.346999999252,550.005999999994,562.346999999252,1,562.346999999252,0,0,NA,"Click To Continue","Text_left_X2",3,"object-19",NA,1,"Well done!","You came across really well.","Task",NA,NA,NA,"SUPTM61449"
"51",1691006250714,"02/08/2023 19:57:30",1691009850714,1,"02/08/2023 21:57:30",139282,42,"task-lqy7",NA,31015924,9199072,NA,"complete",NA,NA,"computer","Desktop or Laptop","Linux x86_64","Chrome 114.0.0.0","1920x1080","1920x905",NA,NA,NA,"Feedback Phrases Task - List 2",8,"In","HIGJFAEBDC",NA,"study_2 (video_feedback and feedback_list_2)","VF_1st","In","Feedback Phrases List 2","Feedback Phrases List 2",24,"Task","Screen 3","izqege",2,"continue","",1766.68099999998,1766.68099999998,1766.68099999998,1766.68099999998,1766.68099999998,1766.68099999998,1,1766.68099999998,0,0,NA,"Fixation Timing","Fixation Cross",1,"object-48",NA,1,"Well done!","You came across really well.","Task",NA,NA,NA,"SUPTM61449"
"52",1691006251088,"02/08/2023 19:57:31",1691009851088,1,"02/08/2023 21:57:31",139282,42,"task-lqy7",NA,31015924,9199072,NA,"complete",NA,NA,"computer","Desktop or Laptop","Linux x86_64","Chrome 114.0.0.0","1920x1080","1920x905",NA,NA,NA,"Feedback Phrases Task - List 2",8,"In","HIGJFAEBDC",NA,"study_2 (video_feedback and feedback_list_2)","VF_1st","In","Feedback Phrases List 2","Feedback Phrases List 2",25,"Task","Screen 1","113qg5",1,"continue","",374.460000000021,366.662000000011,374.460000000021,374.460000000021,366.662000000011,374.460000000021,1,374.460000000021,0,0,NA,"Click To Continue","Text_left_X2",3,"object-19",NA,1,"I could easily picture what you were describing.","Your description was very insightful.","Task",NA,NA,NA,"SUPTM61449"
"53",1691006252848,"02/08/2023 19:57:32",1691009852848,1,"02/08/2023 21:57:32",139282,42,"task-lqy7",NA,31015924,9199072,NA,"complete",NA,NA,"computer","Desktop or Laptop","Linux x86_64","Chrome 114.0.0.0","1920x1080","1920x905",NA,NA,NA,"Feedback Phrases Task - List 2",8,"In","HIGJFAEBDC",NA,"study_2 (video_feedback and feedback_list_2)","VF_1st","In","Feedback Phrases List 2","Feedback Phrases List 2",25,"Task","Screen 3","izqege",2,"continue","",1766.67800000001,1766.67800000001,1766.67800000001,1766.67800000001,1766.67800000001,1766.67800000001,1,1766.67800000001,0,0,NA,"Fixation Timing","Fixation Cross",1,"object-48",NA,1,"I could easily picture what you were describing.","Your description was very insightful.","Task",NA,NA,NA,"SUPTM61449"
"54",1691006253095,"02/08/2023 19:57:33",1691009853095,1,"02/08/2023 21:57:33",139282,42,"task-lqy7",NA,31015924,9199072,NA,"complete",NA,NA,"computer","Desktop or Laptop","Linux x86_64","Chrome 114.0.0.0","1920x1080","1920x905",NA,NA,NA,"Feedback Phrases Task - List 2",8,"In","HIGJFAEBDC",NA,"study_2 (video_feedback and feedback_list_2)","VF_1st","In","Feedback Phrases List 2","Feedback Phrases List 2",26,"Task","Screen 1","113qg5",1,"continue","",248.520000000368,233.352000000014,248.520000000368,248.520000000368,233.352000000014,248.520000000368,1,248.520000000368,0,0,NA,"Click To Continue","Text_left_X1",2,"object-18",NA,1,"Excellent!","You said all the right things.","Task",NA,NA,NA,"SUPTM61449"
"55",1691006254848,"02/08/2023 19:57:34",1691009854848,1,"02/08/2023 21:57:34",139282,42,"task-lqy7",NA,31015924,9199072,NA,"complete",NA,NA,"computer","Desktop or Laptop","Linux x86_64","Chrome 114.0.0.0","1920x1080","1920x905",NA,NA,NA,"Feedback Phrases Task - List 2",8,"In","HIGJFAEBDC",NA,"study_2 (video_feedback and feedback_list_2)","VF_1st","In","Feedback Phrases List 2","Feedback Phrases List 2",26,"Task","Screen 3","izqege",2,"continue","",1766.66800000001,1766.66800000001,1766.66800000001,1766.66800000001,1766.66800000001,1766.66800000001,1,1766.66800000001,0,0,NA,"Fixation Timing","Fixation Cross",1,"object-48",NA,1,"Excellent!","You said all the right things.","Task",NA,NA,NA,"SUPTM61449"
"56",1691006255199,"02/08/2023 19:57:35",1691009855199,1,"02/08/2023 21:57:35",139282,42,"task-lqy7",NA,31015924,9199072,NA,"complete",NA,NA,"computer","Desktop or Laptop","Linux x86_64","Chrome 114.0.0.0","1920x1080","1920x905",NA,NA,NA,"Feedback Phrases Task - List 2",8,"In","HIGJFAEBDC",NA,"study_2 (video_feedback and feedback_list_2)","VF_1st","In","Feedback Phrases List 2","Feedback Phrases List 2",27,"Task","Screen 1","113qg5",1,"continue","",350.00199999992,333.335999999952,350.00199999992,350.00199999992,333.335999999952,350.00199999992,1,350.00199999992,0,0,NA,"Click To Continue","Text_left_X2",3,"object-19",NA,1,"You did what was asked of you.","You appear very smart.","Task",NA,NA,NA,"SUPTM61449"
"57",1691006256948,"02/08/2023 19:57:36",1691009856948,1,"02/08/2023 21:57:36",139282,42,"task-lqy7",NA,31015924,9199072,NA,"complete",NA,NA,"computer","Desktop or Laptop","Linux x86_64","Chrome 114.0.0.0","1920x1080","1920x905",NA,NA,NA,"Feedback Phrases Task - List 2",8,"In","HIGJFAEBDC",NA,"study_2 (video_feedback and feedback_list_2)","VF_1st","In","Feedback Phrases List 2","Feedback Phrases List 2",27,"Task","Screen 3","izqege",2,"continue","",1766.67800000001,1766.67800000001,1766.67800000001,1766.67800000001,1766.67800000001,1766.67800000001,1,1766.67800000001,0,0,NA,"Fixation Timing","Fixation Cross",1,"object-48",NA,1,"You did what was asked of you.","You appear very smart.","Task",NA,NA,NA,"SUPTM61449"
"58",1691006257449,"02/08/2023 19:57:37",1691009857449,1,"02/08/2023 21:57:37",139282,42,"task-lqy7",NA,31015924,9199072,NA,"complete",NA,NA,"computer","Desktop or Laptop","Linux x86_64","Chrome 114.0.0.0","1920x1080","1920x905",NA,NA,NA,"Feedback Phrases Task - List 2",8,"In","HIGJFAEBDC",NA,"study_2 (video_feedback and feedback_list_2)","VF_1st","In","Feedback Phrases List 2","Feedback Phrases List 2",28,"Task","Screen 1","113qg5",1,"continue","",502.386000000755,500.003000000026,502.386000000755,502.386000000755,500.003000000026,502.386000000755,1,502.386000000755,0,0,NA,"Click To Continue","Text_left_X2",3,"object-19",NA,1,"You seemed very in-control.","You are really engaging when you speak.","Task",NA,NA,NA,"SUPTM61449"
"59",1691006259215,"02/08/2023 19:57:39",1691009859215,1,"02/08/2023 21:57:39",139282,42,"task-lqy7",NA,31015924,9199072,NA,"complete",NA,NA,"computer","Desktop or Laptop","Linux x86_64","Chrome 114.0.0.0","1920x1080","1920x905",NA,NA,NA,"Feedback Phrases Task - List 2",8,"In","HIGJFAEBDC",NA,"study_2 (video_feedback and feedback_list_2)","VF_1st","In","Feedback Phrases List 2","Feedback Phrases List 2",28,"Task","Screen 3","izqege",2,"continue","",1766.67999999993,1766.67999999993,1766.67999999993,1766.67999999993,1766.67999999993,1766.67999999993,1,1766.67999999993,0,0,NA,"Fixation Timing","Fixation Cross",1,"object-48",NA,1,"You seemed very in-control.","You are really engaging when you speak.","Task",NA,NA,NA,"SUPTM61449"
"60",1691006260295,"02/08/2023 19:57:40",1691009860295,1,"02/08/2023 21:57:40",139282,42,"task-lqy7",NA,31015924,9199072,NA,"complete",NA,NA,"computer","Desktop or Laptop","Linux x86_64","Chrome 114.0.0.0","1920x1080","1920x905",NA,NA,NA,"Feedback Phrases Task - List 2",8,"In","HIGJFAEBDC",NA,"study_2 (video_feedback and feedback_list_2)","VF_1st","In","Feedback Phrases List 2","Feedback Phrases List 2",29,"Task","Screen 1","113qg5",1,"continue","",1082.00299999968,1066.64600000007,1082.00299999968,1082.00299999968,1066.64600000007,1082.00299999968,1,1082.00299999968,0,0,NA,"Click To Continue","Text_left_X2",3,"object-19",NA,1,"Well done!","Your description was very insightful.","Task",NA,NA,NA,"SUPTM61449"
"61",1691006262048,"02/08/2023 19:57:42",1691009862048,1,"02/08/2023 21:57:42",139282,42,"task-lqy7",NA,31015924,9199072,NA,"complete",NA,NA,"computer","Desktop or Laptop","Linux x86_64","Chrome 114.0.0.0","1920x1080","1920x905",NA,NA,NA,"Feedback Phrases Task - List 2",8,"In","HIGJFAEBDC",NA,"study_2 (video_feedback and feedback_list_2)","VF_1st","In","Feedback Phrases List 2","Feedback Phrases List 2",29,"Task","Screen 3","izqege",2,"continue","",1766.69400000002,1766.69400000002,1766.69400000002,1766.69400000002,1766.69400000002,1766.69400000002,1,1766.69400000002,0,0,NA,"Fixation Timing","Fixation Cross",1,"object-48",NA,1,"Well done!","Your description was very insightful.","Task",NA,NA,NA,"SUPTM61449"
"62",1691006262806,"02/08/2023 19:57:42",1691009862806,1,"02/08/2023 21:57:42",139282,42,"task-lqy7",NA,31015924,9199072,NA,"complete",NA,NA,"computer","Desktop or Laptop","Linux x86_64","Chrome 114.0.0.0","1920x1080","1920x905",NA,NA,NA,"Feedback Phrases Task - List 2",8,"In","HIGJFAEBDC",NA,"study_2 (video_feedback and feedback_list_2)","VF_1st","In","Feedback Phrases List 2","Feedback Phrases List 2",30,"Task","Screen 1","113qg5",1,"continue","",758.963000000338,749.993999999948,758.963000000338,758.963000000338,749.993999999948,758.963000000338,1,758.963000000338,0,0,NA,"Click To Continue","Text_left_X1",2,"object-18",NA,1,"You are really engaging when you speak.","You came across really well.","Task",NA,NA,NA,"SUPTM61449"
"63",1691006264566,"02/08/2023 19:57:44",1691009864566,1,"02/08/2023 21:57:44",139282,42,"task-lqy7",NA,31015924,9199072,NA,"complete",NA,NA,"computer","Desktop or Laptop","Linux x86_64","Chrome 114.0.0.0","1920x1080","1920x905",NA,NA,NA,"Feedback Phrases Task - List 2",8,"In","HIGJFAEBDC",NA,"study_2 (video_feedback and feedback_list_2)","VF_1st","In","Feedback Phrases List 2","Feedback Phrases List 2",30,"Task","Screen 3","izqege",2,"continue","",1766.70400000003,1766.70400000003,1766.70400000003,1766.70400000003,1766.70400000003,1766.70400000003,1,1766.70400000003,0,0,NA,"Fixation Timing","Fixation Cross",1,"object-48",NA,1,"You are really engaging when you speak.","You came across really well.","Task",NA,NA,NA,"SUPTM61449"
"64",1691006265128,"02/08/2023 19:57:45",1691009865128,1,"02/08/2023 21:57:45",139282,42,"task-lqy7",NA,31015924,9199072,NA,"complete",NA,NA,"computer","Desktop or Laptop","Linux x86_64","Chrome 114.0.0.0","1920x1080","1920x905",NA,NA,NA,"Feedback Phrases Task - List 2",8,"In","HIGJFAEBDC",NA,"study_2 (video_feedback and feedback_list_2)","VF_1st","In","Feedback Phrases List 2","Feedback Phrases List 2",31,"Task","Screen 1","113qg5",1,"continue","",565.064999999246,550.001000000047,565.064999999246,565.064999999246,550.001000000047,565.064999999246,1,565.064999999246,0,0,NA,"Click To Continue","Text_left_X2",3,"object-19",NA,1,"You said all the right things.","You are really engaging when you speak.","Task",NA,NA,NA,"SUPTM61449"
"65",1691006266881,"02/08/2023 19:57:46",1691009866881,1,"02/08/2023 21:57:46",139282,42,"task-lqy7",NA,31015924,9199072,NA,"complete",NA,NA,"computer","Desktop or Laptop","Linux x86_64","Chrome 114.0.0.0","1920x1080","1920x905",NA,NA,NA,"Feedback Phrases Task - List 2",8,"In","HIGJFAEBDC",NA,"study_2 (video_feedback and feedback_list_2)","VF_1st","In","Feedback Phrases List 2","Feedback Phrases List 2",31,"Task","Screen 3","izqege",2,"continue","",1766.66999999993,1766.66999999993,1766.66999999993,1766.66999999993,1766.66999999993,1766.66999999993,1,1766.66999999993,0,0,NA,"Fixation Timing","Fixation Cross",1,"object-48",NA,1,"You said all the right things.","You are really engaging when you speak.","Task",NA,NA,NA,"SUPTM61449"
"66",1691006268177,"02/08/2023 19:57:48",1691009868177,1,"02/08/2023 21:57:48",139282,42,"task-lqy7",NA,31015924,9199072,NA,"complete",NA,NA,"computer","Desktop or Laptop","Linux x86_64","Chrome 114.0.0.0","1920x1080","1920x905",NA,NA,NA,"Feedback Phrases Task - List 2",8,"In","HIGJFAEBDC",NA,"study_2 (video_feedback and feedback_list_2)","VF_1st","In","Feedback Phrases List 2","Feedback Phrases List 2",32,"Task","Screen 1","113qg5",1,"continue","",1296.99400000076,1283.31099999999,1296.99400000076,1296.99400000076,1283.31099999999,1296.99400000076,1,1296.99400000076,0,0,NA,"Click To Continue","Text_left_X2",3,"object-19",NA,1,"You did what was asked of you.","You are really engaging when you speak.","Task",NA,NA,NA,"SUPTM61449"
"67",1691006269931,"02/08/2023 19:57:49",1691009869931,1,"02/08/2023 21:57:49",139282,42,"task-lqy7",NA,31015924,9199072,NA,"complete",NA,NA,"computer","Desktop or Laptop","Linux x86_64","Chrome 114.0.0.0","1920x1080","1920x905",NA,NA,NA,"Feedback Phrases Task - List 2",8,"In","HIGJFAEBDC",NA,"study_2 (video_feedback and feedback_list_2)","VF_1st","In","Feedback Phrases List 2","Feedback Phrases List 2",32,"Task","Screen 3","izqege",2,"continue","",1766.71900000004,1766.71900000004,1766.71900000004,1766.71900000004,1766.71900000004,1766.71900000004,1,1766.71900000004,0,0,NA,"Fixation Timing","Fixation Cross",1,"object-48",NA,1,"You did what was asked of you.","You are really engaging when you speak.","Task",NA,NA,NA,"SUPTM61449"
"68",1691006271448,"02/08/2023 19:57:51",1691009871448,1,"02/08/2023 21:57:51",139282,42,"task-lqy7",NA,31015924,9199072,NA,"complete",NA,NA,"computer","Desktop or Laptop","Linux x86_64","Chrome 114.0.0.0","1920x1080","1920x905",NA,NA,NA,"Feedback Phrases Task - List 2",8,"In","HIGJFAEBDC",NA,"study_2 (video_feedback and feedback_list_2)","VF_1st","In","Feedback Phrases List 2","Feedback Phrases List 2",33,"Task","Screen 1","113qg5",1,"continue","",1516.62500000012,1499.95900000003,1516.62500000012,1516.62500000012,1499.95900000003,1516.62500000012,1,1516.62500000012,0,0,NA,"Click To Continue","Text_left_X2",3,"object-19",NA,1,"You appear very smart.","You are really engaging when you speak.","Task",NA,NA,NA,"SUPTM61449"
"69",1691006273198,"02/08/2023 19:57:53",1691009873198,1,"02/08/2023 21:57:53",139282,42,"task-lqy7",NA,31015924,9199072,NA,"complete",NA,NA,"computer","Desktop or Laptop","Linux x86_64","Chrome 114.0.0.0","1920x1080","1920x905",NA,NA,NA,"Feedback Phrases Task - List 2",8,"In","HIGJFAEBDC",NA,"study_2 (video_feedback and feedback_list_2)","VF_1st","In","Feedback Phrases List 2","Feedback Phrases List 2",33,"Task","Screen 3","izqege",2,"continue","",1766.72999999998,1766.72999999998,1766.72999999998,1766.72999999998,1766.72999999998,1766.72999999998,1,1766.72999999998,0,0,NA,"Fixation Timing","Fixation Cross",1,"object-48",NA,1,"You appear very smart.","You are really engaging when you speak.","Task",NA,NA,NA,"SUPTM61449"
"70",1691006273984,"02/08/2023 19:57:53",1691009873984,1,"02/08/2023 21:57:53",139282,42,"task-lqy7",NA,31015924,9199072,NA,"complete",NA,NA,"computer","Desktop or Laptop","Linux x86_64","Chrome 114.0.0.0","1920x1080","1920x905",NA,NA,NA,"Feedback Phrases Task - List 2",8,"In","HIGJFAEBDC",NA,"study_2 (video_feedback and feedback_list_2)","VF_1st","In","Feedback Phrases List 2","Feedback Phrases List 2",34,"Task","Screen 1","113qg5",1,"continue","",786.974999999977,783.324999999953,786.974999999977,786.974999999977,783.324999999953,786.974999999977,1,786.974999999977,0,0,NA,"Click To Continue","Text_left_X2",3,"object-19",NA,1,"That was decent.","You're very articulate.","Task",NA,NA,NA,"SUPTM61449"
"71",1691006275749,"02/08/2023 19:57:55",1691009875749,1,"02/08/2023 21:57:55",139282,42,"task-lqy7",NA,31015924,9199072,NA,"complete",NA,NA,"computer","Desktop or Laptop","Linux x86_64","Chrome 114.0.0.0","1920x1080","1920x905",NA,NA,NA,"Feedback Phrases Task - List 2",8,"In","HIGJFAEBDC",NA,"study_2 (video_feedback and feedback_list_2)","VF_1st","In","Feedback Phrases List 2","Feedback Phrases List 2",34,"Task","Screen 3","izqege",2,"continue","",1766.68700000003,1766.68700000003,1766.68700000003,1766.68700000003,1766.68700000003,1766.68700000003,1,1766.68700000003,0,0,NA,"Fixation Timing","Fixation Cross",1,"object-48",NA,1,"That was decent.","You're very articulate.","Task",NA,NA,NA,"SUPTM61449"
"72",1691006276415,"02/08/2023 19:57:56",1691009876415,1,"02/08/2023 21:57:56",139282,42,"task-lqy7",NA,31015924,9199072,NA,"complete",NA,NA,"computer","Desktop or Laptop","Linux x86_64","Chrome 114.0.0.0","1920x1080","1920x905",NA,NA,NA,"Feedback Phrases Task - List 2",8,"In","HIGJFAEBDC",NA,"study_2 (video_feedback and feedback_list_2)","VF_1st","In","Feedback Phrases List 2","Feedback Phrases List 2",35,"Task","Screen 1","113qg5",1,"continue","",666.669000000111,650.003000000026,666.669000000111,666.669000000111,650.003000000026,666.669000000111,1,666.669000000111,0,0,NA,"Click To Continue","Text_left_X2",3,"object-19",NA,1,"You seemed very in-control.","You came across really well.","Task",NA,NA,NA,"SUPTM61449"
"73",1691006278165,"02/08/2023 19:57:58",1691009878165,1,"02/08/2023 21:57:58",139282,42,"task-lqy7",NA,31015924,9199072,NA,"complete",NA,NA,"computer","Desktop or Laptop","Linux x86_64","Chrome 114.0.0.0","1920x1080","1920x905",NA,NA,NA,"Feedback Phrases Task - List 2",8,"In","HIGJFAEBDC",NA,"study_2 (video_feedback and feedback_list_2)","VF_1st","In","Feedback Phrases List 2","Feedback Phrases List 2",35,"Task","Screen 3","izqege",2,"continue","",1766.67499999993,1766.67499999993,1766.67499999993,1766.67499999993,1766.67499999993,1766.67499999993,1,1766.67499999993,0,0,NA,"Fixation Timing","Fixation Cross",1,"object-48",NA,1,"You seemed very in-control.","You came across really well.","Task",NA,NA,NA,"SUPTM61449"
"74",1691006280377,"02/08/2023 19:58:00",1691009880377,1,"02/08/2023 21:58:00",139282,42,"task-lqy7",NA,31015924,9199072,NA,"complete",NA,NA,"computer","Desktop or Laptop","Linux x86_64","Chrome 114.0.0.0","1920x1080","1920x905",NA,NA,NA,"Feedback Phrases Task - List 2",8,"In","HIGJFAEBDC",NA,"study_2 (video_feedback and feedback_list_2)","VF_1st","In","Feedback Phrases List 2","Feedback Phrases List 2",36,"Task","Screen 1","113qg5",1,"continue","",2213.78500000003,2199.94500000007,2213.78500000003,2213.78500000003,2199.94500000007,2213.78500000003,1,2213.78500000003,0,0,NA,"Click To Continue","Text_left_X1",2,"object-18",NA,1,"Well done!","You said all the right things.","Task",NA,NA,NA,"SUPTM61449"
"75",1691006282131,"02/08/2023 19:58:02",1691009882131,1,"02/08/2023 21:58:02",139282,42,"task-lqy7",NA,31015924,9199072,NA,"complete",NA,NA,"computer","Desktop or Laptop","Linux x86_64","Chrome 114.0.0.0","1920x1080","1920x905",NA,NA,NA,"Feedback Phrases Task - List 2",8,"In","HIGJFAEBDC",NA,"study_2 (video_feedback and feedback_list_2)","VF_1st","In","Feedback Phrases List 2","Feedback Phrases List 2",36,"Task","Screen 3","izqege",2,"continue","",1766.75199999998,1766.75199999998,1766.75199999998,1766.75199999998,1766.75199999998,1766.75199999998,1,1766.75199999998,0,0,NA,"Fixation Timing","Fixation Cross",1,"object-48",NA,1,"Well done!","You said all the right things.","Task",NA,NA,NA,"SUPTM61449"
"76",1691006282904,"02/08/2023 19:58:02",1691009882904,1,"02/08/2023 21:58:02",139282,42,"task-lqy7",NA,31015924,9199072,NA,"complete",NA,NA,"computer","Desktop or Laptop","Linux x86_64","Chrome 114.0.0.0","1920x1080","1920x905",NA,NA,NA,"Feedback Phrases Task - List 2",8,"In","HIGJFAEBDC",NA,"study_2 (video_feedback and feedback_list_2)","VF_1st","In","Feedback Phrases List 2","Feedback Phrases List 2",37,"Task","Screen 1","113qg5",1,"continue","",773.988000000361,766.660000000033,773.988000000361,773.988000000361,766.660000000033,773.988000000361,1,773.988000000361,0,0,NA,"Click To Continue","Text_left_X1",2,"object-18",NA,1,"That was satisfactory.","Excellent!","Task",NA,NA,NA,"SUPTM61449"
"77",1691006284666,"02/08/2023 19:58:04",1691009884666,1,"02/08/2023 21:58:04",139282,42,"task-lqy7",NA,31015924,9199072,NA,"complete",NA,NA,"computer","Desktop or Laptop","Linux x86_64","Chrome 114.0.0.0","1920x1080","1920x905",NA,NA,NA,"Feedback Phrases Task - List 2",8,"In","HIGJFAEBDC",NA,"study_2 (video_feedback and feedback_list_2)","VF_1st","In","Feedback Phrases List 2","Feedback Phrases List 2",37,"Task","Screen 3","izqege",2,"continue","",1766.6939999999,1766.6939999999,1766.6939999999,1766.6939999999,1766.6939999999,1766.6939999999,1,1766.6939999999,0,0,NA,"Fixation Timing","Fixation Cross",1,"object-48",NA,1,"That was satisfactory.","Excellent!","Task",NA,NA,NA,"SUPTM61449"
"78",1691006285374,"02/08/2023 19:58:05",1691009885374,1,"02/08/2023 21:58:05",139282,42,"task-lqy7",NA,31015924,9199072,NA,"complete",NA,NA,"computer","Desktop or Laptop","Linux x86_64","Chrome 114.0.0.0","1920x1080","1920x905",NA,NA,NA,"Feedback Phrases Task - List 2",8,"In","HIGJFAEBDC",NA,"study_2 (video_feedback and feedback_list_2)","VF_1st","In","Feedback Phrases List 2","Feedback Phrases List 2",38,"Task","Screen 1","113qg5",1,"continue","",710.93399999931,699.998000000021,710.93399999931,710.93399999931,699.998000000021,710.93399999931,1,710.93399999931,0,0,NA,"Click To Continue","Text_left_X2",3,"object-19",NA,1,"You're very articulate.","That was perfect.","Task",NA,NA,NA,"SUPTM61449"
"79",1691006287131,"02/08/2023 19:58:07",1691009887131,1,"02/08/2023 21:58:07",139282,42,"task-lqy7",NA,31015924,9199072,NA,"complete",NA,NA,"computer","Desktop or Laptop","Linux x86_64","Chrome 114.0.0.0","1920x1080","1920x905",NA,NA,NA,"Feedback Phrases Task - List 2",8,"In","HIGJFAEBDC",NA,"study_2 (video_feedback and feedback_list_2)","VF_1st","In","Feedback Phrases List 2","Feedback Phrases List 2",38,"Task","Screen 3","izqege",2,"continue","",1766.68400000001,1766.68400000001,1766.68400000001,1766.68400000001,1766.68400000001,1766.68400000001,1,1766.68400000001,0,0,NA,"Fixation Timing","Fixation Cross",1,"object-48",NA,1,"You're very articulate.","That was perfect.","Task",NA,NA,NA,"SUPTM61449"
"80",1691006289752,"02/08/2023 19:58:09",1691009889752,1,"02/08/2023 21:58:09",139282,42,"task-lqy7",NA,31015924,9199072,NA,"complete",NA,NA,"computer","Desktop or Laptop","Linux x86_64","Chrome 114.0.0.0","1920x1080","1920x905",NA,NA,NA,"Feedback Phrases Task - List 2",8,"In","HIGJFAEBDC",NA,"study_2 (video_feedback and feedback_list_2)","VF_1st","In","Feedback Phrases List 2","Feedback Phrases List 2",39,"Task","Screen 1","113qg5",1,"continue","",2621.85200000077,2616.58299999998,2621.85200000077,2621.85200000077,2616.58299999998,2621.85200000077,1,2621.85200000077,0,0,NA,"Click To Continue","Text_left_X2",3,"object-19",NA,1,"I could easily picture what you were describing.","You are really engaging when you speak.","Task",NA,NA,NA,"SUPTM61449"
"81",1691006291514,"02/08/2023 19:58:11",1691009891514,1,"02/08/2023 21:58:11",139282,42,"task-lqy7",NA,31015924,9199072,NA,"complete",NA,NA,"computer","Desktop or Laptop","Linux x86_64","Chrome 114.0.0.0","1920x1080","1920x905",NA,NA,NA,"Feedback Phrases Task - List 2",8,"In","HIGJFAEBDC",NA,"study_2 (video_feedback and feedback_list_2)","VF_1st","In","Feedback Phrases List 2","Feedback Phrases List 2",39,"Task","Screen 3","izqege",2,"continue","",1766.77100000007,1766.77100000007,1766.77100000007,1766.77100000007,1766.77100000007,1766.77100000007,1,1766.77100000007,0,0,NA,"Fixation Timing","Fixation Cross",1,"object-48",NA,1,"I could easily picture what you were describing.","You are really engaging when you speak.","Task",NA,NA,NA,"SUPTM61449"
"82",1691006293614,"02/08/2023 19:58:13",1691009893614,1,"02/08/2023 21:58:13",139282,42,"task-lqy7",NA,31015924,9199072,NA,"complete",NA,NA,"computer","Desktop or Laptop","Linux x86_64","Chrome 114.0.0.0","1920x1080","1920x905",NA,NA,NA,"Feedback Phrases Task - List 2",8,"In","HIGJFAEBDC",NA,"study_2 (video_feedback and feedback_list_2)","VF_1st","In","Feedback Phrases List 2","Feedback Phrases List 2",40,"Task","Screen 1","113qg5",1,"continue","",2099.94800000009,2083.28200000001,2099.94800000009,2099.94800000009,2083.28200000001,2099.94800000009,1,2099.94800000009,0,0,NA,"Click To Continue","Text_left_X1",2,"object-18",NA,1,"You're very articulate.","You said all the right things.","Task",NA,NA,NA,"SUPTM61449"
"83",1691006295364,"02/08/2023 19:58:15",1691009895364,1,"02/08/2023 21:58:15",139282,42,"task-lqy7",NA,31015924,9199072,NA,"complete",NA,NA,"computer","Desktop or Laptop","Linux x86_64","Chrome 114.0.0.0","1920x1080","1920x905",NA,NA,NA,"Feedback Phrases Task - List 2",8,"In","HIGJFAEBDC",NA,"study_2 (video_feedback and feedback_list_2)","VF_1st","In","Feedback Phrases List 2","Feedback Phrases List 2",40,"Task","Screen 3","izqege",2,"continue","",1766.75,1766.75,1766.75,1766.75,1766.75,1766.75,1,1766.75,0,0,NA,"Fixation Timing","Fixation Cross",1,"object-48",NA,1,"You're very articulate.","You said all the right things.","Task",NA,NA,NA,"SUPTM61449"
"84",1691006296071,"02/08/2023 19:58:16",1691009896071,1,"02/08/2023 21:58:16",139282,42,"task-lqy7",NA,31015924,9199072,NA,"complete",NA,NA,"computer","Desktop or Laptop","Linux x86_64","Chrome 114.0.0.0","1920x1080","1920x905",NA,NA,NA,"Feedback Phrases Task - List 2",8,"In","HIGJFAEBDC",NA,"study_2 (video_feedback and feedback_list_2)","VF_1st","In","Feedback Phrases List 2","Feedback Phrases List 2",41,"Task","Screen 1","113qg5",1,"continue","",707.265999999596,699.990999999922,707.265999999596,707.265999999596,699.990999999922,707.265999999596,1,707.265999999596,0,0,NA,"Click To Continue","Text_left_X1",2,"object-18",NA,1,"You appeared very confident.","You are really engaging when you speak.","Task",NA,NA,NA,"SUPTM61449"
"85",1691006297832,"02/08/2023 19:58:17",1691009897832,1,"02/08/2023 21:58:17",139282,42,"task-lqy7",NA,31015924,9199072,NA,"complete",NA,NA,"computer","Desktop or Laptop","Linux x86_64","Chrome 114.0.0.0","1920x1080","1920x905",NA,NA,NA,"Feedback Phrases Task - List 2",8,"In","HIGJFAEBDC",NA,"study_2 (video_feedback and feedback_list_2)","VF_1st","In","Feedback Phrases List 2","Feedback Phrases List 2",41,"Task","Screen 3","izqege",2,"continue","",1766.68900000001,1766.68900000001,1766.68900000001,1766.68900000001,1766.68900000001,1766.68900000001,1,1766.68900000001,0,0,NA,"Fixation Timing","Fixation Cross",1,"object-48",NA,1,"You appeared very confident.","You are really engaging when you speak.","Task",NA,NA,NA,"SUPTM61449"
"86",1691006298535,"02/08/2023 19:58:18",1691009898535,1,"02/08/2023 21:58:18",139282,42,"task-lqy7",NA,31015924,9199072,NA,"complete",NA,NA,"computer","Desktop or Laptop","Linux x86_64","Chrome 114.0.0.0","1920x1080","1920x905",NA,NA,NA,"Feedback Phrases Task - List 2",8,"In","HIGJFAEBDC",NA,"study_2 (video_feedback and feedback_list_2)","VF_1st","In","Feedback Phrases List 2","Feedback Phrases List 2",42,"Task","Screen 1","113qg5",1,"continue","",704.786000000779,699.994000000064,704.786000000779,704.786000000779,699.994000000064,704.786000000779,1,704.786000000779,0,0,NA,"Click To Continue","Text_left_X2",3,"object-19",NA,1,"Excellent!","Your description was very insightful.","Task",NA,NA,NA,"SUPTM61449"
"87",1691006300299,"02/08/2023 19:58:20",1691009900299,1,"02/08/2023 21:58:20",139282,42,"task-lqy7",NA,31015924,9199072,NA,"complete",NA,NA,"computer","Desktop or Laptop","Linux x86_64","Chrome 114.0.0.0","1920x1080","1920x905",NA,NA,NA,"Feedback Phrases Task - List 2",8,"In","HIGJFAEBDC",NA,"study_2 (video_feedback and feedback_list_2)","VF_1st","In","Feedback Phrases List 2","Feedback Phrases List 2",42,"Task","Screen 3","izqege",2,"continue","",1766.69199999992,1766.69199999992,1766.69199999992,1766.69199999992,1766.69199999992,1766.69199999992,1,1766.69199999992,0,0,NA,"Fixation Timing","Fixation Cross",1,"object-48",NA,1,"Excellent!","Your description was very insightful.","Task",NA,NA,NA,"SUPTM61449"
"88",1691006301222,"02/08/2023 19:58:21",1691009901222,1,"02/08/2023 21:58:21",139282,42,"task-lqy7",NA,31015924,9199072,NA,"complete",NA,NA,"computer","Desktop or Laptop","Linux x86_64","Chrome 114.0.0.0","1920x1080","1920x905",NA,NA,NA,"Feedback Phrases Task - List 2",8,"In","HIGJFAEBDC",NA,"study_2 (video_feedback and feedback_list_2)","VF_1st","In","Feedback Phrases List 2","Feedback Phrases List 2",43,"Task","Screen 1","113qg5",1,"continue","",925.499999999302,916.654000000097,925.499999999302,925.499999999302,916.654000000097,925.499999999302,1,925.499999999302,0,0,NA,"Click To Continue","Text_left_X2",3,"object-19",NA,1,"I could easily picture what you were describing.","You appeared very confident.","Task",NA,NA,NA,"SUPTM61449"
"89",1691006302981,"02/08/2023 19:58:22",1691009902981,1,"02/08/2023 21:58:22",139282,42,"task-lqy7",NA,31015924,9199072,NA,"complete",NA,NA,"computer","Desktop or Laptop","Linux x86_64","Chrome 114.0.0.0","1920x1080","1920x905",NA,NA,NA,"Feedback Phrases Task - List 2",8,"In","HIGJFAEBDC",NA,"study_2 (video_feedback and feedback_list_2)","VF_1st","In","Feedback Phrases List 2","Feedback Phrases List 2",43,"Task","Screen 3","izqege",2,"continue","",1766.70199999993,1766.70199999993,1766.70199999993,1766.70199999993,1766.70199999993,1766.70199999993,1,1766.70199999993,0,0,NA,"Fixation Timing","Fixation Cross",1,"object-48",NA,1,"I could easily picture what you were describing.","You appeared very confident.","Task",NA,NA,NA,"SUPTM61449"
"90",1691006303865,"02/08/2023 19:58:23",1691009903865,1,"02/08/2023 21:58:23",139282,42,"task-lqy7",NA,31015924,9199072,NA,"complete",NA,NA,"computer","Desktop or Laptop","Linux x86_64","Chrome 114.0.0.0","1920x1080","1920x905",NA,NA,NA,"Feedback Phrases Task - List 2",8,"In","HIGJFAEBDC",NA,"study_2 (video_feedback and feedback_list_2)","VF_1st","In","Feedback Phrases List 2","Feedback Phrases List 2",44,"Task","Screen 1","113qg5",1,"continue","",883.319000000134,866.653000000049,883.319000000134,883.319000000134,866.653000000049,883.319000000134,1,883.319000000134,0,0,NA,"Click To Continue","Text_left_X1",2,"object-18",NA,1,"I could easily picture what you were describing.","You said all the right things.","Task",NA,NA,NA,"SUPTM61449"
"91",1691006305615,"02/08/2023 19:58:25",1691009905615,1,"02/08/2023 21:58:25",139282,42,"task-lqy7",NA,31015924,9199072,NA,"complete",NA,NA,"computer","Desktop or Laptop","Linux x86_64","Chrome 114.0.0.0","1920x1080","1920x905",NA,NA,NA,"Feedback Phrases Task - List 2",8,"In","HIGJFAEBDC",NA,"study_2 (video_feedback and feedback_list_2)","VF_1st","In","Feedback Phrases List 2","Feedback Phrases List 2",44,"Task","Screen 3","izqege",2,"continue","",1766.69699999993,1766.69699999993,1766.69699999993,1766.69699999993,1766.69699999993,1766.69699999993,1,1766.69699999993,0,0,NA,"Fixation Timing","Fixation Cross",1,"object-48",NA,1,"I could easily picture what you were describing.","You said all the right things.","Task",NA,NA,NA,"SUPTM61449"
"92",1691006306738,"02/08/2023 19:58:26",1691009906738,1,"02/08/2023 21:58:26",139282,42,"task-lqy7",NA,31015924,9199072,NA,"complete",NA,NA,"computer","Desktop or Laptop","Linux x86_64","Chrome 114.0.0.0","1920x1080","1920x905",NA,NA,NA,"Feedback Phrases Task - List 2",8,"In","HIGJFAEBDC",NA,"study_2 (video_feedback and feedback_list_2)","VF_1st","In","Feedback Phrases List 2","Feedback Phrases List 2",45,"Task","Screen 1","113qg5",1,"continue","",1124.39400000079,1116.64800000004,1124.39400000079,1124.39400000079,1116.64800000004,1124.39400000079,1,1124.39400000079,0,0,NA,"Click To Continue","Text_left_X2",3,"object-19",NA,1,"You appear very smart.","You came across really well.","Task",NA,NA,NA,"SUPTM61449"
"93",1691006308498,"02/08/2023 19:58:28",1691009908498,1,"02/08/2023 21:58:28",139282,42,"task-lqy7",NA,31015924,9199072,NA,"complete",NA,NA,"computer","Desktop or Laptop","Linux x86_64","Chrome 114.0.0.0","1920x1080","1920x905",NA,NA,NA,"Feedback Phrases Task - List 2",8,"In","HIGJFAEBDC",NA,"study_2 (video_feedback and feedback_list_2)","VF_1st","In","Feedback Phrases List 2","Feedback Phrases List 2",45,"Task","Screen 3","izqege",2,"continue","",1766.70200000005,1766.70200000005,1766.70200000005,1766.70200000005,1766.70200000005,1766.70200000005,1,1766.70200000005,0,0,NA,"Fixation Timing","Fixation Cross",1,"object-48",NA,1,"You appear very smart.","You came across really well.","Task",NA,NA,NA,"SUPTM61449"
"94",1691006308959,"02/08/2023 19:58:28",1691009908959,1,"02/08/2023 21:58:28",139282,42,"task-lqy7",NA,31015924,9199072,NA,"complete",NA,NA,"computer","Desktop or Laptop","Linux x86_64","Chrome 114.0.0.0","1920x1080","1920x905",NA,NA,NA,"Feedback Phrases Task - List 2",8,"In","HIGJFAEBDC",NA,"study_2 (video_feedback and feedback_list_2)","VF_1st","In","Feedback Phrases List 2","Feedback Phrases List 2",46,"Task","Screen 1","113qg5",1,"continue","",462.443999999203,449.996999999974,462.443999999203,462.443999999203,449.996999999974,462.443999999203,1,462.443999999203,0,0,NA,"Click To Continue","Text_left_X2",3,"object-19",NA,1,"You did what was asked of you.","Your description was very insightful.","Task",NA,NA,NA,"SUPTM61449"
"95",1691006310715,"02/08/2023 19:58:30",1691009910715,1,"02/08/2023 21:58:30",139282,42,"task-lqy7",NA,31015924,9199072,NA,"complete",NA,NA,"computer","Desktop or Laptop","Linux x86_64","Chrome 114.0.0.0","1920x1080","1920x905",NA,NA,NA,"Feedback Phrases Task - List 2",8,"In","HIGJFAEBDC",NA,"study_2 (video_feedback and feedback_list_2)","VF_1st","In","Feedback Phrases List 2","Feedback Phrases List 2",46,"Task","Screen 3","izqege",2,"continue","",1766.68099999998,1766.68099999998,1766.68099999998,1766.68099999998,1766.68099999998,1766.68099999998,1,1766.68099999998,0,0,NA,"Fixation Timing","Fixation Cross",1,"object-48",NA,1,"You did what was asked of you.","Your description was very insightful.","Task",NA,NA,NA,"SUPTM61449"
"96",1691006311488,"02/08/2023 19:58:31",1691009911488,1,"02/08/2023 21:58:31",139282,42,"task-lqy7",NA,31015924,9199072,NA,"complete",NA,NA,"computer","Desktop or Laptop","Linux x86_64","Chrome 114.0.0.0","1920x1080","1920x905",NA,NA,NA,"Feedback Phrases Task - List 2",8,"In","HIGJFAEBDC",NA,"study_2 (video_feedback and feedback_list_2)","VF_1st","In","Feedback Phrases List 2","Feedback Phrases List 2",47,"Task","Screen 1","113qg5",1,"continue","",774.366000000737,766.677000000025,774.366000000737,774.366000000737,766.677000000025,774.366000000737,1,774.366000000737,0,0,NA,"Click To Continue","Text_left_X2",3,"object-19",NA,1,"You did what was asked of you.","That was decent.","Task",NA,NA,NA,"SUPTM61449"
"97",1691006313249,"02/08/2023 19:58:33",1691009913249,1,"02/08/2023 21:58:33",139282,42,"task-lqy7",NA,31015924,9199072,NA,"complete",NA,NA,"computer","Desktop or Laptop","Linux x86_64","Chrome 114.0.0.0","1920x1080","1920x905",NA,NA,NA,"Feedback Phrases Task - List 2",8,"In","HIGJFAEBDC",NA,"study_2 (video_feedback and feedback_list_2)","VF_1st","In","Feedback Phrases List 2","Feedback Phrases List 2",47,"Task","Screen 3","izqege",2,"continue","",1766.67599999998,1766.67599999998,1766.67599999998,1766.67599999998,1766.67599999998,1766.67599999998,1,1766.67599999998,0,0,NA,"Fixation Timing","Fixation Cross",1,"object-48",NA,1,"You did what was asked of you.","That was decent.","Task",NA,NA,NA,"SUPTM61449"
"98",1691006313889,"02/08/2023 19:58:33",1691009913889,1,"02/08/2023 21:58:33",139282,42,"task-lqy7",NA,31015924,9199072,NA,"complete",NA,NA,"computer","Desktop or Laptop","Linux x86_64","Chrome 114.0.0.0","1920x1080","1920x905",NA,NA,NA,"Feedback Phrases Task - List 2",8,"In","HIGJFAEBDC",NA,"study_2 (video_feedback and feedback_list_2)","VF_1st","In","Feedback Phrases List 2","Feedback Phrases List 2",48,"Task","Screen 1","113qg5",1,"continue","",641.712999999989,633.334000000032,641.712999999989,641.712999999989,633.334000000032,641.712999999989,1,641.712999999989,0,0,NA,"Click To Continue","Text_left_X2",3,"object-19",NA,1,"Excellent!","You appeared very confident.","Task",NA,NA,NA,"SUPTM61449"
"99",1691006315649,"02/08/2023 19:58:35",1691009915649,1,"02/08/2023 21:58:35",139282,42,"task-lqy7",NA,31015924,9199072,NA,"complete",NA,NA,"computer","Desktop or Laptop","Linux x86_64","Chrome 114.0.0.0","1920x1080","1920x905",NA,NA,NA,"Feedback Phrases Task - List 2",8,"In","HIGJFAEBDC",NA,"study_2 (video_feedback and feedback_list_2)","VF_1st","In","Feedback Phrases List 2","Feedback Phrases List 2",48,"Task","Screen 3","izqege",2,"continue","",1766.67599999998,1766.67599999998,1766.67599999998,1766.67599999998,1766.67599999998,1766.67599999998,1,1766.67599999998,0,0,NA,"Fixation Timing","Fixation Cross",1,"object-48",NA,1,"Excellent!","You appeared very confident.","Task",NA,NA,NA,"SUPTM61449"
"100",1691006316975,"02/08/2023 19:58:36",1691009916975,1,"02/08/2023 21:58:36",139282,42,"task-lqy7",NA,31015924,9199072,NA,"complete",NA,NA,"computer","Desktop or Laptop","Linux x86_64","Chrome 114.0.0.0","1920x1080","1920x905",NA,NA,NA,"Feedback Phrases Task - List 2",8,"In","HIGJFAEBDC",NA,"study_2 (video_feedback and feedback_list_2)","VF_1st","In","Feedback Phrases List 2","Feedback Phrases List 2",49,"Task","Screen 1","113qg5",1,"continue","",1328.30299999961,1316.63500000001,1328.30299999961,1328.30299999961,1316.63500000001,1328.30299999961,1,1328.30299999961,0,0,NA,"Click To Continue","Text_left_X1",2,"object-18",NA,1,"You did what was asked of you.","Well done!","Task",NA,NA,NA,"SUPTM61449"
"101",1691006318732,"02/08/2023 19:58:38",1691009918732,1,"02/08/2023 21:58:38",139282,42,"task-lqy7",NA,31015924,9199072,NA,"complete",NA,NA,"computer","Desktop or Laptop","Linux x86_64","Chrome 114.0.0.0","1920x1080","1920x905",NA,NA,NA,"Feedback Phrases Task - List 2",8,"In","HIGJFAEBDC",NA,"study_2 (video_feedback and feedback_list_2)","VF_1st","In","Feedback Phrases List 2","Feedback Phrases List 2",49,"Task","Screen 3","izqege",2,"continue","",1766.71399999992,1766.71399999992,1766.71399999992,1766.71399999992,1766.71399999992,1766.71399999992,1,1766.71399999992,0,0,NA,"Fixation Timing","Fixation Cross",1,"object-48",NA,1,"You did what was asked of you.","Well done!","Task",NA,NA,NA,"SUPTM61449"
"102",1691006319935,"02/08/2023 19:58:39",1691009919935,1,"02/08/2023 21:58:39",139282,42,"task-lqy7",NA,31015924,9199072,NA,"complete",NA,NA,"computer","Desktop or Laptop","Linux x86_64","Chrome 114.0.0.0","1920x1080","1920x905",NA,NA,NA,"Feedback Phrases Task - List 2",8,"In","HIGJFAEBDC",NA,"study_2 (video_feedback and feedback_list_2)","VF_1st","In","Feedback Phrases List 2","Feedback Phrases List 2",50,"Task","Screen 1","113qg5",1,"continue","",1204.35400000005,1199.97600000002,1204.35400000005,1204.35400000005,1199.97600000002,1204.35400000005,1,1204.35400000005,0,0,NA,"Click To Continue","Text_left_X2",3,"object-19",NA,1,"That was decent.","You came across really well.","Task",NA,NA,NA,"SUPTM61449"
"103",1691006321699,"02/08/2023 19:58:41",1691009921699,1,"02/08/2023 21:58:41",139282,42,"task-lqy7",NA,31015924,9199072,NA,"complete",NA,NA,"computer","Desktop or Laptop","Linux x86_64","Chrome 114.0.0.0","1920x1080","1920x905",NA,NA,NA,"Feedback Phrases Task - List 2",8,"In","HIGJFAEBDC",NA,"study_2 (video_feedback and feedback_list_2)","VF_1st","In","Feedback Phrases List 2","Feedback Phrases List 2",50,"Task","Screen 3","izqege",2,"continue","",1766.71299999999,1766.71299999999,1766.71299999999,1766.71299999999,1766.71299999999,1766.71299999999,1,1766.71299999999,0,0,NA,"Fixation Timing","Fixation Cross",1,"object-48",NA,1,"That was decent.","You came across really well.","Task",NA,NA,NA,"SUPTM61449"
"104",1691006322472,"02/08/2023 19:58:42",1691009922472,1,"02/08/2023 21:58:42",139282,42,"task-lqy7",NA,31015924,9199072,NA,"complete",NA,NA,"computer","Desktop or Laptop","Linux x86_64","Chrome 114.0.0.0","1920x1080","1920x905",NA,NA,NA,"Feedback Phrases Task - List 2",8,"In","HIGJFAEBDC",NA,"study_2 (video_feedback and feedback_list_2)","VF_1st","In","Feedback Phrases List 2","Feedback Phrases List 2",51,"Task","Screen 1","113qg5",1,"continue","",775.06500000041,766.666000000085,775.06500000041,775.06500000041,766.666000000085,775.06500000041,1,775.06500000041,0,0,NA,"Click To Continue","Text_left_X2",3,"object-19",NA,1,"That was satisfactory.","You're very articulate.","Task",NA,NA,NA,"SUPTM61449"
"105",1691006324231,"02/08/2023 19:58:44",1691009924231,1,"02/08/2023 21:58:44",139282,42,"task-lqy7",NA,31015924,9199072,NA,"complete",NA,NA,"computer","Desktop or Laptop","Linux x86_64","Chrome 114.0.0.0","1920x1080","1920x905",NA,NA,NA,"Feedback Phrases Task - List 2",8,"In","HIGJFAEBDC",NA,"study_2 (video_feedback and feedback_list_2)","VF_1st","In","Feedback Phrases List 2","Feedback Phrases List 2",51,"Task","Screen 3","izqege",2,"continue","",1766.68199999991,1766.68199999991,1766.68199999991,1766.68199999991,1766.68199999991,1766.68199999991,1,1766.68199999991,0,0,NA,"Fixation Timing","Fixation Cross",1,"object-48",NA,1,"That was satisfactory.","You're very articulate.","Task",NA,NA,NA,"SUPTM61449"
"106",1691006325934,"02/08/2023 19:58:45",1691009925934,1,"02/08/2023 21:58:45",139282,42,"task-lqy7",NA,31015924,9199072,NA,"complete",NA,NA,"computer","Desktop or Laptop","Linux x86_64","Chrome 114.0.0.0","1920x1080","1920x905",NA,NA,NA,"Feedback Phrases Task - List 2",8,"In","HIGJFAEBDC",NA,"study_2 (video_feedback and feedback_list_2)","VF_1st","In","Feedback Phrases List 2","Feedback Phrases List 2",52,"Task","Screen 1","113qg5",1,"continue","",1703.51699999929,1699.96700000006,1703.51699999929,1703.51699999929,1699.96700000006,1703.51699999929,1,1703.51699999929,0,0,NA,"Click To Continue","Text_left_X2",3,"object-19",NA,1,"You're very articulate.","You seemed very in-control.","Task",NA,NA,NA,"SUPTM61449"
"107",1691006327699,"02/08/2023 19:58:47",1691009927699,1,"02/08/2023 21:58:47",139282,42,"task-lqy7",NA,31015924,9199072,NA,"complete",NA,NA,"computer","Desktop or Laptop","Linux x86_64","Chrome 114.0.0.0","1920x1080","1920x905",NA,NA,NA,"Feedback Phrases Task - List 2",8,"In","HIGJFAEBDC",NA,"study_2 (video_feedback and feedback_list_2)","VF_1st","In","Feedback Phrases List 2","Feedback Phrases List 2",52,"Task","Screen 3","izqege",2,"continue","",1766.73100000003,1766.73100000003,1766.73100000003,1766.73100000003,1766.73100000003,1766.73100000003,1,1766.73100000003,0,0,NA,"Fixation Timing","Fixation Cross",1,"object-48",NA,1,"You're very articulate.","You seemed very in-control.","Task",NA,NA,NA,"SUPTM61449"
"108",1691006328793,"02/08/2023 19:58:48",1691009928793,1,"02/08/2023 21:58:48",139282,42,"task-lqy7",NA,31015924,9199072,NA,"complete",NA,NA,"computer","Desktop or Laptop","Linux x86_64","Chrome 114.0.0.0","1920x1080","1920x905",NA,NA,NA,"Feedback Phrases Task - List 2",8,"In","HIGJFAEBDC",NA,"study_2 (video_feedback and feedback_list_2)","VF_1st","In","Feedback Phrases List 2","Feedback Phrases List 2",53,"Task","Screen 1","113qg5",1,"continue","",1095.51900000032,1083.3189999999,1095.51900000032,1095.51900000032,1083.3189999999,1095.51900000032,1,1095.51900000032,0,0,NA,"Click To Continue","Text_left_X1",2,"object-18",NA,1,"I could easily picture what you were describing.","You're very articulate.","Task",NA,NA,NA,"SUPTM61449"
"109",1691006330549,"02/08/2023 19:58:50",1691009930549,1,"02/08/2023 21:58:50",139282,42,"task-lqy7",NA,31015924,9199072,NA,"complete",NA,NA,"computer","Desktop or Laptop","Linux x86_64","Chrome 114.0.0.0","1920x1080","1920x905",NA,NA,NA,"Feedback Phrases Task - List 2",8,"In","HIGJFAEBDC",NA,"study_2 (video_feedback and feedback_list_2)","VF_1st","In","Feedback Phrases List 2","Feedback Phrases List 2",53,"Task","Screen 3","izqege",2,"continue","",1766.69300000009,1766.69300000009,1766.69300000009,1766.69300000009,1766.69300000009,1766.69300000009,1,1766.69300000009,0,0,NA,"Fixation Timing","Fixation Cross",1,"object-48",NA,1,"I could easily picture what you were describing.","You're very articulate.","Task",NA,NA,NA,"SUPTM61449"
"110",1691006331640,"02/08/2023 19:58:51",1691009931640,1,"02/08/2023 21:58:51",139282,42,"task-lqy7",NA,31015924,9199072,NA,"complete",NA,NA,"computer","Desktop or Laptop","Linux x86_64","Chrome 114.0.0.0","1920x1080","1920x905",NA,NA,NA,"Feedback Phrases Task - List 2",8,"In","HIGJFAEBDC",NA,"study_2 (video_feedback and feedback_list_2)","VF_1st","In","Feedback Phrases List 2","Feedback Phrases List 2",54,"Task","Screen 1","113qg5",1,"continue","",1092.90700000071,1083.31799999997,1092.90700000071,1092.90700000071,1083.31799999997,1092.90700000071,1,1092.90700000071,0,0,NA,"Click To Continue","Text_left_X1",2,"object-18",NA,1,"You said all the right things.","You seemed very in-control.","Task",NA,NA,NA,"SUPTM61449"
"111",1691006333398,"02/08/2023 19:58:53",1691009933398,1,"02/08/2023 21:58:53",139282,42,"task-lqy7",NA,31015924,9199072,NA,"complete",NA,NA,"computer","Desktop or Laptop","Linux x86_64","Chrome 114.0.0.0","1920x1080","1920x905",NA,NA,NA,"Feedback Phrases Task - List 2",8,"In","HIGJFAEBDC",NA,"study_2 (video_feedback and feedback_list_2)","VF_1st","In","Feedback Phrases List 2","Feedback Phrases List 2",54,"Task","Screen 3","izqege",2,"continue","",1766.70799999998,1766.70799999998,1766.70799999998,1766.70799999998,1766.70799999998,1766.70799999998,1,1766.70799999998,0,0,NA,"Fixation Timing","Fixation Cross",1,"object-48",NA,1,"You said all the right things.","You seemed very in-control.","Task",NA,NA,NA,"SUPTM61449"
"112",1691006334216,"02/08/2023 19:58:54",1691009934216,1,"02/08/2023 21:58:54",139282,42,"task-lqy7",NA,31015924,9199072,NA,"complete",NA,NA,"computer","Desktop or Laptop","Linux x86_64","Chrome 114.0.0.0","1920x1080","1920x905",NA,NA,NA,"Feedback Phrases Task - List 2",8,"In","HIGJFAEBDC",NA,"study_2 (video_feedback and feedback_list_2)","VF_1st","In","Feedback Phrases List 2","Feedback Phrases List 2",55,"Task","Screen 1","113qg5",1,"continue","",816.657999999938,799.991999999969,816.657999999938,816.657999999938,799.991999999969,816.657999999938,1,816.657999999938,0,0,NA,"Click To Continue","Text_left_X2",3,"object-19",NA,1,"That was satisfactory.","You are really engaging when you speak.","Task",NA,NA,NA,"SUPTM61449"
"113",1691006335965,"02/08/2023 19:58:55",1691009935965,1,"02/08/2023 21:58:55",139282,42,"task-lqy7",NA,31015924,9199072,NA,"complete",NA,NA,"computer","Desktop or Laptop","Linux x86_64","Chrome 114.0.0.0","1920x1080","1920x905",NA,NA,NA,"Feedback Phrases Task - List 2",8,"In","HIGJFAEBDC",NA,"study_2 (video_feedback and feedback_list_2)","VF_1st","In","Feedback Phrases List 2","Feedback Phrases List 2",55,"Task","Screen 3","izqege",2,"continue","",1766.68900000001,1766.68900000001,1766.68900000001,1766.68900000001,1766.68900000001,1766.68900000001,1,1766.68900000001,0,0,NA,"Fixation Timing","Fixation Cross",1,"object-48",NA,1,"That was satisfactory.","You are really engaging when you speak.","Task",NA,NA,NA,"SUPTM61449"
"114",1691006336705,"02/08/2023 19:58:56",1691009936705,1,"02/08/2023 21:58:56",139282,42,"task-lqy7",NA,31015924,9199072,NA,"complete",NA,NA,"computer","Desktop or Laptop","Linux x86_64","Chrome 114.0.0.0","1920x1080","1920x905",NA,NA,NA,"Feedback Phrases Task - List 2",8,"In","HIGJFAEBDC",NA,"study_2 (video_feedback and feedback_list_2)","VF_1st","In","Feedback Phrases List 2","Feedback Phrases List 2",56,"Task","Screen 1","113qg5",1,"continue","",741.599999999278,733.326000000001,741.599999999278,741.599999999278,733.326000000001,741.599999999278,1,741.599999999278,0,0,NA,"Click To Continue","Text_left_X2",3,"object-19",NA,1,"You did what was asked of you.","You're very articulate.","Task",NA,NA,NA,"SUPTM61449"
"115",1691006338466,"02/08/2023 19:58:58",1691009938466,1,"02/08/2023 21:58:58",139282,42,"task-lqy7",NA,31015924,9199072,NA,"complete",NA,NA,"computer","Desktop or Laptop","Linux x86_64","Chrome 114.0.0.0","1920x1080","1920x905",NA,NA,NA,"Feedback Phrases Task - List 2",8,"In","HIGJFAEBDC",NA,"study_2 (video_feedback and feedback_list_2)","VF_1st","In","Feedback Phrases List 2","Feedback Phrases List 2",56,"Task","Screen 3","izqege",2,"continue","",1766.68599999999,1766.68599999999,1766.68599999999,1766.68599999999,1766.68599999999,1766.68599999999,1,1766.68599999999,0,0,NA,"Fixation Timing","Fixation Cross",1,"object-48",NA,1,"You did what was asked of you.","You're very articulate.","Task",NA,NA,NA,"SUPTM61449"
"116",1691006339495,"02/08/2023 19:58:59",1691009939495,1,"02/08/2023 21:58:59",139282,42,"task-lqy7",NA,31015924,9199072,NA,"complete",NA,NA,"computer","Desktop or Laptop","Linux x86_64","Chrome 114.0.0.0","1920x1080","1920x905",NA,NA,NA,"Feedback Phrases Task - List 2",8,"In","HIGJFAEBDC",NA,"study_2 (video_feedback and feedback_list_2)","VF_1st","In","Feedback Phrases List 2","Feedback Phrases List 2",57,"Task","Screen 1","113qg5",1,"continue","",1031.28800000041,1016.65500000003,1031.28800000041,1031.28800000041,1016.65500000003,1031.28800000041,1,1031.28800000041,0,0,NA,"Click To Continue","Text_left_X2",3,"object-19",NA,1,"You're very articulate.","You are really engaging when you speak.","Task",NA,NA,NA,"SUPTM61449"
"117",1691006341249,"02/08/2023 19:59:01",1691009941249,1,"02/08/2023 21:59:01",139282,42,"task-lqy7",NA,31015924,9199072,NA,"complete",NA,NA,"computer","Desktop or Laptop","Linux x86_64","Chrome 114.0.0.0","1920x1080","1920x905",NA,NA,NA,"Feedback Phrases Task - List 2",8,"In","HIGJFAEBDC",NA,"study_2 (video_feedback and feedback_list_2)","VF_1st","In","Feedback Phrases List 2","Feedback Phrases List 2",57,"Task","Screen 3","izqege",2,"continue","",1766.69700000004,1766.69700000004,1766.69700000004,1766.69700000004,1766.69700000004,1766.69700000004,1,1766.69700000004,0,0,NA,"Fixation Timing","Fixation Cross",1,"object-48",NA,1,"You're very articulate.","You are really engaging when you speak.","Task",NA,NA,NA,"SUPTM61449"
"118",1691006343336,"02/08/2023 19:59:03",1691009943336,1,"02/08/2023 21:59:03",139282,42,"task-lqy7",NA,31015924,9199072,NA,"complete",NA,NA,"computer","Desktop or Laptop","Linux x86_64","Chrome 114.0.0.0","1920x1080","1920x905",NA,NA,NA,"Feedback Phrases Task - List 2",8,"In","HIGJFAEBDC",NA,"study_2 (video_feedback and feedback_list_2)","VF_1st","In","Feedback Phrases List 2","Feedback Phrases List 2",58,"Task","Screen 1","113qg5",1,"continue","",2088.83600000071,2083.27599999995,2088.83600000071,2088.83600000071,2083.27599999995,2088.83600000071,1,2088.83600000071,0,0,NA,"Click To Continue","Text_left_X2",3,"object-19",NA,1,"Your description was very insightful.","You appear very smart.","Task",NA,NA,NA,"SUPTM61449"
"119",1691006345099,"02/08/2023 19:59:05",1691009945099,1,"02/08/2023 21:59:05",139282,42,"task-lqy7",NA,31015924,9199072,NA,"complete",NA,NA,"computer","Desktop or Laptop","Linux x86_64","Chrome 114.0.0.0","1920x1080","1920x905",NA,NA,NA,"Feedback Phrases Task - List 2",8,"In","HIGJFAEBDC",NA,"study_2 (video_feedback and feedback_list_2)","VF_1st","In","Feedback Phrases List 2","Feedback Phrases List 2",58,"Task","Screen 3","izqege",2,"continue","",1766.75300000003,1766.75300000003,1766.75300000003,1766.75300000003,1766.75300000003,1766.75300000003,1,1766.75300000003,0,0,NA,"Fixation Timing","Fixation Cross",1,"object-48",NA,1,"Your description was very insightful.","You appear very smart.","Task",NA,NA,NA,"SUPTM61449"
"120",1691006347083,"02/08/2023 19:59:07",1691009947083,1,"02/08/2023 21:59:07",139282,42,"task-lqy7",NA,31015924,9199072,NA,"complete",NA,NA,"computer","Desktop or Laptop","Linux x86_64","Chrome 114.0.0.0","1920x1080","1920x905",NA,NA,NA,"Feedback Phrases Task - List 2",8,"In","HIGJFAEBDC",NA,"study_2 (video_feedback and feedback_list_2)","VF_1st","In","Feedback Phrases List 2","Feedback Phrases List 2",59,"Task","Screen 1","113qg5",1,"continue","",1983.27099999995,1966.60499999998,1983.27099999995,1983.27099999995,1966.60499999998,1983.27099999995,1,1983.27099999995,0,0,NA,"Click To Continue","Text_left_X2",3,"object-19",NA,1,"Well done!","I could easily picture what you were describing.","Task",NA,NA,NA,"SUPTM61449"
"121",1691006348832,"02/08/2023 19:59:08",1691009948832,1,"02/08/2023 21:59:08",139282,42,"task-lqy7",NA,31015924,9199072,NA,"complete",NA,NA,"computer","Desktop or Laptop","Linux x86_64","Chrome 114.0.0.0","1920x1080","1920x905",NA,NA,NA,"Feedback Phrases Task - List 2",8,"In","HIGJFAEBDC",NA,"study_2 (video_feedback and feedback_list_2)","VF_1st","In","Feedback Phrases List 2","Feedback Phrases List 2",59,"Task","Screen 3","izqege",2,"continue","",1766.75600000005,1766.75600000005,1766.75600000005,1766.75600000005,1766.75600000005,1766.75600000005,1,1766.75600000005,0,0,NA,"Fixation Timing","Fixation Cross",1,"object-48",NA,1,"Well done!","I could easily picture what you were describing.","Task",NA,NA,NA,"SUPTM61449"
"122",1691006350489,"02/08/2023 19:59:10",1691009950489,1,"02/08/2023 21:59:10",139282,42,"task-lqy7",NA,31015924,9199072,NA,"complete",NA,NA,"computer","Desktop or Laptop","Linux x86_64","Chrome 114.0.0.0","1920x1080","1920x905",NA,NA,NA,"Feedback Phrases Task - List 2",8,"In","HIGJFAEBDC",NA,"study_2 (video_feedback and feedback_list_2)","VF_1st","In","Feedback Phrases List 2","Feedback Phrases List 2",60,"Task","Screen 1","113qg5",1,"continue","",1658.54600000032,1649.94799999997,1658.54600000032,1658.54600000032,1649.94799999997,1658.54600000032,1,1658.54600000032,0,0,NA,"Click To Continue","Text_left_X1",2,"object-18",NA,1,"Your description was very insightful.","You said all the right things.","Task",NA,NA,NA,"SUPTM61449"
"123",1691006352248,"02/08/2023 19:59:12",1691009952248,1,"02/08/2023 21:59:12",139282,42,"task-lqy7",NA,31015924,9199072,NA,"complete",NA,NA,"computer","Desktop or Laptop","Linux x86_64","Chrome 114.0.0.0","1920x1080","1920x905",NA,NA,NA,"Feedback Phrases Task - List 2",8,"In","HIGJFAEBDC",NA,"study_2 (video_feedback and feedback_list_2)","VF_1st","In","Feedback Phrases List 2","Feedback Phrases List 2",60,"Task","Screen 3","izqege",2,"continue","",1766.73399999994,1766.73399999994,1766.73399999994,1766.73399999994,1766.73399999994,1766.73399999994,1,1766.73399999994,0,0,NA,"Fixation Timing","Fixation Cross",1,"object-48",NA,1,"Your description was very insightful.","You said all the right things.","Task",NA,NA,NA,"SUPTM61449"
"124",1691006353615,"02/08/2023 19:59:13",1691009953615,1,"02/08/2023 21:59:13",139282,42,"task-lqy7",NA,31015924,9199072,NA,"complete",NA,NA,"computer","Desktop or Laptop","Linux x86_64","Chrome 114.0.0.0","1920x1080","1920x905",NA,NA,NA,"Feedback Phrases Task - List 2",8,"In","HIGJFAEBDC",NA,"study_2 (video_feedback and feedback_list_2)","VF_1st","In","Feedback Phrases List 2","Feedback Phrases List 2",61,"Task","Screen 1","113qg5",1,"continue","",1366.64199999999,1349.97600000002,1366.64199999999,1366.64199999999,1349.97600000002,1366.64199999999,1,1366.64199999999,0,0,NA,"Click To Continue","Text_left_X2",3,"object-19",NA,1,"That was decent.","I could easily picture what you were describing.","Task",NA,NA,NA,"SUPTM61449"
"125",1691006355365,"02/08/2023 19:59:15",1691009955365,1,"02/08/2023 21:59:15",139282,42,"task-lqy7",NA,31015924,9199072,NA,"complete",NA,NA,"computer","Desktop or Laptop","Linux x86_64","Chrome 114.0.0.0","1920x1080","1920x905",NA,NA,NA,"Feedback Phrases Task - List 2",8,"In","HIGJFAEBDC",NA,"study_2 (video_feedback and feedback_list_2)","VF_1st","In","Feedback Phrases List 2","Feedback Phrases List 2",61,"Task","Screen 3","izqege",2,"continue","",1766.71799999999,1766.71799999999,1766.71799999999,1766.71799999999,1766.71799999999,1766.71799999999,1,1766.71799999999,0,0,NA,"Fixation Timing","Fixation Cross",1,"object-48",NA,1,"That was decent.","I could easily picture what you were describing.","Task",NA,NA,NA,"SUPTM61449"
"126",1691006356185,"02/08/2023 19:59:16",1691009956185,1,"02/08/2023 21:59:16",139282,42,"task-lqy7",NA,31015924,9199072,NA,"complete",NA,NA,"computer","Desktop or Laptop","Linux x86_64","Chrome 114.0.0.0","1920x1080","1920x905",NA,NA,NA,"Feedback Phrases Task - List 2",8,"In","HIGJFAEBDC",NA,"study_2 (video_feedback and feedback_list_2)","VF_1st","In","Feedback Phrases List 2","Feedback Phrases List 2",62,"Task","Screen 1","113qg5",1,"continue","",820.770000000019,816.651000000071,820.770000000019,820.770000000019,816.651000000071,820.770000000019,1,820.770000000019,0,0,NA,"Click To Continue","Text_left_X2",3,"object-19",NA,1,"Excellent!","You came across really well.","Task",NA,NA,NA,"SUPTM61449"
"127",1691006357949,"02/08/2023 19:59:17",1691009957949,1,"02/08/2023 21:59:17",139282,42,"task-lqy7",NA,31015924,9199072,NA,"complete",NA,NA,"computer","Desktop or Laptop","Linux x86_64","Chrome 114.0.0.0","1920x1080","1920x905",NA,NA,NA,"Feedback Phrases Task - List 2",8,"In","HIGJFAEBDC",NA,"study_2 (video_feedback and feedback_list_2)","VF_1st","In","Feedback Phrases List 2","Feedback Phrases List 2",62,"Task","Screen 3","izqege",2,"continue","",1766.69199999992,1766.69199999992,1766.69199999992,1766.69199999992,1766.69199999992,1766.69199999992,1,1766.69199999992,0,0,NA,"Fixation Timing","Fixation Cross",1,"object-48",NA,1,"Excellent!","You came across really well.","Task",NA,NA,NA,"SUPTM61449"
"128",1691006359184,"02/08/2023 19:59:19",1691009959184,1,"02/08/2023 21:59:19",139282,42,"task-lqy7",NA,31015924,9199072,NA,"complete",NA,NA,"computer","Desktop or Laptop","Linux x86_64","Chrome 114.0.0.0","1920x1080","1920x905",NA,NA,NA,"Feedback Phrases Task - List 2",8,"In","HIGJFAEBDC",NA,"study_2 (video_feedback and feedback_list_2)","VF_1st","In","Feedback Phrases List 2","Feedback Phrases List 2",63,"Task","Screen 1","113qg5",1,"continue","",1236.72700000077,1233.31599999999,1236.72700000077,1236.72700000077,1233.31599999999,1236.72700000077,1,1236.72700000077,0,0,NA,"Click To Continue","Text_left_X1",2,"object-18",NA,1,"You said all the right things.","You came across really well.","Task",NA,NA,NA,"SUPTM61449"
"129",1691006360949,"02/08/2023 19:59:20",1691009960949,1,"02/08/2023 21:59:20",139282,42,"task-lqy7",NA,31015924,9199072,NA,"complete",NA,NA,"computer","Desktop or Laptop","Linux x86_64","Chrome 114.0.0.0","1920x1080","1920x905",NA,NA,NA,"Feedback Phrases Task - List 2",8,"In","HIGJFAEBDC",NA,"study_2 (video_feedback and feedback_list_2)","VF_1st","In","Feedback Phrases List 2","Feedback Phrases List 2",63,"Task","Screen 3","izqege",2,"continue","",1766.70700000005,1766.70700000005,1766.70700000005,1766.70700000005,1766.70700000005,1766.70700000005,1,1766.70700000005,0,0,NA,"Fixation Timing","Fixation Cross",1,"object-48",NA,1,"You said all the right things.","You came across really well.","Task",NA,NA,NA,"SUPTM61449"
"130",1691006361912,"02/08/2023 19:59:21",1691009961912,1,"02/08/2023 21:59:21",139282,42,"task-lqy7",NA,31015924,9199072,NA,"complete",NA,NA,"computer","Desktop or Laptop","Linux x86_64","Chrome 114.0.0.0","1920x1080","1920x905",NA,NA,NA,"Feedback Phrases Task - List 2",8,"In","HIGJFAEBDC",NA,"study_2 (video_feedback and feedback_list_2)","VF_1st","In","Feedback Phrases List 2","Feedback Phrases List 2",64,"Task","Screen 1","113qg5",1,"continue","",964.304000000353,949.988999999943,964.304000000353,964.304000000353,949.988999999943,964.304000000353,1,964.304000000353,0,0,NA,"Click To Continue","Text_left_X2",3,"object-19",NA,1,"That was decent.","You appear very smart.","Task",NA,NA,NA,"SUPTM61449"
"131",1691006363666,"02/08/2023 19:59:23",1691009963666,1,"02/08/2023 21:59:23",139282,42,"task-lqy7",NA,31015924,9199072,NA,"complete",NA,NA,"computer","Desktop or Laptop","Linux x86_64","Chrome 114.0.0.0","1920x1080","1920x905",NA,NA,NA,"Feedback Phrases Task - List 2",8,"In","HIGJFAEBDC",NA,"study_2 (video_feedback and feedback_list_2)","VF_1st","In","Feedback Phrases List 2","Feedback Phrases List 2",64,"Task","Screen 3","izqege",2,"continue","",1766.69500000007,1766.69500000007,1766.69500000007,1766.69500000007,1766.69500000007,1766.69500000007,1,1766.69500000007,0,0,NA,"Fixation Timing","Fixation Cross",1,"object-48",NA,1,"That was decent.","You appear very smart.","Task",NA,NA,NA,"SUPTM61449"
"132",1691006365967,"02/08/2023 19:59:25",1691009965967,1,"02/08/2023 21:59:25",139282,42,"task-lqy7",NA,31015924,9199072,NA,"complete",NA,NA,"computer","Desktop or Laptop","Linux x86_64","Chrome 114.0.0.0","1920x1080","1920x905",NA,NA,NA,"Feedback Phrases Task - List 2",8,"In","HIGJFAEBDC",NA,"study_2 (video_feedback and feedback_list_2)","VF_1st","In","Feedback Phrases List 2","Feedback Phrases List 2",65,"Task","Screen 1","113qg5",1,"continue","",2303.3199999996,2299.93400000001,2303.3199999996,2303.3199999996,2299.93400000001,2303.3199999996,1,2303.3199999996,0,0,NA,"Click To Continue","Text_left_X2",3,"object-19",NA,1,"You did what was asked of you.","You came across really well.","Task",NA,NA,NA,"SUPTM61449"
"133",1691006367733,"02/08/2023 19:59:27",1691009967733,1,"02/08/2023 21:59:27",139282,42,"task-lqy7",NA,31015924,9199072,NA,"complete",NA,NA,"computer","Desktop or Laptop","Linux x86_64","Chrome 114.0.0.0","1920x1080","1920x905",NA,NA,NA,"Feedback Phrases Task - List 2",8,"In","HIGJFAEBDC",NA,"study_2 (video_feedback and feedback_list_2)","VF_1st","In","Feedback Phrases List 2","Feedback Phrases List 2",65,"Task","Screen 3","izqege",2,"continue","",1766.75299999991,1766.75299999991,1766.75299999991,1766.75299999991,1766.75299999991,1766.75299999991,1,1766.75299999991,0,0,NA,"Fixation Timing","Fixation Cross",1,"object-48",NA,1,"You did what was asked of you.","You came across really well.","Task",NA,NA,NA,"SUPTM61449"
"134",1691006369319,"02/08/2023 19:59:29",1691009969319,1,"02/08/2023 21:59:29",139282,42,"task-lqy7",NA,31015924,9199072,NA,"complete",NA,NA,"computer","Desktop or Laptop","Linux x86_64","Chrome 114.0.0.0","1920x1080","1920x905",NA,NA,NA,"Feedback Phrases Task - List 2",8,"In","HIGJFAEBDC",NA,"study_2 (video_feedback and feedback_list_2)","VF_1st","In","Feedback Phrases List 2","Feedback Phrases List 2",66,"Task","Screen 1","113qg5",1,"continue","",1587.93300000043,1583.304,1587.93300000043,1587.93300000043,1583.304,1587.93300000043,1,1587.93300000043,0,0,NA,"Click To Continue","Text_left_X2",3,"object-19",NA,1,"That was satisfactory.","You seemed very in-control.","Task",NA,NA,NA,"SUPTM61449"
"135",1691006371082,"02/08/2023 19:59:31",1691009971082,1,"02/08/2023 21:59:31",139282,42,"task-lqy7",NA,31015924,9199072,NA,"complete",NA,NA,"computer","Desktop or Laptop","Linux x86_64","Chrome 114.0.0.0","1920x1080","1920x905",NA,NA,NA,"Feedback Phrases Task - List 2",8,"In","HIGJFAEBDC",NA,"study_2 (video_feedback and feedback_list_2)","VF_1st","In","Feedback Phrases List 2","Feedback Phrases List 2",66,"Task","Screen 3","izqege",2,"continue","",1766.723,1766.723,1766.723,1766.723,1766.723,1766.723,1,1766.723,0,0,NA,"Fixation Timing","Fixation Cross",1,"object-48",NA,1,"That was satisfactory.","You seemed very in-control.","Task",NA,NA,NA,"SUPTM61449"
"136",1691006372335,"02/08/2023 19:59:32",1691009972335,1,"02/08/2023 21:59:32",139282,42,"task-lqy7",NA,31015924,9199072,NA,"complete",NA,NA,"computer","Desktop or Laptop","Linux x86_64","Chrome 114.0.0.0","1920x1080","1920x905",NA,NA,NA,"Feedback Phrases Task - List 2",8,"In","HIGJFAEBDC",NA,"study_2 (video_feedback and feedback_list_2)","VF_1st","In","Feedback Phrases List 2","Feedback Phrases List 2",67,"Task","Screen 1","113qg5",1,"continue","",1254.50600000005,1249.96700000006,1254.50600000005,1254.50600000005,1249.96700000006,1254.50600000005,1,1254.50600000005,0,0,NA,"Click To Continue","Text_left_X2",3,"object-19",NA,1,"Your description was very insightful.","You're very articulate.","Task",NA,NA,NA,"SUPTM61449"
"137",1691006374098,"02/08/2023 19:59:34",1691009974098,1,"02/08/2023 21:59:34",139282,42,"task-lqy7",NA,31015924,9199072,NA,"complete",NA,NA,"computer","Desktop or Laptop","Linux x86_64","Chrome 114.0.0.0","1920x1080","1920x905",NA,NA,NA,"Feedback Phrases Task - List 2",8,"In","HIGJFAEBDC",NA,"study_2 (video_feedback and feedback_list_2)","VF_1st","In","Feedback Phrases List 2","Feedback Phrases List 2",67,"Task","Screen 3","izqege",2,"continue","",1766.72400000005,1766.72400000005,1766.72400000005,1766.72400000005,1766.72400000005,1766.72400000005,1,1766.72400000005,0,0,NA,"Fixation Timing","Fixation Cross",1,"object-48",NA,1,"Your description was very insightful.","You're very articulate.","Task",NA,NA,NA,"SUPTM61449"
"138",1691006375873,"02/08/2023 19:59:35",1691009975873,1,"02/08/2023 21:59:35",139282,42,"task-lqy7",NA,31015924,9199072,NA,"complete",NA,NA,"computer","Desktop or Laptop","Linux x86_64","Chrome 114.0.0.0","1920x1080","1920x905",NA,NA,NA,"Feedback Phrases Task - List 2",8,"In","HIGJFAEBDC",NA,"study_2 (video_feedback and feedback_list_2)","VF_1st","In","Feedback Phrases List 2","Feedback Phrases List 2",68,"Task","Screen 1","113qg5",1,"continue","",1776.0149999992,1766.61399999994,1776.0149999992,1776.0149999992,1766.61399999994,1776.0149999992,1,1776.0149999992,0,0,NA,"Click To Continue","Text_left_X1",2,"object-18",NA,1,"Excellent!","I could easily picture what you were describing.","Task",NA,NA,NA,"SUPTM61449"
