"Event.Index","UTC.Timestamp","UTC.Date.and.Time","Local.Timestamp","Local.Timezone","Local.Date.and.Time","Experiment.ID","Experiment.Version","Tree.Node.Key","Repeat.Key","Schedule.ID","Participant.Private.ID","Participant.Starting.Group","Participant.Status","Participant.Completion.Code","Participant.External.Session.ID","Participant.Device.Type","Participant.Device","Participant.OS","Participant.Browser","Participant.Monitor.Size","Participant.Viewport.Size","Checkpoint","Room.ID","Room.Order","Task.Name","Task.Version","branch.hkzp","order.ot79","randomiser.lqqr","randomiser.28m8","randomiser.tf5j","branch.vlgf","Spreadsheet","Current.Spreadsheet","Trial.Number","Display","Screen","Screen.ID","Screen.Counter","Response.Type","Response","Onset.Time","Clock.Time","Reaction.Time","Absolute.Onset.Time","Absolute.Clock.Time","Absolute.Reaction.Time","Correct","Response.Onset","Response.Duration","Proportion","Tag","Component.Name","Object.Name","Object.Number","Object.ID","Spreadsheet..display","Spreadsheet..stimulus","Spreadsheet..rand","Spreadsheet..conditions","Manipulation..Spreadsheet","Random_ID"
"1",1691078181719,"03/08/2023 15:56:21",1691081781719,1,"03/08/2023 17:56:21",139282,42,"task-ak18",NA,31037390,9203593,NA,"complete",NA,NA,"computer","Desktop or Laptop","Windows 10","Chrome 115.0.0.0","2562x1332","2560x1325",NA,NA,NA,"JV Task P1 (Clone) (study_2)",22,"In","IJHAGBFCED","B (Feedback ranking_L1 First)","study_1 (JV and feedback_list_1)",NA,"In","SS1","SS1",NA,"","","",NA,"5","BEGIN",NA,NA,NA,NA,NA,NA,0,NA,NA,NA,NA,"","",NA,"","","",NA,NA,NA,"SUPTM91602"
"2",1691078183834,"03/08/2023 15:56:23",1691081783834,1,"03/08/2023 17:56:23",139282,42,"task-ak18",NA,31037390,9203593,NA,"complete",NA,NA,"computer","Desktop or Laptop","Windows 10","Chrome 115.0.0.0","2562x1332","2560x1325",NA,NA,NA,"JV Task P1 (Clone) (study_2)",22,"In","IJHAGBFCED","B (Feedback ranking_L1 First)","study_1 (JV and feedback_list_1)",NA,"In","SS1","SS1",1,"instructions","Screen 1","rdpzeq",1,"continue","",2123,2118,2123,2123,2118,2123,1,2123,0,0,NA,"Click To Continue","Next Button",2,"object-28","instructions","",NA,NA,NA,"SUPTM91602"
"3",1691078187777,"03/08/2023 15:56:27",1691081787777,1,"03/08/2023 17:56:27",139282,42,"task-ak18",NA,31037390,9203593,NA,"complete",NA,NA,"computer","Desktop or Laptop","Windows 10","Chrome 115.0.0.0","2562x1332","2560x1325",NA,NA,NA,"JV Task P1 (Clone) (study_2)",22,"In","IJHAGBFCED","B (Feedback ranking_L1 First)","study_1 (JV and feedback_list_1)",NA,"In","SS1","SS1",1,"instructions","Screen 2","xoeas1",2,"continue","",3948,3945,3948,3948,3945,3948,1,3948,0,0,NA,"Click To Continue","Continue Button",2,"object-32","instructions","",NA,NA,NA,"SUPTM91602"
"4",1691078540179,"03/08/2023 16:02:20",1691082140179,1,"03/08/2023 18:02:20",139282,42,"task-ak18",NA,31037390,9203593,NA,"complete",NA,NA,"computer","Desktop or Laptop","Windows 10","Chrome 115.0.0.0","2562x1332","2560x1325",NA,NA,NA,"JV Task P1 (Clone) (study_2)",22,"In","IJHAGBFCED","B (Feedback ranking_L1 First)","study_1 (JV and feedback_list_1)",NA,"In","SS1","SS1",1,"instructions","Screen 3","exdjej",3,"continue","",352405,352399,352405,352405,352399,352405,1,352405,0,0,NA,"Click To Continue","Continue Button",2,"object-35","instructions","",NA,NA,NA,"SUPTM91602"
"5",1691078543521,"03/08/2023 16:02:23",1691082143521,1,"03/08/2023 18:02:23",139282,42,"task-ak18",NA,31037390,9203593,NA,"complete",NA,NA,"computer","Desktop or Laptop","Windows 10","Chrome 115.0.0.0","2562x1332","2560x1325",NA,NA,NA,"JV Task P1 (Clone) (study_2)",22,"In","IJHAGBFCED","B (Feedback ranking_L1 First)","study_1 (JV and feedback_list_1)",NA,"In","SS1","SS1",1,"V","Valence","sn1sjn",1,"continue","",3348,3347,3348,3348,3347,3348,1,3348,0,0,NA,"Click To Continue","Continue Button",1,"object-25","V","CFD-WF-017-003-H.jpeg",1,NA,NA,"SUPTM91602"
"6",1691078543521,"03/08/2023 16:02:23",1691082143521,1,"03/08/2023 18:02:23",139282,42,"task-ak18",NA,31037390,9203593,NA,"complete",NA,NA,"computer","Desktop or Laptop","Windows 10","Chrome 115.0.0.0","2562x1332","2560x1325",NA,NA,NA,"JV Task P1 (Clone) (study_2)",22,"In","IJHAGBFCED","B (Feedback ranking_L1 First)","study_1 (JV and feedback_list_1)",NA,"In","SS1","SS1",1,"V","Valence","sn1sjn",1,"response","78",2430,3347,3348,2430,3347,3348,1,2430,918,0,NA,"Slider","J",3,"object-27","V","CFD-WF-017-003-H.jpeg",1,NA,NA,"SUPTM91602"
"7",1691078544500,"03/08/2023 16:02:24",1691082144500,1,"03/08/2023 18:02:24",139282,42,"task-ak18",NA,31037390,9203593,NA,"complete",NA,NA,"computer","Desktop or Laptop","Windows 10","Chrome 115.0.0.0","2562x1332","2560x1325",NA,NA,NA,"JV Task P1 (Clone) (study_2)",22,"In","IJHAGBFCED","B (Feedback ranking_L1 First)","study_1 (JV and feedback_list_1)",NA,"In","SS1","SS1",1,"V","Fixation","aydkg3",2,"continue","",979,979,979,979,979,979,1,979,0,0,NA,"Fixation Timing","Fixation",1,"object-21","V","CFD-WF-017-003-H.jpeg",1,NA,NA,"SUPTM91602"
"8",1691078546311,"03/08/2023 16:02:26",1691082146311,1,"03/08/2023 18:02:26",139282,42,"task-ak18",NA,31037390,9203593,NA,"complete",NA,NA,"computer","Desktop or Laptop","Windows 10","Chrome 115.0.0.0","2562x1332","2560x1325",NA,NA,NA,"JV Task P1 (Clone) (study_2)",22,"In","IJHAGBFCED","B (Feedback ranking_L1 First)","study_1 (JV and feedback_list_1)",NA,"In","SS1","SS1",1,"J","Judginess","w2ir4b",1,"continue","",1812,1806,1812,1812,1806,1812,1,1812,0,0,NA,"Click To Continue","Continue Button",1,"object-14","J","CFD-WF-039-025-S.jpeg",1,NA,NA,"SUPTM91602"
"9",1691078546311,"03/08/2023 16:02:26",1691082146311,1,"03/08/2023 18:02:26",139282,42,"task-ak18",NA,31037390,9203593,NA,"complete",NA,NA,"computer","Desktop or Laptop","Windows 10","Chrome 115.0.0.0","2562x1332","2560x1325",NA,NA,NA,"JV Task P1 (Clone) (study_2)",22,"In","IJHAGBFCED","B (Feedback ranking_L1 First)","study_1 (JV and feedback_list_1)",NA,"In","SS1","SS1",1,"J","Judginess","w2ir4b",1,"response","27",1091,1806,1812,1091,1806,1812,1,1091,721,0,NA,"Slider","J",3,"object-18","J","CFD-WF-039-025-S.jpeg",1,NA,NA,"SUPTM91602"
"10",1691078547285,"03/08/2023 16:02:27",1691082147285,1,"03/08/2023 18:02:27",139282,42,"task-ak18",NA,31037390,9203593,NA,"complete",NA,NA,"computer","Desktop or Laptop","Windows 10","Chrome 115.0.0.0","2562x1332","2560x1325",NA,NA,NA,"JV Task P1 (Clone) (study_2)",22,"In","IJHAGBFCED","B (Feedback ranking_L1 First)","study_1 (JV and feedback_list_1)",NA,"In","SS1","SS1",1,"J","Fixation","mtm832",2,"continue","",980,980,980,980,980,980,1,980,0,0,NA,"Fixation Timing","Fixation",1,"object-65","J","CFD-WF-039-025-S.jpeg",1,NA,NA,"SUPTM91602"
"11",1691078550423,"03/08/2023 16:02:30",1691082150423,1,"03/08/2023 18:02:30",139282,42,"task-ak18",NA,31037390,9203593,NA,"complete",NA,NA,"computer","Desktop or Laptop","Windows 10","Chrome 115.0.0.0","2562x1332","2560x1325",NA,NA,NA,"JV Task P1 (Clone) (study_2)",22,"In","IJHAGBFCED","B (Feedback ranking_L1 First)","study_1 (JV and feedback_list_1)",NA,"In","SS1","SS1",2,"V","Valence","sn1sjn",1,"continue","",3138,3132,3138,3138,3132,3138,1,3138,0,0,NA,"Click To Continue","Continue Button",1,"object-25","V","CFD-WM-001-014-S.jpeg",1,NA,NA,"SUPTM91602"
"12",1691078550425,"03/08/2023 16:02:30",1691082150425,1,"03/08/2023 18:02:30",139282,42,"task-ak18",NA,31037390,9203593,NA,"complete",NA,NA,"computer","Desktop or Laptop","Windows 10","Chrome 115.0.0.0","2562x1332","2560x1325",NA,NA,NA,"JV Task P1 (Clone) (study_2)",22,"In","IJHAGBFCED","B (Feedback ranking_L1 First)","study_1 (JV and feedback_list_1)",NA,"In","SS1","SS1",2,"V","Valence","sn1sjn",1,"response","28",2479,3132,3139,2479,3132,3139,1,2479,660,0,NA,"Slider","J",3,"object-27","V","CFD-WM-001-014-S.jpeg",1,NA,NA,"SUPTM91602"
"13",1691078551396,"03/08/2023 16:02:31",1691082151396,1,"03/08/2023 18:02:31",139282,42,"task-ak18",NA,31037390,9203593,NA,"complete",NA,NA,"computer","Desktop or Laptop","Windows 10","Chrome 115.0.0.0","2562x1332","2560x1325",NA,NA,NA,"JV Task P1 (Clone) (study_2)",22,"In","IJHAGBFCED","B (Feedback ranking_L1 First)","study_1 (JV and feedback_list_1)",NA,"In","SS1","SS1",2,"V","Fixation","aydkg3",2,"continue","",979,979,979,979,979,979,1,979,0,0,NA,"Fixation Timing","Fixation",1,"object-21","V","CFD-WM-001-014-S.jpeg",1,NA,NA,"SUPTM91602"
"14",1691078553019,"03/08/2023 16:02:33",1691082153019,1,"03/08/2023 18:02:33",139282,42,"task-ak18",NA,31037390,9203593,NA,"complete",NA,NA,"computer","Desktop or Laptop","Windows 10","Chrome 115.0.0.0","2562x1332","2560x1325",NA,NA,NA,"JV Task P1 (Clone) (study_2)",22,"In","IJHAGBFCED","B (Feedback ranking_L1 First)","study_1 (JV and feedback_list_1)",NA,"In","SS1","SS1",2,"J","Judginess","w2ir4b",1,"continue","",1623,1618,1623,1623,1618,1623,1,1623,0,0,NA,"Click To Continue","Continue Button",1,"object-14","J","CFD-WM-015-002-H.jpeg",1,NA,NA,"SUPTM91602"
"15",1691078553019,"03/08/2023 16:02:33",1691082153019,1,"03/08/2023 18:02:33",139282,42,"task-ak18",NA,31037390,9203593,NA,"complete",NA,NA,"computer","Desktop or Laptop","Windows 10","Chrome 115.0.0.0","2562x1332","2560x1325",NA,NA,NA,"JV Task P1 (Clone) (study_2)",22,"In","IJHAGBFCED","B (Feedback ranking_L1 First)","study_1 (JV and feedback_list_1)",NA,"In","SS1","SS1",2,"J","Judginess","w2ir4b",1,"response","66",979,1618,1623,979,1618,1623,1,979,644,0,NA,"Slider","J",3,"object-18","J","CFD-WM-015-002-H.jpeg",1,NA,NA,"SUPTM91602"
"16",1691078553994,"03/08/2023 16:02:33",1691082153994,1,"03/08/2023 18:02:33",139282,42,"task-ak18",NA,31037390,9203593,NA,"complete",NA,NA,"computer","Desktop or Laptop","Windows 10","Chrome 115.0.0.0","2562x1332","2560x1325",NA,NA,NA,"JV Task P1 (Clone) (study_2)",22,"In","IJHAGBFCED","B (Feedback ranking_L1 First)","study_1 (JV and feedback_list_1)",NA,"In","SS1","SS1",2,"J","Fixation","mtm832",2,"continue","",979,979,979,979,979,979,1,979,0,0,NA,"Fixation Timing","Fixation",1,"object-65","J","CFD-WM-015-002-H.jpeg",1,NA,NA,"SUPTM91602"
"17",1691078555430,"03/08/2023 16:02:35",1691082155430,1,"03/08/2023 18:02:35",139282,42,"task-ak18",NA,31037390,9203593,NA,"complete",NA,NA,"computer","Desktop or Laptop","Windows 10","Chrome 115.0.0.0","2562x1332","2560x1325",NA,NA,NA,"JV Task P1 (Clone) (study_2)",22,"In","IJHAGBFCED","B (Feedback ranking_L1 First)","study_1 (JV and feedback_list_1)",NA,"In","SS1","SS1",3,"J","Judginess","w2ir4b",1,"continue","",1437,1431,1437,1437,1431,1437,1,1437,0,0,NA,"Click To Continue","Continue Button",1,"object-14","J","CFD-WF-036-023-H.jpeg",1,NA,NA,"SUPTM91602"
"18",1691078555430,"03/08/2023 16:02:35",1691082155430,1,"03/08/2023 18:02:35",139282,42,"task-ak18",NA,31037390,9203593,NA,"complete",NA,NA,"computer","Desktop or Laptop","Windows 10","Chrome 115.0.0.0","2562x1332","2560x1325",NA,NA,NA,"JV Task P1 (Clone) (study_2)",22,"In","IJHAGBFCED","B (Feedback ranking_L1 First)","study_1 (JV and feedback_list_1)",NA,"In","SS1","SS1",3,"J","Judginess","w2ir4b",1,"response","61",834,1431,1437,834,1431,1437,1,834,603,0,NA,"Slider","J",3,"object-18","J","CFD-WF-036-023-H.jpeg",1,NA,NA,"SUPTM91602"
"19",1691078556404,"03/08/2023 16:02:36",1691082156404,1,"03/08/2023 18:02:36",139282,42,"task-ak18",NA,31037390,9203593,NA,"complete",NA,NA,"computer","Desktop or Laptop","Windows 10","Chrome 115.0.0.0","2562x1332","2560x1325",NA,NA,NA,"JV Task P1 (Clone) (study_2)",22,"In","IJHAGBFCED","B (Feedback ranking_L1 First)","study_1 (JV and feedback_list_1)",NA,"In","SS1","SS1",3,"J","Fixation","mtm832",2,"continue","",979,979,979,979,979,979,1,979,0,0,NA,"Fixation Timing","Fixation",1,"object-65","J","CFD-WF-036-023-H.jpeg",1,NA,NA,"SUPTM91602"
"20",1691078557746,"03/08/2023 16:02:37",1691082157746,1,"03/08/2023 18:02:37",139282,42,"task-ak18",NA,31037390,9203593,NA,"complete",NA,NA,"computer","Desktop or Laptop","Windows 10","Chrome 115.0.0.0","2562x1332","2560x1325",NA,NA,NA,"JV Task P1 (Clone) (study_2)",22,"In","IJHAGBFCED","B (Feedback ranking_L1 First)","study_1 (JV and feedback_list_1)",NA,"In","SS1","SS1",4,"J","Judginess","w2ir4b",1,"continue","",1343,1341,1343,1343,1341,1343,1,1343,0,0,NA,"Click To Continue","Continue Button",1,"object-14","J","CFD-MF-309-002-S.jpeg",1,NA,NA,"SUPTM91602"
"21",1691078557746,"03/08/2023 16:02:37",1691082157746,1,"03/08/2023 18:02:37",139282,42,"task-ak18",NA,31037390,9203593,NA,"complete",NA,NA,"computer","Desktop or Laptop","Windows 10","Chrome 115.0.0.0","2562x1332","2560x1325",NA,NA,NA,"JV Task P1 (Clone) (study_2)",22,"In","IJHAGBFCED","B (Feedback ranking_L1 First)","study_1 (JV and feedback_list_1)",NA,"In","SS1","SS1",4,"J","Judginess","w2ir4b",1,"response","25",674,1341,1343,674,1341,1343,1,674,669,0,NA,"Slider","J",3,"object-18","J","CFD-MF-309-002-S.jpeg",1,NA,NA,"SUPTM91602"
"22",1691078558723,"03/08/2023 16:02:38",1691082158723,1,"03/08/2023 18:02:38",139282,42,"task-ak18",NA,31037390,9203593,NA,"complete",NA,NA,"computer","Desktop or Laptop","Windows 10","Chrome 115.0.0.0","2562x1332","2560x1325",NA,NA,NA,"JV Task P1 (Clone) (study_2)",22,"In","IJHAGBFCED","B (Feedback ranking_L1 First)","study_1 (JV and feedback_list_1)",NA,"In","SS1","SS1",4,"J","Fixation","mtm832",2,"continue","",979,979,979,979,979,979,1,979,0,0,NA,"Fixation Timing","Fixation",1,"object-65","J","CFD-MF-309-002-S.jpeg",1,NA,NA,"SUPTM91602"
"23",1691078560065,"03/08/2023 16:02:40",1691082160065,1,"03/08/2023 18:02:40",139282,42,"task-ak18",NA,31037390,9203593,NA,"complete",NA,NA,"computer","Desktop or Laptop","Windows 10","Chrome 115.0.0.0","2562x1332","2560x1325",NA,NA,NA,"JV Task P1 (Clone) (study_2)",22,"In","IJHAGBFCED","B (Feedback ranking_L1 First)","study_1 (JV and feedback_list_1)",NA,"In","SS1","SS1",3,"V","Valence","sn1sjn",1,"continue","",1342,1340,1342,1342,1340,1342,1,1342,0,0,NA,"Click To Continue","Continue Button",1,"object-25","V","CFD-IM-695-001-H.jpeg",1,NA,NA,"SUPTM91602"
"24",1691078560065,"03/08/2023 16:02:40",1691082160065,1,"03/08/2023 18:02:40",139282,42,"task-ak18",NA,31037390,9203593,NA,"complete",NA,NA,"computer","Desktop or Laptop","Windows 10","Chrome 115.0.0.0","2562x1332","2560x1325",NA,NA,NA,"JV Task P1 (Clone) (study_2)",22,"In","IJHAGBFCED","B (Feedback ranking_L1 First)","study_1 (JV and feedback_list_1)",NA,"In","SS1","SS1",3,"V","Valence","sn1sjn",1,"response","75",771,1340,1342,771,1340,1342,1,771,571,0,NA,"Slider","J",3,"object-27","V","CFD-IM-695-001-H.jpeg",1,NA,NA,"SUPTM91602"
"25",1691078561043,"03/08/2023 16:02:41",1691082161043,1,"03/08/2023 18:02:41",139282,42,"task-ak18",NA,31037390,9203593,NA,"complete",NA,NA,"computer","Desktop or Laptop","Windows 10","Chrome 115.0.0.0","2562x1332","2560x1325",NA,NA,NA,"JV Task P1 (Clone) (study_2)",22,"In","IJHAGBFCED","B (Feedback ranking_L1 First)","study_1 (JV and feedback_list_1)",NA,"In","SS1","SS1",3,"V","Fixation","aydkg3",2,"continue","",979,979,979,979,979,979,1,979,0,0,NA,"Fixation Timing","Fixation",1,"object-21","V","CFD-IM-695-001-H.jpeg",1,NA,NA,"SUPTM91602"
"26",1691078562926,"03/08/2023 16:02:42",1691082162926,1,"03/08/2023 18:02:42",139282,42,"task-ak18",NA,31037390,9203593,NA,"complete",NA,NA,"computer","Desktop or Laptop","Windows 10","Chrome 115.0.0.0","2562x1332","2560x1325",NA,NA,NA,"JV Task P1 (Clone) (study_2)",22,"In","IJHAGBFCED","B (Feedback ranking_L1 First)","study_1 (JV and feedback_list_1)",NA,"In","SS1","SS1",5,"J","Judginess","w2ir4b",1,"continue","",1883,1876,1883,1883,1876,1883,1,1883,0,0,NA,"Click To Continue","Continue Button",1,"object-14","J","CFD-WM-031-003-S.jpeg",1,NA,NA,"SUPTM91602"
"27",1691078562926,"03/08/2023 16:02:42",1691082162926,1,"03/08/2023 18:02:42",139282,42,"task-ak18",NA,31037390,9203593,NA,"complete",NA,NA,"computer","Desktop or Laptop","Windows 10","Chrome 115.0.0.0","2562x1332","2560x1325",NA,NA,NA,"JV Task P1 (Clone) (study_2)",22,"In","IJHAGBFCED","B (Feedback ranking_L1 First)","study_1 (JV and feedback_list_1)",NA,"In","SS1","SS1",5,"J","Judginess","w2ir4b",1,"response","12",660,1876,1883,660,1876,1883,1,660,1223,0,NA,"Slider","J",3,"object-18","J","CFD-WM-031-003-S.jpeg",1,NA,NA,"SUPTM91602"
"28",1691078563897,"03/08/2023 16:02:43",1691082163897,1,"03/08/2023 18:02:43",139282,42,"task-ak18",NA,31037390,9203593,NA,"complete",NA,NA,"computer","Desktop or Laptop","Windows 10","Chrome 115.0.0.0","2562x1332","2560x1325",NA,NA,NA,"JV Task P1 (Clone) (study_2)",22,"In","IJHAGBFCED","B (Feedback ranking_L1 First)","study_1 (JV and feedback_list_1)",NA,"In","SS1","SS1",5,"J","Fixation","mtm832",2,"continue","",979,979,979,979,979,979,1,979,0,0,NA,"Fixation Timing","Fixation",1,"object-65","J","CFD-WM-031-003-S.jpeg",1,NA,NA,"SUPTM91602"
"29",1691078565595,"03/08/2023 16:02:45",1691082165595,1,"03/08/2023 18:02:45",139282,42,"task-ak18",NA,31037390,9203593,NA,"complete",NA,NA,"computer","Desktop or Laptop","Windows 10","Chrome 115.0.0.0","2562x1332","2560x1325",NA,NA,NA,"JV Task P1 (Clone) (study_2)",22,"In","IJHAGBFCED","B (Feedback ranking_L1 First)","study_1 (JV and feedback_list_1)",NA,"In","SS1","SS1",6,"J","Judginess","w2ir4b",1,"continue","",1698,1694,1698,1698,1694,1698,1,1698,0,0,NA,"Click To Continue","Continue Button",1,"object-14","J","CFD-WM-037-025-H.jpeg",1,NA,NA,"SUPTM91602"
"30",1691078565595,"03/08/2023 16:02:45",1691082165595,1,"03/08/2023 18:02:45",139282,42,"task-ak18",NA,31037390,9203593,NA,"complete",NA,NA,"computer","Desktop or Laptop","Windows 10","Chrome 115.0.0.0","2562x1332","2560x1325",NA,NA,NA,"JV Task P1 (Clone) (study_2)",22,"In","IJHAGBFCED","B (Feedback ranking_L1 First)","study_1 (JV and feedback_list_1)",NA,"In","SS1","SS1",6,"J","Judginess","w2ir4b",1,"response","75",937,1694,1698,937,1694,1698,1,937,761,0,NA,"Slider","J",3,"object-18","J","CFD-WM-037-025-H.jpeg",1,NA,NA,"SUPTM91602"
"31",1691078566571,"03/08/2023 16:02:46",1691082166571,1,"03/08/2023 18:02:46",139282,42,"task-ak18",NA,31037390,9203593,NA,"complete",NA,NA,"computer","Desktop or Laptop","Windows 10","Chrome 115.0.0.0","2562x1332","2560x1325",NA,NA,NA,"JV Task P1 (Clone) (study_2)",22,"In","IJHAGBFCED","B (Feedback ranking_L1 First)","study_1 (JV and feedback_list_1)",NA,"In","SS1","SS1",6,"J","Fixation","mtm832",2,"continue","",980,980,980,980,980,980,1,980,0,0,NA,"Fixation Timing","Fixation",1,"object-65","J","CFD-WM-037-025-H.jpeg",1,NA,NA,"SUPTM91602"
"32",1691078568350,"03/08/2023 16:02:48",1691082168350,1,"03/08/2023 18:02:48",139282,42,"task-ak18",NA,31037390,9203593,NA,"complete",NA,NA,"computer","Desktop or Laptop","Windows 10","Chrome 115.0.0.0","2562x1332","2560x1325",NA,NA,NA,"JV Task P1 (Clone) (study_2)",22,"In","IJHAGBFCED","B (Feedback ranking_L1 First)","study_1 (JV and feedback_list_1)",NA,"In","SS1","SS1",4,"V","Valence","sn1sjn",1,"continue","",1779,1778,1779,1779,1778,1779,1,1779,0,0,NA,"Click To Continue","Continue Button",1,"object-25","V","CFD-WM-024-015-N.jpg",1,NA,NA,"SUPTM91602"
"33",1691078568350,"03/08/2023 16:02:48",1691082168350,1,"03/08/2023 18:02:48",139282,42,"task-ak18",NA,31037390,9203593,NA,"complete",NA,NA,"computer","Desktop or Laptop","Windows 10","Chrome 115.0.0.0","2562x1332","2560x1325",NA,NA,NA,"JV Task P1 (Clone) (study_2)",22,"In","IJHAGBFCED","B (Feedback ranking_L1 First)","study_1 (JV and feedback_list_1)",NA,"In","SS1","SS1",4,"V","Valence","sn1sjn",1,"response","46",1042,1778,1779,1042,1778,1779,1,1042,737,0,NA,"Slider","J",3,"object-27","V","CFD-WM-024-015-N.jpg",1,NA,NA,"SUPTM91602"
"34",1691078569328,"03/08/2023 16:02:49",1691082169328,1,"03/08/2023 18:02:49",139282,42,"task-ak18",NA,31037390,9203593,NA,"complete",NA,NA,"computer","Desktop or Laptop","Windows 10","Chrome 115.0.0.0","2562x1332","2560x1325",NA,NA,NA,"JV Task P1 (Clone) (study_2)",22,"In","IJHAGBFCED","B (Feedback ranking_L1 First)","study_1 (JV and feedback_list_1)",NA,"In","SS1","SS1",4,"V","Fixation","aydkg3",2,"continue","",979,979,979,979,979,979,1,979,0,0,NA,"Fixation Timing","Fixation",1,"object-21","V","CFD-WM-024-015-N.jpg",1,NA,NA,"SUPTM91602"
"35",1691078570780,"03/08/2023 16:02:50",1691082170780,1,"03/08/2023 18:02:50",139282,42,"task-ak18",NA,31037390,9203593,NA,"complete",NA,NA,"computer","Desktop or Laptop","Windows 10","Chrome 115.0.0.0","2562x1332","2560x1325",NA,NA,NA,"JV Task P1 (Clone) (study_2)",22,"In","IJHAGBFCED","B (Feedback ranking_L1 First)","study_1 (JV and feedback_list_1)",NA,"In","SS1","SS1",7,"J","Judginess","w2ir4b",1,"continue","",1450,1444,1450,1450,1444,1450,1,1450,0,0,NA,"Click To Continue","Continue Button",1,"object-14","J","CFD-IF-693-172-N.jpg",1,NA,NA,"SUPTM91602"
"36",1691078570780,"03/08/2023 16:02:50",1691082170780,1,"03/08/2023 18:02:50",139282,42,"task-ak18",NA,31037390,9203593,NA,"complete",NA,NA,"computer","Desktop or Laptop","Windows 10","Chrome 115.0.0.0","2562x1332","2560x1325",NA,NA,NA,"JV Task P1 (Clone) (study_2)",22,"In","IJHAGBFCED","B (Feedback ranking_L1 First)","study_1 (JV and feedback_list_1)",NA,"In","SS1","SS1",7,"J","Judginess","w2ir4b",1,"response","49",910,1444,1450,910,1444,1450,1,910,540,0,NA,"Slider","J",3,"object-18","J","CFD-IF-693-172-N.jpg",1,NA,NA,"SUPTM91602"
"37",1691078571752,"03/08/2023 16:02:51",1691082171752,1,"03/08/2023 18:02:51",139282,42,"task-ak18",NA,31037390,9203593,NA,"complete",NA,NA,"computer","Desktop or Laptop","Windows 10","Chrome 115.0.0.0","2562x1332","2560x1325",NA,NA,NA,"JV Task P1 (Clone) (study_2)",22,"In","IJHAGBFCED","B (Feedback ranking_L1 First)","study_1 (JV and feedback_list_1)",NA,"In","SS1","SS1",7,"J","Fixation","mtm832",2,"continue","",980,980,980,980,980,980,1,980,0,0,NA,"Fixation Timing","Fixation",1,"object-65","J","CFD-IF-693-172-N.jpg",1,NA,NA,"SUPTM91602"
"38",1691078573346,"03/08/2023 16:02:53",1691082173346,1,"03/08/2023 18:02:53",139282,42,"task-ak18",NA,31037390,9203593,NA,"complete",NA,NA,"computer","Desktop or Laptop","Windows 10","Chrome 115.0.0.0","2562x1332","2560x1325",NA,NA,NA,"JV Task P1 (Clone) (study_2)",22,"In","IJHAGBFCED","B (Feedback ranking_L1 First)","study_1 (JV and feedback_list_1)",NA,"In","SS1","SS1",8,"J","Judginess","w2ir4b",1,"continue","",1594,1590,1594,1594,1590,1594,1,1594,0,0,NA,"Click To Continue","Continue Button",1,"object-14","J","CFD-WM-037-025-S.jpeg",1,NA,NA,"SUPTM91602"
"39",1691078573346,"03/08/2023 16:02:53",1691082173346,1,"03/08/2023 18:02:53",139282,42,"task-ak18",NA,31037390,9203593,NA,"complete",NA,NA,"computer","Desktop or Laptop","Windows 10","Chrome 115.0.0.0","2562x1332","2560x1325",NA,NA,NA,"JV Task P1 (Clone) (study_2)",22,"In","IJHAGBFCED","B (Feedback ranking_L1 First)","study_1 (JV and feedback_list_1)",NA,"In","SS1","SS1",8,"J","Judginess","w2ir4b",1,"response","37",1007,1590,1594,1007,1590,1594,1,1007,587,0,NA,"Slider","J",3,"object-18","J","CFD-WM-037-025-S.jpeg",1,NA,NA,"SUPTM91602"
"40",1691078574323,"03/08/2023 16:02:54",1691082174323,1,"03/08/2023 18:02:54",139282,42,"task-ak18",NA,31037390,9203593,NA,"complete",NA,NA,"computer","Desktop or Laptop","Windows 10","Chrome 115.0.0.0","2562x1332","2560x1325",NA,NA,NA,"JV Task P1 (Clone) (study_2)",22,"In","IJHAGBFCED","B (Feedback ranking_L1 First)","study_1 (JV and feedback_list_1)",NA,"In","SS1","SS1",8,"J","Fixation","mtm832",2,"continue","",979,979,979,979,979,979,1,979,0,0,NA,"Fixation Timing","Fixation",1,"object-65","J","CFD-WM-037-025-S.jpeg",1,NA,NA,"SUPTM91602"
"41",1691078576791,"03/08/2023 16:02:56",1691082176791,1,"03/08/2023 18:02:56",139282,42,"task-ak18",NA,31037390,9203593,NA,"complete",NA,NA,"computer","Desktop or Laptop","Windows 10","Chrome 115.0.0.0","2562x1332","2560x1325",NA,NA,NA,"JV Task P1 (Clone) (study_2)",22,"In","IJHAGBFCED","B (Feedback ranking_L1 First)","study_1 (JV and feedback_list_1)",NA,"In","SS1","SS1",5,"V","Valence","sn1sjn",1,"continue","",2469,2466,2469,2469,2466,2469,1,2469,0,0,NA,"Click To Continue","Continue Button",1,"object-25","V","CFD-AF-233-190-N.jpg",1,NA,NA,"SUPTM91602"
"42",1691078576791,"03/08/2023 16:02:56",1691082176791,1,"03/08/2023 18:02:56",139282,42,"task-ak18",NA,31037390,9203593,NA,"complete",NA,NA,"computer","Desktop or Laptop","Windows 10","Chrome 115.0.0.0","2562x1332","2560x1325",NA,NA,NA,"JV Task P1 (Clone) (study_2)",22,"In","IJHAGBFCED","B (Feedback ranking_L1 First)","study_1 (JV and feedback_list_1)",NA,"In","SS1","SS1",5,"V","Valence","sn1sjn",1,"response","49",896,2466,2469,896,2466,2469,1,896,1573,0,NA,"Slider","J",3,"object-27","V","CFD-AF-233-190-N.jpg",1,NA,NA,"SUPTM91602"
"43",1691078577767,"03/08/2023 16:02:57",1691082177767,1,"03/08/2023 18:02:57",139282,42,"task-ak18",NA,31037390,9203593,NA,"complete",NA,NA,"computer","Desktop or Laptop","Windows 10","Chrome 115.0.0.0","2562x1332","2560x1325",NA,NA,NA,"JV Task P1 (Clone) (study_2)",22,"In","IJHAGBFCED","B (Feedback ranking_L1 First)","study_1 (JV and feedback_list_1)",NA,"In","SS1","SS1",5,"V","Fixation","aydkg3",2,"continue","",979,979,979,979,979,979,1,979,0,0,NA,"Fixation Timing","Fixation",1,"object-21","V","CFD-AF-233-190-N.jpg",1,NA,NA,"SUPTM91602"
"44",1691078579141,"03/08/2023 16:02:59",1691082179141,1,"03/08/2023 18:02:59",139282,42,"task-ak18",NA,31037390,9203593,NA,"complete",NA,NA,"computer","Desktop or Laptop","Windows 10","Chrome 115.0.0.0","2562x1332","2560x1325",NA,NA,NA,"JV Task P1 (Clone) (study_2)",22,"In","IJHAGBFCED","B (Feedback ranking_L1 First)","study_1 (JV and feedback_list_1)",NA,"In","SS1","SS1",9,"J","Judginess","w2ir4b",1,"continue","",1374,1368,1374,1374,1368,1374,1,1374,0,0,NA,"Click To Continue","Continue Button",1,"object-14","J","CFD-WM-031-003-H.jpeg",1,NA,NA,"SUPTM91602"
"45",1691078579141,"03/08/2023 16:02:59",1691082179141,1,"03/08/2023 18:02:59",139282,42,"task-ak18",NA,31037390,9203593,NA,"complete",NA,NA,"computer","Desktop or Laptop","Windows 10","Chrome 115.0.0.0","2562x1332","2560x1325",NA,NA,NA,"JV Task P1 (Clone) (study_2)",22,"In","IJHAGBFCED","B (Feedback ranking_L1 First)","study_1 (JV and feedback_list_1)",NA,"In","SS1","SS1",9,"J","Judginess","w2ir4b",1,"response","66",771,1368,1375,771,1368,1375,1,771,604,0,NA,"Slider","J",3,"object-18","J","CFD-WM-031-003-H.jpeg",1,NA,NA,"SUPTM91602"
"46",1691078580115,"03/08/2023 16:03:00",1691082180115,1,"03/08/2023 18:03:00",139282,42,"task-ak18",NA,31037390,9203593,NA,"complete",NA,NA,"computer","Desktop or Laptop","Windows 10","Chrome 115.0.0.0","2562x1332","2560x1325",NA,NA,NA,"JV Task P1 (Clone) (study_2)",22,"In","IJHAGBFCED","B (Feedback ranking_L1 First)","study_1 (JV and feedback_list_1)",NA,"In","SS1","SS1",9,"J","Fixation","mtm832",2,"continue","",980,980,980,980,980,980,1,980,0,0,NA,"Fixation Timing","Fixation",1,"object-65","J","CFD-WM-031-003-H.jpeg",1,NA,NA,"SUPTM91602"
"47",1691078581387,"03/08/2023 16:03:01",1691082181387,1,"03/08/2023 18:03:01",139282,42,"task-ak18",NA,31037390,9203593,NA,"complete",NA,NA,"computer","Desktop or Laptop","Windows 10","Chrome 115.0.0.0","2562x1332","2560x1325",NA,NA,NA,"JV Task P1 (Clone) (study_2)",22,"In","IJHAGBFCED","B (Feedback ranking_L1 First)","study_1 (JV and feedback_list_1)",NA,"In","SS1","SS1",10,"J","Judginess","w2ir4b",1,"continue","",1273,1271,1273,1273,1271,1273,1,1273,0,0,NA,"Click To Continue","Continue Button",1,"object-14","J","CFD-AM-223-138-N.jpg",1,NA,NA,"SUPTM91602"
"48",1691078581387,"03/08/2023 16:03:01",1691082181387,1,"03/08/2023 18:03:01",139282,42,"task-ak18",NA,31037390,9203593,NA,"complete",NA,NA,"computer","Desktop or Laptop","Windows 10","Chrome 115.0.0.0","2562x1332","2560x1325",NA,NA,NA,"JV Task P1 (Clone) (study_2)",22,"In","IJHAGBFCED","B (Feedback ranking_L1 First)","study_1 (JV and feedback_list_1)",NA,"In","SS1","SS1",10,"J","Judginess","w2ir4b",1,"response","35",680,1271,1273,680,1271,1273,1,680,593,0,NA,"Slider","J",3,"object-18","J","CFD-AM-223-138-N.jpg",1,NA,NA,"SUPTM91602"
"49",1691078582365,"03/08/2023 16:03:02",1691082182365,1,"03/08/2023 18:03:02",139282,42,"task-ak18",NA,31037390,9203593,NA,"complete",NA,NA,"computer","Desktop or Laptop","Windows 10","Chrome 115.0.0.0","2562x1332","2560x1325",NA,NA,NA,"JV Task P1 (Clone) (study_2)",22,"In","IJHAGBFCED","B (Feedback ranking_L1 First)","study_1 (JV and feedback_list_1)",NA,"In","SS1","SS1",10,"J","Fixation","mtm832",2,"continue","",979,979,979,979,979,979,1,979,0,0,NA,"Fixation Timing","Fixation",1,"object-65","J","CFD-AM-223-138-N.jpg",1,NA,NA,"SUPTM91602"
"50",1691078583823,"03/08/2023 16:03:03",1691082183823,1,"03/08/2023 18:03:03",139282,42,"task-ak18",NA,31037390,9203593,NA,"complete",NA,NA,"computer","Desktop or Laptop","Windows 10","Chrome 115.0.0.0","2562x1332","2560x1325",NA,NA,NA,"JV Task P1 (Clone) (study_2)",22,"In","IJHAGBFCED","B (Feedback ranking_L1 First)","study_1 (JV and feedback_list_1)",NA,"In","SS1","SS1",11,"J","Judginess","w2ir4b",1,"continue","",1458,1451,1458,1458,1451,1458,1,1458,0,0,NA,"Click To Continue","Continue Button",1,"object-14","J","CFD-IF-734-108-S.jpeg",1,NA,NA,"SUPTM91602"
"51",1691078583823,"03/08/2023 16:03:03",1691082183823,1,"03/08/2023 18:03:03",139282,42,"task-ak18",NA,31037390,9203593,NA,"complete",NA,NA,"computer","Desktop or Laptop","Windows 10","Chrome 115.0.0.0","2562x1332","2560x1325",NA,NA,NA,"JV Task P1 (Clone) (study_2)",22,"In","IJHAGBFCED","B (Feedback ranking_L1 First)","study_1 (JV and feedback_list_1)",NA,"In","SS1","SS1",11,"J","Judginess","w2ir4b",1,"response","30",708,1451,1458,708,1451,1458,1,708,750,0,NA,"Slider","J",3,"object-18","J","CFD-IF-734-108-S.jpeg",1,NA,NA,"SUPTM91602"
"52",1691078584796,"03/08/2023 16:03:04",1691082184796,1,"03/08/2023 18:03:04",139282,42,"task-ak18",NA,31037390,9203593,NA,"complete",NA,NA,"computer","Desktop or Laptop","Windows 10","Chrome 115.0.0.0","2562x1332","2560x1325",NA,NA,NA,"JV Task P1 (Clone) (study_2)",22,"In","IJHAGBFCED","B (Feedback ranking_L1 First)","study_1 (JV and feedback_list_1)",NA,"In","SS1","SS1",11,"J","Fixation","mtm832",2,"continue","",980,980,980,980,980,980,1,980,0,0,NA,"Fixation Timing","Fixation",1,"object-65","J","CFD-IF-734-108-S.jpeg",1,NA,NA,"SUPTM91602"
"53",1691078586818,"03/08/2023 16:03:06",1691082186818,1,"03/08/2023 18:03:06",139282,42,"task-ak18",NA,31037390,9203593,NA,"complete",NA,NA,"computer","Desktop or Laptop","Windows 10","Chrome 115.0.0.0","2562x1332","2560x1325",NA,NA,NA,"JV Task P1 (Clone) (study_2)",22,"In","IJHAGBFCED","B (Feedback ranking_L1 First)","study_1 (JV and feedback_list_1)",NA,"In","SS1","SS1",12,"J","Judginess","w2ir4b",1,"continue","",2023,2021,2023,2023,2021,2023,1,2023,0,0,NA,"Click To Continue","Continue Button",1,"object-14","J","CFD-MM-308-001-S.jpeg",1,NA,NA,"SUPTM91602"
"54",1691078586818,"03/08/2023 16:03:06",1691082186818,1,"03/08/2023 18:03:06",139282,42,"task-ak18",NA,31037390,9203593,NA,"complete",NA,NA,"computer","Desktop or Laptop","Windows 10","Chrome 115.0.0.0","2562x1332","2560x1325",NA,NA,NA,"JV Task P1 (Clone) (study_2)",22,"In","IJHAGBFCED","B (Feedback ranking_L1 First)","study_1 (JV and feedback_list_1)",NA,"In","SS1","SS1",12,"J","Judginess","w2ir4b",1,"response","17",854,2021,2023,854,2021,2023,1,854,1169,0,NA,"Slider","J",3,"object-18","J","CFD-MM-308-001-S.jpeg",1,NA,NA,"SUPTM91602"
"55",1691078587796,"03/08/2023 16:03:07",1691082187796,1,"03/08/2023 18:03:07",139282,42,"task-ak18",NA,31037390,9203593,NA,"complete",NA,NA,"computer","Desktop or Laptop","Windows 10","Chrome 115.0.0.0","2562x1332","2560x1325",NA,NA,NA,"JV Task P1 (Clone) (study_2)",22,"In","IJHAGBFCED","B (Feedback ranking_L1 First)","study_1 (JV and feedback_list_1)",NA,"In","SS1","SS1",12,"J","Fixation","mtm832",2,"continue","",979,979,979,979,979,979,1,979,0,0,NA,"Fixation Timing","Fixation",1,"object-65","J","CFD-MM-308-001-S.jpeg",1,NA,NA,"SUPTM91602"
"56",1691078589209,"03/08/2023 16:03:09",1691082189209,1,"03/08/2023 18:03:09",139282,42,"task-ak18",NA,31037390,9203593,NA,"complete",NA,NA,"computer","Desktop or Laptop","Windows 10","Chrome 115.0.0.0","2562x1332","2560x1325",NA,NA,NA,"JV Task P1 (Clone) (study_2)",22,"In","IJHAGBFCED","B (Feedback ranking_L1 First)","study_1 (JV and feedback_list_1)",NA,"In","SS1","SS1",6,"V","Valence","sn1sjn",1,"continue","",1413,1410,1413,1413,1410,1413,1,1413,0,0,NA,"Click To Continue","Continue Button",1,"object-25","V","CFD-WF-022-017-S.jpeg",1,NA,NA,"SUPTM91602"
"57",1691078589209,"03/08/2023 16:03:09",1691082189209,1,"03/08/2023 18:03:09",139282,42,"task-ak18",NA,31037390,9203593,NA,"complete",NA,NA,"computer","Desktop or Laptop","Windows 10","Chrome 115.0.0.0","2562x1332","2560x1325",NA,NA,NA,"JV Task P1 (Clone) (study_2)",22,"In","IJHAGBFCED","B (Feedback ranking_L1 First)","study_1 (JV and feedback_list_1)",NA,"In","SS1","SS1",6,"V","Valence","sn1sjn",1,"response","39",840,1410,1413,840,1410,1413,1,840,573,0,NA,"Slider","J",3,"object-27","V","CFD-WF-022-017-S.jpeg",1,NA,NA,"SUPTM91602"
"58",1691078590185,"03/08/2023 16:03:10",1691082190185,1,"03/08/2023 18:03:10",139282,42,"task-ak18",NA,31037390,9203593,NA,"complete",NA,NA,"computer","Desktop or Laptop","Windows 10","Chrome 115.0.0.0","2562x1332","2560x1325",NA,NA,NA,"JV Task P1 (Clone) (study_2)",22,"In","IJHAGBFCED","B (Feedback ranking_L1 First)","study_1 (JV and feedback_list_1)",NA,"In","SS1","SS1",6,"V","Fixation","aydkg3",2,"continue","",979,979,979,979,979,979,1,979,0,0,NA,"Fixation Timing","Fixation",1,"object-21","V","CFD-WF-022-017-S.jpeg",1,NA,NA,"SUPTM91602"
"59",1691078592902,"03/08/2023 16:03:12",1691082192902,1,"03/08/2023 18:03:12",139282,42,"task-ak18",NA,31037390,9203593,NA,"complete",NA,NA,"computer","Desktop or Laptop","Windows 10","Chrome 115.0.0.0","2562x1332","2560x1325",NA,NA,NA,"JV Task P1 (Clone) (study_2)",22,"In","IJHAGBFCED","B (Feedback ranking_L1 First)","study_1 (JV and feedback_list_1)",NA,"In","SS1","SS1",13,"J","Judginess","w2ir4b",1,"continue","",2717,2715,2717,2717,2715,2717,1,2717,0,0,NA,"Click To Continue","Continue Button",1,"object-14","J","CFD-WM-019-003-N.jpg",1,NA,NA,"SUPTM91602"
"60",1691078592904,"03/08/2023 16:03:12",1691082192904,1,"03/08/2023 18:03:12",139282,42,"task-ak18",NA,31037390,9203593,NA,"complete",NA,NA,"computer","Desktop or Laptop","Windows 10","Chrome 115.0.0.0","2562x1332","2560x1325",NA,NA,NA,"JV Task P1 (Clone) (study_2)",22,"In","IJHAGBFCED","B (Feedback ranking_L1 First)","study_1 (JV and feedback_list_1)",NA,"In","SS1","SS1",13,"J","Judginess","w2ir4b",1,"response","31",875,2715,2719,875,2715,2719,1,875,1844,0,NA,"Slider","J",3,"object-18","J","CFD-WM-019-003-N.jpg",1,NA,NA,"SUPTM91602"
"61",1691078593880,"03/08/2023 16:03:13",1691082193880,1,"03/08/2023 18:03:13",139282,42,"task-ak18",NA,31037390,9203593,NA,"complete",NA,NA,"computer","Desktop or Laptop","Windows 10","Chrome 115.0.0.0","2562x1332","2560x1325",NA,NA,NA,"JV Task P1 (Clone) (study_2)",22,"In","IJHAGBFCED","B (Feedback ranking_L1 First)","study_1 (JV and feedback_list_1)",NA,"In","SS1","SS1",13,"J","Fixation","mtm832",2,"continue","",980,980,980,980,980,980,1,980,0,0,NA,"Fixation Timing","Fixation",1,"object-65","J","CFD-WM-019-003-N.jpg",1,NA,NA,"SUPTM91602"
"62",1691078595347,"03/08/2023 16:03:15",1691082195347,1,"03/08/2023 18:03:15",139282,42,"task-ak18",NA,31037390,9203593,NA,"complete",NA,NA,"computer","Desktop or Laptop","Windows 10","Chrome 115.0.0.0","2562x1332","2560x1325",NA,NA,NA,"JV Task P1 (Clone) (study_2)",22,"In","IJHAGBFCED","B (Feedback ranking_L1 First)","study_1 (JV and feedback_list_1)",NA,"In","SS1","SS1",14,"J","Judginess","w2ir4b",1,"continue","",1466,1465,1466,1466,1465,1466,1,1466,0,0,NA,"Click To Continue","Continue Button",1,"object-14","J","CFD-BF-030-002-H.jpeg",1,NA,NA,"SUPTM91602"
"63",1691078595347,"03/08/2023 16:03:15",1691082195347,1,"03/08/2023 18:03:15",139282,42,"task-ak18",NA,31037390,9203593,NA,"complete",NA,NA,"computer","Desktop or Laptop","Windows 10","Chrome 115.0.0.0","2562x1332","2560x1325",NA,NA,NA,"JV Task P1 (Clone) (study_2)",22,"In","IJHAGBFCED","B (Feedback ranking_L1 First)","study_1 (JV and feedback_list_1)",NA,"In","SS1","SS1",14,"J","Judginess","w2ir4b",1,"response","75",646,1465,1467,646,1465,1467,1,646,821,0,NA,"Slider","J",3,"object-18","J","CFD-BF-030-002-H.jpeg",1,NA,NA,"SUPTM91602"
"64",1691078596324,"03/08/2023 16:03:16",1691082196324,1,"03/08/2023 18:03:16",139282,42,"task-ak18",NA,31037390,9203593,NA,"complete",NA,NA,"computer","Desktop or Laptop","Windows 10","Chrome 115.0.0.0","2562x1332","2560x1325",NA,NA,NA,"JV Task P1 (Clone) (study_2)",22,"In","IJHAGBFCED","B (Feedback ranking_L1 First)","study_1 (JV and feedback_list_1)",NA,"In","SS1","SS1",14,"J","Fixation","mtm832",2,"continue","",979,979,979,979,979,979,1,979,0,0,NA,"Fixation Timing","Fixation",1,"object-65","J","CFD-BF-030-002-H.jpeg",1,NA,NA,"SUPTM91602"
"65",1691078597660,"03/08/2023 16:03:17",1691082197660,1,"03/08/2023 18:03:17",139282,42,"task-ak18",NA,31037390,9203593,NA,"complete",NA,NA,"computer","Desktop or Laptop","Windows 10","Chrome 115.0.0.0","2562x1332","2560x1325",NA,NA,NA,"JV Task P1 (Clone) (study_2)",22,"In","IJHAGBFCED","B (Feedback ranking_L1 First)","study_1 (JV and feedback_list_1)",NA,"In","SS1","SS1",7,"V","Valence","sn1sjn",1,"continue","",1336,1334,1336,1336,1334,1336,1,1336,0,0,NA,"Click To Continue","Continue Button",1,"object-25","V","CFD-BM-028-002-N.jpg",1,NA,NA,"SUPTM91602"
"66",1691078597660,"03/08/2023 16:03:17",1691082197660,1,"03/08/2023 18:03:17",139282,42,"task-ak18",NA,31037390,9203593,NA,"complete",NA,NA,"computer","Desktop or Laptop","Windows 10","Chrome 115.0.0.0","2562x1332","2560x1325",NA,NA,NA,"JV Task P1 (Clone) (study_2)",22,"In","IJHAGBFCED","B (Feedback ranking_L1 First)","study_1 (JV and feedback_list_1)",NA,"In","SS1","SS1",7,"V","Valence","sn1sjn",1,"response","29",674,1334,1336,674,1334,1336,1,674,662,0,NA,"Slider","J",3,"object-27","V","CFD-BM-028-002-N.jpg",1,NA,NA,"SUPTM91602"
"67",1691078598637,"03/08/2023 16:03:18",1691082198637,1,"03/08/2023 18:03:18",139282,42,"task-ak18",NA,31037390,9203593,NA,"complete",NA,NA,"computer","Desktop or Laptop","Windows 10","Chrome 115.0.0.0","2562x1332","2560x1325",NA,NA,NA,"JV Task P1 (Clone) (study_2)",22,"In","IJHAGBFCED","B (Feedback ranking_L1 First)","study_1 (JV and feedback_list_1)",NA,"In","SS1","SS1",7,"V","Fixation","aydkg3",2,"continue","",979,979,979,979,979,979,1,979,0,0,NA,"Fixation Timing","Fixation",1,"object-21","V","CFD-BM-028-002-N.jpg",1,NA,NA,"SUPTM91602"
"68",1691078600232,"03/08/2023 16:03:20",1691082200232,1,"03/08/2023 18:03:20",139282,42,"task-ak18",NA,31037390,9203593,NA,"complete",NA,NA,"computer","Desktop or Laptop","Windows 10","Chrome 115.0.0.0","2562x1332","2560x1325",NA,NA,NA,"JV Task P1 (Clone) (study_2)",22,"In","IJHAGBFCED","B (Feedback ranking_L1 First)","study_1 (JV and feedback_list_1)",NA,"In","SS1","SS1",8,"V","Valence","sn1sjn",1,"continue","",1595,1590,1595,1595,1590,1595,1,1595,0,0,NA,"Click To Continue","Continue Button",1,"object-25","V","CFD-WM-026-001-H.jpeg",1,NA,NA,"SUPTM91602"
"69",1691078600233,"03/08/2023 16:03:20",1691082200233,1,"03/08/2023 18:03:20",139282,42,"task-ak18",NA,31037390,9203593,NA,"complete",NA,NA,"computer","Desktop or Laptop","Windows 10","Chrome 115.0.0.0","2562x1332","2560x1325",NA,NA,NA,"JV Task P1 (Clone) (study_2)",22,"In","IJHAGBFCED","B (Feedback ranking_L1 First)","study_1 (JV and feedback_list_1)",NA,"In","SS1","SS1",8,"V","Valence","sn1sjn",1,"response","64",667,1590,1596,667,1590,1596,1,667,929,0,NA,"Slider","J",3,"object-27","V","CFD-WM-026-001-H.jpeg",1,NA,NA,"SUPTM91602"
"70",1691078601207,"03/08/2023 16:03:21",1691082201207,1,"03/08/2023 18:03:21",139282,42,"task-ak18",NA,31037390,9203593,NA,"complete",NA,NA,"computer","Desktop or Laptop","Windows 10","Chrome 115.0.0.0","2562x1332","2560x1325",NA,NA,NA,"JV Task P1 (Clone) (study_2)",22,"In","IJHAGBFCED","B (Feedback ranking_L1 First)","study_1 (JV and feedback_list_1)",NA,"In","SS1","SS1",8,"V","Fixation","aydkg3",2,"continue","",980,980,980,980,980,980,1,980,0,0,NA,"Fixation Timing","Fixation",1,"object-21","V","CFD-WM-026-001-H.jpeg",1,NA,NA,"SUPTM91602"
"71",1691078602496,"03/08/2023 16:03:22",1691082202496,1,"03/08/2023 18:03:22",139282,42,"task-ak18",NA,31037390,9203593,NA,"complete",NA,NA,"computer","Desktop or Laptop","Windows 10","Chrome 115.0.0.0","2562x1332","2560x1325",NA,NA,NA,"JV Task P1 (Clone) (study_2)",22,"In","IJHAGBFCED","B (Feedback ranking_L1 First)","study_1 (JV and feedback_list_1)",NA,"In","SS1","SS1",9,"V","Valence","sn1sjn",1,"continue","",1288,1284,1288,1288,1284,1288,1,1288,0,0,NA,"Click To Continue","Continue Button",1,"object-25","V","CFD-WM-028-003-H.jpeg",1,NA,NA,"SUPTM91602"
"72",1691078602496,"03/08/2023 16:03:22",1691082202496,1,"03/08/2023 18:03:22",139282,42,"task-ak18",NA,31037390,9203593,NA,"complete",NA,NA,"computer","Desktop or Laptop","Windows 10","Chrome 115.0.0.0","2562x1332","2560x1325",NA,NA,NA,"JV Task P1 (Clone) (study_2)",22,"In","IJHAGBFCED","B (Feedback ranking_L1 First)","study_1 (JV and feedback_list_1)",NA,"In","SS1","SS1",9,"V","Valence","sn1sjn",1,"response","75",673,1284,1289,673,1284,1289,1,673,616,0,NA,"Slider","J",3,"object-27","V","CFD-WM-028-003-H.jpeg",1,NA,NA,"SUPTM91602"
"73",1691078603471,"03/08/2023 16:03:23",1691082203471,1,"03/08/2023 18:03:23",139282,42,"task-ak18",NA,31037390,9203593,NA,"complete",NA,NA,"computer","Desktop or Laptop","Windows 10","Chrome 115.0.0.0","2562x1332","2560x1325",NA,NA,NA,"JV Task P1 (Clone) (study_2)",22,"In","IJHAGBFCED","B (Feedback ranking_L1 First)","study_1 (JV and feedback_list_1)",NA,"In","SS1","SS1",9,"V","Fixation","aydkg3",2,"continue","",980,980,980,980,980,980,1,980,0,0,NA,"Fixation Timing","Fixation",1,"object-21","V","CFD-WM-028-003-H.jpeg",1,NA,NA,"SUPTM91602"
"74",1691078604699,"03/08/2023 16:03:24",1691082204699,1,"03/08/2023 18:03:24",139282,42,"task-ak18",NA,31037390,9203593,NA,"complete",NA,NA,"computer","Desktop or Laptop","Windows 10","Chrome 115.0.0.0","2562x1332","2560x1325",NA,NA,NA,"JV Task P1 (Clone) (study_2)",22,"In","IJHAGBFCED","B (Feedback ranking_L1 First)","study_1 (JV and feedback_list_1)",NA,"In","SS1","SS1",10,"V","Valence","sn1sjn",1,"continue","",1228,1222,1228,1228,1222,1228,1,1228,0,0,NA,"Click To Continue","Continue Button",1,"object-25","V","CFD-WF-011-002-H.jpeg",1,NA,NA,"SUPTM91602"
"75",1691078604699,"03/08/2023 16:03:24",1691082204699,1,"03/08/2023 18:03:24",139282,42,"task-ak18",NA,31037390,9203593,NA,"complete",NA,NA,"computer","Desktop or Laptop","Windows 10","Chrome 115.0.0.0","2562x1332","2560x1325",NA,NA,NA,"JV Task P1 (Clone) (study_2)",22,"In","IJHAGBFCED","B (Feedback ranking_L1 First)","study_1 (JV and feedback_list_1)",NA,"In","SS1","SS1",10,"V","Valence","sn1sjn",1,"response","75",562,1222,1228,562,1222,1228,1,562,666,0,NA,"Slider","J",3,"object-27","V","CFD-WF-011-002-H.jpeg",1,NA,NA,"SUPTM91602"
"76",1691078605672,"03/08/2023 16:03:25",1691082205672,1,"03/08/2023 18:03:25",139282,42,"task-ak18",NA,31037390,9203593,NA,"complete",NA,NA,"computer","Desktop or Laptop","Windows 10","Chrome 115.0.0.0","2562x1332","2560x1325",NA,NA,NA,"JV Task P1 (Clone) (study_2)",22,"In","IJHAGBFCED","B (Feedback ranking_L1 First)","study_1 (JV and feedback_list_1)",NA,"In","SS1","SS1",10,"V","Fixation","aydkg3",2,"continue","",979,979,979,979,979,979,1,979,0,0,NA,"Fixation Timing","Fixation",1,"object-21","V","CFD-WF-011-002-H.jpeg",1,NA,NA,"SUPTM91602"
"77",1691078606933,"03/08/2023 16:03:26",1691082206933,1,"03/08/2023 18:03:26",139282,42,"task-ak18",NA,31037390,9203593,NA,"complete",NA,NA,"computer","Desktop or Laptop","Windows 10","Chrome 115.0.0.0","2562x1332","2560x1325",NA,NA,NA,"JV Task P1 (Clone) (study_2)",22,"In","IJHAGBFCED","B (Feedback ranking_L1 First)","study_1 (JV and feedback_list_1)",NA,"In","SS1","SS1",15,"J","Judginess","w2ir4b",1,"continue","",1261,1257,1261,1261,1257,1261,1,1261,0,0,NA,"Click To Continue","Continue Button",1,"object-14","J","CFD-BF-040-003-H.jpeg",1,NA,NA,"SUPTM91602"
"78",1691078606933,"03/08/2023 16:03:26",1691082206933,1,"03/08/2023 18:03:26",139282,42,"task-ak18",NA,31037390,9203593,NA,"complete",NA,NA,"computer","Desktop or Laptop","Windows 10","Chrome 115.0.0.0","2562x1332","2560x1325",NA,NA,NA,"JV Task P1 (Clone) (study_2)",22,"In","IJHAGBFCED","B (Feedback ranking_L1 First)","study_1 (JV and feedback_list_1)",NA,"In","SS1","SS1",15,"J","Judginess","w2ir4b",1,"response","80",584,1257,1261,584,1257,1261,1,584,677,0,NA,"Slider","J",3,"object-18","J","CFD-BF-040-003-H.jpeg",1,NA,NA,"SUPTM91602"
"79",1691078607909,"03/08/2023 16:03:27",1691082207909,1,"03/08/2023 18:03:27",139282,42,"task-ak18",NA,31037390,9203593,NA,"complete",NA,NA,"computer","Desktop or Laptop","Windows 10","Chrome 115.0.0.0","2562x1332","2560x1325",NA,NA,NA,"JV Task P1 (Clone) (study_2)",22,"In","IJHAGBFCED","B (Feedback ranking_L1 First)","study_1 (JV and feedback_list_1)",NA,"In","SS1","SS1",15,"J","Fixation","mtm832",2,"continue","",980,980,980,980,980,980,1,980,0,0,NA,"Fixation Timing","Fixation",1,"object-65","J","CFD-BF-040-003-H.jpeg",1,NA,NA,"SUPTM91602"
"80",1691078609339,"03/08/2023 16:03:29",1691082209339,1,"03/08/2023 18:03:29",139282,42,"task-ak18",NA,31037390,9203593,NA,"complete",NA,NA,"computer","Desktop or Laptop","Windows 10","Chrome 115.0.0.0","2562x1332","2560x1325",NA,NA,NA,"JV Task P1 (Clone) (study_2)",22,"In","IJHAGBFCED","B (Feedback ranking_L1 First)","study_1 (JV and feedback_list_1)",NA,"In","SS1","SS1",16,"J","Judginess","w2ir4b",1,"continue","",1429,1423,1429,1429,1423,1429,1,1429,0,0,NA,"Click To Continue","Continue Button",1,"object-14","J","CFD-WM-026-001-N.jpg",1,NA,NA,"SUPTM91602"
"81",1691078609339,"03/08/2023 16:03:29",1691082209339,1,"03/08/2023 18:03:29",139282,42,"task-ak18",NA,31037390,9203593,NA,"complete",NA,NA,"computer","Desktop or Laptop","Windows 10","Chrome 115.0.0.0","2562x1332","2560x1325",NA,NA,NA,"JV Task P1 (Clone) (study_2)",22,"In","IJHAGBFCED","B (Feedback ranking_L1 First)","study_1 (JV and feedback_list_1)",NA,"In","SS1","SS1",16,"J","Judginess","w2ir4b",1,"response","28",652,1423,1429,652,1423,1429,1,652,777,0,NA,"Slider","J",3,"object-18","J","CFD-WM-026-001-N.jpg",1,NA,NA,"SUPTM91602"
"82",1691078610312,"03/08/2023 16:03:30",1691082210312,1,"03/08/2023 18:03:30",139282,42,"task-ak18",NA,31037390,9203593,NA,"complete",NA,NA,"computer","Desktop or Laptop","Windows 10","Chrome 115.0.0.0","2562x1332","2560x1325",NA,NA,NA,"JV Task P1 (Clone) (study_2)",22,"In","IJHAGBFCED","B (Feedback ranking_L1 First)","study_1 (JV and feedback_list_1)",NA,"In","SS1","SS1",16,"J","Fixation","mtm832",2,"continue","",980,980,980,980,980,980,1,980,0,0,NA,"Fixation Timing","Fixation",1,"object-65","J","CFD-WM-026-001-N.jpg",1,NA,NA,"SUPTM91602"
"83",1691078611714,"03/08/2023 16:03:31",1691082211714,1,"03/08/2023 18:03:31",139282,42,"task-ak18",NA,31037390,9203593,NA,"complete",NA,NA,"computer","Desktop or Laptop","Windows 10","Chrome 115.0.0.0","2562x1332","2560x1325",NA,NA,NA,"JV Task P1 (Clone) (study_2)",22,"In","IJHAGBFCED","B (Feedback ranking_L1 First)","study_1 (JV and feedback_list_1)",NA,"In","SS1","SS1",11,"V","Valence","sn1sjn",1,"continue","",1402,1396,1402,1402,1396,1402,1,1402,0,0,NA,"Click To Continue","Continue Button",1,"object-25","V","CFD-IM-711-011-H.jpeg",1,NA,NA,"SUPTM91602"
"84",1691078611714,"03/08/2023 16:03:31",1691082211714,1,"03/08/2023 18:03:31",139282,42,"task-ak18",NA,31037390,9203593,NA,"complete",NA,NA,"computer","Desktop or Laptop","Windows 10","Chrome 115.0.0.0","2562x1332","2560x1325",NA,NA,NA,"JV Task P1 (Clone) (study_2)",22,"In","IJHAGBFCED","B (Feedback ranking_L1 First)","study_1 (JV and feedback_list_1)",NA,"In","SS1","SS1",11,"V","Valence","sn1sjn",1,"response","69",590,1396,1402,590,1396,1402,1,590,812,0,NA,"Slider","J",3,"object-27","V","CFD-IM-711-011-H.jpeg",1,NA,NA,"SUPTM91602"
"85",1691078612687,"03/08/2023 16:03:32",1691082212687,1,"03/08/2023 18:03:32",139282,42,"task-ak18",NA,31037390,9203593,NA,"complete",NA,NA,"computer","Desktop or Laptop","Windows 10","Chrome 115.0.0.0","2562x1332","2560x1325",NA,NA,NA,"JV Task P1 (Clone) (study_2)",22,"In","IJHAGBFCED","B (Feedback ranking_L1 First)","study_1 (JV and feedback_list_1)",NA,"In","SS1","SS1",11,"V","Fixation","aydkg3",2,"continue","",979,979,979,979,979,979,1,979,0,0,NA,"Fixation Timing","Fixation",1,"object-21","V","CFD-IM-711-011-H.jpeg",1,NA,NA,"SUPTM91602"
"86",1691078613954,"03/08/2023 16:03:33",1691082213954,1,"03/08/2023 18:03:33",139282,42,"task-ak18",NA,31037390,9203593,NA,"complete",NA,NA,"computer","Desktop or Laptop","Windows 10","Chrome 115.0.0.0","2562x1332","2560x1325",NA,NA,NA,"JV Task P1 (Clone) (study_2)",22,"In","IJHAGBFCED","B (Feedback ranking_L1 First)","study_1 (JV and feedback_list_1)",NA,"In","SS1","SS1",17,"J","Judginess","w2ir4b",1,"continue","",1267,1264,1267,1267,1264,1267,1,1267,0,0,NA,"Click To Continue","Continue Button",1,"object-14","J","CFD-WM-035-032-H.jpeg",1,NA,NA,"SUPTM91602"
"87",1691078613956,"03/08/2023 16:03:33",1691082213956,1,"03/08/2023 18:03:33",139282,42,"task-ak18",NA,31037390,9203593,NA,"complete",NA,NA,"computer","Desktop or Laptop","Windows 10","Chrome 115.0.0.0","2562x1332","2560x1325",NA,NA,NA,"JV Task P1 (Clone) (study_2)",22,"In","IJHAGBFCED","B (Feedback ranking_L1 First)","study_1 (JV and feedback_list_1)",NA,"In","SS1","SS1",17,"J","Judginess","w2ir4b",1,"response","77",604,1264,1270,604,1264,1270,1,604,666,0,NA,"Slider","J",3,"object-18","J","CFD-WM-035-032-H.jpeg",1,NA,NA,"SUPTM91602"
"88",1691078614930,"03/08/2023 16:03:34",1691082214930,1,"03/08/2023 18:03:34",139282,42,"task-ak18",NA,31037390,9203593,NA,"complete",NA,NA,"computer","Desktop or Laptop","Windows 10","Chrome 115.0.0.0","2562x1332","2560x1325",NA,NA,NA,"JV Task P1 (Clone) (study_2)",22,"In","IJHAGBFCED","B (Feedback ranking_L1 First)","study_1 (JV and feedback_list_1)",NA,"In","SS1","SS1",17,"J","Fixation","mtm832",2,"continue","",979,979,979,979,979,979,1,979,0,0,NA,"Fixation Timing","Fixation",1,"object-65","J","CFD-WM-035-032-H.jpeg",1,NA,NA,"SUPTM91602"
"89",1691078616183,"03/08/2023 16:03:36",1691082216183,1,"03/08/2023 18:03:36",139282,42,"task-ak18",NA,31037390,9203593,NA,"complete",NA,NA,"computer","Desktop or Laptop","Windows 10","Chrome 115.0.0.0","2562x1332","2560x1325",NA,NA,NA,"JV Task P1 (Clone) (study_2)",22,"In","IJHAGBFCED","B (Feedback ranking_L1 First)","study_1 (JV and feedback_list_1)",NA,"In","SS1","SS1",18,"J","Judginess","w2ir4b",1,"continue","",1253,1250,1253,1253,1250,1253,1,1253,0,0,NA,"Click To Continue","Continue Button",1,"object-14","J","CFD-AM-220-134-H.jpeg",1,NA,NA,"SUPTM91602"
"90",1691078616183,"03/08/2023 16:03:36",1691082216183,1,"03/08/2023 18:03:36",139282,42,"task-ak18",NA,31037390,9203593,NA,"complete",NA,NA,"computer","Desktop or Laptop","Windows 10","Chrome 115.0.0.0","2562x1332","2560x1325",NA,NA,NA,"JV Task P1 (Clone) (study_2)",22,"In","IJHAGBFCED","B (Feedback ranking_L1 First)","study_1 (JV and feedback_list_1)",NA,"In","SS1","SS1",18,"J","Judginess","w2ir4b",1,"response","64",528,1250,1253,528,1250,1253,1,528,725,0,NA,"Slider","J",3,"object-18","J","CFD-AM-220-134-H.jpeg",1,NA,NA,"SUPTM91602"
"91",1691078617160,"03/08/2023 16:03:37",1691082217160,1,"03/08/2023 18:03:37",139282,42,"task-ak18",NA,31037390,9203593,NA,"complete",NA,NA,"computer","Desktop or Laptop","Windows 10","Chrome 115.0.0.0","2562x1332","2560x1325",NA,NA,NA,"JV Task P1 (Clone) (study_2)",22,"In","IJHAGBFCED","B (Feedback ranking_L1 First)","study_1 (JV and feedback_list_1)",NA,"In","SS1","SS1",18,"J","Fixation","mtm832",2,"continue","",979,979,979,979,979,979,1,979,0,0,NA,"Fixation Timing","Fixation",1,"object-65","J","CFD-AM-220-134-H.jpeg",1,NA,NA,"SUPTM91602"
"92",1691078618420,"03/08/2023 16:03:38",1691082218420,1,"03/08/2023 18:03:38",139282,42,"task-ak18",NA,31037390,9203593,NA,"complete",NA,NA,"computer","Desktop or Laptop","Windows 10","Chrome 115.0.0.0","2562x1332","2560x1325",NA,NA,NA,"JV Task P1 (Clone) (study_2)",22,"In","IJHAGBFCED","B (Feedback ranking_L1 First)","study_1 (JV and feedback_list_1)",NA,"In","SS1","SS1",19,"J","Judginess","w2ir4b",1,"continue","",1262,1258,1262,1262,1258,1262,1,1262,0,0,NA,"Click To Continue","Continue Button",1,"object-14","J","CFD-WF-035-024-S.jpeg",1,NA,NA,"SUPTM91602"
"93",1691078618420,"03/08/2023 16:03:38",1691082218420,1,"03/08/2023 18:03:38",139282,42,"task-ak18",NA,31037390,9203593,NA,"complete",NA,NA,"computer","Desktop or Laptop","Windows 10","Chrome 115.0.0.0","2562x1332","2560x1325",NA,NA,NA,"JV Task P1 (Clone) (study_2)",22,"In","IJHAGBFCED","B (Feedback ranking_L1 First)","study_1 (JV and feedback_list_1)",NA,"In","SS1","SS1",19,"J","Judginess","w2ir4b",1,"response","31",660,1258,1262,660,1258,1262,1,660,602,0,NA,"Slider","J",3,"object-18","J","CFD-WF-035-024-S.jpeg",1,NA,NA,"SUPTM91602"
"94",1691078619396,"03/08/2023 16:03:39",1691082219396,1,"03/08/2023 18:03:39",139282,42,"task-ak18",NA,31037390,9203593,NA,"complete",NA,NA,"computer","Desktop or Laptop","Windows 10","Chrome 115.0.0.0","2562x1332","2560x1325",NA,NA,NA,"JV Task P1 (Clone) (study_2)",22,"In","IJHAGBFCED","B (Feedback ranking_L1 First)","study_1 (JV and feedback_list_1)",NA,"In","SS1","SS1",19,"J","Fixation","mtm832",2,"continue","",979,979,979,979,979,979,1,979,0,0,NA,"Fixation Timing","Fixation",1,"object-65","J","CFD-WF-035-024-S.jpeg",1,NA,NA,"SUPTM91602"
"95",1691078622900,"03/08/2023 16:03:42",1691082222900,1,"03/08/2023 18:03:42",139282,42,"task-ak18",NA,31037390,9203593,NA,"complete",NA,NA,"computer","Desktop or Laptop","Windows 10","Chrome 115.0.0.0","2562x1332","2560x1325",NA,NA,NA,"JV Task P1 (Clone) (study_2)",22,"In","IJHAGBFCED","B (Feedback ranking_L1 First)","study_1 (JV and feedback_list_1)",NA,"In","SS1","SS1",20,"J","Judginess","w2ir4b",1,"continue","",3504,3500,3504,3504,3500,3504,1,3504,0,0,NA,"Click To Continue","Continue Button",1,"object-14","J","CFD-WM-028-003-N.jpg",1,NA,NA,"SUPTM91602"
"96",1691078622901,"03/08/2023 16:03:42",1691082222901,1,"03/08/2023 18:03:42",139282,42,"task-ak18",NA,31037390,9203593,NA,"complete",NA,NA,"computer","Desktop or Laptop","Windows 10","Chrome 115.0.0.0","2562x1332","2560x1325",NA,NA,NA,"JV Task P1 (Clone) (study_2)",22,"In","IJHAGBFCED","B (Feedback ranking_L1 First)","study_1 (JV and feedback_list_1)",NA,"In","SS1","SS1",20,"J","Judginess","w2ir4b",1,"response","45",528,3500,3504,528,3500,3504,1,528,2976,0,NA,"Slider","J",3,"object-18","J","CFD-WM-028-003-N.jpg",1,NA,NA,"SUPTM91602"
"97",1691078623875,"03/08/2023 16:03:43",1691082223875,1,"03/08/2023 18:03:43",139282,42,"task-ak18",NA,31037390,9203593,NA,"complete",NA,NA,"computer","Desktop or Laptop","Windows 10","Chrome 115.0.0.0","2562x1332","2560x1325",NA,NA,NA,"JV Task P1 (Clone) (study_2)",22,"In","IJHAGBFCED","B (Feedback ranking_L1 First)","study_1 (JV and feedback_list_1)",NA,"In","SS1","SS1",20,"J","Fixation","mtm832",2,"continue","",979,979,979,979,979,979,1,979,0,0,NA,"Fixation Timing","Fixation",1,"object-65","J","CFD-WM-028-003-N.jpg",1,NA,NA,"SUPTM91602"
"98",1691078625730,"03/08/2023 16:03:45",1691082225730,1,"03/08/2023 18:03:45",139282,42,"task-ak18",NA,31037390,9203593,NA,"complete",NA,NA,"computer","Desktop or Laptop","Windows 10","Chrome 115.0.0.0","2562x1332","2560x1325",NA,NA,NA,"JV Task P1 (Clone) (study_2)",22,"In","IJHAGBFCED","B (Feedback ranking_L1 First)","study_1 (JV and feedback_list_1)",NA,"In","SS1","SS1",21,"J","Judginess","w2ir4b",1,"continue","",1855,1848,1855,1855,1848,1855,1,1855,0,0,NA,"Click To Continue","Continue Button",1,"object-14","J","CFD-MF-315-002-S.jpeg",1,NA,NA,"SUPTM91602"
"99",1691078625732,"03/08/2023 16:03:45",1691082225732,1,"03/08/2023 18:03:45",139282,42,"task-ak18",NA,31037390,9203593,NA,"complete",NA,NA,"computer","Desktop or Laptop","Windows 10","Chrome 115.0.0.0","2562x1332","2560x1325",NA,NA,NA,"JV Task P1 (Clone) (study_2)",22,"In","IJHAGBFCED","B (Feedback ranking_L1 First)","study_1 (JV and feedback_list_1)",NA,"In","SS1","SS1",21,"J","Judginess","w2ir4b",1,"response","23",757,1848,1855,757,1848,1855,1,757,1098,0,NA,"Slider","J",3,"object-18","J","CFD-MF-315-002-S.jpeg",1,NA,NA,"SUPTM91602"
"100",1691078626702,"03/08/2023 16:03:46",1691082226702,1,"03/08/2023 18:03:46",139282,42,"task-ak18",NA,31037390,9203593,NA,"complete",NA,NA,"computer","Desktop or Laptop","Windows 10","Chrome 115.0.0.0","2562x1332","2560x1325",NA,NA,NA,"JV Task P1 (Clone) (study_2)",22,"In","IJHAGBFCED","B (Feedback ranking_L1 First)","study_1 (JV and feedback_list_1)",NA,"In","SS1","SS1",21,"J","Fixation","mtm832",2,"continue","",979,979,979,979,979,979,1,979,0,0,NA,"Fixation Timing","Fixation",1,"object-65","J","CFD-MF-315-002-S.jpeg",1,NA,NA,"SUPTM91602"
"101",1691078628290,"03/08/2023 16:03:48",1691082228290,1,"03/08/2023 18:03:48",139282,42,"task-ak18",NA,31037390,9203593,NA,"complete",NA,NA,"computer","Desktop or Laptop","Windows 10","Chrome 115.0.0.0","2562x1332","2560x1325",NA,NA,NA,"JV Task P1 (Clone) (study_2)",22,"In","IJHAGBFCED","B (Feedback ranking_L1 First)","study_1 (JV and feedback_list_1)",NA,"In","SS1","SS1",12,"V","Valence","sn1sjn",1,"continue","",1589,1583,1589,1589,1583,1589,1,1589,0,0,NA,"Click To Continue","Continue Button",1,"object-25","V","CFD-WM-036-031-N.jpg",1,NA,NA,"SUPTM91602"
"102",1691078628290,"03/08/2023 16:03:48",1691082228290,1,"03/08/2023 18:03:48",139282,42,"task-ak18",NA,31037390,9203593,NA,"complete",NA,NA,"computer","Desktop or Laptop","Windows 10","Chrome 115.0.0.0","2562x1332","2560x1325",NA,NA,NA,"JV Task P1 (Clone) (study_2)",22,"In","IJHAGBFCED","B (Feedback ranking_L1 First)","study_1 (JV and feedback_list_1)",NA,"In","SS1","SS1",12,"V","Valence","sn1sjn",1,"response","30",646,1583,1589,646,1583,1589,1,646,943,0,NA,"Slider","J",3,"object-27","V","CFD-WM-036-031-N.jpg",1,NA,NA,"SUPTM91602"
"103",1691078629265,"03/08/2023 16:03:49",1691082229265,1,"03/08/2023 18:03:49",139282,42,"task-ak18",NA,31037390,9203593,NA,"complete",NA,NA,"computer","Desktop or Laptop","Windows 10","Chrome 115.0.0.0","2562x1332","2560x1325",NA,NA,NA,"JV Task P1 (Clone) (study_2)",22,"In","IJHAGBFCED","B (Feedback ranking_L1 First)","study_1 (JV and feedback_list_1)",NA,"In","SS1","SS1",12,"V","Fixation","aydkg3",2,"continue","",980,980,980,980,980,980,1,980,0,0,NA,"Fixation Timing","Fixation",1,"object-21","V","CFD-WM-036-031-N.jpg",1,NA,NA,"SUPTM91602"
"104",1691078630662,"03/08/2023 16:03:50",1691082230662,1,"03/08/2023 18:03:50",139282,42,"task-ak18",NA,31037390,9203593,NA,"complete",NA,NA,"computer","Desktop or Laptop","Windows 10","Chrome 115.0.0.0","2562x1332","2560x1325",NA,NA,NA,"JV Task P1 (Clone) (study_2)",22,"In","IJHAGBFCED","B (Feedback ranking_L1 First)","study_1 (JV and feedback_list_1)",NA,"In","SS1","SS1",13,"V","Valence","sn1sjn",1,"continue","",1398,1396,1398,1398,1396,1398,1,1398,0,0,NA,"Click To Continue","Continue Button",1,"object-25","V","CFD-WM-025-002-N.jpg",1,NA,NA,"SUPTM91602"
"105",1691078630663,"03/08/2023 16:03:50",1691082230663,1,"03/08/2023 18:03:50",139282,42,"task-ak18",NA,31037390,9203593,NA,"complete",NA,NA,"computer","Desktop or Laptop","Windows 10","Chrome 115.0.0.0","2562x1332","2560x1325",NA,NA,NA,"JV Task P1 (Clone) (study_2)",22,"In","IJHAGBFCED","B (Feedback ranking_L1 First)","study_1 (JV and feedback_list_1)",NA,"In","SS1","SS1",13,"V","Valence","sn1sjn",1,"response","36",729,1396,1398,729,1396,1398,1,729,669,0,NA,"Slider","J",3,"object-27","V","CFD-WM-025-002-N.jpg",1,NA,NA,"SUPTM91602"
"106",1691078631640,"03/08/2023 16:03:51",1691082231640,1,"03/08/2023 18:03:51",139282,42,"task-ak18",NA,31037390,9203593,NA,"complete",NA,NA,"computer","Desktop or Laptop","Windows 10","Chrome 115.0.0.0","2562x1332","2560x1325",NA,NA,NA,"JV Task P1 (Clone) (study_2)",22,"In","IJHAGBFCED","B (Feedback ranking_L1 First)","study_1 (JV and feedback_list_1)",NA,"In","SS1","SS1",13,"V","Fixation","aydkg3",2,"continue","",979,979,979,979,979,979,1,979,0,0,NA,"Fixation Timing","Fixation",1,"object-21","V","CFD-WM-025-002-N.jpg",1,NA,NA,"SUPTM91602"
"107",1691078632883,"03/08/2023 16:03:52",1691082232883,1,"03/08/2023 18:03:52",139282,42,"task-ak18",NA,31037390,9203593,NA,"complete",NA,NA,"computer","Desktop or Laptop","Windows 10","Chrome 115.0.0.0","2562x1332","2560x1325",NA,NA,NA,"JV Task P1 (Clone) (study_2)",22,"In","IJHAGBFCED","B (Feedback ranking_L1 First)","study_1 (JV and feedback_list_1)",NA,"In","SS1","SS1",22,"J","Judginess","w2ir4b",1,"continue","",1243,1236,1243,1243,1236,1243,1,1243,0,0,NA,"Click To Continue","Continue Button",1,"object-14","J","CFD-WF-017-003-N.jpg",1,NA,NA,"SUPTM91602"
"108",1691078632883,"03/08/2023 16:03:52",1691082232883,1,"03/08/2023 18:03:52",139282,42,"task-ak18",NA,31037390,9203593,NA,"complete",NA,NA,"computer","Desktop or Laptop","Windows 10","Chrome 115.0.0.0","2562x1332","2560x1325",NA,NA,NA,"JV Task P1 (Clone) (study_2)",22,"In","IJHAGBFCED","B (Feedback ranking_L1 First)","study_1 (JV and feedback_list_1)",NA,"In","SS1","SS1",22,"J","Judginess","w2ir4b",1,"response","27",576,1236,1243,576,1236,1243,1,576,667,0,NA,"Slider","J",3,"object-18","J","CFD-WF-017-003-N.jpg",1,NA,NA,"SUPTM91602"
"109",1691078633855,"03/08/2023 16:03:53",1691082233855,1,"03/08/2023 18:03:53",139282,42,"task-ak18",NA,31037390,9203593,NA,"complete",NA,NA,"computer","Desktop or Laptop","Windows 10","Chrome 115.0.0.0","2562x1332","2560x1325",NA,NA,NA,"JV Task P1 (Clone) (study_2)",22,"In","IJHAGBFCED","B (Feedback ranking_L1 First)","study_1 (JV and feedback_list_1)",NA,"In","SS1","SS1",22,"J","Fixation","mtm832",2,"continue","",979,979,979,979,979,979,1,979,0,0,NA,"Fixation Timing","Fixation",1,"object-65","J","CFD-WF-017-003-N.jpg",1,NA,NA,"SUPTM91602"
"110",1691078635991,"03/08/2023 16:03:55",1691082235991,1,"03/08/2023 18:03:55",139282,42,"task-ak18",NA,31037390,9203593,NA,"complete",NA,NA,"computer","Desktop or Laptop","Windows 10","Chrome 115.0.0.0","2562x1332","2560x1325",NA,NA,NA,"JV Task P1 (Clone) (study_2)",22,"In","IJHAGBFCED","B (Feedback ranking_L1 First)","study_1 (JV and feedback_list_1)",NA,"In","SS1","SS1",14,"V","Valence","sn1sjn",1,"continue","",2137,2132,2137,2137,2132,2137,1,2137,0,0,NA,"Click To Continue","Continue Button",1,"object-25","V","CFD-WF-035-024-N.jpg",1,NA,NA,"SUPTM91602"
"111",1691078635993,"03/08/2023 16:03:55",1691082235993,1,"03/08/2023 18:03:55",139282,42,"task-ak18",NA,31037390,9203593,NA,"complete",NA,NA,"computer","Desktop or Laptop","Windows 10","Chrome 115.0.0.0","2562x1332","2560x1325",NA,NA,NA,"JV Task P1 (Clone) (study_2)",22,"In","IJHAGBFCED","B (Feedback ranking_L1 First)","study_1 (JV and feedback_list_1)",NA,"In","SS1","SS1",14,"V","Valence","sn1sjn",1,"response","11",632,2132,2138,632,2132,2138,1,632,1506,0,NA,"Slider","J",3,"object-27","V","CFD-WF-035-024-N.jpg",1,NA,NA,"SUPTM91602"
"112",1691078636966,"03/08/2023 16:03:56",1691082236966,1,"03/08/2023 18:03:56",139282,42,"task-ak18",NA,31037390,9203593,NA,"complete",NA,NA,"computer","Desktop or Laptop","Windows 10","Chrome 115.0.0.0","2562x1332","2560x1325",NA,NA,NA,"JV Task P1 (Clone) (study_2)",22,"In","IJHAGBFCED","B (Feedback ranking_L1 First)","study_1 (JV and feedback_list_1)",NA,"In","SS1","SS1",14,"V","Fixation","aydkg3",2,"continue","",980,980,980,980,980,980,1,980,0,0,NA,"Fixation Timing","Fixation",1,"object-21","V","CFD-WF-035-024-N.jpg",1,NA,NA,"SUPTM91602"
"113",1691078638635,"03/08/2023 16:03:58",1691082238635,1,"03/08/2023 18:03:58",139282,42,"task-ak18",NA,31037390,9203593,NA,"complete",NA,NA,"computer","Desktop or Laptop","Windows 10","Chrome 115.0.0.0","2562x1332","2560x1325",NA,NA,NA,"JV Task P1 (Clone) (study_2)",22,"In","IJHAGBFCED","B (Feedback ranking_L1 First)","study_1 (JV and feedback_list_1)",NA,"In","SS1","SS1",15,"V","Valence","sn1sjn",1,"continue","",1669,1666,1669,1669,1666,1669,1,1669,0,0,NA,"Click To Continue","Continue Button",1,"object-25","V","CFD-BM-045-004-N.jpg",1,NA,NA,"SUPTM91602"
"114",1691078638635,"03/08/2023 16:03:58",1691082238635,1,"03/08/2023 18:03:58",139282,42,"task-ak18",NA,31037390,9203593,NA,"complete",NA,NA,"computer","Desktop or Laptop","Windows 10","Chrome 115.0.0.0","2562x1332","2560x1325",NA,NA,NA,"JV Task P1 (Clone) (study_2)",22,"In","IJHAGBFCED","B (Feedback ranking_L1 First)","study_1 (JV and feedback_list_1)",NA,"In","SS1","SS1",15,"V","Valence","sn1sjn",1,"response","31",507,1666,1669,507,1666,1669,1,507,1162,0,NA,"Slider","J",3,"object-27","V","CFD-BM-045-004-N.jpg",1,NA,NA,"SUPTM91602"
"115",1691078639612,"03/08/2023 16:03:59",1691082239612,1,"03/08/2023 18:03:59",139282,42,"task-ak18",NA,31037390,9203593,NA,"complete",NA,NA,"computer","Desktop or Laptop","Windows 10","Chrome 115.0.0.0","2562x1332","2560x1325",NA,NA,NA,"JV Task P1 (Clone) (study_2)",22,"In","IJHAGBFCED","B (Feedback ranking_L1 First)","study_1 (JV and feedback_list_1)",NA,"In","SS1","SS1",15,"V","Fixation","aydkg3",2,"continue","",980,980,980,980,980,980,1,980,0,0,NA,"Fixation Timing","Fixation",1,"object-21","V","CFD-BM-045-004-N.jpg",1,NA,NA,"SUPTM91602"
"116",1691078640723,"03/08/2023 16:04:00",1691082240723,1,"03/08/2023 18:04:00",139282,42,"task-ak18",NA,31037390,9203593,NA,"complete",NA,NA,"computer","Desktop or Laptop","Windows 10","Chrome 115.0.0.0","2562x1332","2560x1325",NA,NA,NA,"JV Task P1 (Clone) (study_2)",22,"In","IJHAGBFCED","B (Feedback ranking_L1 First)","study_1 (JV and feedback_list_1)",NA,"In","SS1","SS1",23,"J","Judginess","w2ir4b",1,"continue","",1111,1104,1111,1111,1104,1111,1,1111,0,0,NA,"Click To Continue","Continue Button",1,"object-14","J","CFD-WM-028-003-S.jpeg",1,NA,NA,"SUPTM91602"
"117",1691078640723,"03/08/2023 16:04:00",1691082240723,1,"03/08/2023 18:04:00",139282,42,"task-ak18",NA,31037390,9203593,NA,"complete",NA,NA,"computer","Desktop or Laptop","Windows 10","Chrome 115.0.0.0","2562x1332","2560x1325",NA,NA,NA,"JV Task P1 (Clone) (study_2)",22,"In","IJHAGBFCED","B (Feedback ranking_L1 First)","study_1 (JV and feedback_list_1)",NA,"In","SS1","SS1",23,"J","Judginess","w2ir4b",1,"response","39",535,1104,1111,535,1104,1111,1,535,576,0,NA,"Slider","J",3,"object-18","J","CFD-WM-028-003-S.jpeg",1,NA,NA,"SUPTM91602"
"118",1691078641696,"03/08/2023 16:04:01",1691082241696,1,"03/08/2023 18:04:01",139282,42,"task-ak18",NA,31037390,9203593,NA,"complete",NA,NA,"computer","Desktop or Laptop","Windows 10","Chrome 115.0.0.0","2562x1332","2560x1325",NA,NA,NA,"JV Task P1 (Clone) (study_2)",22,"In","IJHAGBFCED","B (Feedback ranking_L1 First)","study_1 (JV and feedback_list_1)",NA,"In","SS1","SS1",23,"J","Fixation","mtm832",2,"continue","",979,979,979,979,979,979,1,979,0,0,NA,"Fixation Timing","Fixation",1,"object-65","J","CFD-WM-028-003-S.jpeg",1,NA,NA,"SUPTM91602"
"119",1691078642927,"03/08/2023 16:04:02",1691082242927,1,"03/08/2023 18:04:02",139282,42,"task-ak18",NA,31037390,9203593,NA,"complete",NA,NA,"computer","Desktop or Laptop","Windows 10","Chrome 115.0.0.0","2562x1332","2560x1325",NA,NA,NA,"JV Task P1 (Clone) (study_2)",22,"In","IJHAGBFCED","B (Feedback ranking_L1 First)","study_1 (JV and feedback_list_1)",NA,"In","SS1","SS1",24,"J","Judginess","w2ir4b",1,"continue","",1232,1230,1232,1232,1230,1232,1,1232,0,0,NA,"Click To Continue","Continue Button",1,"object-14","J","CFD-WF-031-027-N.jpg",1,NA,NA,"SUPTM91602"
"120",1691078642927,"03/08/2023 16:04:02",1691082242927,1,"03/08/2023 18:04:02",139282,42,"task-ak18",NA,31037390,9203593,NA,"complete",NA,NA,"computer","Desktop or Laptop","Windows 10","Chrome 115.0.0.0","2562x1332","2560x1325",NA,NA,NA,"JV Task P1 (Clone) (study_2)",22,"In","IJHAGBFCED","B (Feedback ranking_L1 First)","study_1 (JV and feedback_list_1)",NA,"In","SS1","SS1",24,"J","Judginess","w2ir4b",1,"response","27",604,1230,1232,604,1230,1232,1,604,628,0,NA,"Slider","J",3,"object-18","J","CFD-WF-031-027-N.jpg",1,NA,NA,"SUPTM91602"
"121",1691078643904,"03/08/2023 16:04:03",1691082243904,1,"03/08/2023 18:04:03",139282,42,"task-ak18",NA,31037390,9203593,NA,"complete",NA,NA,"computer","Desktop or Laptop","Windows 10","Chrome 115.0.0.0","2562x1332","2560x1325",NA,NA,NA,"JV Task P1 (Clone) (study_2)",22,"In","IJHAGBFCED","B (Feedback ranking_L1 First)","study_1 (JV and feedback_list_1)",NA,"In","SS1","SS1",24,"J","Fixation","mtm832",2,"continue","",979,979,979,979,979,979,1,979,0,0,NA,"Fixation Timing","Fixation",1,"object-65","J","CFD-WF-031-027-N.jpg",1,NA,NA,"SUPTM91602"
"122",1691078645307,"03/08/2023 16:04:05",1691082245307,1,"03/08/2023 18:04:05",139282,42,"task-ak18",NA,31037390,9203593,NA,"complete",NA,NA,"computer","Desktop or Laptop","Windows 10","Chrome 115.0.0.0","2562x1332","2560x1325",NA,NA,NA,"JV Task P1 (Clone) (study_2)",22,"In","IJHAGBFCED","B (Feedback ranking_L1 First)","study_1 (JV and feedback_list_1)",NA,"In","SS1","SS1",25,"J","Judginess","w2ir4b",1,"continue","",1403,1396,1403,1403,1396,1403,1,1403,0,0,NA,"Click To Continue","Continue Button",1,"object-14","J","CFD-WM-034-030-H.jpeg",1,NA,NA,"SUPTM91602"
"123",1691078645307,"03/08/2023 16:04:05",1691082245307,1,"03/08/2023 18:04:05",139282,42,"task-ak18",NA,31037390,9203593,NA,"complete",NA,NA,"computer","Desktop or Laptop","Windows 10","Chrome 115.0.0.0","2562x1332","2560x1325",NA,NA,NA,"JV Task P1 (Clone) (study_2)",22,"In","IJHAGBFCED","B (Feedback ranking_L1 First)","study_1 (JV and feedback_list_1)",NA,"In","SS1","SS1",25,"J","Judginess","w2ir4b",1,"response","61",535,1396,1403,535,1396,1403,1,535,868,0,NA,"Slider","J",3,"object-18","J","CFD-WM-034-030-H.jpeg",1,NA,NA,"SUPTM91602"
"124",1691078646279,"03/08/2023 16:04:06",1691082246279,1,"03/08/2023 18:04:06",139282,42,"task-ak18",NA,31037390,9203593,NA,"complete",NA,NA,"computer","Desktop or Laptop","Windows 10","Chrome 115.0.0.0","2562x1332","2560x1325",NA,NA,NA,"JV Task P1 (Clone) (study_2)",22,"In","IJHAGBFCED","B (Feedback ranking_L1 First)","study_1 (JV and feedback_list_1)",NA,"In","SS1","SS1",25,"J","Fixation","mtm832",2,"continue","",979,979,979,979,979,979,1,979,0,0,NA,"Fixation Timing","Fixation",1,"object-65","J","CFD-WM-034-030-H.jpeg",1,NA,NA,"SUPTM91602"
"125",1691078647644,"03/08/2023 16:04:07",1691082247644,1,"03/08/2023 18:04:07",139282,42,"task-ak18",NA,31037390,9203593,NA,"complete",NA,NA,"computer","Desktop or Laptop","Windows 10","Chrome 115.0.0.0","2562x1332","2560x1325",NA,NA,NA,"JV Task P1 (Clone) (study_2)",22,"In","IJHAGBFCED","B (Feedback ranking_L1 First)","study_1 (JV and feedback_list_1)",NA,"In","SS1","SS1",16,"V","Valence","sn1sjn",1,"continue","",1365,1361,1365,1365,1361,1365,1,1365,0,0,NA,"Click To Continue","Continue Button",1,"object-25","V","CFD-IF-693-172-S.jpeg",1,NA,NA,"SUPTM91602"
"126",1691078647644,"03/08/2023 16:04:07",1691082247644,1,"03/08/2023 18:04:07",139282,42,"task-ak18",NA,31037390,9203593,NA,"complete",NA,NA,"computer","Desktop or Laptop","Windows 10","Chrome 115.0.0.0","2562x1332","2560x1325",NA,NA,NA,"JV Task P1 (Clone) (study_2)",22,"In","IJHAGBFCED","B (Feedback ranking_L1 First)","study_1 (JV and feedback_list_1)",NA,"In","SS1","SS1",16,"V","Valence","sn1sjn",1,"response","32",771,1361,1365,771,1361,1365,1,771,594,0,NA,"Slider","J",3,"object-27","V","CFD-IF-693-172-S.jpeg",1,NA,NA,"SUPTM91602"
"127",1691078648620,"03/08/2023 16:04:08",1691082248620,1,"03/08/2023 18:04:08",139282,42,"task-ak18",NA,31037390,9203593,NA,"complete",NA,NA,"computer","Desktop or Laptop","Windows 10","Chrome 115.0.0.0","2562x1332","2560x1325",NA,NA,NA,"JV Task P1 (Clone) (study_2)",22,"In","IJHAGBFCED","B (Feedback ranking_L1 First)","study_1 (JV and feedback_list_1)",NA,"In","SS1","SS1",16,"V","Fixation","aydkg3",2,"continue","",980,980,980,980,980,980,1,980,0,0,NA,"Fixation Timing","Fixation",1,"object-21","V","CFD-IF-693-172-S.jpeg",1,NA,NA,"SUPTM91602"
"128",1691078650516,"03/08/2023 16:04:10",1691082250516,1,"03/08/2023 18:04:10",139282,42,"task-ak18",NA,31037390,9203593,NA,"complete",NA,NA,"computer","Desktop or Laptop","Windows 10","Chrome 115.0.0.0","2562x1332","2560x1325",NA,NA,NA,"JV Task P1 (Clone) (study_2)",22,"In","IJHAGBFCED","B (Feedback ranking_L1 First)","study_1 (JV and feedback_list_1)",NA,"In","SS1","SS1",26,"J","Judginess","w2ir4b",1,"continue","",1896,1895,1896,1896,1895,1896,1,1896,0,0,NA,"Click To Continue","Continue Button",1,"object-14","J","CFD-MM-313-002-S.jpeg",1,NA,NA,"SUPTM91602"
"129",1691078650517,"03/08/2023 16:04:10",1691082250517,1,"03/08/2023 18:04:10",139282,42,"task-ak18",NA,31037390,9203593,NA,"complete",NA,NA,"computer","Desktop or Laptop","Windows 10","Chrome 115.0.0.0","2562x1332","2560x1325",NA,NA,NA,"JV Task P1 (Clone) (study_2)",22,"In","IJHAGBFCED","B (Feedback ranking_L1 First)","study_1 (JV and feedback_list_1)",NA,"In","SS1","SS1",26,"J","Judginess","w2ir4b",1,"response","28",1312,1895,1896,1312,1895,1896,1,1312,584,0,NA,"Slider","J",3,"object-18","J","CFD-MM-313-002-S.jpeg",1,NA,NA,"SUPTM91602"
"130",1691078651495,"03/08/2023 16:04:11",1691082251495,1,"03/08/2023 18:04:11",139282,42,"task-ak18",NA,31037390,9203593,NA,"complete",NA,NA,"computer","Desktop or Laptop","Windows 10","Chrome 115.0.0.0","2562x1332","2560x1325",NA,NA,NA,"JV Task P1 (Clone) (study_2)",22,"In","IJHAGBFCED","B (Feedback ranking_L1 First)","study_1 (JV and feedback_list_1)",NA,"In","SS1","SS1",26,"J","Fixation","mtm832",2,"continue","",980,980,980,980,980,980,1,980,0,0,NA,"Fixation Timing","Fixation",1,"object-65","J","CFD-MM-313-002-S.jpeg",1,NA,NA,"SUPTM91602"
"131",1691078652899,"03/08/2023 16:04:12",1691082252899,1,"03/08/2023 18:04:12",139282,42,"task-ak18",NA,31037390,9203593,NA,"complete",NA,NA,"computer","Desktop or Laptop","Windows 10","Chrome 115.0.0.0","2562x1332","2560x1325",NA,NA,NA,"JV Task P1 (Clone) (study_2)",22,"In","IJHAGBFCED","B (Feedback ranking_L1 First)","study_1 (JV and feedback_list_1)",NA,"In","SS1","SS1",17,"V","Valence","sn1sjn",1,"continue","",1403,1403,1403,1403,1403,1403,1,1403,0,0,NA,"Click To Continue","Continue Button",1,"object-25","V","CFD-WF-006-002-H.jpeg",1,NA,NA,"SUPTM91602"
"132",1691078652899,"03/08/2023 16:04:12",1691082252899,1,"03/08/2023 18:04:12",139282,42,"task-ak18",NA,31037390,9203593,NA,"complete",NA,NA,"computer","Desktop or Laptop","Windows 10","Chrome 115.0.0.0","2562x1332","2560x1325",NA,NA,NA,"JV Task P1 (Clone) (study_2)",22,"In","IJHAGBFCED","B (Feedback ranking_L1 First)","study_1 (JV and feedback_list_1)",NA,"In","SS1","SS1",17,"V","Valence","sn1sjn",1,"response","68",847,1403,1404,847,1403,1404,1,847,557,0,NA,"Slider","J",3,"object-27","V","CFD-WF-006-002-H.jpeg",1,NA,NA,"SUPTM91602"
"133",1691078653877,"03/08/2023 16:04:13",1691082253877,1,"03/08/2023 18:04:13",139282,42,"task-ak18",NA,31037390,9203593,NA,"complete",NA,NA,"computer","Desktop or Laptop","Windows 10","Chrome 115.0.0.0","2562x1332","2560x1325",NA,NA,NA,"JV Task P1 (Clone) (study_2)",22,"In","IJHAGBFCED","B (Feedback ranking_L1 First)","study_1 (JV and feedback_list_1)",NA,"In","SS1","SS1",17,"V","Fixation","aydkg3",2,"continue","",979,979,979,979,979,979,1,979,0,0,NA,"Fixation Timing","Fixation",1,"object-21","V","CFD-WF-006-002-H.jpeg",1,NA,NA,"SUPTM91602"
"134",1691078655384,"03/08/2023 16:04:15",1691082255384,1,"03/08/2023 18:04:15",139282,42,"task-ak18",NA,31037390,9203593,NA,"complete",NA,NA,"computer","Desktop or Laptop","Windows 10","Chrome 115.0.0.0","2562x1332","2560x1325",NA,NA,NA,"JV Task P1 (Clone) (study_2)",22,"In","IJHAGBFCED","B (Feedback ranking_L1 First)","study_1 (JV and feedback_list_1)",NA,"In","SS1","SS1",18,"V","Valence","sn1sjn",1,"continue","",1507,1500,1507,1507,1500,1507,1,1507,0,0,NA,"Click To Continue","Continue Button",1,"object-25","V","CFD-WF-017-003-N.jpg",1,NA,NA,"SUPTM91602"
"135",1691078655384,"03/08/2023 16:04:15",1691082255384,1,"03/08/2023 18:04:15",139282,42,"task-ak18",NA,31037390,9203593,NA,"complete",NA,NA,"computer","Desktop or Laptop","Windows 10","Chrome 115.0.0.0","2562x1332","2560x1325",NA,NA,NA,"JV Task P1 (Clone) (study_2)",22,"In","IJHAGBFCED","B (Feedback ranking_L1 First)","study_1 (JV and feedback_list_1)",NA,"In","SS1","SS1",18,"V","Valence","sn1sjn",1,"response","35",896,1500,1507,896,1500,1507,1,896,611,0,NA,"Slider","J",3,"object-27","V","CFD-WF-017-003-N.jpg",1,NA,NA,"SUPTM91602"
"136",1691078656357,"03/08/2023 16:04:16",1691082256357,1,"03/08/2023 18:04:16",139282,42,"task-ak18",NA,31037390,9203593,NA,"complete",NA,NA,"computer","Desktop or Laptop","Windows 10","Chrome 115.0.0.0","2562x1332","2560x1325",NA,NA,NA,"JV Task P1 (Clone) (study_2)",22,"In","IJHAGBFCED","B (Feedback ranking_L1 First)","study_1 (JV and feedback_list_1)",NA,"In","SS1","SS1",18,"V","Fixation","aydkg3",2,"continue","",979,979,979,979,979,979,1,979,0,0,NA,"Fixation Timing","Fixation",1,"object-21","V","CFD-WF-017-003-N.jpg",1,NA,NA,"SUPTM91602"
"137",1691078658692,"03/08/2023 16:04:18",1691082258692,1,"03/08/2023 18:04:18",139282,42,"task-ak18",NA,31037390,9203593,NA,"complete",NA,NA,"computer","Desktop or Laptop","Windows 10","Chrome 115.0.0.0","2562x1332","2560x1325",NA,NA,NA,"JV Task P1 (Clone) (study_2)",22,"In","IJHAGBFCED","B (Feedback ranking_L1 First)","study_1 (JV and feedback_list_1)",NA,"In","SS1","SS1",27,"J","Judginess","w2ir4b",1,"continue","",2336,2334,2336,2336,2334,2336,1,2336,0,0,NA,"Click To Continue","Continue Button",1,"object-14","J","CFD-BF-008-001-N.jpg",1,NA,NA,"SUPTM91602"
"138",1691078658692,"03/08/2023 16:04:18",1691082258692,1,"03/08/2023 18:04:18",139282,42,"task-ak18",NA,31037390,9203593,NA,"complete",NA,NA,"computer","Desktop or Laptop","Windows 10","Chrome 115.0.0.0","2562x1332","2560x1325",NA,NA,NA,"JV Task P1 (Clone) (study_2)",22,"In","IJHAGBFCED","B (Feedback ranking_L1 First)","study_1 (JV and feedback_list_1)",NA,"In","SS1","SS1",27,"J","Judginess","w2ir4b",1,"response","36",660,2334,2336,660,2334,2336,1,660,1676,0,NA,"Slider","J",3,"object-18","J","CFD-BF-008-001-N.jpg",1,NA,NA,"SUPTM91602"
"139",1691078659669,"03/08/2023 16:04:19",1691082259669,1,"03/08/2023 18:04:19",139282,42,"task-ak18",NA,31037390,9203593,NA,"complete",NA,NA,"computer","Desktop or Laptop","Windows 10","Chrome 115.0.0.0","2562x1332","2560x1325",NA,NA,NA,"JV Task P1 (Clone) (study_2)",22,"In","IJHAGBFCED","B (Feedback ranking_L1 First)","study_1 (JV and feedback_list_1)",NA,"In","SS1","SS1",27,"J","Fixation","mtm832",2,"continue","",979,979,979,979,979,979,1,979,0,0,NA,"Fixation Timing","Fixation",1,"object-65","J","CFD-BF-008-001-N.jpg",1,NA,NA,"SUPTM91602"
"140",1691078661078,"03/08/2023 16:04:21",1691082261078,1,"03/08/2023 18:04:21",139282,42,"task-ak18",NA,31037390,9203593,NA,"complete",NA,NA,"computer","Desktop or Laptop","Windows 10","Chrome 115.0.0.0","2562x1332","2560x1325",NA,NA,NA,"JV Task P1 (Clone) (study_2)",22,"In","IJHAGBFCED","B (Feedback ranking_L1 First)","study_1 (JV and feedback_list_1)",NA,"In","SS1","SS1",19,"V","Valence","sn1sjn",1,"continue","",1408,1403,1408,1408,1403,1408,1,1408,0,0,NA,"Click To Continue","Continue Button",1,"object-25","V","CFD-WM-026-001-S.jpeg",1,NA,NA,"SUPTM91602"
"141",1691078661078,"03/08/2023 16:04:21",1691082261078,1,"03/08/2023 18:04:21",139282,42,"task-ak18",NA,31037390,9203593,NA,"complete",NA,NA,"computer","Desktop or Laptop","Windows 10","Chrome 115.0.0.0","2562x1332","2560x1325",NA,NA,NA,"JV Task P1 (Clone) (study_2)",22,"In","IJHAGBFCED","B (Feedback ranking_L1 First)","study_1 (JV and feedback_list_1)",NA,"In","SS1","SS1",19,"V","Valence","sn1sjn",1,"response","39",785,1403,1409,785,1403,1409,1,785,624,0,NA,"Slider","J",3,"object-27","V","CFD-WM-026-001-S.jpeg",1,NA,NA,"SUPTM91602"
"142",1691078662052,"03/08/2023 16:04:22",1691082262052,1,"03/08/2023 18:04:22",139282,42,"task-ak18",NA,31037390,9203593,NA,"complete",NA,NA,"computer","Desktop or Laptop","Windows 10","Chrome 115.0.0.0","2562x1332","2560x1325",NA,NA,NA,"JV Task P1 (Clone) (study_2)",22,"In","IJHAGBFCED","B (Feedback ranking_L1 First)","study_1 (JV and feedback_list_1)",NA,"In","SS1","SS1",19,"V","Fixation","aydkg3",2,"continue","",979,979,979,979,979,979,1,979,0,0,NA,"Fixation Timing","Fixation",1,"object-21","V","CFD-WM-026-001-S.jpeg",1,NA,NA,"SUPTM91602"
"143",1691078663315,"03/08/2023 16:04:23",1691082263315,1,"03/08/2023 18:04:23",139282,42,"task-ak18",NA,31037390,9203593,NA,"complete",NA,NA,"computer","Desktop or Laptop","Windows 10","Chrome 115.0.0.0","2562x1332","2560x1325",NA,NA,NA,"JV Task P1 (Clone) (study_2)",22,"In","IJHAGBFCED","B (Feedback ranking_L1 First)","study_1 (JV and feedback_list_1)",NA,"In","SS1","SS1",28,"J","Judginess","w2ir4b",1,"continue","",1264,1257,1264,1264,1257,1264,1,1264,0,0,NA,"Click To Continue","Continue Button",1,"object-14","J","CFD-WF-024-003-S.jpeg",1,NA,NA,"SUPTM91602"
"144",1691078663315,"03/08/2023 16:04:23",1691082263315,1,"03/08/2023 18:04:23",139282,42,"task-ak18",NA,31037390,9203593,NA,"complete",NA,NA,"computer","Desktop or Laptop","Windows 10","Chrome 115.0.0.0","2562x1332","2560x1325",NA,NA,NA,"JV Task P1 (Clone) (study_2)",22,"In","IJHAGBFCED","B (Feedback ranking_L1 First)","study_1 (JV and feedback_list_1)",NA,"In","SS1","SS1",28,"J","Judginess","w2ir4b",1,"response","23",646,1257,1264,646,1257,1264,1,646,618,0,NA,"Slider","J",3,"object-18","J","CFD-WF-024-003-S.jpeg",1,NA,NA,"SUPTM91602"
"145",1691078664288,"03/08/2023 16:04:24",1691082264288,1,"03/08/2023 18:04:24",139282,42,"task-ak18",NA,31037390,9203593,NA,"complete",NA,NA,"computer","Desktop or Laptop","Windows 10","Chrome 115.0.0.0","2562x1332","2560x1325",NA,NA,NA,"JV Task P1 (Clone) (study_2)",22,"In","IJHAGBFCED","B (Feedback ranking_L1 First)","study_1 (JV and feedback_list_1)",NA,"In","SS1","SS1",28,"J","Fixation","mtm832",2,"continue","",979,979,979,979,979,979,1,979,0,0,NA,"Fixation Timing","Fixation",1,"object-65","J","CFD-WF-024-003-S.jpeg",1,NA,NA,"SUPTM91602"
"146",1691078666881,"03/08/2023 16:04:26",1691082266881,1,"03/08/2023 18:04:26",139282,42,"task-ak18",NA,31037390,9203593,NA,"complete",NA,NA,"computer","Desktop or Laptop","Windows 10","Chrome 115.0.0.0","2562x1332","2560x1325",NA,NA,NA,"JV Task P1 (Clone) (study_2)",22,"In","IJHAGBFCED","B (Feedback ranking_L1 First)","study_1 (JV and feedback_list_1)",NA,"In","SS1","SS1",20,"V","Valence","sn1sjn",1,"continue","",2594,2591,2594,2594,2591,2594,1,2594,0,0,NA,"Click To Continue","Continue Button",1,"object-25","V","CFD-WM-019-003-S.jpeg",1,NA,NA,"SUPTM91602"
"147",1691078666883,"03/08/2023 16:04:26",1691082266883,1,"03/08/2023 18:04:26",139282,42,"task-ak18",NA,31037390,9203593,NA,"complete",NA,NA,"computer","Desktop or Laptop","Windows 10","Chrome 115.0.0.0","2562x1332","2560x1325",NA,NA,NA,"JV Task P1 (Clone) (study_2)",22,"In","IJHAGBFCED","B (Feedback ranking_L1 First)","study_1 (JV and feedback_list_1)",NA,"In","SS1","SS1",20,"V","Valence","sn1sjn",1,"response","18",758,2591,2596,758,2591,2596,1,758,1838,0,NA,"Slider","J",3,"object-27","V","CFD-WM-019-003-S.jpeg",1,NA,NA,"SUPTM91602"
"148",1691078667858,"03/08/2023 16:04:27",1691082267858,1,"03/08/2023 18:04:27",139282,42,"task-ak18",NA,31037390,9203593,NA,"complete",NA,NA,"computer","Desktop or Laptop","Windows 10","Chrome 115.0.0.0","2562x1332","2560x1325",NA,NA,NA,"JV Task P1 (Clone) (study_2)",22,"In","IJHAGBFCED","B (Feedback ranking_L1 First)","study_1 (JV and feedback_list_1)",NA,"In","SS1","SS1",20,"V","Fixation","aydkg3",2,"continue","",979,979,979,979,979,979,1,979,0,0,NA,"Fixation Timing","Fixation",1,"object-21","V","CFD-WM-019-003-S.jpeg",1,NA,NA,"SUPTM91602"
"149",1691078669167,"03/08/2023 16:04:29",1691082269167,1,"03/08/2023 18:04:29",139282,42,"task-ak18",NA,31037390,9203593,NA,"complete",NA,NA,"computer","Desktop or Laptop","Windows 10","Chrome 115.0.0.0","2562x1332","2560x1325",NA,NA,NA,"JV Task P1 (Clone) (study_2)",22,"In","IJHAGBFCED","B (Feedback ranking_L1 First)","study_1 (JV and feedback_list_1)",NA,"In","SS1","SS1",21,"V","Valence","sn1sjn",1,"continue","",1310,1306,1310,1310,1306,1310,1,1310,0,0,NA,"Click To Continue","Continue Button",1,"object-25","V","CFD-WM-037-025-S.jpeg",1,NA,NA,"SUPTM91602"
"150",1691078669167,"03/08/2023 16:04:29",1691082269167,1,"03/08/2023 18:04:29",139282,42,"task-ak18",NA,31037390,9203593,NA,"complete",NA,NA,"computer","Desktop or Laptop","Windows 10","Chrome 115.0.0.0","2562x1332","2560x1325",NA,NA,NA,"JV Task P1 (Clone) (study_2)",22,"In","IJHAGBFCED","B (Feedback ranking_L1 First)","study_1 (JV and feedback_list_1)",NA,"In","SS1","SS1",21,"V","Valence","sn1sjn",1,"response","29",653,1306,1310,653,1306,1310,1,653,657,0,NA,"Slider","J",3,"object-27","V","CFD-WM-037-025-S.jpeg",1,NA,NA,"SUPTM91602"
"151",1691078670143,"03/08/2023 16:04:30",1691082270143,1,"03/08/2023 18:04:30",139282,42,"task-ak18",NA,31037390,9203593,NA,"complete",NA,NA,"computer","Desktop or Laptop","Windows 10","Chrome 115.0.0.0","2562x1332","2560x1325",NA,NA,NA,"JV Task P1 (Clone) (study_2)",22,"In","IJHAGBFCED","B (Feedback ranking_L1 First)","study_1 (JV and feedback_list_1)",NA,"In","SS1","SS1",21,"V","Fixation","aydkg3",2,"continue","",979,979,979,979,979,979,1,979,0,0,NA,"Fixation Timing","Fixation",1,"object-21","V","CFD-WM-037-025-S.jpeg",1,NA,NA,"SUPTM91602"
"152",1691078671548,"03/08/2023 16:04:31",1691082271548,1,"03/08/2023 18:04:31",139282,42,"task-ak18",NA,31037390,9203593,NA,"complete",NA,NA,"computer","Desktop or Laptop","Windows 10","Chrome 115.0.0.0","2562x1332","2560x1325",NA,NA,NA,"JV Task P1 (Clone) (study_2)",22,"In","IJHAGBFCED","B (Feedback ranking_L1 First)","study_1 (JV and feedback_list_1)",NA,"In","SS1","SS1",29,"J","Judginess","w2ir4b",1,"continue","",1406,1403,1406,1406,1403,1406,1,1406,0,0,NA,"Click To Continue","Continue Button",1,"object-14","J","CFD-AF-233-190-S.jpeg",1,NA,NA,"SUPTM91602"
"153",1691078671548,"03/08/2023 16:04:31",1691082271548,1,"03/08/2023 18:04:31",139282,42,"task-ak18",NA,31037390,9203593,NA,"complete",NA,NA,"computer","Desktop or Laptop","Windows 10","Chrome 115.0.0.0","2562x1332","2560x1325",NA,NA,NA,"JV Task P1 (Clone) (study_2)",22,"In","IJHAGBFCED","B (Feedback ranking_L1 First)","study_1 (JV and feedback_list_1)",NA,"In","SS1","SS1",29,"J","Judginess","w2ir4b",1,"response","31",618,1403,1406,618,1403,1406,1,618,788,0,NA,"Slider","J",3,"object-18","J","CFD-AF-233-190-S.jpeg",1,NA,NA,"SUPTM91602"
"154",1691078672525,"03/08/2023 16:04:32",1691082272525,1,"03/08/2023 18:04:32",139282,42,"task-ak18",NA,31037390,9203593,NA,"complete",NA,NA,"computer","Desktop or Laptop","Windows 10","Chrome 115.0.0.0","2562x1332","2560x1325",NA,NA,NA,"JV Task P1 (Clone) (study_2)",22,"In","IJHAGBFCED","B (Feedback ranking_L1 First)","study_1 (JV and feedback_list_1)",NA,"In","SS1","SS1",29,"J","Fixation","mtm832",2,"continue","",979,979,979,979,979,979,1,979,0,0,NA,"Fixation Timing","Fixation",1,"object-65","J","CFD-AF-233-190-S.jpeg",1,NA,NA,"SUPTM91602"
"155",1691078674857,"03/08/2023 16:04:34",1691082274857,1,"03/08/2023 18:04:34",139282,42,"task-ak18",NA,31037390,9203593,NA,"complete",NA,NA,"computer","Desktop or Laptop","Windows 10","Chrome 115.0.0.0","2562x1332","2560x1325",NA,NA,NA,"JV Task P1 (Clone) (study_2)",22,"In","IJHAGBFCED","B (Feedback ranking_L1 First)","study_1 (JV and feedback_list_1)",NA,"In","SS1","SS1",22,"V","Valence","sn1sjn",1,"continue","",2333,2327,2333,2333,2327,2333,1,2333,0,0,NA,"Click To Continue","Continue Button",1,"object-25","V","CFD-WM-031-003-N.jpg",1,NA,NA,"SUPTM91602"
"156",1691078674857,"03/08/2023 16:04:34",1691082274857,1,"03/08/2023 18:04:34",139282,42,"task-ak18",NA,31037390,9203593,NA,"complete",NA,NA,"computer","Desktop or Laptop","Windows 10","Chrome 115.0.0.0","2562x1332","2560x1325",NA,NA,NA,"JV Task P1 (Clone) (study_2)",22,"In","IJHAGBFCED","B (Feedback ranking_L1 First)","study_1 (JV and feedback_list_1)",NA,"In","SS1","SS1",22,"V","Valence","sn1sjn",1,"response","40",730,2327,2333,730,2327,2333,1,730,1603,0,NA,"Slider","J",3,"object-27","V","CFD-WM-031-003-N.jpg",1,NA,NA,"SUPTM91602"
"157",1691078675830,"03/08/2023 16:04:35",1691082275830,1,"03/08/2023 18:04:35",139282,42,"task-ak18",NA,31037390,9203593,NA,"complete",NA,NA,"computer","Desktop or Laptop","Windows 10","Chrome 115.0.0.0","2562x1332","2560x1325",NA,NA,NA,"JV Task P1 (Clone) (study_2)",22,"In","IJHAGBFCED","B (Feedback ranking_L1 First)","study_1 (JV and feedback_list_1)",NA,"In","SS1","SS1",22,"V","Fixation","aydkg3",2,"continue","",979,979,979,979,979,979,1,979,0,0,NA,"Fixation Timing","Fixation",1,"object-21","V","CFD-WM-031-003-N.jpg",1,NA,NA,"SUPTM91602"
"158",1691078677470,"03/08/2023 16:04:37",1691082277470,1,"03/08/2023 18:04:37",139282,42,"task-ak18",NA,31037390,9203593,NA,"complete",NA,NA,"computer","Desktop or Laptop","Windows 10","Chrome 115.0.0.0","2562x1332","2560x1325",NA,NA,NA,"JV Task P1 (Clone) (study_2)",22,"In","IJHAGBFCED","B (Feedback ranking_L1 First)","study_1 (JV and feedback_list_1)",NA,"In","SS1","SS1",23,"V","Valence","sn1sjn",1,"continue","",1639,1632,1639,1639,1632,1639,1,1639,0,0,NA,"Click To Continue","Continue Button",1,"object-25","V","CFD-WF-035-024-H.jpeg",1,NA,NA,"SUPTM91602"
"159",1691078677472,"03/08/2023 16:04:37",1691082277472,1,"03/08/2023 18:04:37",139282,42,"task-ak18",NA,31037390,9203593,NA,"complete",NA,NA,"computer","Desktop or Laptop","Windows 10","Chrome 115.0.0.0","2562x1332","2560x1325",NA,NA,NA,"JV Task P1 (Clone) (study_2)",22,"In","IJHAGBFCED","B (Feedback ranking_L1 First)","study_1 (JV and feedback_list_1)",NA,"In","SS1","SS1",23,"V","Valence","sn1sjn",1,"response","69",764,1632,1639,764,1632,1639,1,764,875,0,NA,"Slider","J",3,"object-27","V","CFD-WF-035-024-H.jpeg",1,NA,NA,"SUPTM91602"
"160",1691078678442,"03/08/2023 16:04:38",1691082278442,1,"03/08/2023 18:04:38",139282,42,"task-ak18",NA,31037390,9203593,NA,"complete",NA,NA,"computer","Desktop or Laptop","Windows 10","Chrome 115.0.0.0","2562x1332","2560x1325",NA,NA,NA,"JV Task P1 (Clone) (study_2)",22,"In","IJHAGBFCED","B (Feedback ranking_L1 First)","study_1 (JV and feedback_list_1)",NA,"In","SS1","SS1",23,"V","Fixation","aydkg3",2,"continue","",979,979,979,979,979,979,1,979,0,0,NA,"Fixation Timing","Fixation",1,"object-21","V","CFD-WF-035-024-H.jpeg",1,NA,NA,"SUPTM91602"
"161",1691078680346,"03/08/2023 16:04:40",1691082280346,1,"03/08/2023 18:04:40",139282,42,"task-ak18",NA,31037390,9203593,NA,"complete",NA,NA,"computer","Desktop or Laptop","Windows 10","Chrome 115.0.0.0","2562x1332","2560x1325",NA,NA,NA,"JV Task P1 (Clone) (study_2)",22,"In","IJHAGBFCED","B (Feedback ranking_L1 First)","study_1 (JV and feedback_list_1)",NA,"In","SS1","SS1",24,"V","Valence","sn1sjn",1,"continue","",1905,1903,1905,1905,1903,1905,1,1905,0,0,NA,"Click To Continue","Continue Button",1,"object-25","V","CFD-IM-711-011-S.jpeg",1,NA,NA,"SUPTM91602"
"162",1691078680346,"03/08/2023 16:04:40",1691082280346,1,"03/08/2023 18:04:40",139282,42,"task-ak18",NA,31037390,9203593,NA,"complete",NA,NA,"computer","Desktop or Laptop","Windows 10","Chrome 115.0.0.0","2562x1332","2560x1325",NA,NA,NA,"JV Task P1 (Clone) (study_2)",22,"In","IJHAGBFCED","B (Feedback ranking_L1 First)","study_1 (JV and feedback_list_1)",NA,"In","SS1","SS1",24,"V","Valence","sn1sjn",1,"response","14",1084,1903,1905,1084,1903,1905,1,1084,821,0,NA,"Slider","J",3,"object-27","V","CFD-IM-711-011-S.jpeg",1,NA,NA,"SUPTM91602"
"163",1691078681324,"03/08/2023 16:04:41",1691082281324,1,"03/08/2023 18:04:41",139282,42,"task-ak18",NA,31037390,9203593,NA,"complete",NA,NA,"computer","Desktop or Laptop","Windows 10","Chrome 115.0.0.0","2562x1332","2560x1325",NA,NA,NA,"JV Task P1 (Clone) (study_2)",22,"In","IJHAGBFCED","B (Feedback ranking_L1 First)","study_1 (JV and feedback_list_1)",NA,"In","SS1","SS1",24,"V","Fixation","aydkg3",2,"continue","",980,980,980,980,980,980,1,980,0,0,NA,"Fixation Timing","Fixation",1,"object-21","V","CFD-IM-711-011-S.jpeg",1,NA,NA,"SUPTM91602"
"164",1691078683060,"03/08/2023 16:04:43",1691082283060,1,"03/08/2023 18:04:43",139282,42,"task-ak18",NA,31037390,9203593,NA,"complete",NA,NA,"computer","Desktop or Laptop","Windows 10","Chrome 115.0.0.0","2562x1332","2560x1325",NA,NA,NA,"JV Task P1 (Clone) (study_2)",22,"In","IJHAGBFCED","B (Feedback ranking_L1 First)","study_1 (JV and feedback_list_1)",NA,"In","SS1","SS1",25,"V","Valence","sn1sjn",1,"continue","",1736,1729,1736,1736,1729,1736,1,1736,0,0,NA,"Click To Continue","Continue Button",1,"object-25","V","CFD-AM-225-102-S.jpeg",1,NA,NA,"SUPTM91602"
"165",1691078683061,"03/08/2023 16:04:43",1691082283061,1,"03/08/2023 18:04:43",139282,42,"task-ak18",NA,31037390,9203593,NA,"complete",NA,NA,"computer","Desktop or Laptop","Windows 10","Chrome 115.0.0.0","2562x1332","2560x1325",NA,NA,NA,"JV Task P1 (Clone) (study_2)",22,"In","IJHAGBFCED","B (Feedback ranking_L1 First)","study_1 (JV and feedback_list_1)",NA,"In","SS1","SS1",25,"V","Valence","sn1sjn",1,"response","31",896,1729,1736,896,1729,1736,1,896,840,0,NA,"Slider","J",3,"object-27","V","CFD-AM-225-102-S.jpeg",1,NA,NA,"SUPTM91602"
"166",1691078684033,"03/08/2023 16:04:44",1691082284033,1,"03/08/2023 18:04:44",139282,42,"task-ak18",NA,31037390,9203593,NA,"complete",NA,NA,"computer","Desktop or Laptop","Windows 10","Chrome 115.0.0.0","2562x1332","2560x1325",NA,NA,NA,"JV Task P1 (Clone) (study_2)",22,"In","IJHAGBFCED","B (Feedback ranking_L1 First)","study_1 (JV and feedback_list_1)",NA,"In","SS1","SS1",25,"V","Fixation","aydkg3",2,"continue","",979,979,979,979,979,979,1,979,0,0,NA,"Fixation Timing","Fixation",1,"object-21","V","CFD-AM-225-102-S.jpeg",1,NA,NA,"SUPTM91602"
"167",1691078685483,"03/08/2023 16:04:45",1691082285483,1,"03/08/2023 18:04:45",139282,42,"task-ak18",NA,31037390,9203593,NA,"complete",NA,NA,"computer","Desktop or Laptop","Windows 10","Chrome 115.0.0.0","2562x1332","2560x1325",NA,NA,NA,"JV Task P1 (Clone) (study_2)",22,"In","IJHAGBFCED","B (Feedback ranking_L1 First)","study_1 (JV and feedback_list_1)",NA,"In","SS1","SS1",30,"J","Judginess","w2ir4b",1,"continue","",1452,1445,1452,1452,1445,1452,1,1452,0,0,NA,"Click To Continue","Continue Button",1,"object-14","J","CFD-AF-250-200-N.jpg",1,NA,NA,"SUPTM91602"
"168",1691078685484,"03/08/2023 16:04:45",1691082285484,1,"03/08/2023 18:04:45",139282,42,"task-ak18",NA,31037390,9203593,NA,"complete",NA,NA,"computer","Desktop or Laptop","Windows 10","Chrome 115.0.0.0","2562x1332","2560x1325",NA,NA,NA,"JV Task P1 (Clone) (study_2)",22,"In","IJHAGBFCED","B (Feedback ranking_L1 First)","study_1 (JV and feedback_list_1)",NA,"In","SS1","SS1",30,"J","Judginess","w2ir4b",1,"response","39",750,1445,1452,750,1445,1452,1,750,702,0,NA,"Slider","J",3,"object-18","J","CFD-AF-250-200-N.jpg",1,NA,NA,"SUPTM91602"
"169",1691078686456,"03/08/2023 16:04:46",1691082286456,1,"03/08/2023 18:04:46",139282,42,"task-ak18",NA,31037390,9203593,NA,"complete",NA,NA,"computer","Desktop or Laptop","Windows 10","Chrome 115.0.0.0","2562x1332","2560x1325",NA,NA,NA,"JV Task P1 (Clone) (study_2)",22,"In","IJHAGBFCED","B (Feedback ranking_L1 First)","study_1 (JV and feedback_list_1)",NA,"In","SS1","SS1",30,"J","Fixation","mtm832",2,"continue","",979,979,979,979,979,979,1,979,0,0,NA,"Fixation Timing","Fixation",1,"object-65","J","CFD-AF-250-200-N.jpg",1,NA,NA,"SUPTM91602"
"170",1691078688600,"03/08/2023 16:04:48",1691082288600,1,"03/08/2023 18:04:48",139282,42,"task-ak18",NA,31037390,9203593,NA,"complete",NA,NA,"computer","Desktop or Laptop","Windows 10","Chrome 115.0.0.0","2562x1332","2560x1325",NA,NA,NA,"JV Task P1 (Clone) (study_2)",22,"In","IJHAGBFCED","B (Feedback ranking_L1 First)","study_1 (JV and feedback_list_1)",NA,"In","SS1","SS1",26,"V","Valence","sn1sjn",1,"continue","",2144,2139,2144,2144,2139,2144,1,2144,0,0,NA,"Click To Continue","Continue Button",1,"object-25","V","CFD-WF-009-001-N.jpg",1,NA,NA,"SUPTM91602"
"171",1691078688602,"03/08/2023 16:04:48",1691082288602,1,"03/08/2023 18:04:48",139282,42,"task-ak18",NA,31037390,9203593,NA,"complete",NA,NA,"computer","Desktop or Laptop","Windows 10","Chrome 115.0.0.0","2562x1332","2560x1325",NA,NA,NA,"JV Task P1 (Clone) (study_2)",22,"In","IJHAGBFCED","B (Feedback ranking_L1 First)","study_1 (JV and feedback_list_1)",NA,"In","SS1","SS1",26,"V","Valence","sn1sjn",1,"response","19",1035,2139,2145,1035,2139,2145,1,1035,1110,0,NA,"Slider","J",3,"object-27","V","CFD-WF-009-001-N.jpg",1,NA,NA,"SUPTM91602"
"172",1691078689575,"03/08/2023 16:04:49",1691082289575,1,"03/08/2023 18:04:49",139282,42,"task-ak18",NA,31037390,9203593,NA,"complete",NA,NA,"computer","Desktop or Laptop","Windows 10","Chrome 115.0.0.0","2562x1332","2560x1325",NA,NA,NA,"JV Task P1 (Clone) (study_2)",22,"In","IJHAGBFCED","B (Feedback ranking_L1 First)","study_1 (JV and feedback_list_1)",NA,"In","SS1","SS1",26,"V","Fixation","aydkg3",2,"continue","",979,979,979,979,979,979,1,979,0,0,NA,"Fixation Timing","Fixation",1,"object-21","V","CFD-WF-009-001-N.jpg",1,NA,NA,"SUPTM91602"
"173",1691078690911,"03/08/2023 16:04:50",1691082290911,1,"03/08/2023 18:04:50",139282,42,"task-ak18",NA,31037390,9203593,NA,"complete",NA,NA,"computer","Desktop or Laptop","Windows 10","Chrome 115.0.0.0","2562x1332","2560x1325",NA,NA,NA,"JV Task P1 (Clone) (study_2)",22,"In","IJHAGBFCED","B (Feedback ranking_L1 First)","study_1 (JV and feedback_list_1)",NA,"In","SS1","SS1",27,"V","Valence","sn1sjn",1,"continue","",1337,1334,1337,1337,1334,1337,1,1337,0,0,NA,"Click To Continue","Continue Button",1,"object-25","V","CFD-AF-211-066-S.jpeg",1,NA,NA,"SUPTM91602"
"174",1691078690911,"03/08/2023 16:04:50",1691082290911,1,"03/08/2023 18:04:50",139282,42,"task-ak18",NA,31037390,9203593,NA,"complete",NA,NA,"computer","Desktop or Laptop","Windows 10","Chrome 115.0.0.0","2562x1332","2560x1325",NA,NA,NA,"JV Task P1 (Clone) (study_2)",22,"In","IJHAGBFCED","B (Feedback ranking_L1 First)","study_1 (JV and feedback_list_1)",NA,"In","SS1","SS1",27,"V","Valence","sn1sjn",1,"response","24",730,1334,1337,730,1334,1337,1,730,607,0,NA,"Slider","J",3,"object-27","V","CFD-AF-211-066-S.jpeg",1,NA,NA,"SUPTM91602"
"175",1691078691887,"03/08/2023 16:04:51",1691082291887,1,"03/08/2023 18:04:51",139282,42,"task-ak18",NA,31037390,9203593,NA,"complete",NA,NA,"computer","Desktop or Laptop","Windows 10","Chrome 115.0.0.0","2562x1332","2560x1325",NA,NA,NA,"JV Task P1 (Clone) (study_2)",22,"In","IJHAGBFCED","B (Feedback ranking_L1 First)","study_1 (JV and feedback_list_1)",NA,"In","SS1","SS1",27,"V","Fixation","aydkg3",2,"continue","",979,979,979,979,979,979,1,979,0,0,NA,"Fixation Timing","Fixation",1,"object-21","V","CFD-AF-211-066-S.jpeg",1,NA,NA,"SUPTM91602"
"176",1691078693358,"03/08/2023 16:04:53",1691082293358,1,"03/08/2023 18:04:53",139282,42,"task-ak18",NA,31037390,9203593,NA,"complete",NA,NA,"computer","Desktop or Laptop","Windows 10","Chrome 115.0.0.0","2562x1332","2560x1325",NA,NA,NA,"JV Task P1 (Clone) (study_2)",22,"In","IJHAGBFCED","B (Feedback ranking_L1 First)","study_1 (JV and feedback_list_1)",NA,"In","SS1","SS1",31,"J","Judginess","w2ir4b",1,"continue","",1470,1465,1470,1470,1465,1470,1,1470,0,0,NA,"Click To Continue","Continue Button",1,"object-14","J","CFD-BF-040-003-N.jpg",1,NA,NA,"SUPTM91602"
"177",1691078693358,"03/08/2023 16:04:53",1691082293358,1,"03/08/2023 18:04:53",139282,42,"task-ak18",NA,31037390,9203593,NA,"complete",NA,NA,"computer","Desktop or Laptop","Windows 10","Chrome 115.0.0.0","2562x1332","2560x1325",NA,NA,NA,"JV Task P1 (Clone) (study_2)",22,"In","IJHAGBFCED","B (Feedback ranking_L1 First)","study_1 (JV and feedback_list_1)",NA,"In","SS1","SS1",31,"J","Judginess","w2ir4b",1,"response","25",715,1465,1471,715,1465,1471,1,715,756,0,NA,"Slider","J",3,"object-18","J","CFD-BF-040-003-N.jpg",1,NA,NA,"SUPTM91602"
"178",1691078694333,"03/08/2023 16:04:54",1691082294333,1,"03/08/2023 18:04:54",139282,42,"task-ak18",NA,31037390,9203593,NA,"complete",NA,NA,"computer","Desktop or Laptop","Windows 10","Chrome 115.0.0.0","2562x1332","2560x1325",NA,NA,NA,"JV Task P1 (Clone) (study_2)",22,"In","IJHAGBFCED","B (Feedback ranking_L1 First)","study_1 (JV and feedback_list_1)",NA,"In","SS1","SS1",31,"J","Fixation","mtm832",2,"continue","",980,980,980,980,980,980,1,980,0,0,NA,"Fixation Timing","Fixation",1,"object-65","J","CFD-BF-040-003-N.jpg",1,NA,NA,"SUPTM91602"
"179",1691078695785,"03/08/2023 16:04:55",1691082295785,1,"03/08/2023 18:04:55",139282,42,"task-ak18",NA,31037390,9203593,NA,"complete",NA,NA,"computer","Desktop or Laptop","Windows 10","Chrome 115.0.0.0","2562x1332","2560x1325",NA,NA,NA,"JV Task P1 (Clone) (study_2)",22,"In","IJHAGBFCED","B (Feedback ranking_L1 First)","study_1 (JV and feedback_list_1)",NA,"In","SS1","SS1",32,"J","Judginess","w2ir4b",1,"continue","",1452,1451,1452,1452,1451,1452,1,1452,0,0,NA,"Click To Continue","Continue Button",1,"object-14","J","CFD-WF-017-003-S.jpeg",1,NA,NA,"SUPTM91602"
