"Event.Index","UTC.Timestamp","UTC.Date.and.Time","Local.Timestamp","Local.Timezone","Local.Date.and.Time","Experiment.ID","Experiment.Version","Tree.Node.Key","Repeat.Key","Schedule.ID","Participant.Private.ID","Participant.Starting.Group","Participant.Status","Participant.Completion.Code","Participant.External.Session.ID","Participant.Device.Type","Participant.Device","Participant.OS","Participant.Browser","Participant.Monitor.Size","Participant.Viewport.Size","Checkpoint","Room.ID","Room.Order","Task.Name","Task.Version","branch.hkzp","order.ot79","randomiser.lqqr","randomiser.28m8","randomiser.tf5j","branch.vlgf","Spreadsheet","Current.Spreadsheet","Trial.Number","Display","Screen","Screen.ID","Screen.Counter","Response.Type","Response","Onset.Time","Clock.Time","Reaction.Time","Absolute.Onset.Time","Absolute.Clock.Time","Absolute.Reaction.Time","Correct","Response.Onset","Response.Duration","Proportion","Tag","Component.Name","Object.Name","Object.Number","Object.ID","Spreadsheet..display","Spreadsheet..stimulus","Spreadsheet..P","Spreadsheet..N","Manipulation..Spreadsheet","Random_ID"
"1",1691004334239,"02/08/2023 19:25:34",1691007934239,1,"02/08/2023 21:25:34",139282,42,"task-s9co",NA,31015665,9199072,NA,"complete",NA,NA,"computer","Desktop or Laptop","Linux x86_64","Chrome 114.0.0.0","1920x1080","1920x905",NA,NA,NA,"Video Feedback Task (Clone)",6,"In","HIGJFAEBDC",NA,"study_2 (video_feedback and feedback_list_2)","VF_1st","In",1,1,NA,"","","",NA,"5","BEGIN",NA,NA,NA,NA,NA,NA,0,NA,NA,NA,NA,"","",NA,"","","","","",NA,"SUPTM61449"
"2",1691004387522,"02/08/2023 19:26:27",1691007987522,1,"02/08/2023 21:26:27",139282,42,"task-s9co",NA,31015665,9199072,NA,"complete",NA,NA,"computer","Desktop or Laptop","Linux x86_64","Chrome 114.0.0.0","1920x1080","1920x905",NA,NA,NA,"Video Feedback Task (Clone)",6,"In","HIGJFAEBDC",NA,"study_2 (video_feedback and feedback_list_2)","VF_1st","In",1,1,1,"Neutral Feedback","Screen 1","3zrml3",1,"continue","",53050.23,53033.556,53050.23,53050.23,53033.556,53050.23,1,53050.23,0,0,NA,"Click To Continue","Continue Button",1,"object-155","Neutral Feedback","P2_N.mp4","Screenshot 2023-06-30 at 15.00.42.png","Screenshot 2023-06-30 at 15.00.55.png",NA,"SUPTM61449"
"3",1691004387530,"02/08/2023 19:26:27",1691007987530,1,"02/08/2023 21:26:27",139282,42,"task-s9co",NA,31015665,9199072,NA,"complete",NA,NA,"computer","Desktop or Laptop","Linux x86_64","Chrome 114.0.0.0","1920x1080","1920x905",NA,NA,NA,"Video Feedback Task (Clone)",6,"In","HIGJFAEBDC",NA,"study_2 (video_feedback and feedback_list_2)","VF_1st","In",1,1,1,"Neutral Feedback","Screen 1","3zrml3",1,"response","She retains the ability to paint an accurate picture.",39050.149,53033.556,53050.23,39050.149,53033.556,53050.23,1,39050.149,14000.081,0,NA,"Text Entry","Text Entry",4,"object-158","Neutral Feedback","P2_N.mp4","Screenshot 2023-06-30 at 15.00.42.png","Screenshot 2023-06-30 at 15.00.55.png",NA,"SUPTM61449"
"4",1691004387531,"02/08/2023 19:26:27",1691007987531,1,"02/08/2023 21:26:27",139282,42,"task-s9co",NA,31015665,9199072,NA,"complete",NA,NA,"computer","Desktop or Laptop","Linux x86_64","Chrome 114.0.0.0","1920x1080","1920x905",NA,NA,NA,"Video Feedback Task (Clone)",6,"In","HIGJFAEBDC",NA,"study_2 (video_feedback and feedback_list_2)","VF_1st","In",1,1,1,"Neutral Feedback","Screen 1","3zrml3",1,"response","She lists in sequence the objects in the video.",28200.103,53033.556,53050.23,28200.103,53033.556,53050.23,1,28200.103,24850.127,0,NA,"Text Entry","Text Entry",5,"object-159","Neutral Feedback","P2_N.mp4","Screenshot 2023-06-30 at 15.00.42.png","Screenshot 2023-06-30 at 15.00.55.png",NA,"SUPTM61449"
"5",1691004388472,"02/08/2023 19:26:28",1691007988472,1,"02/08/2023 21:26:28",139282,42,"task-s9co",NA,31015665,9199072,NA,"complete",NA,NA,"computer","Desktop or Laptop","Linux x86_64","Chrome 114.0.0.0","1920x1080","1920x905",NA,NA,NA,"Video Feedback Task (Clone)",6,"In","HIGJFAEBDC",NA,"study_2 (video_feedback and feedback_list_2)","VF_1st","In",1,1,1,"Neutral Feedback","Screen 2","vv4mhq",2,"continue","",966.665000000001,966.665000000001,966.665000000001,966.665000000001,966.665000000001,966.665000000001,1,966.665000000001,0,0,NA,"Fixation Timing","Fixation",1,"object-153","Neutral Feedback","P2_N.mp4","Screenshot 2023-06-30 at 15.00.42.png","Screenshot 2023-06-30 at 15.00.55.png",NA,"SUPTM61449"
"6",1691004435896,"02/08/2023 19:27:15",1691008035896,1,"02/08/2023 21:27:15",139282,42,"task-s9co",NA,31015665,9199072,NA,"complete",NA,NA,"computer","Desktop or Laptop","Linux x86_64","Chrome 114.0.0.0","1920x1080","1920x905",NA,NA,NA,"Video Feedback Task (Clone)",6,"In","HIGJFAEBDC",NA,"study_2 (video_feedback and feedback_list_2)","VF_1st","In",1,1,1,"Positive Feedback","Video","w2ir4b",1,"continue","",47425.7890000006,47416.868,47425.7890000006,47425.7890000006,47416.868,47425.7890000006,1,47425.7890000006,0,0,NA,"Click To Continue","Continue Button",1,"object-14","Positive Feedback","P5_P.mp4","Screenshot 2023-06-30 at 15.00.42.png","Screenshot 2023-06-30 at 15.02.01.png",NA,"SUPTM61449"
"7",1691004435902,"02/08/2023 19:27:15",1691008035902,1,"02/08/2023 21:27:15",139282,42,"task-s9co",NA,31015665,9199072,NA,"complete",NA,NA,"computer","Desktop or Laptop","Linux x86_64","Chrome 114.0.0.0","1920x1080","1920x905",NA,NA,NA,"Video Feedback Task (Clone)",6,"In","HIGJFAEBDC",NA,"study_2 (video_feedback and feedback_list_2)","VF_1st","In",1,1,1,"Positive Feedback","Video","w2ir4b",1,"response","Her speech is concise and doesn't drag on.",26800.104,47416.868,47431.9890000007,26800.104,47416.868,47431.9890000007,1,26800.104,20631.8850000008,0,NA,"Text Entry","Text Entry",4,"object-19","Positive Feedback","P5_P.mp4","Screenshot 2023-06-30 at 15.00.42.png","Screenshot 2023-06-30 at 15.02.01.png",NA,"SUPTM61449"
"8",1691004435903,"02/08/2023 19:27:15",1691008035903,1,"02/08/2023 21:27:15",139282,42,"task-s9co",NA,31015665,9199072,NA,"complete",NA,NA,"computer","Desktop or Laptop","Linux x86_64","Chrome 114.0.0.0","1920x1080","1920x905",NA,NA,NA,"Video Feedback Task (Clone)",6,"In","HIGJFAEBDC",NA,"study_2 (video_feedback and feedback_list_2)","VF_1st","In",1,1,1,"Positive Feedback","Video","w2ir4b",1,"response","She gives detail to paint an accurate picture.",12600.053,47416.868,47432.9890000007,12600.053,47416.868,47432.9890000007,1,12600.053,34832.9360000007,0,NA,"Text Entry","Text Entry",5,"object-20","Positive Feedback","P5_P.mp4","Screenshot 2023-06-30 at 15.00.42.png","Screenshot 2023-06-30 at 15.02.01.png",NA,"SUPTM61449"
"9",1691004436855,"02/08/2023 19:27:16",1691008036855,1,"02/08/2023 21:27:16",139282,42,"task-s9co",NA,31015665,9199072,NA,"complete",NA,NA,"computer","Desktop or Laptop","Linux x86_64","Chrome 114.0.0.0","1920x1080","1920x905",NA,NA,NA,"Video Feedback Task (Clone)",6,"In","HIGJFAEBDC",NA,"study_2 (video_feedback and feedback_list_2)","VF_1st","In",1,1,1,"Positive Feedback","Fixation","mtm832",2,"continue","",966.667999999991,966.667999999991,966.667999999991,966.667999999991,966.667999999991,966.667999999991,1,966.667999999991,0,0,NA,"Fixation Timing","Fixation",1,"object-65","Positive Feedback","P5_P.mp4","Screenshot 2023-06-30 at 15.00.42.png","Screenshot 2023-06-30 at 15.02.01.png",NA,"SUPTM61449"
"10",1691004474337,"02/08/2023 19:27:54",1691008074337,1,"02/08/2023 21:27:54",139282,42,"task-s9co",NA,31015665,9199072,NA,"complete",NA,NA,"computer","Desktop or Laptop","Linux x86_64","Chrome 114.0.0.0","1920x1080","1920x905",NA,NA,NA,"Video Feedback Task (Clone)",6,"In","HIGJFAEBDC",NA,"study_2 (video_feedback and feedback_list_2)","VF_1st","In",1,1,2,"Positive Feedback","Video","w2ir4b",1,"continue","",37483.49,37466.824,37483.49,37483.49,37466.824,37483.49,1,37483.49,0,0,NA,"Click To Continue","Continue Button",1,"object-14","Positive Feedback","P2_P.mp4","Screenshot 2023-06-30 at 15.00.42.png","Screenshot 2023-06-30 at 15.00.55.png",NA,"SUPTM61449"
"11",1691004474347,"02/08/2023 19:27:54",1691008074347,1,"02/08/2023 21:27:54",139282,42,"task-s9co",NA,31015665,9199072,NA,"complete",NA,NA,"computer","Desktop or Laptop","Linux x86_64","Chrome 114.0.0.0","1920x1080","1920x905",NA,NA,NA,"Video Feedback Task (Clone)",6,"In","HIGJFAEBDC",NA,"study_2 (video_feedback and feedback_list_2)","VF_1st","In",1,1,2,"Positive Feedback","Video","w2ir4b",1,"response","She offers her own input.",32366.802,37466.824,37483.49,32366.802,37466.824,37483.49,1,32366.802,5116.68799999999,0,NA,"Text Entry","Text Entry",4,"object-19","Positive Feedback","P2_P.mp4","Screenshot 2023-06-30 at 15.00.42.png","Screenshot 2023-06-30 at 15.00.55.png",NA,"SUPTM61449"
"12",1691004474348,"02/08/2023 19:27:54",1691008074348,1,"02/08/2023 21:27:54",139282,42,"task-s9co",NA,31015665,9199072,NA,"complete",NA,NA,"computer","Desktop or Laptop","Linux x86_64","Chrome 114.0.0.0","1920x1080","1920x905",NA,NA,NA,"Video Feedback Task (Clone)",6,"In","HIGJFAEBDC",NA,"study_2 (video_feedback and feedback_list_2)","VF_1st","In",1,1,2,"Positive Feedback","Video","w2ir4b",1,"response","She gives detail about the small things.",16033.406,37466.824,37483.49,16033.406,37466.824,37483.49,1,16033.406,21450.084,0,NA,"Text Entry","Text Entry",5,"object-20","Positive Feedback","P2_P.mp4","Screenshot 2023-06-30 at 15.00.42.png","Screenshot 2023-06-30 at 15.00.55.png",NA,"SUPTM61449"
"13",1691004475288,"02/08/2023 19:27:55",1691008075288,1,"02/08/2023 21:27:55",139282,42,"task-s9co",NA,31015665,9199072,NA,"complete",NA,NA,"computer","Desktop or Laptop","Linux x86_64","Chrome 114.0.0.0","1920x1080","1920x905",NA,NA,NA,"Video Feedback Task (Clone)",6,"In","HIGJFAEBDC",NA,"study_2 (video_feedback and feedback_list_2)","VF_1st","In",1,1,2,"Positive Feedback","Fixation","mtm832",2,"continue","",966.671000000002,966.671000000002,966.671000000002,966.671000000002,966.671000000002,966.671000000002,1,966.671000000002,0,0,NA,"Fixation Timing","Fixation",1,"object-65","Positive Feedback","P2_P.mp4","Screenshot 2023-06-30 at 15.00.42.png","Screenshot 2023-06-30 at 15.00.55.png",NA,"SUPTM61449"
"14",1691004569466,"02/08/2023 19:29:29",1691008169466,1,"02/08/2023 21:29:29",139282,42,"task-s9co",NA,31015665,9199072,NA,"complete",NA,NA,"computer","Desktop or Laptop","Linux x86_64","Chrome 114.0.0.0","1920x1080","1920x905",NA,NA,NA,"Video Feedback Task (Clone)",6,"In","HIGJFAEBDC",NA,"study_2 (video_feedback and feedback_list_2)","VF_1st","In",1,1,2,"Neutral Feedback","Screen 1","3zrml3",1,"continue","",94178.658,94167.038,94178.658,94178.658,94167.038,94178.658,1,94178.658,0,0,NA,"Click To Continue","Continue Button",1,"object-155","Neutral Feedback","P3_N.mp4","Screenshot 2023-06-30 at 15.01.08.png","Screenshot 2023-06-30 at 15.00.55.png",NA,"SUPTM61449"
"15",1691004569475,"02/08/2023 19:29:29",1691008169475,1,"02/08/2023 21:29:29",139282,42,"task-s9co",NA,31015665,9199072,NA,"complete",NA,NA,"computer","Desktop or Laptop","Linux x86_64","Chrome 114.0.0.0","1920x1080","1920x905",NA,NA,NA,"Video Feedback Task (Clone)",6,"In","HIGJFAEBDC",NA,"study_2 (video_feedback and feedback_list_2)","VF_1st","In",1,1,2,"Neutral Feedback","Screen 1","3zrml3",1,"response","The background is mentioned.",83433.668,94167.038,94183.704,83433.668,94167.038,94183.704,1,83433.668,10750.036,0,NA,"Text Entry","Text Entry",4,"object-158","Neutral Feedback","P3_N.mp4","Screenshot 2023-06-30 at 15.01.08.png","Screenshot 2023-06-30 at 15.00.55.png",NA,"SUPTM61449"
"16",1691004569476,"02/08/2023 19:29:29",1691008169476,1,"02/08/2023 21:29:29",139282,42,"task-s9co",NA,31015665,9199072,NA,"complete",NA,NA,"computer","Desktop or Laptop","Linux x86_64","Chrome 114.0.0.0","1920x1080","1920x905",NA,NA,NA,"Video Feedback Task (Clone)",6,"In","HIGJFAEBDC",NA,"study_2 (video_feedback and feedback_list_2)","VF_1st","In",1,1,2,"Neutral Feedback","Screen 1","3zrml3",1,"response","He makes an attempt to describe features.",28266.771,94167.038,94183.704,28266.771,94167.038,94183.704,1,28266.771,65916.933,0,NA,"Text Entry","Text Entry",5,"object-159","Neutral Feedback","P3_N.mp4","Screenshot 2023-06-30 at 15.01.08.png","Screenshot 2023-06-30 at 15.00.55.png",NA,"SUPTM61449"
"17",1691004570421,"02/08/2023 19:29:30",1691008170421,1,"02/08/2023 21:29:30",139282,42,"task-s9co",NA,31015665,9199072,NA,"complete",NA,NA,"computer","Desktop or Laptop","Linux x86_64","Chrome 114.0.0.0","1920x1080","1920x905",NA,NA,NA,"Video Feedback Task (Clone)",6,"In","HIGJFAEBDC",NA,"study_2 (video_feedback and feedback_list_2)","VF_1st","In",1,1,2,"Neutral Feedback","Screen 2","vv4mhq",2,"continue","",966.677999999985,966.677999999985,966.677999999985,966.677999999985,966.677999999985,966.677999999985,1,966.677999999985,0,0,NA,"Fixation Timing","Fixation",1,"object-153","Neutral Feedback","P3_N.mp4","Screenshot 2023-06-30 at 15.01.08.png","Screenshot 2023-06-30 at 15.00.55.png",NA,"SUPTM61449"
"18",1691004647065,"02/08/2023 19:30:47",1691008247065,1,"02/08/2023 21:30:47",139282,42,"task-s9co",NA,31015665,9199072,NA,"complete",NA,NA,"computer","Desktop or Laptop","Linux x86_64","Chrome 114.0.0.0","1920x1080","1920x905",NA,NA,NA,"Video Feedback Task (Clone)",6,"In","HIGJFAEBDC",NA,"study_2 (video_feedback and feedback_list_2)","VF_1st","In",1,1,3,"Positive Feedback","Video","w2ir4b",1,"continue","",76644.2420000008,76633.632,76644.2420000008,76644.2420000008,76633.632,76644.2420000008,1,76644.2420000008,0,0,NA,"Click To Continue","Continue Button",1,"object-14","Positive Feedback","P1_P.mp4","Screenshot 2023-06-30 at 15.01.08.png","Screenshot 2023-06-30 at 15.02.01.png",NA,"SUPTM61449"
"19",1691004647073,"02/08/2023 19:30:47",1691008247073,1,"02/08/2023 21:30:47",139282,42,"task-s9co",NA,31015665,9199072,NA,"complete",NA,NA,"computer","Desktop or Laptop","Linux x86_64","Chrome 114.0.0.0","1920x1080","1920x905",NA,NA,NA,"Video Feedback Task (Clone)",6,"In","HIGJFAEBDC",NA,"study_2 (video_feedback and feedback_list_2)","VF_1st","In",1,1,3,"Positive Feedback","Video","w2ir4b",1,"response","She pays attention to the fine details.",63883.578,76633.632,76650.298,63883.578,76633.632,76650.298,1,63883.578,12766.72,0,NA,"Text Entry","Text Entry",4,"object-19","Positive Feedback","P1_P.mp4","Screenshot 2023-06-30 at 15.01.08.png","Screenshot 2023-06-30 at 15.02.01.png",NA,"SUPTM61449"
"20",1691004647075,"02/08/2023 19:30:47",1691008247075,1,"02/08/2023 21:30:47",139282,42,"task-s9co",NA,31015665,9199072,NA,"complete",NA,NA,"computer","Desktop or Laptop","Linux x86_64","Chrome 114.0.0.0","1920x1080","1920x905",NA,NA,NA,"Video Feedback Task (Clone)",6,"In","HIGJFAEBDC",NA,"study_2 (video_feedback and feedback_list_2)","VF_1st","In",1,1,3,"Positive Feedback","Video","w2ir4b",1,"response","She mentions about the diversity of the group.",30016.762,76633.632,76650.298,30016.762,76633.632,76650.298,1,30016.762,46633.536,0,NA,"Text Entry","Text Entry",5,"object-20","Positive Feedback","P1_P.mp4","Screenshot 2023-06-30 at 15.01.08.png","Screenshot 2023-06-30 at 15.02.01.png",NA,"SUPTM61449"
"21",1691004648022,"02/08/2023 19:30:48",1691008248022,1,"02/08/2023 21:30:48",139282,42,"task-s9co",NA,31015665,9199072,NA,"complete",NA,NA,"computer","Desktop or Laptop","Linux x86_64","Chrome 114.0.0.0","1920x1080","1920x905",NA,NA,NA,"Video Feedback Task (Clone)",6,"In","HIGJFAEBDC",NA,"study_2 (video_feedback and feedback_list_2)","VF_1st","In",1,1,3,"Positive Feedback","Fixation","mtm832",2,"continue","",966.684999999998,966.684999999998,966.684999999998,966.684999999998,966.684999999998,966.684999999998,1,966.684999999998,0,0,NA,"Fixation Timing","Fixation",1,"object-65","Positive Feedback","P1_P.mp4","Screenshot 2023-06-30 at 15.01.08.png","Screenshot 2023-06-30 at 15.02.01.png",NA,"SUPTM61449"
"22",1691004865086,"02/08/2023 19:34:25",1691008465086,1,"02/08/2023 21:34:25",139282,42,"task-s9co",NA,31015665,9199072,NA,"complete",NA,NA,"computer","Desktop or Laptop","Linux x86_64","Chrome 114.0.0.0","1920x1080","1920x905",NA,NA,NA,"Video Feedback Task (Clone)",6,"In","HIGJFAEBDC",NA,"study_2 (video_feedback and feedback_list_2)","VF_1st","In",1,1,3,"Neutral Feedback","Screen 1","3zrml3",1,"continue","",217064.425000001,217050.86,217064.425000001,217064.425000001,217050.86,217064.425000001,1,217064.425000001,0,0,NA,"Click To Continue","Continue Button",1,"object-155","Neutral Feedback","P4_N.mp4","Screenshot 2023-06-30 at 15.00.42.png","Screenshot 2023-06-30 at 15.02.01.png",NA,"SUPTM61449"
"23",1691004865102,"02/08/2023 19:34:25",1691008465102,1,"02/08/2023 21:34:25",139282,42,"task-s9co",NA,31015665,9199072,NA,"complete",NA,NA,"computer","Desktop or Laptop","Linux x86_64","Chrome 114.0.0.0","1920x1080","1920x905",NA,NA,NA,"Video Feedback Task (Clone)",6,"In","HIGJFAEBDC",NA,"study_2 (video_feedback and feedback_list_2)","VF_1st","In",1,1,3,"Neutral Feedback","Screen 1","3zrml3",1,"response","She is understandable, accent wise.",208534.146,217050.86,217067.526,208534.146,217050.86,217067.526,1,208534.146,8533.37999999995,0,NA,"Text Entry","Text Entry",4,"object-158","Neutral Feedback","P4_N.mp4","Screenshot 2023-06-30 at 15.00.42.png","Screenshot 2023-06-30 at 15.02.01.png",NA,"SUPTM61449"
"24",1691004865103,"02/08/2023 19:34:25",1691008465103,1,"02/08/2023 21:34:25",139282,42,"task-s9co",NA,31015665,9199072,NA,"complete",NA,NA,"computer","Desktop or Laptop","Linux x86_64","Chrome 114.0.0.0","1920x1080","1920x905",NA,NA,NA,"Video Feedback Task (Clone)",6,"In","HIGJFAEBDC",NA,"study_2 (video_feedback and feedback_list_2)","VF_1st","In",1,1,3,"Neutral Feedback","Screen 1","3zrml3",1,"response"," She describes the lighting and backdrop.",7466.70000000001,217050.86,217067.526,7466.70000000001,217050.86,217067.526,1,7466.70000000001,209600.826,0,NA,"Text Entry","Text Entry",5,"object-159","Neutral Feedback","P4_N.mp4","Screenshot 2023-06-30 at 15.00.42.png","Screenshot 2023-06-30 at 15.02.01.png",NA,"SUPTM61449"
"25",1691004866040,"02/08/2023 19:34:26",1691008466040,1,"02/08/2023 21:34:26",139282,42,"task-s9co",NA,31015665,9199072,NA,"complete",NA,NA,"computer","Desktop or Laptop","Linux x86_64","Chrome 114.0.0.0","1920x1080","1920x905",NA,NA,NA,"Video Feedback Task (Clone)",6,"In","HIGJFAEBDC",NA,"study_2 (video_feedback and feedback_list_2)","VF_1st","In",1,1,3,"Neutral Feedback","Screen 2","vv4mhq",2,"continue","",966.675999999978,966.675999999978,966.675999999978,966.675999999978,966.675999999978,966.675999999978,1,966.675999999978,0,0,NA,"Fixation Timing","Fixation",1,"object-153","Neutral Feedback","P4_N.mp4","Screenshot 2023-06-30 at 15.00.42.png","Screenshot 2023-06-30 at 15.02.01.png",NA,"SUPTM61449"
"26",1691005085464,"02/08/2023 19:38:05",1691008685464,1,"02/08/2023 21:38:05",139282,42,"task-s9co",NA,31015665,9199072,NA,"complete",NA,NA,"computer","Desktop or Laptop","Linux x86_64","Chrome 114.0.0.0","1920x1080","1920x905",NA,NA,NA,"Video Feedback Task (Clone)",6,"In","HIGJFAEBDC",NA,"study_2 (video_feedback and feedback_list_2)","VF_1st","In",1,1,4,"Positive Feedback","Video","w2ir4b",1,"continue","",219426.189000001,219417.533,219426.189000001,219426.189000001,219417.533,219426.189000001,1,219426.189000001,0,0,NA,"Click To Continue","Continue Button",1,"object-14","Positive Feedback","P3_P.mp4","Screenshot 2023-06-30 at 15.01.08.png","Screenshot 2023-06-30 at 15.00.55.png",NA,"SUPTM61449"
"27",1691005085468,"02/08/2023 19:38:05",1691008685468,1,"02/08/2023 21:38:05",139282,42,"task-s9co",NA,31015665,9199072,NA,"complete",NA,NA,"computer","Desktop or Laptop","Linux x86_64","Chrome 114.0.0.0","1920x1080","1920x905",NA,NA,NA,"Video Feedback Task (Clone)",6,"In","HIGJFAEBDC",NA,"study_2 (video_feedback and feedback_list_2)","VF_1st","In",1,1,4,"Positive Feedback","Video","w2ir4b",1,"response","Describes the emotions of the family.",209050.828,219417.533,219430.089,209050.828,219417.533,219430.089,1,209050.828,10379.2610000001,0,NA,"Text Entry","Text Entry",4,"object-19","Positive Feedback","P3_P.mp4","Screenshot 2023-06-30 at 15.01.08.png","Screenshot 2023-06-30 at 15.00.55.png",NA,"SUPTM61449"
"28",1691005085469,"02/08/2023 19:38:05",1691008685469,1,"02/08/2023 21:38:05",139282,42,"task-s9co",NA,31015665,9199072,NA,"complete",NA,NA,"computer","Desktop or Laptop","Linux x86_64","Chrome 114.0.0.0","1920x1080","1920x905",NA,NA,NA,"Video Feedback Task (Clone)",6,"In","HIGJFAEBDC",NA,"study_2 (video_feedback and feedback_list_2)","VF_1st","In",1,1,4,"Positive Feedback","Video","w2ir4b",1,"response","He emphasises parts that require emphasis.",154767.28,219417.533,219430.589,154767.28,219417.533,219430.589,1,154767.28,64663.309,0,NA,"Text Entry","Text Entry",5,"object-20","Positive Feedback","P3_P.mp4","Screenshot 2023-06-30 at 15.01.08.png","Screenshot 2023-06-30 at 15.00.55.png",NA,"SUPTM61449"
"29",1691005086424,"02/08/2023 19:38:06",1691008686424,1,"02/08/2023 21:38:06",139282,42,"task-s9co",NA,31015665,9199072,NA,"complete",NA,NA,"computer","Desktop or Laptop","Linux x86_64","Chrome 114.0.0.0","1920x1080","1920x905",NA,NA,NA,"Video Feedback Task (Clone)",6,"In","HIGJFAEBDC",NA,"study_2 (video_feedback and feedback_list_2)","VF_1st","In",1,1,4,"Positive Feedback","Fixation","mtm832",2,"continue","",966.67499999993,966.67499999993,966.67499999993,966.67499999993,966.67499999993,966.67499999993,1,966.67499999993,0,0,NA,"Fixation Timing","Fixation",1,"object-65","Positive Feedback","P3_P.mp4","Screenshot 2023-06-30 at 15.01.08.png","Screenshot 2023-06-30 at 15.00.55.png",NA,"SUPTM61449"
"30",1691005399436,"02/08/2023 19:43:19",1691008999436,1,"02/08/2023 21:43:19",139282,42,"task-s9co",NA,31015665,9199072,NA,"complete",NA,NA,"computer","Desktop or Laptop","Linux x86_64","Chrome 114.0.0.0","1920x1080","1920x905",NA,NA,NA,"Video Feedback Task (Clone)",6,"In","HIGJFAEBDC",NA,"study_2 (video_feedback and feedback_list_2)","VF_1st","In",1,1,4,"Neutral Feedback","Screen 1","3zrml3",1,"continue","",313012.981000001,313001.222,313012.981000001,313012.981000001,313001.222,313012.981000001,1,313012.981000001,0,0,NA,"Click To Continue","Continue Button",1,"object-155","Neutral Feedback","P5_N.mp4","Screenshot 2023-06-30 at 15.01.08.png","Screenshot 2023-06-30 at 15.02.01.png",NA,"SUPTM61449"
"31",1691005399446,"02/08/2023 19:43:19",1691008999446,1,"02/08/2023 21:43:19",139282,42,"task-s9co",NA,31015665,9199072,NA,"complete",NA,NA,"computer","Desktop or Laptop","Linux x86_64","Chrome 114.0.0.0","1920x1080","1920x905",NA,NA,NA,"Video Feedback Task (Clone)",6,"In","HIGJFAEBDC",NA,"study_2 (video_feedback and feedback_list_2)","VF_1st","In",1,1,4,"Neutral Feedback","Screen 1","3zrml3",1,"response","Describes their clothing and emotions.",306984.532,313001.222,313017.888,306984.532,313001.222,313017.888,1,306984.532,6033.35599999991,0,NA,"Text Entry","Text Entry",4,"object-158","Neutral Feedback","P5_N.mp4","Screenshot 2023-06-30 at 15.01.08.png","Screenshot 2023-06-30 at 15.02.01.png",NA,"SUPTM61449"
"32",1691005399448,"02/08/2023 19:43:19",1691008999448,1,"02/08/2023 21:43:19",139282,42,"task-s9co",NA,31015665,9199072,NA,"complete",NA,NA,"computer","Desktop or Laptop","Linux x86_64","Chrome 114.0.0.0","1920x1080","1920x905",NA,NA,NA,"Video Feedback Task (Clone)",6,"In","HIGJFAEBDC",NA,"study_2 (video_feedback and feedback_list_2)","VF_1st","In",1,1,4,"Neutral Feedback","Screen 1","3zrml3",1,"response","Brings all aspects of the situation to hand.",135500.529,313001.222,313017.888,135500.529,313001.222,313017.888,1,135500.529,177517.359,0,NA,"Text Entry","Text Entry",5,"object-159","Neutral Feedback","P5_N.mp4","Screenshot 2023-06-30 at 15.01.08.png","Screenshot 2023-06-30 at 15.02.01.png",NA,"SUPTM61449"
"33",1691005400392,"02/08/2023 19:43:20",1691009000392,1,"02/08/2023 21:43:20",139282,42,"task-s9co",NA,31015665,9199072,NA,"complete",NA,NA,"computer","Desktop or Laptop","Linux x86_64","Chrome 114.0.0.0","1920x1080","1920x905",NA,NA,NA,"Video Feedback Task (Clone)",6,"In","HIGJFAEBDC",NA,"study_2 (video_feedback and feedback_list_2)","VF_1st","In",1,1,4,"Neutral Feedback","Screen 2","vv4mhq",2,"continue","",966.665000000037,966.665000000037,966.665000000037,966.665000000037,966.665000000037,966.665000000037,1,966.665000000037,0,0,NA,"Fixation Timing","Fixation",1,"object-153","Neutral Feedback","P5_N.mp4","Screenshot 2023-06-30 at 15.01.08.png","Screenshot 2023-06-30 at 15.02.01.png",NA,"SUPTM61449"
"34",1691005439492,"02/08/2023 19:43:59",1691009039492,1,"02/08/2023 21:43:59",139282,42,"task-s9co",NA,31015665,9199072,NA,"complete",NA,NA,"computer","Desktop or Laptop","Linux x86_64","Chrome 114.0.0.0","1920x1080","1920x905",NA,NA,NA,"Video Feedback Task (Clone)",6,"In","HIGJFAEBDC",NA,"study_2 (video_feedback and feedback_list_2)","VF_1st","In",1,1,5,"Neutral Feedback","Screen 1","3zrml3",1,"continue","",39100.1529999999,39083.487,39100.1529999999,39100.1529999999,39083.487,39100.1529999999,1,39100.1529999999,0,0,NA,"Click To Continue","Continue Button",1,"object-155","Neutral Feedback","P1_N.mp4","Screenshot 2023-06-30 at 15.00.42.png","Screenshot 2023-06-30 at 15.00.55.png",NA,"SUPTM61449"
"35",1691005439501,"02/08/2023 19:43:59",1691009039501,1,"02/08/2023 21:43:59",139282,42,"task-s9co",NA,31015665,9199072,NA,"complete",NA,NA,"computer","Desktop or Laptop","Linux x86_64","Chrome 114.0.0.0","1920x1080","1920x905",NA,NA,NA,"Video Feedback Task (Clone)",6,"In","HIGJFAEBDC",NA,"study_2 (video_feedback and feedback_list_2)","VF_1st","In",1,1,5,"Neutral Feedback","Screen 1","3zrml3",1,"response","She brings attention to the situation.",29516.7779999999,39083.487,39100.1529999999,29516.7779999999,39083.487,39100.1529999999,1,29516.7779999999,9583.375,0,NA,"Text Entry","Text Entry",4,"object-158","Neutral Feedback","P1_N.mp4","Screenshot 2023-06-30 at 15.00.42.png","Screenshot 2023-06-30 at 15.00.55.png",NA,"SUPTM61449"
"36",1691005439502,"02/08/2023 19:43:59",1691009039502,1,"02/08/2023 21:43:59",139282,42,"task-s9co",NA,31015665,9199072,NA,"complete",NA,NA,"computer","Desktop or Laptop","Linux x86_64","Chrome 114.0.0.0","1920x1080","1920x905",NA,NA,NA,"Video Feedback Task (Clone)",6,"In","HIGJFAEBDC",NA,"study_2 (video_feedback and feedback_list_2)","VF_1st","In",1,1,5,"Neutral Feedback","Screen 1","3zrml3",1,"response","Her speech doesn't show any bias.",6566.6939999999,39083.487,39100.1529999999,6566.6939999999,39083.487,39100.1529999999,1,6566.6939999999,32533.459,0,NA,"Text Entry","Text Entry",5,"object-159","Neutral Feedback","P1_N.mp4","Screenshot 2023-06-30 at 15.00.42.png","Screenshot 2023-06-30 at 15.00.55.png",NA,"SUPTM61449"
"37",1691005440442,"02/08/2023 19:44:00",1691009040442,1,"02/08/2023 21:44:00",139282,42,"task-s9co",NA,31015665,9199072,NA,"complete",NA,NA,"computer","Desktop or Laptop","Linux x86_64","Chrome 114.0.0.0","1920x1080","1920x905",NA,NA,NA,"Video Feedback Task (Clone)",6,"In","HIGJFAEBDC",NA,"study_2 (video_feedback and feedback_list_2)","VF_1st","In",1,1,5,"Neutral Feedback","Screen 2","vv4mhq",2,"continue","",966.675000000047,966.675000000047,966.675000000047,966.675000000047,966.675000000047,966.675000000047,1,966.675000000047,0,0,NA,"Fixation Timing","Fixation",1,"object-153","Neutral Feedback","P1_N.mp4","Screenshot 2023-06-30 at 15.00.42.png","Screenshot 2023-06-30 at 15.00.55.png",NA,"SUPTM61449"
"38",1691005729686,"02/08/2023 19:48:49",1691009329686,1,"02/08/2023 21:48:49",139282,42,"task-s9co",NA,31015665,9199072,NA,"complete",NA,NA,"computer","Desktop or Laptop","Linux x86_64","Chrome 114.0.0.0","1920x1080","1920x905",NA,NA,NA,"Video Feedback Task (Clone)",6,"In","HIGJFAEBDC",NA,"study_2 (video_feedback and feedback_list_2)","VF_1st","In",1,1,5,"Positive Feedback","Video","w2ir4b",1,"continue","",289245.532,289235.108,289245.532,289245.532,289235.108,289245.532,1,289245.532,0,0,NA,"Click To Continue","Continue Button",1,"object-14","Positive Feedback","P4_P.mp4","Screenshot 2023-06-30 at 15.01.08.png","Screenshot 2023-06-30 at 15.02.01.png",NA,"SUPTM61449"
"39",1691005729692,"02/08/2023 19:48:49",1691009329692,1,"02/08/2023 21:48:49",139282,42,"task-s9co",NA,31015665,9199072,NA,"complete",NA,NA,"computer","Desktop or Laptop","Linux x86_64","Chrome 114.0.0.0","1920x1080","1920x905",NA,NA,NA,"Video Feedback Task (Clone)",6,"In","HIGJFAEBDC",NA,"study_2 (video_feedback and feedback_list_2)","VF_1st","In",1,1,5,"Positive Feedback","Video","w2ir4b",1,"response","She can describe the number of people in a group.",282351.699,289235.108,289251.776,282351.699,289235.108,289251.776,1,282351.699,6900.07700000005,0,NA,"Text Entry","Text Entry",4,"object-19","Positive Feedback","P4_P.mp4","Screenshot 2023-06-30 at 15.01.08.png","Screenshot 2023-06-30 at 15.02.01.png",NA,"SUPTM61449"
"40",1691005729693,"02/08/2023 19:48:49",1691009329693,1,"02/08/2023 21:48:49",139282,42,"task-s9co",NA,31015665,9199072,NA,"complete",NA,NA,"computer","Desktop or Laptop","Linux x86_64","Chrome 114.0.0.0","1920x1080","1920x905",NA,NA,NA,"Video Feedback Task (Clone)",6,"In","HIGJFAEBDC",NA,"study_2 (video_feedback and feedback_list_2)","VF_1st","In",1,1,5,"Positive Feedback","Video","w2ir4b",1,"response","She seems happy to describe the scenario.",231767.821,289235.108,289251.776,231767.821,289235.108,289251.776,1,231767.821,57483.9550000001,0,NA,"Text Entry","Text Entry",5,"object-20","Positive Feedback","P4_P.mp4","Screenshot 2023-06-30 at 15.01.08.png","Screenshot 2023-06-30 at 15.02.01.png",NA,"SUPTM61449"
"41",1691005730644,"02/08/2023 19:48:50",1691009330644,1,"02/08/2023 21:48:50",139282,42,"task-s9co",NA,31015665,9199072,NA,"complete",NA,NA,"computer","Desktop or Laptop","Linux x86_64","Chrome 114.0.0.0","1920x1080","1920x905",NA,NA,NA,"Video Feedback Task (Clone)",6,"In","HIGJFAEBDC",NA,"study_2 (video_feedback and feedback_list_2)","VF_1st","In",1,1,5,"Positive Feedback","Fixation","mtm832",2,"continue","",966.674999999814,966.674999999814,966.674999999814,966.674999999814,966.674999999814,966.674999999814,1,966.674999999814,0,0,NA,"Fixation Timing","Fixation",1,"object-65","Positive Feedback","P4_P.mp4","Screenshot 2023-06-30 at 15.01.08.png","Screenshot 2023-06-30 at 15.02.01.png",NA,"SUPTM61449"
"42",1691005730654,"02/08/2023 19:48:50",1691009330654,1,"02/08/2023 21:48:50",139282,42,"task-s9co",NA,31015665,9199072,NA,"complete",NA,NA,"computer","Desktop or Laptop","Linux x86_64","Chrome 114.0.0.0","1920x1080","1920x905",NA,NA,NA,"Video Feedback Task (Clone)",6,"In","HIGJFAEBDC",NA,"study_2 (video_feedback and feedback_list_2)","VF_1st","In",1,1,NA,"","","",NA,"5","END",NA,NA,NA,NA,NA,NA,0,NA,NA,NA,NA,"","",NA,"","","","","",NA,"SUPTM61449"
"1",1691237026535,"05/08/2023 12:03:46",1691240626535,1,"05/08/2023 14:03:46",139282,42,"task-s9co",NA,31067509,9210346,NA,"complete",NA,NA,"computer","Desktop or Laptop","Windows 10","Chrome 114.0.0.0","1707x792","1707x786",NA,NA,NA,"Video Feedback Task (Clone)",6,"In","BCADJEIFHG",NA,"study_2 (video_feedback and feedback_list_2)","VF_1st","In",1,1,NA,"","","",NA,"5","BEGIN",NA,NA,NA,NA,NA,NA,0,NA,NA,NA,NA,"","",NA,"","","","","",NA,"SUPTM20104"
"2",1691237090506,"05/08/2023 12:04:50",1691240690506,1,"05/08/2023 14:04:50",139282,42,"task-s9co",NA,31067509,9210346,NA,"complete",NA,NA,"computer","Desktop or Laptop","Windows 10","Chrome 114.0.0.0","1707x792","1707x786",NA,NA,NA,"Video Feedback Task (Clone)",6,"In","BCADJEIFHG",NA,"study_2 (video_feedback and feedback_list_2)","VF_1st","In",1,1,1,"Neutral Feedback","Screen 1","3zrml3",1,"continue","",63222,63212,63222,63222,63212,63222,1,63222,0,0,NA,"Click To Continue","Continue Button",1,"object-155","Neutral Feedback","P2_N.mp4","Screenshot 2023-06-30 at 15.00.42.png","Screenshot 2023-06-30 at 15.02.01.png",NA,"SUPTM20104"
"3",1691237090510,"05/08/2023 12:04:50",1691240690510,1,"05/08/2023 14:04:50",139282,42,"task-s9co",NA,31067509,9210346,NA,"complete",NA,NA,"computer","Desktop or Laptop","Windows 10","Chrome 114.0.0.0","1707x792","1707x786",NA,NA,NA,"Video Feedback Task (Clone)",6,"In","BCADJEIFHG",NA,"study_2 (video_feedback and feedback_list_2)","VF_1st","In",1,1,1,"Neutral Feedback","Screen 1","3zrml3",1,"response","She is logical in her explanation",50396,63212,63229,50396,63212,63229,1,50396,12833,0,NA,"Text Entry","Text Entry",4,"object-158","Neutral Feedback","P2_N.mp4","Screenshot 2023-06-30 at 15.00.42.png","Screenshot 2023-06-30 at 15.02.01.png",NA,"SUPTM20104"
"4",1691237090511,"05/08/2023 12:04:50",1691240690511,1,"05/08/2023 14:04:50",139282,42,"task-s9co",NA,31067509,9210346,NA,"complete",NA,NA,"computer","Desktop or Laptop","Windows 10","Chrome 114.0.0.0","1707x792","1707x786",NA,NA,NA,"Video Feedback Task (Clone)",6,"In","BCADJEIFHG",NA,"study_2 (video_feedback and feedback_list_2)","VF_1st","In",1,1,1,"Neutral Feedback","Screen 1","3zrml3",1,"response","She seems shy",42297,63212,63229,42297,63212,63229,1,42297,20932,0,NA,"Text Entry","Text Entry",5,"object-159","Neutral Feedback","P2_N.mp4","Screenshot 2023-06-30 at 15.00.42.png","Screenshot 2023-06-30 at 15.02.01.png",NA,"SUPTM20104"
"5",1691237091457,"05/08/2023 12:04:51",1691240691457,1,"05/08/2023 14:04:51",139282,42,"task-s9co",NA,31067509,9210346,NA,"complete",NA,NA,"computer","Desktop or Laptop","Windows 10","Chrome 114.0.0.0","1707x792","1707x786",NA,NA,NA,"Video Feedback Task (Clone)",6,"In","BCADJEIFHG",NA,"study_2 (video_feedback and feedback_list_2)","VF_1st","In",1,1,1,"Neutral Feedback","Screen 2","vv4mhq",2,"continue","",966,966,966,966,966,966,1,966,0,0,NA,"Fixation Timing","Fixation",1,"object-153","Neutral Feedback","P2_N.mp4","Screenshot 2023-06-30 at 15.00.42.png","Screenshot 2023-06-30 at 15.02.01.png",NA,"SUPTM20104"
"6",1691237131008,"05/08/2023 12:05:31",1691240731008,1,"05/08/2023 14:05:31",139282,42,"task-s9co",NA,31067509,9210346,NA,"complete",NA,NA,"computer","Desktop or Laptop","Windows 10","Chrome 114.0.0.0","1707x792","1707x786",NA,NA,NA,"Video Feedback Task (Clone)",6,"In","BCADJEIFHG",NA,"study_2 (video_feedback and feedback_list_2)","VF_1st","In",1,1,1,"Positive Feedback","Video","w2ir4b",1,"continue","",39550,39547,39550,39550,39547,39550,1,39550,0,0,NA,"Click To Continue","Continue Button",1,"object-14","Positive Feedback","P5_P.mp4","Screenshot 2023-06-30 at 15.00.42.png","Screenshot 2023-06-30 at 15.00.55.png",NA,"SUPTM20104"
"7",1691237131011,"05/08/2023 12:05:31",1691240731011,1,"05/08/2023 14:05:31",139282,42,"task-s9co",NA,31067509,9210346,NA,"complete",NA,NA,"computer","Desktop or Laptop","Windows 10","Chrome 114.0.0.0","1707x792","1707x786",NA,NA,NA,"Video Feedback Task (Clone)",6,"In","BCADJEIFHG",NA,"study_2 (video_feedback and feedback_list_2)","VF_1st","In",1,1,1,"Positive Feedback","Video","w2ir4b",1,"response","She has an easy to listen to voice",32981,39547,39554,32981,39547,39554,1,32981,6573,0,NA,"Text Entry","Text Entry",4,"object-19","Positive Feedback","P5_P.mp4","Screenshot 2023-06-30 at 15.00.42.png","Screenshot 2023-06-30 at 15.00.55.png",NA,"SUPTM20104"
"8",1691237131012,"05/08/2023 12:05:31",1691240731012,1,"05/08/2023 14:05:31",139282,42,"task-s9co",NA,31067509,9210346,NA,"complete",NA,NA,"computer","Desktop or Laptop","Windows 10","Chrome 114.0.0.0","1707x792","1707x786",NA,NA,NA,"Video Feedback Task (Clone)",6,"In","BCADJEIFHG",NA,"study_2 (video_feedback and feedback_list_2)","VF_1st","In",1,1,1,"Positive Feedback","Video","w2ir4b",1,"response","She seems on the ball and aware",24365,39547,39555,24365,39547,39555,1,24365,15190,0,NA,"Text Entry","Text Entry",5,"object-20","Positive Feedback","P5_P.mp4","Screenshot 2023-06-30 at 15.00.42.png","Screenshot 2023-06-30 at 15.00.55.png",NA,"SUPTM20104"
"9",1691237131971,"05/08/2023 12:05:31",1691240731971,1,"05/08/2023 14:05:31",139282,42,"task-s9co",NA,31067509,9210346,NA,"complete",NA,NA,"computer","Desktop or Laptop","Windows 10","Chrome 114.0.0.0","1707x792","1707x786",NA,NA,NA,"Video Feedback Task (Clone)",6,"In","BCADJEIFHG",NA,"study_2 (video_feedback and feedback_list_2)","VF_1st","In",1,1,1,"Positive Feedback","Fixation","mtm832",2,"continue","",967,967,967,967,967,967,1,967,0,0,NA,"Fixation Timing","Fixation",1,"object-65","Positive Feedback","P5_P.mp4","Screenshot 2023-06-30 at 15.00.42.png","Screenshot 2023-06-30 at 15.00.55.png",NA,"SUPTM20104"
"10",1691237193662,"05/08/2023 12:06:33",1691240793662,1,"05/08/2023 14:06:33",139282,42,"task-s9co",NA,31067509,9210346,NA,"complete",NA,NA,"computer","Desktop or Laptop","Windows 10","Chrome 114.0.0.0","1707x792","1707x786",NA,NA,NA,"Video Feedback Task (Clone)",6,"In","BCADJEIFHG",NA,"study_2 (video_feedback and feedback_list_2)","VF_1st","In",1,1,2,"Positive Feedback","Video","w2ir4b",1,"continue","",61690,61679,61690,61690,61679,61690,1,61690,0,0,NA,"Click To Continue","Continue Button",1,"object-14","Positive Feedback","P2_P.mp4","Screenshot 2023-06-30 at 15.01.08.png","Screenshot 2023-06-30 at 15.00.55.png",NA,"SUPTM20104"
"11",1691237193665,"05/08/2023 12:06:33",1691240793665,1,"05/08/2023 14:06:33",139282,42,"task-s9co",NA,31067509,9210346,NA,"complete",NA,NA,"computer","Desktop or Laptop","Windows 10","Chrome 114.0.0.0","1707x792","1707x786",NA,NA,NA,"Video Feedback Task (Clone)",6,"In","BCADJEIFHG",NA,"study_2 (video_feedback and feedback_list_2)","VF_1st","In",1,1,2,"Positive Feedback","Video","w2ir4b",1,"response","They got a lot of information into a short amount of time",48880,61679,61694,48880,61679,61694,1,48880,12814,0,NA,"Text Entry","Text Entry",4,"object-19","Positive Feedback","P2_P.mp4","Screenshot 2023-06-30 at 15.01.08.png","Screenshot 2023-06-30 at 15.00.55.png",NA,"SUPTM20104"
"12",1691237193666,"05/08/2023 12:06:33",1691240793666,1,"05/08/2023 14:06:33",139282,42,"task-s9co",NA,31067509,9210346,NA,"complete",NA,NA,"computer","Desktop or Laptop","Windows 10","Chrome 114.0.0.0","1707x792","1707x786",NA,NA,NA,"Video Feedback Task (Clone)",6,"In","BCADJEIFHG",NA,"study_2 (video_feedback and feedback_list_2)","VF_1st","In",1,1,2,"Positive Feedback","Video","w2ir4b",1,"response","It's nice they are keeping eye contact at times",34214,61679,61694,34214,61679,61694,1,34214,27480,0,NA,"Text Entry","Text Entry",5,"object-20","Positive Feedback","P2_P.mp4","Screenshot 2023-06-30 at 15.01.08.png","Screenshot 2023-06-30 at 15.00.55.png",NA,"SUPTM20104"
"13",1691237194617,"05/08/2023 12:06:34",1691240794617,1,"05/08/2023 14:06:34",139282,42,"task-s9co",NA,31067509,9210346,NA,"complete",NA,NA,"computer","Desktop or Laptop","Windows 10","Chrome 114.0.0.0","1707x792","1707x786",NA,NA,NA,"Video Feedback Task (Clone)",6,"In","BCADJEIFHG",NA,"study_2 (video_feedback and feedback_list_2)","VF_1st","In",1,1,2,"Positive Feedback","Fixation","mtm832",2,"continue","",966,966,966,966,966,966,1,966,0,0,NA,"Fixation Timing","Fixation",1,"object-65","Positive Feedback","P2_P.mp4","Screenshot 2023-06-30 at 15.01.08.png","Screenshot 2023-06-30 at 15.00.55.png",NA,"SUPTM20104"
"14",1691237238613,"05/08/2023 12:07:18",1691240838613,1,"05/08/2023 14:07:18",139282,42,"task-s9co",NA,31067509,9210346,NA,"complete",NA,NA,"computer","Desktop or Laptop","Windows 10","Chrome 114.0.0.0","1707x792","1707x786",NA,NA,NA,"Video Feedback Task (Clone)",6,"In","BCADJEIFHG",NA,"study_2 (video_feedback and feedback_list_2)","VF_1st","In",1,1,2,"Neutral Feedback","Screen 1","3zrml3",1,"continue","",43996,43980,43996,43996,43980,43996,1,43996,0,0,NA,"Click To Continue","Continue Button",1,"object-155","Neutral Feedback","P3_N.mp4","Screenshot 2023-06-30 at 15.01.08.png","Screenshot 2023-06-30 at 15.02.01.png",NA,"SUPTM20104"
"15",1691237238616,"05/08/2023 12:07:18",1691240838616,1,"05/08/2023 14:07:18",139282,42,"task-s9co",NA,31067509,9210346,NA,"complete",NA,NA,"computer","Desktop or Laptop","Windows 10","Chrome 114.0.0.0","1707x792","1707x786",NA,NA,NA,"Video Feedback Task (Clone)",6,"In","BCADJEIFHG",NA,"study_2 (video_feedback and feedback_list_2)","VF_1st","In",1,1,2,"Neutral Feedback","Screen 1","3zrml3",1,"response","He has an accent",40947,43980,43996,40947,43980,43996,1,40947,3049,0,NA,"Text Entry","Text Entry",4,"object-158","Neutral Feedback","P3_N.mp4","Screenshot 2023-06-30 at 15.01.08.png","Screenshot 2023-06-30 at 15.02.01.png",NA,"SUPTM20104"
"16",1691237238616,"05/08/2023 12:07:18",1691240838616,1,"05/08/2023 14:07:18",139282,42,"task-s9co",NA,31067509,9210346,NA,"complete",NA,NA,"computer","Desktop or Laptop","Windows 10","Chrome 114.0.0.0","1707x792","1707x786",NA,NA,NA,"Video Feedback Task (Clone)",6,"In","BCADJEIFHG",NA,"study_2 (video_feedback and feedback_list_2)","VF_1st","In",1,1,2,"Neutral Feedback","Screen 1","3zrml3",1,"response","English does not seem like his first language",29731,43980,43996,29731,43980,43996,1,29731,14265,0,NA,"Text Entry","Text Entry",5,"object-159","Neutral Feedback","P3_N.mp4","Screenshot 2023-06-30 at 15.01.08.png","Screenshot 2023-06-30 at 15.02.01.png",NA,"SUPTM20104"
"17",1691237239563,"05/08/2023 12:07:19",1691240839563,1,"05/08/2023 14:07:19",139282,42,"task-s9co",NA,31067509,9210346,NA,"complete",NA,NA,"computer","Desktop or Laptop","Windows 10","Chrome 114.0.0.0","1707x792","1707x786",NA,NA,NA,"Video Feedback Task (Clone)",6,"In","BCADJEIFHG",NA,"study_2 (video_feedback and feedback_list_2)","VF_1st","In",1,1,2,"Neutral Feedback","Screen 2","vv4mhq",2,"continue","",967,967,967,967,967,967,1,967,0,0,NA,"Fixation Timing","Fixation",1,"object-153","Neutral Feedback","P3_N.mp4","Screenshot 2023-06-30 at 15.01.08.png","Screenshot 2023-06-30 at 15.02.01.png",NA,"SUPTM20104"
"18",1691237285680,"05/08/2023 12:08:05",1691240885680,1,"05/08/2023 14:08:05",139282,42,"task-s9co",NA,31067509,9210346,NA,"complete",NA,NA,"computer","Desktop or Laptop","Windows 10","Chrome 114.0.0.0","1707x792","1707x786",NA,NA,NA,"Video Feedback Task (Clone)",6,"In","BCADJEIFHG",NA,"study_2 (video_feedback and feedback_list_2)","VF_1st","In",1,1,3,"Positive Feedback","Video","w2ir4b",1,"continue","",46117,46113,46117,46117,46113,46117,1,46117,0,0,NA,"Click To Continue","Continue Button",1,"object-14","Positive Feedback","P1_P.mp4","Screenshot 2023-06-30 at 15.00.42.png","Screenshot 2023-06-30 at 15.00.55.png",NA,"SUPTM20104"
"19",1691237285683,"05/08/2023 12:08:05",1691240885683,1,"05/08/2023 14:08:05",139282,42,"task-s9co",NA,31067509,9210346,NA,"complete",NA,NA,"computer","Desktop or Laptop","Windows 10","Chrome 114.0.0.0","1707x792","1707x786",NA,NA,NA,"Video Feedback Task (Clone)",6,"In","BCADJEIFHG",NA,"study_2 (video_feedback and feedback_list_2)","VF_1st","In",1,1,3,"Positive Feedback","Video","w2ir4b",1,"response","She visualised the picture well with her words",31814,46113,46121,31814,46113,46121,1,31814,14307,0,NA,"Text Entry","Text Entry",4,"object-19","Positive Feedback","P1_P.mp4","Screenshot 2023-06-30 at 15.00.42.png","Screenshot 2023-06-30 at 15.00.55.png",NA,"SUPTM20104"
"20",1691237285684,"05/08/2023 12:08:05",1691240885684,1,"05/08/2023 14:08:05",139282,42,"task-s9co",NA,31067509,9210346,NA,"complete",NA,NA,"computer","Desktop or Laptop","Windows 10","Chrome 114.0.0.0","1707x792","1707x786",NA,NA,NA,"Video Feedback Task (Clone)",6,"In","BCADJEIFHG",NA,"study_2 (video_feedback and feedback_list_2)","VF_1st","In",1,1,3,"Positive Feedback","Video","w2ir4b",1,"response","She is easy to follow",26265,46113,46121,26265,46113,46121,1,26265,19856,0,NA,"Text Entry","Text Entry",5,"object-20","Positive Feedback","P1_P.mp4","Screenshot 2023-06-30 at 15.00.42.png","Screenshot 2023-06-30 at 15.00.55.png",NA,"SUPTM20104"
"21",1691237286643,"05/08/2023 12:08:06",1691240886643,1,"05/08/2023 14:08:06",139282,42,"task-s9co",NA,31067509,9210346,NA,"complete",NA,NA,"computer","Desktop or Laptop","Windows 10","Chrome 114.0.0.0","1707x792","1707x786",NA,NA,NA,"Video Feedback Task (Clone)",6,"In","BCADJEIFHG",NA,"study_2 (video_feedback and feedback_list_2)","VF_1st","In",1,1,3,"Positive Feedback","Fixation","mtm832",2,"continue","",967,967,967,967,967,967,1,967,0,0,NA,"Fixation Timing","Fixation",1,"object-65","Positive Feedback","P1_P.mp4","Screenshot 2023-06-30 at 15.00.42.png","Screenshot 2023-06-30 at 15.00.55.png",NA,"SUPTM20104"
"22",1691237318699,"05/08/2023 12:08:38",1691240918699,1,"05/08/2023 14:08:38",139282,42,"task-s9co",NA,31067509,9210346,NA,"complete",NA,NA,"computer","Desktop or Laptop","Windows 10","Chrome 114.0.0.0","1707x792","1707x786",NA,NA,NA,"Video Feedback Task (Clone)",6,"In","BCADJEIFHG",NA,"study_2 (video_feedback and feedback_list_2)","VF_1st","In",1,1,3,"Neutral Feedback","Screen 1","3zrml3",1,"continue","",32056,32047,32056,32056,32047,32056,1,32056,0,0,NA,"Click To Continue","Continue Button",1,"object-155","Neutral Feedback","P4_N.mp4","Screenshot 2023-06-30 at 15.01.08.png","Screenshot 2023-06-30 at 15.02.01.png",NA,"SUPTM20104"
"23",1691237318704,"05/08/2023 12:08:38",1691240918704,1,"05/08/2023 14:08:38",139282,42,"task-s9co",NA,31067509,9210346,NA,"complete",NA,NA,"computer","Desktop or Laptop","Windows 10","Chrome 114.0.0.0","1707x792","1707x786",NA,NA,NA,"Video Feedback Task (Clone)",6,"In","BCADJEIFHG",NA,"study_2 (video_feedback and feedback_list_2)","VF_1st","In",1,1,3,"Neutral Feedback","Screen 1","3zrml3",1,"response","She takes a long time to get to the point",25848,32047,32062,25848,32047,32062,1,25848,6214,0,NA,"Text Entry","Text Entry",4,"object-158","Neutral Feedback","P4_N.mp4","Screenshot 2023-06-30 at 15.01.08.png","Screenshot 2023-06-30 at 15.02.01.png",NA,"SUPTM20104"
"24",1691237318705,"05/08/2023 12:08:38",1691240918705,1,"05/08/2023 14:08:38",139282,42,"task-s9co",NA,31067509,9210346,NA,"complete",NA,NA,"computer","Desktop or Laptop","Windows 10","Chrome 114.0.0.0","1707x792","1707x786",NA,NA,NA,"Video Feedback Task (Clone)",6,"In","BCADJEIFHG",NA,"study_2 (video_feedback and feedback_list_2)","VF_1st","In",1,1,3,"Neutral Feedback","Screen 1","3zrml3",1,"response","She does not explain very well",18232,32047,32062,18232,32047,32062,1,18232,13830,0,NA,"Text Entry","Text Entry",5,"object-159","Neutral Feedback","P4_N.mp4","Screenshot 2023-06-30 at 15.01.08.png","Screenshot 2023-06-30 at 15.02.01.png",NA,"SUPTM20104"
"25",1691237319658,"05/08/2023 12:08:39",1691240919658,1,"05/08/2023 14:08:39",139282,42,"task-s9co",NA,31067509,9210346,NA,"complete",NA,NA,"computer","Desktop or Laptop","Windows 10","Chrome 114.0.0.0","1707x792","1707x786",NA,NA,NA,"Video Feedback Task (Clone)",6,"In","BCADJEIFHG",NA,"study_2 (video_feedback and feedback_list_2)","VF_1st","In",1,1,3,"Neutral Feedback","Screen 2","vv4mhq",2,"continue","",967,967,967,967,967,967,1,967,0,0,NA,"Fixation Timing","Fixation",1,"object-153","Neutral Feedback","P4_N.mp4","Screenshot 2023-06-30 at 15.01.08.png","Screenshot 2023-06-30 at 15.02.01.png",NA,"SUPTM20104"
"26",1691237362318,"05/08/2023 12:09:22",1691240962318,1,"05/08/2023 14:09:22",139282,42,"task-s9co",NA,31067509,9210346,NA,"complete",NA,NA,"computer","Desktop or Laptop","Windows 10","Chrome 114.0.0.0","1707x792","1707x786",NA,NA,NA,"Video Feedback Task (Clone)",6,"In","BCADJEIFHG",NA,"study_2 (video_feedback and feedback_list_2)","VF_1st","In",1,1,4,"Positive Feedback","Video","w2ir4b",1,"continue","",42661,42647,42661,42661,42647,42661,1,42661,0,0,NA,"Click To Continue","Continue Button",1,"object-14","Positive Feedback","P3_P.mp4","Screenshot 2023-06-30 at 15.00.42.png","Screenshot 2023-06-30 at 15.02.01.png",NA,"SUPTM20104"
"27",1691237362326,"05/08/2023 12:09:22",1691240962326,1,"05/08/2023 14:09:22",139282,42,"task-s9co",NA,31067509,9210346,NA,"complete",NA,NA,"computer","Desktop or Laptop","Windows 10","Chrome 114.0.0.0","1707x792","1707x786",NA,NA,NA,"Video Feedback Task (Clone)",6,"In","BCADJEIFHG",NA,"study_2 (video_feedback and feedback_list_2)","VF_1st","In",1,1,4,"Positive Feedback","Video","w2ir4b",1,"response","He starts with the important information",26148,42647,42664,26148,42647,42664,1,26148,16516,0,NA,"Text Entry","Text Entry",4,"object-19","Positive Feedback","P3_P.mp4","Screenshot 2023-06-30 at 15.00.42.png","Screenshot 2023-06-30 at 15.02.01.png",NA,"SUPTM20104"
"28",1691237362327,"05/08/2023 12:09:22",1691240962327,1,"05/08/2023 14:09:22",139282,42,"task-s9co",NA,31067509,9210346,NA,"complete",NA,NA,"computer","Desktop or Laptop","Windows 10","Chrome 114.0.0.0","1707x792","1707x786",NA,NA,NA,"Video Feedback Task (Clone)",6,"In","BCADJEIFHG",NA,"study_2 (video_feedback and feedback_list_2)","VF_1st","In",1,1,4,"Positive Feedback","Video","w2ir4b",1,"response","He is quick to the point in explaining",13299,42647,42664,13299,42647,42664,1,13299,29365,0,NA,"Text Entry","Text Entry",5,"object-20","Positive Feedback","P3_P.mp4","Screenshot 2023-06-30 at 15.00.42.png","Screenshot 2023-06-30 at 15.02.01.png",NA,"SUPTM20104"
"29",1691237363270,"05/08/2023 12:09:23",1691240963270,1,"05/08/2023 14:09:23",139282,42,"task-s9co",NA,31067509,9210346,NA,"complete",NA,NA,"computer","Desktop or Laptop","Windows 10","Chrome 114.0.0.0","1707x792","1707x786",NA,NA,NA,"Video Feedback Task (Clone)",6,"In","BCADJEIFHG",NA,"study_2 (video_feedback and feedback_list_2)","VF_1st","In",1,1,4,"Positive Feedback","Fixation","mtm832",2,"continue","",966,966,966,966,966,966,1,966,0,0,NA,"Fixation Timing","Fixation",1,"object-65","Positive Feedback","P3_P.mp4","Screenshot 2023-06-30 at 15.00.42.png","Screenshot 2023-06-30 at 15.02.01.png",NA,"SUPTM20104"
"30",1691237413686,"05/08/2023 12:10:13",1691241013686,1,"05/08/2023 14:10:13",139282,42,"task-s9co",NA,31067509,9210346,NA,"complete",NA,NA,"computer","Desktop or Laptop","Windows 10","Chrome 114.0.0.0","1707x792","1707x786",NA,NA,NA,"Video Feedback Task (Clone)",6,"In","BCADJEIFHG",NA,"study_2 (video_feedback and feedback_list_2)","VF_1st","In",1,1,4,"Neutral Feedback","Screen 1","3zrml3",1,"continue","",50416,50413,50416,50416,50413,50416,1,50416,0,0,NA,"Click To Continue","Continue Button",1,"object-155","Neutral Feedback","P5_N.mp4","Screenshot 2023-06-30 at 15.00.42.png","Screenshot 2023-06-30 at 15.02.01.png",NA,"SUPTM20104"
"31",1691237413694,"05/08/2023 12:10:13",1691241013694,1,"05/08/2023 14:10:13",139282,42,"task-s9co",NA,31067509,9210346,NA,"complete",NA,NA,"computer","Desktop or Laptop","Windows 10","Chrome 114.0.0.0","1707x792","1707x786",NA,NA,NA,"Video Feedback Task (Clone)",6,"In","BCADJEIFHG",NA,"study_2 (video_feedback and feedback_list_2)","VF_1st","In",1,1,4,"Neutral Feedback","Screen 1","3zrml3",1,"response","Her pauses and inflection means not as much information is conveyed as could be",34948,50413,50424,34948,50413,50424,1,34948,15476,0,NA,"Text Entry","Text Entry",4,"object-158","Neutral Feedback","P5_N.mp4","Screenshot 2023-06-30 at 15.00.42.png","Screenshot 2023-06-30 at 15.02.01.png",NA,"SUPTM20104"
"32",1691237413695,"05/08/2023 12:10:13",1691241013695,1,"05/08/2023 14:10:13",139282,42,"task-s9co",NA,31067509,9210346,NA,"complete",NA,NA,"computer","Desktop or Laptop","Windows 10","Chrome 114.0.0.0","1707x792","1707x786",NA,NA,NA,"Video Feedback Task (Clone)",6,"In","BCADJEIFHG",NA,"study_2 (video_feedback and feedback_list_2)","VF_1st","In",1,1,4,"Neutral Feedback","Screen 1","3zrml3",1,"response","She does not explain much about the location",24615,50413,50425,24615,50413,50425,1,24615,25810,0,NA,"Text Entry","Text Entry",5,"object-159","Neutral Feedback","P5_N.mp4","Screenshot 2023-06-30 at 15.00.42.png","Screenshot 2023-06-30 at 15.02.01.png",NA,"SUPTM20104"
"33",1691237414651,"05/08/2023 12:10:14",1691241014651,1,"05/08/2023 14:10:14",139282,42,"task-s9co",NA,31067509,9210346,NA,"complete",NA,NA,"computer","Desktop or Laptop","Windows 10","Chrome 114.0.0.0","1707x792","1707x786",NA,NA,NA,"Video Feedback Task (Clone)",6,"In","BCADJEIFHG",NA,"study_2 (video_feedback and feedback_list_2)","VF_1st","In",1,1,4,"Neutral Feedback","Screen 2","vv4mhq",2,"continue","",967,967,967,967,967,967,1,967,0,0,NA,"Fixation Timing","Fixation",1,"object-153","Neutral Feedback","P5_N.mp4","Screenshot 2023-06-30 at 15.00.42.png","Screenshot 2023-06-30 at 15.02.01.png",NA,"SUPTM20104"
"34",1691237472421,"05/08/2023 12:11:12",1691241072421,1,"05/08/2023 14:11:12",139282,42,"task-s9co",NA,31067509,9210346,NA,"complete",NA,NA,"computer","Desktop or Laptop","Windows 10","Chrome 114.0.0.0","1707x792","1707x786",NA,NA,NA,"Video Feedback Task (Clone)",6,"In","BCADJEIFHG",NA,"study_2 (video_feedback and feedback_list_2)","VF_1st","In",1,1,5,"Neutral Feedback","Screen 1","3zrml3",1,"continue","",57771,57762,57771,57771,57762,57771,1,57771,0,0,NA,"Click To Continue","Continue Button",1,"object-155","Neutral Feedback","P1_N.mp4","Screenshot 2023-06-30 at 15.01.08.png","Screenshot 2023-06-30 at 15.00.55.png",NA,"SUPTM20104"
"35",1691237472424,"05/08/2023 12:11:12",1691241072424,1,"05/08/2023 14:11:12",139282,42,"task-s9co",NA,31067509,9210346,NA,"complete",NA,NA,"computer","Desktop or Laptop","Windows 10","Chrome 114.0.0.0","1707x792","1707x786",NA,NA,NA,"Video Feedback Task (Clone)",6,"In","BCADJEIFHG",NA,"study_2 (video_feedback and feedback_list_2)","VF_1st","In",1,1,5,"Neutral Feedback","Screen 1","3zrml3",1,"response","She does not go into much detail",33947,57762,57775,33947,57762,57775,1,33947,23828,0,NA,"Text Entry","Text Entry",4,"object-158","Neutral Feedback","P1_N.mp4","Screenshot 2023-06-30 at 15.01.08.png","Screenshot 2023-06-30 at 15.00.55.png",NA,"SUPTM20104"
"36",1691237472425,"05/08/2023 12:11:12",1691241072425,1,"05/08/2023 14:11:12",139282,42,"task-s9co",NA,31067509,9210346,NA,"complete",NA,NA,"computer","Desktop or Laptop","Windows 10","Chrome 114.0.0.0","1707x792","1707x786",NA,NA,NA,"Video Feedback Task (Clone)",6,"In","BCADJEIFHG",NA,"study_2 (video_feedback and feedback_list_2)","VF_1st","In",1,1,5,"Neutral Feedback","Screen 1","3zrml3",1,"response","She seems a bit unsure",22831,57762,57775,22831,57762,57775,1,22831,34944,0,NA,"Text Entry","Text Entry",5,"object-159","Neutral Feedback","P1_N.mp4","Screenshot 2023-06-30 at 15.01.08.png","Screenshot 2023-06-30 at 15.00.55.png",NA,"SUPTM20104"
"37",1691237473379,"05/08/2023 12:11:13",1691241073379,1,"05/08/2023 14:11:13",139282,42,"task-s9co",NA,31067509,9210346,NA,"complete",NA,NA,"computer","Desktop or Laptop","Windows 10","Chrome 114.0.0.0","1707x792","1707x786",NA,NA,NA,"Video Feedback Task (Clone)",6,"In","BCADJEIFHG",NA,"study_2 (video_feedback and feedback_list_2)","VF_1st","In",1,1,5,"Neutral Feedback","Screen 2","vv4mhq",2,"continue","",967,967,967,967,967,967,1,967,0,0,NA,"Fixation Timing","Fixation",1,"object-153","Neutral Feedback","P1_N.mp4","Screenshot 2023-06-30 at 15.01.08.png","Screenshot 2023-06-30 at 15.00.55.png",NA,"SUPTM20104"
"38",1691237506779,"05/08/2023 12:11:46",1691241106779,1,"05/08/2023 14:11:46",139282,42,"task-s9co",NA,31067509,9210346,NA,"complete",NA,NA,"computer","Desktop or Laptop","Windows 10","Chrome 114.0.0.0","1707x792","1707x786",NA,NA,NA,"Video Feedback Task (Clone)",6,"In","BCADJEIFHG",NA,"study_2 (video_feedback and feedback_list_2)","VF_1st","In",1,1,5,"Positive Feedback","Video","w2ir4b",1,"continue","",33399,33397,33399,33399,33397,33399,1,33399,0,0,NA,"Click To Continue","Continue Button",1,"object-14","Positive Feedback","P4_P.mp4","Screenshot 2023-06-30 at 15.01.08.png","Screenshot 2023-06-30 at 15.00.55.png",NA,"SUPTM20104"
"39",1691237506781,"05/08/2023 12:11:46",1691241106781,1,"05/08/2023 14:11:46",139282,42,"task-s9co",NA,31067509,9210346,NA,"complete",NA,NA,"computer","Desktop or Laptop","Windows 10","Chrome 114.0.0.0","1707x792","1707x786",NA,NA,NA,"Video Feedback Task (Clone)",6,"In","BCADJEIFHG",NA,"study_2 (video_feedback and feedback_list_2)","VF_1st","In",1,1,5,"Positive Feedback","Video","w2ir4b",1,"response","She is very informative",28148,33397,33402,28148,33397,33402,1,28148,5254,0,NA,"Text Entry","Text Entry",4,"object-19","Positive Feedback","P4_P.mp4","Screenshot 2023-06-30 at 15.01.08.png","Screenshot 2023-06-30 at 15.00.55.png",NA,"SUPTM20104"
"40",1691237506782,"05/08/2023 12:11:46",1691241106782,1,"05/08/2023 14:11:46",139282,42,"task-s9co",NA,31067509,9210346,NA,"complete",NA,NA,"computer","Desktop or Laptop","Windows 10","Chrome 114.0.0.0","1707x792","1707x786",NA,NA,NA,"Video Feedback Task (Clone)",6,"In","BCADJEIFHG",NA,"study_2 (video_feedback and feedback_list_2)","VF_1st","In",1,1,5,"Positive Feedback","Video","w2ir4b",1,"response","She seems happy",24181,33397,33403,24181,33397,33403,1,24181,9222,0,NA,"Text Entry","Text Entry",5,"object-20","Positive Feedback","P4_P.mp4","Screenshot 2023-06-30 at 15.01.08.png","Screenshot 2023-06-30 at 15.00.55.png",NA,"SUPTM20104"
"41",1691237507743,"05/08/2023 12:11:47",1691241107743,1,"05/08/2023 14:11:47",139282,42,"task-s9co",NA,31067509,9210346,NA,"complete",NA,NA,"computer","Desktop or Laptop","Windows 10","Chrome 114.0.0.0","1707x792","1707x786",NA,NA,NA,"Video Feedback Task (Clone)",6,"In","BCADJEIFHG",NA,"study_2 (video_feedback and feedback_list_2)","VF_1st","In",1,1,5,"Positive Feedback","Fixation","mtm832",2,"continue","",967,967,967,967,967,967,1,967,0,0,NA,"Fixation Timing","Fixation",1,"object-65","Positive Feedback","P4_P.mp4","Screenshot 2023-06-30 at 15.01.08.png","Screenshot 2023-06-30 at 15.00.55.png",NA,"SUPTM20104"
"42",1691237507753,"05/08/2023 12:11:47",1691241107753,1,"05/08/2023 14:11:47",139282,42,"task-s9co",NA,31067509,9210346,NA,"complete",NA,NA,"computer","Desktop or Laptop","Windows 10","Chrome 114.0.0.0","1707x792","1707x786",NA,NA,NA,"Video Feedback Task (Clone)",6,"In","BCADJEIFHG",NA,"study_2 (video_feedback and feedback_list_2)","VF_1st","In",1,1,NA,"","","",NA,"5","END",NA,NA,NA,NA,NA,NA,0,NA,NA,NA,NA,"","",NA,"","","","","",NA,"SUPTM20104"
"1",1691429373242,"07/08/2023 17:29:33",1691432973242,1,"07/08/2023 19:29:33",139282,42,"task-s9co",NA,31091977,9216438,NA,"complete",NA,NA,"computer","Desktop or Laptop","Windows 10","Chrome 115.0.0.0","1536x864","1536x747",NA,NA,NA,"Video Feedback Task (Clone)",6,"In","DECFBGAHJI",NA,"study_2 (video_feedback and feedback_list_2)","VF_1st","In",1,1,NA,"","","",NA,"5","BEGIN",NA,NA,NA,NA,NA,NA,0,NA,NA,NA,NA,"","",NA,"","","","","",NA,"SUPTM83190"
"2",1691429406390,"07/08/2023 17:30:06",1691433006390,1,"07/08/2023 19:30:06",139282,42,"task-s9co",NA,31091977,9216438,NA,"complete",NA,NA,"computer","Desktop or Laptop","Windows 10","Chrome 115.0.0.0","1536x864","1536x747",NA,NA,NA,"Video Feedback Task (Clone)",6,"In","DECFBGAHJI",NA,"study_2 (video_feedback and feedback_list_2)","VF_1st","In",1,1,1,"Neutral Feedback","Screen 1","3zrml3",1,"continue","",31313.851999994,31311.272,31313.851999994,31313.851999994,31311.272,31313.851999994,1,31313.851999994,0,0,NA,"Click To Continue","Continue Button",1,"object-155","Neutral Feedback","P2_N.mp4","Screenshot 2023-06-30 at 15.00.42.png","Screenshot 2023-06-30 at 15.02.01.png",NA,"SUPTM83190"
"3",1691429406391,"07/08/2023 17:30:06",1691433006391,1,"07/08/2023 19:30:06",139282,42,"task-s9co",NA,31091977,9216438,NA,"complete",NA,NA,"computer","Desktop or Laptop","Windows 10","Chrome 115.0.0.0","1536x864","1536x747",NA,NA,NA,"Video Feedback Task (Clone)",6,"In","DECFBGAHJI",NA,"study_2 (video_feedback and feedback_list_2)","VF_1st","In",1,1,1,"Neutral Feedback","Screen 1","3zrml3",1,"response","the person has long hair",20455.506,31311.272,31315.0520000119,20455.506,31311.272,31315.0520000119,1,20455.506,10859.5460000119,0,NA,"Text Entry","Text Entry",4,"object-158","Neutral Feedback","P2_N.mp4","Screenshot 2023-06-30 at 15.00.42.png","Screenshot 2023-06-30 at 15.02.01.png",NA,"SUPTM83190"
"4",1691429406391,"07/08/2023 17:30:06",1691433006391,1,"07/08/2023 19:30:06",139282,42,"task-s9co",NA,31091977,9216438,NA,"complete",NA,NA,"computer","Desktop or Laptop","Windows 10","Chrome 115.0.0.0","1536x864","1536x747",NA,NA,NA,"Video Feedback Task (Clone)",6,"In","DECFBGAHJI",NA,"study_2 (video_feedback and feedback_list_2)","VF_1st","In",1,1,1,"Neutral Feedback","Screen 1","3zrml3",1,"response","the persons voice is low",14557.576,31311.272,31315.152000006,14557.576,31311.272,31315.152000006,1,14557.576,16757.576000006,0,NA,"Text Entry","Text Entry",5,"object-159","Neutral Feedback","P2_N.mp4","Screenshot 2023-06-30 at 15.00.42.png","Screenshot 2023-06-30 at 15.02.01.png",NA,"SUPTM83190"
"5",1691429407369,"07/08/2023 17:30:07",1691433007369,1,"07/08/2023 19:30:07",139282,42,"task-s9co",NA,31091977,9216438,NA,"complete",NA,NA,"computer","Desktop or Laptop","Windows 10","Chrome 115.0.0.0","1536x864","1536x747",NA,NA,NA,"Video Feedback Task (Clone)",6,"In","DECFBGAHJI",NA,"study_2 (video_feedback and feedback_list_2)","VF_1st","In",1,1,1,"Neutral Feedback","Screen 2","vv4mhq",2,"continue","",981.477000000006,981.477000000006,981.477000000006,981.477000000006,981.477000000006,981.477000000006,1,981.477000000006,0,0,NA,"Fixation Timing","Fixation",1,"object-153","Neutral Feedback","P2_N.mp4","Screenshot 2023-06-30 at 15.00.42.png","Screenshot 2023-06-30 at 15.02.01.png",NA,"SUPTM83190"
"6",1691429431653,"07/08/2023 17:30:31",1691433031653,1,"07/08/2023 19:30:31",139282,42,"task-s9co",NA,31091977,9216438,NA,"complete",NA,NA,"computer","Desktop or Laptop","Windows 10","Chrome 115.0.0.0","1536x864","1536x747",NA,NA,NA,"Video Feedback Task (Clone)",6,"In","DECFBGAHJI",NA,"study_2 (video_feedback and feedback_list_2)","VF_1st","In",1,1,1,"Positive Feedback","Video","w2ir4b",1,"continue","",24284.7029999881,24281.969,24284.7029999881,24284.7029999881,24281.969,24284.7029999881,1,24284.7029999881,0,0,NA,"Click To Continue","Continue Button",1,"object-14","Positive Feedback","P5_P.mp4","Screenshot 2023-06-30 at 15.00.42.png","Screenshot 2023-06-30 at 15.00.55.png",NA,"SUPTM83190"
"7",1691429431655,"07/08/2023 17:30:31",1691433031655,1,"07/08/2023 19:30:31",139282,42,"task-s9co",NA,31091977,9216438,NA,"complete",NA,NA,"computer","Desktop or Laptop","Windows 10","Chrome 115.0.0.0","1536x864","1536x747",NA,NA,NA,"Video Feedback Task (Clone)",6,"In","DECFBGAHJI",NA,"study_2 (video_feedback and feedback_list_2)","VF_1st","In",1,1,1,"Positive Feedback","Video","w2ir4b",1,"response","she is describing the picture well",16063.162,24281.969,24286.2029999881,16063.162,24281.969,24286.2029999881,1,16063.162,8223.04099998808,0,NA,"Text Entry","Text Entry",4,"object-19","Positive Feedback","P5_P.mp4","Screenshot 2023-06-30 at 15.00.42.png","Screenshot 2023-06-30 at 15.00.55.png",NA,"SUPTM83190"
"8",1691429431655,"07/08/2023 17:30:31",1691433031655,1,"07/08/2023 19:30:31",139282,42,"task-s9co",NA,31091977,9216438,NA,"complete",NA,NA,"computer","Desktop or Laptop","Windows 10","Chrome 115.0.0.0","1536x864","1536x747",NA,NA,NA,"Video Feedback Task (Clone)",6,"In","DECFBGAHJI",NA,"study_2 (video_feedback and feedback_list_2)","VF_1st","In",1,1,1,"Positive Feedback","Video","w2ir4b",1,"response","the persons voice volume is high",3843.155,24281.969,24286.403000006,3843.155,24281.969,24286.403000006,1,3843.155,20443.248000006,0,NA,"Text Entry","Text Entry",5,"object-20","Positive Feedback","P5_P.mp4","Screenshot 2023-06-30 at 15.00.42.png","Screenshot 2023-06-30 at 15.00.55.png",NA,"SUPTM83190"
"9",1691429432633,"07/08/2023 17:30:32",1691433032633,1,"07/08/2023 19:30:32",139282,42,"task-s9co",NA,31091977,9216438,NA,"complete",NA,NA,"computer","Desktop or Laptop","Windows 10","Chrome 115.0.0.0","1536x864","1536x747",NA,NA,NA,"Video Feedback Task (Clone)",6,"In","DECFBGAHJI",NA,"study_2 (video_feedback and feedback_list_2)","VF_1st","In",1,1,1,"Positive Feedback","Fixation","mtm832",2,"continue","",981.650999999998,981.650999999998,981.650999999998,981.650999999998,981.650999999998,981.650999999998,1,981.650999999998,0,0,NA,"Fixation Timing","Fixation",1,"object-65","Positive Feedback","P5_P.mp4","Screenshot 2023-06-30 at 15.00.42.png","Screenshot 2023-06-30 at 15.00.55.png",NA,"SUPTM83190"
"10",1691429474590,"07/08/2023 17:31:14",1691433074590,1,"07/08/2023 19:31:14",139282,42,"task-s9co",NA,31091977,9216438,NA,"complete",NA,NA,"computer","Desktop or Laptop","Windows 10","Chrome 115.0.0.0","1536x864","1536x747",NA,NA,NA,"Video Feedback Task (Clone)",6,"In","DECFBGAHJI",NA,"study_2 (video_feedback and feedback_list_2)","VF_1st","In",1,1,2,"Positive Feedback","Video","w2ir4b",1,"continue","",41956.883,41950.519,41956.883,41956.883,41950.519,41956.883,1,41956.883,0,0,NA,"Click To Continue","Continue Button",1,"object-14","Positive Feedback","P2_P.mp4","Screenshot 2023-06-30 at 15.01.08.png","Screenshot 2023-06-30 at 15.00.55.png",NA,"SUPTM83190"
"11",1691429474591,"07/08/2023 17:31:14",1691433074591,1,"07/08/2023 19:31:14",139282,42,"task-s9co",NA,31091977,9216438,NA,"complete",NA,NA,"computer","Desktop or Laptop","Windows 10","Chrome 115.0.0.0","1536x864","1536x747",NA,NA,NA,"Video Feedback Task (Clone)",6,"In","DECFBGAHJI",NA,"study_2 (video_feedback and feedback_list_2)","VF_1st","In",1,1,2,"Positive Feedback","Video","w2ir4b",1,"response","the person description is good",36252.26,41950.519,41958.0829999881,36252.26,41950.519,41958.0829999881,1,36252.26,5705.82299998809,0,NA,"Text Entry","Text Entry",4,"object-19","Positive Feedback","P2_P.mp4","Screenshot 2023-06-30 at 15.01.08.png","Screenshot 2023-06-30 at 15.00.55.png",NA,"SUPTM83190"
"12",1691429474591,"07/08/2023 17:31:14",1691433074591,1,"07/08/2023 19:31:14",139282,42,"task-s9co",NA,31091977,9216438,NA,"complete",NA,NA,"computer","Desktop or Laptop","Windows 10","Chrome 115.0.0.0","1536x864","1536x747",NA,NA,NA,"Video Feedback Task (Clone)",6,"In","DECFBGAHJI",NA,"study_2 (video_feedback and feedback_list_2)","VF_1st","In",1,1,2,"Positive Feedback","Video","w2ir4b",1,"response","the persons watch is nice",28258.17,41950.519,41958.283000006,28258.17,41950.519,41958.283000006,1,28258.17,13700.113000006,0,NA,"Text Entry","Text Entry",5,"object-20","Positive Feedback","P2_P.mp4","Screenshot 2023-06-30 at 15.01.08.png","Screenshot 2023-06-30 at 15.00.55.png",NA,"SUPTM83190"
"13",1691429475565,"07/08/2023 17:31:15",1691433075565,1,"07/08/2023 19:31:15",139282,42,"task-s9co",NA,31091977,9216438,NA,"complete",NA,NA,"computer","Desktop or Laptop","Windows 10","Chrome 115.0.0.0","1536x864","1536x747",NA,NA,NA,"Video Feedback Task (Clone)",6,"In","DECFBGAHJI",NA,"study_2 (video_feedback and feedback_list_2)","VF_1st","In",1,1,2,"Positive Feedback","Fixation","mtm832",2,"continue","",981.671000000002,981.671000000002,981.671000000002,981.671000000002,981.671000000002,981.671000000002,1,981.671000000002,0,0,NA,"Fixation Timing","Fixation",1,"object-65","Positive Feedback","P2_P.mp4","Screenshot 2023-06-30 at 15.01.08.png","Screenshot 2023-06-30 at 15.00.55.png",NA,"SUPTM83190"
"14",1691429500543,"07/08/2023 17:31:40",1691433100543,1,"07/08/2023 19:31:40",139282,42,"task-s9co",NA,31091977,9216438,NA,"complete",NA,NA,"computer","Desktop or Laptop","Windows 10","Chrome 115.0.0.0","1536x864","1536x747",NA,NA,NA,"Video Feedback Task (Clone)",6,"In","DECFBGAHJI",NA,"study_2 (video_feedback and feedback_list_2)","VF_1st","In",1,1,2,"Neutral Feedback","Screen 1","3zrml3",1,"continue","",24977.292999994,24972.31,24977.292999994,24977.292999994,24972.31,24977.292999994,1,24977.292999994,0,0,NA,"Click To Continue","Continue Button",1,"object-155","Neutral Feedback","P3_N.mp4","Screenshot 2023-06-30 at 15.01.08.png","Screenshot 2023-06-30 at 15.02.01.png",NA,"SUPTM83190"
"15",1691429500544,"07/08/2023 17:31:40",1691433100544,1,"07/08/2023 19:31:40",139282,42,"task-s9co",NA,31091977,9216438,NA,"complete",NA,NA,"computer","Desktop or Laptop","Windows 10","Chrome 115.0.0.0","1536x864","1536x747",NA,NA,NA,"Video Feedback Task (Clone)",6,"In","DECFBGAHJI",NA,"study_2 (video_feedback and feedback_list_2)","VF_1st","In",1,1,2,"Neutral Feedback","Screen 1","3zrml3",1,"response","the person has short hair",20621.819,24972.31,24978.4930000119,20621.819,24972.31,24978.4930000119,1,20621.819,4356.67400001192,0,NA,"Text Entry","Text Entry",4,"object-158","Neutral Feedback","P3_N.mp4","Screenshot 2023-06-30 at 15.01.08.png","Screenshot 2023-06-30 at 15.02.01.png",NA,"SUPTM83190"
"16",1691429500544,"07/08/2023 17:31:40",1691433100544,1,"07/08/2023 19:31:40",139282,42,"task-s9co",NA,31091977,9216438,NA,"complete",NA,NA,"computer","Desktop or Laptop","Windows 10","Chrome 115.0.0.0","1536x864","1536x747",NA,NA,NA,"Video Feedback Task (Clone)",6,"In","DECFBGAHJI",NA,"study_2 (video_feedback and feedback_list_2)","VF_1st","In",1,1,2,"Neutral Feedback","Screen 1","3zrml3",1,"response","the person is wearing a shirt",15281.118,24972.31,24978.693,15281.118,24972.31,24978.693,1,15281.118,9697.575,0,NA,"Text Entry","Text Entry",5,"object-159","Neutral Feedback","P3_N.mp4","Screenshot 2023-06-30 at 15.01.08.png","Screenshot 2023-06-30 at 15.02.01.png",NA,"SUPTM83190"
"17",1691429501520,"07/08/2023 17:31:41",1691433101520,1,"07/08/2023 19:31:41",139282,42,"task-s9co",NA,31091977,9216438,NA,"complete",NA,NA,"computer","Desktop or Laptop","Windows 10","Chrome 115.0.0.0","1536x864","1536x747",NA,NA,NA,"Video Feedback Task (Clone)",6,"In","DECFBGAHJI",NA,"study_2 (video_feedback and feedback_list_2)","VF_1st","In",1,1,2,"Neutral Feedback","Screen 2","vv4mhq",2,"continue","",981.701000000001,981.701000000001,981.701000000001,981.701000000001,981.701000000001,981.701000000001,1,981.701000000001,0,0,NA,"Fixation Timing","Fixation",1,"object-153","Neutral Feedback","P3_N.mp4","Screenshot 2023-06-30 at 15.01.08.png","Screenshot 2023-06-30 at 15.02.01.png",NA,"SUPTM83190"
"18",1691429534767,"07/08/2023 17:32:14",1691433134767,1,"07/08/2023 19:32:14",139282,42,"task-s9co",NA,31091977,9216438,NA,"complete",NA,NA,"computer","Desktop or Laptop","Windows 10","Chrome 115.0.0.0","1536x864","1536x747",NA,NA,NA,"Video Feedback Task (Clone)",6,"In","DECFBGAHJI",NA,"study_2 (video_feedback and feedback_list_2)","VF_1st","In",1,1,3,"Positive Feedback","Video","w2ir4b",1,"continue","",33247.3819999881,33241.002,33247.3819999881,33247.3819999881,33241.002,33247.3819999881,1,33247.3819999881,0,0,NA,"Click To Continue","Continue Button",1,"object-14","Positive Feedback","P1_P.mp4","Screenshot 2023-06-30 at 15.00.42.png","Screenshot 2023-06-30 at 15.02.01.png",NA,"SUPTM83190"
"19",1691429534768,"07/08/2023 17:32:14",1691433134768,1,"07/08/2023 19:32:14",139282,42,"task-s9co",NA,31091977,9216438,NA,"complete",NA,NA,"computer","Desktop or Laptop","Windows 10","Chrome 115.0.0.0","1536x864","1536x747",NA,NA,NA,"Video Feedback Task (Clone)",6,"In","DECFBGAHJI",NA,"study_2 (video_feedback and feedback_list_2)","VF_1st","In",1,1,3,"Positive Feedback","Video","w2ir4b",1,"response","i like the persons dress",29614.107,33241.002,33248.781999994,29614.107,33241.002,33248.781999994,1,29614.107,3634.67499999405,0,NA,"Text Entry","Text Entry",4,"object-19","Positive Feedback","P1_P.mp4","Screenshot 2023-06-30 at 15.00.42.png","Screenshot 2023-06-30 at 15.02.01.png",NA,"SUPTM83190"
"20",1691429534768,"07/08/2023 17:32:14",1691433134768,1,"07/08/2023 19:32:14",139282,42,"task-s9co",NA,31091977,9216438,NA,"complete",NA,NA,"computer","Desktop or Laptop","Windows 10","Chrome 115.0.0.0","1536x864","1536x747",NA,NA,NA,"Video Feedback Task (Clone)",6,"In","DECFBGAHJI",NA,"study_2 (video_feedback and feedback_list_2)","VF_1st","In",1,1,3,"Positive Feedback","Video","w2ir4b",1,"response","the person uses her hands to describe ",18542.083,33241.002,33248.9820000119,18542.083,33241.002,33248.9820000119,1,18542.083,14706.8990000119,0,NA,"Text Entry","Text Entry",5,"object-20","Positive Feedback","P1_P.mp4","Screenshot 2023-06-30 at 15.00.42.png","Screenshot 2023-06-30 at 15.02.01.png",NA,"SUPTM83190"
"21",1691429535742,"07/08/2023 17:32:15",1691433135742,1,"07/08/2023 19:32:15",139282,42,"task-s9co",NA,31091977,9216438,NA,"complete",NA,NA,"computer","Desktop or Laptop","Windows 10","Chrome 115.0.0.0","1536x864","1536x747",NA,NA,NA,"Video Feedback Task (Clone)",6,"In","DECFBGAHJI",NA,"study_2 (video_feedback and feedback_list_2)","VF_1st","In",1,1,3,"Positive Feedback","Fixation","mtm832",2,"continue","",981.551999999996,981.551999999996,981.551999999996,981.551999999996,981.551999999996,981.551999999996,1,981.551999999996,0,0,NA,"Fixation Timing","Fixation",1,"object-65","Positive Feedback","P1_P.mp4","Screenshot 2023-06-30 at 15.00.42.png","Screenshot 2023-06-30 at 15.02.01.png",NA,"SUPTM83190"
"22",1691429555238,"07/08/2023 17:32:35",1691433155238,1,"07/08/2023 19:32:35",139282,42,"task-s9co",NA,31091977,9216438,NA,"complete",NA,NA,"computer","Desktop or Laptop","Windows 10","Chrome 115.0.0.0","1536x864","1536x747",NA,NA,NA,"Video Feedback Task (Clone)",6,"In","DECFBGAHJI",NA,"study_2 (video_feedback and feedback_list_2)","VF_1st","In",1,1,3,"Neutral Feedback","Screen 1","3zrml3",1,"continue","",19496.8279999881,19490.404,19496.8279999881,19496.8279999881,19490.404,19496.8279999881,1,19496.8279999881,0,0,NA,"Click To Continue","Continue Button",1,"object-155","Neutral Feedback","P4_N.mp4","Screenshot 2023-06-30 at 15.00.42.png","Screenshot 2023-06-30 at 15.00.55.png",NA,"SUPTM83190"
"23",1691429555240,"07/08/2023 17:32:35",1691433155240,1,"07/08/2023 19:32:35",139282,42,"task-s9co",NA,31091977,9216438,NA,"complete",NA,NA,"computer","Desktop or Laptop","Windows 10","Chrome 115.0.0.0","1536x864","1536x747",NA,NA,NA,"Video Feedback Task (Clone)",6,"In","DECFBGAHJI",NA,"study_2 (video_feedback and feedback_list_2)","VF_1st","In",1,1,3,"Neutral Feedback","Screen 1","3zrml3",1,"response","the person has a big nose",15539.18,19490.404,19498.128,15539.18,19490.404,19498.128,1,15539.18,3958.948,0,NA,"Text Entry","Text Entry",4,"object-158","Neutral Feedback","P4_N.mp4","Screenshot 2023-06-30 at 15.00.42.png","Screenshot 2023-06-30 at 15.00.55.png",NA,"SUPTM83190"
"24",1691429555240,"07/08/2023 17:32:35",1691433155240,1,"07/08/2023 19:32:35",139282,42,"task-s9co",NA,31091977,9216438,NA,"complete",NA,NA,"computer","Desktop or Laptop","Windows 10","Chrome 115.0.0.0","1536x864","1536x747",NA,NA,NA,"Video Feedback Task (Clone)",6,"In","DECFBGAHJI",NA,"study_2 (video_feedback and feedback_list_2)","VF_1st","In",1,1,3,"Neutral Feedback","Screen 1","3zrml3",1,"response","she is wearing an orange sweater",2445.57499999998,19490.404,19498.227999994,2445.57499999998,19490.404,19498.227999994,1,2445.57499999998,17052.6529999941,0,NA,"Text Entry","Text Entry",5,"object-159","Neutral Feedback","P4_N.mp4","Screenshot 2023-06-30 at 15.00.42.png","Screenshot 2023-06-30 at 15.00.55.png",NA,"SUPTM83190"
"25",1691429556214,"07/08/2023 17:32:36",1691433156214,1,"07/08/2023 19:32:36",139282,42,"task-s9co",NA,31091977,9216438,NA,"complete",NA,NA,"computer","Desktop or Laptop","Windows 10","Chrome 115.0.0.0","1536x864","1536x747",NA,NA,NA,"Video Feedback Task (Clone)",6,"In","DECFBGAHJI",NA,"study_2 (video_feedback and feedback_list_2)","VF_1st","In",1,1,3,"Neutral Feedback","Screen 2","vv4mhq",2,"continue","",981.648999999976,981.648999999976,981.648999999976,981.648999999976,981.648999999976,981.648999999976,1,981.648999999976,0,0,NA,"Fixation Timing","Fixation",1,"object-153","Neutral Feedback","P4_N.mp4","Screenshot 2023-06-30 at 15.00.42.png","Screenshot 2023-06-30 at 15.00.55.png",NA,"SUPTM83190"
"26",1691429568343,"07/08/2023 17:32:48",1691433168343,1,"07/08/2023 19:32:48",139282,42,"task-s9co",NA,31091977,9216438,NA,"complete",NA,NA,"computer","Desktop or Laptop","Windows 10","Chrome 115.0.0.0","1536x864","1536x747",NA,NA,NA,"Video Feedback Task (Clone)",6,"In","DECFBGAHJI",NA,"study_2 (video_feedback and feedback_list_2)","VF_1st","In",1,1,4,"Positive Feedback","Video","w2ir4b",1,"continue","",12128.509,12120.19,12128.509,12128.509,12120.19,12128.509,1,12128.509,0,0,NA,"Click To Continue","Continue Button",1,"object-14","Positive Feedback","P3_P.mp4","Screenshot 2023-06-30 at 15.01.08.png","Screenshot 2023-06-30 at 15.02.01.png",NA,"SUPTM83190"
"27",1691429568344,"07/08/2023 17:32:48",1691433168344,1,"07/08/2023 19:32:48",139282,42,"task-s9co",NA,31091977,9216438,NA,"complete",NA,NA,"computer","Desktop or Laptop","Windows 10","Chrome 115.0.0.0","1536x864","1536x747",NA,NA,NA,"Video Feedback Task (Clone)",6,"In","DECFBGAHJI",NA,"study_2 (video_feedback and feedback_list_2)","VF_1st","In",1,1,4,"Positive Feedback","Video","w2ir4b",1,"response","the person has nice hair",7536.57400000002,12120.19,12128.509,7536.57400000002,12120.19,12128.509,1,7536.57400000002,4591.93499999997,0,NA,"Text Entry","Text Entry",4,"object-19","Positive Feedback","P3_P.mp4","Screenshot 2023-06-30 at 15.01.08.png","Screenshot 2023-06-30 at 15.02.01.png",NA,"SUPTM83190"
"28",1691429568344,"07/08/2023 17:32:48",1691433168344,1,"07/08/2023 19:32:48",139282,42,"task-s9co",NA,31091977,9216438,NA,"complete",NA,NA,"computer","Desktop or Laptop","Windows 10","Chrome 115.0.0.0","1536x864","1536x747",NA,NA,NA,"Video Feedback Task (Clone)",6,"In","DECFBGAHJI",NA,"study_2 (video_feedback and feedback_list_2)","VF_1st","In",1,1,4,"Positive Feedback","Video","w2ir4b",1,"response","the person has a good jawline",1555.63200000001,12120.19,12128.509,1555.63200000001,12120.19,12128.509,1,1555.63200000001,10572.877,0,NA,"Text Entry","Text Entry",5,"object-20","Positive Feedback","P3_P.mp4","Screenshot 2023-06-30 at 15.01.08.png","Screenshot 2023-06-30 at 15.02.01.png",NA,"SUPTM83190"
"29",1691429569316,"07/08/2023 17:32:49",1691433169316,1,"07/08/2023 19:32:49",139282,42,"task-s9co",NA,31091977,9216438,NA,"complete",NA,NA,"computer","Desktop or Laptop","Windows 10","Chrome 115.0.0.0","1536x864","1536x747",NA,NA,NA,"Video Feedback Task (Clone)",6,"In","DECFBGAHJI",NA,"study_2 (video_feedback and feedback_list_2)","VF_1st","In",1,1,4,"Positive Feedback","Fixation","mtm832",2,"continue","",981.606,981.606,981.606,981.606,981.606,981.606,1,981.606,0,0,NA,"Fixation Timing","Fixation",1,"object-65","Positive Feedback","P3_P.mp4","Screenshot 2023-06-30 at 15.01.08.png","Screenshot 2023-06-30 at 15.02.01.png",NA,"SUPTM83190"
"30",1691429615326,"07/08/2023 17:33:35",1691433215326,1,"07/08/2023 19:33:35",139282,42,"task-s9co",NA,31091977,9216438,NA,"complete",NA,NA,"computer","Desktop or Laptop","Windows 10","Chrome 115.0.0.0","1536x864","1536x747",NA,NA,NA,"Video Feedback Task (Clone)",6,"In","DECFBGAHJI",NA,"study_2 (video_feedback and feedback_list_2)","VF_1st","In",1,1,4,"Neutral Feedback","Screen 1","3zrml3",1,"continue","",46010.779,46009.965,46010.779,46010.779,46009.965,46010.779,1,46010.779,0,0,NA,"Click To Continue","Continue Button",1,"object-155","Neutral Feedback","P5_N.mp4","Screenshot 2023-06-30 at 15.00.42.png","Screenshot 2023-06-30 at 15.02.01.png",NA,"SUPTM83190"
"31",1691429615327,"07/08/2023 17:33:35",1691433215327,1,"07/08/2023 19:33:35",139282,42,"task-s9co",NA,31091977,9216438,NA,"complete",NA,NA,"computer","Desktop or Laptop","Windows 10","Chrome 115.0.0.0","1536x864","1536x747",NA,NA,NA,"Video Feedback Task (Clone)",6,"In","DECFBGAHJI",NA,"study_2 (video_feedback and feedback_list_2)","VF_1st","In",1,1,4,"Neutral Feedback","Screen 1","3zrml3",1,"response","the persons hair is up in a bun",40985.546,46009.965,46012.0790000119,40985.546,46009.965,46012.0790000119,1,40985.546,5026.53300001193,0,NA,"Text Entry","Text Entry",4,"object-158","Neutral Feedback","P5_N.mp4","Screenshot 2023-06-30 at 15.00.42.png","Screenshot 2023-06-30 at 15.02.01.png",NA,"SUPTM83190"
"32",1691429615328,"07/08/2023 17:33:35",1691433215328,1,"07/08/2023 19:33:35",139282,42,"task-s9co",NA,31091977,9216438,NA,"complete",NA,NA,"computer","Desktop or Laptop","Windows 10","Chrome 115.0.0.0","1536x864","1536x747",NA,NA,NA,"Video Feedback Task (Clone)",6,"In","DECFBGAHJI",NA,"study_2 (video_feedback and feedback_list_2)","VF_1st","In",1,1,4,"Neutral Feedback","Screen 1","3zrml3",1,"response","the person is wearing a ring",36385.379,46009.965,46012.179000006,36385.379,46009.965,46012.179000006,1,36385.379,9626.80000000595,0,NA,"Text Entry","Text Entry",5,"object-159","Neutral Feedback","P5_N.mp4","Screenshot 2023-06-30 at 15.00.42.png","Screenshot 2023-06-30 at 15.02.01.png",NA,"SUPTM83190"
"33",1691429616307,"07/08/2023 17:33:36",1691433216307,1,"07/08/2023 19:33:36",139282,42,"task-s9co",NA,31091977,9216438,NA,"complete",NA,NA,"computer","Desktop or Laptop","Windows 10","Chrome 115.0.0.0","1536x864","1536x747",NA,NA,NA,"Video Feedback Task (Clone)",6,"In","DECFBGAHJI",NA,"study_2 (video_feedback and feedback_list_2)","VF_1st","In",1,1,4,"Neutral Feedback","Screen 2","vv4mhq",2,"continue","",981.630000000005,981.630000000005,981.630000000005,981.630000000005,981.630000000005,981.630000000005,1,981.630000000005,0,0,NA,"Fixation Timing","Fixation",1,"object-153","Neutral Feedback","P5_N.mp4","Screenshot 2023-06-30 at 15.00.42.png","Screenshot 2023-06-30 at 15.02.01.png",NA,"SUPTM83190"
"34",1691429634683,"07/08/2023 17:33:54",1691433234683,1,"07/08/2023 19:33:54",139282,42,"task-s9co",NA,31091977,9216438,NA,"complete",NA,NA,"computer","Desktop or Laptop","Windows 10","Chrome 115.0.0.0","1536x864","1536x747",NA,NA,NA,"Video Feedback Task (Clone)",6,"In","DECFBGAHJI",NA,"study_2 (video_feedback and feedback_list_2)","VF_1st","In",1,1,5,"Neutral Feedback","Screen 1","3zrml3",1,"continue","",18376.8839999881,18375.689,18376.8839999881,18376.8839999881,18375.689,18376.8839999881,1,18376.8839999881,0,0,NA,"Click To Continue","Continue Button",1,"object-155","Neutral Feedback","P1_N.mp4","Screenshot 2023-06-30 at 15.01.08.png","Screenshot 2023-06-30 at 15.00.55.png",NA,"SUPTM83190"
"35",1691429634685,"07/08/2023 17:33:54",1691433234685,1,"07/08/2023 19:33:54",139282,42,"task-s9co",NA,31091977,9216438,NA,"complete",NA,NA,"computer","Desktop or Laptop","Windows 10","Chrome 115.0.0.0","1536x864","1536x747",NA,NA,NA,"Video Feedback Task (Clone)",6,"In","DECFBGAHJI",NA,"study_2 (video_feedback and feedback_list_2)","VF_1st","In",1,1,5,"Neutral Feedback","Screen 1","3zrml3",1,"response","the person hair is tied up",9474.82800000001,18375.689,18377.8839999881,9474.82800000001,18375.689,18377.8839999881,1,9474.82800000001,8903.05599998808,0,NA,"Text Entry","Text Entry",4,"object-158","Neutral Feedback","P1_N.mp4","Screenshot 2023-06-30 at 15.01.08.png","Screenshot 2023-06-30 at 15.00.55.png",NA,"SUPTM83190"
"36",1691429634685,"07/08/2023 17:33:54",1691433234685,1,"07/08/2023 19:33:54",139282,42,"task-s9co",NA,31091977,9216438,NA,"complete",NA,NA,"computer","Desktop or Laptop","Windows 10","Chrome 115.0.0.0","1536x864","1536x747",NA,NA,NA,"Video Feedback Task (Clone)",6,"In","DECFBGAHJI",NA,"study_2 (video_feedback and feedback_list_2)","VF_1st","In",1,1,5,"Neutral Feedback","Screen 1","3zrml3",1,"response","the person is wearing earrings",3551.91400000002,18375.689,18378.084000006,3551.91400000002,18375.689,18378.084000006,1,3551.91400000002,14826.1700000059,0,NA,"Text Entry","Text Entry",5,"object-159","Neutral Feedback","P1_N.mp4","Screenshot 2023-06-30 at 15.01.08.png","Screenshot 2023-06-30 at 15.00.55.png",NA,"SUPTM83190"
"37",1691429635664,"07/08/2023 17:33:55",1691433235664,1,"07/08/2023 19:33:55",139282,42,"task-s9co",NA,31091977,9216438,NA,"complete",NA,NA,"computer","Desktop or Laptop","Windows 10","Chrome 115.0.0.0","1536x864","1536x747",NA,NA,NA,"Video Feedback Task (Clone)",6,"In","DECFBGAHJI",NA,"study_2 (video_feedback and feedback_list_2)","VF_1st","In",1,1,5,"Neutral Feedback","Screen 2","vv4mhq",2,"continue","",981.717000000004,981.717000000004,981.717000000004,981.717000000004,981.717000000004,981.717000000004,1,981.717000000004,0,0,NA,"Fixation Timing","Fixation",1,"object-153","Neutral Feedback","P1_N.mp4","Screenshot 2023-06-30 at 15.01.08.png","Screenshot 2023-06-30 at 15.00.55.png",NA,"SUPTM83190"
"38",1691429652558,"07/08/2023 17:34:12",1691433252558,1,"07/08/2023 19:34:12",139282,42,"task-s9co",NA,31091977,9216438,NA,"complete",NA,NA,"computer","Desktop or Laptop","Windows 10","Chrome 115.0.0.0","1536x864","1536x747",NA,NA,NA,"Video Feedback Task (Clone)",6,"In","DECFBGAHJI",NA,"study_2 (video_feedback and feedback_list_2)","VF_1st","In",1,1,5,"Positive Feedback","Video","w2ir4b",1,"continue","",16893.9779999881,16886.618,16893.9779999881,16893.9779999881,16886.618,16893.9779999881,1,16893.9779999881,0,0,NA,"Click To Continue","Continue Button",1,"object-14","Positive Feedback","P4_P.mp4","Screenshot 2023-06-30 at 15.01.08.png","Screenshot 2023-06-30 at 15.00.55.png",NA,"SUPTM83190"
"39",1691429652559,"07/08/2023 17:34:12",1691433252559,1,"07/08/2023 19:34:12",139282,42,"task-s9co",NA,31091977,9216438,NA,"complete",NA,NA,"computer","Desktop or Laptop","Windows 10","Chrome 115.0.0.0","1536x864","1536x747",NA,NA,NA,"Video Feedback Task (Clone)",6,"In","DECFBGAHJI",NA,"study_2 (video_feedback and feedback_list_2)","VF_1st","In",1,1,5,"Positive Feedback","Video","w2ir4b",1,"response","the persons glasses are nice",6962.533,16886.618,16894.9620000001,6962.533,16886.618,16894.9620000001,1,6962.533,9932.42900000006,0,NA,"Text Entry","Text Entry",4,"object-19","Positive Feedback","P4_P.mp4","Screenshot 2023-06-30 at 15.01.08.png","Screenshot 2023-06-30 at 15.00.55.png",NA,"SUPTM83190"
"40",1691429652559,"07/08/2023 17:34:12",1691433252559,1,"07/08/2023 19:34:12",139282,42,"task-s9co",NA,31091977,9216438,NA,"complete",NA,NA,"computer","Desktop or Laptop","Windows 10","Chrome 115.0.0.0","1536x864","1536x747",NA,NA,NA,"Video Feedback Task (Clone)",6,"In","DECFBGAHJI",NA,"study_2 (video_feedback and feedback_list_2)","VF_1st","In",1,1,5,"Positive Feedback","Video","w2ir4b",1,"response","the persons hair is nice",2844.80900000001,16886.618,16894.9620000001,2844.80900000001,16886.618,16894.9620000001,1,2844.80900000001,14050.153,0,NA,"Text Entry","Text Entry",5,"object-20","Positive Feedback","P4_P.mp4","Screenshot 2023-06-30 at 15.01.08.png","Screenshot 2023-06-30 at 15.00.55.png",NA,"SUPTM83190"
"41",1691429653532,"07/08/2023 17:34:13",1691433253532,1,"07/08/2023 19:34:13",139282,42,"task-s9co",NA,31091977,9216438,NA,"complete",NA,NA,"computer","Desktop or Laptop","Windows 10","Chrome 115.0.0.0","1536x864","1536x747",NA,NA,NA,"Video Feedback Task (Clone)",6,"In","DECFBGAHJI",NA,"study_2 (video_feedback and feedback_list_2)","VF_1st","In",1,1,5,"Positive Feedback","Fixation","mtm832",2,"continue","",981.574999999953,981.574999999953,981.574999999953,981.574999999953,981.574999999953,981.574999999953,1,981.574999999953,0,0,NA,"Fixation Timing","Fixation",1,"object-65","Positive Feedback","P4_P.mp4","Screenshot 2023-06-30 at 15.01.08.png","Screenshot 2023-06-30 at 15.00.55.png",NA,"SUPTM83190"
"42",1691429653534,"07/08/2023 17:34:13",1691433253534,1,"07/08/2023 19:34:13",139282,42,"task-s9co",NA,31091977,9216438,NA,"complete",NA,NA,"computer","Desktop or Laptop","Windows 10","Chrome 115.0.0.0","1536x864","1536x747",NA,NA,NA,"Video Feedback Task (Clone)",6,"In","DECFBGAHJI",NA,"study_2 (video_feedback and feedback_list_2)","VF_1st","In",1,1,NA,"","","",NA,"5","END",NA,NA,NA,NA,NA,NA,0,NA,NA,NA,NA,"","",NA,"","","","","",NA,"SUPTM83190"
"1",1690912469762,"01/08/2023 17:54:29",1690916069762,1,"01/08/2023 19:54:29",139282,42,"task-s9co",NA,30991136,9194236,NA,"complete",NA,NA,"computer","Desktop or Laptop","Windows 10","Chrome 115.0.0.0","1536x864","1536x739",NA,NA,NA,"Video Feedback Task (Clone)",6,"In","BCADJEIFHG",NA,"study_2 (video_feedback and feedback_list_2)","VF_1st","In",1,1,NA,"","","",NA,"5","BEGIN",NA,NA,NA,NA,NA,NA,0,NA,NA,NA,NA,"","",NA,"","","","","",NA,"SUPTM24387"
"2",1690912523628,"01/08/2023 17:55:23",1690916123628,1,"01/08/2023 19:55:23",139282,42,"task-s9co",NA,30991136,9194236,NA,"complete",NA,NA,"computer","Desktop or Laptop","Windows 10","Chrome 115.0.0.0","1536x864","1536x739",NA,NA,NA,"Video Feedback Task (Clone)",6,"In","BCADJEIFHG",NA,"study_2 (video_feedback and feedback_list_2)","VF_1st","In",1,1,1,"Neutral Feedback","Screen 1","3zrml3",1,"continue","",52650.273,52633.638,52650.273,52650.273,52633.638,52650.273,1,52650.273,0,0,NA,"Click To Continue","Continue Button",1,"object-155","Neutral Feedback","P2_N.mp4","Screenshot 2023-06-30 at 15.01.08.png","Screenshot 2023-06-30 at 15.02.01.png",NA,"SUPTM24387"
"3",1690912528545,"01/08/2023 17:55:28",1690916128545,1,"01/08/2023 19:55:28",139282,42,"task-s9co",NA,30991136,9194236,NA,"complete",NA,NA,"computer","Desktop or Laptop","Windows 10","Chrome 115.0.0.0","1536x864","1536x739",NA,NA,NA,"Video Feedback Task (Clone)",6,"In","BCADJEIFHG",NA,"study_2 (video_feedback and feedback_list_2)","VF_1st","In",1,1,1,"Neutral Feedback","Screen 1","3zrml3",1,"continue","",57583.722,57567.009,57583.722,57583.722,57567.009,57583.722,1,57583.722,0,0,NA,"Click To Continue","Continue Button",1,"object-155","Neutral Feedback","P2_N.mp4","Screenshot 2023-06-30 at 15.01.08.png","Screenshot 2023-06-30 at 15.02.01.png",NA,"SUPTM24387"
"4",1690912528556,"01/08/2023 17:55:28",1690916128556,1,"01/08/2023 19:55:28",139282,42,"task-s9co",NA,30991136,9194236,NA,"complete",NA,NA,"computer","Desktop or Laptop","Windows 10","Chrome 115.0.0.0","1536x864","1536x739",NA,NA,NA,"Video Feedback Task (Clone)",6,"In","BCADJEIFHG",NA,"study_2 (video_feedback and feedback_list_2)","VF_1st","In",1,1,1,"Neutral Feedback","Screen 1","3zrml3",1,"response","Your voice was a little quiet but I could still hear.",56916.97,57567.009,57583.722,56916.97,57567.009,57583.722,1,56916.97,666.752,0,NA,"Text Entry","Text Entry",4,"object-158","Neutral Feedback","P2_N.mp4","Screenshot 2023-06-30 at 15.01.08.png","Screenshot 2023-06-30 at 15.02.01.png",NA,"SUPTM24387"
"5",1690912528556,"01/08/2023 17:55:28",1690916128556,1,"01/08/2023 19:55:28",139282,42,"task-s9co",NA,30991136,9194236,NA,"complete",NA,NA,"computer","Desktop or Laptop","Windows 10","Chrome 115.0.0.0","1536x864","1536x739",NA,NA,NA,"Video Feedback Task (Clone)",6,"In","BCADJEIFHG",NA,"study_2 (video_feedback and feedback_list_2)","VF_1st","In",1,1,1,"Neutral Feedback","Screen 1","3zrml3",1,"response","You could work on your confidence. ",30600.174,57567.009,57583.722,30600.174,57567.009,57583.722,1,30600.174,26983.548,0,NA,"Text Entry","Text Entry",5,"object-159","Neutral Feedback","P2_N.mp4","Screenshot 2023-06-30 at 15.01.08.png","Screenshot 2023-06-30 at 15.02.01.png",NA,"SUPTM24387"
"6",1690912529495,"01/08/2023 17:55:29",1690916129495,1,"01/08/2023 19:55:29",139282,42,"task-s9co",NA,30991136,9194236,NA,"complete",NA,NA,"computer","Desktop or Laptop","Windows 10","Chrome 115.0.0.0","1536x864","1536x739",NA,NA,NA,"Video Feedback Task (Clone)",6,"In","BCADJEIFHG",NA,"study_2 (video_feedback and feedback_list_2)","VF_1st","In",1,1,1,"Neutral Feedback","Screen 2","vv4mhq",2,"continue","",966.593999999997,966.593999999997,966.593999999997,966.593999999997,966.593999999997,966.593999999997,1,966.593999999997,0,0,NA,"Fixation Timing","Fixation",1,"object-153","Neutral Feedback","P2_N.mp4","Screenshot 2023-06-30 at 15.01.08.png","Screenshot 2023-06-30 at 15.02.01.png",NA,"SUPTM24387"
"7",1690912580866,"01/08/2023 17:56:20",1690916180866,1,"01/08/2023 19:56:20",139282,42,"task-s9co",NA,30991136,9194236,NA,"complete",NA,NA,"computer","Desktop or Laptop","Windows 10","Chrome 115.0.0.0","1536x864","1536x739",NA,NA,NA,"Video Feedback Task (Clone)",6,"In","BCADJEIFHG",NA,"study_2 (video_feedback and feedback_list_2)","VF_1st","In",1,1,1,"Positive Feedback","Video","w2ir4b",1,"continue","",51372.3930000358,51366.845,51372.3930000358,51372.3930000358,51366.845,51372.3930000358,1,51372.3930000358,0,0,NA,"Click To Continue","Continue Button",1,"object-14","Positive Feedback","P5_P.mp4","Screenshot 2023-06-30 at 15.00.42.png","Screenshot 2023-06-30 at 15.02.01.png",NA,"SUPTM24387"
"8",1690912580870,"01/08/2023 17:56:20",1690916180870,1,"01/08/2023 19:56:20",139282,42,"task-s9co",NA,30991136,9194236,NA,"complete",NA,NA,"computer","Desktop or Laptop","Windows 10","Chrome 115.0.0.0","1536x864","1536x739",NA,NA,NA,"Video Feedback Task (Clone)",6,"In","BCADJEIFHG",NA,"study_2 (video_feedback and feedback_list_2)","VF_1st","In",1,1,1,"Positive Feedback","Video","w2ir4b",1,"response","You seemed confident in your description.",39716.795,51366.845,51377.1929999881,39716.795,51366.845,51377.1929999881,1,39716.795,11660.3979999881,0,NA,"Text Entry","Text Entry",4,"object-19","Positive Feedback","P5_P.mp4","Screenshot 2023-06-30 at 15.00.42.png","Screenshot 2023-06-30 at 15.02.01.png",NA,"SUPTM24387"
"9",1690912580871,"01/08/2023 17:56:20",1690916180871,1,"01/08/2023 19:56:20",139282,42,"task-s9co",NA,30991136,9194236,NA,"complete",NA,NA,"computer","Desktop or Laptop","Windows 10","Chrome 115.0.0.0","1536x864","1536x739",NA,NA,NA,"Video Feedback Task (Clone)",6,"In","BCADJEIFHG",NA,"study_2 (video_feedback and feedback_list_2)","VF_1st","In",1,1,1,"Positive Feedback","Video","w2ir4b",1,"response","Your description was detailed and clear.",26116.774,51366.845,51377.8930000358,26116.774,51366.845,51377.8930000358,1,26116.774,25261.1190000358,0,NA,"Text Entry","Text Entry",5,"object-20","Positive Feedback","P5_P.mp4","Screenshot 2023-06-30 at 15.00.42.png","Screenshot 2023-06-30 at 15.02.01.png",NA,"SUPTM24387"
"10",1690912581827,"01/08/2023 17:56:21",1690916181827,1,"01/08/2023 19:56:21",139282,42,"task-s9co",NA,30991136,9194236,NA,"complete",NA,NA,"computer","Desktop or Laptop","Windows 10","Chrome 115.0.0.0","1536x864","1536x739",NA,NA,NA,"Video Feedback Task (Clone)",6,"In","BCADJEIFHG",NA,"study_2 (video_feedback and feedback_list_2)","VF_1st","In",1,1,1,"Positive Feedback","Fixation","mtm832",2,"continue","",966.683999999994,966.683999999994,966.683999999994,966.683999999994,966.683999999994,966.683999999994,1,966.683999999994,0,0,NA,"Fixation Timing","Fixation",1,"object-65","Positive Feedback","P5_P.mp4","Screenshot 2023-06-30 at 15.00.42.png","Screenshot 2023-06-30 at 15.02.01.png",NA,"SUPTM24387"
"11",1690912623144,"01/08/2023 17:57:03",1690916223144,1,"01/08/2023 19:57:03",139282,42,"task-s9co",NA,30991136,9194236,NA,"complete",NA,NA,"computer","Desktop or Laptop","Windows 10","Chrome 115.0.0.0","1536x864","1536x739",NA,NA,NA,"Video Feedback Task (Clone)",6,"In","BCADJEIFHG",NA,"study_2 (video_feedback and feedback_list_2)","VF_1st","In",1,1,2,"Positive Feedback","Video","w2ir4b",1,"continue","",41316.721,41300.128,41316.721,41316.721,41300.128,41316.721,1,41316.721,0,0,NA,"Click To Continue","Continue Button",1,"object-14","Positive Feedback","P2_P.mp4","Screenshot 2023-06-30 at 15.01.08.png","Screenshot 2023-06-30 at 15.02.01.png",NA,"SUPTM24387"
"12",1690912623149,"01/08/2023 17:57:03",1690916223149,1,"01/08/2023 19:57:03",139282,42,"task-s9co",NA,30991136,9194236,NA,"complete",NA,NA,"computer","Desktop or Laptop","Windows 10","Chrome 115.0.0.0","1536x864","1536x739",NA,NA,NA,"Video Feedback Task (Clone)",6,"In","BCADJEIFHG",NA,"study_2 (video_feedback and feedback_list_2)","VF_1st","In",1,1,2,"Positive Feedback","Video","w2ir4b",1,"response","I like that you made eye contact.",36450.177,41300.128,41316.721,36450.177,41300.128,41316.721,1,36450.177,4866.54399999999,0,NA,"Text Entry","Text Entry",4,"object-19","Positive Feedback","P2_P.mp4","Screenshot 2023-06-30 at 15.01.08.png","Screenshot 2023-06-30 at 15.02.01.png",NA,"SUPTM24387"
"13",1690912623150,"01/08/2023 17:57:03",1690916223150,1,"01/08/2023 19:57:03",139282,42,"task-s9co",NA,30991136,9194236,NA,"complete",NA,NA,"computer","Desktop or Laptop","Windows 10","Chrome 115.0.0.0","1536x864","1536x739",NA,NA,NA,"Video Feedback Task (Clone)",6,"In","BCADJEIFHG",NA,"study_2 (video_feedback and feedback_list_2)","VF_1st","In",1,1,2,"Positive Feedback","Video","w2ir4b",1,"response","You seem friendly; like someone I would get along with.",24533.419,41300.128,41316.721,24533.419,41300.128,41316.721,1,24533.419,16783.302,0,NA,"Text Entry","Text Entry",5,"object-20","Positive Feedback","P2_P.mp4","Screenshot 2023-06-30 at 15.01.08.png","Screenshot 2023-06-30 at 15.02.01.png",NA,"SUPTM24387"
"14",1690912624095,"01/08/2023 17:57:04",1690916224095,1,"01/08/2023 19:57:04",139282,42,"task-s9co",NA,30991136,9194236,NA,"complete",NA,NA,"computer","Desktop or Laptop","Windows 10","Chrome 115.0.0.0","1536x864","1536x739",NA,NA,NA,"Video Feedback Task (Clone)",6,"In","BCADJEIFHG",NA,"study_2 (video_feedback and feedback_list_2)","VF_1st","In",1,1,2,"Positive Feedback","Fixation","mtm832",2,"continue","",966.719000000012,966.719000000012,966.719000000012,966.719000000012,966.719000000012,966.719000000012,1,966.719000000012,0,0,NA,"Fixation Timing","Fixation",1,"object-65","Positive Feedback","P2_P.mp4","Screenshot 2023-06-30 at 15.01.08.png","Screenshot 2023-06-30 at 15.02.01.png",NA,"SUPTM24387"
"15",1690912717334,"01/08/2023 17:58:37",1690916317334,1,"01/08/2023 19:58:37",139282,42,"task-s9co",NA,30991136,9194236,NA,"complete",NA,NA,"computer","Desktop or Laptop","Windows 10","Chrome 115.0.0.0","1536x864","1536x739",NA,NA,NA,"Video Feedback Task (Clone)",6,"In","BCADJEIFHG",NA,"study_2 (video_feedback and feedback_list_2)","VF_1st","In",1,1,2,"Neutral Feedback","Screen 1","3zrml3",1,"continue","",93240.7170000238,93233.67,93240.7170000238,93240.7170000238,93233.67,93240.7170000238,1,93240.7170000238,0,0,NA,"Click To Continue","Continue Button",1,"object-155","Neutral Feedback","P3_N.mp4","Screenshot 2023-06-30 at 15.01.08.png","Screenshot 2023-06-30 at 15.02.01.png",NA,"SUPTM24387"
"16",1690912717341,"01/08/2023 17:58:37",1690916317341,1,"01/08/2023 19:58:37",139282,42,"task-s9co",NA,30991136,9194236,NA,"complete",NA,NA,"computer","Desktop or Laptop","Windows 10","Chrome 115.0.0.0","1536x864","1536x739",NA,NA,NA,"Video Feedback Task (Clone)",6,"In","BCADJEIFHG",NA,"study_2 (video_feedback and feedback_list_2)","VF_1st","In",1,1,2,"Neutral Feedback","Screen 1","3zrml3",1,"response","You repeated yourself a little.",50650.143,93233.67,93247.4170000119,50650.143,93233.67,93247.4170000119,1,50650.143,42597.2740000119,0,NA,"Text Entry","Text Entry",4,"object-158","Neutral Feedback","P3_N.mp4","Screenshot 2023-06-30 at 15.01.08.png","Screenshot 2023-06-30 at 15.02.01.png",NA,"SUPTM24387"
"17",1690912717342,"01/08/2023 17:58:37",1690916317342,1,"01/08/2023 19:58:37",139282,42,"task-s9co",NA,30991136,9194236,NA,"complete",NA,NA,"computer","Desktop or Laptop","Windows 10","Chrome 115.0.0.0","1536x864","1536x739",NA,NA,NA,"Video Feedback Task (Clone)",6,"In","BCADJEIFHG",NA,"study_2 (video_feedback and feedback_list_2)","VF_1st","In",1,1,2,"Neutral Feedback","Screen 1","3zrml3",1,"response","I didn't really understand the setting of the picture from your description.",27883.411,93233.67,93248.5170000358,27883.411,93233.67,93248.5170000358,1,27883.411,65365.1060000358,0,NA,"Text Entry","Text Entry",5,"object-159","Neutral Feedback","P3_N.mp4","Screenshot 2023-06-30 at 15.01.08.png","Screenshot 2023-06-30 at 15.02.01.png",NA,"SUPTM24387"
"18",1690912718294,"01/08/2023 17:58:38",1690916318294,1,"01/08/2023 19:58:38",139282,42,"task-s9co",NA,30991136,9194236,NA,"complete",NA,NA,"computer","Desktop or Laptop","Windows 10","Chrome 115.0.0.0","1536x864","1536x739",NA,NA,NA,"Video Feedback Task (Clone)",6,"In","BCADJEIFHG",NA,"study_2 (video_feedback and feedback_list_2)","VF_1st","In",1,1,2,"Neutral Feedback","Screen 2","vv4mhq",2,"continue","",966.495999999985,966.495999999985,966.495999999985,966.495999999985,966.495999999985,966.495999999985,1,966.495999999985,0,0,NA,"Fixation Timing","Fixation",1,"object-153","Neutral Feedback","P3_N.mp4","Screenshot 2023-06-30 at 15.01.08.png","Screenshot 2023-06-30 at 15.02.01.png",NA,"SUPTM24387"
"19",1690912770423,"01/08/2023 17:59:30",1690916370423,1,"01/08/2023 19:59:30",139282,42,"task-s9co",NA,30991136,9194236,NA,"complete",NA,NA,"computer","Desktop or Laptop","Windows 10","Chrome 115.0.0.0","1536x864","1536x739",NA,NA,NA,"Video Feedback Task (Clone)",6,"In","BCADJEIFHG",NA,"study_2 (video_feedback and feedback_list_2)","VF_1st","In",1,1,3,"Positive Feedback","Video","w2ir4b",1,"continue","",52129.951,52116.937,52129.951,52129.951,52116.937,52129.951,1,52129.951,0,0,NA,"Click To Continue","Continue Button",1,"object-14","Positive Feedback","P1_P.mp4","Screenshot 2023-06-30 at 15.00.42.png","Screenshot 2023-06-30 at 15.00.55.png",NA,"SUPTM24387"
