"Event.Index","UTC.Timestamp","UTC.Date.and.Time","Local.Timestamp","Local.Timezone","Local.Date.and.Time","Experiment.ID","Experiment.Version","Tree.Node.Key","Repeat.Key","Schedule.ID","Participant.Private.ID","Participant.Starting.Group","Participant.Status","Participant.Completion.Code","Participant.External.Session.ID","Participant.Device.Type","Participant.Device","Participant.OS","Participant.Browser","Participant.Monitor.Size","Participant.Viewport.Size","Checkpoint","Room.ID","Room.Order","Task.Name","Task.Version","branch.hkzp","order.ot79","randomiser.lqqr","randomiser.28m8","randomiser.tf5j","branch.vlgf","Spreadsheet","Current.Spreadsheet","Trial.Number","Display","Screen","Screen.ID","Screen.Counter","Response.Type","Response","Onset.Time","Clock.Time","Reaction.Time","Absolute.Onset.Time","Absolute.Clock.Time","Absolute.Reaction.Time","Correct","Response.Onset","Response.Duration","Proportion","Tag","Component.Name","Object.Name","Object.Number","Object.ID","Spreadsheet..display","Spreadsheet..stimulus","Spreadsheet..rand","Spreadsheet..conditions","Manipulation..Spreadsheet","Random_ID"
"1",1690970919586,"02/08/2023 10:08:39",1690974519586,1,"02/08/2023 12:08:39",139282,42,"task-5tah",NA,31000865,9196035,NA,"complete",NA,NA,"computer","Desktop or Laptop","Windows 10","Chrome 115.0.0.0","1920x1080","1920x969",NA,NA,NA,"JV Task P1 (Clone) (study_2)",22,"In","EFDGCHBIAJ","A (JV first)","study_1 (JV and feedback_list_1)",NA,"In","SS1","SS1",NA,"","","",NA,"5","BEGIN",NA,NA,NA,NA,NA,NA,0,NA,NA,NA,NA,"","",NA,"","","",NA,NA,NA,"SUPTM52921"
"2",1690970920847,"02/08/2023 10:08:40",1690974520847,1,"02/08/2023 12:08:40",139282,42,"task-5tah",NA,31000865,9196035,NA,"complete",NA,NA,"computer","Desktop or Laptop","Windows 10","Chrome 115.0.0.0","1920x1080","1920x969",NA,NA,NA,"JV Task P1 (Clone) (study_2)",22,"In","EFDGCHBIAJ","A (JV first)","study_1 (JV and feedback_list_1)",NA,"In","SS1","SS1",1,"instructions","Screen 1","rdpzeq",1,"continue","",1272.73599996424,1267.153,1272.73599996424,1272.73599996424,1267.153,1272.73599996424,1,1272.73599996424,0,0,NA,"Click To Continue","Next Button",2,"object-28","instructions","",NA,NA,NA,"SUPTM52921"
"3",1690970926279,"02/08/2023 10:08:46",1690974526279,1,"02/08/2023 12:08:46",139282,42,"task-5tah",NA,31000865,9196035,NA,"complete",NA,NA,"computer","Desktop or Laptop","Windows 10","Chrome 115.0.0.0","1920x1080","1920x969",NA,NA,NA,"JV Task P1 (Clone) (study_2)",22,"In","EFDGCHBIAJ","A (JV first)","study_1 (JV and feedback_list_1)",NA,"In","SS1","SS1",1,"instructions","Screen 2","xoeas1",2,"continue","",5438.28299995232,5433.122,5438.28299995232,5438.28299995232,5433.122,5438.28299995232,1,5438.28299995232,0,0,NA,"Click To Continue","Continue Button",2,"object-32","instructions","",NA,NA,NA,"SUPTM52921"
"4",1690970930868,"02/08/2023 10:08:50",1690974530868,1,"02/08/2023 12:08:50",139282,42,"task-5tah",NA,31000865,9196035,NA,"complete",NA,NA,"computer","Desktop or Laptop","Windows 10","Chrome 115.0.0.0","1920x1080","1920x969",NA,NA,NA,"JV Task P1 (Clone) (study_2)",22,"In","EFDGCHBIAJ","A (JV first)","study_1 (JV and feedback_list_1)",NA,"In","SS1","SS1",1,"instructions","Screen 3","exdjej",3,"continue","",4593.861,4590.291,4593.861,4593.861,4590.291,4593.861,1,4593.861,0,0,NA,"Click To Continue","Continue Button",2,"object-35","instructions","",NA,NA,NA,"SUPTM52921"
"5",1690970940214,"02/08/2023 10:09:00",1690974540214,1,"02/08/2023 12:09:00",139282,42,"task-5tah",NA,31000865,9196035,NA,"complete",NA,NA,"computer","Desktop or Laptop","Windows 10","Chrome 115.0.0.0","1920x1080","1920x969",NA,NA,NA,"JV Task P1 (Clone) (study_2)",22,"In","EFDGCHBIAJ","A (JV first)","study_1 (JV and feedback_list_1)",NA,"In","SS1","SS1",1,"V","Valence","sn1sjn",1,"continue","",9347.07,9344.103,9347.07,9347.07,9344.103,9347.07,1,9347.07,0,0,NA,"Click To Continue","Continue Button",1,"object-25","V","CFD-WM-025-002-N.jpg",1,NA,NA,"SUPTM52921"
"6",1690970940214,"02/08/2023 10:09:00",1690974540214,1,"02/08/2023 12:09:00",139282,42,"task-5tah",NA,31000865,9196035,NA,"complete",NA,NA,"computer","Desktop or Laptop","Windows 10","Chrome 115.0.0.0","1920x1080","1920x969",NA,NA,NA,"JV Task P1 (Clone) (study_2)",22,"In","EFDGCHBIAJ","A (JV first)","study_1 (JV and feedback_list_1)",NA,"In","SS1","SS1",1,"V","Valence","sn1sjn",1,"response","50",4159.618,9344.103,9349.46999997616,4159.618,9344.103,9349.46999997616,1,4159.618,5189.85199997616,0,NA,"Slider","J",3,"object-27","V","CFD-WM-025-002-N.jpg",1,NA,NA,"SUPTM52921"
"7",1690970941198,"02/08/2023 10:09:01",1690974541198,1,"02/08/2023 12:09:01",139282,42,"task-5tah",NA,31000865,9196035,NA,"complete",NA,NA,"computer","Desktop or Laptop","Windows 10","Chrome 115.0.0.0","1920x1080","1920x969",NA,NA,NA,"JV Task P1 (Clone) (study_2)",22,"In","EFDGCHBIAJ","A (JV first)","study_1 (JV and feedback_list_1)",NA,"In","SS1","SS1",1,"V","Fixation","aydkg3",2,"continue","",988.532999999999,988.532999999999,988.532999999999,988.532999999999,988.532999999999,988.532999999999,1,988.532999999999,0,0,NA,"Fixation Timing","Fixation",1,"object-21","V","CFD-WM-025-002-N.jpg",1,NA,NA,"SUPTM52921"
"8",1690970945857,"02/08/2023 10:09:05",1690974545857,1,"02/08/2023 12:09:05",139282,42,"task-5tah",NA,31000865,9196035,NA,"complete",NA,NA,"computer","Desktop or Laptop","Windows 10","Chrome 115.0.0.0","1920x1080","1920x969",NA,NA,NA,"JV Task P1 (Clone) (study_2)",22,"In","EFDGCHBIAJ","A (JV first)","study_1 (JV and feedback_list_1)",NA,"In","SS1","SS1",2,"V","Valence","sn1sjn",1,"continue","",4660.03399996424,4656.783,4660.03399996424,4660.03399996424,4656.783,4660.03399996424,1,4660.03399996424,0,0,NA,"Click To Continue","Continue Button",1,"object-25","V","CFD-BM-028-002-H.jpeg",1,NA,NA,"SUPTM52921"
"9",1690970945858,"02/08/2023 10:09:05",1690974545858,1,"02/08/2023 12:09:05",139282,42,"task-5tah",NA,31000865,9196035,NA,"complete",NA,NA,"computer","Desktop or Laptop","Windows 10","Chrome 115.0.0.0","1920x1080","1920x969",NA,NA,NA,"JV Task P1 (Clone) (study_2)",22,"In","EFDGCHBIAJ","A (JV first)","study_1 (JV and feedback_list_1)",NA,"In","SS1","SS1",2,"V","Valence","sn1sjn",1,"response","67",3062.046,4656.783,4660.33399997616,3062.046,4656.783,4660.33399997616,1,3062.046,1598.28799997616,0,NA,"Slider","J",3,"object-27","V","CFD-BM-028-002-H.jpeg",1,NA,NA,"SUPTM52921"
"10",1690970946837,"02/08/2023 10:09:06",1690974546837,1,"02/08/2023 12:09:06",139282,42,"task-5tah",NA,31000865,9196035,NA,"complete",NA,NA,"computer","Desktop or Laptop","Windows 10","Chrome 115.0.0.0","1920x1080","1920x969",NA,NA,NA,"JV Task P1 (Clone) (study_2)",22,"In","EFDGCHBIAJ","A (JV first)","study_1 (JV and feedback_list_1)",NA,"In","SS1","SS1",2,"V","Fixation","aydkg3",2,"continue","",982.405000000002,982.405000000002,982.405000000002,982.405000000002,982.405000000002,982.405000000002,1,982.405000000002,0,0,NA,"Fixation Timing","Fixation",1,"object-21","V","CFD-BM-028-002-H.jpeg",1,NA,NA,"SUPTM52921"
"11",1690970950776,"02/08/2023 10:09:10",1690974550776,1,"02/08/2023 12:09:10",139282,42,"task-5tah",NA,31000865,9196035,NA,"complete",NA,NA,"computer","Desktop or Laptop","Windows 10","Chrome 115.0.0.0","1920x1080","1920x969",NA,NA,NA,"JV Task P1 (Clone) (study_2)",22,"In","EFDGCHBIAJ","A (JV first)","study_1 (JV and feedback_list_1)",NA,"In","SS1","SS1",3,"V","Valence","sn1sjn",1,"continue","",3939.14599997616,3935.238,3939.14599997616,3939.14599997616,3935.238,3939.14599997616,1,3939.14599997616,0,0,NA,"Click To Continue","Continue Button",1,"object-25","V","CFD-AF-250-200-S.jpeg",1,NA,NA,"SUPTM52921"
"12",1690970950776,"02/08/2023 10:09:10",1690974550776,1,"02/08/2023 12:09:10",139282,42,"task-5tah",NA,31000865,9196035,NA,"complete",NA,NA,"computer","Desktop or Laptop","Windows 10","Chrome 115.0.0.0","1920x1080","1920x969",NA,NA,NA,"JV Task P1 (Clone) (study_2)",22,"In","EFDGCHBIAJ","A (JV first)","study_1 (JV and feedback_list_1)",NA,"In","SS1","SS1",3,"V","Valence","sn1sjn",1,"response","38",2759.124,3935.238,3939.44599998808,2759.124,3935.238,3939.44599998808,1,2759.124,1180.32199998808,0,NA,"Slider","J",3,"object-27","V","CFD-AF-250-200-S.jpeg",1,NA,NA,"SUPTM52921"
"13",1690970951760,"02/08/2023 10:09:11",1690974551760,1,"02/08/2023 12:09:11",139282,42,"task-5tah",NA,31000865,9196035,NA,"complete",NA,NA,"computer","Desktop or Laptop","Windows 10","Chrome 115.0.0.0","1920x1080","1920x969",NA,NA,NA,"JV Task P1 (Clone) (study_2)",22,"In","EFDGCHBIAJ","A (JV first)","study_1 (JV and feedback_list_1)",NA,"In","SS1","SS1",3,"V","Fixation","aydkg3",2,"continue","",988.450000000004,988.450000000004,988.450000000004,988.450000000004,988.450000000004,988.450000000004,1,988.450000000004,0,0,NA,"Fixation Timing","Fixation",1,"object-21","V","CFD-AF-250-200-S.jpeg",1,NA,NA,"SUPTM52921"
"14",1690970958099,"02/08/2023 10:09:18",1690974558099,1,"02/08/2023 12:09:18",139282,42,"task-5tah",NA,31000865,9196035,NA,"complete",NA,NA,"computer","Desktop or Laptop","Windows 10","Chrome 115.0.0.0","1920x1080","1920x969",NA,NA,NA,"JV Task P1 (Clone) (study_2)",22,"In","EFDGCHBIAJ","A (JV first)","study_1 (JV and feedback_list_1)",NA,"In","SS1","SS1",1,"J","Judginess","w2ir4b",1,"continue","",6339.15799996423,6336.558,6339.15799996423,6339.15799996423,6336.558,6339.15799996423,1,6339.15799996423,0,0,NA,"Click To Continue","Continue Button",1,"object-14","J","CFD-MF-309-002-N.jpg",1,NA,NA,"SUPTM52921"
"15",1690970958099,"02/08/2023 10:09:18",1690974558099,1,"02/08/2023 12:09:18",139282,42,"task-5tah",NA,31000865,9196035,NA,"complete",NA,NA,"computer","Desktop or Laptop","Windows 10","Chrome 115.0.0.0","1920x1080","1920x969",NA,NA,NA,"JV Task P1 (Clone) (study_2)",22,"In","EFDGCHBIAJ","A (JV first)","study_1 (JV and feedback_list_1)",NA,"In","SS1","SS1",1,"J","Judginess","w2ir4b",1,"response","30",4687.221,6336.558,6339.25799998808,4687.221,6336.558,6339.25799998808,1,4687.221,1652.03699998808,0,NA,"Slider","J",3,"object-18","J","CFD-MF-309-002-N.jpg",1,NA,NA,"SUPTM52921"
"16",1690970959079,"02/08/2023 10:09:19",1690974559079,1,"02/08/2023 12:09:19",139282,42,"task-5tah",NA,31000865,9196035,NA,"complete",NA,NA,"computer","Desktop or Laptop","Windows 10","Chrome 115.0.0.0","1920x1080","1920x969",NA,NA,NA,"JV Task P1 (Clone) (study_2)",22,"In","EFDGCHBIAJ","A (JV first)","study_1 (JV and feedback_list_1)",NA,"In","SS1","SS1",1,"J","Fixation","mtm832",2,"continue","",982.326999999997,982.326999999997,982.326999999997,982.326999999997,982.326999999997,982.326999999997,1,982.326999999997,0,0,NA,"Fixation Timing","Fixation",1,"object-65","J","CFD-MF-309-002-N.jpg",1,NA,NA,"SUPTM52921"
"17",1690970963717,"02/08/2023 10:09:23",1690974563717,1,"02/08/2023 12:09:23",139282,42,"task-5tah",NA,31000865,9196035,NA,"complete",NA,NA,"computer","Desktop or Laptop","Windows 10","Chrome 115.0.0.0","1920x1080","1920x969",NA,NA,NA,"JV Task P1 (Clone) (study_2)",22,"In","EFDGCHBIAJ","A (JV first)","study_1 (JV and feedback_list_1)",NA,"In","SS1","SS1",2,"J","Judginess","w2ir4b",1,"continue","",4637.97299995232,4632.696,4637.97299995232,4637.97299995232,4632.696,4637.97299995232,1,4637.97299995232,0,0,NA,"Click To Continue","Continue Button",1,"object-14","J","CFD-BM-036-003-N.jpg",1,NA,NA,"SUPTM52921"
"18",1690970967035,"02/08/2023 10:09:27",1690974567035,1,"02/08/2023 12:09:27",139282,42,"task-5tah",NA,31000865,9196035,NA,"complete",NA,NA,"computer","Desktop or Laptop","Windows 10","Chrome 115.0.0.0","1920x1080","1920x969",NA,NA,NA,"JV Task P1 (Clone) (study_2)",22,"In","EFDGCHBIAJ","A (JV first)","study_1 (JV and feedback_list_1)",NA,"In","SS1","SS1",2,"J","Judginess","w2ir4b",1,"continue","",7956.37299998808,7955.566,7956.37299998808,7956.37299998808,7955.566,7956.37299998808,1,7956.37299998808,0,0,NA,"Click To Continue","Continue Button",1,"object-14","J","CFD-BM-036-003-N.jpg",1,NA,NA,"SUPTM52921"
"19",1690970967036,"02/08/2023 10:09:27",1690974567036,1,"02/08/2023 12:09:27",139282,42,"task-5tah",NA,31000865,9196035,NA,"complete",NA,NA,"computer","Desktop or Laptop","Windows 10","Chrome 115.0.0.0","1920x1080","1920x969",NA,NA,NA,"JV Task P1 (Clone) (study_2)",22,"In","EFDGCHBIAJ","A (JV first)","study_1 (JV and feedback_list_1)",NA,"In","SS1","SS1",2,"J","Judginess","w2ir4b",1,"response","50",5748.345,7955.566,7956.673,5748.345,7955.566,7956.673,1,5748.345,2208.328,0,NA,"Slider","J",3,"object-18","J","CFD-BM-036-003-N.jpg",1,NA,NA,"SUPTM52921"
"20",1690970968024,"02/08/2023 10:09:28",1690974568024,1,"02/08/2023 12:09:28",139282,42,"task-5tah",NA,31000865,9196035,NA,"complete",NA,NA,"computer","Desktop or Laptop","Windows 10","Chrome 115.0.0.0","1920x1080","1920x969",NA,NA,NA,"JV Task P1 (Clone) (study_2)",22,"In","EFDGCHBIAJ","A (JV first)","study_1 (JV and feedback_list_1)",NA,"In","SS1","SS1",2,"J","Fixation","mtm832",2,"continue","",988.555,988.555,988.555,988.555,988.555,988.555,1,988.555,0,0,NA,"Fixation Timing","Fixation",1,"object-65","J","CFD-BM-036-003-N.jpg",1,NA,NA,"SUPTM52921"
"21",1690970973694,"02/08/2023 10:09:33",1690974573694,1,"02/08/2023 12:09:33",139282,42,"task-5tah",NA,31000865,9196035,NA,"complete",NA,NA,"computer","Desktop or Laptop","Windows 10","Chrome 115.0.0.0","1920x1080","1920x969",NA,NA,NA,"JV Task P1 (Clone) (study_2)",22,"In","EFDGCHBIAJ","A (JV first)","study_1 (JV and feedback_list_1)",NA,"In","SS1","SS1",3,"J","Judginess","w2ir4b",1,"continue","",5671.15199996424,5669.397,5671.15199996424,5671.15199996424,5669.397,5671.15199996424,1,5671.15199996424,0,0,NA,"Click To Continue","Continue Button",1,"object-14","J","CFD-MM-313-002-S.jpeg",1,NA,NA,"SUPTM52921"
"22",1690970973695,"02/08/2023 10:09:33",1690974573695,1,"02/08/2023 12:09:33",139282,42,"task-5tah",NA,31000865,9196035,NA,"complete",NA,NA,"computer","Desktop or Laptop","Windows 10","Chrome 115.0.0.0","1920x1080","1920x969",NA,NA,NA,"JV Task P1 (Clone) (study_2)",22,"In","EFDGCHBIAJ","A (JV first)","study_1 (JV and feedback_list_1)",NA,"In","SS1","SS1",3,"J","Judginess","w2ir4b",1,"response","51",4383.99000000001,5669.397,5671.65199996424,4383.99000000001,5669.397,5671.65199996424,1,4383.99000000001,1287.66199996424,0,NA,"Slider","J",3,"object-18","J","CFD-MM-313-002-S.jpeg",1,NA,NA,"SUPTM52921"
"23",1690970974681,"02/08/2023 10:09:34",1690974574681,1,"02/08/2023 12:09:34",139282,42,"task-5tah",NA,31000865,9196035,NA,"complete",NA,NA,"computer","Desktop or Laptop","Windows 10","Chrome 115.0.0.0","1920x1080","1920x969",NA,NA,NA,"JV Task P1 (Clone) (study_2)",22,"In","EFDGCHBIAJ","A (JV first)","study_1 (JV and feedback_list_1)",NA,"In","SS1","SS1",3,"J","Fixation","mtm832",2,"continue","",988.479999999996,988.479999999996,988.479999999996,988.479999999996,988.479999999996,988.479999999996,1,988.479999999996,0,0,NA,"Fixation Timing","Fixation",1,"object-65","J","CFD-MM-313-002-S.jpeg",1,NA,NA,"SUPTM52921"
"24",1690970977859,"02/08/2023 10:09:37",1690974577859,1,"02/08/2023 12:09:37",139282,42,"task-5tah",NA,31000865,9196035,NA,"complete",NA,NA,"computer","Desktop or Laptop","Windows 10","Chrome 115.0.0.0","1920x1080","1920x969",NA,NA,NA,"JV Task P1 (Clone) (study_2)",22,"In","EFDGCHBIAJ","A (JV first)","study_1 (JV and feedback_list_1)",NA,"In","SS1","SS1",4,"J","Judginess","w2ir4b",1,"continue","",3178.27499996424,3177.332,3178.27499996424,3178.27499996424,3177.332,3178.27499996424,1,3178.27499996424,0,0,NA,"Click To Continue","Continue Button",1,"object-14","J","CFD-MM-308-001-H.jpeg",1,NA,NA,"SUPTM52921"
"25",1690970977859,"02/08/2023 10:09:37",1690974577859,1,"02/08/2023 12:09:37",139282,42,"task-5tah",NA,31000865,9196035,NA,"complete",NA,NA,"computer","Desktop or Laptop","Windows 10","Chrome 115.0.0.0","1920x1080","1920x969",NA,NA,NA,"JV Task P1 (Clone) (study_2)",22,"In","EFDGCHBIAJ","A (JV first)","study_1 (JV and feedback_list_1)",NA,"In","SS1","SS1",4,"J","Judginess","w2ir4b",1,"response","100",1564.345,3177.332,3178.47499995232,1564.345,3177.332,3178.47499995232,1,1564.345,1614.12999995232,0,NA,"Slider","J",3,"object-18","J","CFD-MM-308-001-H.jpeg",1,NA,NA,"SUPTM52921"
"26",1690970978841,"02/08/2023 10:09:38",1690974578841,1,"02/08/2023 12:09:38",139282,42,"task-5tah",NA,31000865,9196035,NA,"complete",NA,NA,"computer","Desktop or Laptop","Windows 10","Chrome 115.0.0.0","1920x1080","1920x969",NA,NA,NA,"JV Task P1 (Clone) (study_2)",22,"In","EFDGCHBIAJ","A (JV first)","study_1 (JV and feedback_list_1)",NA,"In","SS1","SS1",4,"J","Fixation","mtm832",2,"continue","",982.431000000004,982.431000000004,982.431000000004,982.431000000004,982.431000000004,982.431000000004,1,982.431000000004,0,0,NA,"Fixation Timing","Fixation",1,"object-65","J","CFD-MM-308-001-H.jpeg",1,NA,NA,"SUPTM52921"
"27",1690970985840,"02/08/2023 10:09:45",1690974585840,1,"02/08/2023 12:09:45",139282,42,"task-5tah",NA,31000865,9196035,NA,"complete",NA,NA,"computer","Desktop or Laptop","Windows 10","Chrome 115.0.0.0","1920x1080","1920x969",NA,NA,NA,"JV Task P1 (Clone) (study_2)",22,"In","EFDGCHBIAJ","A (JV first)","study_1 (JV and feedback_list_1)",NA,"In","SS1","SS1",4,"V","Valence","sn1sjn",1,"continue","",6999.412,6997.413,6999.412,6999.412,6997.413,6999.412,1,6999.412,0,0,NA,"Click To Continue","Continue Button",1,"object-25","V","CFD-WM-024-015-S.jpeg",1,NA,NA,"SUPTM52921"
"28",1690970985842,"02/08/2023 10:09:45",1690974585842,1,"02/08/2023 12:09:45",139282,42,"task-5tah",NA,31000865,9196035,NA,"complete",NA,NA,"computer","Desktop or Laptop","Windows 10","Chrome 115.0.0.0","1920x1080","1920x969",NA,NA,NA,"JV Task P1 (Clone) (study_2)",22,"In","EFDGCHBIAJ","A (JV first)","study_1 (JV and feedback_list_1)",NA,"In","SS1","SS1",4,"V","Valence","sn1sjn",1,"response","50",5414.71399999999,6997.413,7001.31199997615,5414.71399999999,6997.413,7001.31199997615,1,5414.71399999999,1586.59799997616,0,NA,"Slider","J",3,"object-27","V","CFD-WM-024-015-S.jpeg",1,NA,NA,"SUPTM52921"
"29",1690970986821,"02/08/2023 10:09:46",1690974586821,1,"02/08/2023 12:09:46",139282,42,"task-5tah",NA,31000865,9196035,NA,"complete",NA,NA,"computer","Desktop or Laptop","Windows 10","Chrome 115.0.0.0","1920x1080","1920x969",NA,NA,NA,"JV Task P1 (Clone) (study_2)",22,"In","EFDGCHBIAJ","A (JV first)","study_1 (JV and feedback_list_1)",NA,"In","SS1","SS1",4,"V","Fixation","aydkg3",2,"continue","",982.366999999998,982.366999999998,982.366999999998,982.366999999998,982.366999999998,982.366999999998,1,982.366999999998,0,0,NA,"Fixation Timing","Fixation",1,"object-21","V","CFD-WM-024-015-S.jpeg",1,NA,NA,"SUPTM52921"
"30",1690970992378,"02/08/2023 10:09:52",1690974592378,1,"02/08/2023 12:09:52",139282,42,"task-5tah",NA,31000865,9196035,NA,"complete",NA,NA,"computer","Desktop or Laptop","Windows 10","Chrome 115.0.0.0","1920x1080","1920x969",NA,NA,NA,"JV Task P1 (Clone) (study_2)",22,"In","EFDGCHBIAJ","A (JV first)","study_1 (JV and feedback_list_1)",NA,"In","SS1","SS1",5,"J","Judginess","w2ir4b",1,"continue","",5557.23199996424,5554.319,5557.23199996424,5557.23199996424,5554.319,5557.23199996424,1,5557.23199996424,0,0,NA,"Click To Continue","Continue Button",1,"object-14","J","CFD-BM-036-003-S.jpeg",1,NA,NA,"SUPTM52921"
"31",1690970992378,"02/08/2023 10:09:52",1690974592378,1,"02/08/2023 12:09:52",139282,42,"task-5tah",NA,31000865,9196035,NA,"complete",NA,NA,"computer","Desktop or Laptop","Windows 10","Chrome 115.0.0.0","1920x1080","1920x969",NA,NA,NA,"JV Task P1 (Clone) (study_2)",22,"In","EFDGCHBIAJ","A (JV first)","study_1 (JV and feedback_list_1)",NA,"In","SS1","SS1",5,"J","Judginess","w2ir4b",1,"response","25",4553.765,5554.319,5557.53199997616,4553.765,5554.319,5557.53199997616,1,4553.765,1003.76699997616,0,NA,"Slider","J",3,"object-18","J","CFD-BM-036-003-S.jpeg",1,NA,NA,"SUPTM52921"
"32",1690970993358,"02/08/2023 10:09:53",1690974593358,1,"02/08/2023 12:09:53",139282,42,"task-5tah",NA,31000865,9196035,NA,"complete",NA,NA,"computer","Desktop or Laptop","Windows 10","Chrome 115.0.0.0","1920x1080","1920x969",NA,NA,NA,"JV Task P1 (Clone) (study_2)",22,"In","EFDGCHBIAJ","A (JV first)","study_1 (JV and feedback_list_1)",NA,"In","SS1","SS1",5,"J","Fixation","mtm832",2,"continue","",982.432000000001,982.432000000001,982.432000000001,982.432000000001,982.432000000001,982.432000000001,1,982.432000000001,0,0,NA,"Fixation Timing","Fixation",1,"object-65","J","CFD-BM-036-003-S.jpeg",1,NA,NA,"SUPTM52921"
"33",1690970997820,"02/08/2023 10:09:57",1690974597820,1,"02/08/2023 12:09:57",139282,42,"task-5tah",NA,31000865,9196035,NA,"complete",NA,NA,"computer","Desktop or Laptop","Windows 10","Chrome 115.0.0.0","1920x1080","1920x969",NA,NA,NA,"JV Task P1 (Clone) (study_2)",22,"In","EFDGCHBIAJ","A (JV first)","study_1 (JV and feedback_list_1)",NA,"In","SS1","SS1",5,"V","Valence","sn1sjn",1,"continue","",4462.68099995231,4456.76599999999,4462.68099995231,4462.68099995231,4456.76599999999,4462.68099995231,1,4462.68099995231,0,0,NA,"Click To Continue","Continue Button",1,"object-25","V","CFD-IF-734-108-H.jpeg",1,NA,NA,"SUPTM52921"
"34",1690970997822,"02/08/2023 10:09:57",1690974597822,1,"02/08/2023 12:09:57",139282,42,"task-5tah",NA,31000865,9196035,NA,"complete",NA,NA,"computer","Desktop or Laptop","Windows 10","Chrome 115.0.0.0","1920x1080","1920x969",NA,NA,NA,"JV Task P1 (Clone) (study_2)",22,"In","EFDGCHBIAJ","A (JV first)","study_1 (JV and feedback_list_1)",NA,"In","SS1","SS1",5,"V","Valence","sn1sjn",1,"response","77",1928.18599999999,4456.76599999999,4462.95099999999,1928.18599999999,4456.76599999999,4462.95099999999,1,1928.18599999999,2534.765,0,NA,"Slider","J",3,"object-27","V","CFD-IF-734-108-H.jpeg",1,NA,NA,"SUPTM52921"
"35",1690970998803,"02/08/2023 10:09:58",1690974598803,1,"02/08/2023 12:09:58",139282,42,"task-5tah",NA,31000865,9196035,NA,"complete",NA,NA,"computer","Desktop or Laptop","Windows 10","Chrome 115.0.0.0","1920x1080","1920x969",NA,NA,NA,"JV Task P1 (Clone) (study_2)",22,"In","EFDGCHBIAJ","A (JV first)","study_1 (JV and feedback_list_1)",NA,"In","SS1","SS1",5,"V","Fixation","aydkg3",2,"continue","",988.457999999999,988.457999999999,988.457999999999,988.457999999999,988.457999999999,988.457999999999,1,988.457999999999,0,0,NA,"Fixation Timing","Fixation",1,"object-21","V","CFD-IF-734-108-H.jpeg",1,NA,NA,"SUPTM52921"
"36",1690971002509,"02/08/2023 10:10:02",1690974602509,1,"02/08/2023 12:10:02",139282,42,"task-5tah",NA,31000865,9196035,NA,"complete",NA,NA,"computer","Desktop or Laptop","Windows 10","Chrome 115.0.0.0","1920x1080","1920x969",NA,NA,NA,"JV Task P1 (Clone) (study_2)",22,"In","EFDGCHBIAJ","A (JV first)","study_1 (JV and feedback_list_1)",NA,"In","SS1","SS1",6,"J","Judginess","w2ir4b",1,"continue","",3706.85699998809,3704.755,3706.85699998809,3706.85699998809,3704.755,3706.85699998809,1,3706.85699998809,0,0,NA,"Click To Continue","Continue Button",1,"object-14","J","CFD-MF-315-002-H.jpeg",1,NA,NA,"SUPTM52921"
"37",1690971002509,"02/08/2023 10:10:02",1690974602509,1,"02/08/2023 12:10:02",139282,42,"task-5tah",NA,31000865,9196035,NA,"complete",NA,NA,"computer","Desktop or Laptop","Windows 10","Chrome 115.0.0.0","1920x1080","1920x969",NA,NA,NA,"JV Task P1 (Clone) (study_2)",22,"In","EFDGCHBIAJ","A (JV first)","study_1 (JV and feedback_list_1)",NA,"In","SS1","SS1",6,"J","Judginess","w2ir4b",1,"response","56",2922.52200000001,3704.755,3707.05699997616,2922.52200000001,3704.755,3707.05699997616,1,2922.52200000001,784.534999976153,0,NA,"Slider","J",3,"object-18","J","CFD-MF-315-002-H.jpeg",1,NA,NA,"SUPTM52921"
"38",1690971003490,"02/08/2023 10:10:03",1690974603490,1,"02/08/2023 12:10:03",139282,42,"task-5tah",NA,31000865,9196035,NA,"complete",NA,NA,"computer","Desktop or Laptop","Windows 10","Chrome 115.0.0.0","1920x1080","1920x969",NA,NA,NA,"JV Task P1 (Clone) (study_2)",22,"In","EFDGCHBIAJ","A (JV first)","study_1 (JV and feedback_list_1)",NA,"In","SS1","SS1",6,"J","Fixation","mtm832",2,"continue","",982.491000000009,982.491000000009,982.491000000009,982.491000000009,982.491000000009,982.491000000009,1,982.491000000009,0,0,NA,"Fixation Timing","Fixation",1,"object-65","J","CFD-MF-315-002-H.jpeg",1,NA,NA,"SUPTM52921"
"39",1690971009057,"02/08/2023 10:10:09",1690974609057,1,"02/08/2023 12:10:09",139282,42,"task-5tah",NA,31000865,9196035,NA,"complete",NA,NA,"computer","Desktop or Laptop","Windows 10","Chrome 115.0.0.0","1920x1080","1920x969",NA,NA,NA,"JV Task P1 (Clone) (study_2)",22,"In","EFDGCHBIAJ","A (JV first)","study_1 (JV and feedback_list_1)",NA,"In","SS1","SS1",7,"J","Judginess","w2ir4b",1,"continue","",5567.81099997615,5566.302,5567.81099997615,5567.81099997615,5566.302,5567.81099997615,1,5567.81099997615,0,0,NA,"Click To Continue","Continue Button",1,"object-14","J","CFD-WF-009-001-S.jpeg",1,NA,NA,"SUPTM52921"
"40",1690971009060,"02/08/2023 10:10:09",1690974609060,1,"02/08/2023 12:10:09",139282,42,"task-5tah",NA,31000865,9196035,NA,"complete",NA,NA,"computer","Desktop or Laptop","Windows 10","Chrome 115.0.0.0","1920x1080","1920x969",NA,NA,NA,"JV Task P1 (Clone) (study_2)",22,"In","EFDGCHBIAJ","A (JV first)","study_1 (JV and feedback_list_1)",NA,"In","SS1","SS1",7,"J","Judginess","w2ir4b",1,"response","39",4881.15699999999,5566.302,5570.01099996423,4881.15699999999,5566.302,5570.01099996423,1,4881.15699999999,688.853999964238,0,NA,"Slider","J",3,"object-18","J","CFD-WF-009-001-S.jpeg",1,NA,NA,"SUPTM52921"
"41",1690971010039,"02/08/2023 10:10:10",1690974610039,1,"02/08/2023 12:10:10",139282,42,"task-5tah",NA,31000865,9196035,NA,"complete",NA,NA,"computer","Desktop or Laptop","Windows 10","Chrome 115.0.0.0","1920x1080","1920x969",NA,NA,NA,"JV Task P1 (Clone) (study_2)",22,"In","EFDGCHBIAJ","A (JV first)","study_1 (JV and feedback_list_1)",NA,"In","SS1","SS1",7,"J","Fixation","mtm832",2,"continue","",982.389999999999,982.389999999999,982.389999999999,982.389999999999,982.389999999999,982.389999999999,1,982.389999999999,0,0,NA,"Fixation Timing","Fixation",1,"object-65","J","CFD-WF-009-001-S.jpeg",1,NA,NA,"SUPTM52921"
"42",1690971015339,"02/08/2023 10:10:15",1690974615339,1,"02/08/2023 12:10:15",139282,42,"task-5tah",NA,31000865,9196035,NA,"complete",NA,NA,"computer","Desktop or Laptop","Windows 10","Chrome 115.0.0.0","1920x1080","1920x969",NA,NA,NA,"JV Task P1 (Clone) (study_2)",22,"In","EFDGCHBIAJ","A (JV first)","study_1 (JV and feedback_list_1)",NA,"In","SS1","SS1",8,"J","Judginess","w2ir4b",1,"continue","",5299.59799999998,5293.56999999999,5299.59799999998,5299.59799999998,5293.56999999999,5299.59799999998,1,5299.59799999998,0,0,NA,"Click To Continue","Continue Button",1,"object-14","J","CFD-WF-011-002-N.jpg",1,NA,NA,"SUPTM52921"
"43",1690971015339,"02/08/2023 10:10:15",1690974615339,1,"02/08/2023 12:10:15",139282,42,"task-5tah",NA,31000865,9196035,NA,"complete",NA,NA,"computer","Desktop or Laptop","Windows 10","Chrome 115.0.0.0","1920x1080","1920x969",NA,NA,NA,"JV Task P1 (Clone) (study_2)",22,"In","EFDGCHBIAJ","A (JV first)","study_1 (JV and feedback_list_1)",NA,"In","SS1","SS1",8,"J","Judginess","w2ir4b",1,"response","41",4735.713,5293.56999999999,5299.59799999998,4735.713,5293.56999999999,5299.59799999998,1,4735.713,563.88499999998,0,NA,"Slider","J",3,"object-18","J","CFD-WF-011-002-N.jpg",1,NA,NA,"SUPTM52921"
"44",1690971016315,"02/08/2023 10:10:16",1690974616315,1,"02/08/2023 12:10:16",139282,42,"task-5tah",NA,31000865,9196035,NA,"complete",NA,NA,"computer","Desktop or Laptop","Windows 10","Chrome 115.0.0.0","1920x1080","1920x969",NA,NA,NA,"JV Task P1 (Clone) (study_2)",22,"In","EFDGCHBIAJ","A (JV first)","study_1 (JV and feedback_list_1)",NA,"In","SS1","SS1",8,"J","Fixation","mtm832",2,"continue","",982.395000000004,982.395000000004,982.395000000004,982.395000000004,982.395000000004,982.395000000004,1,982.395000000004,0,0,NA,"Fixation Timing","Fixation",1,"object-65","J","CFD-WF-011-002-N.jpg",1,NA,NA,"SUPTM52921"
"45",1690971025465,"02/08/2023 10:10:25",1690974625465,1,"02/08/2023 12:10:25",139282,42,"task-5tah",NA,31000865,9196035,NA,"complete",NA,NA,"computer","Desktop or Laptop","Windows 10","Chrome 115.0.0.0","1920x1080","1920x969",NA,NA,NA,"JV Task P1 (Clone) (study_2)",22,"In","EFDGCHBIAJ","A (JV first)","study_1 (JV and feedback_list_1)",NA,"In","SS1","SS1",6,"V","Valence","sn1sjn",1,"continue","",9151.15399997616,9150.087,9151.15399997616,9151.15399997616,9150.087,9151.15399997616,1,9151.15399997616,0,0,NA,"Click To Continue","Continue Button",1,"object-25","V","CFD-WM-009-002-S.jpeg",1,NA,NA,"SUPTM52921"
"46",1690971025467,"02/08/2023 10:10:25",1690974625467,1,"02/08/2023 12:10:25",139282,42,"task-5tah",NA,31000865,9196035,NA,"complete",NA,NA,"computer","Desktop or Laptop","Windows 10","Chrome 115.0.0.0","1920x1080","1920x969",NA,NA,NA,"JV Task P1 (Clone) (study_2)",22,"In","EFDGCHBIAJ","A (JV first)","study_1 (JV and feedback_list_1)",NA,"In","SS1","SS1",6,"V","Valence","sn1sjn",1,"response","37",6463.834,9150.087,9153.15399997616,6463.834,9150.087,9153.15399997616,1,6463.834,2689.31999997616,0,NA,"Slider","J",3,"object-27","V","CFD-WM-009-002-S.jpeg",1,NA,NA,"SUPTM52921"
"47",1690971026453,"02/08/2023 10:10:26",1690974626453,1,"02/08/2023 12:10:26",139282,42,"task-5tah",NA,31000865,9196035,NA,"complete",NA,NA,"computer","Desktop or Laptop","Windows 10","Chrome 115.0.0.0","1920x1080","1920x969",NA,NA,NA,"JV Task P1 (Clone) (study_2)",22,"In","EFDGCHBIAJ","A (JV first)","study_1 (JV and feedback_list_1)",NA,"In","SS1","SS1",6,"V","Fixation","aydkg3",2,"continue","",988.388999999996,988.388999999996,988.388999999996,988.388999999996,988.388999999996,988.388999999996,1,988.388999999996,0,0,NA,"Fixation Timing","Fixation",1,"object-21","V","CFD-WM-009-002-S.jpeg",1,NA,NA,"SUPTM52921"
"48",1690971031316,"02/08/2023 10:10:31",1690974631316,1,"02/08/2023 12:10:31",139282,42,"task-5tah",NA,31000865,9196035,NA,"complete",NA,NA,"computer","Desktop or Laptop","Windows 10","Chrome 115.0.0.0","1920x1080","1920x969",NA,NA,NA,"JV Task P1 (Clone) (study_2)",22,"In","EFDGCHBIAJ","A (JV first)","study_1 (JV and feedback_list_1)",NA,"In","SS1","SS1",7,"V","Valence","sn1sjn",1,"continue","",4863.019,4857.027,4863.019,4863.019,4857.027,4863.019,1,4863.019,0,0,NA,"Click To Continue","Continue Button",1,"object-25","V","CFD-WF-006-002-S.jpeg",1,NA,NA,"SUPTM52921"
"49",1690971031316,"02/08/2023 10:10:31",1690974631316,1,"02/08/2023 12:10:31",139282,42,"task-5tah",NA,31000865,9196035,NA,"complete",NA,NA,"computer","Desktop or Laptop","Windows 10","Chrome 115.0.0.0","1920x1080","1920x969",NA,NA,NA,"JV Task P1 (Clone) (study_2)",22,"In","EFDGCHBIAJ","A (JV first)","study_1 (JV and feedback_list_1)",NA,"In","SS1","SS1",7,"V","Valence","sn1sjn",1,"response","43",4238.49900000001,4857.027,4863.019,4238.49900000001,4857.027,4863.019,1,4238.49900000001,624.51999999999,0,NA,"Slider","J",3,"object-27","V","CFD-WF-006-002-S.jpeg",1,NA,NA,"SUPTM52921"
"50",1690971032292,"02/08/2023 10:10:32",1690974632292,1,"02/08/2023 12:10:32",139282,42,"task-5tah",NA,31000865,9196035,NA,"complete",NA,NA,"computer","Desktop or Laptop","Windows 10","Chrome 115.0.0.0","1920x1080","1920x969",NA,NA,NA,"JV Task P1 (Clone) (study_2)",22,"In","EFDGCHBIAJ","A (JV first)","study_1 (JV and feedback_list_1)",NA,"In","SS1","SS1",7,"V","Fixation","aydkg3",2,"continue","",982.293000000005,982.293000000005,982.293000000005,982.293000000005,982.293000000005,982.293000000005,1,982.293000000005,0,0,NA,"Fixation Timing","Fixation",1,"object-21","V","CFD-WF-006-002-S.jpeg",1,NA,NA,"SUPTM52921"
"51",1690971036712,"02/08/2023 10:10:36",1690974636712,1,"02/08/2023 12:10:36",139282,42,"task-5tah",NA,31000865,9196035,NA,"complete",NA,NA,"computer","Desktop or Laptop","Windows 10","Chrome 115.0.0.0","1920x1080","1920x969",NA,NA,NA,"JV Task P1 (Clone) (study_2)",22,"In","EFDGCHBIAJ","A (JV first)","study_1 (JV and feedback_list_1)",NA,"In","SS1","SS1",8,"V","Valence","sn1sjn",1,"continue","",4419.65799998808,4414.47199999999,4419.65799998808,4419.65799998808,4414.47199999999,4419.65799998808,1,4419.65799998808,0,0,NA,"Click To Continue","Continue Button",1,"object-25","V","CFD-MM-313-002-S.jpeg",1,NA,NA,"SUPTM52921"
"52",1690971036714,"02/08/2023 10:10:36",1690974636714,1,"02/08/2023 12:10:36",139282,42,"task-5tah",NA,31000865,9196035,NA,"complete",NA,NA,"computer","Desktop or Laptop","Windows 10","Chrome 115.0.0.0","1920x1080","1920x969",NA,NA,NA,"JV Task P1 (Clone) (study_2)",22,"In","EFDGCHBIAJ","A (JV first)","study_1 (JV and feedback_list_1)",NA,"In","SS1","SS1",8,"V","Valence","sn1sjn",1,"response","50",3359.364,4414.47199999999,4420.59399999998,3359.364,4414.47199999999,4420.59399999998,1,3359.364,1061.22999999998,0,NA,"Slider","J",3,"object-27","V","CFD-MM-313-002-S.jpeg",1,NA,NA,"SUPTM52921"
"53",1690971037695,"02/08/2023 10:10:37",1690974637695,1,"02/08/2023 12:10:37",139282,42,"task-5tah",NA,31000865,9196035,NA,"complete",NA,NA,"computer","Desktop or Laptop","Windows 10","Chrome 115.0.0.0","1920x1080","1920x969",NA,NA,NA,"JV Task P1 (Clone) (study_2)",22,"In","EFDGCHBIAJ","A (JV first)","study_1 (JV and feedback_list_1)",NA,"In","SS1","SS1",8,"V","Fixation","aydkg3",2,"continue","",988.396999999997,988.396999999997,988.396999999997,988.396999999997,988.396999999997,988.396999999997,1,988.396999999997,0,0,NA,"Fixation Timing","Fixation",1,"object-21","V","CFD-MM-313-002-S.jpeg",1,NA,NA,"SUPTM52921"
"54",1690971041296,"02/08/2023 10:10:41",1690974641296,1,"02/08/2023 12:10:41",139282,42,"task-5tah",NA,31000865,9196035,NA,"complete",NA,NA,"computer","Desktop or Laptop","Windows 10","Chrome 115.0.0.0","1920x1080","1920x969",NA,NA,NA,"JV Task P1 (Clone) (study_2)",22,"In","EFDGCHBIAJ","A (JV first)","study_1 (JV and feedback_list_1)",NA,"In","SS1","SS1",9,"V","Valence","sn1sjn",1,"continue","",3601.48899997617,3595.78600000001,3601.48899997617,3601.48899997617,3595.78600000001,3601.48899997617,1,3601.48899997617,0,0,NA,"Click To Continue","Continue Button",1,"object-25","V","CFD-WF-024-003-H.jpeg",1,NA,NA,"SUPTM52921"
"55",1690971041297,"02/08/2023 10:10:41",1690974641297,1,"02/08/2023 12:10:41",139282,42,"task-5tah",NA,31000865,9196035,NA,"complete",NA,NA,"computer","Desktop or Laptop","Windows 10","Chrome 115.0.0.0","1920x1080","1920x969",NA,NA,NA,"JV Task P1 (Clone) (study_2)",22,"In","EFDGCHBIAJ","A (JV first)","study_1 (JV and feedback_list_1)",NA,"In","SS1","SS1",9,"V","Valence","sn1sjn",1,"response","61",2977.37300000001,3595.78600000001,3601.68899996424,2977.37300000001,3595.78600000001,3601.68899996424,1,2977.37300000001,624.315999964238,0,NA,"Slider","J",3,"object-27","V","CFD-WF-024-003-H.jpeg",1,NA,NA,"SUPTM52921"
"56",1690971042279,"02/08/2023 10:10:42",1690974642279,1,"02/08/2023 12:10:42",139282,42,"task-5tah",NA,31000865,9196035,NA,"complete",NA,NA,"computer","Desktop or Laptop","Windows 10","Chrome 115.0.0.0","1920x1080","1920x969",NA,NA,NA,"JV Task P1 (Clone) (study_2)",22,"In","EFDGCHBIAJ","A (JV first)","study_1 (JV and feedback_list_1)",NA,"In","SS1","SS1",9,"V","Fixation","aydkg3",2,"continue","",988.289000000004,988.289000000004,988.289000000004,988.289000000004,988.289000000004,988.289000000004,1,988.289000000004,0,0,NA,"Fixation Timing","Fixation",1,"object-21","V","CFD-WF-024-003-H.jpeg",1,NA,NA,"SUPTM52921"
"57",1690971048069,"02/08/2023 10:10:48",1690974648069,1,"02/08/2023 12:10:48",139282,42,"task-5tah",NA,31000865,9196035,NA,"complete",NA,NA,"computer","Desktop or Laptop","Windows 10","Chrome 115.0.0.0","1920x1080","1920x969",NA,NA,NA,"JV Task P1 (Clone) (study_2)",22,"In","EFDGCHBIAJ","A (JV first)","study_1 (JV and feedback_list_1)",NA,"In","SS1","SS1",10,"V","Valence","sn1sjn",1,"continue","",5789.71399998807,5784.807,5789.71399998807,5789.71399998807,5784.807,5789.71399998807,1,5789.71399998807,0,0,NA,"Click To Continue","Continue Button",1,"object-25","V","CFD-WF-030-002-H.jpeg",1,NA,NA,"SUPTM52921"
"58",1690971048071,"02/08/2023 10:10:48",1690974648071,1,"02/08/2023 12:10:48",139282,42,"task-5tah",NA,31000865,9196035,NA,"complete",NA,NA,"computer","Desktop or Laptop","Windows 10","Chrome 115.0.0.0","1920x1080","1920x969",NA,NA,NA,"JV Task P1 (Clone) (study_2)",22,"In","EFDGCHBIAJ","A (JV first)","study_1 (JV and feedback_list_1)",NA,"In","SS1","SS1",10,"V","Valence","sn1sjn",1,"response","59",5148.185,5784.807,5790.883,5148.185,5784.807,5790.883,1,5148.185,642.698000000004,0,NA,"Slider","J",3,"object-27","V","CFD-WF-030-002-H.jpeg",1,NA,NA,"SUPTM52921"
"59",1690971049047,"02/08/2023 10:10:49",1690974649047,1,"02/08/2023 12:10:49",139282,42,"task-5tah",NA,31000865,9196035,NA,"complete",NA,NA,"computer","Desktop or Laptop","Windows 10","Chrome 115.0.0.0","1920x1080","1920x969",NA,NA,NA,"JV Task P1 (Clone) (study_2)",22,"In","EFDGCHBIAJ","A (JV first)","study_1 (JV and feedback_list_1)",NA,"In","SS1","SS1",10,"V","Fixation","aydkg3",2,"continue","",982.380999999994,982.380999999994,982.380999999994,982.380999999994,982.380999999994,982.380999999994,1,982.380999999994,0,0,NA,"Fixation Timing","Fixation",1,"object-21","V","CFD-WF-030-002-H.jpeg",1,NA,NA,"SUPTM52921"
"60",1690971052193,"02/08/2023 10:10:52",1690974652193,1,"02/08/2023 12:10:52",139282,42,"task-5tah",NA,31000865,9196035,NA,"complete",NA,NA,"computer","Desktop or Laptop","Windows 10","Chrome 115.0.0.0","1920x1080","1920x969",NA,NA,NA,"JV Task P1 (Clone) (study_2)",22,"In","EFDGCHBIAJ","A (JV first)","study_1 (JV and feedback_list_1)",NA,"In","SS1","SS1",11,"V","Valence","sn1sjn",1,"continue","",3146.52599998808,3141.014,3146.52599998808,3146.52599998808,3141.014,3146.52599998808,1,3146.52599998808,0,0,NA,"Click To Continue","Continue Button",1,"object-25","V","CFD-WM-019-003-N.jpg",1,NA,NA,"SUPTM52921"
"61",1690971052193,"02/08/2023 10:10:52",1690974652193,1,"02/08/2023 12:10:52",139282,42,"task-5tah",NA,31000865,9196035,NA,"complete",NA,NA,"computer","Desktop or Laptop","Windows 10","Chrome 115.0.0.0","1920x1080","1920x969",NA,NA,NA,"JV Task P1 (Clone) (study_2)",22,"In","EFDGCHBIAJ","A (JV first)","study_1 (JV and feedback_list_1)",NA,"In","SS1","SS1",11,"V","Valence","sn1sjn",1,"response","27",2686.17199999999,3141.014,3146.826,2686.17199999999,3141.014,3146.826,1,2686.17199999999,460.65400000001,0,NA,"Slider","J",3,"object-27","V","CFD-WM-019-003-N.jpg",1,NA,NA,"SUPTM52921"
"62",1690971053176,"02/08/2023 10:10:53",1690974653176,1,"02/08/2023 12:10:53",139282,42,"task-5tah",NA,31000865,9196035,NA,"complete",NA,NA,"computer","Desktop or Laptop","Windows 10","Chrome 115.0.0.0","1920x1080","1920x969",NA,NA,NA,"JV Task P1 (Clone) (study_2)",22,"In","EFDGCHBIAJ","A (JV first)","study_1 (JV and feedback_list_1)",NA,"In","SS1","SS1",11,"V","Fixation","aydkg3",2,"continue","",988.49000000002,988.49000000002,988.49000000002,988.49000000002,988.49000000002,988.49000000002,1,988.49000000002,0,0,NA,"Fixation Timing","Fixation",1,"object-21","V","CFD-WM-019-003-N.jpg",1,NA,NA,"SUPTM52921"
"63",1690971056322,"02/08/2023 10:10:56",1690974656322,1,"02/08/2023 12:10:56",139282,42,"task-5tah",NA,31000865,9196035,NA,"complete",NA,NA,"computer","Desktop or Laptop","Windows 10","Chrome 115.0.0.0","1920x1080","1920x969",NA,NA,NA,"JV Task P1 (Clone) (study_2)",22,"In","EFDGCHBIAJ","A (JV first)","study_1 (JV and feedback_list_1)",NA,"In","SS1","SS1",9,"J","Judginess","w2ir4b",1,"continue","",3145.92199996422,3140.878,3145.92199996422,3145.92199996422,3140.878,3145.92199996422,1,3145.92199996422,0,0,NA,"Click To Continue","Continue Button",1,"object-14","J","CFD-WM-009-002-H.jpeg",1,NA,NA,"SUPTM52921"
"64",1690971056322,"02/08/2023 10:10:56",1690974656322,1,"02/08/2023 12:10:56",139282,42,"task-5tah",NA,31000865,9196035,NA,"complete",NA,NA,"computer","Desktop or Laptop","Windows 10","Chrome 115.0.0.0","1920x1080","1920x969",NA,NA,NA,"JV Task P1 (Clone) (study_2)",22,"In","EFDGCHBIAJ","A (JV first)","study_1 (JV and feedback_list_1)",NA,"In","SS1","SS1",9,"J","Judginess","w2ir4b",1,"response","81",2528.39199999999,3140.878,3146.32199999999,2528.39199999999,3140.878,3146.32199999999,1,2528.39199999999,617.929999999993,0,NA,"Slider","J",3,"object-18","J","CFD-WM-009-002-H.jpeg",1,NA,NA,"SUPTM52921"
"65",1690971057300,"02/08/2023 10:10:57",1690974657300,1,"02/08/2023 12:10:57",139282,42,"task-5tah",NA,31000865,9196035,NA,"complete",NA,NA,"computer","Desktop or Laptop","Windows 10","Chrome 115.0.0.0","1920x1080","1920x969",NA,NA,NA,"JV Task P1 (Clone) (study_2)",22,"In","EFDGCHBIAJ","A (JV first)","study_1 (JV and feedback_list_1)",NA,"In","SS1","SS1",9,"J","Fixation","mtm832",2,"continue","",982.235999999975,982.235999999975,982.235999999975,982.235999999975,982.235999999975,982.235999999975,1,982.235999999975,0,0,NA,"Fixation Timing","Fixation",1,"object-65","J","CFD-WM-009-002-H.jpeg",1,NA,NA,"SUPTM52921"
"66",1690971060951,"02/08/2023 10:11:00",1690974660951,1,"02/08/2023 12:11:00",139282,42,"task-5tah",NA,31000865,9196035,NA,"complete",NA,NA,"computer","Desktop or Laptop","Windows 10","Chrome 115.0.0.0","1920x1080","1920x969",NA,NA,NA,"JV Task P1 (Clone) (study_2)",22,"In","EFDGCHBIAJ","A (JV first)","study_1 (JV and feedback_list_1)",NA,"In","SS1","SS1",12,"V","Valence","sn1sjn",1,"continue","",3652.40799998809,3650.43100000001,3652.40799998809,3652.40799998809,3650.43100000001,3652.40799998809,1,3652.40799998809,0,0,NA,"Click To Continue","Continue Button",1,"object-25","V","CFD-WF-035-024-S.jpeg",1,NA,NA,"SUPTM52921"
"67",1690971060954,"02/08/2023 10:11:00",1690974660954,1,"02/08/2023 12:11:00",139282,42,"task-5tah",NA,31000865,9196035,NA,"complete",NA,NA,"computer","Desktop or Laptop","Windows 10","Chrome 115.0.0.0","1920x1080","1920x969",NA,NA,NA,"JV Task P1 (Clone) (study_2)",22,"In","EFDGCHBIAJ","A (JV first)","study_1 (JV and feedback_list_1)",NA,"In","SS1","SS1",12,"V","Valence","sn1sjn",1,"response","31",3226.07100000003,3650.43100000001,3655.30799996425,3226.07100000003,3650.43100000001,3655.30799996425,1,3226.07100000003,429.236999964225,0,NA,"Slider","J",3,"object-27","V","CFD-WF-035-024-S.jpeg",1,NA,NA,"SUPTM52921"
"68",1690971061938,"02/08/2023 10:11:01",1690974661938,1,"02/08/2023 12:11:01",139282,42,"task-5tah",NA,31000865,9196035,NA,"complete",NA,NA,"computer","Desktop or Laptop","Windows 10","Chrome 115.0.0.0","1920x1080","1920x969",NA,NA,NA,"JV Task P1 (Clone) (study_2)",22,"In","EFDGCHBIAJ","A (JV first)","study_1 (JV and feedback_list_1)",NA,"In","SS1","SS1",12,"V","Fixation","aydkg3",2,"continue","",988.328999999998,988.328999999998,988.328999999998,988.328999999998,988.328999999998,988.328999999998,1,988.328999999998,0,0,NA,"Fixation Timing","Fixation",1,"object-21","V","CFD-WF-035-024-S.jpeg",1,NA,NA,"SUPTM52921"
"69",1690971067342,"02/08/2023 10:11:07",1690974667342,1,"02/08/2023 12:11:07",139282,42,"task-5tah",NA,31000865,9196035,NA,"complete",NA,NA,"computer","Desktop or Laptop","Windows 10","Chrome 115.0.0.0","1920x1080","1920x969",NA,NA,NA,"JV Task P1 (Clone) (study_2)",22,"In","EFDGCHBIAJ","A (JV first)","study_1 (JV and feedback_list_1)",NA,"In","SS1","SS1",10,"J","Judginess","w2ir4b",1,"continue","",5404.64799998808,5402.75100000002,5404.64799998808,5404.64799998808,5402.75100000002,5404.64799998808,1,5404.64799998808,0,0,NA,"Click To Continue","Continue Button",1,"object-14","J","CFD-WM-025-002-H.jpeg",1,NA,NA,"SUPTM52921"
"70",1690971067343,"02/08/2023 10:11:07",1690974667343,1,"02/08/2023 12:11:07",139282,42,"task-5tah",NA,31000865,9196035,NA,"complete",NA,NA,"computer","Desktop or Laptop","Windows 10","Chrome 115.0.0.0","1920x1080","1920x969",NA,NA,NA,"JV Task P1 (Clone) (study_2)",22,"In","EFDGCHBIAJ","A (JV first)","study_1 (JV and feedback_list_1)",NA,"In","SS1","SS1",10,"J","Judginess","w2ir4b",1,"response","65",4196.253,5402.75100000002,5404.948,4196.253,5402.75100000002,5404.948,1,4196.253,1208.69500000001,0,NA,"Slider","J",3,"object-18","J","CFD-WM-025-002-H.jpeg",1,NA,NA,"SUPTM52921"
"71",1690971068323,"02/08/2023 10:11:08",1690974668323,1,"02/08/2023 12:11:08",139282,42,"task-5tah",NA,31000865,9196035,NA,"complete",NA,NA,"computer","Desktop or Laptop","Windows 10","Chrome 115.0.0.0","1920x1080","1920x969",NA,NA,NA,"JV Task P1 (Clone) (study_2)",22,"In","EFDGCHBIAJ","A (JV first)","study_1 (JV and feedback_list_1)",NA,"In","SS1","SS1",10,"J","Fixation","mtm832",2,"continue","",982.402999999991,982.402999999991,982.402999999991,982.402999999991,982.402999999991,982.402999999991,1,982.402999999991,0,0,NA,"Fixation Timing","Fixation",1,"object-65","J","CFD-WM-025-002-H.jpeg",1,NA,NA,"SUPTM52921"
"72",1690971072093,"02/08/2023 10:11:12",1690974672093,1,"02/08/2023 12:11:12",139282,42,"task-5tah",NA,31000865,9196035,NA,"complete",NA,NA,"computer","Desktop or Laptop","Windows 10","Chrome 115.0.0.0","1920x1080","1920x969",NA,NA,NA,"JV Task P1 (Clone) (study_2)",22,"In","EFDGCHBIAJ","A (JV first)","study_1 (JV and feedback_list_1)",NA,"In","SS1","SS1",11,"J","Judginess","w2ir4b",1,"continue","",3770.49399998807,3765.519,3770.49399998807,3770.49399998807,3765.519,3770.49399998807,1,3770.49399998807,0,0,NA,"Click To Continue","Continue Button",1,"object-14","J","CFD-AM-223-138-N.jpg",1,NA,NA,"SUPTM52921"
"73",1690971072097,"02/08/2023 10:11:12",1690974672097,1,"02/08/2023 12:11:12",139282,42,"task-5tah",NA,31000865,9196035,NA,"complete",NA,NA,"computer","Desktop or Laptop","Windows 10","Chrome 115.0.0.0","1920x1080","1920x969",NA,NA,NA,"JV Task P1 (Clone) (study_2)",22,"In","EFDGCHBIAJ","A (JV first)","study_1 (JV and feedback_list_1)",NA,"In","SS1","SS1",11,"J","Judginess","w2ir4b",1,"response","36",3244.027,3765.519,3771.61600000001,3244.027,3765.519,3771.61600000001,1,3244.027,527.589000000007,0,NA,"Slider","J",3,"object-18","J","CFD-AM-223-138-N.jpg",1,NA,NA,"SUPTM52921"
"74",1690971073077,"02/08/2023 10:11:13",1690974673077,1,"02/08/2023 12:11:13",139282,42,"task-5tah",NA,31000865,9196035,NA,"complete",NA,NA,"computer","Desktop or Laptop","Windows 10","Chrome 115.0.0.0","1920x1080","1920x969",NA,NA,NA,"JV Task P1 (Clone) (study_2)",22,"In","EFDGCHBIAJ","A (JV first)","study_1 (JV and feedback_list_1)",NA,"In","SS1","SS1",11,"J","Fixation","mtm832",2,"continue","",988.448000000004,988.448000000004,988.448000000004,988.448000000004,988.448000000004,988.448000000004,1,988.448000000004,0,0,NA,"Fixation Timing","Fixation",1,"object-65","J","CFD-AM-223-138-N.jpg",1,NA,NA,"SUPTM52921"
"75",1690971077255,"02/08/2023 10:11:17",1690974677255,1,"02/08/2023 12:11:17",139282,42,"task-5tah",NA,31000865,9196035,NA,"complete",NA,NA,"computer","Desktop or Laptop","Windows 10","Chrome 115.0.0.0","1920x1080","1920x969",NA,NA,NA,"JV Task P1 (Clone) (study_2)",22,"In","EFDGCHBIAJ","A (JV first)","study_1 (JV and feedback_list_1)",NA,"In","SS1","SS1",12,"J","Judginess","w2ir4b",1,"continue","",4177.94499999998,4171.83299999998,4177.94499999998,4177.94499999998,4171.83299999998,4177.94499999998,1,4177.94499999998,0,0,NA,"Click To Continue","Continue Button",1,"object-14","J","CFD-MM-308-001-S.jpeg",1,NA,NA,"SUPTM52921"
"76",1690971077256,"02/08/2023 10:11:17",1690974677256,1,"02/08/2023 12:11:17",139282,42,"task-5tah",NA,31000865,9196035,NA,"complete",NA,NA,"computer","Desktop or Laptop","Windows 10","Chrome 115.0.0.0","1920x1080","1920x969",NA,NA,NA,"JV Task P1 (Clone) (study_2)",22,"In","EFDGCHBIAJ","A (JV first)","study_1 (JV and feedback_list_1)",NA,"In","SS1","SS1",12,"J","Judginess","w2ir4b",1,"response","29",3462.29499999998,4171.83299999998,4177.94499999998,3462.29499999998,4171.83299999998,4177.94499999998,1,3462.29499999998,715.649999999994,0,NA,"Slider","J",3,"object-18","J","CFD-MM-308-001-S.jpeg",1,NA,NA,"SUPTM52921"
"77",1690971078237,"02/08/2023 10:11:18",1690974678237,1,"02/08/2023 12:11:18",139282,42,"task-5tah",NA,31000865,9196035,NA,"complete",NA,NA,"computer","Desktop or Laptop","Windows 10","Chrome 115.0.0.0","1920x1080","1920x969",NA,NA,NA,"JV Task P1 (Clone) (study_2)",22,"In","EFDGCHBIAJ","A (JV first)","study_1 (JV and feedback_list_1)",NA,"In","SS1","SS1",12,"J","Fixation","mtm832",2,"continue","",988.325000000012,988.325000000012,988.325000000012,988.325000000012,988.325000000012,988.325000000012,1,988.325000000012,0,0,NA,"Fixation Timing","Fixation",1,"object-65","J","CFD-MM-308-001-S.jpeg",1,NA,NA,"SUPTM52921"
"78",1690971083527,"02/08/2023 10:11:23",1690974683527,1,"02/08/2023 12:11:23",139282,42,"task-5tah",NA,31000865,9196035,NA,"complete",NA,NA,"computer","Desktop or Laptop","Windows 10","Chrome 115.0.0.0","1920x1080","1920x969",NA,NA,NA,"JV Task P1 (Clone) (study_2)",22,"In","EFDGCHBIAJ","A (JV first)","study_1 (JV and feedback_list_1)",NA,"In","SS1","SS1",13,"J","Judginess","w2ir4b",1,"continue","",5289.86899998807,5287.74099999998,5289.86899998807,5289.86899998807,5287.74099999998,5289.86899998807,1,5289.86899998807,0,0,NA,"Click To Continue","Continue Button",1,"object-14","J","CFD-WF-006-002-S.jpeg",1,NA,NA,"SUPTM52921"
"79",1690971083529,"02/08/2023 10:11:23",1690974683529,1,"02/08/2023 12:11:23",139282,42,"task-5tah",NA,31000865,9196035,NA,"complete",NA,NA,"computer","Desktop or Laptop","Windows 10","Chrome 115.0.0.0","1920x1080","1920x969",NA,NA,NA,"JV Task P1 (Clone) (study_2)",22,"In","EFDGCHBIAJ","A (JV first)","study_1 (JV and feedback_list_1)",NA,"In","SS1","SS1",13,"J","Judginess","w2ir4b",1,"response","40",4850.96400000001,5287.74099999998,5292.06899997615,4850.96400000001,5287.74099999998,5292.06899997615,1,4850.96400000001,441.104999976145,0,NA,"Slider","J",3,"object-18","J","CFD-WF-006-002-S.jpeg",1,NA,NA,"SUPTM52921"
"80",1690971084507,"02/08/2023 10:11:24",1690974684507,1,"02/08/2023 12:11:24",139282,42,"task-5tah",NA,31000865,9196035,NA,"complete",NA,NA,"computer","Desktop or Laptop","Windows 10","Chrome 115.0.0.0","1920x1080","1920x969",NA,NA,NA,"JV Task P1 (Clone) (study_2)",22,"In","EFDGCHBIAJ","A (JV first)","study_1 (JV and feedback_list_1)",NA,"In","SS1","SS1",13,"J","Fixation","mtm832",2,"continue","",982.159000000014,982.159000000014,982.159000000014,982.159000000014,982.159000000014,982.159000000014,1,982.159000000014,0,0,NA,"Fixation Timing","Fixation",1,"object-65","J","CFD-WF-006-002-S.jpeg",1,NA,NA,"SUPTM52921"
"81",1690971087634,"02/08/2023 10:11:27",1690974687634,1,"02/08/2023 12:11:27",139282,42,"task-5tah",NA,31000865,9196035,NA,"complete",NA,NA,"computer","Desktop or Laptop","Windows 10","Chrome 115.0.0.0","1920x1080","1920x969",NA,NA,NA,"JV Task P1 (Clone) (study_2)",22,"In","EFDGCHBIAJ","A (JV first)","study_1 (JV and feedback_list_1)",NA,"In","SS1","SS1",14,"J","Judginess","w2ir4b",1,"continue","",3126.66899997616,3122.76500000001,3126.66899997616,3126.66899997616,3122.76500000001,3126.66899997616,1,3126.66899997616,0,0,NA,"Click To Continue","Continue Button",1,"object-14","J","CFD-BM-045-004-H.jpeg",1,NA,NA,"SUPTM52921"
"82",1690971087634,"02/08/2023 10:11:27",1690974687634,1,"02/08/2023 12:11:27",139282,42,"task-5tah",NA,31000865,9196035,NA,"complete",NA,NA,"computer","Desktop or Laptop","Windows 10","Chrome 115.0.0.0","1920x1080","1920x969",NA,NA,NA,"JV Task P1 (Clone) (study_2)",22,"In","EFDGCHBIAJ","A (JV first)","study_1 (JV and feedback_list_1)",NA,"In","SS1","SS1",14,"J","Judginess","w2ir4b",1,"response","58",2710.52600000001,3122.76500000001,3126.96899998808,2710.52600000001,3122.76500000001,3126.96899998808,1,2710.52600000001,416.442999988067,0,NA,"Slider","J",3,"object-18","J","CFD-BM-045-004-H.jpeg",1,NA,NA,"SUPTM52921"
"83",1690971088612,"02/08/2023 10:11:28",1690974688612,1,"02/08/2023 12:11:28",139282,42,"task-5tah",NA,31000865,9196035,NA,"complete",NA,NA,"computer","Desktop or Laptop","Windows 10","Chrome 115.0.0.0","1920x1080","1920x969",NA,NA,NA,"JV Task P1 (Clone) (study_2)",22,"In","EFDGCHBIAJ","A (JV first)","study_1 (JV and feedback_list_1)",NA,"In","SS1","SS1",14,"J","Fixation","mtm832",2,"continue","",982.363999999972,982.363999999972,982.363999999972,982.363999999972,982.363999999972,982.363999999972,1,982.363999999972,0,0,NA,"Fixation Timing","Fixation",1,"object-65","J","CFD-BM-045-004-H.jpeg",1,NA,NA,"SUPTM52921"
"84",1690971094961,"02/08/2023 10:11:34",1690974694961,1,"02/08/2023 12:11:34",139282,42,"task-5tah",NA,31000865,9196035,NA,"complete",NA,NA,"computer","Desktop or Laptop","Windows 10","Chrome 115.0.0.0","1920x1080","1920x969",NA,NA,NA,"JV Task P1 (Clone) (study_2)",22,"In","EFDGCHBIAJ","A (JV first)","study_1 (JV and feedback_list_1)",NA,"In","SS1","SS1",15,"J","Judginess","w2ir4b",1,"continue","",6348.761,6342.68900000001,6348.761,6348.761,6342.68900000001,6348.761,1,6348.761,0,0,NA,"Click To Continue","Continue Button",1,"object-14","J","CFD-MF-315-002-S.jpeg",1,NA,NA,"SUPTM52921"
"85",1690971094963,"02/08/2023 10:11:34",1690974694963,1,"02/08/2023 12:11:34",139282,42,"task-5tah",NA,31000865,9196035,NA,"complete",NA,NA,"computer","Desktop or Laptop","Windows 10","Chrome 115.0.0.0","1920x1080","1920x969",NA,NA,NA,"JV Task P1 (Clone) (study_2)",22,"In","EFDGCHBIAJ","A (JV first)","study_1 (JV and feedback_list_1)",NA,"In","SS1","SS1",15,"J","Judginess","w2ir4b",1,"response","28",5699.87300000002,6342.68900000001,6348.761,5699.87300000002,6342.68900000001,6348.761,1,5699.87300000002,648.887999999977,0,NA,"Slider","J",3,"object-18","J","CFD-MF-315-002-S.jpeg",1,NA,NA,"SUPTM52921"
"86",1690971095944,"02/08/2023 10:11:35",1690974695944,1,"02/08/2023 12:11:35",139282,42,"task-5tah",NA,31000865,9196035,NA,"complete",NA,NA,"computer","Desktop or Laptop","Windows 10","Chrome 115.0.0.0","1920x1080","1920x969",NA,NA,NA,"JV Task P1 (Clone) (study_2)",22,"In","EFDGCHBIAJ","A (JV first)","study_1 (JV and feedback_list_1)",NA,"In","SS1","SS1",15,"J","Fixation","mtm832",2,"continue","",988.527999999991,988.527999999991,988.527999999991,988.527999999991,988.527999999991,988.527999999991,1,988.527999999991,0,0,NA,"Fixation Timing","Fixation",1,"object-65","J","CFD-MF-315-002-S.jpeg",1,NA,NA,"SUPTM52921"
"87",1690971099613,"02/08/2023 10:11:39",1690974699613,1,"02/08/2023 12:11:39",139282,42,"task-5tah",NA,31000865,9196035,NA,"complete",NA,NA,"computer","Desktop or Laptop","Windows 10","Chrome 115.0.0.0","1920x1080","1920x969",NA,NA,NA,"JV Task P1 (Clone) (study_2)",22,"In","EFDGCHBIAJ","A (JV first)","study_1 (JV and feedback_list_1)",NA,"In","SS1","SS1",16,"J","Judginess","w2ir4b",1,"continue","",3670.12299998809,3668.34400000001,3670.12299998809,3670.12299998809,3668.34400000001,3670.12299998809,1,3670.12299998809,0,0,NA,"Click To Continue","Continue Button",1,"object-14","J","CFD-IF-693-172-H.jpeg",1,NA,NA,"SUPTM52921"
"88",1690971099614,"02/08/2023 10:11:39",1690974699614,1,"02/08/2023 12:11:39",139282,42,"task-5tah",NA,31000865,9196035,NA,"complete",NA,NA,"computer","Desktop or Laptop","Windows 10","Chrome 115.0.0.0","1920x1080","1920x969",NA,NA,NA,"JV Task P1 (Clone) (study_2)",22,"In","EFDGCHBIAJ","A (JV first)","study_1 (JV and feedback_list_1)",NA,"In","SS1","SS1",16,"J","Judginess","w2ir4b",1,"response","52",3019.52100000001,3668.34400000001,3670.42300000001,3019.52100000001,3668.34400000001,3670.42300000001,1,3019.52100000001,650.902000000002,0,NA,"Slider","J",3,"object-18","J","CFD-IF-693-172-H.jpeg",1,NA,NA,"SUPTM52921"
"89",1690971100594,"02/08/2023 10:11:40",1690974700594,1,"02/08/2023 12:11:40",139282,42,"task-5tah",NA,31000865,9196035,NA,"complete",NA,NA,"computer","Desktop or Laptop","Windows 10","Chrome 115.0.0.0","1920x1080","1920x969",NA,NA,NA,"JV Task P1 (Clone) (study_2)",22,"In","EFDGCHBIAJ","A (JV first)","study_1 (JV and feedback_list_1)",NA,"In","SS1","SS1",16,"J","Fixation","mtm832",2,"continue","",982.304999999993,982.304999999993,982.304999999993,982.304999999993,982.304999999993,982.304999999993,1,982.304999999993,0,0,NA,"Fixation Timing","Fixation",1,"object-65","J","CFD-IF-693-172-H.jpeg",1,NA,NA,"SUPTM52921"
"90",1690971105461,"02/08/2023 10:11:45",1690974705461,1,"02/08/2023 12:11:45",139282,42,"task-5tah",NA,31000865,9196035,NA,"complete",NA,NA,"computer","Desktop or Laptop","Windows 10","Chrome 115.0.0.0","1920x1080","1920x969",NA,NA,NA,"JV Task P1 (Clone) (study_2)",22,"In","EFDGCHBIAJ","A (JV first)","study_1 (JV and feedback_list_1)",NA,"In","SS1","SS1",17,"J","Judginess","w2ir4b",1,"continue","",4867.274,4863.057,4867.274,4867.274,4863.057,4867.274,1,4867.274,0,0,NA,"Click To Continue","Continue Button",1,"object-14","J","CFD-BF-029-031-N.jpg",1,NA,NA,"SUPTM52921"
"91",1690971105464,"02/08/2023 10:11:45",1690974705464,1,"02/08/2023 12:11:45",139282,42,"task-5tah",NA,31000865,9196035,NA,"complete",NA,NA,"computer","Desktop or Laptop","Windows 10","Chrome 115.0.0.0","1920x1080","1920x969",NA,NA,NA,"JV Task P1 (Clone) (study_2)",22,"In","EFDGCHBIAJ","A (JV first)","study_1 (JV and feedback_list_1)",NA,"In","SS1","SS1",17,"J","Judginess","w2ir4b",1,"response","42",4183.96300000002,4863.057,4868.97699999998,4183.96300000002,4863.057,4868.97699999998,1,4183.96300000002,685.013999999966,0,NA,"Slider","J",3,"object-18","J","CFD-BF-029-031-N.jpg",1,NA,NA,"SUPTM52921"
"92",1690971106440,"02/08/2023 10:11:46",1690974706440,1,"02/08/2023 12:11:46",139282,42,"task-5tah",NA,31000865,9196035,NA,"complete",NA,NA,"computer","Desktop or Laptop","Windows 10","Chrome 115.0.0.0","1920x1080","1920x969",NA,NA,NA,"JV Task P1 (Clone) (study_2)",22,"In","EFDGCHBIAJ","A (JV first)","study_1 (JV and feedback_list_1)",NA,"In","SS1","SS1",17,"J","Fixation","mtm832",2,"continue","",982.421999999991,982.421999999991,982.421999999991,982.421999999991,982.421999999991,982.421999999991,1,982.421999999991,0,0,NA,"Fixation Timing","Fixation",1,"object-65","J","CFD-BF-029-031-N.jpg",1,NA,NA,"SUPTM52921"
"93",1690971118584,"02/08/2023 10:11:58",1690974718584,1,"02/08/2023 12:11:58",139282,42,"task-5tah",NA,31000865,9196035,NA,"complete",NA,NA,"computer","Desktop or Laptop","Windows 10","Chrome 115.0.0.0","1920x1080","1920x969",NA,NA,NA,"JV Task P1 (Clone) (study_2)",22,"In","EFDGCHBIAJ","A (JV first)","study_1 (JV and feedback_list_1)",NA,"In","SS1","SS1",18,"J","Judginess","w2ir4b",1,"continue","",12144.0949999523,12139.487,12144.0949999523,12144.0949999523,12139.487,12144.0949999523,1,12144.0949999523,0,0,NA,"Click To Continue","Continue Button",1,"object-14","J","CFD-IM-695-001-N.jpg",1,NA,NA,"SUPTM52921"
"94",1690971118585,"02/08/2023 10:11:58",1690974718585,1,"02/08/2023 12:11:58",139282,42,"task-5tah",NA,31000865,9196035,NA,"complete",NA,NA,"computer","Desktop or Laptop","Windows 10","Chrome 115.0.0.0","1920x1080","1920x969",NA,NA,NA,"JV Task P1 (Clone) (study_2)",22,"In","EFDGCHBIAJ","A (JV first)","study_1 (JV and feedback_list_1)",NA,"In","SS1","SS1",18,"J","Judginess","w2ir4b",1,"response","39",11545.412,12139.487,12145.571,11545.412,12139.487,12145.571,1,11545.412,600.159000000014,0,NA,"Slider","J",3,"object-18","J","CFD-IM-695-001-N.jpg",1,NA,NA,"SUPTM52921"
"95",1690971119568,"02/08/2023 10:11:59",1690974719568,1,"02/08/2023 12:11:59",139282,42,"task-5tah",NA,31000865,9196035,NA,"complete",NA,NA,"computer","Desktop or Laptop","Windows 10","Chrome 115.0.0.0","1920x1080","1920x969",NA,NA,NA,"JV Task P1 (Clone) (study_2)",22,"In","EFDGCHBIAJ","A (JV first)","study_1 (JV and feedback_list_1)",NA,"In","SS1","SS1",18,"J","Fixation","mtm832",2,"continue","",988.57799999998,988.57799999998,988.57799999998,988.57799999998,988.57799999998,988.57799999998,1,988.57799999998,0,0,NA,"Fixation Timing","Fixation",1,"object-65","J","CFD-IM-695-001-N.jpg",1,NA,NA,"SUPTM52921"
"96",1690971127901,"02/08/2023 10:12:07",1690974727901,1,"02/08/2023 12:12:07",139282,42,"task-5tah",NA,31000865,9196035,NA,"complete",NA,NA,"computer","Desktop or Laptop","Windows 10","Chrome 115.0.0.0","1920x1080","1920x969",NA,NA,NA,"JV Task P1 (Clone) (study_2)",22,"In","EFDGCHBIAJ","A (JV first)","study_1 (JV and feedback_list_1)",NA,"In","SS1","SS1",13,"V","Valence","sn1sjn",1,"continue","",8333.32999996425,8331.32500000001,8333.32999996425,8333.32999996425,8331.32500000001,8333.32999996425,1,8333.32999996425,0,0,NA,"Click To Continue","Continue Button",1,"object-25","V","CFD-WF-027-003-N.jpg",1,NA,NA,"SUPTM52921"
"97",1690971127901,"02/08/2023 10:12:07",1690974727901,1,"02/08/2023 12:12:07",139282,42,"task-5tah",NA,31000865,9196035,NA,"complete",NA,NA,"computer","Desktop or Laptop","Windows 10","Chrome 115.0.0.0","1920x1080","1920x969",NA,NA,NA,"JV Task P1 (Clone) (study_2)",22,"In","EFDGCHBIAJ","A (JV first)","study_1 (JV and feedback_list_1)",NA,"In","SS1","SS1",13,"V","Valence","sn1sjn",1,"response","54",7828.076,8331.32500000001,8333.62999997617,7828.076,8331.32500000001,8333.62999997617,1,7828.076,505.553999976168,0,NA,"Slider","J",3,"object-27","V","CFD-WF-027-003-N.jpg",1,NA,NA,"SUPTM52921"
"98",1690971128881,"02/08/2023 10:12:08",1690974728881,1,"02/08/2023 12:12:08",139282,42,"task-5tah",NA,31000865,9196035,NA,"complete",NA,NA,"computer","Desktop or Laptop","Windows 10","Chrome 115.0.0.0","1920x1080","1920x969",NA,NA,NA,"JV Task P1 (Clone) (study_2)",22,"In","EFDGCHBIAJ","A (JV first)","study_1 (JV and feedback_list_1)",NA,"In","SS1","SS1",13,"V","Fixation","aydkg3",2,"continue","",982.331000000006,982.331000000006,982.331000000006,982.331000000006,982.331000000006,982.331000000006,1,982.331000000006,0,0,NA,"Fixation Timing","Fixation",1,"object-21","V","CFD-WF-027-003-N.jpg",1,NA,NA,"SUPTM52921"
"99",1690971134865,"02/08/2023 10:12:14",1690974734865,1,"02/08/2023 12:12:14",139282,42,"task-5tah",NA,31000865,9196035,NA,"complete",NA,NA,"computer","Desktop or Laptop","Windows 10","Chrome 115.0.0.0","1920x1080","1920x969",NA,NA,NA,"JV Task P1 (Clone) (study_2)",22,"In","EFDGCHBIAJ","A (JV first)","study_1 (JV and feedback_list_1)",NA,"In","SS1","SS1",19,"J","Judginess","w2ir4b",1,"continue","",5984.07399999999,5978.815,5984.07399999999,5984.07399999999,5978.815,5984.07399999999,1,5984.07399999999,0,0,NA,"Click To Continue","Continue Button",1,"object-14","J","CFD-WF-024-003-S.jpeg",1,NA,NA,"SUPTM52921"
"100",1690971134865,"02/08/2023 10:12:14",1690974734865,1,"02/08/2023 12:12:14",139282,42,"task-5tah",NA,31000865,9196035,NA,"complete",NA,NA,"computer","Desktop or Laptop","Windows 10","Chrome 115.0.0.0","1920x1080","1920x969",NA,NA,NA,"JV Task P1 (Clone) (study_2)",22,"In","EFDGCHBIAJ","A (JV first)","study_1 (JV and feedback_list_1)",NA,"In","SS1","SS1",19,"J","Judginess","w2ir4b",1,"response","50",2850.02099999998,5978.815,5984.27399998807,2850.02099999998,5978.815,5984.27399998807,1,2850.02099999998,3134.25299998809,0,NA,"Slider","J",3,"object-18","J","CFD-WF-024-003-S.jpeg",1,NA,NA,"SUPTM52921"
"101",1690971135843,"02/08/2023 10:12:15",1690974735843,1,"02/08/2023 12:12:15",139282,42,"task-5tah",NA,31000865,9196035,NA,"complete",NA,NA,"computer","Desktop or Laptop","Windows 10","Chrome 115.0.0.0","1920x1080","1920x969",NA,NA,NA,"JV Task P1 (Clone) (study_2)",22,"In","EFDGCHBIAJ","A (JV first)","study_1 (JV and feedback_list_1)",NA,"In","SS1","SS1",19,"J","Fixation","mtm832",2,"continue","",982.513999999996,982.513999999996,982.513999999996,982.513999999996,982.513999999996,982.513999999996,1,982.513999999996,0,0,NA,"Fixation Timing","Fixation",1,"object-65","J","CFD-WF-024-003-S.jpeg",1,NA,NA,"SUPTM52921"
"102",1690971139241,"02/08/2023 10:12:19",1690974739241,1,"02/08/2023 12:12:19",139282,42,"task-5tah",NA,31000865,9196035,NA,"complete",NA,NA,"computer","Desktop or Laptop","Windows 10","Chrome 115.0.0.0","1920x1080","1920x969",NA,NA,NA,"JV Task P1 (Clone) (study_2)",22,"In","EFDGCHBIAJ","A (JV first)","study_1 (JV and feedback_list_1)",NA,"In","SS1","SS1",20,"J","Judginess","w2ir4b",1,"continue","",3398.64499997615,3395.58299999998,3398.64499997615,3398.64499997615,3395.58299999998,3398.64499997615,1,3398.64499997615,0,0,NA,"Click To Continue","Continue Button",1,"object-14","J","CFD-WM-036-031-H.jpeg",1,NA,NA,"SUPTM52921"
"103",1690971139243,"02/08/2023 10:12:19",1690974739243,1,"02/08/2023 12:12:19",139282,42,"task-5tah",NA,31000865,9196035,NA,"complete",NA,NA,"computer","Desktop or Laptop","Windows 10","Chrome 115.0.0.0","1920x1080","1920x969",NA,NA,NA,"JV Task P1 (Clone) (study_2)",22,"In","EFDGCHBIAJ","A (JV first)","study_1 (JV and feedback_list_1)",NA,"In","SS1","SS1",20,"J","Judginess","w2ir4b",1,"response","87",2946.853,3395.58299999998,3400.44499998807,2946.853,3395.58299999998,3400.44499998807,1,2946.853,453.591999988072,0,NA,"Slider","J",3,"object-18","J","CFD-WM-036-031-H.jpeg",1,NA,NA,"SUPTM52921"
"104",1690971140221,"02/08/2023 10:12:20",1690974740221,1,"02/08/2023 12:12:20",139282,42,"task-5tah",NA,31000865,9196035,NA,"complete",NA,NA,"computer","Desktop or Laptop","Windows 10","Chrome 115.0.0.0","1920x1080","1920x969",NA,NA,NA,"JV Task P1 (Clone) (study_2)",22,"In","EFDGCHBIAJ","A (JV first)","study_1 (JV and feedback_list_1)",NA,"In","SS1","SS1",20,"J","Fixation","mtm832",2,"continue","",982.290000000008,982.290000000008,982.290000000008,982.290000000008,982.290000000008,982.290000000008,1,982.290000000008,0,0,NA,"Fixation Timing","Fixation",1,"object-65","J","CFD-WM-036-031-H.jpeg",1,NA,NA,"SUPTM52921"
"105",1690971146910,"02/08/2023 10:12:26",1690974746910,1,"02/08/2023 12:12:26",139282,42,"task-5tah",NA,31000865,9196035,NA,"complete",NA,NA,"computer","Desktop or Laptop","Windows 10","Chrome 115.0.0.0","1920x1080","1920x969",NA,NA,NA,"JV Task P1 (Clone) (study_2)",22,"In","EFDGCHBIAJ","A (JV first)","study_1 (JV and feedback_list_1)",NA,"In","SS1","SS1",14,"V","Valence","sn1sjn",1,"continue","",6689.67199995232,6688.29500000001,6689.67199995232,6689.67199995232,6688.29500000001,6689.67199995232,1,6689.67199995232,0,0,NA,"Click To Continue","Continue Button",1,"object-25","V","CFD-WF-027-003-S.jpeg",1,NA,NA,"SUPTM52921"
"106",1690971146910,"02/08/2023 10:12:26",1690974746910,1,"02/08/2023 12:12:26",139282,42,"task-5tah",NA,31000865,9196035,NA,"complete",NA,NA,"computer","Desktop or Laptop","Windows 10","Chrome 115.0.0.0","1920x1080","1920x969",NA,NA,NA,"JV Task P1 (Clone) (study_2)",22,"In","EFDGCHBIAJ","A (JV first)","study_1 (JV and feedback_list_1)",NA,"In","SS1","SS1",14,"V","Valence","sn1sjn",1,"response","43",4729.71400000001,6688.29500000001,6690.17199995232,4729.71400000001,6688.29500000001,6690.17199995232,1,4729.71400000001,1960.45799995231,0,NA,"Slider","J",3,"object-27","V","CFD-WF-027-003-S.jpeg",1,NA,NA,"SUPTM52921"
"107",1690971147897,"02/08/2023 10:12:27",1690974747897,1,"02/08/2023 12:12:27",139282,42,"task-5tah",NA,31000865,9196035,NA,"complete",NA,NA,"computer","Desktop or Laptop","Windows 10","Chrome 115.0.0.0","1920x1080","1920x969",NA,NA,NA,"JV Task P1 (Clone) (study_2)",22,"In","EFDGCHBIAJ","A (JV first)","study_1 (JV and feedback_list_1)",NA,"In","SS1","SS1",14,"V","Fixation","aydkg3",2,"continue","",988.404999999999,988.404999999999,988.404999999999,988.404999999999,988.404999999999,988.404999999999,1,988.404999999999,0,0,NA,"Fixation Timing","Fixation",1,"object-21","V","CFD-WF-027-003-S.jpeg",1,NA,NA,"SUPTM52921"
"108",1690971153061,"02/08/2023 10:12:33",1690974753061,1,"02/08/2023 12:12:33",139282,42,"task-5tah",NA,31000865,9196035,NA,"complete",NA,NA,"computer","Desktop or Laptop","Windows 10","Chrome 115.0.0.0","1920x1080","1920x969",NA,NA,NA,"JV Task P1 (Clone) (study_2)",22,"In","EFDGCHBIAJ","A (JV first)","study_1 (JV and feedback_list_1)",NA,"In","SS1","SS1",21,"J","Judginess","w2ir4b",1,"continue","",5164.47199995231,5160.13699999999,5164.47199995231,5164.47199995231,5160.13699999999,5164.47199995231,1,5164.47199995231,0,0,NA,"Click To Continue","Continue Button",1,"object-14","J","CFD-WM-009-002-S.jpeg",1,NA,NA,"SUPTM52921"
"109",1690971153064,"02/08/2023 10:12:33",1690974753064,1,"02/08/2023 12:12:33",139282,42,"task-5tah",NA,31000865,9196035,NA,"complete",NA,NA,"computer","Desktop or Laptop","Windows 10","Chrome 115.0.0.0","1920x1080","1920x969",NA,NA,NA,"JV Task P1 (Clone) (study_2)",22,"In","EFDGCHBIAJ","A (JV first)","study_1 (JV and feedback_list_1)",NA,"In","SS1","SS1",21,"J","Judginess","w2ir4b",1,"response","51",3492.655,5160.13699999999,5166.21699999998,3492.655,5160.13699999999,5166.21699999998,1,3492.655,1673.56199999998,0,NA,"Slider","J",3,"object-18","J","CFD-WM-009-002-S.jpeg",1,NA,NA,"SUPTM52921"
"110",1690971154046,"02/08/2023 10:12:34",1690974754046,1,"02/08/2023 12:12:34",139282,42,"task-5tah",NA,31000865,9196035,NA,"complete",NA,NA,"computer","Desktop or Laptop","Windows 10","Chrome 115.0.0.0","1920x1080","1920x969",NA,NA,NA,"JV Task P1 (Clone) (study_2)",22,"In","EFDGCHBIAJ","A (JV first)","study_1 (JV and feedback_list_1)",NA,"In","SS1","SS1",21,"J","Fixation","mtm832",2,"continue","",988.459999999992,988.459999999992,988.459999999992,988.459999999992,988.459999999992,988.459999999992,1,988.459999999992,0,0,NA,"Fixation Timing","Fixation",1,"object-65","J","CFD-WM-009-002-S.jpeg",1,NA,NA,"SUPTM52921"
"111",1690971161245,"02/08/2023 10:12:41",1690974761245,1,"02/08/2023 12:12:41",139282,42,"task-5tah",NA,31000865,9196035,NA,"complete",NA,NA,"computer","Desktop or Laptop","Windows 10","Chrome 115.0.0.0","1920x1080","1920x969",NA,NA,NA,"JV Task P1 (Clone) (study_2)",22,"In","EFDGCHBIAJ","A (JV first)","study_1 (JV and feedback_list_1)",NA,"In","SS1","SS1",15,"V","Valence","sn1sjn",1,"continue","",7199.47499997617,7197.54500000001,7199.47499997617,7199.47499997617,7197.54500000001,7199.47499997617,1,7199.47499997617,0,0,NA,"Click To Continue","Continue Button",1,"object-25","V","CFD-WF-022-017-S.jpeg",1,NA,NA,"SUPTM52921"
"112",1690971161245,"02/08/2023 10:12:41",1690974761245,1,"02/08/2023 12:12:41",139282,42,"task-5tah",NA,31000865,9196035,NA,"complete",NA,NA,"computer","Desktop or Laptop","Windows 10","Chrome 115.0.0.0","1920x1080","1920x969",NA,NA,NA,"JV Task P1 (Clone) (study_2)",22,"In","EFDGCHBIAJ","A (JV first)","study_1 (JV and feedback_list_1)",NA,"In","SS1","SS1",15,"V","Valence","sn1sjn",1,"response","22",5044.929,7197.54500000001,7199.77499998809,5044.929,7197.54500000001,7199.77499998809,1,5044.929,2154.84599998809,0,NA,"Slider","J",3,"object-27","V","CFD-WF-022-017-S.jpeg",1,NA,NA,"SUPTM52921"
"113",1690971162226,"02/08/2023 10:12:42",1690974762226,1,"02/08/2023 12:12:42",139282,42,"task-5tah",NA,31000865,9196035,NA,"complete",NA,NA,"computer","Desktop or Laptop","Windows 10","Chrome 115.0.0.0","1920x1080","1920x969",NA,NA,NA,"JV Task P1 (Clone) (study_2)",22,"In","EFDGCHBIAJ","A (JV first)","study_1 (JV and feedback_list_1)",NA,"In","SS1","SS1",15,"V","Fixation","aydkg3",2,"continue","",982.39499999999,982.39499999999,982.39499999999,982.39499999999,982.39499999999,982.39499999999,1,982.39499999999,0,0,NA,"Fixation Timing","Fixation",1,"object-21","V","CFD-WF-022-017-S.jpeg",1,NA,NA,"SUPTM52921"
"114",1690971165961,"02/08/2023 10:12:45",1690974765961,1,"02/08/2023 12:12:45",139282,42,"task-5tah",NA,31000865,9196035,NA,"complete",NA,NA,"computer","Desktop or Laptop","Windows 10","Chrome 115.0.0.0","1920x1080","1920x969",NA,NA,NA,"JV Task P1 (Clone) (study_2)",22,"In","EFDGCHBIAJ","A (JV first)","study_1 (JV and feedback_list_1)",NA,"In","SS1","SS1",16,"V","Valence","sn1sjn",1,"continue","",3735.06899999999,3729.08100000001,3735.06899999999,3735.06899999999,3729.08100000001,3735.06899999999,1,3735.06899999999,0,0,NA,"Click To Continue","Continue Button",1,"object-25","V","CFD-WM-028-003-H.jpeg",1,NA,NA,"SUPTM52921"
"115",1690971165963,"02/08/2023 10:12:45",1690974765963,1,"02/08/2023 12:12:45",139282,42,"task-5tah",NA,31000865,9196035,NA,"complete",NA,NA,"computer","Desktop or Laptop","Windows 10","Chrome 115.0.0.0","1920x1080","1920x969",NA,NA,NA,"JV Task P1 (Clone) (study_2)",22,"In","EFDGCHBIAJ","A (JV first)","study_1 (JV and feedback_list_1)",NA,"In","SS1","SS1",16,"V","Valence","sn1sjn",1,"response","61",3147.10200000001,3729.08100000001,3735.06899999999,3147.10200000001,3729.08100000001,3735.06899999999,1,3147.10200000001,587.966999999975,0,NA,"Slider","J",3,"object-27","V","CFD-WM-028-003-H.jpeg",1,NA,NA,"SUPTM52921"
"116",1690971166937,"02/08/2023 10:12:46",1690974766937,1,"02/08/2023 12:12:46",139282,42,"task-5tah",NA,31000865,9196035,NA,"complete",NA,NA,"computer","Desktop or Laptop","Windows 10","Chrome 115.0.0.0","1920x1080","1920x969",NA,NA,NA,"JV Task P1 (Clone) (study_2)",22,"In","EFDGCHBIAJ","A (JV first)","study_1 (JV and feedback_list_1)",NA,"In","SS1","SS1",16,"V","Fixation","aydkg3",2,"continue","",982.331999999995,982.331999999995,982.331999999995,982.331999999995,982.331999999995,982.331999999995,1,982.331999999995,0,0,NA,"Fixation Timing","Fixation",1,"object-21","V","CFD-WM-028-003-H.jpeg",1,NA,NA,"SUPTM52921"
"117",1690971170437,"02/08/2023 10:12:50",1690974770437,1,"02/08/2023 12:12:50",139282,42,"task-5tah",NA,31000865,9196035,NA,"complete",NA,NA,"computer","Desktop or Laptop","Windows 10","Chrome 115.0.0.0","1920x1080","1920x969",NA,NA,NA,"JV Task P1 (Clone) (study_2)",22,"In","EFDGCHBIAJ","A (JV first)","study_1 (JV and feedback_list_1)",NA,"In","SS1","SS1",22,"J","Judginess","w2ir4b",1,"continue","",3500.42199998809,3498.77900000001,3500.42199998809,3500.42199998809,3498.77900000001,3500.42199998809,1,3500.42199998809,0,0,NA,"Click To Continue","Continue Button",1,"object-14","J","CFD-AM-225-102-H.jpeg",1,NA,NA,"SUPTM52921"
"118",1690971170438,"02/08/2023 10:12:50",1690974770438,1,"02/08/2023 12:12:50",139282,42,"task-5tah",NA,31000865,9196035,NA,"complete",NA,NA,"computer","Desktop or Laptop","Windows 10","Chrome 115.0.0.0","1920x1080","1920x969",NA,NA,NA,"JV Task P1 (Clone) (study_2)",22,"In","EFDGCHBIAJ","A (JV first)","study_1 (JV and feedback_list_1)",NA,"In","SS1","SS1",22,"J","Judginess","w2ir4b",1,"response","69",3104.64300000001,3498.77900000001,3500.62199997617,3104.64300000001,3498.77900000001,3500.62199997617,1,3104.64300000001,395.978999976156,0,NA,"Slider","J",3,"object-18","J","CFD-AM-225-102-H.jpeg",1,NA,NA,"SUPTM52921"
"119",1690971171424,"02/08/2023 10:12:51",1690974771424,1,"02/08/2023 12:12:51",139282,42,"task-5tah",NA,31000865,9196035,NA,"complete",NA,NA,"computer","Desktop or Laptop","Windows 10","Chrome 115.0.0.0","1920x1080","1920x969",NA,NA,NA,"JV Task P1 (Clone) (study_2)",22,"In","EFDGCHBIAJ","A (JV first)","study_1 (JV and feedback_list_1)",NA,"In","SS1","SS1",22,"J","Fixation","mtm832",2,"continue","",988.467000000004,988.467000000004,988.467000000004,988.467000000004,988.467000000004,988.467000000004,1,988.467000000004,0,0,NA,"Fixation Timing","Fixation",1,"object-65","J","CFD-AM-225-102-H.jpeg",1,NA,NA,"SUPTM52921"
"120",1690971175631,"02/08/2023 10:12:55",1690974775631,1,"02/08/2023 12:12:55",139282,42,"task-5tah",NA,31000865,9196035,NA,"complete",NA,NA,"computer","Desktop or Laptop","Windows 10","Chrome 115.0.0.0","1920x1080","1920x969",NA,NA,NA,"JV Task P1 (Clone) (study_2)",22,"In","EFDGCHBIAJ","A (JV first)","study_1 (JV and feedback_list_1)",NA,"In","SS1","SS1",23,"J","Judginess","w2ir4b",1,"continue","",4207.57599996423,4202.182,4207.57599996423,4207.57599996423,4202.182,4207.57599996423,1,4207.57599996423,0,0,NA,"Click To Continue","Continue Button",1,"object-14","J","CFD-WM-031-003-N.jpg",1,NA,NA,"SUPTM52921"
"121",1690971175632,"02/08/2023 10:12:55",1690974775632,1,"02/08/2023 12:12:55",139282,42,"task-5tah",NA,31000865,9196035,NA,"complete",NA,NA,"computer","Desktop or Laptop","Windows 10","Chrome 115.0.0.0","1920x1080","1920x969",NA,NA,NA,"JV Task P1 (Clone) (study_2)",22,"In","EFDGCHBIAJ","A (JV first)","study_1 (JV and feedback_list_1)",NA,"In","SS1","SS1",23,"J","Judginess","w2ir4b",1,"response","54",3826.20199999999,4202.182,4207.77599995231,3826.20199999999,4202.182,4207.77599995231,1,3826.20199999999,381.573999952321,0,NA,"Slider","J",3,"object-18","J","CFD-WM-031-003-N.jpg",1,NA,NA,"SUPTM52921"
"122",1690971176609,"02/08/2023 10:12:56",1690974776609,1,"02/08/2023 12:12:56",139282,42,"task-5tah",NA,31000865,9196035,NA,"complete",NA,NA,"computer","Desktop or Laptop","Windows 10","Chrome 115.0.0.0","1920x1080","1920x969",NA,NA,NA,"JV Task P1 (Clone) (study_2)",22,"In","EFDGCHBIAJ","A (JV first)","study_1 (JV and feedback_list_1)",NA,"In","SS1","SS1",23,"J","Fixation","mtm832",2,"continue","",982.293999999994,982.293999999994,982.293999999994,982.293999999994,982.293999999994,982.293999999994,1,982.293999999994,0,0,NA,"Fixation Timing","Fixation",1,"object-65","J","CFD-WM-031-003-N.jpg",1,NA,NA,"SUPTM52921"
"123",1690971182582,"02/08/2023 10:13:02",1690974782582,1,"02/08/2023 12:13:02",139282,42,"task-5tah",NA,31000865,9196035,NA,"complete",NA,NA,"computer","Desktop or Laptop","Windows 10","Chrome 115.0.0.0","1920x1080","1920x969",NA,NA,NA,"JV Task P1 (Clone) (study_2)",22,"In","EFDGCHBIAJ","A (JV first)","study_1 (JV and feedback_list_1)",NA,"In","SS1","SS1",17,"V","Valence","sn1sjn",1,"continue","",5973.59999996424,5972.66399999999,5973.59999996424,5973.59999996424,5972.66399999999,5973.59999996424,1,5973.59999996424,0,0,NA,"Click To Continue","Continue Button",1,"object-25","V","CFD-MF-315-002-N.jpg",1,NA,NA,"SUPTM52921"
"124",1690971182582,"02/08/2023 10:13:02",1690974782582,1,"02/08/2023 12:13:02",139282,42,"task-5tah",NA,31000865,9196035,NA,"complete",NA,NA,"computer","Desktop or Laptop","Windows 10","Chrome 115.0.0.0","1920x1080","1920x969",NA,NA,NA,"JV Task P1 (Clone) (study_2)",22,"In","EFDGCHBIAJ","A (JV first)","study_1 (JV and feedback_list_1)",NA,"In","SS1","SS1",17,"V","Valence","sn1sjn",1,"response","65",3007.60200000001,5972.66399999999,5973.79999995232,3007.60200000001,5972.66399999999,5973.79999995232,1,3007.60200000001,2966.1979999523,0,NA,"Slider","J",3,"object-27","V","CFD-MF-315-002-N.jpg",1,NA,NA,"SUPTM52921"
"125",1690971183564,"02/08/2023 10:13:03",1690974783564,1,"02/08/2023 12:13:03",139282,42,"task-5tah",NA,31000865,9196035,NA,"complete",NA,NA,"computer","Desktop or Laptop","Windows 10","Chrome 115.0.0.0","1920x1080","1920x969",NA,NA,NA,"JV Task P1 (Clone) (study_2)",22,"In","EFDGCHBIAJ","A (JV first)","study_1 (JV and feedback_list_1)",NA,"In","SS1","SS1",17,"V","Fixation","aydkg3",2,"continue","",982.339000000036,982.339000000036,982.339000000036,982.339000000036,982.339000000036,982.339000000036,1,982.339000000036,0,0,NA,"Fixation Timing","Fixation",1,"object-21","V","CFD-MF-315-002-N.jpg",1,NA,NA,"SUPTM52921"
"126",1690971186933,"02/08/2023 10:13:06",1690974786933,1,"02/08/2023 12:13:06",139282,42,"task-5tah",NA,31000865,9196035,NA,"complete",NA,NA,"computer","Desktop or Laptop","Windows 10","Chrome 115.0.0.0","1920x1080","1920x969",NA,NA,NA,"JV Task P1 (Clone) (study_2)",22,"In","EFDGCHBIAJ","A (JV first)","study_1 (JV and feedback_list_1)",NA,"In","SS1","SS1",24,"J","Judginess","w2ir4b",1,"continue","",3369.99699999997,3365.435,3369.99699999997,3369.99699999997,3365.435,3369.99699999997,1,3369.99699999997,0,0,NA,"Click To Continue","Continue Button",1,"object-14","J","CFD-MF-309-002-S.jpeg",1,NA,NA,"SUPTM52921"
"127",1690971186936,"02/08/2023 10:13:06",1690974786936,1,"02/08/2023 12:13:06",139282,42,"task-5tah",NA,31000865,9196035,NA,"complete",NA,NA,"computer","Desktop or Laptop","Windows 10","Chrome 115.0.0.0","1920x1080","1920x969",NA,NA,NA,"JV Task P1 (Clone) (study_2)",22,"In","EFDGCHBIAJ","A (JV first)","study_1 (JV and feedback_list_1)",NA,"In","SS1","SS1",24,"J","Judginess","w2ir4b",1,"response","13",2801.587,3365.435,3371.58000000002,2801.587,3365.435,3371.58000000002,1,2801.587,569.993000000017,0,NA,"Slider","J",3,"object-18","J","CFD-MF-309-002-S.jpeg",1,NA,NA,"SUPTM52921"
"128",1690971187924,"02/08/2023 10:13:07",1690974787924,1,"02/08/2023 12:13:07",139282,42,"task-5tah",NA,31000865,9196035,NA,"complete",NA,NA,"computer","Desktop or Laptop","Windows 10","Chrome 115.0.0.0","1920x1080","1920x969",NA,NA,NA,"JV Task P1 (Clone) (study_2)",22,"In","EFDGCHBIAJ","A (JV first)","study_1 (JV and feedback_list_1)",NA,"In","SS1","SS1",24,"J","Fixation","mtm832",2,"continue","",994.456999999995,994.456999999995,994.456999999995,994.456999999995,994.456999999995,994.456999999995,1,994.456999999995,0,0,NA,"Fixation Timing","Fixation",1,"object-65","J","CFD-MF-309-002-S.jpeg",1,NA,NA,"SUPTM52921"
"129",1690971192762,"02/08/2023 10:13:12",1690974792762,1,"02/08/2023 12:13:12",139282,42,"task-5tah",NA,31000865,9196035,NA,"complete",NA,NA,"computer","Desktop or Laptop","Windows 10","Chrome 115.0.0.0","1920x1080","1920x969",NA,NA,NA,"JV Task P1 (Clone) (study_2)",22,"In","EFDGCHBIAJ","A (JV first)","study_1 (JV and feedback_list_1)",NA,"In","SS1","SS1",25,"J","Judginess","w2ir4b",1,"continue","",4838.4049999523,4832.65299999999,4838.4049999523,4838.4049999523,4832.65299999999,4838.4049999523,1,4838.4049999523,0,0,NA,"Click To Continue","Continue Button",1,"object-14","J","CFD-WF-022-017-N.jpg",1,NA,NA,"SUPTM52921"
"130",1690971192762,"02/08/2023 10:13:12",1690974792762,1,"02/08/2023 12:13:12",139282,42,"task-5tah",NA,31000865,9196035,NA,"complete",NA,NA,"computer","Desktop or Laptop","Windows 10","Chrome 115.0.0.0","1920x1080","1920x969",NA,NA,NA,"JV Task P1 (Clone) (study_2)",22,"In","EFDGCHBIAJ","A (JV first)","study_1 (JV and feedback_list_1)",NA,"In","SS1","SS1",25,"J","Judginess","w2ir4b",1,"response","30",4384.05199999997,4832.65299999999,4838.60499999998,4384.05199999997,4832.65299999999,4838.60499999998,1,4384.05199999997,454.553000000014,0,NA,"Slider","J",3,"object-18","J","CFD-WF-022-017-N.jpg",1,NA,NA,"SUPTM52921"
"131",1690971193739,"02/08/2023 10:13:13",1690974793739,1,"02/08/2023 12:13:13",139282,42,"task-5tah",NA,31000865,9196035,NA,"complete",NA,NA,"computer","Desktop or Laptop","Windows 10","Chrome 115.0.0.0","1920x1080","1920x969",NA,NA,NA,"JV Task P1 (Clone) (study_2)",22,"In","EFDGCHBIAJ","A (JV first)","study_1 (JV and feedback_list_1)",NA,"In","SS1","SS1",25,"J","Fixation","mtm832",2,"continue","",982.429999999993,982.429999999993,982.429999999993,982.429999999993,982.429999999993,982.429999999993,1,982.429999999993,0,0,NA,"Fixation Timing","Fixation",1,"object-65","J","CFD-WF-022-017-N.jpg",1,NA,NA,"SUPTM52921"
"132",1690971197895,"02/08/2023 10:13:17",1690974797895,1,"02/08/2023 12:13:17",139282,42,"task-5tah",NA,31000865,9196035,NA,"complete",NA,NA,"computer","Desktop or Laptop","Windows 10","Chrome 115.0.0.0","1920x1080","1920x969",NA,NA,NA,"JV Task P1 (Clone) (study_2)",22,"In","EFDGCHBIAJ","A (JV first)","study_1 (JV and feedback_list_1)",NA,"In","SS1","SS1",26,"J","Judginess","w2ir4b",1,"continue","",4156.62199996423,4153.68800000002,4156.62199996423,4156.62199996423,4153.68800000002,4156.62199996423,1,4156.62199996423,0,0,NA,"Click To Continue","Continue Button",1,"object-14","J","CFD-BM-028-002-H.jpeg",1,NA,NA,"SUPTM52921"
"133",1690971197897,"02/08/2023 10:13:17",1690974797897,1,"02/08/2023 12:13:17",139282,42,"task-5tah",NA,31000865,9196035,NA,"complete",NA,NA,"computer","Desktop or Laptop","Windows 10","Chrome 115.0.0.0","1920x1080","1920x969",NA,NA,NA,"JV Task P1 (Clone) (study_2)",22,"In","EFDGCHBIAJ","A (JV first)","study_1 (JV and feedback_list_1)",NA,"In","SS1","SS1",26,"J","Judginess","w2ir4b",1,"response","59",3498.75799999997,4153.68800000002,4158.522,3498.75799999997,4153.68800000002,4158.522,1,3498.75799999997,659.764000000025,0,NA,"Slider","J",3,"object-18","J","CFD-BM-028-002-H.jpeg",1,NA,NA,"SUPTM52921"
"134",1690971198875,"02/08/2023 10:13:18",1690974798875,1,"02/08/2023 12:13:18",139282,42,"task-5tah",NA,31000865,9196035,NA,"complete",NA,NA,"computer","Desktop or Laptop","Windows 10","Chrome 115.0.0.0","1920x1080","1920x969",NA,NA,NA,"JV Task P1 (Clone) (study_2)",22,"In","EFDGCHBIAJ","A (JV first)","study_1 (JV and feedback_list_1)",NA,"In","SS1","SS1",26,"J","Fixation","mtm832",2,"continue","",982.366999999969,982.366999999969,982.366999999969,982.366999999969,982.366999999969,982.366999999969,1,982.366999999969,0,0,NA,"Fixation Timing","Fixation",1,"object-65","J","CFD-BM-028-002-H.jpeg",1,NA,NA,"SUPTM52921"
"135",1690971202657,"02/08/2023 10:13:22",1690974802657,1,"02/08/2023 12:13:22",139282,42,"task-5tah",NA,31000865,9196035,NA,"complete",NA,NA,"computer","Desktop or Laptop","Windows 10","Chrome 115.0.0.0","1920x1080","1920x969",NA,NA,NA,"JV Task P1 (Clone) (study_2)",22,"In","EFDGCHBIAJ","A (JV first)","study_1 (JV and feedback_list_1)",NA,"In","SS1","SS1",18,"V","Valence","sn1sjn",1,"continue","",3782.26699995232,3777.61300000001,3782.26699995232,3782.26699995232,3777.61300000001,3782.26699995232,1,3782.26699995232,0,0,NA,"Click To Continue","Continue Button",1,"object-25","V","CFD-AF-233-190-S.jpeg",1,NA,NA,"SUPTM52921"
"136",1690971202657,"02/08/2023 10:13:22",1690974802657,1,"02/08/2023 12:13:22",139282,42,"task-5tah",NA,31000865,9196035,NA,"complete",NA,NA,"computer","Desktop or Laptop","Windows 10","Chrome 115.0.0.0","1920x1080","1920x969",NA,NA,NA,"JV Task P1 (Clone) (study_2)",22,"In","EFDGCHBIAJ","A (JV first)","study_1 (JV and feedback_list_1)",NA,"In","SS1","SS1",18,"V","Valence","sn1sjn",1,"response","18",3049.92100000003,3777.61300000001,3782.56699996424,3049.92100000003,3777.61300000001,3782.56699996424,1,3049.92100000003,732.64599996421,0,NA,"Slider","J",3,"object-27","V","CFD-AF-233-190-S.jpeg",1,NA,NA,"SUPTM52921"
"137",1690971203647,"02/08/2023 10:13:23",1690974803647,1,"02/08/2023 12:13:23",139282,42,"task-5tah",NA,31000865,9196035,NA,"complete",NA,NA,"computer","Desktop or Laptop","Windows 10","Chrome 115.0.0.0","1920x1080","1920x969",NA,NA,NA,"JV Task P1 (Clone) (study_2)",22,"In","EFDGCHBIAJ","A (JV first)","study_1 (JV and feedback_list_1)",NA,"In","SS1","SS1",18,"V","Fixation","aydkg3",2,"continue","",994.323999999964,994.323999999964,994.323999999964,994.323999999964,994.323999999964,994.323999999964,1,994.323999999964,0,0,NA,"Fixation Timing","Fixation",1,"object-21","V","CFD-AF-233-190-S.jpeg",1,NA,NA,"SUPTM52921"
"138",1690971209193,"02/08/2023 10:13:29",1690974809193,1,"02/08/2023 12:13:29",139282,42,"task-5tah",NA,31000865,9196035,NA,"complete",NA,NA,"computer","Desktop or Laptop","Windows 10","Chrome 115.0.0.0","1920x1080","1920x969",NA,NA,NA,"JV Task P1 (Clone) (study_2)",22,"In","EFDGCHBIAJ","A (JV first)","study_1 (JV and feedback_list_1)",NA,"In","SS1","SS1",19,"V","Valence","sn1sjn",1,"continue","",5546.32999995234,5542.40600000002,5546.32999995234,5546.32999995234,5542.40600000002,5546.32999995234,1,5546.32999995234,0,0,NA,"Click To Continue","Continue Button",1,"object-25","V","CFD-WF-035-024-N.jpg",1,NA,NA,"SUPTM52921"
"139",1690971209195,"02/08/2023 10:13:29",1690974809195,1,"02/08/2023 12:13:29",139282,42,"task-5tah",NA,31000865,9196035,NA,"complete",NA,NA,"computer","Desktop or Laptop","Windows 10","Chrome 115.0.0.0","1920x1080","1920x969",NA,NA,NA,"JV Task P1 (Clone) (study_2)",22,"In","EFDGCHBIAJ","A (JV first)","study_1 (JV and feedback_list_1)",NA,"In","SS1","SS1",19,"V","Valence","sn1sjn",1,"response","38",4972.34400000004,5542.40600000002,5548.63199999998,4972.34400000004,5542.40600000002,5548.63199999998,1,4972.34400000004,576.287999999942,0,NA,"Slider","J",3,"object-27","V","CFD-WF-035-024-N.jpg",1,NA,NA,"SUPTM52921"
"140",1690971210172,"02/08/2023 10:13:30",1690974810172,1,"02/08/2023 12:13:30",139282,42,"task-5tah",NA,31000865,9196035,NA,"complete",NA,NA,"computer","Desktop or Laptop","Windows 10","Chrome 115.0.0.0","1920x1080","1920x969",NA,NA,NA,"JV Task P1 (Clone) (study_2)",22,"In","EFDGCHBIAJ","A (JV first)","study_1 (JV and feedback_list_1)",NA,"In","SS1","SS1",19,"V","Fixation","aydkg3",2,"continue","",982.253000000026,982.253000000026,982.253000000026,982.253000000026,982.253000000026,982.253000000026,1,982.253000000026,0,0,NA,"Fixation Timing","Fixation",1,"object-21","V","CFD-WF-035-024-N.jpg",1,NA,NA,"SUPTM52921"
"141",1690971213855,"02/08/2023 10:13:33",1690974813855,1,"02/08/2023 12:13:33",139282,42,"task-5tah",NA,31000865,9196035,NA,"complete",NA,NA,"computer","Desktop or Laptop","Windows 10","Chrome 115.0.0.0","1920x1080","1920x969",NA,NA,NA,"JV Task P1 (Clone) (study_2)",22,"In","EFDGCHBIAJ","A (JV first)","study_1 (JV and feedback_list_1)",NA,"In","SS1","SS1",20,"V","Valence","sn1sjn",1,"continue","",3684.07099998806,3680.67699999997,3684.07099998806,3684.07099998806,3680.67699999997,3684.07099998806,1,3684.07099998806,0,0,NA,"Click To Continue","Continue Button",1,"object-25","V","CFD-AM-225-102-N.jpg",1,NA,NA,"SUPTM52921"
"142",1690971213855,"02/08/2023 10:13:33",1690974813855,1,"02/08/2023 12:13:33",139282,42,"task-5tah",NA,31000865,9196035,NA,"complete",NA,NA,"computer","Desktop or Laptop","Windows 10","Chrome 115.0.0.0","1920x1080","1920x969",NA,NA,NA,"JV Task P1 (Clone) (study_2)",22,"In","EFDGCHBIAJ","A (JV first)","study_1 (JV and feedback_list_1)",NA,"In","SS1","SS1",20,"V","Valence","sn1sjn",1,"response","36",3213.78499999997,3680.67699999997,3684.27099997614,3213.78499999997,3680.67699999997,3684.27099997614,1,3213.78499999997,470.485999976168,0,NA,"Slider","J",3,"object-27","V","CFD-AM-225-102-N.jpg",1,NA,NA,"SUPTM52921"
"143",1690971214840,"02/08/2023 10:13:34",1690974814840,1,"02/08/2023 12:13:34",139282,42,"task-5tah",NA,31000865,9196035,NA,"complete",NA,NA,"computer","Desktop or Laptop","Windows 10","Chrome 115.0.0.0","1920x1080","1920x969",NA,NA,NA,"JV Task P1 (Clone) (study_2)",22,"In","EFDGCHBIAJ","A (JV first)","study_1 (JV and feedback_list_1)",NA,"In","SS1","SS1",20,"V","Fixation","aydkg3",2,"continue","",988.320000000007,988.320000000007,988.320000000007,988.320000000007,988.320000000007,988.320000000007,1,988.320000000007,0,0,NA,"Fixation Timing","Fixation",1,"object-21","V","CFD-AM-225-102-N.jpg",1,NA,NA,"SUPTM52921"
"144",1690971218824,"02/08/2023 10:13:38",1690974818824,1,"02/08/2023 12:13:38",139282,42,"task-5tah",NA,31000865,9196035,NA,"complete",NA,NA,"computer","Desktop or Laptop","Windows 10","Chrome 115.0.0.0","1920x1080","1920x969",NA,NA,NA,"JV Task P1 (Clone) (study_2)",22,"In","EFDGCHBIAJ","A (JV first)","study_1 (JV and feedback_list_1)",NA,"In","SS1","SS1",21,"V","Valence","sn1sjn",1,"continue","",3983.83900000004,3977.79000000004,3983.83900000004,3983.83900000004,3977.79000000004,3983.83900000004,1,3983.83900000004,0,0,NA,"Click To Continue","Continue Button",1,"object-25","V","CFD-WM-025-002-S.jpeg",1,NA,NA,"SUPTM52921"
"145",1690971218825,"02/08/2023 10:13:38",1690974818825,1,"02/08/2023 12:13:38",139282,42,"task-5tah",NA,31000865,9196035,NA,"complete",NA,NA,"computer","Desktop or Laptop","Windows 10","Chrome 115.0.0.0","1920x1080","1920x969",NA,NA,NA,"JV Task P1 (Clone) (study_2)",22,"In","EFDGCHBIAJ","A (JV first)","study_1 (JV and feedback_list_1)",NA,"In","SS1","SS1",21,"V","Valence","sn1sjn",1,"response","50",3353.21600000001,3977.79000000004,3983.83900000004,3353.21600000001,3977.79000000004,3983.83900000004,1,3353.21600000001,630.623000000021,0,NA,"Slider","J",3,"object-27","V","CFD-WM-025-002-S.jpeg",1,NA,NA,"SUPTM52921"
"146",1690971219800,"02/08/2023 10:13:39",1690974819800,1,"02/08/2023 12:13:39",139282,42,"task-5tah",NA,31000865,9196035,NA,"complete",NA,NA,"computer","Desktop or Laptop","Windows 10","Chrome 115.0.0.0","1920x1080","1920x969",NA,NA,NA,"JV Task P1 (Clone) (study_2)",22,"In","EFDGCHBIAJ","A (JV first)","study_1 (JV and feedback_list_1)",NA,"In","SS1","SS1",21,"V","Fixation","aydkg3",2,"continue","",982.422999999952,982.422999999952,982.422999999952,982.422999999952,982.422999999952,982.422999999952,1,982.422999999952,0,0,NA,"Fixation Timing","Fixation",1,"object-21","V","CFD-WM-025-002-S.jpeg",1,NA,NA,"SUPTM52921"
"147",1690971222529,"02/08/2023 10:13:42",1690974822529,1,"02/08/2023 12:13:42",139282,42,"task-5tah",NA,31000865,9196035,NA,"complete",NA,NA,"computer","Desktop or Laptop","Windows 10","Chrome 115.0.0.0","1920x1080","1920x969",NA,NA,NA,"JV Task P1 (Clone) (study_2)",22,"In","EFDGCHBIAJ","A (JV first)","study_1 (JV and feedback_list_1)",NA,"In","SS1","SS1",22,"V","Valence","sn1sjn",1,"continue","",2728.78700000007,2722.69100000005,2728.78700000007,2728.78700000007,2722.69100000005,2728.78700000007,1,2728.78700000007,0,0,NA,"Click To Continue","Continue Button",1,"object-25","V","CFD-WM-024-015-N.jpg",1,NA,NA,"SUPTM52921"
"148",1690971222530,"02/08/2023 10:13:42",1690974822530,1,"02/08/2023 12:13:42",139282,42,"task-5tah",NA,31000865,9196035,NA,"complete",NA,NA,"computer","Desktop or Laptop","Windows 10","Chrome 115.0.0.0","1920x1080","1920x969",NA,NA,NA,"JV Task P1 (Clone) (study_2)",22,"In","EFDGCHBIAJ","A (JV first)","study_1 (JV and feedback_list_1)",NA,"In","SS1","SS1",22,"V","Valence","sn1sjn",1,"response","69",1988.87200000003,2722.69100000005,2728.78700000007,1988.87200000003,2722.69100000005,2728.78700000007,1,1988.87200000003,739.915000000037,0,NA,"Slider","J",3,"object-27","V","CFD-WM-024-015-N.jpg",1,NA,NA,"SUPTM52921"
"149",1690971223512,"02/08/2023 10:13:43",1690974823512,1,"02/08/2023 12:13:43",139282,42,"task-5tah",NA,31000865,9196035,NA,"complete",NA,NA,"computer","Desktop or Laptop","Windows 10","Chrome 115.0.0.0","1920x1080","1920x969",NA,NA,NA,"JV Task P1 (Clone) (study_2)",22,"In","EFDGCHBIAJ","A (JV first)","study_1 (JV and feedback_list_1)",NA,"In","SS1","SS1",22,"V","Fixation","aydkg3",2,"continue","",988.225999999966,988.225999999966,988.225999999966,988.225999999966,988.225999999966,988.225999999966,1,988.225999999966,0,0,NA,"Fixation Timing","Fixation",1,"object-21","V","CFD-WM-024-015-N.jpg",1,NA,NA,"SUPTM52921"
"150",1690971226855,"02/08/2023 10:13:46",1690974826855,1,"02/08/2023 12:13:46",139282,42,"task-5tah",NA,31000865,9196035,NA,"complete",NA,NA,"computer","Desktop or Laptop","Windows 10","Chrome 115.0.0.0","1920x1080","1920x969",NA,NA,NA,"JV Task P1 (Clone) (study_2)",22,"In","EFDGCHBIAJ","A (JV first)","study_1 (JV and feedback_list_1)",NA,"In","SS1","SS1",27,"J","Judginess","w2ir4b",1,"continue","",3343.54399995232,3341.15500000003,3343.54399995232,3343.54399995232,3341.15500000003,3343.54399995232,1,3343.54399995232,0,0,NA,"Click To Continue","Continue Button",1,"object-14","J","CFD-WF-022-017-H.jpeg",1,NA,NA,"SUPTM52921"
"151",1690971226855,"02/08/2023 10:13:46",1690974826855,1,"02/08/2023 12:13:46",139282,42,"task-5tah",NA,31000865,9196035,NA,"complete",NA,NA,"computer","Desktop or Laptop","Windows 10","Chrome 115.0.0.0","1920x1080","1920x969",NA,NA,NA,"JV Task P1 (Clone) (study_2)",22,"In","EFDGCHBIAJ","A (JV first)","study_1 (JV and feedback_list_1)",NA,"In","SS1","SS1",27,"J","Judginess","w2ir4b",1,"response","60",2874.15899999999,3341.15500000003,3343.84399996424,2874.15899999999,3341.15500000003,3343.84399996424,1,2874.15899999999,469.684999964258,0,NA,"Slider","J",3,"object-18","J","CFD-WF-022-017-H.jpeg",1,NA,NA,"SUPTM52921"
"152",1690971227841,"02/08/2023 10:13:47",1690974827841,1,"02/08/2023 12:13:47",139282,42,"task-5tah",NA,31000865,9196035,NA,"complete",NA,NA,"computer","Desktop or Laptop","Windows 10","Chrome 115.0.0.0","1920x1080","1920x969",NA,NA,NA,"JV Task P1 (Clone) (study_2)",22,"In","EFDGCHBIAJ","A (JV first)","study_1 (JV and feedback_list_1)",NA,"In","SS1","SS1",27,"J","Fixation","mtm832",2,"continue","",988.378999999957,988.378999999957,988.378999999957,988.378999999957,988.378999999957,988.378999999957,1,988.378999999957,0,0,NA,"Fixation Timing","Fixation",1,"object-65","J","CFD-WF-022-017-H.jpeg",1,NA,NA,"SUPTM52921"
"153",1690971231555,"02/08/2023 10:13:51",1690974831555,1,"02/08/2023 12:13:51",139282,42,"task-5tah",NA,31000865,9196035,NA,"complete",NA,NA,"computer","Desktop or Laptop","Windows 10","Chrome 115.0.0.0","1920x1080","1920x969",NA,NA,NA,"JV Task P1 (Clone) (study_2)",22,"In","EFDGCHBIAJ","A (JV first)","study_1 (JV and feedback_list_1)",NA,"In","SS1","SS1",28,"J","Judginess","w2ir4b",1,"continue","",3714.21000000002,3710.94700000004,3714.21000000002,3714.21000000002,3710.94700000004,3714.21000000002,1,3714.21000000002,0,0,NA,"Click To Continue","Continue Button",1,"object-14","J","CFD-WF-015-006-S.jpeg",1,NA,NA,"SUPTM52921"
"154",1690971231557,"02/08/2023 10:13:51",1690974831557,1,"02/08/2023 12:13:51",139282,42,"task-5tah",NA,31000865,9196035,NA,"complete",NA,NA,"computer","Desktop or Laptop","Windows 10","Chrome 115.0.0.0","1920x1080","1920x969",NA,NA,NA,"JV Task P1 (Clone) (study_2)",22,"In","EFDGCHBIAJ","A (JV first)","study_1 (JV and feedback_list_1)",NA,"In","SS1","SS1",28,"J","Judginess","w2ir4b",1,"response","16",2989.43800000002,3710.94700000004,3716.60999997618,2989.43800000002,3710.94700000004,3716.60999997618,1,2989.43800000002,727.171999976155,0,NA,"Slider","J",3,"object-18","J","CFD-WF-015-006-S.jpeg",1,NA,NA,"SUPTM52921"
"155",1690971232535,"02/08/2023 10:13:52",1690974832535,1,"02/08/2023 12:13:52",139282,42,"task-5tah",NA,31000865,9196035,NA,"complete",NA,NA,"computer","Desktop or Laptop","Windows 10","Chrome 115.0.0.0","1920x1080","1920x969",NA,NA,NA,"JV Task P1 (Clone) (study_2)",22,"In","EFDGCHBIAJ","A (JV first)","study_1 (JV and feedback_list_1)",NA,"In","SS1","SS1",28,"J","Fixation","mtm832",2,"continue","",982.378999999957,982.378999999957,982.378999999957,982.378999999957,982.378999999957,982.378999999957,1,982.378999999957,0,0,NA,"Fixation Timing","Fixation",1,"object-65","J","CFD-WF-015-006-S.jpeg",1,NA,NA,"SUPTM52921"
"156",1690971238210,"02/08/2023 10:13:58",1690974838210,1,"02/08/2023 12:13:58",139282,42,"task-5tah",NA,31000865,9196035,NA,"complete",NA,NA,"computer","Desktop or Laptop","Windows 10","Chrome 115.0.0.0","1920x1080","1920x969",NA,NA,NA,"JV Task P1 (Clone) (study_2)",22,"In","EFDGCHBIAJ","A (JV first)","study_1 (JV and feedback_list_1)",NA,"In","SS1","SS1",23,"V","Valence","sn1sjn",1,"continue","",5675.18399995234,5669.679,5675.18399995234,5675.18399995234,5669.679,5675.18399995234,1,5675.18399995234,0,0,NA,"Click To Continue","Continue Button",1,"object-25","V","CFD-BF-040-003-H.jpeg",1,NA,NA,"SUPTM52921"
"157",1690971238210,"02/08/2023 10:13:58",1690974838210,1,"02/08/2023 12:13:58",139282,42,"task-5tah",NA,31000865,9196035,NA,"complete",NA,NA,"computer","Desktop or Laptop","Windows 10","Chrome 115.0.0.0","1920x1080","1920x969",NA,NA,NA,"JV Task P1 (Clone) (study_2)",22,"In","EFDGCHBIAJ","A (JV first)","study_1 (JV and feedback_list_1)",NA,"In","SS1","SS1",23,"V","Valence","sn1sjn",1,"response","36",5202.55800000002,5669.679,5675.38400000002,5202.55800000002,5669.679,5675.38400000002,1,5202.55800000002,472.826000000001,0,NA,"Slider","J",3,"object-27","V","CFD-BF-040-003-H.jpeg",1,NA,NA,"SUPTM52921"
"158",1690971239186,"02/08/2023 10:13:59",1690974839186,1,"02/08/2023 12:13:59",139282,42,"task-5tah",NA,31000865,9196035,NA,"complete",NA,NA,"computer","Desktop or Laptop","Windows 10","Chrome 115.0.0.0","1920x1080","1920x969",NA,NA,NA,"JV Task P1 (Clone) (study_2)",22,"In","EFDGCHBIAJ","A (JV first)","study_1 (JV and feedback_list_1)",NA,"In","SS1","SS1",23,"V","Fixation","aydkg3",2,"continue","",982.130000000005,982.130000000005,982.130000000005,982.130000000005,982.130000000005,982.130000000005,1,982.130000000005,0,0,NA,"Fixation Timing","Fixation",1,"object-21","V","CFD-BF-040-003-H.jpeg",1,NA,NA,"SUPTM52921"
"159",1690971243201,"02/08/2023 10:14:03",1690974843201,1,"02/08/2023 12:14:03",139282,42,"task-5tah",NA,31000865,9196035,NA,"complete",NA,NA,"computer","Desktop or Laptop","Windows 10","Chrome 115.0.0.0","1920x1080","1920x969",NA,NA,NA,"JV Task P1 (Clone) (study_2)",22,"In","EFDGCHBIAJ","A (JV first)","study_1 (JV and feedback_list_1)",NA,"In","SS1","SS1",24,"V","Valence","sn1sjn",1,"continue","",4015.07500000001,4014.20900000003,4015.07500000001,4015.07500000001,4014.20900000003,4015.07500000001,1,4015.07500000001,0,0,NA,"Click To Continue","Continue Button",1,"object-25","V","CFD-WF-037-029-N.jpg",1,NA,NA,"SUPTM52921"
"160",1690971243204,"02/08/2023 10:14:03",1690974843204,1,"02/08/2023 12:14:03",139282,42,"task-5tah",NA,31000865,9196035,NA,"complete",NA,NA,"computer","Desktop or Laptop","Windows 10","Chrome 115.0.0.0","1920x1080","1920x969",NA,NA,NA,"JV Task P1 (Clone) (study_2)",22,"In","EFDGCHBIAJ","A (JV first)","study_1 (JV and feedback_list_1)",NA,"In","SS1","SS1",24,"V","Valence","sn1sjn",1,"response","40",3177.41700000002,4014.20900000003,4017.67499996425,3177.41700000002,4014.20900000003,4017.67499996425,1,3177.41700000002,840.257999964233,0,NA,"Slider","J",3,"object-27","V","CFD-WF-037-029-N.jpg",1,NA,NA,"SUPTM52921"
"161",1690971244189,"02/08/2023 10:14:04",1690974844189,1,"02/08/2023 12:14:04",139282,42,"task-5tah",NA,31000865,9196035,NA,"complete",NA,NA,"computer","Desktop or Laptop","Windows 10","Chrome 115.0.0.0","1920x1080","1920x969",NA,NA,NA,"JV Task P1 (Clone) (study_2)",22,"In","EFDGCHBIAJ","A (JV first)","study_1 (JV and feedback_list_1)",NA,"In","SS1","SS1",24,"V","Fixation","aydkg3",2,"continue","",988.402000000002,988.402000000002,988.402000000002,988.402000000002,988.402000000002,988.402000000002,1,988.402000000002,0,0,NA,"Fixation Timing","Fixation",1,"object-21","V","CFD-WF-037-029-N.jpg",1,NA,NA,"SUPTM52921"
