"Event.Index","UTC.Timestamp","UTC.Date.and.Time","Local.Timestamp","Local.Timezone","Local.Date.and.Time","Experiment.ID","Experiment.Version","Tree.Node.Key","Repeat.Key","Schedule.ID","Participant.Private.ID","Participant.Starting.Group","Participant.Status","Participant.Completion.Code","Participant.External.Session.ID","Participant.Device.Type","Participant.Device","Participant.OS","Participant.Browser","Participant.Monitor.Size","Participant.Viewport.Size","Checkpoint","Room.ID","Room.Order","Task.Name","Task.Version","order.ot79","branch.g31k","branch.5gtn","Spreadsheet","Trial.Number","Display","Screen","Screen.ID","Screen.Counter","Response.Type","Response","Onset.Time","Clock.Time","Reaction.Time","Absolute.Onset.Time","Absolute.Clock.Time","Absolute.Reaction.Time","Correct","Response.Onset","Response.Duration","Proportion","Tag","Component.Name","Object.Name","Object.Number","Object.ID","Spreadsheet..display","Manipulation..Spreadsheet","Random_ID"
"1",1699291430450,"06/11/2023 17:23:50",1699291430450,0,"06/11/2023 17:23:50",150440,6,"task-gclj",NA,32747825,9689456,NA,"complete",NA,"65491d352516b994de3f9e6b","computer","Desktop or Laptop","Mac OS 10.15.7","Chrome 118.0.0.0","1440x900","1440x783",NA,NA,0,"Task Introduction and Instructions (removed audio and video)",6,"ABJCIDHEGF","Passed AC2","","Spreadsheet1",NA,"","","",NA,"5","BEGIN",NA,NA,NA,NA,NA,NA,0,NA,NA,NA,NA,"","",NA,"","",NA,"SUPPRF31306"
"2",1699291434922,"06/11/2023 17:23:54",1699291434922,0,"06/11/2023 17:23:54",150440,6,"task-gclj",NA,32747825,9689456,NA,"complete",NA,"65491d352516b994de3f9e6b","computer","Desktop or Laptop","Mac OS 10.15.7","Chrome 118.0.0.0","1440x900","1440x783",NA,NA,0,"Task Introduction and Instructions (removed audio and video)",6,"ABJCIDHEGF","Passed AC2","","Spreadsheet1",1,"Task Instructions","Screen 1","anr7sn",1,"continue","",4211.07499998212,4206.952,4211.07499998212,4211.07499998212,4206.952,4211.07499998212,1,4211.07499998212,0,0,NA,"Click To Continue","Continue Button",2,"object-1944","Task Instructions",NA,"SUPPRF31306"
"3",1699291441909,"06/11/2023 17:24:01",1699291441909,0,"06/11/2023 17:24:01",150440,6,"task-gclj",NA,32747825,9689456,NA,"complete",NA,"65491d352516b994de3f9e6b","computer","Desktop or Laptop","Mac OS 10.15.7","Chrome 118.0.0.0","1440x900","1440x783",NA,NA,0,"Task Introduction and Instructions (removed audio and video)",6,"ABJCIDHEGF","Passed AC2","","Spreadsheet1",1,"Task Instructions","Screen 2","ce2tc8",2,"continue","",6991.52299998808,6983.054,6991.52299998808,6991.52299998808,6983.054,6991.52299998808,1,6991.52299998808,0,0,NA,"Click To Continue","Continue Button",2,"object-7","Task Instructions",NA,"SUPPRF31306"
"4",1699291446378,"06/11/2023 17:24:06",1699291446378,0,"06/11/2023 17:24:06",150440,6,"task-gclj",NA,32747825,9689456,NA,"complete",NA,"65491d352516b994de3f9e6b","computer","Desktop or Laptop","Mac OS 10.15.7","Chrome 118.0.0.0","1440x900","1440x783",NA,NA,0,"Task Introduction and Instructions (removed audio and video)",6,"ABJCIDHEGF","Passed AC2","","Spreadsheet1",1,"Task Instructions","Screen 3","1qtc8v",3,"continue","",4477.56899998212,4468.403,4477.56899998212,4477.56899998212,4468.403,4477.56899998212,1,4477.56899998212,0,0,NA,"Click To Continue","Continue Button",2,"object-52","Task Instructions",NA,"SUPPRF31306"
"5",1699291451707,"06/11/2023 17:24:11",1699291451707,0,"06/11/2023 17:24:11",150440,6,"task-gclj",NA,32747825,9689456,NA,"complete",NA,"65491d352516b994de3f9e6b","computer","Desktop or Laptop","Mac OS 10.15.7","Chrome 118.0.0.0","1440x900","1440x783",NA,NA,0,"Task Introduction and Instructions (removed audio and video)",6,"ABJCIDHEGF","Passed AC2","","Spreadsheet1",1,"Task Instructions","Screen 4","spepx9",4,"continue","",5338.06599998808,5333.12,5338.06599998808,5338.06599998808,5333.12,5338.06599998808,1,5338.06599998808,0,0,NA,"Click To Continue","Continue Button",2,"object-9","Task Instructions",NA,"SUPPRF31306"
"6",1699291455849,"06/11/2023 17:24:15",1699291455849,0,"06/11/2023 17:24:15",150440,6,"task-gclj",NA,32747825,9689456,NA,"complete",NA,"65491d352516b994de3f9e6b","computer","Desktop or Laptop","Mac OS 10.15.7","Chrome 118.0.0.0","1440x900","1440x783",NA,NA,0,"Task Introduction and Instructions (removed audio and video)",6,"ABJCIDHEGF","Passed AC2","","Spreadsheet1",1,"Task Instructions","Screen 5","8nvnao",5,"continue","",4146.54599998212,4137.002,4146.54599998212,4146.54599998212,4137.002,4146.54599998212,1,4146.54599998212,0,0,NA,"Click To Continue","Continue Button",2,"object-44","Task Instructions",NA,"SUPPRF31306"
"7",1699291455861,"06/11/2023 17:24:15",1699291455861,0,"06/11/2023 17:24:15",150440,6,"task-gclj",NA,32747825,9689456,NA,"complete",NA,"65491d352516b994de3f9e6b","computer","Desktop or Laptop","Mac OS 10.15.7","Chrome 118.0.0.0","1440x900","1440x783",NA,NA,0,"Task Introduction and Instructions (removed audio and video)",6,"ABJCIDHEGF","Passed AC2","","Spreadsheet1",NA,"","","",NA,"5","END",NA,NA,NA,NA,NA,NA,0,NA,NA,NA,NA,"","",NA,"","",NA,"SUPPRF31306"
"1",1699292337420,"06/11/2023 17:38:57",1699292337420,0,"06/11/2023 17:38:57",150440,6,"task-gclj",NA,32748580,9689563,NA,"complete",NA,"65491fe7bf070a5a4f1860e2","computer","Desktop or Laptop","Windows 10","Chrome 118.0.0.0","1280x720","1280x642",NA,NA,0,"Task Introduction and Instructions (removed audio and video)",6,"BCADJEIFHG","Passed AC2","","Spreadsheet1",NA,"","","",NA,"5","BEGIN",NA,NA,NA,NA,NA,NA,0,NA,NA,NA,NA,"","",NA,"","",NA,"SUPPRF86350"
"2",1699292340781,"06/11/2023 17:39:00",1699292340781,0,"06/11/2023 17:39:00",150440,6,"task-gclj",NA,32748580,9689563,NA,"complete",NA,"65491fe7bf070a5a4f1860e2","computer","Desktop or Laptop","Windows 10","Chrome 118.0.0.0","1280x720","1280x642",NA,NA,0,"Task Introduction and Instructions (removed audio and video)",6,"BCADJEIFHG","Passed AC2","","Spreadsheet1",1,"Task Instructions","Screen 1","anr7sn",1,"continue","",3198.125,3181.476,3198.125,3198.125,3181.476,3198.125,1,3198.125,0,0,NA,"Click To Continue","Continue Button",2,"object-1944","Task Instructions",NA,"SUPPRF86350"
"3",1699292351220,"06/11/2023 17:39:11",1699292351220,0,"06/11/2023 17:39:11",150440,6,"task-gclj",NA,32748580,9689563,NA,"complete",NA,"65491fe7bf070a5a4f1860e2","computer","Desktop or Laptop","Windows 10","Chrome 118.0.0.0","1280x720","1280x642",NA,NA,0,"Task Introduction and Instructions (removed audio and video)",6,"BCADJEIFHG","Passed AC2","","Spreadsheet1",1,"Task Instructions","Screen 2","ce2tc8",2,"continue","",10456.8589999881,10444.568,10456.8589999881,10456.8589999881,10444.568,10456.8589999881,1,10456.8589999881,0,0,NA,"Click To Continue","Continue Button",2,"object-7","Task Instructions",NA,"SUPPRF86350"
"4",1699292354722,"06/11/2023 17:39:14",1699292354722,0,"06/11/2023 17:39:14",150440,6,"task-gclj",NA,32748580,9689563,NA,"complete",NA,"65491fe7bf070a5a4f1860e2","computer","Desktop or Laptop","Windows 10","Chrome 118.0.0.0","1280x720","1280x642",NA,NA,0,"Task Introduction and Instructions (removed audio and video)",6,"BCADJEIFHG","Passed AC2","","Spreadsheet1",1,"Task Instructions","Screen 3","1qtc8v",3,"continue","",3514.681,3497.896,3514.681,3514.681,3497.896,3514.681,1,3514.681,0,0,NA,"Click To Continue","Continue Button",2,"object-52","Task Instructions",NA,"SUPPRF86350"
"5",1699292357600,"06/11/2023 17:39:17",1699292357600,0,"06/11/2023 17:39:17",150440,6,"task-gclj",NA,32748580,9689563,NA,"complete",NA,"65491fe7bf070a5a4f1860e2","computer","Desktop or Laptop","Windows 10","Chrome 118.0.0.0","1280x720","1280x642",NA,NA,0,"Task Introduction and Instructions (removed audio and video)",6,"BCADJEIFHG","Passed AC2","","Spreadsheet1",1,"Task Instructions","Screen 4","spepx9",4,"continue","",2894.59499997616,2881.705,2894.59499997616,2894.59499997616,2881.705,2894.59499997616,1,2894.59499997616,0,0,NA,"Click To Continue","Continue Button",2,"object-9","Task Instructions",NA,"SUPPRF86350"
"6",1699292360831,"06/11/2023 17:39:20",1699292360831,0,"06/11/2023 17:39:20",150440,6,"task-gclj",NA,32748580,9689563,NA,"complete",NA,"65491fe7bf070a5a4f1860e2","computer","Desktop or Laptop","Windows 10","Chrome 118.0.0.0","1280x720","1280x642",NA,NA,0,"Task Introduction and Instructions (removed audio and video)",6,"BCADJEIFHG","Passed AC2","","Spreadsheet1",1,"Task Instructions","Screen 5","8nvnao",5,"continue","",3243.79000001192,3231.515,3243.79000001192,3243.79000001192,3231.515,3243.79000001192,1,3243.79000001192,0,0,NA,"Click To Continue","Continue Button",2,"object-44","Task Instructions",NA,"SUPPRF86350"
"7",1699292360836,"06/11/2023 17:39:20",1699292360836,0,"06/11/2023 17:39:20",150440,6,"task-gclj",NA,32748580,9689563,NA,"complete",NA,"65491fe7bf070a5a4f1860e2","computer","Desktop or Laptop","Windows 10","Chrome 118.0.0.0","1280x720","1280x642",NA,NA,0,"Task Introduction and Instructions (removed audio and video)",6,"BCADJEIFHG","Passed AC2","","Spreadsheet1",NA,"","","",NA,"5","END",NA,NA,NA,NA,NA,NA,0,NA,NA,NA,NA,"","",NA,"","",NA,"SUPPRF86350"
"1",1699292253797,"06/11/2023 17:37:33",1699292253797,0,"06/11/2023 17:37:33",150440,6,"task-gclj",NA,32748530,9689627,NA,"complete",NA,"654920b672f8f0b8d9219fd2","computer","Desktop or Laptop","Windows 10","Edge 119.0.0.0","1440x960","1392x834",NA,NA,0,"Task Introduction and Instructions (removed audio and video)",6,"CDBEAFJGIH","Passed AC2","","Spreadsheet1",NA,"","","",NA,"5","BEGIN",NA,NA,NA,NA,NA,NA,0,NA,NA,NA,NA,"","",NA,"","",NA,"SUPPRF93485"
"2",1699292256950,"06/11/2023 17:37:36",1699292256950,0,"06/11/2023 17:37:36",150440,6,"task-gclj",NA,32748530,9689627,NA,"complete",NA,"654920b672f8f0b8d9219fd2","computer","Desktop or Laptop","Windows 10","Edge 119.0.0.0","1440x960","1392x834",NA,NA,0,"Task Introduction and Instructions (removed audio and video)",6,"CDBEAFJGIH","Passed AC2","","Spreadsheet1",1,"Task Instructions","Screen 1","anr7sn",1,"continue","",2960.57499990463,2952.232,2960.57499990463,2960.57499990463,2952.232,2960.57499990463,1,2960.57499990463,0,0,NA,"Click To Continue","Continue Button",2,"object-1944","Task Instructions",NA,"SUPPRF93485"
"3",1699292261516,"06/11/2023 17:37:41",1699292261516,0,"06/11/2023 17:37:41",150440,6,"task-gclj",NA,32748530,9689627,NA,"complete",NA,"654920b672f8f0b8d9219fd2","computer","Desktop or Laptop","Windows 10","Edge 119.0.0.0","1440x960","1392x834",NA,NA,0,"Task Introduction and Instructions (removed audio and video)",6,"CDBEAFJGIH","Passed AC2","","Spreadsheet1",1,"Task Instructions","Screen 2","ce2tc8",2,"continue","",4574.64299985695,4570.205,4574.64299985695,4574.64299985695,4570.205,4574.64299985695,1,4574.64299985695,0,0,NA,"Click To Continue","Continue Button",2,"object-7","Task Instructions",NA,"SUPPRF93485"
"4",1699292264745,"06/11/2023 17:37:44",1699292264745,0,"06/11/2023 17:37:44",150440,6,"task-gclj",NA,32748530,9689627,NA,"complete",NA,"654920b672f8f0b8d9219fd2","computer","Desktop or Laptop","Windows 10","Edge 119.0.0.0","1440x960","1392x834",NA,NA,0,"Task Introduction and Instructions (removed audio and video)",6,"CDBEAFJGIH","Passed AC2","","Spreadsheet1",1,"Task Instructions","Screen 3","1qtc8v",3,"continue","",3233.038,3218.906,3233.038,3233.038,3218.906,3233.038,1,3233.038,0,0,NA,"Click To Continue","Continue Button",2,"object-52","Task Instructions",NA,"SUPPRF93485"
"5",1699292268081,"06/11/2023 17:37:48",1699292268081,0,"06/11/2023 17:37:48",150440,6,"task-gclj",NA,32748530,9689627,NA,"complete",NA,"654920b672f8f0b8d9219fd2","computer","Desktop or Laptop","Windows 10","Edge 119.0.0.0","1440x960","1392x834",NA,NA,0,"Task Introduction and Instructions (removed audio and video)",6,"CDBEAFJGIH","Passed AC2","","Spreadsheet1",1,"Task Instructions","Screen 4","spepx9",4,"continue","",3349.73199990463,3335.839,3349.73199990463,3349.73199990463,3335.839,3349.73199990463,1,3349.73199990463,0,0,NA,"Click To Continue","Continue Button",2,"object-9","Task Instructions",NA,"SUPPRF93485"
"6",1699292271135,"06/11/2023 17:37:51",1699292271135,0,"06/11/2023 17:37:51",150440,6,"task-gclj",NA,32748530,9689627,NA,"complete",NA,"654920b672f8f0b8d9219fd2","computer","Desktop or Laptop","Windows 10","Edge 119.0.0.0","1440x960","1392x834",NA,NA,0,"Task Introduction and Instructions (removed audio and video)",6,"CDBEAFJGIH","Passed AC2","","Spreadsheet1",1,"Task Instructions","Screen 5","8nvnao",5,"continue","",3068.09299995232,3052.401,3068.09299995232,3068.09299995232,3052.401,3068.09299995232,1,3068.09299995232,0,0,NA,"Click To Continue","Continue Button",2,"object-44","Task Instructions",NA,"SUPPRF93485"
"7",1699292271144,"06/11/2023 17:37:51",1699292271144,0,"06/11/2023 17:37:51",150440,6,"task-gclj",NA,32748530,9689627,NA,"complete",NA,"654920b672f8f0b8d9219fd2","computer","Desktop or Laptop","Windows 10","Edge 119.0.0.0","1440x960","1392x834",NA,NA,0,"Task Introduction and Instructions (removed audio and video)",6,"CDBEAFJGIH","Passed AC2","","Spreadsheet1",NA,"","","",NA,"5","END",NA,NA,NA,NA,NA,NA,0,NA,NA,NA,NA,"","",NA,"","",NA,"SUPPRF93485"
"1",1699292139692,"06/11/2023 17:35:39",1699292139692,0,"06/11/2023 17:35:39",150440,6,"task-gclj",NA,32748462,9689646,NA,"complete",NA,"654921342516b994de3f9f0e","tablet","Apple iPad","iOS 16.5","Chrome 116.0.5845.177","810x1080","810x965",NA,NA,0,"Task Introduction and Instructions (removed audio and video)",6,"EFDGCHBIAJ","Passed AC2","","Spreadsheet1",NA,"","","",NA,"5","BEGIN",NA,NA,NA,NA,NA,NA,0,NA,NA,NA,NA,"","",NA,"","",NA,"SUPPRF70813"
"2",1699292142881,"06/11/2023 17:35:42",1699292142881,0,"06/11/2023 17:35:42",150440,6,"task-gclj",NA,32748462,9689646,NA,"complete",NA,"654921342516b994de3f9f0e","tablet","Apple iPad","iOS 16.5","Chrome 116.0.5845.177","810x1080","810x965",NA,NA,0,"Task Introduction and Instructions (removed audio and video)",6,"EFDGCHBIAJ","Passed AC2","","Spreadsheet1",1,"Task Instructions","Screen 1","anr7sn",1,"continue","",3143,3126,3143,3143,3126,3143,1,3143,0,0,NA,"Click To Continue","Continue Button",2,"object-1944","Task Instructions",NA,"SUPPRF70813"
"3",1699292146710,"06/11/2023 17:35:46",1699292146710,0,"06/11/2023 17:35:46",150440,6,"task-gclj",NA,32748462,9689646,NA,"complete",NA,"654921342516b994de3f9f0e","tablet","Apple iPad","iOS 16.5","Chrome 116.0.5845.177","810x1080","810x965",NA,NA,0,"Task Introduction and Instructions (removed audio and video)",6,"EFDGCHBIAJ","Passed AC2","","Spreadsheet1",1,"Task Instructions","Screen 2","ce2tc8",2,"continue","",3856,3842,3856,3856,3842,3856,1,3856,0,0,NA,"Click To Continue","Continue Button",2,"object-7","Task Instructions",NA,"SUPPRF70813"
"4",1699292149809,"06/11/2023 17:35:49",1699292149809,0,"06/11/2023 17:35:49",150440,6,"task-gclj",NA,32748462,9689646,NA,"complete",NA,"654921342516b994de3f9f0e","tablet","Apple iPad","iOS 16.5","Chrome 116.0.5845.177","810x1080","810x965",NA,NA,0,"Task Introduction and Instructions (removed audio and video)",6,"EFDGCHBIAJ","Passed AC2","","Spreadsheet1",1,"Task Instructions","Screen 3","1qtc8v",3,"continue","",3106,3089,3106,3106,3089,3106,1,3106,0,0,NA,"Click To Continue","Continue Button",2,"object-52","Task Instructions",NA,"SUPPRF70813"
"5",1699292152808,"06/11/2023 17:35:52",1699292152808,0,"06/11/2023 17:35:52",150440,6,"task-gclj",NA,32748462,9689646,NA,"complete",NA,"654921342516b994de3f9f0e","tablet","Apple iPad","iOS 16.5","Chrome 116.0.5845.177","810x1080","810x965",NA,NA,0,"Task Introduction and Instructions (removed audio and video)",6,"EFDGCHBIAJ","Passed AC2","","Spreadsheet1",1,"Task Instructions","Screen 4","spepx9",4,"continue","",3016,2999,3016,3016,2999,3016,1,3016,0,0,NA,"Click To Continue","Continue Button",2,"object-9","Task Instructions",NA,"SUPPRF70813"
"6",1699292155458,"06/11/2023 17:35:55",1699292155458,0,"06/11/2023 17:35:55",150440,6,"task-gclj",NA,32748462,9689646,NA,"complete",NA,"654921342516b994de3f9f0e","tablet","Apple iPad","iOS 16.5","Chrome 116.0.5845.177","810x1080","810x965",NA,NA,0,"Task Introduction and Instructions (removed audio and video)",6,"EFDGCHBIAJ","Passed AC2","","Spreadsheet1",1,"Task Instructions","Screen 5","8nvnao",5,"continue","",2665,2649,2665,2665,2649,2665,1,2665,0,0,NA,"Click To Continue","Continue Button",2,"object-44","Task Instructions",NA,"SUPPRF70813"
"7",1699292155463,"06/11/2023 17:35:55",1699292155463,0,"06/11/2023 17:35:55",150440,6,"task-gclj",NA,32748462,9689646,NA,"complete",NA,"654921342516b994de3f9f0e","tablet","Apple iPad","iOS 16.5","Chrome 116.0.5845.177","810x1080","810x965",NA,NA,0,"Task Introduction and Instructions (removed audio and video)",6,"EFDGCHBIAJ","Passed AC2","","Spreadsheet1",NA,"","","",NA,"5","END",NA,NA,NA,NA,NA,NA,0,NA,NA,NA,NA,"","",NA,"","",NA,"SUPPRF70813"
"1",1699292088476,"06/11/2023 17:34:48",1699292088476,0,"06/11/2023 17:34:48",150440,6,"task-gclj",NA,32748419,9689654,NA,"complete",NA,"6549218ea2301d20c2c9e1ff","computer","Desktop or Laptop","Mac OS 10.15.7","Chrome 119.0.0.0","1440x900","1440x815",NA,NA,0,"Task Introduction and Instructions (removed audio and video)",6,"HIGJFAEBDC","Passed AC2","","Spreadsheet1",NA,"","","",NA,"5","BEGIN",NA,NA,NA,NA,NA,NA,0,NA,NA,NA,NA,"","",NA,"","",NA,"SUPPRF86378"
"2",1699292091724,"06/11/2023 17:34:51",1699292091724,0,"06/11/2023 17:34:51",150440,6,"task-gclj",NA,32748419,9689654,NA,"complete",NA,"6549218ea2301d20c2c9e1ff","computer","Desktop or Laptop","Mac OS 10.15.7","Chrome 119.0.0.0","1440x900","1440x815",NA,NA,0,"Task Introduction and Instructions (removed audio and video)",6,"HIGJFAEBDC","Passed AC2","","Spreadsheet1",1,"Task Instructions","Screen 1","anr7sn",1,"continue","",3210.41400002384,3200.29,3210.41400002384,3210.41400002384,3200.29,3210.41400002384,1,3210.41400002384,0,0,NA,"Click To Continue","Continue Button",2,"object-1944","Task Instructions",NA,"SUPPRF86378"
"3",1699292099636,"06/11/2023 17:34:59",1699292099636,0,"06/11/2023 17:34:59",150440,6,"task-gclj",NA,32748419,9689654,NA,"complete",NA,"6549218ea2301d20c2c9e1ff","computer","Desktop or Laptop","Mac OS 10.15.7","Chrome 119.0.0.0","1440x900","1440x815",NA,NA,0,"Task Introduction and Instructions (removed audio and video)",6,"HIGJFAEBDC","Passed AC2","","Spreadsheet1",1,"Task Instructions","Screen 2","ce2tc8",2,"continue","",7922.92400003576,7917.05,7922.92400003576,7922.92400003576,7917.05,7922.92400003576,1,7922.92400003576,0,0,NA,"Click To Continue","Continue Button",2,"object-7","Task Instructions",NA,"SUPPRF86378"
"4",1699292104047,"06/11/2023 17:35:04",1699292104047,0,"06/11/2023 17:35:04",150440,6,"task-gclj",NA,32748419,9689654,NA,"complete",NA,"6549218ea2301d20c2c9e1ff","computer","Desktop or Laptop","Mac OS 10.15.7","Chrome 119.0.0.0","1440x900","1440x815",NA,NA,0,"Task Introduction and Instructions (removed audio and video)",6,"HIGJFAEBDC","Passed AC2","","Spreadsheet1",1,"Task Instructions","Screen 3","1qtc8v",3,"continue","",4416.755,4400.088,4416.755,4416.755,4400.088,4416.755,1,4416.755,0,0,NA,"Click To Continue","Continue Button",2,"object-52","Task Instructions",NA,"SUPPRF86378"
"5",1699292112505,"06/11/2023 17:35:12",1699292112505,0,"06/11/2023 17:35:12",150440,6,"task-gclj",NA,32748419,9689654,NA,"complete",NA,"6549218ea2301d20c2c9e1ff","computer","Desktop or Laptop","Mac OS 10.15.7","Chrome 119.0.0.0","1440x900","1440x815",NA,NA,0,"Task Introduction and Instructions (removed audio and video)",6,"HIGJFAEBDC","Passed AC2","","Spreadsheet1",1,"Task Instructions","Screen 4","spepx9",4,"continue","",8475.28600003576,8467.062,8475.28600003576,8475.28600003576,8467.062,8475.28600003576,1,8475.28600003576,0,0,NA,"Click To Continue","Continue Button",2,"object-9","Task Instructions",NA,"SUPPRF86378"
"6",1699292115065,"06/11/2023 17:35:15",1699292115065,0,"06/11/2023 17:35:15",150440,6,"task-gclj",NA,32748419,9689654,NA,"complete",NA,"6549218ea2301d20c2c9e1ff","computer","Desktop or Laptop","Mac OS 10.15.7","Chrome 119.0.0.0","1440x900","1440x815",NA,NA,0,"Task Introduction and Instructions (removed audio and video)",6,"HIGJFAEBDC","Passed AC2","","Spreadsheet1",1,"Task Instructions","Screen 5","8nvnao",5,"continue","",2566.718,2550.051,2566.718,2566.718,2550.051,2566.718,1,2566.718,0,0,NA,"Click To Continue","Continue Button",2,"object-44","Task Instructions",NA,"SUPPRF86378"
"7",1699292115071,"06/11/2023 17:35:15",1699292115071,0,"06/11/2023 17:35:15",150440,6,"task-gclj",NA,32748419,9689654,NA,"complete",NA,"6549218ea2301d20c2c9e1ff","computer","Desktop or Laptop","Mac OS 10.15.7","Chrome 119.0.0.0","1440x900","1440x815",NA,NA,0,"Task Introduction and Instructions (removed audio and video)",6,"HIGJFAEBDC","Passed AC2","","Spreadsheet1",NA,"","","",NA,"5","END",NA,NA,NA,NA,NA,NA,0,NA,NA,NA,NA,"","",NA,"","",NA,"SUPPRF86378"
"1",1699292084896,"06/11/2023 17:34:44",1699292084896,0,"06/11/2023 17:34:44",150440,6,"task-gclj",NA,32748415,9689663,NA,"complete",NA,"654921b4e5e583cfb88fe018","computer","Desktop or Laptop","Windows 10","Chrome 119.0.0.0","1920x1080","1920x931",NA,NA,0,"Task Introduction and Instructions (removed audio and video)",6,"FGEHDICJBA","Passed AC2","","Spreadsheet1",NA,"","","",NA,"5","BEGIN",NA,NA,NA,NA,NA,NA,0,NA,NA,NA,NA,"","",NA,"","",NA,"SUPPRF66344"
"2",1699292087875,"06/11/2023 17:34:47",1699292087875,0,"06/11/2023 17:34:47",150440,6,"task-gclj",NA,32748415,9689663,NA,"complete",NA,"654921b4e5e583cfb88fe018","computer","Desktop or Laptop","Windows 10","Chrome 119.0.0.0","1920x1080","1920x931",NA,NA,0,"Task Introduction and Instructions (removed audio and video)",6,"FGEHDICJBA","Passed AC2","","Spreadsheet1",1,"Task Instructions","Screen 1","anr7sn",1,"continue","",2861.51399998212,2852.885,2861.51399998212,2861.51399998212,2852.885,2861.51399998212,1,2861.51399998212,0,0,NA,"Click To Continue","Continue Button",2,"object-1944","Task Instructions",NA,"SUPPRF66344"
"3",1699292098081,"06/11/2023 17:34:58",1699292098081,0,"06/11/2023 17:34:58",150440,6,"task-gclj",NA,32748415,9689663,NA,"complete",NA,"654921b4e5e583cfb88fe018","computer","Desktop or Laptop","Windows 10","Chrome 119.0.0.0","1920x1080","1920x931",NA,NA,0,"Task Introduction and Instructions (removed audio and video)",6,"FGEHDICJBA","Passed AC2","","Spreadsheet1",1,"Task Instructions","Screen 2","ce2tc8",2,"continue","",10214.6289999821,10210.197,10214.6289999821,10214.6289999821,10210.197,10214.6289999821,1,10214.6289999821,0,0,NA,"Click To Continue","Continue Button",2,"object-7","Task Instructions",NA,"SUPPRF66344"
"4",1699292101103,"06/11/2023 17:35:01",1699292101103,0,"06/11/2023 17:35:01",150440,6,"task-gclj",NA,32748415,9689663,NA,"complete",NA,"654921b4e5e583cfb88fe018","computer","Desktop or Laptop","Windows 10","Chrome 119.0.0.0","1920x1080","1920x931",NA,NA,0,"Task Introduction and Instructions (removed audio and video)",6,"FGEHDICJBA","Passed AC2","","Spreadsheet1",1,"Task Instructions","Screen 3","1qtc8v",3,"continue","",3026.43199998212,3019.696,3026.43199998212,3026.43199998212,3019.696,3026.43199998212,1,3026.43199998212,0,0,NA,"Click To Continue","Continue Button",2,"object-52","Task Instructions",NA,"SUPPRF66344"
"5",1699292105234,"06/11/2023 17:35:05",1699292105234,0,"06/11/2023 17:35:05",150440,6,"task-gclj",NA,32748415,9689663,NA,"complete",NA,"654921b4e5e583cfb88fe018","computer","Desktop or Laptop","Windows 10","Chrome 119.0.0.0","1920x1080","1920x931",NA,NA,0,"Task Introduction and Instructions (removed audio and video)",6,"FGEHDICJBA","Passed AC2","","Spreadsheet1",1,"Task Instructions","Screen 4","spepx9",4,"continue","",4138.436,4137.411,4138.436,4138.436,4137.411,4138.436,1,4138.436,0,0,NA,"Click To Continue","Continue Button",2,"object-9","Task Instructions",NA,"SUPPRF66344"
"6",1699292108330,"06/11/2023 17:35:08",1699292108330,0,"06/11/2023 17:35:08",150440,6,"task-gclj",NA,32748415,9689663,NA,"complete",NA,"654921b4e5e583cfb88fe018","computer","Desktop or Laptop","Windows 10","Chrome 119.0.0.0","1920x1080","1920x931",NA,NA,0,"Task Introduction and Instructions (removed audio and video)",6,"FGEHDICJBA","Passed AC2","","Spreadsheet1",1,"Task Instructions","Screen 5","8nvnao",5,"continue","",3097.32499998212,3086.466,3097.32499998212,3097.32499998212,3086.466,3097.32499998212,1,3097.32499998212,0,0,NA,"Click To Continue","Continue Button",2,"object-44","Task Instructions",NA,"SUPPRF66344"
"7",1699292108332,"06/11/2023 17:35:08",1699292108332,0,"06/11/2023 17:35:08",150440,6,"task-gclj",NA,32748415,9689663,NA,"complete",NA,"654921b4e5e583cfb88fe018","computer","Desktop or Laptop","Windows 10","Chrome 119.0.0.0","1920x1080","1920x931",NA,NA,0,"Task Introduction and Instructions (removed audio and video)",6,"FGEHDICJBA","Passed AC2","","Spreadsheet1",NA,"","","",NA,"5","END",NA,NA,NA,NA,NA,NA,0,NA,NA,NA,NA,"","",NA,"","",NA,"SUPPRF66344"
"1",1699292085964,"06/11/2023 17:34:45",1699292085964,0,"06/11/2023 17:34:45",150440,6,"task-gclj",NA,32748413,9689668,NA,"complete",NA,"65492106b22f0178f57b0066","computer","Desktop or Laptop","Mac OS 10.15.7","Chrome 118.0.0.0","1440x900","1440x732",NA,NA,0,"Task Introduction and Instructions (removed audio and video)",6,"GHFIEJDACB","Passed AC2","","Spreadsheet1",NA,"","","",NA,"5","BEGIN",NA,NA,NA,NA,NA,NA,0,NA,NA,NA,NA,"","",NA,"","",NA,"SUPPRF60832"
"2",1699292089465,"06/11/2023 17:34:49",1699292089465,0,"06/11/2023 17:34:49",150440,6,"task-gclj",NA,32748413,9689668,NA,"complete",NA,"65492106b22f0178f57b0066","computer","Desktop or Laptop","Mac OS 10.15.7","Chrome 118.0.0.0","1440x900","1440x732",NA,NA,0,"Task Introduction and Instructions (removed audio and video)",6,"GHFIEJDACB","Passed AC2","","Spreadsheet1",1,"Task Instructions","Screen 1","anr7sn",1,"continue","",3379.31799999702,3364.31,3379.31799999702,3379.31799999702,3364.31,3379.31799999702,1,3379.31799999702,0,0,NA,"Click To Continue","Continue Button",2,"object-1944","Task Instructions",NA,"SUPPRF60832"
"3",1699292095821,"06/11/2023 17:34:55",1699292095821,0,"06/11/2023 17:34:55",150440,6,"task-gclj",NA,32748413,9689668,NA,"complete",NA,"65492106b22f0178f57b0066","computer","Desktop or Laptop","Mac OS 10.15.7","Chrome 118.0.0.0","1440x900","1440x732",NA,NA,0,"Task Introduction and Instructions (removed audio and video)",6,"GHFIEJDACB","Passed AC2","","Spreadsheet1",1,"Task Instructions","Screen 2","ce2tc8",2,"continue","",6372.708,6362.586,6372.708,6372.708,6362.586,6372.708,1,6372.708,0,0,NA,"Click To Continue","Continue Button",2,"object-7","Task Instructions",NA,"SUPPRF60832"
"4",1699292098634,"06/11/2023 17:34:58",1699292098634,0,"06/11/2023 17:34:58",150440,6,"task-gclj",NA,32748413,9689668,NA,"complete",NA,"65492106b22f0178f57b0066","computer","Desktop or Laptop","Mac OS 10.15.7","Chrome 118.0.0.0","1440x900","1440x732",NA,NA,0,"Task Introduction and Instructions (removed audio and video)",6,"GHFIEJDACB","Passed AC2","","Spreadsheet1",1,"Task Instructions","Screen 3","1qtc8v",3,"continue","",2823.122,2814.695,2823.122,2823.122,2814.695,2823.122,1,2823.122,0,0,NA,"Click To Continue","Continue Button",2,"object-52","Task Instructions",NA,"SUPPRF60832"
"5",1699292101186,"06/11/2023 17:35:01",1699292101186,0,"06/11/2023 17:35:01",150440,6,"task-gclj",NA,32748413,9689668,NA,"complete",NA,"65492106b22f0178f57b0066","computer","Desktop or Laptop","Mac OS 10.15.7","Chrome 118.0.0.0","1440x900","1440x732",NA,NA,0,"Task Introduction and Instructions (removed audio and video)",6,"GHFIEJDACB","Passed AC2","","Spreadsheet1",1,"Task Instructions","Screen 4","spepx9",4,"continue","",2560.32700000596,2548.591,2560.32700000596,2560.32700000596,2548.591,2560.32700000596,1,2560.32700000596,0,0,NA,"Click To Continue","Continue Button",2,"object-9","Task Instructions",NA,"SUPPRF60832"
"6",1699292103577,"06/11/2023 17:35:03",1699292103577,0,"06/11/2023 17:35:03",150440,6,"task-gclj",NA,32748413,9689668,NA,"complete",NA,"65492106b22f0178f57b0066","computer","Desktop or Laptop","Mac OS 10.15.7","Chrome 118.0.0.0","1440x900","1440x732",NA,NA,0,"Task Introduction and Instructions (removed audio and video)",6,"GHFIEJDACB","Passed AC2","","Spreadsheet1",1,"Task Instructions","Screen 5","8nvnao",5,"continue","",2398.32,2381.665,2398.32,2398.32,2381.665,2398.32,1,2398.32,0,0,NA,"Click To Continue","Continue Button",2,"object-44","Task Instructions",NA,"SUPPRF60832"
"7",1699292103580,"06/11/2023 17:35:03",1699292103580,0,"06/11/2023 17:35:03",150440,6,"task-gclj",NA,32748413,9689668,NA,"complete",NA,"65492106b22f0178f57b0066","computer","Desktop or Laptop","Mac OS 10.15.7","Chrome 118.0.0.0","1440x900","1440x732",NA,NA,0,"Task Introduction and Instructions (removed audio and video)",6,"GHFIEJDACB","Passed AC2","","Spreadsheet1",NA,"","","",NA,"5","END",NA,NA,NA,NA,NA,NA,0,NA,NA,NA,NA,"","",NA,"","",NA,"SUPPRF60832"
"1",1699292244317,"06/11/2023 17:37:24",1699292244317,0,"06/11/2023 17:37:24",150440,6,"task-gclj",NA,32748524,9689703,NA,"complete",NA,"6549212338759131b91a7191","computer","Desktop or Laptop","Mac OS 10.14.6","Safari 14.1.2","1440x900","1440x837",NA,NA,0,"Task Introduction and Instructions (removed audio and video)",6,"JAIBHCGDFE","Passed AC2","","Spreadsheet1",NA,"","","",NA,"5","BEGIN",NA,NA,NA,NA,NA,NA,0,NA,NA,NA,NA,"","",NA,"","",NA,"SUPPRF79935"
"2",1699292272890,"06/11/2023 17:37:52",1699292272890,0,"06/11/2023 17:37:52",150440,6,"task-gclj",NA,32748524,9689703,NA,"complete",NA,"6549212338759131b91a7191","computer","Desktop or Laptop","Mac OS 10.14.6","Safari 14.1.2","1440x900","1440x837",NA,NA,0,"Task Introduction and Instructions (removed audio and video)",6,"JAIBHCGDFE","Passed AC2","","Spreadsheet1",1,"Task Instructions","Screen 1","anr7sn",1,"continue","",28330,28319,28330,28330,28319,28330,1,28330,0,0,NA,"Click To Continue","Continue Button",2,"object-1944","Task Instructions",NA,"SUPPRF79935"
"3",1699292289381,"06/11/2023 17:38:09",1699292289381,0,"06/11/2023 17:38:09",150440,6,"task-gclj",NA,32748524,9689703,NA,"complete",NA,"6549212338759131b91a7191","computer","Desktop or Laptop","Mac OS 10.14.6","Safari 14.1.2","1440x900","1440x837",NA,NA,0,"Task Introduction and Instructions (removed audio and video)",6,"JAIBHCGDFE","Passed AC2","","Spreadsheet1",1,"Task Instructions","Screen 2","ce2tc8",2,"continue","",16503,16501,16503,16503,16501,16503,1,16503,0,0,NA,"Click To Continue","Continue Button",2,"object-7","Task Instructions",NA,"SUPPRF79935"
"4",1699292292423,"06/11/2023 17:38:12",1699292292423,0,"06/11/2023 17:38:12",150440,6,"task-gclj",NA,32748524,9689703,NA,"complete",NA,"6549212338759131b91a7191","computer","Desktop or Laptop","Mac OS 10.14.6","Safari 14.1.2","1440x900","1440x837",NA,NA,0,"Task Introduction and Instructions (removed audio and video)",6,"JAIBHCGDFE","Passed AC2","","Spreadsheet1",1,"Task Instructions","Screen 3","1qtc8v",3,"continue","",3044,3034,3044,3044,3034,3044,1,3044,0,0,NA,"Click To Continue","Continue Button",2,"object-52","Task Instructions",NA,"SUPPRF79935"
"5",1699292295293,"06/11/2023 17:38:15",1699292295293,0,"06/11/2023 17:38:15",150440,6,"task-gclj",NA,32748524,9689703,NA,"complete",NA,"6549212338759131b91a7191","computer","Desktop or Laptop","Mac OS 10.14.6","Safari 14.1.2","1440x900","1440x837",NA,NA,0,"Task Introduction and Instructions (removed audio and video)",6,"JAIBHCGDFE","Passed AC2","","Spreadsheet1",1,"Task Instructions","Screen 4","spepx9",4,"continue","",2881,2867,2881,2881,2867,2881,1,2881,0,0,NA,"Click To Continue","Continue Button",2,"object-9","Task Instructions",NA,"SUPPRF79935"
"6",1699292298196,"06/11/2023 17:38:18",1699292298196,0,"06/11/2023 17:38:18",150440,6,"task-gclj",NA,32748524,9689703,NA,"complete",NA,"6549212338759131b91a7191","computer","Desktop or Laptop","Mac OS 10.14.6","Safari 14.1.2","1440x900","1440x837",NA,NA,0,"Task Introduction and Instructions (removed audio and video)",6,"JAIBHCGDFE","Passed AC2","","Spreadsheet1",1,"Task Instructions","Screen 5","8nvnao",5,"continue","",2916.00000000001,2900,2916.00000000001,2916.00000000001,2900,2916.00000000001,1,2916.00000000001,0,0,NA,"Click To Continue","Continue Button",2,"object-44","Task Instructions",NA,"SUPPRF79935"
"7",1699292298200,"06/11/2023 17:38:18",1699292298200,0,"06/11/2023 17:38:18",150440,6,"task-gclj",NA,32748524,9689703,NA,"complete",NA,"6549212338759131b91a7191","computer","Desktop or Laptop","Mac OS 10.14.6","Safari 14.1.2","1440x900","1440x837",NA,NA,0,"Task Introduction and Instructions (removed audio and video)",6,"JAIBHCGDFE","Passed AC2","","Spreadsheet1",NA,"","","",NA,"5","END",NA,NA,NA,NA,NA,NA,0,NA,NA,NA,NA,"","",NA,"","",NA,"SUPPRF79935"
"1",1699292671305,"06/11/2023 17:44:31",1699292671305,0,"06/11/2023 17:44:31",150440,6,"task-gclj",NA,32748803,9689725,NA,"complete",NA,"6549235a90dc221dcf738816","computer","Desktop or Laptop","Windows 10","Chrome 118.0.0.0","1920x1080","1922x1002",NA,NA,0,"Task Introduction and Instructions (removed audio and video)",6,"CDBEAFJGIH","Passed AC2","","Spreadsheet1",NA,"","","",NA,"5","BEGIN",NA,NA,NA,NA,NA,NA,0,NA,NA,NA,NA,"","",NA,"","",NA,"SUPPRF35697"
"2",1699292674700,"06/11/2023 17:44:34",1699292674700,0,"06/11/2023 17:44:34",150440,6,"task-gclj",NA,32748803,9689725,NA,"complete",NA,"6549235a90dc221dcf738816","computer","Desktop or Laptop","Windows 10","Chrome 118.0.0.0","1920x1080","1922x1002",NA,NA,0,"Task Introduction and Instructions (removed audio and video)",6,"CDBEAFJGIH","Passed AC2","","Spreadsheet1",1,"Task Instructions","Screen 1","anr7sn",1,"continue","",3305.0940002861,3300,3305.0940002861,3305.0940002861,3300,3305.0940002861,1,3305.0940002861,0,0,NA,"Click To Continue","Continue Button",2,"object-1944","Task Instructions",NA,"SUPPRF35697"
"3",1699292681999,"06/11/2023 17:44:41",1699292681999,0,"06/11/2023 17:44:41",150440,6,"task-gclj",NA,32748803,9689725,NA,"complete",NA,"6549235a90dc221dcf738816","computer","Desktop or Laptop","Windows 10","Chrome 118.0.0.0","1920x1080","1922x1002",NA,NA,0,"Task Introduction and Instructions (removed audio and video)",6,"CDBEAFJGIH","Passed AC2","","Spreadsheet1",1,"Task Instructions","Screen 2","ce2tc8",2,"continue","",7304.394,7300.053,7304.394,7304.394,7300.053,7304.394,1,7304.394,0,0,NA,"Click To Continue","Continue Button",2,"object-7","Task Instructions",NA,"SUPPRF35697"
"4",1699292686044,"06/11/2023 17:44:46",1699292686044,0,"06/11/2023 17:44:46",150440,6,"task-gclj",NA,32748803,9689725,NA,"complete",NA,"6549235a90dc221dcf738816","computer","Desktop or Laptop","Windows 10","Chrome 118.0.0.0","1920x1080","1922x1002",NA,NA,0,"Task Introduction and Instructions (removed audio and video)",6,"CDBEAFJGIH","Passed AC2","","Spreadsheet1",1,"Task Instructions","Screen 3","1qtc8v",3,"continue","",4049.24100009537,4033.227,4049.24100009537,4049.24100009537,4033.227,4049.24100009537,1,4049.24100009537,0,0,NA,"Click To Continue","Continue Button",2,"object-52","Task Instructions",NA,"SUPPRF35697"
"5",1699292688536,"06/11/2023 17:44:48",1699292688536,0,"06/11/2023 17:44:48",150440,6,"task-gclj",NA,32748803,9689725,NA,"complete",NA,"6549235a90dc221dcf738816","computer","Desktop or Laptop","Windows 10","Chrome 118.0.0.0","1920x1080","1922x1002",NA,NA,0,"Task Introduction and Instructions (removed audio and video)",6,"CDBEAFJGIH","Passed AC2","","Spreadsheet1",1,"Task Instructions","Screen 4","spepx9",4,"continue","",2508.114,2500.07,2508.114,2508.114,2500.07,2508.114,1,2508.114,0,0,NA,"Click To Continue","Continue Button",2,"object-9","Task Instructions",NA,"SUPPRF35697"
"6",1699292691241,"06/11/2023 17:44:51",1699292691241,0,"06/11/2023 17:44:51",150440,6,"task-gclj",NA,32748803,9689725,NA,"complete",NA,"6549235a90dc221dcf738816","computer","Desktop or Laptop","Windows 10","Chrome 118.0.0.0","1920x1080","1922x1002",NA,NA,0,"Task Introduction and Instructions (removed audio and video)",6,"CDBEAFJGIH","Passed AC2","","Spreadsheet1",1,"Task Instructions","Screen 5","8nvnao",5,"continue","",2712.7440002861,2700.13,2712.7440002861,2712.7440002861,2700.13,2712.7440002861,1,2712.7440002861,0,0,NA,"Click To Continue","Continue Button",2,"object-44","Task Instructions",NA,"SUPPRF35697"
"7",1699292691245,"06/11/2023 17:44:51",1699292691245,0,"06/11/2023 17:44:51",150440,6,"task-gclj",NA,32748803,9689725,NA,"complete",NA,"6549235a90dc221dcf738816","computer","Desktop or Laptop","Windows 10","Chrome 118.0.0.0","1920x1080","1922x1002",NA,NA,0,"Task Introduction and Instructions (removed audio and video)",6,"CDBEAFJGIH","Passed AC2","","Spreadsheet1",NA,"","","",NA,"5","END",NA,NA,NA,NA,NA,NA,0,NA,NA,NA,NA,"","",NA,"","",NA,"SUPPRF35697"
"1",1699293175722,"06/11/2023 17:52:55",1699293175722,0,"06/11/2023 17:52:55",150440,6,"task-gclj",NA,32749199,9689737,NA,"complete",NA,"6549233dade4fb4950ad28ec","computer","Desktop or Laptop","Windows 10","Edge 118.0.2088.76","1920x1080","1856x949",NA,NA,0,"Task Introduction and Instructions (removed audio and video)",6,"DECFBGAHJI","Passed AC2","","Spreadsheet1",NA,"","","",NA,"5","BEGIN",NA,NA,NA,NA,NA,NA,0,NA,NA,NA,NA,"","",NA,"","",NA,"SUPPRF37035"
"2",1699293179248,"06/11/2023 17:52:59",1699293179248,0,"06/11/2023 17:52:59",150440,6,"task-gclj",NA,32749199,9689737,NA,"complete",NA,"6549233dade4fb4950ad28ec","computer","Desktop or Laptop","Windows 10","Edge 118.0.2088.76","1920x1080","1856x949",NA,NA,0,"Task Introduction and Instructions (removed audio and video)",6,"DECFBGAHJI","Passed AC2","","Spreadsheet1",1,"Task Instructions","Screen 1","anr7sn",1,"continue","",3465.98400019074,3449.977,3465.98400019074,3465.98400019074,3449.977,3465.98400019074,1,3465.98400019074,0,0,NA,"Click To Continue","Continue Button",2,"object-1944","Task Instructions",NA,"SUPPRF37035"
"3",1699293187042,"06/11/2023 17:53:07",1699293187042,0,"06/11/2023 17:53:07",150440,6,"task-gclj",NA,32749199,9689737,NA,"complete",NA,"6549233dade4fb4950ad28ec","computer","Desktop or Laptop","Windows 10","Edge 118.0.2088.76","1920x1080","1856x949",NA,NA,0,"Task Introduction and Instructions (removed audio and video)",6,"DECFBGAHJI","Passed AC2","","Spreadsheet1",1,"Task Instructions","Screen 2","ce2tc8",2,"continue","",7809.50700019074,7800.012,7809.50700019074,7809.50700019074,7800.012,7809.50700019074,1,7809.50700019074,0,0,NA,"Click To Continue","Continue Button",2,"object-7","Task Instructions",NA,"SUPPRF37035"
"4",1699293190175,"06/11/2023 17:53:10",1699293190175,0,"06/11/2023 17:53:10",150440,6,"task-gclj",NA,32749199,9689737,NA,"complete",NA,"6549233dade4fb4950ad28ec","computer","Desktop or Laptop","Windows 10","Edge 118.0.2088.76","1920x1080","1856x949",NA,NA,0,"Task Introduction and Instructions (removed audio and video)",6,"DECFBGAHJI","Passed AC2","","Spreadsheet1",1,"Task Instructions","Screen 3","1qtc8v",3,"continue","",3143.195,3133.513,3143.195,3143.195,3133.513,3143.195,1,3143.195,0,0,NA,"Click To Continue","Continue Button",2,"object-52","Task Instructions",NA,"SUPPRF37035"
"5",1699293193240,"06/11/2023 17:53:13",1699293193240,0,"06/11/2023 17:53:13",150440,6,"task-gclj",NA,32749199,9689737,NA,"complete",NA,"6549233dade4fb4950ad28ec","computer","Desktop or Laptop","Windows 10","Edge 118.0.2088.76","1920x1080","1856x949",NA,NA,0,"Task Introduction and Instructions (removed audio and video)",6,"DECFBGAHJI","Passed AC2","","Spreadsheet1",1,"Task Instructions","Screen 4","spepx9",4,"continue","",3074.08200009537,3066.321,3074.08200009537,3074.08200009537,3066.321,3074.08200009537,1,3074.08200009537,0,0,NA,"Click To Continue","Continue Button",2,"object-9","Task Instructions",NA,"SUPPRF37035"
"6",1699293196690,"06/11/2023 17:53:16",1699293196690,0,"06/11/2023 17:53:16",150440,6,"task-gclj",NA,32749199,9689737,NA,"complete",NA,"6549233dade4fb4950ad28ec","computer","Desktop or Laptop","Windows 10","Edge 118.0.2088.76","1920x1080","1856x949",NA,NA,0,"Task Introduction and Instructions (removed audio and video)",6,"DECFBGAHJI","Passed AC2","","Spreadsheet1",1,"Task Instructions","Screen 5","8nvnao",5,"continue","",3458.46099990463,3449.919,3458.46099990463,3458.46099990463,3449.919,3458.46099990463,1,3458.46099990463,0,0,NA,"Click To Continue","Continue Button",2,"object-44","Task Instructions",NA,"SUPPRF37035"
"7",1699293196693,"06/11/2023 17:53:16",1699293196693,0,"06/11/2023 17:53:16",150440,6,"task-gclj",NA,32749199,9689737,NA,"complete",NA,"6549233dade4fb4950ad28ec","computer","Desktop or Laptop","Windows 10","Edge 118.0.2088.76","1920x1080","1856x949",NA,NA,0,"Task Introduction and Instructions (removed audio and video)",6,"DECFBGAHJI","Passed AC2","","Spreadsheet1",NA,"","","",NA,"5","END",NA,NA,NA,NA,NA,NA,0,NA,NA,NA,NA,"","",NA,"","",NA,"SUPPRF37035"
"1",1699292889994,"06/11/2023 17:48:09",1699292889994,0,"06/11/2023 17:48:09",150440,6,"task-gclj",NA,32748958,9689740,NA,"complete",NA,"6549238893c8ae4ef7a1fcaf","computer","Desktop or Laptop","Mac OS 10.15.7","Chrome 117.0.0.0","1440x900","1440x720",NA,NA,0,"Task Introduction and Instructions (removed audio and video)",6,"EFDGCHBIAJ","Passed AC2","","Spreadsheet1",NA,"","","",NA,"5","BEGIN",NA,NA,NA,NA,NA,NA,0,NA,NA,NA,NA,"","",NA,"","",NA,"SUPPRF68142"
"2",1699292899338,"06/11/2023 17:48:19",1699292899338,0,"06/11/2023 17:48:19",150440,6,"task-gclj",NA,32748958,9689740,NA,"complete",NA,"6549238893c8ae4ef7a1fcaf","computer","Desktop or Laptop","Mac OS 10.15.7","Chrome 117.0.0.0","1440x900","1440x720",NA,NA,0,"Task Introduction and Instructions (removed audio and video)",6,"EFDGCHBIAJ","Passed AC2","","Spreadsheet1",1,"Task Instructions","Screen 1","anr7sn",1,"continue","",9377.141,9360.486,9377.141,9377.141,9360.486,9377.141,1,9377.141,0,0,NA,"Click To Continue","Continue Button",2,"object-1944","Task Instructions",NA,"SUPPRF68142"
"3",1699292911791,"06/11/2023 17:48:31",1699292911791,0,"06/11/2023 17:48:31",150440,6,"task-gclj",NA,32748958,9689740,NA,"complete",NA,"6549238893c8ae4ef7a1fcaf","computer","Desktop or Laptop","Mac OS 10.15.7","Chrome 117.0.0.0","1440x900","1440x720",NA,NA,0,"Task Introduction and Instructions (removed audio and video)",6,"EFDGCHBIAJ","Passed AC2","","Spreadsheet1",1,"Task Instructions","Screen 2","ce2tc8",2,"continue","",12473.42,12458.316,12473.42,12473.42,12458.316,12473.42,1,12473.42,0,0,NA,"Click To Continue","Continue Button",2,"object-7","Task Instructions",NA,"SUPPRF68142"
"4",1699292916310,"06/11/2023 17:48:36",1699292916310,0,"06/11/2023 17:48:36",150440,6,"task-gclj",NA,32748958,9689740,NA,"complete",NA,"6549238893c8ae4ef7a1fcaf","computer","Desktop or Laptop","Mac OS 10.15.7","Chrome 117.0.0.0","1440x900","1440x720",NA,NA,0,"Task Introduction and Instructions (removed audio and video)",6,"EFDGCHBIAJ","Passed AC2","","Spreadsheet1",1,"Task Instructions","Screen 3","1qtc8v",3,"continue","",4534.90400000074,4530.16,4534.90400000074,4534.90400000074,4530.16,4534.90400000074,1,4534.90400000074,0,0,NA,"Click To Continue","Continue Button",2,"object-52","Task Instructions",NA,"SUPPRF68142"
"5",1699292919364,"06/11/2023 17:48:39",1699292919364,0,"06/11/2023 17:48:39",150440,6,"task-gclj",NA,32748958,9689740,NA,"complete",NA,"6549238893c8ae4ef7a1fcaf","computer","Desktop or Laptop","Mac OS 10.15.7","Chrome 117.0.0.0","1440x900","1440x720",NA,NA,0,"Task Introduction and Instructions (removed audio and video)",6,"EFDGCHBIAJ","Passed AC2","","Spreadsheet1",1,"Task Instructions","Screen 4","spepx9",4,"continue","",3058.34400000223,3048.242,3058.34400000223,3058.34400000223,3048.242,3058.34400000223,1,3058.34400000223,0,0,NA,"Click To Continue","Continue Button",2,"object-9","Task Instructions",NA,"SUPPRF68142"
"6",1699292922016,"06/11/2023 17:48:42",1699292922016,0,"06/11/2023 17:48:42",150440,6,"task-gclj",NA,32748958,9689740,NA,"complete",NA,"6549238893c8ae4ef7a1fcaf","computer","Desktop or Laptop","Mac OS 10.15.7","Chrome 117.0.0.0","1440x900","1440x720",NA,NA,0,"Task Introduction and Instructions (removed audio and video)",6,"EFDGCHBIAJ","Passed AC2","","Spreadsheet1",1,"Task Instructions","Screen 5","8nvnao",5,"continue","",2662.40200000298,2648.145,2662.40200000298,2662.40200000298,2648.145,2662.40200000298,1,2662.40200000298,0,0,NA,"Click To Continue","Continue Button",2,"object-44","Task Instructions",NA,"SUPPRF68142"
"7",1699292922023,"06/11/2023 17:48:42",1699292922023,0,"06/11/2023 17:48:42",150440,6,"task-gclj",NA,32748958,9689740,NA,"complete",NA,"6549238893c8ae4ef7a1fcaf","computer","Desktop or Laptop","Mac OS 10.15.7","Chrome 117.0.0.0","1440x900","1440x720",NA,NA,0,"Task Introduction and Instructions (removed audio and video)",6,"EFDGCHBIAJ","Passed AC2","","Spreadsheet1",NA,"","","",NA,"5","END",NA,NA,NA,NA,NA,NA,0,NA,NA,NA,NA,"","",NA,"","",NA,"SUPPRF68142"
"1",1699293270253,"06/11/2023 17:54:30",1699293270253,0,"06/11/2023 17:54:30",150440,6,"task-gclj",NA,32749251,9689753,NA,"complete",NA,"654921a01b51558a50a1fe5a","computer","Desktop or Laptop","Windows 10","Chrome 118.0.0.0","1536x864","1536x739",NA,NA,0,"Task Introduction and Instructions (removed audio and video)",6,"FGEHDICJBA","Passed AC2","","Spreadsheet1",NA,"","","",NA,"5","BEGIN",NA,NA,NA,NA,NA,NA,0,NA,NA,NA,NA,"","",NA,"","",NA,"SUPPRF88148"
"2",1699293274030,"06/11/2023 17:54:34",1699293274030,0,"06/11/2023 17:54:34",150440,6,"task-gclj",NA,32749251,9689753,NA,"complete",NA,"654921a01b51558a50a1fe5a","computer","Desktop or Laptop","Windows 10","Chrome 118.0.0.0","1536x864","1536x739",NA,NA,0,"Task Introduction and Instructions (removed audio and video)",6,"FGEHDICJBA","Passed AC2","","Spreadsheet1",1,"Task Instructions","Screen 1","anr7sn",1,"continue","",3635.84400004768,3633.085,3635.84400004768,3635.84400004768,3633.085,3635.84400004768,1,3635.84400004768,0,0,NA,"Click To Continue","Continue Button",2,"object-1944","Task Instructions",NA,"SUPPRF88148"
"3",1699293283006,"06/11/2023 17:54:43",1699293283006,0,"06/11/2023 17:54:43",150440,6,"task-gclj",NA,32749251,9689753,NA,"complete",NA,"654921a01b51558a50a1fe5a","computer","Desktop or Laptop","Windows 10","Chrome 118.0.0.0","1536x864","1536x739",NA,NA,0,"Task Introduction and Instructions (removed audio and video)",6,"FGEHDICJBA","Passed AC2","","Spreadsheet1",1,"Task Instructions","Screen 2","ce2tc8",2,"continue","",8978.559,8966.4,8978.559,8978.559,8966.4,8978.559,1,8978.559,0,0,NA,"Click To Continue","Continue Button",2,"object-7","Task Instructions",NA,"SUPPRF88148"
"4",1699293287164,"06/11/2023 17:54:47",1699293287164,0,"06/11/2023 17:54:47",150440,6,"task-gclj",NA,32749251,9689753,NA,"complete",NA,"654921a01b51558a50a1fe5a","computer","Desktop or Laptop","Windows 10","Chrome 118.0.0.0","1536x864","1536x739",NA,NA,0,"Task Introduction and Instructions (removed audio and video)",6,"FGEHDICJBA","Passed AC2","","Spreadsheet1",1,"Task Instructions","Screen 3","1qtc8v",3,"continue","",4170.55900003576,4166.449,4170.55900003576,4170.55900003576,4166.449,4170.55900003576,1,4170.55900003576,0,0,NA,"Click To Continue","Continue Button",2,"object-52","Task Instructions",NA,"SUPPRF88148"
"5",1699293291701,"06/11/2023 17:54:51",1699293291701,0,"06/11/2023 17:54:51",150440,6,"task-gclj",NA,32749251,9689753,NA,"complete",NA,"654921a01b51558a50a1fe5a","computer","Desktop or Laptop","Windows 10","Chrome 118.0.0.0","1536x864","1536x739",NA,NA,0,"Task Introduction and Instructions (removed audio and video)",6,"FGEHDICJBA","Passed AC2","","Spreadsheet1",1,"Task Instructions","Screen 4","spepx9",4,"continue","",4540.91000004768,4532.958,4540.91000004768,4540.91000004768,4532.958,4540.91000004768,1,4540.91000004768,0,0,NA,"Click To Continue","Continue Button",2,"object-9","Task Instructions",NA,"SUPPRF88148"
"6",1699293294742,"06/11/2023 17:54:54",1699293294742,0,"06/11/2023 17:54:54",150440,6,"task-gclj",NA,32749251,9689753,NA,"complete",NA,"654921a01b51558a50a1fe5a","computer","Desktop or Laptop","Windows 10","Chrome 118.0.0.0","1536x864","1536x739",NA,NA,0,"Task Introduction and Instructions (removed audio and video)",6,"FGEHDICJBA","Passed AC2","","Spreadsheet1",1,"Task Instructions","Screen 5","8nvnao",5,"continue","",3048.752,3033.233,3048.752,3048.752,3033.233,3048.752,1,3048.752,0,0,NA,"Click To Continue","Continue Button",2,"object-44","Task Instructions",NA,"SUPPRF88148"
"7",1699293294749,"06/11/2023 17:54:54",1699293294749,0,"06/11/2023 17:54:54",150440,6,"task-gclj",NA,32749251,9689753,NA,"complete",NA,"654921a01b51558a50a1fe5a","computer","Desktop or Laptop","Windows 10","Chrome 118.0.0.0","1536x864","1536x739",NA,NA,0,"Task Introduction and Instructions (removed audio and video)",6,"FGEHDICJBA","Passed AC2","","Spreadsheet1",NA,"","","",NA,"5","END",NA,NA,NA,NA,NA,NA,0,NA,NA,NA,NA,"","",NA,"","",NA,"SUPPRF88148"
"1",1699292884606,"06/11/2023 17:48:04",1699292884606,0,"06/11/2023 17:48:04",150440,6,"task-gclj",NA,32748949,9689813,NA,"complete",NA,"654924be341a89c8ee0f18d8","computer","Desktop or Laptop","Windows 10","Chrome 119.0.0.0","1920x1080","1920x931",NA,NA,0,"Task Introduction and Instructions (removed audio and video)",6,"BCADJEIFHG","Passed AC2","","Spreadsheet1",NA,"","","",NA,"5","BEGIN",NA,NA,NA,NA,NA,NA,0,NA,NA,NA,NA,"","",NA,"","",NA,"SUPPRF99152"
"2",1699292887636,"06/11/2023 17:48:07",1699292887636,0,"06/11/2023 17:48:07",150440,6,"task-gclj",NA,32748949,9689813,NA,"complete",NA,"654924be341a89c8ee0f18d8","computer","Desktop or Laptop","Windows 10","Chrome 119.0.0.0","1920x1080","1920x931",NA,NA,0,"Task Introduction and Instructions (removed audio and video)",6,"BCADJEIFHG","Passed AC2","","Spreadsheet1",1,"Task Instructions","Screen 1","anr7sn",1,"continue","",2895.37500001192,2883.159,2895.37500001192,2895.37500001192,2883.159,2895.37500001192,1,2895.37500001192,0,0,NA,"Click To Continue","Continue Button",2,"object-1944","Task Instructions",NA,"SUPPRF99152"
"3",1699292891883,"06/11/2023 17:48:11",1699292891883,0,"06/11/2023 17:48:11",150440,6,"task-gclj",NA,32748949,9689813,NA,"complete",NA,"654924be341a89c8ee0f18d8","computer","Desktop or Laptop","Windows 10","Chrome 119.0.0.0","1920x1080","1920x931",NA,NA,0,"Task Introduction and Instructions (removed audio and video)",6,"BCADJEIFHG","Passed AC2","","Spreadsheet1",1,"Task Instructions","Screen 2","ce2tc8",2,"continue","",4259.11600004768,4249.981,4259.11600004768,4259.11600004768,4249.981,4259.11600004768,1,4259.11600004768,0,0,NA,"Click To Continue","Continue Button",2,"object-7","Task Instructions",NA,"SUPPRF99152"
"4",1699292894369,"06/11/2023 17:48:14",1699292894369,0,"06/11/2023 17:48:14",150440,6,"task-gclj",NA,32748949,9689813,NA,"complete",NA,"654924be341a89c8ee0f18d8","computer","Desktop or Laptop","Windows 10","Chrome 119.0.0.0","1920x1080","1920x931",NA,NA,0,"Task Introduction and Instructions (removed audio and video)",6,"BCADJEIFHG","Passed AC2","","Spreadsheet1",1,"Task Instructions","Screen 3","1qtc8v",3,"continue","",2495.73500001192,2483.42,2495.73500001192,2495.73500001192,2483.42,2495.73500001192,1,2495.73500001192,0,0,NA,"Click To Continue","Continue Button",2,"object-52","Task Instructions",NA,"SUPPRF99152"
"5",1699292896763,"06/11/2023 17:48:16",1699292896763,0,"06/11/2023 17:48:16",150440,6,"task-gclj",NA,32748949,9689813,NA,"complete",NA,"654924be341a89c8ee0f18d8","computer","Desktop or Laptop","Windows 10","Chrome 119.0.0.0","1920x1080","1920x931",NA,NA,0,"Task Introduction and Instructions (removed audio and video)",6,"BCADJEIFHG","Passed AC2","","Spreadsheet1",1,"Task Instructions","Screen 4","spepx9",4,"continue","",2406.11500002384,2399.896,2406.11500002384,2406.11500002384,2399.896,2406.11500002384,1,2406.11500002384,0,0,NA,"Click To Continue","Continue Button",2,"object-9","Task Instructions",NA,"SUPPRF99152"
"6",1699292899347,"06/11/2023 17:48:19",1699292899347,0,"06/11/2023 17:48:19",150440,6,"task-gclj",NA,32748949,9689813,NA,"complete",NA,"654924be341a89c8ee0f18d8","computer","Desktop or Laptop","Windows 10","Chrome 119.0.0.0","1920x1080","1920x931",NA,NA,0,"Task Introduction and Instructions (removed audio and video)",6,"BCADJEIFHG","Passed AC2","","Spreadsheet1",1,"Task Instructions","Screen 5","8nvnao",5,"continue","",2590.31900004768,2583.37,2590.31900004768,2590.31900004768,2583.37,2590.31900004768,1,2590.31900004768,0,0,NA,"Click To Continue","Continue Button",2,"object-44","Task Instructions",NA,"SUPPRF99152"
"7",1699292899352,"06/11/2023 17:48:19",1699292899352,0,"06/11/2023 17:48:19",150440,6,"task-gclj",NA,32748949,9689813,NA,"complete",NA,"654924be341a89c8ee0f18d8","computer","Desktop or Laptop","Windows 10","Chrome 119.0.0.0","1920x1080","1920x931",NA,NA,0,"Task Introduction and Instructions (removed audio and video)",6,"BCADJEIFHG","Passed AC2","","Spreadsheet1",NA,"","","",NA,"5","END",NA,NA,NA,NA,NA,NA,0,NA,NA,NA,NA,"","",NA,"","",NA,"SUPPRF99152"
"1",1699292908927,"06/11/2023 17:48:28",1699292908927,0,"06/11/2023 17:48:28",150440,6,"task-gclj",NA,32748976,9689800,NA,"complete",NA,"654924ffa16c51a71e738924","computer","Desktop or Laptop","Mac OS 10.15.7","Chrome 118.0.0.0","1280x800","1280x715",NA,NA,0,"Task Introduction and Instructions (removed audio and video)",6,"JAIBHCGDFE","Passed AC2","","Spreadsheet1",NA,"","","",NA,"5","BEGIN",NA,NA,NA,NA,NA,NA,0,NA,NA,NA,NA,"","",NA,"","",NA,"SUPPRF85444"
"2",1699292912535,"06/11/2023 17:48:32",1699292912535,0,"06/11/2023 17:48:32",150440,6,"task-gclj",NA,32748976,9689800,NA,"complete",NA,"654924ffa16c51a71e738924","computer","Desktop or Laptop","Mac OS 10.15.7","Chrome 118.0.0.0","1280x800","1280x715",NA,NA,0,"Task Introduction and Instructions (removed audio and video)",6,"JAIBHCGDFE","Passed AC2","","Spreadsheet1",1,"Task Instructions","Screen 1","anr7sn",1,"continue","",3525.40499999404,3518.214,3525.40499999404,3525.40499999404,3518.214,3525.40499999404,1,3525.40499999404,0,0,NA,"Click To Continue","Continue Button",2,"object-1944","Task Instructions",NA,"SUPPRF85444"
"3",1699292921435,"06/11/2023 17:48:41",1699292921435,0,"06/11/2023 17:48:41",150440,6,"task-gclj",NA,32748976,9689800,NA,"complete",NA,"654924ffa16c51a71e738924","computer","Desktop or Laptop","Mac OS 10.15.7","Chrome 118.0.0.0","1280x800","1280x715",NA,NA,0,"Task Introduction and Instructions (removed audio and video)",6,"JAIBHCGDFE","Passed AC2","","Spreadsheet1",1,"Task Instructions","Screen 2","ce2tc8",2,"continue","",8904.254,8887.58,8904.254,8904.254,8887.58,8904.254,1,8904.254,0,0,NA,"Click To Continue","Continue Button",2,"object-7","Task Instructions",NA,"SUPPRF85444"
"4",1699292924208,"06/11/2023 17:48:44",1699292924208,0,"06/11/2023 17:48:44",150440,6,"task-gclj",NA,32748976,9689800,NA,"complete",NA,"654924ffa16c51a71e738924","computer","Desktop or Laptop","Mac OS 10.15.7","Chrome 118.0.0.0","1280x800","1280x715",NA,NA,0,"Task Introduction and Instructions (removed audio and video)",6,"JAIBHCGDFE","Passed AC2","","Spreadsheet1",1,"Task Instructions","Screen 3","1qtc8v",3,"continue","",2791.91099999106,2784.558,2791.91099999106,2791.91099999106,2784.558,2791.91099999106,1,2791.91099999106,0,0,NA,"Click To Continue","Continue Button",2,"object-52","Task Instructions",NA,"SUPPRF85444"
"5",1699292926854,"06/11/2023 17:48:46",1699292926854,0,"06/11/2023 17:48:46",150440,6,"task-gclj",NA,32748976,9689800,NA,"complete",NA,"654924ffa16c51a71e738924","computer","Desktop or Laptop","Mac OS 10.15.7","Chrome 118.0.0.0","1280x800","1280x715",NA,NA,0,"Task Introduction and Instructions (removed audio and video)",6,"JAIBHCGDFE","Passed AC2","","Spreadsheet1",1,"Task Instructions","Screen 4","spepx9",4,"continue","",2651.505,2634.831,2651.505,2651.505,2634.831,2651.505,1,2651.505,0,0,NA,"Click To Continue","Continue Button",2,"object-9","Task Instructions",NA,"SUPPRF85444"
"6",1699292929553,"06/11/2023 17:48:49",1699292929553,0,"06/11/2023 17:48:49",150440,6,"task-gclj",NA,32748976,9689800,NA,"complete",NA,"654924ffa16c51a71e738924","computer","Desktop or Laptop","Mac OS 10.15.7","Chrome 118.0.0.0","1280x800","1280x715",NA,NA,0,"Task Introduction and Instructions (removed audio and video)",6,"JAIBHCGDFE","Passed AC2","","Spreadsheet1",1,"Task Instructions","Screen 5","8nvnao",5,"continue","",2717.22199999404,2701.188,2717.22199999404,2717.22199999404,2701.188,2717.22199999404,1,2717.22199999404,0,0,NA,"Click To Continue","Continue Button",2,"object-44","Task Instructions",NA,"SUPPRF85444"
"7",1699292929554,"06/11/2023 17:48:49",1699292929554,0,"06/11/2023 17:48:49",150440,6,"task-gclj",NA,32748976,9689800,NA,"complete",NA,"654924ffa16c51a71e738924","computer","Desktop or Laptop","Mac OS 10.15.7","Chrome 118.0.0.0","1280x800","1280x715",NA,NA,0,"Task Introduction and Instructions (removed audio and video)",6,"JAIBHCGDFE","Passed AC2","","Spreadsheet1",NA,"","","",NA,"5","END",NA,NA,NA,NA,NA,NA,0,NA,NA,NA,NA,"","",NA,"","",NA,"SUPPRF85444"
"1",1699292989513,"06/11/2023 17:49:49",1699292989513,0,"06/11/2023 17:49:49",150440,6,"task-gclj",NA,32749039,9689775,NA,"complete",NA,"6549244aa62da2216068a2f5","computer","Desktop or Laptop","Chromium OS 14541.0.0","Chrome 118.0.0.0","1920x1080","1280x641",NA,NA,0,"Task Introduction and Instructions (removed audio and video)",6,"GHFIEJDACB","Passed AC2","","Spreadsheet1",NA,"","","",NA,"5","BEGIN",NA,NA,NA,NA,NA,NA,0,NA,NA,NA,NA,"","",NA,"","",NA,"SUPPRF85297"
"2",1699292993279,"06/11/2023 17:49:53",1699292993279,0,"06/11/2023 17:49:53",150440,6,"task-gclj",NA,32749039,9689775,NA,"complete",NA,"6549244aa62da2216068a2f5","computer","Desktop or Laptop","Chromium OS 14541.0.0","Chrome 118.0.0.0","1920x1080","1280x641",NA,NA,0,"Task Introduction and Instructions (removed audio and video)",6,"GHFIEJDACB","Passed AC2","","Spreadsheet1",1,"Task Instructions","Screen 1","anr7sn",1,"continue","",3645.25599999993,3630.171,3645.25599999993,3645.25599999993,3630.171,3645.25599999993,1,3645.25599999993,0,0,NA,"Click To Continue","Continue Button",2,"object-1944","Task Instructions",NA,"SUPPRF85297"
"3",1699293000397,"06/11/2023 17:50:00",1699293000397,0,"06/11/2023 17:50:00",150440,6,"task-gclj",NA,32749039,9689775,NA,"complete",NA,"6549244aa62da2216068a2f5","computer","Desktop or Laptop","Chromium OS 14541.0.0","Chrome 118.0.0.0","1920x1080","1280x641",NA,NA,0,"Task Introduction and Instructions (removed audio and video)",6,"GHFIEJDACB","Passed AC2","","Spreadsheet1",1,"Task Instructions","Screen 2","ce2tc8",2,"continue","",7133.48499999995,7127.097,7133.48499999995,7133.48499999995,7127.097,7133.48499999995,1,7133.48499999995,0,0,NA,"Click To Continue","Continue Button",2,"object-7","Task Instructions",NA,"SUPPRF85297"
"4",1699293003010,"06/11/2023 17:50:03",1699293003010,0,"06/11/2023 17:50:03",150440,6,"task-gclj",NA,32749039,9689775,NA,"complete",NA,"6549244aa62da2216068a2f5","computer","Desktop or Laptop","Chromium OS 14541.0.0","Chrome 118.0.0.0","1920x1080","1280x641",NA,NA,0,"Task Introduction and Instructions (removed audio and video)",6,"GHFIEJDACB","Passed AC2","","Spreadsheet1",1,"Task Instructions","Screen 3","1qtc8v",3,"continue","",2619.48799999993,2614.412,2619.48799999993,2619.48799999993,2614.412,2619.48799999993,1,2619.48799999993,0,0,NA,"Click To Continue","Continue Button",2,"object-52","Task Instructions",NA,"SUPPRF85297"
"5",1699293005713,"06/11/2023 17:50:05",1699293005713,0,"06/11/2023 17:50:05",150440,6,"task-gclj",NA,32749039,9689775,NA,"complete",NA,"6549244aa62da2216068a2f5","computer","Desktop or Laptop","Chromium OS 14541.0.0","Chrome 118.0.0.0","1920x1080","1280x641",NA,NA,0,"Task Introduction and Instructions (removed audio and video)",6,"GHFIEJDACB","Passed AC2","","Spreadsheet1",1,"Task Instructions","Screen 4","spepx9",4,"continue","",2708.07599999993,2697.636,2708.07599999993,2708.07599999993,2697.636,2708.07599999993,1,2708.07599999993,0,0,NA,"Click To Continue","Continue Button",2,"object-9","Task Instructions",NA,"SUPPRF85297"
"6",1699293008428,"06/11/2023 17:50:08",1699293008428,0,"06/11/2023 17:50:08",150440,6,"task-gclj",NA,32749039,9689775,NA,"complete",NA,"6549244aa62da2216068a2f5","computer","Desktop or Laptop","Chromium OS 14541.0.0","Chrome 118.0.0.0","1920x1080","1280x641",NA,NA,0,"Task Introduction and Instructions (removed audio and video)",6,"GHFIEJDACB","Passed AC2","","Spreadsheet1",1,"Task Instructions","Screen 5","8nvnao",5,"continue","",2725.53999999991,2714.306,2725.53999999991,2725.53999999991,2714.306,2725.53999999991,1,2725.53999999991,0,0,NA,"Click To Continue","Continue Button",2,"object-44","Task Instructions",NA,"SUPPRF85297"
"7",1699293008434,"06/11/2023 17:50:08",1699293008434,0,"06/11/2023 17:50:08",150440,6,"task-gclj",NA,32749039,9689775,NA,"complete",NA,"6549244aa62da2216068a2f5","computer","Desktop or Laptop","Chromium OS 14541.0.0","Chrome 118.0.0.0","1920x1080","1280x641",NA,NA,0,"Task Introduction and Instructions (removed audio and video)",6,"GHFIEJDACB","Passed AC2","","Spreadsheet1",NA,"","","",NA,"5","END",NA,NA,NA,NA,NA,NA,0,NA,NA,NA,NA,"","",NA,"","",NA,"SUPPRF85297"
"1",1699293037070,"06/11/2023 17:50:37",1699293037070,0,"06/11/2023 17:50:37",150440,6,"task-gclj",NA,32749084,9689807,NA,"complete",NA,"654925209fa4ccfd758876ef","computer","Desktop or Laptop","Windows 10","Chrome 119.0.0.0","1925x1065","1920x1061",NA,NA,0,"Task Introduction and Instructions (removed audio and video)",6,"ABJCIDHEGF","Passed AC2","","Spreadsheet1",NA,"","","",NA,"5","BEGIN",NA,NA,NA,NA,NA,NA,0,NA,NA,NA,NA,"","",NA,"","",NA,"SUPPRF10856"
"2",1699293040762,"06/11/2023 17:50:40",1699293040762,0,"06/11/2023 17:50:40",150440,6,"task-gclj",NA,32749084,9689807,NA,"complete",NA,"654925209fa4ccfd758876ef","computer","Desktop or Laptop","Windows 10","Chrome 119.0.0.0","1925x1065","1920x1061",NA,NA,0,"Task Introduction and Instructions (removed audio and video)",6,"ABJCIDHEGF","Passed AC2","","Spreadsheet1",1,"Task Instructions","Screen 1","anr7sn",1,"continue","",3635,3619,3635,3635,3619,3635,1,3635,0,0,NA,"Click To Continue","Continue Button",2,"object-1944","Task Instructions",NA,"SUPPRF10856"
"3",1699293050727,"06/11/2023 17:50:50",1699293050727,0,"06/11/2023 17:50:50",150440,6,"task-gclj",NA,32749084,9689807,NA,"complete",NA,"654925209fa4ccfd758876ef","computer","Desktop or Laptop","Windows 10","Chrome 119.0.0.0","1925x1065","1920x1061",NA,NA,0,"Task Introduction and Instructions (removed audio and video)",6,"ABJCIDHEGF","Passed AC2","","Spreadsheet1",1,"Task Instructions","Screen 2","ce2tc8",2,"continue","",9984,9975,9984,9984,9975,9984,1,9984,0,0,NA,"Click To Continue","Continue Button",2,"object-7","Task Instructions",NA,"SUPPRF10856"
"4",1699293053838,"06/11/2023 17:50:53",1699293053838,0,"06/11/2023 17:50:53",150440,6,"task-gclj",NA,32749084,9689807,NA,"complete",NA,"654925209fa4ccfd758876ef","computer","Desktop or Laptop","Windows 10","Chrome 119.0.0.0","1925x1065","1920x1061",NA,NA,0,"Task Introduction and Instructions (removed audio and video)",6,"ABJCIDHEGF","Passed AC2","","Spreadsheet1",1,"Task Instructions","Screen 3","1qtc8v",3,"continue","",3118,3102,3118,3118,3102,3118,1,3118,0,0,NA,"Click To Continue","Continue Button",2,"object-52","Task Instructions",NA,"SUPPRF10856"
"5",1699293056416,"06/11/2023 17:50:56",1699293056416,0,"06/11/2023 17:50:56",150440,6,"task-gclj",NA,32749084,9689807,NA,"complete",NA,"654925209fa4ccfd758876ef","computer","Desktop or Laptop","Windows 10","Chrome 119.0.0.0","1925x1065","1920x1061",NA,NA,0,"Task Introduction and Instructions (removed audio and video)",6,"ABJCIDHEGF","Passed AC2","","Spreadsheet1",1,"Task Instructions","Screen 4","spepx9",4,"continue","",2597,2586,2597,2597,2586,2597,1,2597,0,0,NA,"Click To Continue","Continue Button",2,"object-9","Task Instructions",NA,"SUPPRF10856"
"6",1699293058807,"06/11/2023 17:50:58",1699293058807,0,"06/11/2023 17:50:58",150440,6,"task-gclj",NA,32749084,9689807,NA,"complete",NA,"654925209fa4ccfd758876ef","computer","Desktop or Laptop","Windows 10","Chrome 119.0.0.0","1925x1065","1920x1061",NA,NA,0,"Task Introduction and Instructions (removed audio and video)",6,"ABJCIDHEGF","Passed AC2","","Spreadsheet1",1,"Task Instructions","Screen 5","8nvnao",5,"continue","",2402,2385,2402,2402,2385,2402,1,2402,0,0,NA,"Click To Continue","Continue Button",2,"object-44","Task Instructions",NA,"SUPPRF10856"
"7",1699293058812,"06/11/2023 17:50:58",1699293058812,0,"06/11/2023 17:50:58",150440,6,"task-gclj",NA,32749084,9689807,NA,"complete",NA,"654925209fa4ccfd758876ef","computer","Desktop or Laptop","Windows 10","Chrome 119.0.0.0","1925x1065","1920x1061",NA,NA,0,"Task Introduction and Instructions (removed audio and video)",6,"ABJCIDHEGF","Passed AC2","","Spreadsheet1",NA,"","","",NA,"5","END",NA,NA,NA,NA,NA,NA,0,NA,NA,NA,NA,"","",NA,"","",NA,"SUPPRF10856"
"1",1699293057658,"06/11/2023 17:50:57",1699293057658,0,"06/11/2023 17:50:57",150440,6,"task-gclj",NA,32749103,9689803,NA,"complete",NA,"6549250ba9997caa12c9d794","computer","Desktop or Laptop","Windows 10","Chrome 119.0.0.0","1536x864","1536x739",NA,NA,0,"Task Introduction and Instructions (removed audio and video)",6,"CDBEAFJGIH","Passed AC2","","Spreadsheet1",NA,"","","",NA,"5","BEGIN",NA,NA,NA,NA,NA,NA,0,NA,NA,NA,NA,"","",NA,"","",NA,"SUPPRF24628"
"2",1699293061110,"06/11/2023 17:51:01",1699293061110,0,"06/11/2023 17:51:01",150440,6,"task-gclj",NA,32749103,9689803,NA,"complete",NA,"6549250ba9997caa12c9d794","computer","Desktop or Laptop","Windows 10","Chrome 119.0.0.0","1536x864","1536x739",NA,NA,0,"Task Introduction and Instructions (removed audio and video)",6,"CDBEAFJGIH","Passed AC2","","Spreadsheet1",1,"Task Instructions","Screen 1","anr7sn",1,"continue","",3191.49000004768,3181.359,3191.49000004768,3191.49000004768,3181.359,3191.49000004768,1,3191.49000004768,0,0,NA,"Click To Continue","Continue Button",2,"object-1944","Task Instructions",NA,"SUPPRF24628"
"3",1699293068606,"06/11/2023 17:51:08",1699293068606,0,"06/11/2023 17:51:08",150440,6,"task-gclj",NA,32749103,9689803,NA,"complete",NA,"6549250ba9997caa12c9d794","computer","Desktop or Laptop","Windows 10","Chrome 119.0.0.0","1536x864","1536x739",NA,NA,0,"Task Introduction and Instructions (removed audio and video)",6,"CDBEAFJGIH","Passed AC2","","Spreadsheet1",1,"Task Instructions","Screen 2","ce2tc8",2,"continue","",7506.83100009537,7495.216,7506.83100009537,7506.83100009537,7495.216,7506.83100009537,1,7506.83100009537,0,0,NA,"Click To Continue","Continue Button",2,"object-7","Task Instructions",NA,"SUPPRF24628"
"4",1699293071478,"06/11/2023 17:51:11",1699293071478,0,"06/11/2023 17:51:11",150440,6,"task-gclj",NA,32749103,9689803,NA,"complete",NA,"6549250ba9997caa12c9d794","computer","Desktop or Laptop","Windows 10","Chrome 119.0.0.0","1536x864","1536x739",NA,NA,0,"Task Introduction and Instructions (removed audio and video)",6,"CDBEAFJGIH","Passed AC2","","Spreadsheet1",1,"Task Instructions","Screen 3","1qtc8v",3,"continue","",2881.873,2865.189,2881.873,2881.873,2865.189,2881.873,1,2881.873,0,0,NA,"Click To Continue","Continue Button",2,"object-52","Task Instructions",NA,"SUPPRF24628"
"5",1699293074429,"06/11/2023 17:51:14",1699293074429,0,"06/11/2023 17:51:14",150440,6,"task-gclj",NA,32749103,9689803,NA,"complete",NA,"6549250ba9997caa12c9d794","computer","Desktop or Laptop","Windows 10","Chrome 119.0.0.0","1536x864","1536x739",NA,NA,0,"Task Introduction and Instructions (removed audio and video)",6,"CDBEAFJGIH","Passed AC2","","Spreadsheet1",1,"Task Instructions","Screen 4","spepx9",4,"continue","",2969.42600009537,2964.554,2969.42600009537,2969.42600009537,2964.554,2969.42600009537,1,2969.42600009537,0,0,NA,"Click To Continue","Continue Button",2,"object-9","Task Instructions",NA,"SUPPRF24628"
"6",1699293077863,"06/11/2023 17:51:17",1699293077863,0,"06/11/2023 17:51:17",150440,6,"task-gclj",NA,32749103,9689803,NA,"complete",NA,"6549250ba9997caa12c9d794","computer","Desktop or Laptop","Windows 10","Chrome 119.0.0.0","1536x864","1536x739",NA,NA,0,"Task Introduction and Instructions (removed audio and video)",6,"CDBEAFJGIH","Passed AC2","","Spreadsheet1",1,"Task Instructions","Screen 5","8nvnao",5,"continue","",3438.37200009537,3431.05,3438.37200009537,3438.37200009537,3431.05,3438.37200009537,1,3438.37200009537,0,0,NA,"Click To Continue","Continue Button",2,"object-44","Task Instructions",NA,"SUPPRF24628"
"7",1699293077871,"06/11/2023 17:51:17",1699293077871,0,"06/11/2023 17:51:17",150440,6,"task-gclj",NA,32749103,9689803,NA,"complete",NA,"6549250ba9997caa12c9d794","computer","Desktop or Laptop","Windows 10","Chrome 119.0.0.0","1536x864","1536x739",NA,NA,0,"Task Introduction and Instructions (removed audio and video)",6,"CDBEAFJGIH","Passed AC2","","Spreadsheet1",NA,"","","",NA,"5","END",NA,NA,NA,NA,NA,NA,0,NA,NA,NA,NA,"","",NA,"","",NA,"SUPPRF24628"
"1",1699293361866,"06/11/2023 17:56:01",1699293361866,0,"06/11/2023 17:56:01",150440,6,"task-gclj",NA,32749307,9689795,NA,"complete",NA,"654924ca687b1ab50f984f2f","computer","Desktop or Laptop","Mac OS 10.15.7","Chrome 118.0.0.0","1710x1112","1710x959",NA,NA,0,"Task Introduction and Instructions (removed audio and video)",6,"IJHAGBFCED","Passed AC2","","Spreadsheet1",NA,"","","",NA,"5","BEGIN",NA,NA,NA,NA,NA,NA,0,NA,NA,NA,NA,"","",NA,"","",NA,"SUPPRF95341"
"2",1699293367105,"06/11/2023 17:56:07",1699293367105,0,"06/11/2023 17:56:07",150440,6,"task-gclj",NA,32749307,9689795,NA,"complete",NA,"654924ca687b1ab50f984f2f","computer","Desktop or Laptop","Mac OS 10.15.7","Chrome 118.0.0.0","1710x1112","1710x959",NA,NA,0,"Task Introduction and Instructions (removed audio and video)",6,"IJHAGBFCED","Passed AC2","","Spreadsheet1",1,"Task Instructions","Screen 1","anr7sn",1,"continue","",5133.128,5116.462,5133.128,5133.128,5116.462,5133.128,1,5133.128,0,0,NA,"Click To Continue","Continue Button",2,"object-1944","Task Instructions",NA,"SUPPRF95341"
"3",1699293376131,"06/11/2023 17:56:16",1699293376131,0,"06/11/2023 17:56:16",150440,6,"task-gclj",NA,32749307,9689795,NA,"complete",NA,"654924ca687b1ab50f984f2f","computer","Desktop or Laptop","Mac OS 10.15.7","Chrome 118.0.0.0","1710x1112","1710x959",NA,NA,0,"Task Introduction and Instructions (removed audio and video)",6,"IJHAGBFCED","Passed AC2","","Spreadsheet1",1,"Task Instructions","Screen 2","ce2tc8",2,"continue","",9048.71699990463,9033.391,9048.71699990463,9048.71699990463,9033.391,9048.71699990463,1,9048.71699990463,0,0,NA,"Click To Continue","Continue Button",2,"object-7","Task Instructions",NA,"SUPPRF95341"
"4",1699293379282,"06/11/2023 17:56:19",1699293379282,0,"06/11/2023 17:56:19",150440,6,"task-gclj",NA,32749307,9689795,NA,"complete",NA,"654924ca687b1ab50f984f2f","computer","Desktop or Laptop","Mac OS 10.15.7","Chrome 118.0.0.0","1710x1112","1710x959",NA,NA,0,"Task Introduction and Instructions (removed audio and video)",6,"IJHAGBFCED","Passed AC2","","Spreadsheet1",1,"Task Instructions","Screen 3","1qtc8v",3,"continue","",3166.884,3150.218,3166.884,3166.884,3150.218,3166.884,1,3166.884,0,0,NA,"Click To Continue","Continue Button",2,"object-52","Task Instructions",NA,"SUPPRF95341"
"5",1699293383457,"06/11/2023 17:56:23",1699293383457,0,"06/11/2023 17:56:23",150440,6,"task-gclj",NA,32749307,9689795,NA,"complete",NA,"654924ca687b1ab50f984f2f","computer","Desktop or Laptop","Mac OS 10.15.7","Chrome 118.0.0.0","1710x1112","1710x959",NA,NA,0,"Task Introduction and Instructions (removed audio and video)",6,"IJHAGBFCED","Passed AC2","","Spreadsheet1",1,"Task Instructions","Screen 4","spepx9",4,"continue","",4192.008,4183.166,4192.008,4192.008,4183.166,4192.008,1,4192.008,0,0,NA,"Click To Continue","Continue Button",2,"object-9","Task Instructions",NA,"SUPPRF95341"
"6",1699293386988,"06/11/2023 17:56:26",1699293386988,0,"06/11/2023 17:56:26",150440,6,"task-gclj",NA,32749307,9689795,NA,"complete",NA,"654924ca687b1ab50f984f2f","computer","Desktop or Laptop","Mac OS 10.15.7","Chrome 118.0.0.0","1710x1112","1710x959",NA,NA,0,"Task Introduction and Instructions (removed audio and video)",6,"IJHAGBFCED","Passed AC2","","Spreadsheet1",1,"Task Instructions","Screen 5","8nvnao",5,"continue","",3540.342,3533.192,3540.342,3540.342,3533.192,3540.342,1,3540.342,0,0,NA,"Click To Continue","Continue Button",2,"object-44","Task Instructions",NA,"SUPPRF95341"
"7",1699293386992,"06/11/2023 17:56:26",1699293386992,0,"06/11/2023 17:56:26",150440,6,"task-gclj",NA,32749307,9689795,NA,"complete",NA,"654924ca687b1ab50f984f2f","computer","Desktop or Laptop","Mac OS 10.15.7","Chrome 118.0.0.0","1710x1112","1710x959",NA,NA,0,"Task Introduction and Instructions (removed audio and video)",6,"IJHAGBFCED","Passed AC2","","Spreadsheet1",NA,"","","",NA,"5","END",NA,NA,NA,NA,NA,NA,0,NA,NA,NA,NA,"","",NA,"","",NA,"SUPPRF95341"
"1",1699293376458,"06/11/2023 17:56:16",1699293376458,0,"06/11/2023 17:56:16",150440,6,"task-gclj",NA,32749319,9689867,NA,"complete",NA,"654926bdade73d2ec6b3fcb9","computer","Desktop or Laptop","Windows 10","Edge 118.0.2088.61","2845x1186","1700x1005",NA,NA,0,"Task Introduction and Instructions (removed audio and video)",6,"GHFIEJDACB","Passed AC2","","Spreadsheet1",NA,"","","",NA,"5","BEGIN",NA,NA,NA,NA,NA,NA,0,NA,NA,NA,NA,"","",NA,"","",NA,"SUPPRF54475"
"2",1699293379465,"06/11/2023 17:56:19",1699293379465,0,"06/11/2023 17:56:19",150440,6,"task-gclj",NA,32749319,9689867,NA,"complete",NA,"654926bdade73d2ec6b3fcb9","computer","Desktop or Laptop","Windows 10","Edge 118.0.2088.61","2845x1186","1700x1005",NA,NA,0,"Task Introduction and Instructions (removed audio and video)",6,"GHFIEJDACB","Passed AC2","","Spreadsheet1",1,"Task Instructions","Screen 1","anr7sn",1,"continue","",2938.00099998808,2933.649,2938.00099998808,2938.00099998808,2933.649,2938.00099998808,1,2938.00099998808,0,0,NA,"Click To Continue","Continue Button",2,"object-1944","Task Instructions",NA,"SUPPRF54475"
"3",1699293384636,"06/11/2023 17:56:24",1699293384636,0,"06/11/2023 17:56:24",150440,6,"task-gclj",NA,32749319,9689867,NA,"complete",NA,"654926bdade73d2ec6b3fcb9","computer","Desktop or Laptop","Windows 10","Edge 118.0.2088.61","2845x1186","2040x1206",NA,NA,0,"Task Introduction and Instructions (removed audio and video)",6,"GHFIEJDACB","Passed AC2","","Spreadsheet1",1,"Task Instructions","Screen 2","ce2tc8",2,"continue","",5175.25199999404,5167.192,5175.25199999404,5175.25199999404,5167.192,5175.25199999404,1,5175.25199999404,0,0,NA,"Click To Continue","Continue Button",2,"object-7","Task Instructions",NA,"SUPPRF54475"
"4",1699293387578,"06/11/2023 17:56:27",1699293387578,0,"06/11/2023 17:56:27",150440,6,"task-gclj",NA,32749319,9689867,NA,"complete",NA,"654926bdade73d2ec6b3fcb9","computer","Desktop or Laptop","Windows 10","Edge 118.0.2088.61","2845x1186","2040x1206",NA,NA,0,"Task Introduction and Instructions (removed audio and video)",6,"GHFIEJDACB","Passed AC2","","Spreadsheet1",1,"Task Instructions","Screen 3","1qtc8v",3,"continue","",2950.598,2933.819,2950.598,2950.598,2933.819,2950.598,1,2950.598,0,0,NA,"Click To Continue","Continue Button",2,"object-52","Task Instructions",NA,"SUPPRF54475"
"5",1699293389966,"06/11/2023 17:56:29",1699293389966,0,"06/11/2023 17:56:29",150440,6,"task-gclj",NA,32749319,9689867,NA,"complete",NA,"654926bdade73d2ec6b3fcb9","computer","Desktop or Laptop","Windows 10","Edge 118.0.2088.61","2845x1186","2040x1206",NA,NA,0,"Task Introduction and Instructions (removed audio and video)",6,"GHFIEJDACB","Passed AC2","","Spreadsheet1",1,"Task Instructions","Screen 4","spepx9",4,"continue","",2404.54100000596,2400.064,2404.54100000596,2404.54100000596,2400.064,2404.54100000596,1,2404.54100000596,0,0,NA,"Click To Continue","Continue Button",2,"object-9","Task Instructions",NA,"SUPPRF54475"
"6",1699293393187,"06/11/2023 17:56:33",1699293393187,0,"06/11/2023 17:56:33",150440,6,"task-gclj",NA,32749319,9689867,NA,"complete",NA,"654926bdade73d2ec6b3fcb9","computer","Desktop or Laptop","Windows 10","Edge 118.0.2088.61","2845x1186","2040x1206",NA,NA,0,"Task Introduction and Instructions (removed audio and video)",6,"GHFIEJDACB","Passed AC2","","Spreadsheet1",1,"Task Instructions","Screen 5","8nvnao",5,"continue","",3225.17699999404,3217.089,3225.17699999404,3225.17699999404,3217.089,3225.17699999404,1,3225.17699999404,0,0,NA,"Click To Continue","Continue Button",2,"object-44","Task Instructions",NA,"SUPPRF54475"
"7",1699293393188,"06/11/2023 17:56:33",1699293393188,0,"06/11/2023 17:56:33",150440,6,"task-gclj",NA,32749319,9689867,NA,"complete",NA,"654926bdade73d2ec6b3fcb9","computer","Desktop or Laptop","Windows 10","Edge 118.0.2088.61","2845x1186","2040x1206",NA,NA,0,"Task Introduction and Instructions (removed audio and video)",6,"GHFIEJDACB","Passed AC2","","Spreadsheet1",NA,"","","",NA,"5","END",NA,NA,NA,NA,NA,NA,0,NA,NA,NA,NA,"","",NA,"","",NA,"SUPPRF54475"
"1",1699293398445,"06/11/2023 17:56:38",1699293398445,0,"06/11/2023 17:56:38",150440,6,"task-gclj",NA,32749343,9689786,NA,"complete",NA,"654924af72f8f0b8d921a095","computer","Desktop or Laptop","Windows 10","Chrome 119.0.0.0","1280x720","1280x585",NA,NA,0,"Task Introduction and Instructions (removed audio and video)",6,"HIGJFAEBDC","Passed AC2","","Spreadsheet1",NA,"","","",NA,"5","BEGIN",NA,NA,NA,NA,NA,NA,0,NA,NA,NA,NA,"","",NA,"","",NA,"SUPPRF06342"
"2",1699293401623,"06/11/2023 17:56:41",1699293401623,0,"06/11/2023 17:56:41",150440,6,"task-gclj",NA,32749343,9689786,NA,"complete",NA,"654924af72f8f0b8d921a095","computer","Desktop or Laptop","Windows 10","Chrome 119.0.0.0","1280x720","1280x585",NA,NA,0,"Task Introduction and Instructions (removed audio and video)",6,"HIGJFAEBDC","Passed AC2","","Spreadsheet1",1,"Task Instructions","Screen 1","anr7sn",1,"continue","",3117.61999997616,3111.547,3117.61999997616,3117.61999997616,3111.547,3117.61999997616,1,3117.61999997616,0,0,NA,"Click To Continue","Continue Button",2,"object-1944","Task Instructions",NA,"SUPPRF06342"
"3",1699293409846,"06/11/2023 17:56:49",1699293409846,0,"06/11/2023 17:56:49",150440,6,"task-gclj",NA,32749343,9689786,NA,"complete",NA,"654924af72f8f0b8d921a095","computer","Desktop or Laptop","Windows 10","Chrome 119.0.0.0","1280x720","1280x585",NA,NA,0,"Task Introduction and Instructions (removed audio and video)",6,"HIGJFAEBDC","Passed AC2","","Spreadsheet1",1,"Task Instructions","Screen 2","ce2tc8",2,"continue","",8228.77300002384,8223.567,8228.77300002384,8228.77300002384,8223.567,8228.77300002384,1,8228.77300002384,0,0,NA,"Click To Continue","Continue Button",2,"object-7","Task Instructions",NA,"SUPPRF06342"
"4",1699293412801,"06/11/2023 17:56:52",1699293412801,0,"06/11/2023 17:56:52",150440,6,"task-gclj",NA,32749343,9689786,NA,"complete",NA,"654924af72f8f0b8d921a095","computer","Desktop or Laptop","Windows 10","Chrome 119.0.0.0","1280x720","1280x585",NA,NA,0,"Task Introduction and Instructions (removed audio and video)",6,"HIGJFAEBDC","Passed AC2","","Spreadsheet1",1,"Task Instructions","Screen 3","1qtc8v",3,"continue","",2960.90599995232,2958.398,2960.90599995232,2960.90599995232,2958.398,2960.90599995232,1,2960.90599995232,0,0,NA,"Click To Continue","Continue Button",2,"object-52","Task Instructions",NA,"SUPPRF06342"
"5",1699293415368,"06/11/2023 17:56:55",1699293415368,0,"06/11/2023 17:56:55",150440,6,"task-gclj",NA,32749343,9689786,NA,"complete",NA,"654924af72f8f0b8d921a095","computer","Desktop or Laptop","Windows 10","Chrome 119.0.0.0","1280x720","1280x585",NA,NA,0,"Task Introduction and Instructions (removed audio and video)",6,"HIGJFAEBDC","Passed AC2","","Spreadsheet1",1,"Task Instructions","Screen 4","spepx9",4,"continue","",2569.30800002384,2563.137,2569.30800002384,2569.30800002384,2563.137,2569.30800002384,1,2569.30800002384,0,0,NA,"Click To Continue","Continue Button",2,"object-9","Task Instructions",NA,"SUPPRF06342"
"6",1699293418078,"06/11/2023 17:56:58",1699293418078,0,"06/11/2023 17:56:58",150440,6,"task-gclj",NA,32749343,9689786,NA,"complete",NA,"654924af72f8f0b8d921a095","computer","Desktop or Laptop","Windows 10","Chrome 119.0.0.0","1280x720","1280x585",NA,NA,0,"Task Introduction and Instructions (removed audio and video)",6,"HIGJFAEBDC","Passed AC2","","Spreadsheet1",1,"Task Instructions","Screen 5","8nvnao",5,"continue","",2715.283,2708.394,2715.283,2715.283,2708.394,2715.283,1,2715.283,0,0,NA,"Click To Continue","Continue Button",2,"object-44","Task Instructions",NA,"SUPPRF06342"
"7",1699293418081,"06/11/2023 17:56:58",1699293418081,0,"06/11/2023 17:56:58",150440,6,"task-gclj",NA,32749343,9689786,NA,"complete",NA,"654924af72f8f0b8d921a095","computer","Desktop or Laptop","Windows 10","Chrome 119.0.0.0","1280x720","1280x585",NA,NA,0,"Task Introduction and Instructions (removed audio and video)",6,"HIGJFAEBDC","Passed AC2","","Spreadsheet1",NA,"","","",NA,"5","END",NA,NA,NA,NA,NA,NA,0,NA,NA,NA,NA,"","",NA,"","",NA,"SUPPRF06342"
"1",1699293438212,"06/11/2023 17:57:18",1699275438212,-5,"06/11/2023 07:57:18",150440,6,"task-gclj",NA,32749371,9689820,NA,"complete",NA,"6549257ddccdea07d4ac5729","computer","Desktop or Laptop","Mac OS 10.15.7","Safari 16.0","820x1180","1180x678",NA,NA,0,"Task Introduction and Instructions (removed audio and video)",6,"EFDGCHBIAJ","Passed AC2","","Spreadsheet1",NA,"","","",NA,"5","BEGIN",NA,NA,NA,NA,NA,NA,0,NA,NA,NA,NA,"","",NA,"","",NA,"SUPPRF73117"
"2",1699293443034,"06/11/2023 17:57:23",1699275443034,-5,"06/11/2023 07:57:23",150440,6,"task-gclj",NA,32749371,9689820,NA,"complete",NA,"6549257ddccdea07d4ac5729","computer","Desktop or Laptop","Mac OS 10.15.7","Safari 16.0","820x1180","1180x678",NA,NA,0,"Task Introduction and Instructions (removed audio and video)",6,"EFDGCHBIAJ","Passed AC2","","Spreadsheet1",1,"Task Instructions","Screen 1","anr7sn",1,"continue","",4247,4233,4247,4247,4233,4247,1,4247,0,0,NA,"Click To Continue","Continue Button",2,"object-1944","Task Instructions",NA,"SUPPRF73117"
"3",1699293448529,"06/11/2023 17:57:28",1699275448529,-5,"06/11/2023 07:57:28",150440,6,"task-gclj",NA,32749371,9689820,NA,"complete",NA,"6549257ddccdea07d4ac5729","computer","Desktop or Laptop","Mac OS 10.15.7","Safari 16.0","820x1180","1180x678",NA,NA,0,"Task Introduction and Instructions (removed audio and video)",6,"EFDGCHBIAJ","Passed AC2","","Spreadsheet1",1,"Task Instructions","Screen 2","ce2tc8",2,"continue","",5511,5500,5511,5511,5500,5511,1,5511,0,0,NA,"Click To Continue","Continue Button",2,"object-7","Task Instructions",NA,"SUPPRF73117"
"4",1699293451522,"06/11/2023 17:57:31",1699275451522,-5,"06/11/2023 07:57:31",150440,6,"task-gclj",NA,32749371,9689820,NA,"complete",NA,"6549257ddccdea07d4ac5729","computer","Desktop or Laptop","Mac OS 10.15.7","Safari 16.0","820x1180","1180x678",NA,NA,0,"Task Introduction and Instructions (removed audio and video)",6,"EFDGCHBIAJ","Passed AC2","","Spreadsheet1",1,"Task Instructions","Screen 3","1qtc8v",3,"continue","",3000,2983,3000,3000,2983,3000,1,3000,0,0,NA,"Click To Continue","Continue Button",2,"object-52","Task Instructions",NA,"SUPPRF73117"
"5",1699293454233,"06/11/2023 17:57:34",1699275454233,-5,"06/11/2023 07:57:34",150440,6,"task-gclj",NA,32749371,9689820,NA,"complete",NA,"6549257ddccdea07d4ac5729","computer","Desktop or Laptop","Mac OS 10.15.7","Safari 16.0","820x1180","1180x678",NA,NA,0,"Task Introduction and Instructions (removed audio and video)",6,"EFDGCHBIAJ","Passed AC2","","Spreadsheet1",1,"Task Instructions","Screen 4","spepx9",4,"continue","",2732,2716,2732,2732,2716,2732,1,2732,0,0,NA,"Click To Continue","Continue Button",2,"object-9","Task Instructions",NA,"SUPPRF73117"
"6",1699293457921,"06/11/2023 17:57:37",1699275457921,-5,"06/11/2023 07:57:37",150440,6,"task-gclj",NA,32749371,9689820,NA,"complete",NA,"6549257ddccdea07d4ac5729","computer","Desktop or Laptop","Mac OS 10.15.7","Safari 16.0","820x1180","1180x678",NA,NA,0,"Task Introduction and Instructions (removed audio and video)",6,"EFDGCHBIAJ","Passed AC2","","Spreadsheet1",1,"Task Instructions","Screen 5","8nvnao",5,"continue","",3703,3699,3703,3703,3699,3703,1,3703,0,0,NA,"Click To Continue","Continue Button",2,"object-44","Task Instructions",NA,"SUPPRF73117"
"7",1699293457923,"06/11/2023 17:57:37",1699275457923,-5,"06/11/2023 07:57:37",150440,6,"task-gclj",NA,32749371,9689820,NA,"complete",NA,"6549257ddccdea07d4ac5729","computer","Desktop or Laptop","Mac OS 10.15.7","Safari 16.0","820x1180","1180x678",NA,NA,0,"Task Introduction and Instructions (removed audio and video)",6,"EFDGCHBIAJ","Passed AC2","","Spreadsheet1",NA,"","","",NA,"5","END",NA,NA,NA,NA,NA,NA,0,NA,NA,NA,NA,"","",NA,"","",NA,"SUPPRF73117"
"1",1699293518147,"06/11/2023 17:58:38",1699293518147,0,"06/11/2023 17:58:38",150440,6,"task-gclj",NA,32749441,9689908,NA,"complete",NA,"65492736c7336fe67d4a62dc","computer","Desktop or Laptop","Mac OS 10.15.7","Chrome 116.0.0.0","1440x900","1440x729",NA,NA,0,"Task Introduction and Instructions (removed audio and video)",6,"DECFBGAHJI","Passed AC2","","Spreadsheet1",NA,"","","",NA,"5","BEGIN",NA,NA,NA,NA,NA,NA,0,NA,NA,NA,NA,"","",NA,"","",NA,"SUPPRF91978"
"2",1699293521835,"06/11/2023 17:58:41",1699293521835,0,"06/11/2023 17:58:41",150440,6,"task-gclj",NA,32749441,9689908,NA,"complete",NA,"65492736c7336fe67d4a62dc","computer","Desktop or Laptop","Mac OS 10.15.7","Chrome 116.0.0.0","1440x900","1440x729",NA,NA,0,"Task Introduction and Instructions (removed audio and video)",6,"DECFBGAHJI","Passed AC2","","Spreadsheet1",1,"Task Instructions","Screen 1","anr7sn",1,"continue","",3611.03899999851,3599.856,3611.03899999851,3611.03899999851,3599.856,3611.03899999851,1,3611.03899999851,0,0,NA,"Click To Continue","Continue Button",2,"object-1944","Task Instructions",NA,"SUPPRF91978"
"3",1699293528200,"06/11/2023 17:58:48",1699293528200,0,"06/11/2023 17:58:48",150440,6,"task-gclj",NA,32749441,9689908,NA,"complete",NA,"65492736c7336fe67d4a62dc","computer","Desktop or Laptop","Mac OS 10.15.7","Chrome 116.0.0.0","1440x900","1440x729",NA,NA,0,"Task Introduction and Instructions (removed audio and video)",6,"DECFBGAHJI","Passed AC2","","Spreadsheet1",1,"Task Instructions","Screen 2","ce2tc8",2,"continue","",6376.38300000149,6371.417,6376.38300000149,6376.38300000149,6371.417,6376.38300000149,1,6376.38300000149,0,0,NA,"Click To Continue","Continue Button",2,"object-7","Task Instructions",NA,"SUPPRF91978"
"4",1699293532800,"06/11/2023 17:58:52",1699293532800,0,"06/11/2023 17:58:52",150440,6,"task-gclj",NA,32749441,9689908,NA,"complete",NA,"65492736c7336fe67d4a62dc","computer","Desktop or Laptop","Mac OS 10.15.7","Chrome 116.0.0.0","1440x900","1440x729",NA,NA,0,"Task Introduction and Instructions (removed audio and video)",6,"DECFBGAHJI","Passed AC2","","Spreadsheet1",1,"Task Instructions","Screen 3","1qtc8v",3,"continue","",4604.366,4599.816,4604.366,4604.366,4599.816,4604.366,1,4604.366,0,0,NA,"Click To Continue","Continue Button",2,"object-52","Task Instructions",NA,"SUPPRF91978"
"5",1699293535999,"06/11/2023 17:58:55",1699293535999,0,"06/11/2023 17:58:55",150440,6,"task-gclj",NA,32749441,9689908,NA,"complete",NA,"65492736c7336fe67d4a62dc","computer","Desktop or Laptop","Mac OS 10.15.7","Chrome 116.0.0.0","1440x900","1440x729",NA,NA,0,"Task Introduction and Instructions (removed audio and video)",6,"DECFBGAHJI","Passed AC2","","Spreadsheet1",1,"Task Instructions","Screen 4","spepx9",4,"continue","",3203.75000000298,3199.872,3203.75000000298,3203.75000000298,3199.872,3203.75000000298,1,3203.75000000298,0,0,NA,"Click To Continue","Continue Button",2,"object-9","Task Instructions",NA,"SUPPRF91978"
"6",1699293539473,"06/11/2023 17:58:59",1699293539473,0,"06/11/2023 17:58:59",150440,6,"task-gclj",NA,32749441,9689908,NA,"complete",NA,"65492736c7336fe67d4a62dc","computer","Desktop or Laptop","Mac OS 10.15.7","Chrome 116.0.0.0","1440x900","1440x729",NA,NA,0,"Task Introduction and Instructions (removed audio and video)",6,"DECFBGAHJI","Passed AC2","","Spreadsheet1",1,"Task Instructions","Screen 5","8nvnao",5,"continue","",3477.37800000298,3446.484,3477.37800000298,3477.37800000298,3446.484,3477.37800000298,1,3477.37800000298,0,0,NA,"Click To Continue","Continue Button",2,"object-44","Task Instructions",NA,"SUPPRF91978"
"7",1699293539479,"06/11/2023 17:58:59",1699293539479,0,"06/11/2023 17:58:59",150440,6,"task-gclj",NA,32749441,9689908,NA,"complete",NA,"65492736c7336fe67d4a62dc","computer","Desktop or Laptop","Mac OS 10.15.7","Chrome 116.0.0.0","1440x900","1440x729",NA,NA,0,"Task Introduction and Instructions (removed audio and video)",6,"DECFBGAHJI","Passed AC2","","Spreadsheet1",NA,"","","",NA,"5","END",NA,NA,NA,NA,NA,NA,0,NA,NA,NA,NA,"","",NA,"","",NA,"SUPPRF91978"
"1",1699293590939,"06/11/2023 17:59:50",1699293590939,0,"06/11/2023 17:59:50",150440,6,"task-gclj",NA,32749508,9689929,NA,"complete",NA,"6549285764c0616165b04d6c","computer","Desktop or Laptop","Windows 10","Chrome 118.0.0.0","1920x1080","1920x969",NA,NA,0,"Task Introduction and Instructions (removed audio and video)",6,"GHFIEJDACB","Passed AC2","","Spreadsheet1",NA,"","","",NA,"5","BEGIN",NA,NA,NA,NA,NA,NA,0,NA,NA,NA,NA,"","",NA,"","",NA,"SUPPRF75922"
"2",1699293594178,"06/11/2023 17:59:54",1699293594178,0,"06/11/2023 17:59:54",150440,6,"task-gclj",NA,32749508,9689929,NA,"complete",NA,"6549285764c0616165b04d6c","computer","Desktop or Laptop","Windows 10","Chrome 118.0.0.0","1920x1080","1920x969",NA,NA,0,"Task Introduction and Instructions (removed audio and video)",6,"GHFIEJDACB","Passed AC2","","Spreadsheet1",1,"Task Instructions","Screen 1","anr7sn",1,"continue","",3185.20599999851,3180.644,3185.20599999851,3185.20599999851,3180.644,3185.20599999851,1,3185.20599999851,0,0,NA,"Click To Continue","Continue Button",2,"object-1944","Task Instructions",NA,"SUPPRF75922"
"3",1699293599526,"06/11/2023 17:59:59",1699293599526,0,"06/11/2023 17:59:59",150440,6,"task-gclj",NA,32749508,9689929,NA,"complete",NA,"6549285764c0616165b04d6c","computer","Desktop or Laptop","Windows 10","Chrome 118.0.0.0","1920x1080","1920x969",NA,NA,0,"Task Introduction and Instructions (removed audio and video)",6,"GHFIEJDACB","Passed AC2","","Spreadsheet1",1,"Task Instructions","Screen 2","ce2tc8",2,"continue","",5352.662,5347.33,5352.662,5352.662,5347.33,5352.662,1,5352.662,0,0,NA,"Click To Continue","Continue Button",2,"object-7","Task Instructions",NA,"SUPPRF75922"
"4",1699293605702,"06/11/2023 18:00:05",1699293605702,0,"06/11/2023 18:00:05",150440,6,"task-gclj",NA,32749508,9689929,NA,"complete",NA,"6549285764c0616165b04d6c","computer","Desktop or Laptop","Windows 10","Chrome 118.0.0.0","1920x1080","1920x969",NA,NA,0,"Task Introduction and Instructions (removed audio and video)",6,"GHFIEJDACB","Passed AC2","","Spreadsheet1",1,"Task Instructions","Screen 3","1qtc8v",3,"continue","",6181.53199999553,6180.807,6181.53199999553,6181.53199999553,6180.807,6181.53199999553,1,6181.53199999553,0,0,NA,"Click To Continue","Continue Button",2,"object-52","Task Instructions",NA,"SUPPRF75922"
"5",1699293614811,"06/11/2023 18:00:14",1699293614811,0,"06/11/2023 18:00:14",150440,6,"task-gclj",NA,32749508,9689929,NA,"complete",NA,"6549285764c0616165b04d6c","computer","Desktop or Laptop","Windows 10","Chrome 118.0.0.0","1920x1080","1920x969",NA,NA,0,"Task Introduction and Instructions (removed audio and video)",6,"GHFIEJDACB","Passed AC2","","Spreadsheet1",1,"Task Instructions","Screen 4","spepx9",4,"continue","",9109.42499999851,9104.525,9109.42499999851,9109.42499999851,9104.525,9109.42499999851,1,9109.42499999851,0,0,NA,"Click To Continue","Continue Button",2,"object-9","Task Instructions",NA,"SUPPRF75922"
"6",1699293617854,"06/11/2023 18:00:17",1699293617854,0,"06/11/2023 18:00:17",150440,6,"task-gclj",NA,32749508,9689929,NA,"complete",NA,"6549285764c0616165b04d6c","computer","Desktop or Laptop","Windows 10","Chrome 118.0.0.0","1920x1080","1920x969",NA,NA,0,"Task Introduction and Instructions (removed audio and video)",6,"GHFIEJDACB","Passed AC2","","Spreadsheet1",1,"Task Instructions","Screen 5","8nvnao",5,"continue","",3048.5,3041.736,3048.5,3048.5,3041.736,3048.5,1,3048.5,0,0,NA,"Click To Continue","Continue Button",2,"object-44","Task Instructions",NA,"SUPPRF75922"
"7",1699293617856,"06/11/2023 18:00:17",1699293617856,0,"06/11/2023 18:00:17",150440,6,"task-gclj",NA,32749508,9689929,NA,"complete",NA,"6549285764c0616165b04d6c","computer","Desktop or Laptop","Windows 10","Chrome 118.0.0.0","1920x1080","1920x969",NA,NA,0,"Task Introduction and Instructions (removed audio and video)",6,"GHFIEJDACB","Passed AC2","","Spreadsheet1",NA,"","","",NA,"5","END",NA,NA,NA,NA,NA,NA,0,NA,NA,NA,NA,"","",NA,"","",NA,"SUPPRF75922"
"1",1699293720451,"06/11/2023 18:02:00",1699293720451,0,"06/11/2023 18:02:00",150440,6,"task-gclj",NA,32749600,9689856,NA,"complete",NA,"654926836b82914a2567a905","computer","Desktop or Laptop","Windows 10","Chrome 118.0.0.0","1280x720","1280x610",NA,NA,0,"Task Introduction and Instructions (removed audio and video)",6,"HIGJFAEBDC","Passed AC2","","Spreadsheet1",NA,"","","",NA,"5","BEGIN",NA,NA,NA,NA,NA,NA,0,NA,NA,NA,NA,"","",NA,"","",NA,"SUPPRF94497"
"2",1699293725360,"06/11/2023 18:02:05",1699293725360,0,"06/11/2023 18:02:05",150440,6,"task-gclj",NA,32749600,9689856,NA,"complete",NA,"654926836b82914a2567a905","computer","Desktop or Laptop","Windows 10","Chrome 118.0.0.0","1280x720","1280x610",NA,NA,0,"Task Introduction and Instructions (removed audio and video)",6,"HIGJFAEBDC","Passed AC2","","Spreadsheet1",1,"Task Instructions","Screen 1","anr7sn",1,"continue","",4833.993,4825.54,4833.993,4833.993,4825.54,4833.993,1,4833.993,0,0,NA,"Click To Continue","Continue Button",2,"object-1944","Task Instructions",NA,"SUPPRF94497"
"3",1699293748578,"06/11/2023 18:02:28",1699293748578,0,"06/11/2023 18:02:28",150440,6,"task-gclj",NA,32749600,9689856,NA,"complete",NA,"654926836b82914a2567a905","computer","Desktop or Laptop","Windows 10","Chrome 118.0.0.0","1280x720","1280x610",NA,NA,0,"Task Introduction and Instructions (removed audio and video)",6,"HIGJFAEBDC","Passed AC2","","Spreadsheet1",1,"Task Instructions","Screen 2","ce2tc8",2,"continue","",23228.379000006,23223.91,23228.379000006,23228.379000006,23223.91,23228.379000006,1,23228.379000006,0,0,NA,"Click To Continue","Continue Button",2,"object-7","Task Instructions",NA,"SUPPRF94497"
"4",1699293751567,"06/11/2023 18:02:31",1699293751567,0,"06/11/2023 18:02:31",150440,6,"task-gclj",NA,32749600,9689856,NA,"complete",NA,"654926836b82914a2567a905","computer","Desktop or Laptop","Windows 10","Chrome 118.0.0.0","1280x720","1280x610",NA,NA,0,"Task Introduction and Instructions (removed audio and video)",6,"HIGJFAEBDC","Passed AC2","","Spreadsheet1",1,"Task Instructions","Screen 3","1qtc8v",3,"continue","",2992.66899999404,2991.36,2992.66899999404,2992.66899999404,2991.36,2992.66899999404,1,2992.66899999404,0,0,NA,"Click To Continue","Continue Button",2,"object-52","Task Instructions",NA,"SUPPRF94497"
"5",1699293754215,"06/11/2023 18:02:34",1699293754215,0,"06/11/2023 18:02:34",150440,6,"task-gclj",NA,32749600,9689856,NA,"complete",NA,"654926836b82914a2567a905","computer","Desktop or Laptop","Windows 10","Chrome 118.0.0.0","1280x720","1280x610",NA,NA,0,"Task Introduction and Instructions (removed audio and video)",6,"HIGJFAEBDC","Passed AC2","","Spreadsheet1",1,"Task Instructions","Screen 4","spepx9",4,"continue","",2650.00900001192,2642.018,2650.00900001192,2650.00900001192,2642.018,2650.00900001192,1,2650.00900001192,0,0,NA,"Click To Continue","Continue Button",2,"object-9","Task Instructions",NA,"SUPPRF94497"
"6",1699293756918,"06/11/2023 18:02:36",1699293756918,0,"06/11/2023 18:02:36",150440,6,"task-gclj",NA,32749600,9689856,NA,"complete",NA,"654926836b82914a2567a905","computer","Desktop or Laptop","Windows 10","Chrome 118.0.0.0","1280x720","1280x610",NA,NA,0,"Task Introduction and Instructions (removed audio and video)",6,"HIGJFAEBDC","Passed AC2","","Spreadsheet1",1,"Task Instructions","Screen 5","8nvnao",5,"continue","",2710.59100000596,2707.834,2710.59100000596,2710.59100000596,2707.834,2710.59100000596,1,2710.59100000596,0,0,NA,"Click To Continue","Continue Button",2,"object-44","Task Instructions",NA,"SUPPRF94497"
"7",1699293756919,"06/11/2023 18:02:36",1699293756919,0,"06/11/2023 18:02:36",150440,6,"task-gclj",NA,32749600,9689856,NA,"complete",NA,"654926836b82914a2567a905","computer","Desktop or Laptop","Windows 10","Chrome 118.0.0.0","1280x720","1280x610",NA,NA,0,"Task Introduction and Instructions (removed audio and video)",6,"HIGJFAEBDC","Passed AC2","","Spreadsheet1",NA,"","","",NA,"5","END",NA,NA,NA,NA,NA,NA,0,NA,NA,NA,NA,"","",NA,"","",NA,"SUPPRF94497"
"1",1699293829397,"06/11/2023 18:03:49",1699293829397,0,"06/11/2023 18:03:49",150440,6,"task-gclj",NA,32749689,9689859,NA,"complete",NA,"6549264a4aee1ebbb0c52283","computer","Desktop or Laptop","Windows 10","Chrome 118.0.0.0","1549x872","1550x754",NA,NA,0,"Task Introduction and Instructions (removed audio and video)",6,"IJHAGBFCED","Passed AC2","","Spreadsheet1",NA,"","","",NA,"5","BEGIN",NA,NA,NA,NA,NA,NA,0,NA,NA,NA,NA,"","",NA,"","",NA,"SUPPRF15709"
"2",1699293834015,"06/11/2023 18:03:54",1699293834015,0,"06/11/2023 18:03:54",150440,6,"task-gclj",NA,32749689,9689859,NA,"complete",NA,"6549264a4aee1ebbb0c52283","computer","Desktop or Laptop","Windows 10","Chrome 118.0.0.0","1549x872","1550x754",NA,NA,0,"Task Introduction and Instructions (removed audio and video)",6,"IJHAGBFCED","Passed AC2","","Spreadsheet1",1,"Task Instructions","Screen 1","anr7sn",1,"continue","",4339.34400007153,4332.061,4339.34400007153,4339.34400007153,4332.061,4339.34400007153,1,4339.34400007153,0,0,NA,"Click To Continue","Continue Button",2,"object-1944","Task Instructions",NA,"SUPPRF15709"
"3",1699293848608,"06/11/2023 18:04:08",1699293848608,0,"06/11/2023 18:04:08",150440,6,"task-gclj",NA,32749689,9689859,NA,"complete",NA,"6549264a4aee1ebbb0c52283","computer","Desktop or Laptop","Windows 10","Chrome 118.0.0.0","1549x872","1550x754",NA,NA,0,"Task Introduction and Instructions (removed audio and video)",6,"IJHAGBFCED","Passed AC2","","Spreadsheet1",1,"Task Instructions","Screen 2","ce2tc8",2,"continue","",14599.7830000715,14594.888,14599.7830000715,14599.7830000715,14594.888,14599.7830000715,1,14599.7830000715,0,0,NA,"Click To Continue","Continue Button",2,"object-7","Task Instructions",NA,"SUPPRF15709"
"4",1699293852598,"06/11/2023 18:04:12",1699293852598,0,"06/11/2023 18:04:12",150440,6,"task-gclj",NA,32749689,9689859,NA,"complete",NA,"6549264a4aee1ebbb0c52283","computer","Desktop or Laptop","Windows 10","Chrome 118.0.0.0","1549x872","1550x754",NA,NA,0,"Task Introduction and Instructions (removed audio and video)",6,"IJHAGBFCED","Passed AC2","","Spreadsheet1",1,"Task Instructions","Screen 3","1qtc8v",3,"continue","",3994.595,3981.949,3994.595,3994.595,3981.949,3994.595,1,3994.595,0,0,NA,"Click To Continue","Continue Button",2,"object-52","Task Instructions",NA,"SUPPRF15709"
"5",1699293856247,"06/11/2023 18:04:16",1699293856247,0,"06/11/2023 18:04:16",150440,6,"task-gclj",NA,32749689,9689859,NA,"complete",NA,"6549264a4aee1ebbb0c52283","computer","Desktop or Laptop","Windows 10","Chrome 118.0.0.0","1549x872","1550x754",NA,NA,0,"Task Introduction and Instructions (removed audio and video)",6,"IJHAGBFCED","Passed AC2","","Spreadsheet1",1,"Task Instructions","Screen 4","spepx9",4,"continue","",3661.34600004768,3648.75,3661.34600004768,3661.34600004768,3648.75,3661.34600004768,1,3661.34600004768,0,0,NA,"Click To Continue","Continue Button",2,"object-9","Task Instructions",NA,"SUPPRF15709"
"6",1699293859734,"06/11/2023 18:04:19",1699293859734,0,"06/11/2023 18:04:19",150440,6,"task-gclj",NA,32749689,9689859,NA,"complete",NA,"6549264a4aee1ebbb0c52283","computer","Desktop or Laptop","Windows 10","Chrome 118.0.0.0","1549x872","1550x754",NA,NA,0,"Task Introduction and Instructions (removed audio and video)",6,"IJHAGBFCED","Passed AC2","","Spreadsheet1",1,"Task Instructions","Screen 5","8nvnao",5,"continue","",3498.796,3482.161,3498.796,3498.796,3482.161,3498.796,1,3498.796,0,0,NA,"Click To Continue","Continue Button",2,"object-44","Task Instructions",NA,"SUPPRF15709"
"7",1699293859739,"06/11/2023 18:04:19",1699293859739,0,"06/11/2023 18:04:19",150440,6,"task-gclj",NA,32749689,9689859,NA,"complete",NA,"6549264a4aee1ebbb0c52283","computer","Desktop or Laptop","Windows 10","Chrome 118.0.0.0","1549x872","1550x754",NA,NA,0,"Task Introduction and Instructions (removed audio and video)",6,"IJHAGBFCED","Passed AC2","","Spreadsheet1",NA,"","","",NA,"5","END",NA,NA,NA,NA,NA,NA,0,NA,NA,NA,NA,"","",NA,"","",NA,"SUPPRF15709"
"1",1699293914963,"06/11/2023 18:05:14",1699297514963,1,"06/11/2023 20:05:14",150440,6,"task-gclj",NA,32749775,9689890,NA,"complete",NA,"654926c4cadf98583a67a7d9","computer","Desktop or Laptop","Windows 10","Chrome 118.0.0.0","1366x768","1366x651",NA,NA,0,"Task Introduction and Instructions (removed audio and video)",6,"ABJCIDHEGF","Failed AC2","Passed AC1","Spreadsheet1",NA,"","","",NA,"5","BEGIN",NA,NA,NA,NA,NA,NA,0,NA,NA,NA,NA,"","",NA,"","",NA,"SUPPRF43675"
