"Event.Index","UTC.Timestamp","UTC.Date.and.Time","Local.Timestamp","Local.Timezone","Local.Date.and.Time","Experiment.ID","Experiment.Version","Tree.Node.Key","Repeat.Key","Schedule.ID","Participant.Private.ID","Participant.Starting.Group","Participant.Status","Participant.Completion.Code","Participant.External.Session.ID","Participant.Device.Type","Participant.Device","Participant.OS","Participant.Browser","Participant.Monitor.Size","Participant.Viewport.Size","Checkpoint","Room.ID","Room.Order","Task.Name","Task.Version","order.ot79","branch.g31k","branch.5gtn","Spreadsheet","Trial.Number","Display","Screen","Screen.ID","Screen.Counter","Response.Type","Response","Onset.Time","Clock.Time","Reaction.Time","Absolute.Onset.Time","Absolute.Clock.Time","Absolute.Reaction.Time","Correct","Response.Onset","Response.Duration","Proportion","Tag","Component.Name","Object.Name","Object.Number","Object.ID","Spreadsheet..display","Manipulation..Spreadsheet","Random_ID"
"1",1699291312537,"06/11/2023 17:21:52",1699291312537,0,"06/11/2023 17:21:52",150440,6,"task-gjqt",NA,32747766,9689456,NA,"complete",NA,"65491d352516b994de3f9e6b","computer","Desktop or Laptop","Mac OS 10.15.7","Chrome 118.0.0.0","1440x900","1440x783",NA,NA,0,"BIQ (Charlotte)",3,"ABJCIDHEGF","Passed AC2","","Spreadsheet1",NA,"","","",NA,"5","BEGIN",NA,NA,NA,NA,NA,NA,0,NA,NA,NA,NA,"","",NA,"","",NA,"SUPPRF31306"
"2",1699291369947,"06/11/2023 17:22:49",1699291369947,0,"06/11/2023 17:22:49",150440,6,"task-gjqt",NA,32747766,9689456,NA,"complete",NA,"65491d352516b994de3f9e6b","computer","Desktop or Laptop","Mac OS 10.15.7","Chrome 118.0.0.0","1440x900","1440x783",NA,NA,0,"BIQ (Charlotte)",3,"ABJCIDHEGF","Passed AC2","","Spreadsheet1",1,"BIQ","Screen 1","9dh6eq",1,"continue","",57427.498,57410.832,57427.498,57427.498,57410.832,57427.498,1,57427.498,0,0,NA,"Click To Continue","Continue Button",23,"object-48","BIQ",NA,"SUPPRF31306"
"3",1699291369950,"06/11/2023 17:22:49",1699291369950,0,"06/11/2023 17:22:49",150440,6,"task-gjqt",NA,32747766,9689456,NA,"complete",NA,"65491d352516b994de3f9e6b","computer","Desktop or Laptop","Mac OS 10.15.7","Chrome 118.0.0.0","1440x900","1440x783",NA,NA,0,"BIQ (Charlotte)",3,"ABJCIDHEGF","Passed AC2","","Spreadsheet1",1,"BIQ","Screen 1","9dh6eq",1,"response","2",33274.895,57410.832,57427.498,33274.895,57410.832,57427.498,1,33274.895,24152.603,0,NA,"Rating Scale","Rating Scale",3,"object-5","BIQ",NA,"SUPPRF31306"
"4",1699291369950,"06/11/2023 17:22:49",1699291369950,0,"06/11/2023 17:22:49",150440,6,"task-gjqt",NA,32747766,9689456,NA,"complete",NA,"65491d352516b994de3f9e6b","computer","Desktop or Laptop","Mac OS 10.15.7","Chrome 118.0.0.0","1440x900","1440x783",NA,NA,0,"BIQ (Charlotte)",3,"ABJCIDHEGF","Passed AC2","","Spreadsheet1",1,"BIQ","Screen 1","9dh6eq",1,"response","6",45395.122,57410.832,57427.498,45395.122,57410.832,57427.498,1,45395.122,12032.376,0,NA,"Rating Scale","Rating Scale",10,"object-18","BIQ",NA,"SUPPRF31306"
"5",1699291369951,"06/11/2023 17:22:49",1699291369951,0,"06/11/2023 17:22:49",150440,6,"task-gjqt",NA,32747766,9689456,NA,"complete",NA,"65491d352516b994de3f9e6b","computer","Desktop or Laptop","Mac OS 10.15.7","Chrome 118.0.0.0","1440x900","1440x783",NA,NA,0,"BIQ (Charlotte)",3,"ABJCIDHEGF","Passed AC2","","Spreadsheet1",1,"BIQ","Screen 1","9dh6eq",1,"response","1",54677.608,57410.832,57427.498,54677.608,57410.832,57427.498,1,54677.608,2749.88999999999,0,NA,"Rating Scale","Rating Scale",17,"object-80","BIQ",NA,"SUPPRF31306"
"6",1699291394223,"06/11/2023 17:23:14",1699291394223,0,"06/11/2023 17:23:14",150440,6,"task-gjqt",NA,32747766,9689456,NA,"complete",NA,"65491d352516b994de3f9e6b","computer","Desktop or Laptop","Mac OS 10.15.7","Chrome 118.0.0.0","1440x900","1440x783",NA,NA,0,"BIQ (Charlotte)",3,"ABJCIDHEGF","Passed AC2","","Spreadsheet1",1,"BIQ","Screen 2","o21mwi",2,"continue","",24302.798,24294.661,24302.798,24302.798,24294.661,24302.798,1,24302.798,0,0,NA,"Click To Continue","Continue Button",22,"object-50","BIQ",NA,"SUPPRF31306"
"7",1699291394229,"06/11/2023 17:23:14",1699291394229,0,"06/11/2023 17:23:14",150440,6,"task-gjqt",NA,32747766,9689456,NA,"complete",NA,"65491d352516b994de3f9e6b","computer","Desktop or Laptop","Mac OS 10.15.7","Chrome 118.0.0.0","1440x900","1440x783",NA,NA,0,"BIQ (Charlotte)",3,"ABJCIDHEGF","Passed AC2","","Spreadsheet1",1,"BIQ","Screen 2","o21mwi",2,"response","7",13927.933,24294.661,24308.798,13927.933,24294.661,24308.798,1,13927.933,10380.865,0,NA,"Rating Scale","Rating Scale",2,"object-259","BIQ",NA,"SUPPRF31306"
"8",1699291394230,"06/11/2023 17:23:14",1699291394230,0,"06/11/2023 17:23:14",150440,6,"task-gjqt",NA,32747766,9689456,NA,"complete",NA,"65491d352516b994de3f9e6b","computer","Desktop or Laptop","Mac OS 10.15.7","Chrome 118.0.0.0","1440x900","1440x783",NA,NA,0,"BIQ (Charlotte)",3,"ABJCIDHEGF","Passed AC2","","Spreadsheet1",1,"BIQ","Screen 2","o21mwi",2,"response","7",17651.143,24294.661,24309.897999994,17651.143,24294.661,24309.897999994,1,17651.143,6658.75499999404,0,NA,"Rating Scale","Rating Scale",9,"object-36","BIQ",NA,"SUPPRF31306"
"9",1699291394231,"06/11/2023 17:23:14",1699291394231,0,"06/11/2023 17:23:14",150440,6,"task-gjqt",NA,32747766,9689456,NA,"complete",NA,"65491d352516b994de3f9e6b","computer","Desktop or Laptop","Mac OS 10.15.7","Chrome 118.0.0.0","1440x900","1440x783",NA,NA,0,"BIQ (Charlotte)",3,"ABJCIDHEGF","Passed AC2","","Spreadsheet1",1,"BIQ","Screen 2","o21mwi",2,"response","1",23250.919,24294.661,24310.698000006,23250.919,24294.661,24310.698000006,1,23250.919,1059.77900000596,0,NA,"Rating Scale","Rating Scale",16,"object-86","BIQ",NA,"SUPPRF31306"
"10",1699291415029,"06/11/2023 17:23:35",1699291415029,0,"06/11/2023 17:23:35",150440,6,"task-gjqt",NA,32747766,9689456,NA,"complete",NA,"65491d352516b994de3f9e6b","computer","Desktop or Laptop","Mac OS 10.15.7","Chrome 118.0.0.0","1440x900","1440x783",NA,NA,0,"BIQ (Charlotte)",3,"ABJCIDHEGF","Passed AC2","","Spreadsheet1",1,"BIQ","Screen 3","iz3the",3,"continue","",20814.236999994,20809.482,20814.236999994,20814.236999994,20809.482,20814.236999994,1,20814.236999994,0,0,NA,"Click To Continue","Continue Button",22,"object-73","BIQ",NA,"SUPPRF31306"
"11",1699291415034,"06/11/2023 17:23:35",1699291415034,0,"06/11/2023 17:23:35",150440,6,"task-gjqt",NA,32747766,9689456,NA,"complete",NA,"65491d352516b994de3f9e6b","computer","Desktop or Laptop","Mac OS 10.15.7","Chrome 118.0.0.0","1440x900","1440x783",NA,NA,0,"BIQ (Charlotte)",3,"ABJCIDHEGF","Passed AC2","","Spreadsheet1",1,"BIQ","Screen 3","iz3the",3,"response","0",5733.10400000001,20809.482,20819.3369999881,5733.10400000001,20809.482,20819.3369999881,1,5733.10400000001,15086.2329999881,0,NA,"Rating Scale","Rating Scale",2,"object-53","BIQ",NA,"SUPPRF31306"
"12",1699291415036,"06/11/2023 17:23:35",1699291415036,0,"06/11/2023 17:23:35",150440,6,"task-gjqt",NA,32747766,9689456,NA,"complete",NA,"65491d352516b994de3f9e6b","computer","Desktop or Laptop","Mac OS 10.15.7","Chrome 118.0.0.0","1440x900","1440x783",NA,NA,0,"BIQ (Charlotte)",3,"ABJCIDHEGF","Passed AC2","","Spreadsheet1",1,"BIQ","Screen 3","iz3the",3,"response","3",13033.179,20809.482,20820.9369999821,13033.179,20809.482,20820.9369999821,1,13033.179,7787.75799998212,0,NA,"Rating Scale","Rating Scale",9,"object-60","BIQ",NA,"SUPPRF31306"
"13",1699291415037,"06/11/2023 17:23:35",1699291415037,0,"06/11/2023 17:23:35",150440,6,"task-gjqt",NA,32747766,9689456,NA,"complete",NA,"65491d352516b994de3f9e6b","computer","Desktop or Laptop","Mac OS 10.15.7","Chrome 118.0.0.0","1440x900","1440x783",NA,NA,0,"BIQ (Charlotte)",3,"ABJCIDHEGF","Passed AC2","","Spreadsheet1",1,"BIQ","Screen 3","iz3the",3,"response","4",17682.993,20809.482,20822.637,17682.993,20809.482,20822.637,1,17682.993,3139.644,0,NA,"Rating Scale","Rating Scale",16,"object-67","BIQ",NA,"SUPPRF31306"
"14",1699291415044,"06/11/2023 17:23:35",1699291415044,0,"06/11/2023 17:23:35",150440,6,"task-gjqt",NA,32747766,9689456,NA,"complete",NA,"65491d352516b994de3f9e6b","computer","Desktop or Laptop","Mac OS 10.15.7","Chrome 118.0.0.0","1440x900","1440x783",NA,NA,0,"BIQ (Charlotte)",3,"ABJCIDHEGF","Passed AC2","","Spreadsheet1",NA,"","","",NA,"5","END",NA,NA,NA,NA,NA,NA,0,NA,NA,NA,NA,"","",NA,"","",NA,"SUPPRF31306"
"1",1699292054247,"06/11/2023 17:34:14",1699292054247,0,"06/11/2023 17:34:14",150440,6,"task-gjqt",NA,32748389,9689563,NA,"complete",NA,"65491fe7bf070a5a4f1860e2","computer","Desktop or Laptop","Windows 10","Chrome 118.0.0.0","1280x720","1280x642",NA,NA,0,"BIQ (Charlotte)",3,"BCADJEIFHG","Passed AC2","","Spreadsheet1",NA,"","","",NA,"5","BEGIN",NA,NA,NA,NA,NA,NA,0,NA,NA,NA,NA,"","",NA,"","",NA,"SUPPRF86350"
"2",1699292116156,"06/11/2023 17:35:16",1699292116156,0,"06/11/2023 17:35:16",150440,6,"task-gjqt",NA,32748389,9689563,NA,"complete",NA,"65491fe7bf070a5a4f1860e2","computer","Desktop or Laptop","Windows 10","Chrome 118.0.0.0","1280x720","1280x642",NA,NA,0,"BIQ (Charlotte)",3,"BCADJEIFHG","Passed AC2","","Spreadsheet1",1,"BIQ","Screen 1","9dh6eq",1,"continue","",61932.641,61916.028,61932.641,61932.641,61916.028,61932.641,1,61932.641,0,0,NA,"Click To Continue","Continue Button",23,"object-48","BIQ",NA,"SUPPRF86350"
"3",1699292116163,"06/11/2023 17:35:16",1699292116163,0,"06/11/2023 17:35:16",150440,6,"task-gjqt",NA,32748389,9689563,NA,"complete",NA,"65491fe7bf070a5a4f1860e2","computer","Desktop or Laptop","Windows 10","Chrome 118.0.0.0","1280x720","1280x642",NA,NA,0,"BIQ (Charlotte)",3,"BCADJEIFHG","Passed AC2","","Spreadsheet1",1,"BIQ","Screen 1","9dh6eq",1,"response","5",47590.547,61916.028,61932.641,47590.547,61916.028,61932.641,1,47590.547,14342.094,0,NA,"Rating Scale","Rating Scale",3,"object-5","BIQ",NA,"SUPPRF86350"
"4",1699292116164,"06/11/2023 17:35:16",1699292116164,0,"06/11/2023 17:35:16",150440,6,"task-gjqt",NA,32748389,9689563,NA,"complete",NA,"65491fe7bf070a5a4f1860e2","computer","Desktop or Laptop","Windows 10","Chrome 118.0.0.0","1280x720","1280x642",NA,NA,0,"BIQ (Charlotte)",3,"BCADJEIFHG","Passed AC2","","Spreadsheet1",1,"BIQ","Screen 1","9dh6eq",1,"response","6",52054.792,61916.028,61932.641,52054.792,61916.028,61932.641,1,52054.792,9877.84900000001,0,NA,"Rating Scale","Rating Scale",10,"object-18","BIQ",NA,"SUPPRF86350"
"5",1699292116166,"06/11/2023 17:35:16",1699292116166,0,"06/11/2023 17:35:16",150440,6,"task-gjqt",NA,32748389,9689563,NA,"complete",NA,"65491fe7bf070a5a4f1860e2","computer","Desktop or Laptop","Windows 10","Chrome 118.0.0.0","1280x720","1280x642",NA,NA,0,"BIQ (Charlotte)",3,"BCADJEIFHG","Passed AC2","","Spreadsheet1",1,"BIQ","Screen 1","9dh6eq",1,"response","3",61349.773,61916.028,61932.641,61349.773,61916.028,61932.641,1,61349.773,582.868000000009,0,NA,"Rating Scale","Rating Scale",17,"object-80","BIQ",NA,"SUPPRF86350"
"6",1699292164126,"06/11/2023 17:36:04",1699292164126,0,"06/11/2023 17:36:04",150440,6,"task-gjqt",NA,32748389,9689563,NA,"complete",NA,"65491fe7bf070a5a4f1860e2","computer","Desktop or Laptop","Windows 10","Chrome 118.0.0.0","1280x720","1280x642",NA,NA,0,"BIQ (Charlotte)",3,"BCADJEIFHG","Passed AC2","","Spreadsheet1",1,"BIQ","Screen 2","o21mwi",2,"continue","",48006.8560000119,47990.386,48006.8560000119,48006.8560000119,47990.386,48006.8560000119,1,48006.8560000119,0,0,NA,"Click To Continue","Continue Button",22,"object-50","BIQ",NA,"SUPPRF86350"
"7",1699292164135,"06/11/2023 17:36:04",1699292164135,0,"06/11/2023 17:36:04",150440,6,"task-gjqt",NA,32748389,9689563,NA,"complete",NA,"65491fe7bf070a5a4f1860e2","computer","Desktop or Laptop","Windows 10","Chrome 118.0.0.0","1280x720","1280x642",NA,NA,0,"BIQ (Charlotte)",3,"BCADJEIFHG","Passed AC2","","Spreadsheet1",1,"BIQ","Screen 2","o21mwi",2,"response","8",4381.25599999999,47990.386,48007.138,4381.25599999999,47990.386,48007.138,1,4381.25599999999,43625.882,0,NA,"Rating Scale","Rating Scale",2,"object-259","BIQ",NA,"SUPPRF86350"
"8",1699292164136,"06/11/2023 17:36:04",1699292164136,0,"06/11/2023 17:36:04",150440,6,"task-gjqt",NA,32748389,9689563,NA,"complete",NA,"65491fe7bf070a5a4f1860e2","computer","Desktop or Laptop","Windows 10","Chrome 118.0.0.0","1280x720","1280x642",NA,NA,0,"BIQ (Charlotte)",3,"BCADJEIFHG","Passed AC2","","Spreadsheet1",1,"BIQ","Screen 2","o21mwi",2,"response","5",30066.856,47990.386,48007.138,30066.856,47990.386,48007.138,1,30066.856,17940.282,0,NA,"Rating Scale","Rating Scale",9,"object-36","BIQ",NA,"SUPPRF86350"
"9",1699292164138,"06/11/2023 17:36:04",1699292164138,0,"06/11/2023 17:36:04",150440,6,"task-gjqt",NA,32748389,9689563,NA,"complete",NA,"65491fe7bf070a5a4f1860e2","computer","Desktop or Laptop","Windows 10","Chrome 118.0.0.0","1280x720","1280x642",NA,NA,0,"BIQ (Charlotte)",3,"BCADJEIFHG","Passed AC2","","Spreadsheet1",1,"BIQ","Screen 2","o21mwi",2,"response","2",43925.881,47990.386,48007.138,43925.881,47990.386,48007.138,1,43925.881,4081.25700000001,0,NA,"Rating Scale","Rating Scale",16,"object-86","BIQ",NA,"SUPPRF86350"
"10",1699292181451,"06/11/2023 17:36:21",1699292181451,0,"06/11/2023 17:36:21",150440,6,"task-gjqt",NA,32748389,9689563,NA,"complete",NA,"65491fe7bf070a5a4f1860e2","computer","Desktop or Laptop","Windows 10","Chrome 118.0.0.0","1280x720","1280x642",NA,NA,0,"BIQ (Charlotte)",3,"BCADJEIFHG","Passed AC2","","Spreadsheet1",1,"BIQ","Screen 3","iz3the",3,"continue","",17340.337,17323.756,17340.337,17340.337,17323.756,17340.337,1,17340.337,0,0,NA,"Click To Continue","Continue Button",22,"object-73","BIQ",NA,"SUPPRF86350"
"11",1699292181458,"06/11/2023 17:36:21",1699292181458,0,"06/11/2023 17:36:21",150440,6,"task-gjqt",NA,32748389,9689563,NA,"complete",NA,"65491fe7bf070a5a4f1860e2","computer","Desktop or Laptop","Windows 10","Chrome 118.0.0.0","1280x720","1280x642",NA,NA,0,"BIQ (Charlotte)",3,"BCADJEIFHG","Passed AC2","","Spreadsheet1",1,"BIQ","Screen 3","iz3the",3,"response","0",6862.83499999999,17323.756,17340.337,6862.83499999999,17323.756,17340.337,1,6862.83499999999,10477.502,0,NA,"Rating Scale","Rating Scale",2,"object-53","BIQ",NA,"SUPPRF86350"
"12",1699292181460,"06/11/2023 17:36:21",1699292181460,0,"06/11/2023 17:36:21",150440,6,"task-gjqt",NA,32748389,9689563,NA,"complete",NA,"65491fe7bf070a5a4f1860e2","computer","Desktop or Laptop","Windows 10","Chrome 118.0.0.0","1280x720","1280x642",NA,NA,0,"BIQ (Charlotte)",3,"BCADJEIFHG","Passed AC2","","Spreadsheet1",1,"BIQ","Screen 3","iz3the",3,"response","0",11510.332,17323.756,17340.337,11510.332,17323.756,17340.337,1,11510.332,5830.00499999999,0,NA,"Rating Scale","Rating Scale",9,"object-60","BIQ",NA,"SUPPRF86350"
"13",1699292181461,"06/11/2023 17:36:21",1699292181461,0,"06/11/2023 17:36:21",150440,6,"task-gjqt",NA,32748389,9689563,NA,"complete",NA,"65491fe7bf070a5a4f1860e2","computer","Desktop or Laptop","Windows 10","Chrome 118.0.0.0","1280x720","1280x642",NA,NA,0,"BIQ (Charlotte)",3,"BCADJEIFHG","Passed AC2","","Spreadsheet1",1,"BIQ","Screen 3","iz3the",3,"response","4",15025.24,17323.756,17340.337,15025.24,17323.756,17340.337,1,15025.24,2315.09699999998,0,NA,"Rating Scale","Rating Scale",16,"object-67","BIQ",NA,"SUPPRF86350"
"14",1699292181477,"06/11/2023 17:36:21",1699292181477,0,"06/11/2023 17:36:21",150440,6,"task-gjqt",NA,32748389,9689563,NA,"complete",NA,"65491fe7bf070a5a4f1860e2","computer","Desktop or Laptop","Windows 10","Chrome 118.0.0.0","1280x720","1280x642",NA,NA,0,"BIQ (Charlotte)",3,"BCADJEIFHG","Passed AC2","","Spreadsheet1",NA,"","","",NA,"5","END",NA,NA,NA,NA,NA,NA,0,NA,NA,NA,NA,"","",NA,"","",NA,"SUPPRF86350"
"1",1699292021214,"06/11/2023 17:33:41",1699292021214,0,"06/11/2023 17:33:41",150440,6,"task-gjqt",NA,32748342,9689627,NA,"complete",NA,"654920b672f8f0b8d9219fd2","computer","Desktop or Laptop","Windows 10","Edge 119.0.0.0","1440x960","1392x834",NA,NA,0,"BIQ (Charlotte)",3,"CDBEAFJGIH","Passed AC2","","Spreadsheet1",NA,"","","",NA,"5","BEGIN",NA,NA,NA,NA,NA,NA,0,NA,NA,NA,NA,"","",NA,"","",NA,"SUPPRF93485"
"2",1699292110027,"06/11/2023 17:35:10",1699292110027,0,"06/11/2023 17:35:10",150440,6,"task-gjqt",NA,32748342,9689627,NA,"complete",NA,"654920b672f8f0b8d9219fd2","computer","Desktop or Laptop","Windows 10","Edge 119.0.0.0","1440x960","1392x834",NA,NA,0,"BIQ (Charlotte)",3,"CDBEAFJGIH","Passed AC2","","Spreadsheet1",1,"BIQ","Screen 1","9dh6eq",1,"continue","",88866.918,88850.043,88866.918,88866.918,88850.043,88866.918,1,88866.918,0,0,NA,"Click To Continue","Continue Button",23,"object-48","BIQ",NA,"SUPPRF93485"
"3",1699292110031,"06/11/2023 17:35:10",1699292110031,0,"06/11/2023 17:35:10",150440,6,"task-gjqt",NA,32748342,9689627,NA,"complete",NA,"654920b672f8f0b8d9219fd2","computer","Desktop or Laptop","Windows 10","Edge 119.0.0.0","1440x960","1392x834",NA,NA,0,"BIQ (Charlotte)",3,"CDBEAFJGIH","Passed AC2","","Spreadsheet1",1,"BIQ","Screen 1","9dh6eq",1,"response","6",82278.278,88850.043,88866.918,82278.278,88850.043,88866.918,1,82278.278,6588.64,0,NA,"Rating Scale","Rating Scale",3,"object-5","BIQ",NA,"SUPPRF93485"
"4",1699292110031,"06/11/2023 17:35:10",1699292110031,0,"06/11/2023 17:35:10",150440,6,"task-gjqt",NA,32748342,9689627,NA,"complete",NA,"654920b672f8f0b8d9219fd2","computer","Desktop or Laptop","Windows 10","Edge 119.0.0.0","1440x960","1392x834",NA,NA,0,"BIQ (Charlotte)",3,"CDBEAFJGIH","Passed AC2","","Spreadsheet1",1,"BIQ","Screen 1","9dh6eq",1,"response","8",83545.824,88850.043,88866.918,83545.824,88850.043,88866.918,1,83545.824,5321.094,0,NA,"Rating Scale","Rating Scale",10,"object-18","BIQ",NA,"SUPPRF93485"
"5",1699292110033,"06/11/2023 17:35:10",1699292110033,0,"06/11/2023 17:35:10",150440,6,"task-gjqt",NA,32748342,9689627,NA,"complete",NA,"654920b672f8f0b8d9219fd2","computer","Desktop or Laptop","Windows 10","Edge 119.0.0.0","1440x960","1392x834",NA,NA,0,"BIQ (Charlotte)",3,"CDBEAFJGIH","Passed AC2","","Spreadsheet1",1,"BIQ","Screen 1","9dh6eq",1,"response","5",88015.972,88850.043,88866.918,88015.972,88850.043,88866.918,1,88015.972,850.945999999996,0,NA,"Rating Scale","Rating Scale",17,"object-80","BIQ",NA,"SUPPRF93485"
"6",1699292116162,"06/11/2023 17:35:16",1699292116162,0,"06/11/2023 17:35:16",150440,6,"task-gjqt",NA,32748342,9689627,NA,"complete",NA,"654920b672f8f0b8d9219fd2","computer","Desktop or Laptop","Windows 10","Edge 119.0.0.0","1440x960","1392x834",NA,NA,0,"BIQ (Charlotte)",3,"CDBEAFJGIH","Passed AC2","","Spreadsheet1",1,"BIQ","Screen 2","o21mwi",2,"continue","",6163.36199980926,6154.584,6163.36199980926,6163.36199980926,6154.584,6163.36199980926,1,6163.36199980926,0,0,NA,"Click To Continue","Continue Button",22,"object-50","BIQ",NA,"SUPPRF93485"
"7",1699292116163,"06/11/2023 17:35:16",1699292116163,0,"06/11/2023 17:35:16",150440,6,"task-gjqt",NA,32748342,9689627,NA,"complete",NA,"654920b672f8f0b8d9219fd2","computer","Desktop or Laptop","Windows 10","Edge 119.0.0.0","1440x960","1392x834",NA,NA,0,"BIQ (Charlotte)",3,"CDBEAFJGIH","Passed AC2","","Spreadsheet1",1,"BIQ","Screen 2","o21mwi",2,"response","6",3118.80799999999,6154.584,6164.06199985695,3118.80799999999,6154.584,6164.06199985695,1,3118.80799999999,3045.25399985696,0,NA,"Rating Scale","Rating Scale",2,"object-259","BIQ",NA,"SUPPRF93485"
"8",1699292116164,"06/11/2023 17:35:16",1699292116164,0,"06/11/2023 17:35:16",150440,6,"task-gjqt",NA,32748342,9689627,NA,"complete",NA,"654920b672f8f0b8d9219fd2","computer","Desktop or Laptop","Windows 10","Edge 119.0.0.0","1440x960","1392x834",NA,NA,0,"BIQ (Charlotte)",3,"CDBEAFJGIH","Passed AC2","","Spreadsheet1",1,"BIQ","Screen 2","o21mwi",2,"response","5",3752.556,6154.584,6164.662,3752.556,6154.584,6164.662,1,3752.556,2412.106,0,NA,"Rating Scale","Rating Scale",9,"object-36","BIQ",NA,"SUPPRF93485"
"9",1699292116164,"06/11/2023 17:35:16",1699292116164,0,"06/11/2023 17:35:16",150440,6,"task-gjqt",NA,32748342,9689627,NA,"complete",NA,"654920b672f8f0b8d9219fd2","computer","Desktop or Laptop","Windows 10","Edge 119.0.0.0","1440x960","1392x834",NA,NA,0,"BIQ (Charlotte)",3,"CDBEAFJGIH","Passed AC2","","Spreadsheet1",1,"BIQ","Screen 2","o21mwi",2,"response","6",5703.97899999999,6154.584,6165.36199980926,5703.97899999999,6154.584,6165.36199980926,1,5703.97899999999,461.38299980927,0,NA,"Rating Scale","Rating Scale",16,"object-86","BIQ",NA,"SUPPRF93485"
"10",1699292121130,"06/11/2023 17:35:21",1699292121130,0,"06/11/2023 17:35:21",150440,6,"task-gjqt",NA,32748342,9689627,NA,"complete",NA,"654920b672f8f0b8d9219fd2","computer","Desktop or Laptop","Windows 10","Edge 119.0.0.0","1440x960","1392x834",NA,NA,0,"BIQ (Charlotte)",3,"CDBEAFJGIH","Passed AC2","","Spreadsheet1",1,"BIQ","Screen 3","iz3the",3,"continue","",4976.17799990463,4970.038,4976.17799990463,4976.17799990463,4970.038,4976.17799990463,1,4976.17799990463,0,0,NA,"Click To Continue","Continue Button",22,"object-73","BIQ",NA,"SUPPRF93485"
"11",1699292121137,"06/11/2023 17:35:21",1699292121137,0,"06/11/2023 17:35:21",150440,6,"task-gjqt",NA,32748342,9689627,NA,"complete",NA,"654920b672f8f0b8d9219fd2","computer","Desktop or Laptop","Windows 10","Edge 119.0.0.0","1440x960","1392x834",NA,NA,0,"BIQ (Charlotte)",3,"CDBEAFJGIH","Passed AC2","","Spreadsheet1",1,"BIQ","Screen 3","iz3the",3,"response","3",1367.53,4970.038,4983.27799980926,1367.53,4970.038,4983.27799980926,1,1367.53,3615.74799980926,0,NA,"Rating Scale","Rating Scale",2,"object-53","BIQ",NA,"SUPPRF93485"
"12",1699292121138,"06/11/2023 17:35:21",1699292121138,0,"06/11/2023 17:35:21",150440,6,"task-gjqt",NA,32748342,9689627,NA,"complete",NA,"654920b672f8f0b8d9219fd2","computer","Desktop or Laptop","Windows 10","Edge 119.0.0.0","1440x960","1392x834",NA,NA,0,"BIQ (Charlotte)",3,"CDBEAFJGIH","Passed AC2","","Spreadsheet1",1,"BIQ","Screen 3","iz3the",3,"response","4",1967.939,4970.038,4984.77799980926,1967.939,4970.038,4984.77799980926,1,1967.939,3016.83899980926,0,NA,"Rating Scale","Rating Scale",9,"object-60","BIQ",NA,"SUPPRF93485"
"13",1699292121139,"06/11/2023 17:35:21",1699292121139,0,"06/11/2023 17:35:21",150440,6,"task-gjqt",NA,32748342,9689627,NA,"complete",NA,"654920b672f8f0b8d9219fd2","computer","Desktop or Laptop","Windows 10","Edge 119.0.0.0","1440x960","1392x834",NA,NA,0,"BIQ (Charlotte)",3,"CDBEAFJGIH","Passed AC2","","Spreadsheet1",1,"BIQ","Screen 3","iz3the",3,"response","4",3035.47799999999,4970.038,4985.77799980926,3035.47799999999,4970.038,4985.77799980926,1,3035.47799999999,1950.29999980927,0,NA,"Rating Scale","Rating Scale",16,"object-67","BIQ",NA,"SUPPRF93485"
"14",1699292121143,"06/11/2023 17:35:21",1699292121143,0,"06/11/2023 17:35:21",150440,6,"task-gjqt",NA,32748342,9689627,NA,"complete",NA,"654920b672f8f0b8d9219fd2","computer","Desktop or Laptop","Windows 10","Edge 119.0.0.0","1440x960","1392x834",NA,NA,0,"BIQ (Charlotte)",3,"CDBEAFJGIH","Passed AC2","","Spreadsheet1",NA,"","","",NA,"5","END",NA,NA,NA,NA,NA,NA,0,NA,NA,NA,NA,"","",NA,"","",NA,"SUPPRF93485"
"1",1699291619244,"06/11/2023 17:26:59",1699291619244,0,"06/11/2023 17:26:59",150440,6,"task-gjqt",NA,32747949,9689646,NA,"complete",NA,"654921342516b994de3f9f0e","tablet","Apple iPad","iOS 16.5","Chrome 116.0.5845.177","810x1080","810x965",NA,NA,0,"BIQ (Charlotte)",3,"EFDGCHBIAJ","Passed AC2","","Spreadsheet1",NA,"","","",NA,"5","BEGIN",NA,NA,NA,NA,NA,NA,0,NA,NA,NA,NA,"","",NA,"","",NA,"SUPPRF70813"
"2",1699291642814,"06/11/2023 17:27:22",1699291642814,0,"06/11/2023 17:27:22",150440,6,"task-gjqt",NA,32747949,9689646,NA,"complete",NA,"654921342516b994de3f9f0e","tablet","Apple iPad","iOS 16.5","Chrome 116.0.5845.177","810x1080","810x965",NA,NA,0,"BIQ (Charlotte)",3,"EFDGCHBIAJ","Passed AC2","","Spreadsheet1",1,"BIQ","Screen 1","9dh6eq",1,"continue","",23558,23541,23558,23558,23541,23558,1,23558,0,0,NA,"Click To Continue","Continue Button",23,"object-48","BIQ",NA,"SUPPRF70813"
"3",1699291642821,"06/11/2023 17:27:22",1699291642821,0,"06/11/2023 17:27:22",150440,6,"task-gjqt",NA,32747949,9689646,NA,"complete",NA,"654921342516b994de3f9f0e","tablet","Apple iPad","iOS 16.5","Chrome 116.0.5845.177","810x1080","810x965",NA,NA,0,"BIQ (Charlotte)",3,"EFDGCHBIAJ","Passed AC2","","Spreadsheet1",1,"BIQ","Screen 1","9dh6eq",1,"response","7",16467,23541,23558,16467,23541,23558,1,16467,7091,0,NA,"Rating Scale","Rating Scale",3,"object-5","BIQ",NA,"SUPPRF70813"
"4",1699291642823,"06/11/2023 17:27:22",1699291642823,0,"06/11/2023 17:27:22",150440,6,"task-gjqt",NA,32747949,9689646,NA,"complete",NA,"654921342516b994de3f9f0e","tablet","Apple iPad","iOS 16.5","Chrome 116.0.5845.177","810x1080","810x965",NA,NA,0,"BIQ (Charlotte)",3,"EFDGCHBIAJ","Passed AC2","","Spreadsheet1",1,"BIQ","Screen 1","9dh6eq",1,"response","2",20933,23541,23558,20933,23541,23558,1,20933,2625,0,NA,"Rating Scale","Rating Scale",10,"object-18","BIQ",NA,"SUPPRF70813"
"5",1699291642824,"06/11/2023 17:27:22",1699291642824,0,"06/11/2023 17:27:22",150440,6,"task-gjqt",NA,32747949,9689646,NA,"complete",NA,"654921342516b994de3f9f0e","tablet","Apple iPad","iOS 16.5","Chrome 116.0.5845.177","810x1080","810x965",NA,NA,0,"BIQ (Charlotte)",3,"EFDGCHBIAJ","Passed AC2","","Spreadsheet1",1,"BIQ","Screen 1","9dh6eq",1,"response","4",23164,23541,23558,23164,23541,23558,1,23164,394,0,NA,"Rating Scale","Rating Scale",17,"object-80","BIQ",NA,"SUPPRF70813"
"6",1699291655372,"06/11/2023 17:27:35",1699291655372,0,"06/11/2023 17:27:35",150440,6,"task-gjqt",NA,32747949,9689646,NA,"complete",NA,"654921342516b994de3f9f0e","tablet","Apple iPad","iOS 16.5","Chrome 116.0.5845.177","810x1080","810x965",NA,NA,0,"BIQ (Charlotte)",3,"EFDGCHBIAJ","Passed AC2","","Spreadsheet1",1,"BIQ","Screen 2","o21mwi",2,"continue","",12580,12563,12580,12580,12563,12580,1,12580,0,0,NA,"Click To Continue","Continue Button",22,"object-50","BIQ",NA,"SUPPRF70813"
"7",1699291655382,"06/11/2023 17:27:35",1699291655382,0,"06/11/2023 17:27:35",150440,6,"task-gjqt",NA,32747949,9689646,NA,"complete",NA,"654921342516b994de3f9f0e","tablet","Apple iPad","iOS 16.5","Chrome 116.0.5845.177","810x1080","810x965",NA,NA,0,"BIQ (Charlotte)",3,"EFDGCHBIAJ","Passed AC2","","Spreadsheet1",1,"BIQ","Screen 2","o21mwi",2,"response","7",6538,12563,12580,6538,12563,12580,1,6538,6042,0,NA,"Rating Scale","Rating Scale",2,"object-259","BIQ",NA,"SUPPRF70813"
"8",1699291655383,"06/11/2023 17:27:35",1699291655383,0,"06/11/2023 17:27:35",150440,6,"task-gjqt",NA,32747949,9689646,NA,"complete",NA,"654921342516b994de3f9f0e","tablet","Apple iPad","iOS 16.5","Chrome 116.0.5845.177","810x1080","810x965",NA,NA,0,"BIQ (Charlotte)",3,"EFDGCHBIAJ","Passed AC2","","Spreadsheet1",1,"BIQ","Screen 2","o21mwi",2,"response","5",9238,12563,12580,9238,12563,12580,1,9238,3342,0,NA,"Rating Scale","Rating Scale",9,"object-36","BIQ",NA,"SUPPRF70813"
"9",1699291655384,"06/11/2023 17:27:35",1699291655384,0,"06/11/2023 17:27:35",150440,6,"task-gjqt",NA,32747949,9689646,NA,"complete",NA,"654921342516b994de3f9f0e","tablet","Apple iPad","iOS 16.5","Chrome 116.0.5845.177","810x1080","810x965",NA,NA,0,"BIQ (Charlotte)",3,"EFDGCHBIAJ","Passed AC2","","Spreadsheet1",1,"BIQ","Screen 2","o21mwi",2,"response","4",10671,12563,12580,10671,12563,12580,1,10671,1909,0,NA,"Rating Scale","Rating Scale",16,"object-86","BIQ",NA,"SUPPRF70813"
"10",1699291668617,"06/11/2023 17:27:48",1699291668617,0,"06/11/2023 17:27:48",150440,6,"task-gjqt",NA,32747949,9689646,NA,"complete",NA,"654921342516b994de3f9f0e","tablet","Apple iPad","iOS 16.5","Chrome 116.0.5845.177","810x1080","810x965",NA,NA,0,"BIQ (Charlotte)",3,"EFDGCHBIAJ","Passed AC2","","Spreadsheet1",1,"BIQ","Screen 3","iz3the",3,"continue","",13263,13246,13263,13263,13246,13263,1,13263,0,0,NA,"Click To Continue","Continue Button",22,"object-73","BIQ",NA,"SUPPRF70813"
"11",1699291668625,"06/11/2023 17:27:48",1699291668625,0,"06/11/2023 17:27:48",150440,6,"task-gjqt",NA,32747949,9689646,NA,"complete",NA,"654921342516b994de3f9f0e","tablet","Apple iPad","iOS 16.5","Chrome 116.0.5845.177","810x1080","810x965",NA,NA,0,"BIQ (Charlotte)",3,"EFDGCHBIAJ","Passed AC2","","Spreadsheet1",1,"BIQ","Screen 3","iz3the",3,"response","0",6322,13246,13263,6322,13246,13263,1,6322,6941,0,NA,"Rating Scale","Rating Scale",2,"object-53","BIQ",NA,"SUPPRF70813"
"12",1699291668626,"06/11/2023 17:27:48",1699291668626,0,"06/11/2023 17:27:48",150440,6,"task-gjqt",NA,32747949,9689646,NA,"complete",NA,"654921342516b994de3f9f0e","tablet","Apple iPad","iOS 16.5","Chrome 116.0.5845.177","810x1080","810x965",NA,NA,0,"BIQ (Charlotte)",3,"EFDGCHBIAJ","Passed AC2","","Spreadsheet1",1,"BIQ","Screen 3","iz3the",3,"response","2",8905,13246,13263,8905,13246,13263,1,8905,4358,0,NA,"Rating Scale","Rating Scale",9,"object-60","BIQ",NA,"SUPPRF70813"
"13",1699291668627,"06/11/2023 17:27:48",1699291668627,0,"06/11/2023 17:27:48",150440,6,"task-gjqt",NA,32747949,9689646,NA,"complete",NA,"654921342516b994de3f9f0e","tablet","Apple iPad","iOS 16.5","Chrome 116.0.5845.177","810x1080","810x965",NA,NA,0,"BIQ (Charlotte)",3,"EFDGCHBIAJ","Passed AC2","","Spreadsheet1",1,"BIQ","Screen 3","iz3the",3,"response","6",10941,13246,13263,10941,13246,13263,1,10941,2322,0,NA,"Rating Scale","Rating Scale",16,"object-67","BIQ",NA,"SUPPRF70813"
"14",1699291668633,"06/11/2023 17:27:48",1699291668633,0,"06/11/2023 17:27:48",150440,6,"task-gjqt",NA,32747949,9689646,NA,"complete",NA,"654921342516b994de3f9f0e","tablet","Apple iPad","iOS 16.5","Chrome 116.0.5845.177","810x1080","810x965",NA,NA,0,"BIQ (Charlotte)",3,"EFDGCHBIAJ","Passed AC2","","Spreadsheet1",NA,"","","",NA,"5","END",NA,NA,NA,NA,NA,NA,0,NA,NA,NA,NA,"","",NA,"","",NA,"SUPPRF70813"
"1",1699291797428,"06/11/2023 17:29:57",1699291797428,0,"06/11/2023 17:29:57",150440,6,"task-gjqt",NA,32748142,9689654,NA,"complete",NA,"6549218ea2301d20c2c9e1ff","computer","Desktop or Laptop","Mac OS 10.15.7","Chrome 119.0.0.0","1440x900","1440x815",NA,NA,0,"BIQ (Charlotte)",3,"HIGJFAEBDC","Passed AC2","","Spreadsheet1",NA,"","","",NA,"5","BEGIN",NA,NA,NA,NA,NA,NA,0,NA,NA,NA,NA,"","",NA,"","",NA,"SUPPRF86378"
"2",1699291827438,"06/11/2023 17:30:27",1699291827438,0,"06/11/2023 17:30:27",150440,6,"task-gjqt",NA,32748142,9689654,NA,"complete",NA,"6549218ea2301d20c2c9e1ff","computer","Desktop or Laptop","Mac OS 10.15.7","Chrome 119.0.0.0","1440x900","1440x815",NA,NA,0,"BIQ (Charlotte)",3,"HIGJFAEBDC","Passed AC2","","Spreadsheet1",1,"BIQ","Screen 1","9dh6eq",1,"continue","",30017.944,30001.277,30017.944,30017.944,30001.277,30017.944,1,30017.944,0,0,NA,"Click To Continue","Continue Button",23,"object-48","BIQ",NA,"SUPPRF86378"
"3",1699291827440,"06/11/2023 17:30:27",1699291827440,0,"06/11/2023 17:30:27",150440,6,"task-gjqt",NA,32748142,9689654,NA,"complete",NA,"6549218ea2301d20c2c9e1ff","computer","Desktop or Laptop","Mac OS 10.15.7","Chrome 119.0.0.0","1440x900","1440x815",NA,NA,0,"BIQ (Charlotte)",3,"HIGJFAEBDC","Passed AC2","","Spreadsheet1",1,"BIQ","Screen 1","9dh6eq",1,"response","5",12067.36,30001.277,30017.944,12067.36,30001.277,30017.944,1,12067.36,17950.584,0,NA,"Rating Scale","Rating Scale",3,"object-5","BIQ",NA,"SUPPRF86378"
"4",1699291827440,"06/11/2023 17:30:27",1699291827440,0,"06/11/2023 17:30:27",150440,6,"task-gjqt",NA,32748142,9689654,NA,"complete",NA,"6549218ea2301d20c2c9e1ff","computer","Desktop or Laptop","Mac OS 10.15.7","Chrome 119.0.0.0","1440x900","1440x815",NA,NA,0,"BIQ (Charlotte)",3,"HIGJFAEBDC","Passed AC2","","Spreadsheet1",1,"BIQ","Screen 1","9dh6eq",1,"response","4",23117.806,30001.277,30017.944,23117.806,30001.277,30017.944,1,23117.806,6900.138,0,NA,"Rating Scale","Rating Scale",10,"object-18","BIQ",NA,"SUPPRF86378"
"5",1699291827441,"06/11/2023 17:30:27",1699291827441,0,"06/11/2023 17:30:27",150440,6,"task-gjqt",NA,32748142,9689654,NA,"complete",NA,"6549218ea2301d20c2c9e1ff","computer","Desktop or Laptop","Mac OS 10.15.7","Chrome 119.0.0.0","1440x900","1440x815",NA,NA,0,"BIQ (Charlotte)",3,"HIGJFAEBDC","Passed AC2","","Spreadsheet1",1,"BIQ","Screen 1","9dh6eq",1,"response","2",27967.903,30001.277,30017.944,27967.903,30001.277,30017.944,1,27967.903,2050.041,0,NA,"Rating Scale","Rating Scale",17,"object-80","BIQ",NA,"SUPPRF86378"
"6",1699291848425,"06/11/2023 17:30:48",1699291848425,0,"06/11/2023 17:30:48",150440,6,"task-gjqt",NA,32748142,9689654,NA,"complete",NA,"6549218ea2301d20c2c9e1ff","computer","Desktop or Laptop","Mac OS 10.15.7","Chrome 119.0.0.0","1440x900","1440x815",NA,NA,0,"BIQ (Charlotte)",3,"HIGJFAEBDC","Passed AC2","","Spreadsheet1",1,"BIQ","Screen 2","o21mwi",2,"continue","",21011.3420000119,21000.872,21011.3420000119,21011.3420000119,21000.872,21011.3420000119,1,21011.3420000119,0,0,NA,"Click To Continue","Continue Button",22,"object-50","BIQ",NA,"SUPPRF86378"
"7",1699291848429,"06/11/2023 17:30:48",1699291848429,0,"06/11/2023 17:30:48",150440,6,"task-gjqt",NA,32748142,9689654,NA,"complete",NA,"6549218ea2301d20c2c9e1ff","computer","Desktop or Laptop","Mac OS 10.15.7","Chrome 119.0.0.0","1440x900","1440x815",NA,NA,0,"BIQ (Charlotte)",3,"HIGJFAEBDC","Passed AC2","","Spreadsheet1",1,"BIQ","Screen 2","o21mwi",2,"response","1",4866.99,21000.872,21015.3420000119,4866.99,21000.872,21015.3420000119,1,4866.99,16148.3520000119,0,NA,"Rating Scale","Rating Scale",2,"object-259","BIQ",NA,"SUPPRF86378"
"8",1699291848429,"06/11/2023 17:30:48",1699291848429,0,"06/11/2023 17:30:48",150440,6,"task-gjqt",NA,32748142,9689654,NA,"complete",NA,"6549218ea2301d20c2c9e1ff","computer","Desktop or Laptop","Mac OS 10.15.7","Chrome 119.0.0.0","1440x900","1440x815",NA,NA,0,"BIQ (Charlotte)",3,"HIGJFAEBDC","Passed AC2","","Spreadsheet1",1,"BIQ","Screen 2","o21mwi",2,"response","2",9333.746,21000.872,21016.2420000477,9333.746,21000.872,21016.2420000477,1,9333.746,11682.4960000477,0,NA,"Rating Scale","Rating Scale",9,"object-36","BIQ",NA,"SUPPRF86378"
"9",1699291848430,"06/11/2023 17:30:48",1699291848430,0,"06/11/2023 17:30:48",150440,6,"task-gjqt",NA,32748142,9689654,NA,"complete",NA,"6549218ea2301d20c2c9e1ff","computer","Desktop or Laptop","Mac OS 10.15.7","Chrome 119.0.0.0","1440x900","1440x815",NA,NA,0,"BIQ (Charlotte)",3,"HIGJFAEBDC","Passed AC2","","Spreadsheet1",1,"BIQ","Screen 2","o21mwi",2,"response","4",18617.491,21000.872,21016.6420000238,18617.491,21000.872,21016.6420000238,1,18617.491,2399.15100002384,0,NA,"Rating Scale","Rating Scale",16,"object-86","BIQ",NA,"SUPPRF86378"
"10",1699291859421,"06/11/2023 17:30:59",1699291859421,0,"06/11/2023 17:30:59",150440,6,"task-gjqt",NA,32748142,9689654,NA,"complete",NA,"6549218ea2301d20c2c9e1ff","computer","Desktop or Laptop","Mac OS 10.15.7","Chrome 119.0.0.0","1440x900","1440x815",NA,NA,0,"BIQ (Charlotte)",3,"HIGJFAEBDC","Passed AC2","","Spreadsheet1",1,"BIQ","Screen 3","iz3the",3,"continue","",11007.5700000358,11000.671,11007.5700000358,11007.5700000358,11000.671,11007.5700000358,1,11007.5700000358,0,0,NA,"Click To Continue","Continue Button",22,"object-73","BIQ",NA,"SUPPRF86378"
"11",1699291859423,"06/11/2023 17:30:59",1699291859423,0,"06/11/2023 17:30:59",150440,6,"task-gjqt",NA,32748142,9689654,NA,"complete",NA,"6549218ea2301d20c2c9e1ff","computer","Desktop or Laptop","Mac OS 10.15.7","Chrome 119.0.0.0","1440x900","1440x815",NA,NA,0,"BIQ (Charlotte)",3,"HIGJFAEBDC","Passed AC2","","Spreadsheet1",1,"BIQ","Screen 3","iz3the",3,"response","0",4333.646,11000.671,11009.9700000119,4333.646,11000.671,11009.9700000119,1,4333.646,6676.32400001192,0,NA,"Rating Scale","Rating Scale",2,"object-53","BIQ",NA,"SUPPRF86378"
"12",1699291859424,"06/11/2023 17:30:59",1699291859424,0,"06/11/2023 17:30:59",150440,6,"task-gjqt",NA,32748142,9689654,NA,"complete",NA,"6549218ea2301d20c2c9e1ff","computer","Desktop or Laptop","Mac OS 10.15.7","Chrome 119.0.0.0","1440x900","1440x815",NA,NA,0,"BIQ (Charlotte)",3,"HIGJFAEBDC","Passed AC2","","Spreadsheet1",1,"BIQ","Screen 3","iz3the",3,"response","1",7100.36799999999,11000.671,11010.5700000358,7100.36799999999,11000.671,11010.5700000358,1,7100.36799999999,3910.20200003577,0,NA,"Rating Scale","Rating Scale",9,"object-60","BIQ",NA,"SUPPRF86378"
"13",1699291859425,"06/11/2023 17:30:59",1699291859425,0,"06/11/2023 17:30:59",150440,6,"task-gjqt",NA,32748142,9689654,NA,"complete",NA,"6549218ea2301d20c2c9e1ff","computer","Desktop or Laptop","Mac OS 10.15.7","Chrome 119.0.0.0","1440x900","1440x815",NA,NA,0,"BIQ (Charlotte)",3,"HIGJFAEBDC","Passed AC2","","Spreadsheet1",1,"BIQ","Screen 3","iz3the",3,"response","0",9817.089,11000.671,11011.3700000477,9817.089,11000.671,11011.3700000477,1,9817.089,1194.28100004768,0,NA,"Rating Scale","Rating Scale",16,"object-67","BIQ",NA,"SUPPRF86378"
"14",1699291859431,"06/11/2023 17:30:59",1699291859431,0,"06/11/2023 17:30:59",150440,6,"task-gjqt",NA,32748142,9689654,NA,"complete",NA,"6549218ea2301d20c2c9e1ff","computer","Desktop or Laptop","Mac OS 10.15.7","Chrome 119.0.0.0","1440x900","1440x815",NA,NA,0,"BIQ (Charlotte)",3,"HIGJFAEBDC","Passed AC2","","Spreadsheet1",NA,"","","",NA,"5","END",NA,NA,NA,NA,NA,NA,0,NA,NA,NA,NA,"","",NA,"","",NA,"SUPPRF86378"
"1",1699291621254,"06/11/2023 17:27:01",1699291621254,0,"06/11/2023 17:27:01",150440,6,"task-gjqt",NA,32747952,9689663,NA,"complete",NA,"654921b4e5e583cfb88fe018","computer","Desktop or Laptop","Windows 10","Chrome 119.0.0.0","1920x1080","1920x931",NA,NA,0,"BIQ (Charlotte)",3,"FGEHDICJBA","Passed AC2","","Spreadsheet1",NA,"","","",NA,"5","BEGIN",NA,NA,NA,NA,NA,NA,0,NA,NA,NA,NA,"","",NA,"","",NA,"SUPPRF66344"
"2",1699291649417,"06/11/2023 17:27:29",1699291649417,0,"06/11/2023 17:27:29",150440,6,"task-gjqt",NA,32747952,9689663,NA,"complete",NA,"654921b4e5e583cfb88fe018","computer","Desktop or Laptop","Windows 10","Chrome 119.0.0.0","1920x1080","1920x931",NA,NA,0,"BIQ (Charlotte)",3,"FGEHDICJBA","Passed AC2","","Spreadsheet1",1,"BIQ","Screen 1","9dh6eq",1,"continue","",28183.4660000179,28178.155,28183.4660000179,28183.4660000179,28178.155,28183.4660000179,1,28183.4660000179,0,0,NA,"Click To Continue","Continue Button",23,"object-48","BIQ",NA,"SUPPRF66344"
"3",1699291649418,"06/11/2023 17:27:29",1699291649418,0,"06/11/2023 17:27:29",150440,6,"task-gjqt",NA,32747952,9689663,NA,"complete",NA,"654921b4e5e583cfb88fe018","computer","Desktop or Laptop","Windows 10","Chrome 119.0.0.0","1920x1080","1920x931",NA,NA,0,"BIQ (Charlotte)",3,"FGEHDICJBA","Passed AC2","","Spreadsheet1",1,"BIQ","Screen 1","9dh6eq",1,"response","4",15115.011,28178.155,28185.266,15115.011,28178.155,28185.266,1,15115.011,13070.255,0,NA,"Rating Scale","Rating Scale",3,"object-5","BIQ",NA,"SUPPRF66344"
"4",1699291649418,"06/11/2023 17:27:29",1699291649418,0,"06/11/2023 17:27:29",150440,6,"task-gjqt",NA,32747952,9689663,NA,"complete",NA,"654921b4e5e583cfb88fe018","computer","Desktop or Laptop","Windows 10","Chrome 119.0.0.0","1920x1080","1920x931",NA,NA,0,"BIQ (Charlotte)",3,"FGEHDICJBA","Passed AC2","","Spreadsheet1",1,"BIQ","Screen 1","9dh6eq",1,"response","8",22605.918,28178.155,28185.5660000119,22605.918,28178.155,28185.5660000119,1,22605.918,5579.64800001192,0,NA,"Rating Scale","Rating Scale",10,"object-18","BIQ",NA,"SUPPRF66344"
"5",1699291649419,"06/11/2023 17:27:29",1699291649419,0,"06/11/2023 17:27:29",150440,6,"task-gjqt",NA,32747952,9689663,NA,"complete",NA,"654921b4e5e583cfb88fe018","computer","Desktop or Laptop","Windows 10","Chrome 119.0.0.0","1920x1080","1920x931",NA,NA,0,"BIQ (Charlotte)",3,"FGEHDICJBA","Passed AC2","","Spreadsheet1",1,"BIQ","Screen 1","9dh6eq",1,"response","2",27527.495,28178.155,28185.865999994,27527.495,28178.155,28185.865999994,1,27527.495,658.37099999404,0,NA,"Rating Scale","Rating Scale",17,"object-80","BIQ",NA,"SUPPRF66344"
"6",1699291676472,"06/11/2023 17:27:56",1699291676472,0,"06/11/2023 17:27:56",150440,6,"task-gjqt",NA,32747952,9689663,NA,"complete",NA,"654921b4e5e583cfb88fe018","computer","Desktop or Laptop","Windows 10","Chrome 119.0.0.0","1920x1080","1920x931",NA,NA,0,"BIQ (Charlotte)",3,"FGEHDICJBA","Passed AC2","","Spreadsheet1",1,"BIQ","Screen 2","o21mwi",2,"continue","",27061.210999994,27060.282,27061.210999994,27061.210999994,27060.282,27061.210999994,1,27061.210999994,0,0,NA,"Click To Continue","Continue Button",22,"object-50","BIQ",NA,"SUPPRF66344"
"7",1699291676474,"06/11/2023 17:27:56",1699291676474,0,"06/11/2023 17:27:56",150440,6,"task-gjqt",NA,32747952,9689663,NA,"complete",NA,"654921b4e5e583cfb88fe018","computer","Desktop or Laptop","Windows 10","Chrome 119.0.0.0","1920x1080","1920x931",NA,NA,0,"BIQ (Charlotte)",3,"FGEHDICJBA","Passed AC2","","Spreadsheet1",1,"BIQ","Screen 2","o21mwi",2,"response","6",6406.315,27060.282,27062.8110000179,6406.315,27060.282,27062.8110000179,1,6406.315,20656.4960000179,0,NA,"Rating Scale","Rating Scale",2,"object-259","BIQ",NA,"SUPPRF66344"
"8",1699291676474,"06/11/2023 17:27:56",1699291676474,0,"06/11/2023 17:27:56",150440,6,"task-gjqt",NA,32747952,9689663,NA,"complete",NA,"654921b4e5e583cfb88fe018","computer","Desktop or Laptop","Windows 10","Chrome 119.0.0.0","1920x1080","1920x931",NA,NA,0,"BIQ (Charlotte)",3,"FGEHDICJBA","Passed AC2","","Spreadsheet1",1,"BIQ","Screen 2","o21mwi",2,"response","0",12729.385,27060.282,27063.111,12729.385,27060.282,27063.111,1,12729.385,14333.726,0,NA,"Rating Scale","Rating Scale",9,"object-36","BIQ",NA,"SUPPRF66344"
"9",1699291676474,"06/11/2023 17:27:56",1699291676474,0,"06/11/2023 17:27:56",150440,6,"task-gjqt",NA,32747952,9689663,NA,"complete",NA,"654921b4e5e583cfb88fe018","computer","Desktop or Laptop","Windows 10","Chrome 119.0.0.0","1920x1080","1920x931",NA,NA,0,"BIQ (Charlotte)",3,"FGEHDICJBA","Passed AC2","","Spreadsheet1",1,"BIQ","Screen 2","o21mwi",2,"response","0",22355.604,27060.282,27063.4110000119,22355.604,27060.282,27063.4110000119,1,22355.604,4707.80700001192,0,NA,"Rating Scale","Rating Scale",16,"object-86","BIQ",NA,"SUPPRF66344"
"10",1699291690824,"06/11/2023 17:28:10",1699291690824,0,"06/11/2023 17:28:10",150440,6,"task-gjqt",NA,32747952,9689663,NA,"complete",NA,"654921b4e5e583cfb88fe018","computer","Desktop or Laptop","Windows 10","Chrome 119.0.0.0","1920x1080","1920x931",NA,NA,0,"BIQ (Charlotte)",3,"FGEHDICJBA","Passed AC2","","Spreadsheet1",1,"BIQ","Screen 3","iz3the",3,"continue","",14353.1290000119,14347.782,14353.1290000119,14353.1290000119,14347.782,14353.1290000119,1,14353.1290000119,0,0,NA,"Click To Continue","Continue Button",22,"object-73","BIQ",NA,"SUPPRF66344"
"11",1699291690825,"06/11/2023 17:28:10",1699291690825,0,"06/11/2023 17:28:10",150440,6,"task-gjqt",NA,32747952,9689663,NA,"complete",NA,"654921b4e5e583cfb88fe018","computer","Desktop or Laptop","Windows 10","Chrome 119.0.0.0","1920x1080","1920x931",NA,NA,0,"BIQ (Charlotte)",3,"FGEHDICJBA","Passed AC2","","Spreadsheet1",1,"BIQ","Screen 3","iz3the",3,"response","0",7040.429,14347.782,14354.829,7040.429,14347.782,14354.829,1,7040.429,7314.4,0,NA,"Rating Scale","Rating Scale",2,"object-53","BIQ",NA,"SUPPRF66344"
"12",1699291690826,"06/11/2023 17:28:10",1699291690826,0,"06/11/2023 17:28:10",150440,6,"task-gjqt",NA,32747952,9689663,NA,"complete",NA,"654921b4e5e583cfb88fe018","computer","Desktop or Laptop","Windows 10","Chrome 119.0.0.0","1920x1080","1920x931",NA,NA,0,"BIQ (Charlotte)",3,"FGEHDICJBA","Passed AC2","","Spreadsheet1",1,"BIQ","Screen 3","iz3the",3,"response","0",9359.458,14347.782,14355.1290000119,9359.458,14347.782,14355.1290000119,1,9359.458,4995.67100001192,0,NA,"Rating Scale","Rating Scale",9,"object-60","BIQ",NA,"SUPPRF66344"
"13",1699291690826,"06/11/2023 17:28:10",1699291690826,0,"06/11/2023 17:28:10",150440,6,"task-gjqt",NA,32747952,9689663,NA,"complete",NA,"654921b4e5e583cfb88fe018","computer","Desktop or Laptop","Windows 10","Chrome 119.0.0.0","1920x1080","1920x931",NA,NA,0,"BIQ (Charlotte)",3,"FGEHDICJBA","Passed AC2","","Spreadsheet1",1,"BIQ","Screen 3","iz3the",3,"response","4",11094.513,14347.782,14355.5290000179,11094.513,14347.782,14355.5290000179,1,11094.513,3261.01600001789,0,NA,"Rating Scale","Rating Scale",16,"object-67","BIQ",NA,"SUPPRF66344"
"14",1699291690829,"06/11/2023 17:28:10",1699291690829,0,"06/11/2023 17:28:10",150440,6,"task-gjqt",NA,32747952,9689663,NA,"complete",NA,"654921b4e5e583cfb88fe018","computer","Desktop or Laptop","Windows 10","Chrome 119.0.0.0","1920x1080","1920x931",NA,NA,0,"BIQ (Charlotte)",3,"FGEHDICJBA","Passed AC2","","Spreadsheet1",NA,"","","",NA,"5","END",NA,NA,NA,NA,NA,NA,0,NA,NA,NA,NA,"","",NA,"","",NA,"SUPPRF66344"
"1",1699291748209,"06/11/2023 17:29:08",1699291748209,0,"06/11/2023 17:29:08",150440,6,"task-gjqt",NA,32748092,9689668,NA,"complete",NA,"65492106b22f0178f57b0066","computer","Desktop or Laptop","Mac OS 10.15.7","Chrome 118.0.0.0","1440x900","1440x732",NA,NA,0,"BIQ (Charlotte)",3,"GHFIEJDACB","Passed AC2","","Spreadsheet1",NA,"","","",NA,"5","BEGIN",NA,NA,NA,NA,NA,NA,0,NA,NA,NA,NA,"","",NA,"","",NA,"SUPPRF60832"
"2",1699291784033,"06/11/2023 17:29:44",1699291784033,0,"06/11/2023 17:29:44",150440,6,"task-gjqt",NA,32748092,9689668,NA,"complete",NA,"65492106b22f0178f57b0066","computer","Desktop or Laptop","Mac OS 10.15.7","Chrome 118.0.0.0","1440x900","1440x732",NA,NA,0,"BIQ (Charlotte)",3,"GHFIEJDACB","Passed AC2","","Spreadsheet1",1,"BIQ","Screen 1","9dh6eq",1,"continue","",35843.065,35826.41,35843.065,35843.065,35826.41,35843.065,1,35843.065,0,0,NA,"Click To Continue","Continue Button",23,"object-48","BIQ",NA,"SUPPRF60832"
"3",1699291784036,"06/11/2023 17:29:44",1699291784036,0,"06/11/2023 17:29:44",150440,6,"task-gjqt",NA,32748092,9689668,NA,"complete",NA,"65492106b22f0178f57b0066","computer","Desktop or Laptop","Mac OS 10.15.7","Chrome 118.0.0.0","1440x900","1440x732",NA,NA,0,"BIQ (Charlotte)",3,"GHFIEJDACB","Passed AC2","","Spreadsheet1",1,"BIQ","Screen 1","9dh6eq",1,"response","4",19453.793,35826.41,35843.065,19453.793,35826.41,35843.065,1,19453.793,16389.272,0,NA,"Rating Scale","Rating Scale",3,"object-5","BIQ",NA,"SUPPRF60832"
"4",1699291784037,"06/11/2023 17:29:44",1699291784037,0,"06/11/2023 17:29:44",150440,6,"task-gjqt",NA,32748092,9689668,NA,"complete",NA,"65492106b22f0178f57b0066","computer","Desktop or Laptop","Mac OS 10.15.7","Chrome 118.0.0.0","1440x900","1440x732",NA,NA,0,"BIQ (Charlotte)",3,"GHFIEJDACB","Passed AC2","","Spreadsheet1",1,"BIQ","Screen 1","9dh6eq",1,"response","6",25366.694,35826.41,35843.065,25366.694,35826.41,35843.065,1,25366.694,10476.371,0,NA,"Rating Scale","Rating Scale",10,"object-18","BIQ",NA,"SUPPRF60832"
"5",1699291784037,"06/11/2023 17:29:44",1699291784037,0,"06/11/2023 17:29:44",150440,6,"task-gjqt",NA,32748092,9689668,NA,"complete",NA,"65492106b22f0178f57b0066","computer","Desktop or Laptop","Mac OS 10.15.7","Chrome 118.0.0.0","1440x900","1440x732",NA,NA,0,"BIQ (Charlotte)",3,"GHFIEJDACB","Passed AC2","","Spreadsheet1",1,"BIQ","Screen 1","9dh6eq",1,"response","2",35043.625,35826.41,35843.065,35043.625,35826.41,35843.065,1,35043.625,799.439999999995,0,NA,"Rating Scale","Rating Scale",17,"object-80","BIQ",NA,"SUPPRF60832"
"6",1699291806834,"06/11/2023 17:30:06",1699291806834,0,"06/11/2023 17:30:06",150440,6,"task-gjqt",NA,32748092,9689668,NA,"complete",NA,"65492106b22f0178f57b0066","computer","Desktop or Laptop","Mac OS 10.15.7","Chrome 118.0.0.0","1440x900","1440x732",NA,NA,0,"BIQ (Charlotte)",3,"GHFIEJDACB","Passed AC2","","Spreadsheet1",1,"BIQ","Screen 2","o21mwi",2,"continue","",22818.103,22801.448,22818.103,22818.103,22801.448,22818.103,1,22818.103,0,0,NA,"Click To Continue","Continue Button",22,"object-50","BIQ",NA,"SUPPRF60832"
"7",1699291806840,"06/11/2023 17:30:06",1699291806840,0,"06/11/2023 17:30:06",150440,6,"task-gjqt",NA,32748092,9689668,NA,"complete",NA,"65492106b22f0178f57b0066","computer","Desktop or Laptop","Mac OS 10.15.7","Chrome 118.0.0.0","1440x900","1440x732",NA,NA,0,"BIQ (Charlotte)",3,"GHFIEJDACB","Passed AC2","","Spreadsheet1",1,"BIQ","Screen 2","o21mwi",2,"response","8",12824.726,22801.448,22818.103,12824.726,22801.448,22818.103,1,12824.726,9993.37700000001,0,NA,"Rating Scale","Rating Scale",2,"object-259","BIQ",NA,"SUPPRF60832"
"8",1699291806841,"06/11/2023 17:30:06",1699291806841,0,"06/11/2023 17:30:06",150440,6,"task-gjqt",NA,32748092,9689668,NA,"complete",NA,"65492106b22f0178f57b0066","computer","Desktop or Laptop","Mac OS 10.15.7","Chrome 118.0.0.0","1440x900","1440x732",NA,NA,0,"BIQ (Charlotte)",3,"GHFIEJDACB","Passed AC2","","Spreadsheet1",1,"BIQ","Screen 2","o21mwi",2,"response","0",15972.898,22801.448,22818.103,15972.898,22801.448,22818.103,1,15972.898,6845.20500000001,0,NA,"Rating Scale","Rating Scale",9,"object-36","BIQ",NA,"SUPPRF60832"
"9",1699291806842,"06/11/2023 17:30:06",1699291806842,0,"06/11/2023 17:30:06",150440,6,"task-gjqt",NA,32748092,9689668,NA,"complete",NA,"65492106b22f0178f57b0066","computer","Desktop or Laptop","Mac OS 10.15.7","Chrome 118.0.0.0","1440x900","1440x732",NA,NA,0,"BIQ (Charlotte)",3,"GHFIEJDACB","Passed AC2","","Spreadsheet1",1,"BIQ","Screen 2","o21mwi",2,"response","0",22068.628,22801.448,22818.103,22068.628,22801.448,22818.103,1,22068.628,749.475000000006,0,NA,"Rating Scale","Rating Scale",16,"object-86","BIQ",NA,"SUPPRF60832"
"10",1699291822901,"06/11/2023 17:30:22",1699291822901,0,"06/11/2023 17:30:22",150440,6,"task-gjqt",NA,32748092,9689668,NA,"complete",NA,"65492106b22f0178f57b0066","computer","Desktop or Laptop","Mac OS 10.15.7","Chrome 118.0.0.0","1440x900","1440x732",NA,NA,0,"BIQ (Charlotte)",3,"GHFIEJDACB","Passed AC2","","Spreadsheet1",1,"BIQ","Screen 3","iz3the",3,"continue","",16085.8309999911,16072.827,16085.8309999911,16085.8309999911,16072.827,16085.8309999911,1,16085.8309999911,0,0,NA,"Click To Continue","Continue Button",22,"object-73","BIQ",NA,"SUPPRF60832"
"11",1699291822905,"06/11/2023 17:30:22",1699291822905,0,"06/11/2023 17:30:22",150440,6,"task-gjqt",NA,32748092,9689668,NA,"complete",NA,"65492106b22f0178f57b0066","computer","Desktop or Laptop","Mac OS 10.15.7","Chrome 118.0.0.0","1440x900","1440x732",NA,NA,0,"BIQ (Charlotte)",3,"GHFIEJDACB","Passed AC2","","Spreadsheet1",1,"BIQ","Screen 3","iz3the",3,"response","0",10859.436,16072.827,16089.482,10859.436,16072.827,16089.482,1,10859.436,5230.04599999999,0,NA,"Rating Scale","Rating Scale",2,"object-53","BIQ",NA,"SUPPRF60832"
"12",1699291822905,"06/11/2023 17:30:22",1699291822905,0,"06/11/2023 17:30:22",150440,6,"task-gjqt",NA,32748092,9689668,NA,"complete",NA,"65492106b22f0178f57b0066","computer","Desktop or Laptop","Mac OS 10.15.7","Chrome 118.0.0.0","1440x900","1440x732",NA,NA,0,"BIQ (Charlotte)",3,"GHFIEJDACB","Passed AC2","","Spreadsheet1",1,"BIQ","Screen 3","iz3the",3,"response","0",12591.556,16072.827,16089.482,12591.556,16072.827,16089.482,1,12591.556,3497.92599999999,0,NA,"Rating Scale","Rating Scale",9,"object-60","BIQ",NA,"SUPPRF60832"
"13",1699291822907,"06/11/2023 17:30:22",1699291822907,0,"06/11/2023 17:30:22",150440,6,"task-gjqt",NA,32748092,9689668,NA,"complete",NA,"65492106b22f0178f57b0066","computer","Desktop or Laptop","Mac OS 10.15.7","Chrome 118.0.0.0","1440x900","1440x732",NA,NA,0,"BIQ (Charlotte)",3,"GHFIEJDACB","Passed AC2","","Spreadsheet1",1,"BIQ","Screen 3","iz3the",3,"response","8",14823.702,16072.827,16089.482,14823.702,16072.827,16089.482,1,14823.702,1265.78,0,NA,"Rating Scale","Rating Scale",16,"object-67","BIQ",NA,"SUPPRF60832"
"14",1699291822915,"06/11/2023 17:30:22",1699291822915,0,"06/11/2023 17:30:22",150440,6,"task-gjqt",NA,32748092,9689668,NA,"complete",NA,"65492106b22f0178f57b0066","computer","Desktop or Laptop","Mac OS 10.15.7","Chrome 118.0.0.0","1440x900","1440x732",NA,NA,0,"BIQ (Charlotte)",3,"GHFIEJDACB","Passed AC2","","Spreadsheet1",NA,"","","",NA,"5","END",NA,NA,NA,NA,NA,NA,0,NA,NA,NA,NA,"","",NA,"","",NA,"SUPPRF60832"
"1",1699292165383,"06/11/2023 17:36:05",1699292165383,0,"06/11/2023 17:36:05",150440,6,"task-gjqt",NA,32748482,9689703,NA,"complete",NA,"6549212338759131b91a7191","computer","Desktop or Laptop","Mac OS 10.14.6","Safari 14.1.2","1440x900","1440x837",NA,NA,0,"BIQ (Charlotte)",3,"JAIBHCGDFE","Passed AC2","","Spreadsheet1",NA,"","","",NA,"5","BEGIN",NA,NA,NA,NA,NA,NA,0,NA,NA,NA,NA,"","",NA,"","",NA,"SUPPRF79935"
"2",1699292198829,"06/11/2023 17:36:38",1699292198829,0,"06/11/2023 17:36:38",150440,6,"task-gjqt",NA,32748482,9689703,NA,"complete",NA,"6549212338759131b91a7191","computer","Desktop or Laptop","Mac OS 10.14.6","Safari 14.1.2","1440x900","1440x837",NA,NA,0,"BIQ (Charlotte)",3,"JAIBHCGDFE","Passed AC2","","Spreadsheet1",1,"BIQ","Screen 1","9dh6eq",1,"continue","",34394,34378,34394,34394,34378,34394,1,34394,0,0,NA,"Click To Continue","Continue Button",23,"object-48","BIQ",NA,"SUPPRF79935"
"3",1699292198834,"06/11/2023 17:36:38",1699292198834,0,"06/11/2023 17:36:38",150440,6,"task-gjqt",NA,32748482,9689703,NA,"complete",NA,"6549212338759131b91a7191","computer","Desktop or Laptop","Mac OS 10.14.6","Safari 14.1.2","1440x900","1440x837",NA,NA,0,"BIQ (Charlotte)",3,"JAIBHCGDFE","Passed AC2","","Spreadsheet1",1,"BIQ","Screen 1","9dh6eq",1,"response","6",28877,34378,34394,28877,34378,34394,1,28877,5517,0,NA,"Rating Scale","Rating Scale",3,"object-5","BIQ",NA,"SUPPRF79935"
"4",1699292198836,"06/11/2023 17:36:38",1699292198836,0,"06/11/2023 17:36:38",150440,6,"task-gjqt",NA,32748482,9689703,NA,"complete",NA,"6549212338759131b91a7191","computer","Desktop or Laptop","Mac OS 10.14.6","Safari 14.1.2","1440x900","1440x837",NA,NA,0,"BIQ (Charlotte)",3,"JAIBHCGDFE","Passed AC2","","Spreadsheet1",1,"BIQ","Screen 1","9dh6eq",1,"response","5",31962,34378,34394,31962,34378,34394,1,31962,2432,0,NA,"Rating Scale","Rating Scale",10,"object-18","BIQ",NA,"SUPPRF79935"
"5",1699292198837,"06/11/2023 17:36:38",1699292198837,0,"06/11/2023 17:36:38",150440,6,"task-gjqt",NA,32748482,9689703,NA,"complete",NA,"6549212338759131b91a7191","computer","Desktop or Laptop","Mac OS 10.14.6","Safari 14.1.2","1440x900","1440x837",NA,NA,0,"BIQ (Charlotte)",3,"JAIBHCGDFE","Passed AC2","","Spreadsheet1",1,"BIQ","Screen 1","9dh6eq",1,"response","6",33811,34378,34394,33811,34378,34394,1,33811,583,0,NA,"Rating Scale","Rating Scale",17,"object-80","BIQ",NA,"SUPPRF79935"
"6",1699292205596,"06/11/2023 17:36:45",1699292205596,0,"06/11/2023 17:36:45",150440,6,"task-gjqt",NA,32748482,9689703,NA,"complete",NA,"6549212338759131b91a7191","computer","Desktop or Laptop","Mac OS 10.14.6","Safari 14.1.2","1440x900","1440x837",NA,NA,0,"BIQ (Charlotte)",3,"JAIBHCGDFE","Passed AC2","","Spreadsheet1",1,"BIQ","Screen 2","o21mwi",2,"continue","",6786,6783,6786,6786,6783,6786,1,6786,0,0,NA,"Click To Continue","Continue Button",22,"object-50","BIQ",NA,"SUPPRF79935"
"7",1699292205597,"06/11/2023 17:36:45",1699292205597,0,"06/11/2023 17:36:45",150440,6,"task-gjqt",NA,32748482,9689703,NA,"complete",NA,"6549212338759131b91a7191","computer","Desktop or Laptop","Mac OS 10.14.6","Safari 14.1.2","1440x900","1440x837",NA,NA,0,"BIQ (Charlotte)",3,"JAIBHCGDFE","Passed AC2","","Spreadsheet1",1,"BIQ","Screen 2","o21mwi",2,"response","4",3651,6783,6787,3651,6783,6787,1,3651,3136,0,NA,"Rating Scale","Rating Scale",2,"object-259","BIQ",NA,"SUPPRF79935"
"8",1699292205598,"06/11/2023 17:36:45",1699292205598,0,"06/11/2023 17:36:45",150440,6,"task-gjqt",NA,32748482,9689703,NA,"complete",NA,"6549212338759131b91a7191","computer","Desktop or Laptop","Mac OS 10.14.6","Safari 14.1.2","1440x900","1440x837",NA,NA,0,"BIQ (Charlotte)",3,"JAIBHCGDFE","Passed AC2","","Spreadsheet1",1,"BIQ","Screen 2","o21mwi",2,"response","4",4751,6783,6788.00000000001,4751,6783,6788.00000000001,1,4751,2037.00000000001,0,NA,"Rating Scale","Rating Scale",9,"object-36","BIQ",NA,"SUPPRF79935"
"9",1699292205599,"06/11/2023 17:36:45",1699292205599,0,"06/11/2023 17:36:45",150440,6,"task-gjqt",NA,32748482,9689703,NA,"complete",NA,"6549212338759131b91a7191","computer","Desktop or Laptop","Mac OS 10.14.6","Safari 14.1.2","1440x900","1440x837",NA,NA,0,"BIQ (Charlotte)",3,"JAIBHCGDFE","Passed AC2","","Spreadsheet1",1,"BIQ","Screen 2","o21mwi",2,"response","4",6234,6783,6789,6234,6783,6789,1,6234,555,0,NA,"Rating Scale","Rating Scale",16,"object-86","BIQ",NA,"SUPPRF79935"
"10",1699292212132,"06/11/2023 17:36:52",1699292212132,0,"06/11/2023 17:36:52",150440,6,"task-gjqt",NA,32748482,9689703,NA,"complete",NA,"6549212338759131b91a7191","computer","Desktop or Laptop","Mac OS 10.14.6","Safari 14.1.2","1440x900","1440x837",NA,NA,0,"BIQ (Charlotte)",3,"JAIBHCGDFE","Passed AC2","","Spreadsheet1",1,"BIQ","Screen 3","iz3the",3,"continue","",6539,6535,6539,6539,6535,6539,1,6539,0,0,NA,"Click To Continue","Continue Button",22,"object-73","BIQ",NA,"SUPPRF79935"
"11",1699292212142,"06/11/2023 17:36:52",1699292212142,0,"06/11/2023 17:36:52",150440,6,"task-gjqt",NA,32748482,9689703,NA,"complete",NA,"6549212338759131b91a7191","computer","Desktop or Laptop","Mac OS 10.14.6","Safari 14.1.2","1440x900","1440x837",NA,NA,0,"BIQ (Charlotte)",3,"JAIBHCGDFE","Passed AC2","","Spreadsheet1",1,"BIQ","Screen 3","iz3the",3,"response","1",3852,6535,6549,3852,6535,6549,1,3852,2697,0,NA,"Rating Scale","Rating Scale",2,"object-53","BIQ",NA,"SUPPRF79935"
"12",1699292212142,"06/11/2023 17:36:52",1699292212142,0,"06/11/2023 17:36:52",150440,6,"task-gjqt",NA,32748482,9689703,NA,"complete",NA,"6549212338759131b91a7191","computer","Desktop or Laptop","Mac OS 10.14.6","Safari 14.1.2","1440x900","1440x837",NA,NA,0,"BIQ (Charlotte)",3,"JAIBHCGDFE","Passed AC2","","Spreadsheet1",1,"BIQ","Screen 3","iz3the",3,"response","1",4534,6535,6550,4534,6535,6550,1,4534,2016,0,NA,"Rating Scale","Rating Scale",9,"object-60","BIQ",NA,"SUPPRF79935"
"13",1699292212144,"06/11/2023 17:36:52",1699292212144,0,"06/11/2023 17:36:52",150440,6,"task-gjqt",NA,32748482,9689703,NA,"complete",NA,"6549212338759131b91a7191","computer","Desktop or Laptop","Mac OS 10.14.6","Safari 14.1.2","1440x900","1440x837",NA,NA,0,"BIQ (Charlotte)",3,"JAIBHCGDFE","Passed AC2","","Spreadsheet1",1,"BIQ","Screen 3","iz3the",3,"response","5",5702,6535,6551,5702,6535,6551,1,5702,849,0,NA,"Rating Scale","Rating Scale",16,"object-67","BIQ",NA,"SUPPRF79935"
"14",1699292212147,"06/11/2023 17:36:52",1699292212147,0,"06/11/2023 17:36:52",150440,6,"task-gjqt",NA,32748482,9689703,NA,"complete",NA,"6549212338759131b91a7191","computer","Desktop or Laptop","Mac OS 10.14.6","Safari 14.1.2","1440x900","1440x837",NA,NA,0,"BIQ (Charlotte)",3,"JAIBHCGDFE","Passed AC2","","Spreadsheet1",NA,"","","",NA,"5","END",NA,NA,NA,NA,NA,NA,0,NA,NA,NA,NA,"","",NA,"","",NA,"SUPPRF79935"
"1",1699292379391,"06/11/2023 17:39:39",1699292379391,0,"06/11/2023 17:39:39",150440,6,"task-gjqt",NA,32748597,9689725,NA,"complete",NA,"6549235a90dc221dcf738816","computer","Desktop or Laptop","Windows 10","Chrome 118.0.0.0","1920x1080","1922x1002",NA,NA,0,"BIQ (Charlotte)",3,"CDBEAFJGIH","Passed AC2","","Spreadsheet1",NA,"","","",NA,"5","BEGIN",NA,NA,NA,NA,NA,NA,0,NA,NA,NA,NA,"","",NA,"","",NA,"SUPPRF35697"
"2",1699292420407,"06/11/2023 17:40:20",1699292420407,0,"06/11/2023 17:40:20",150440,6,"task-gjqt",NA,32748597,9689725,NA,"complete",NA,"6549235a90dc221dcf738816","computer","Desktop or Laptop","Windows 10","Chrome 118.0.0.0","1920x1080","1922x1002",NA,NA,0,"BIQ (Charlotte)",3,"CDBEAFJGIH","Passed AC2","","Spreadsheet1",1,"BIQ","Screen 1","9dh6eq",1,"continue","",41027.209,41016.519,41027.209,41027.209,41016.519,41027.209,1,41027.209,0,0,NA,"Click To Continue","Continue Button",23,"object-48","BIQ",NA,"SUPPRF35697"
"3",1699292420409,"06/11/2023 17:40:20",1699292420409,0,"06/11/2023 17:40:20",150440,6,"task-gjqt",NA,32748597,9689725,NA,"complete",NA,"6549235a90dc221dcf738816","computer","Desktop or Laptop","Windows 10","Chrome 118.0.0.0","1920x1080","1922x1002",NA,NA,0,"BIQ (Charlotte)",3,"CDBEAFJGIH","Passed AC2","","Spreadsheet1",1,"BIQ","Screen 1","9dh6eq",1,"response","6",22949.981,41016.519,41029.8090003815,22949.981,41016.519,41029.8090003815,1,22949.981,18079.8280003815,0,NA,"Rating Scale","Rating Scale",3,"object-5","BIQ",NA,"SUPPRF35697"
"4",1699292420410,"06/11/2023 17:40:20",1699292420410,0,"06/11/2023 17:40:20",150440,6,"task-gjqt",NA,32748597,9689725,NA,"complete",NA,"6549235a90dc221dcf738816","computer","Desktop or Laptop","Windows 10","Chrome 118.0.0.0","1920x1080","1922x1002",NA,NA,0,"BIQ (Charlotte)",3,"CDBEAFJGIH","Passed AC2","","Spreadsheet1",1,"BIQ","Screen 1","9dh6eq",1,"response","7",26649.99,41016.519,41030.209,26649.99,41016.519,41030.209,1,26649.99,14380.219,0,NA,"Rating Scale","Rating Scale",10,"object-18","BIQ",NA,"SUPPRF35697"
"5",1699292420410,"06/11/2023 17:40:20",1699292420410,0,"06/11/2023 17:40:20",150440,6,"task-gjqt",NA,32748597,9689725,NA,"complete",NA,"6549235a90dc221dcf738816","computer","Desktop or Laptop","Windows 10","Chrome 118.0.0.0","1920x1080","1922x1002",NA,NA,0,"BIQ (Charlotte)",3,"CDBEAFJGIH","Passed AC2","","Spreadsheet1",1,"BIQ","Screen 1","9dh6eq",1,"response","1",39950.338,41016.519,41030.5090001907,39950.338,41016.519,41030.5090001907,1,39950.338,1080.17100019073,0,NA,"Rating Scale","Rating Scale",17,"object-80","BIQ",NA,"SUPPRF35697"
"6",1699292444865,"06/11/2023 17:40:44",1699292444865,0,"06/11/2023 17:40:44",150440,6,"task-gjqt",NA,32748597,9689725,NA,"complete",NA,"6549235a90dc221dcf738816","computer","Desktop or Laptop","Windows 10","Chrome 118.0.0.0","1920x1080","1922x1002",NA,NA,0,"BIQ (Charlotte)",3,"CDBEAFJGIH","Passed AC2","","Spreadsheet1",1,"BIQ","Screen 2","o21mwi",2,"continue","",24469.19,24466.622,24469.19,24469.19,24466.622,24469.19,1,24469.19,0,0,NA,"Click To Continue","Continue Button",22,"object-50","BIQ",NA,"SUPPRF35697"
"7",1699292444870,"06/11/2023 17:40:44",1699292444870,0,"06/11/2023 17:40:44",150440,6,"task-gjqt",NA,32748597,9689725,NA,"complete",NA,"6549235a90dc221dcf738816","computer","Desktop or Laptop","Windows 10","Chrome 118.0.0.0","1920x1080","1922x1002",NA,NA,0,"BIQ (Charlotte)",3,"CDBEAFJGIH","Passed AC2","","Spreadsheet1",1,"BIQ","Screen 2","o21mwi",2,"response","8",8683.737,24466.622,24474.5900000954,8683.737,24466.622,24474.5900000954,1,8683.737,15790.8530000954,0,NA,"Rating Scale","Rating Scale",2,"object-259","BIQ",NA,"SUPPRF35697"
"8",1699292444871,"06/11/2023 17:40:44",1699292444871,0,"06/11/2023 17:40:44",150440,6,"task-gjqt",NA,32748597,9689725,NA,"complete",NA,"6549235a90dc221dcf738816","computer","Desktop or Laptop","Windows 10","Chrome 118.0.0.0","1920x1080","1922x1002",NA,NA,0,"BIQ (Charlotte)",3,"CDBEAFJGIH","Passed AC2","","Spreadsheet1",1,"BIQ","Screen 2","o21mwi",2,"response","1",11800.125,24466.622,24475.69,11800.125,24466.622,24475.69,1,11800.125,12675.565,0,NA,"Rating Scale","Rating Scale",9,"object-36","BIQ",NA,"SUPPRF35697"
"9",1699292444872,"06/11/2023 17:40:44",1699292444872,0,"06/11/2023 17:40:44",150440,6,"task-gjqt",NA,32748597,9689725,NA,"complete",NA,"6549235a90dc221dcf738816","computer","Desktop or Laptop","Windows 10","Chrome 118.0.0.0","1920x1080","1922x1002",NA,NA,0,"BIQ (Charlotte)",3,"CDBEAFJGIH","Passed AC2","","Spreadsheet1",1,"BIQ","Screen 2","o21mwi",2,"response","2",22966.838,24466.622,24476.7900003815,22966.838,24466.622,24476.7900003815,1,22966.838,1509.95200038147,0,NA,"Rating Scale","Rating Scale",16,"object-86","BIQ",NA,"SUPPRF35697"
"10",1699292459608,"06/11/2023 17:40:59",1699292459608,0,"06/11/2023 17:40:59",150440,6,"task-gjqt",NA,32748597,9689725,NA,"complete",NA,"6549235a90dc221dcf738816","computer","Desktop or Laptop","Windows 10","Chrome 118.0.0.0","1920x1080","1922x1002",NA,NA,0,"BIQ (Charlotte)",3,"CDBEAFJGIH","Passed AC2","","Spreadsheet1",1,"BIQ","Screen 3","iz3the",3,"continue","",14745.8680001907,14733.186,14745.8680001907,14745.8680001907,14733.186,14745.8680001907,1,14745.8680001907,0,0,NA,"Click To Continue","Continue Button",22,"object-73","BIQ",NA,"SUPPRF35697"
"11",1699292459613,"06/11/2023 17:40:59",1699292459613,0,"06/11/2023 17:40:59",150440,6,"task-gjqt",NA,32748597,9689725,NA,"complete",NA,"6549235a90dc221dcf738816","computer","Desktop or Laptop","Windows 10","Chrome 118.0.0.0","1920x1080","1922x1002",NA,NA,0,"BIQ (Charlotte)",3,"CDBEAFJGIH","Passed AC2","","Spreadsheet1",1,"BIQ","Screen 3","iz3the",3,"response","0",5366.802,14733.186,14749.845,5366.802,14733.186,14749.845,1,5366.802,9383.04300000001,0,NA,"Rating Scale","Rating Scale",2,"object-53","BIQ",NA,"SUPPRF35697"
"12",1699292459615,"06/11/2023 17:40:59",1699292459615,0,"06/11/2023 17:40:59",150440,6,"task-gjqt",NA,32748597,9689725,NA,"complete",NA,"6549235a90dc221dcf738816","computer","Desktop or Laptop","Windows 10","Chrome 118.0.0.0","1920x1080","1922x1002",NA,NA,0,"BIQ (Charlotte)",3,"CDBEAFJGIH","Passed AC2","","Spreadsheet1",1,"BIQ","Screen 3","iz3the",3,"response","1",8033.36900000001,14733.186,14749.845,8033.36900000001,14733.186,14749.845,1,8033.36900000001,6716.476,0,NA,"Rating Scale","Rating Scale",9,"object-60","BIQ",NA,"SUPPRF35697"
"13",1699292459615,"06/11/2023 17:40:59",1699292459615,0,"06/11/2023 17:40:59",150440,6,"task-gjqt",NA,32748597,9689725,NA,"complete",NA,"6549235a90dc221dcf738816","computer","Desktop or Laptop","Windows 10","Chrome 118.0.0.0","1920x1080","1922x1002",NA,NA,0,"BIQ (Charlotte)",3,"CDBEAFJGIH","Passed AC2","","Spreadsheet1",1,"BIQ","Screen 3","iz3the",3,"response","4",12900.023,14733.186,14749.845,12900.023,14733.186,14749.845,1,12900.023,1849.822,0,NA,"Rating Scale","Rating Scale",16,"object-67","BIQ",NA,"SUPPRF35697"
"14",1699292459625,"06/11/2023 17:40:59",1699292459625,0,"06/11/2023 17:40:59",150440,6,"task-gjqt",NA,32748597,9689725,NA,"complete",NA,"6549235a90dc221dcf738816","computer","Desktop or Laptop","Windows 10","Chrome 118.0.0.0","1920x1080","1922x1002",NA,NA,0,"BIQ (Charlotte)",3,"CDBEAFJGIH","Passed AC2","","Spreadsheet1",NA,"","","",NA,"5","END",NA,NA,NA,NA,NA,NA,0,NA,NA,NA,NA,"","",NA,"","",NA,"SUPPRF35697"
"1",1699292807599,"06/11/2023 17:46:47",1699292807599,0,"06/11/2023 17:46:47",150440,6,"task-gjqt",NA,32748888,9689737,NA,"complete",NA,"6549233dade4fb4950ad28ec","computer","Desktop or Laptop","Windows 10","Edge 118.0.2088.76","1920x1080","1856x949",NA,NA,0,"BIQ (Charlotte)",3,"DECFBGAHJI","Passed AC2","","Spreadsheet1",NA,"","","",NA,"5","BEGIN",NA,NA,NA,NA,NA,NA,0,NA,NA,NA,NA,"","",NA,"","",NA,"SUPPRF37035"
"2",1699292830823,"06/11/2023 17:47:10",1699292830823,0,"06/11/2023 17:47:10",150440,6,"task-gjqt",NA,32748888,9689737,NA,"complete",NA,"6549233dade4fb4950ad28ec","computer","Desktop or Laptop","Windows 10","Edge 118.0.2088.76","1920x1080","1856x949",NA,NA,0,"BIQ (Charlotte)",3,"DECFBGAHJI","Passed AC2","","Spreadsheet1",1,"BIQ","Screen 1","9dh6eq",1,"continue","",23246.5090003815,23232.788,23246.5090003815,23246.5090003815,23232.788,23246.5090003815,1,23246.5090003815,0,0,NA,"Click To Continue","Continue Button",23,"object-48","BIQ",NA,"SUPPRF37035"
"3",1699292830826,"06/11/2023 17:47:10",1699292830826,0,"06/11/2023 17:47:10",150440,6,"task-gjqt",NA,32748888,9689737,NA,"complete",NA,"6549233dade4fb4950ad28ec","computer","Desktop or Laptop","Windows 10","Edge 118.0.2088.76","1920x1080","1856x949",NA,NA,0,"BIQ (Charlotte)",3,"DECFBGAHJI","Passed AC2","","Spreadsheet1",1,"BIQ","Screen 1","9dh6eq",1,"response","4",8016.564,23232.788,23249.257,8016.564,23232.788,23249.257,1,8016.564,15232.693,0,NA,"Rating Scale","Rating Scale",3,"object-5","BIQ",NA,"SUPPRF37035"
"4",1699292830827,"06/11/2023 17:47:10",1699292830827,0,"06/11/2023 17:47:10",150440,6,"task-gjqt",NA,32748888,9689737,NA,"complete",NA,"6549233dade4fb4950ad28ec","computer","Desktop or Laptop","Windows 10","Edge 118.0.2088.76","1920x1080","1856x949",NA,NA,0,"BIQ (Charlotte)",3,"DECFBGAHJI","Passed AC2","","Spreadsheet1",1,"BIQ","Screen 1","9dh6eq",1,"response","7",17049.636,23232.788,23249.257,17049.636,23232.788,23249.257,1,17049.636,6199.621,0,NA,"Rating Scale","Rating Scale",10,"object-18","BIQ",NA,"SUPPRF37035"
"5",1699292830828,"06/11/2023 17:47:10",1699292830828,0,"06/11/2023 17:47:10",150440,6,"task-gjqt",NA,32748888,9689737,NA,"complete",NA,"6549233dade4fb4950ad28ec","computer","Desktop or Laptop","Windows 10","Edge 118.0.2088.76","1920x1080","1856x949",NA,NA,0,"BIQ (Charlotte)",3,"DECFBGAHJI","Passed AC2","","Spreadsheet1",1,"BIQ","Screen 1","9dh6eq",1,"response","1",22199.57,23232.788,23249.257,22199.57,23232.788,23249.257,1,22199.57,1049.687,0,NA,"Rating Scale","Rating Scale",17,"object-80","BIQ",NA,"SUPPRF37035"
"6",1699292850883,"06/11/2023 17:47:30",1699292850883,0,"06/11/2023 17:47:30",150440,6,"task-gjqt",NA,32748888,9689737,NA,"complete",NA,"6549233dade4fb4950ad28ec","computer","Desktop or Laptop","Windows 10","Edge 118.0.2088.76","1920x1080","1856x949",NA,NA,0,"BIQ (Charlotte)",3,"DECFBGAHJI","Passed AC2","","Spreadsheet1",1,"BIQ","Screen 2","o21mwi",2,"continue","",20074.621,20066.262,20074.621,20074.621,20066.262,20074.621,1,20074.621,0,0,NA,"Click To Continue","Continue Button",22,"object-50","BIQ",NA,"SUPPRF37035"
"7",1699292850888,"06/11/2023 17:47:30",1699292850888,0,"06/11/2023 17:47:30",150440,6,"task-gjqt",NA,32748888,9689737,NA,"complete",NA,"6549233dade4fb4950ad28ec","computer","Desktop or Laptop","Windows 10","Edge 118.0.2088.76","1920x1080","1856x949",NA,NA,0,"BIQ (Charlotte)",3,"DECFBGAHJI","Passed AC2","","Spreadsheet1",1,"BIQ","Screen 2","o21mwi",2,"response","7",5899.856,20066.262,20080.0210000954,5899.856,20066.262,20080.0210000954,1,5899.856,14180.1650000954,0,NA,"Rating Scale","Rating Scale",2,"object-259","BIQ",NA,"SUPPRF37035"
"8",1699292850889,"06/11/2023 17:47:30",1699292850889,0,"06/11/2023 17:47:30",150440,6,"task-gjqt",NA,32748888,9689737,NA,"complete",NA,"6549233dade4fb4950ad28ec","computer","Desktop or Laptop","Windows 10","Edge 118.0.2088.76","1920x1080","1856x949",NA,NA,0,"BIQ (Charlotte)",3,"DECFBGAHJI","Passed AC2","","Spreadsheet1",1,"BIQ","Screen 2","o21mwi",2,"response","1",11049.895,20066.262,20081.121,11049.895,20066.262,20081.121,1,11049.895,9031.226,0,NA,"Rating Scale","Rating Scale",9,"object-36","BIQ",NA,"SUPPRF37035"
"9",1699292850890,"06/11/2023 17:47:30",1699292850890,0,"06/11/2023 17:47:30",150440,6,"task-gjqt",NA,32748888,9689737,NA,"complete",NA,"6549233dade4fb4950ad28ec","computer","Desktop or Laptop","Windows 10","Edge 118.0.2088.76","1920x1080","1856x949",NA,NA,0,"BIQ (Charlotte)",3,"DECFBGAHJI","Passed AC2","","Spreadsheet1",1,"BIQ","Screen 2","o21mwi",2,"response","1",19099.696,20066.262,20082.121,19099.696,20066.262,20082.121,1,19099.696,982.425000000003,0,NA,"Rating Scale","Rating Scale",16,"object-86","BIQ",NA,"SUPPRF37035"
"10",1699292861017,"06/11/2023 17:47:41",1699292861017,0,"06/11/2023 17:47:41",150440,6,"task-gjqt",NA,32748888,9689737,NA,"complete",NA,"6549233dade4fb4950ad28ec","computer","Desktop or Laptop","Windows 10","Edge 118.0.2088.76","1920x1080","1856x949",NA,NA,0,"BIQ (Charlotte)",3,"DECFBGAHJI","Passed AC2","","Spreadsheet1",1,"BIQ","Screen 3","iz3the",3,"continue","",10142.359,10133.138,10142.359,10142.359,10133.138,10142.359,1,10142.359,0,0,NA,"Click To Continue","Continue Button",22,"object-73","BIQ",NA,"SUPPRF37035"
"11",1699292861021,"06/11/2023 17:47:41",1699292861021,0,"06/11/2023 17:47:41",150440,6,"task-gjqt",NA,32748888,9689737,NA,"complete",NA,"6549233dade4fb4950ad28ec","computer","Desktop or Laptop","Windows 10","Edge 118.0.2088.76","1920x1080","1856x949",NA,NA,0,"BIQ (Charlotte)",3,"DECFBGAHJI","Passed AC2","","Spreadsheet1",1,"BIQ","Screen 3","iz3the",3,"response","1",4966.367,10133.138,10147.1590001907,4966.367,10133.138,10147.1590001907,1,4966.367,5180.79200019073,0,NA,"Rating Scale","Rating Scale",2,"object-53","BIQ",NA,"SUPPRF37035"
"12",1699292861022,"06/11/2023 17:47:41",1699292861022,0,"06/11/2023 17:47:41",150440,6,"task-gjqt",NA,32748888,9689737,NA,"complete",NA,"6549233dade4fb4950ad28ec","computer","Desktop or Laptop","Windows 10","Edge 118.0.2088.76","1920x1080","1856x949",NA,NA,0,"BIQ (Charlotte)",3,"DECFBGAHJI","Passed AC2","","Spreadsheet1",1,"BIQ","Screen 3","iz3the",3,"response","1",5849.738,10133.138,10147.859,5849.738,10133.138,10147.859,1,5849.738,4298.121,0,NA,"Rating Scale","Rating Scale",9,"object-60","BIQ",NA,"SUPPRF37035"
"13",1699292861023,"06/11/2023 17:47:41",1699292861023,0,"06/11/2023 17:47:41",150440,6,"task-gjqt",NA,32748888,9689737,NA,"complete",NA,"6549233dade4fb4950ad28ec","computer","Desktop or Laptop","Windows 10","Edge 118.0.2088.76","1920x1080","1856x949",NA,NA,0,"BIQ (Charlotte)",3,"DECFBGAHJI","Passed AC2","","Spreadsheet1",1,"BIQ","Screen 3","iz3the",3,"response","1",7816.535,10133.138,10148.5590002861,7816.535,10133.138,10148.5590002861,1,7816.535,2332.0240002861,0,NA,"Rating Scale","Rating Scale",16,"object-67","BIQ",NA,"SUPPRF37035"
"14",1699292861028,"06/11/2023 17:47:41",1699292861028,0,"06/11/2023 17:47:41",150440,6,"task-gjqt",NA,32748888,9689737,NA,"complete",NA,"6549233dade4fb4950ad28ec","computer","Desktop or Laptop","Windows 10","Edge 118.0.2088.76","1920x1080","1856x949",NA,NA,0,"BIQ (Charlotte)",3,"DECFBGAHJI","Passed AC2","","Spreadsheet1",NA,"","","",NA,"5","END",NA,NA,NA,NA,NA,NA,0,NA,NA,NA,NA,"","",NA,"","",NA,"SUPPRF37035"
"1",1699292190719,"06/11/2023 17:36:30",1699292190719,0,"06/11/2023 17:36:30",150440,6,"task-gjqt",NA,32748493,9689740,NA,"complete",NA,"6549238893c8ae4ef7a1fcaf","computer","Desktop or Laptop","Mac OS 10.15.7","Chrome 117.0.0.0","1440x900","1440x720",NA,NA,0,"BIQ (Charlotte)",3,"EFDGCHBIAJ","Passed AC2","","Spreadsheet1",NA,"","","",NA,"5","BEGIN",NA,NA,NA,NA,NA,NA,0,NA,NA,NA,NA,"","",NA,"","",NA,"SUPPRF68142"
"2",1699292243722,"06/11/2023 17:37:23",1699292243722,0,"06/11/2023 17:37:23",150440,6,"task-gjqt",NA,32748493,9689740,NA,"complete",NA,"6549238893c8ae4ef7a1fcaf","computer","Desktop or Laptop","Mac OS 10.15.7","Chrome 117.0.0.0","1440x900","1440x720",NA,NA,0,"BIQ (Charlotte)",3,"EFDGCHBIAJ","Passed AC2","","Spreadsheet1",1,"BIQ","Screen 1","9dh6eq",1,"continue","",53025.7109999985,53014.747,53025.7109999985,53025.7109999985,53014.747,53025.7109999985,1,53025.7109999985,0,0,NA,"Click To Continue","Continue Button",23,"object-48","BIQ",NA,"SUPPRF68142"
"3",1699292243726,"06/11/2023 17:37:23",1699292243726,0,"06/11/2023 17:37:23",150440,6,"task-gjqt",NA,32748493,9689740,NA,"complete",NA,"6549238893c8ae4ef7a1fcaf","computer","Desktop or Laptop","Mac OS 10.15.7","Chrome 117.0.0.0","1440x900","1440x720",NA,NA,0,"BIQ (Charlotte)",3,"EFDGCHBIAJ","Passed AC2","","Spreadsheet1",1,"BIQ","Screen 1","9dh6eq",1,"response","6",13557.547,53014.747,53031.2109999985,13557.547,53014.747,53031.2109999985,1,13557.547,39473.6639999985,0,NA,"Rating Scale","Rating Scale",3,"object-5","BIQ",NA,"SUPPRF68142"
"4",1699292243727,"06/11/2023 17:37:23",1699292243727,0,"06/11/2023 17:37:23",150440,6,"task-gjqt",NA,32748493,9689740,NA,"complete",NA,"6549238893c8ae4ef7a1fcaf","computer","Desktop or Laptop","Mac OS 10.15.7","Chrome 117.0.0.0","1440x900","1440x720",NA,NA,0,"BIQ (Charlotte)",3,"EFDGCHBIAJ","Passed AC2","","Spreadsheet1",1,"BIQ","Screen 1","9dh6eq",1,"response","8",37308.705,53014.747,53031.402,37308.705,53014.747,53031.402,1,37308.705,15722.697,0,NA,"Rating Scale","Rating Scale",10,"object-18","BIQ",NA,"SUPPRF68142"
"5",1699292243727,"06/11/2023 17:37:23",1699292243727,0,"06/11/2023 17:37:23",150440,6,"task-gjqt",NA,32748493,9689740,NA,"complete",NA,"6549238893c8ae4ef7a1fcaf","computer","Desktop or Laptop","Mac OS 10.15.7","Chrome 117.0.0.0","1440x900","1440x720",NA,NA,0,"BIQ (Charlotte)",3,"EFDGCHBIAJ","Passed AC2","","Spreadsheet1",1,"BIQ","Screen 1","9dh6eq",1,"response","0",51299.282,53014.747,53031.402,51299.282,53014.747,53031.402,1,51299.282,1732.12,0,NA,"Rating Scale","Rating Scale",17,"object-80","BIQ",NA,"SUPPRF68142"
"6",1699292292250,"06/11/2023 17:38:12",1699292292250,0,"06/11/2023 17:38:12",150440,6,"task-gjqt",NA,32748493,9689740,NA,"complete",NA,"6549238893c8ae4ef7a1fcaf","computer","Desktop or Laptop","Mac OS 10.15.7","Chrome 117.0.0.0","1440x900","1440x720",NA,NA,0,"BIQ (Charlotte)",3,"EFDGCHBIAJ","Passed AC2","","Spreadsheet1",1,"BIQ","Screen 2","o21mwi",2,"continue","",48541.564,48534.551,48541.564,48541.564,48534.551,48541.564,1,48541.564,0,0,NA,"Click To Continue","Continue Button",22,"object-50","BIQ",NA,"SUPPRF68142"
"7",1699292292254,"06/11/2023 17:38:12",1699292292254,0,"06/11/2023 17:38:12",150440,6,"task-gjqt",NA,32748493,9689740,NA,"complete",NA,"6549238893c8ae4ef7a1fcaf","computer","Desktop or Laptop","Mac OS 10.15.7","Chrome 117.0.0.0","1440x900","1440x720",NA,NA,0,"BIQ (Charlotte)",3,"EFDGCHBIAJ","Passed AC2","","Spreadsheet1",1,"BIQ","Screen 2","o21mwi",2,"response","6",10059.996,48534.551,48545.564,10059.996,48534.551,48545.564,1,10059.996,38485.568,0,NA,"Rating Scale","Rating Scale",2,"object-259","BIQ",NA,"SUPPRF68142"
"8",1699292292254,"06/11/2023 17:38:12",1699292292254,0,"06/11/2023 17:38:12",150440,6,"task-gjqt",NA,32748493,9689740,NA,"complete",NA,"6549238893c8ae4ef7a1fcaf","computer","Desktop or Laptop","Mac OS 10.15.7","Chrome 117.0.0.0","1440x900","1440x720",NA,NA,0,"BIQ (Charlotte)",3,"EFDGCHBIAJ","Passed AC2","","Spreadsheet1",1,"BIQ","Screen 2","o21mwi",2,"response","4",28747.658,48534.551,48546.4639999985,28747.658,48534.551,48546.4639999985,1,28747.658,19798.8059999985,0,NA,"Rating Scale","Rating Scale",9,"object-36","BIQ",NA,"SUPPRF68142"
"9",1699292292255,"06/11/2023 17:38:12",1699292292255,0,"06/11/2023 17:38:12",150440,6,"task-gjqt",NA,32748493,9689740,NA,"complete",NA,"6549238893c8ae4ef7a1fcaf","computer","Desktop or Laptop","Mac OS 10.15.7","Chrome 117.0.0.0","1440x900","1440x720",NA,NA,0,"BIQ (Charlotte)",3,"EFDGCHBIAJ","Passed AC2","","Spreadsheet1",1,"BIQ","Screen 2","o21mwi",2,"response","4",34527.32,48534.551,48547.2639999993,34527.32,48534.551,48547.2639999993,1,34527.32,14019.9439999993,0,NA,"Rating Scale","Rating Scale",16,"object-86","BIQ",NA,"SUPPRF68142"
"10",1699292309871,"06/11/2023 17:38:29",1699292309871,0,"06/11/2023 17:38:29",150440,6,"task-gjqt",NA,32748493,9689740,NA,"complete",NA,"6549238893c8ae4ef7a1fcaf","computer","Desktop or Laptop","Mac OS 10.15.7","Chrome 117.0.0.0","1440x900","1440x720",NA,NA,0,"BIQ (Charlotte)",3,"EFDGCHBIAJ","Passed AC2","","Spreadsheet1",1,"BIQ","Screen 3","iz3the",3,"continue","",17629.013,17621.742,17629.013,17629.013,17621.742,17629.013,1,17629.013,0,0,NA,"Click To Continue","Continue Button",22,"object-73","BIQ",NA,"SUPPRF68142"
"11",1699292309875,"06/11/2023 17:38:29",1699292309875,0,"06/11/2023 17:38:29",150440,6,"task-gjqt",NA,32748493,9689740,NA,"complete",NA,"6549238893c8ae4ef7a1fcaf","computer","Desktop or Laptop","Mac OS 10.15.7","Chrome 117.0.0.0","1440x900","1440x720",NA,NA,0,"BIQ (Charlotte)",3,"EFDGCHBIAJ","Passed AC2","","Spreadsheet1",1,"BIQ","Screen 3","iz3the",3,"response","0",5962.86600000001,17621.742,17632.8130000008,5962.86600000001,17621.742,17632.8130000008,1,5962.86600000001,11669.9470000007,0,NA,"Rating Scale","Rating Scale",2,"object-53","BIQ",NA,"SUPPRF68142"
"12",1699292309876,"06/11/2023 17:38:29",1699292309876,0,"06/11/2023 17:38:29",150440,6,"task-gjqt",NA,32748493,9689740,NA,"complete",NA,"6549238893c8ae4ef7a1fcaf","computer","Desktop or Laptop","Mac OS 10.15.7","Chrome 117.0.0.0","1440x900","1440x720",NA,NA,0,"BIQ (Charlotte)",3,"EFDGCHBIAJ","Passed AC2","","Spreadsheet1",1,"BIQ","Screen 3","iz3the",3,"response","6",12591.556,17621.742,17633.513,12591.556,17621.742,17633.513,1,12591.556,5041.95699999999,0,NA,"Rating Scale","Rating Scale",9,"object-60","BIQ",NA,"SUPPRF68142"
"13",1699292309878,"06/11/2023 17:38:29",1699292309878,0,"06/11/2023 17:38:29",150440,6,"task-gjqt",NA,32748493,9689740,NA,"complete",NA,"6549238893c8ae4ef7a1fcaf","computer","Desktop or Laptop","Mac OS 10.15.7","Chrome 117.0.0.0","1440x900","1440x720",NA,NA,0,"BIQ (Charlotte)",3,"EFDGCHBIAJ","Passed AC2","","Spreadsheet1",1,"BIQ","Screen 3","iz3the",3,"response","8",16705.717,17621.742,17635.7129999993,16705.717,17621.742,17635.7129999993,1,16705.717,929.995999999257,0,NA,"Rating Scale","Rating Scale",16,"object-67","BIQ",NA,"SUPPRF68142"
"14",1699292309885,"06/11/2023 17:38:29",1699292309885,0,"06/11/2023 17:38:29",150440,6,"task-gjqt",NA,32748493,9689740,NA,"complete",NA,"6549238893c8ae4ef7a1fcaf","computer","Desktop or Laptop","Mac OS 10.15.7","Chrome 117.0.0.0","1440x900","1440x720",NA,NA,0,"BIQ (Charlotte)",3,"EFDGCHBIAJ","Passed AC2","","Spreadsheet1",NA,"","","",NA,"5","END",NA,NA,NA,NA,NA,NA,0,NA,NA,NA,NA,"","",NA,"","",NA,"SUPPRF68142"
"1",1699292306060,"06/11/2023 17:38:26",1699292306060,0,"06/11/2023 17:38:26",150440,6,"task-gjqt",NA,32748555,9689753,NA,"complete",NA,"654921a01b51558a50a1fe5a","computer","Desktop or Laptop","Windows 10","Chrome 118.0.0.0","1536x864","1536x739",NA,NA,0,"BIQ (Charlotte)",3,"FGEHDICJBA","Passed AC2","","Spreadsheet1",NA,"","","",NA,"5","BEGIN",NA,NA,NA,NA,NA,NA,0,NA,NA,NA,NA,"","",NA,"","",NA,"SUPPRF88148"
"2",1699292339136,"06/11/2023 17:38:59",1699292339136,0,"06/11/2023 17:38:59",150440,6,"task-gjqt",NA,32748555,9689753,NA,"complete",NA,"654921a01b51558a50a1fe5a","computer","Desktop or Laptop","Windows 10","Chrome 118.0.0.0","1536x864","1536x739",NA,NA,0,"BIQ (Charlotte)",3,"FGEHDICJBA","Passed AC2","","Spreadsheet1",1,"BIQ","Screen 1","9dh6eq",1,"continue","",33094.466,33081.74,33094.466,33094.466,33081.74,33094.466,1,33094.466,0,0,NA,"Click To Continue","Continue Button",23,"object-48","BIQ",NA,"SUPPRF88148"
"3",1699292339140,"06/11/2023 17:38:59",1699292339140,0,"06/11/2023 17:38:59",150440,6,"task-gjqt",NA,32748555,9689753,NA,"complete",NA,"654921a01b51558a50a1fe5a","computer","Desktop or Laptop","Windows 10","Chrome 118.0.0.0","1536x864","1536x739",NA,NA,0,"BIQ (Charlotte)",3,"FGEHDICJBA","Passed AC2","","Spreadsheet1",1,"BIQ","Screen 1","9dh6eq",1,"response","6",14432.575,33081.74,33098.406,14432.575,33081.74,33098.406,1,14432.575,18665.831,0,NA,"Rating Scale","Rating Scale",3,"object-5","BIQ",NA,"SUPPRF88148"
"4",1699292339141,"06/11/2023 17:38:59",1699292339141,0,"06/11/2023 17:38:59",150440,6,"task-gjqt",NA,32748555,9689753,NA,"complete",NA,"654921a01b51558a50a1fe5a","computer","Desktop or Laptop","Windows 10","Chrome 118.0.0.0","1536x864","1536x739",NA,NA,0,"BIQ (Charlotte)",3,"FGEHDICJBA","Passed AC2","","Spreadsheet1",1,"BIQ","Screen 1","9dh6eq",1,"response","6",28565.126,33081.74,33098.406,28565.126,33081.74,33098.406,1,28565.126,4533.28,0,NA,"Rating Scale","Rating Scale",10,"object-18","BIQ",NA,"SUPPRF88148"
"5",1699292339141,"06/11/2023 17:38:59",1699292339141,0,"06/11/2023 17:38:59",150440,6,"task-gjqt",NA,32748555,9689753,NA,"complete",NA,"654921a01b51558a50a1fe5a","computer","Desktop or Laptop","Windows 10","Chrome 118.0.0.0","1536x864","1536x739",NA,NA,0,"BIQ (Charlotte)",3,"FGEHDICJBA","Passed AC2","","Spreadsheet1",1,"BIQ","Screen 1","9dh6eq",1,"response","3",32448.129,33081.74,33098.406,32448.129,33081.74,33098.406,1,32448.129,650.276999999995,0,NA,"Rating Scale","Rating Scale",17,"object-80","BIQ",NA,"SUPPRF88148"
"6",1699292390828,"06/11/2023 17:39:50",1699292390828,0,"06/11/2023 17:39:50",150440,6,"task-gjqt",NA,32748555,9689753,NA,"complete",NA,"654921a01b51558a50a1fe5a","computer","Desktop or Laptop","Windows 10","Chrome 118.0.0.0","1536x864","1536x739",NA,NA,0,"BIQ (Charlotte)",3,"FGEHDICJBA","Passed AC2","","Spreadsheet1",1,"BIQ","Screen 2","o21mwi",2,"continue","",51710.3260000238,51696.418,51710.3260000238,51710.3260000238,51696.418,51710.3260000238,1,51710.3260000238,0,0,NA,"Click To Continue","Continue Button",22,"object-50","BIQ",NA,"SUPPRF88148"
"7",1699292390833,"06/11/2023 17:39:50",1699292390833,0,"06/11/2023 17:39:50",150440,6,"task-gjqt",NA,32748555,9689753,NA,"complete",NA,"654921a01b51558a50a1fe5a","computer","Desktop or Laptop","Windows 10","Chrome 118.0.0.0","1536x864","1536x739",NA,NA,0,"BIQ (Charlotte)",3,"FGEHDICJBA","Passed AC2","","Spreadsheet1",1,"BIQ","Screen 2","o21mwi",2,"response","8",13265.513,51696.418,51712.947,13265.513,51696.418,51712.947,1,13265.513,38447.434,0,NA,"Rating Scale","Rating Scale",2,"object-259","BIQ",NA,"SUPPRF88148"
"8",1699292390834,"06/11/2023 17:39:50",1699292390834,0,"06/11/2023 17:39:50",150440,6,"task-gjqt",NA,32748555,9689753,NA,"complete",NA,"654921a01b51558a50a1fe5a","computer","Desktop or Laptop","Windows 10","Chrome 118.0.0.0","1536x864","1536x739",NA,NA,0,"BIQ (Charlotte)",3,"FGEHDICJBA","Passed AC2","","Spreadsheet1",1,"BIQ","Screen 2","o21mwi",2,"response","2",33631.203,51696.418,51712.947,33631.203,51696.418,51712.947,1,33631.203,18081.744,0,NA,"Rating Scale","Rating Scale",9,"object-36","BIQ",NA,"SUPPRF88148"
"9",1699292390835,"06/11/2023 17:39:50",1699292390835,0,"06/11/2023 17:39:50",150440,6,"task-gjqt",NA,32748555,9689753,NA,"complete",NA,"654921a01b51558a50a1fe5a","computer","Desktop or Laptop","Windows 10","Chrome 118.0.0.0","1536x864","1536x739",NA,NA,0,"BIQ (Charlotte)",3,"FGEHDICJBA","Passed AC2","","Spreadsheet1",1,"BIQ","Screen 2","o21mwi",2,"response","3",50863.13,51696.418,51712.947,50863.13,51696.418,51712.947,1,50863.13,849.816999999995,0,NA,"Rating Scale","Rating Scale",16,"object-86","BIQ",NA,"SUPPRF88148"
"10",1699292425643,"06/11/2023 17:40:25",1699292425643,0,"06/11/2023 17:40:25",150440,6,"task-gjqt",NA,32748555,9689753,NA,"complete",NA,"654921a01b51558a50a1fe5a","computer","Desktop or Laptop","Windows 10","Chrome 118.0.0.0","1536x864","1536x739",NA,NA,0,"BIQ (Charlotte)",3,"FGEHDICJBA","Passed AC2","","Spreadsheet1",1,"BIQ","Screen 3","iz3the",3,"continue","",34828.308,34814.484,34828.308,34828.308,34814.484,34828.308,1,34828.308,0,0,NA,"Click To Continue","Continue Button",22,"object-73","BIQ",NA,"SUPPRF88148"
"11",1699292425646,"06/11/2023 17:40:25",1699292425646,0,"06/11/2023 17:40:25",150440,6,"task-gjqt",NA,32748555,9689753,NA,"complete",NA,"654921a01b51558a50a1fe5a","computer","Desktop or Laptop","Windows 10","Chrome 118.0.0.0","1536x864","1536x739",NA,NA,0,"BIQ (Charlotte)",3,"FGEHDICJBA","Passed AC2","","Spreadsheet1",1,"BIQ","Screen 3","iz3the",3,"response","0",11482.878,34814.484,34831.244,11482.878,34814.484,34831.244,1,11482.878,23348.366,0,NA,"Rating Scale","Rating Scale",2,"object-53","BIQ",NA,"SUPPRF88148"
"12",1699292425646,"06/11/2023 17:40:25",1699292425646,0,"06/11/2023 17:40:25",150440,6,"task-gjqt",NA,32748555,9689753,NA,"complete",NA,"654921a01b51558a50a1fe5a","computer","Desktop or Laptop","Windows 10","Chrome 118.0.0.0","1536x864","1536x739",NA,NA,0,"BIQ (Charlotte)",3,"FGEHDICJBA","Passed AC2","","Spreadsheet1",1,"BIQ","Screen 3","iz3the",3,"response","1",26598.264,34814.484,34831.244,26598.264,34814.484,34831.244,1,26598.264,8232.98000000001,0,NA,"Rating Scale","Rating Scale",9,"object-60","BIQ",NA,"SUPPRF88148"
"13",1699292425647,"06/11/2023 17:40:25",1699292425647,0,"06/11/2023 17:40:25",150440,6,"task-gjqt",NA,32748555,9689753,NA,"complete",NA,"654921a01b51558a50a1fe5a","computer","Desktop or Laptop","Windows 10","Chrome 118.0.0.0","1536x864","1536x739",NA,NA,0,"BIQ (Charlotte)",3,"FGEHDICJBA","Passed AC2","","Spreadsheet1",1,"BIQ","Screen 3","iz3the",3,"response","0",34081.34,34814.484,34831.244,34081.34,34814.484,34831.244,1,34081.34,749.90400000001,0,NA,"Rating Scale","Rating Scale",16,"object-67","BIQ",NA,"SUPPRF88148"
"14",1699292425651,"06/11/2023 17:40:25",1699292425651,0,"06/11/2023 17:40:25",150440,6,"task-gjqt",NA,32748555,9689753,NA,"complete",NA,"654921a01b51558a50a1fe5a","computer","Desktop or Laptop","Windows 10","Chrome 118.0.0.0","1536x864","1536x739",NA,NA,0,"BIQ (Charlotte)",3,"FGEHDICJBA","Passed AC2","","Spreadsheet1",NA,"","","",NA,"5","END",NA,NA,NA,NA,NA,NA,0,NA,NA,NA,NA,"","",NA,"","",NA,"SUPPRF88148"
"1",1699292446308,"06/11/2023 17:40:46",1699292446308,0,"06/11/2023 17:40:46",150440,6,"task-gjqt",NA,32748641,9689775,NA,"complete",NA,"6549244aa62da2216068a2f5","computer","Desktop or Laptop","Chromium OS 14541.0.0","Chrome 118.0.0.0","1920x1080","1280x641",NA,NA,0,"BIQ (Charlotte)",3,"GHFIEJDACB","Passed AC2","","Spreadsheet1",NA,"","","",NA,"5","BEGIN",NA,NA,NA,NA,NA,NA,0,NA,NA,NA,NA,"","",NA,"","",NA,"SUPPRF85297"
"2",1699292483080,"06/11/2023 17:41:23",1699292483080,0,"06/11/2023 17:41:23",150440,6,"task-gjqt",NA,32748641,9689775,NA,"complete",NA,"6549244aa62da2216068a2f5","computer","Desktop or Laptop","Chromium OS 14541.0.0","Chrome 118.0.0.0","1920x1080","1280x641",NA,NA,0,"BIQ (Charlotte)",3,"GHFIEJDACB","Passed AC2","","Spreadsheet1",1,"BIQ","Screen 1","9dh6eq",1,"continue","",36784.599,36767.947,36784.599,36784.599,36767.947,36784.599,1,36784.599,0,0,NA,"Click To Continue","Continue Button",23,"object-48","BIQ",NA,"SUPPRF85297"
"3",1699292483088,"06/11/2023 17:41:23",1699292483088,0,"06/11/2023 17:41:23",150440,6,"task-gjqt",NA,32748641,9689775,NA,"complete",NA,"6549244aa62da2216068a2f5","computer","Desktop or Laptop","Chromium OS 14541.0.0","Chrome 118.0.0.0","1920x1080","1280x641",NA,NA,0,"BIQ (Charlotte)",3,"GHFIEJDACB","Passed AC2","","Spreadsheet1",1,"BIQ","Screen 1","9dh6eq",1,"response","5",20149.09,36767.947,36784.599,20149.09,36767.947,36784.599,1,20149.09,16635.509,0,NA,"Rating Scale","Rating Scale",3,"object-5","BIQ",NA,"SUPPRF85297"
"4",1699292483089,"06/11/2023 17:41:23",1699292483089,0,"06/11/2023 17:41:23",150440,6,"task-gjqt",NA,32748641,9689775,NA,"complete",NA,"6549244aa62da2216068a2f5","computer","Desktop or Laptop","Chromium OS 14541.0.0","Chrome 118.0.0.0","1920x1080","1280x641",NA,NA,0,"BIQ (Charlotte)",3,"GHFIEJDACB","Passed AC2","","Spreadsheet1",1,"BIQ","Screen 1","9dh6eq",1,"response","4",31738.992,36767.947,36784.599,31738.992,36767.947,36784.599,1,31738.992,5045.607,0,NA,"Rating Scale","Rating Scale",10,"object-18","BIQ",NA,"SUPPRF85297"
"5",1699292483091,"06/11/2023 17:41:23",1699292483091,0,"06/11/2023 17:41:23",150440,6,"task-gjqt",NA,32748641,9689775,NA,"complete",NA,"6549244aa62da2216068a2f5","computer","Desktop or Laptop","Chromium OS 14541.0.0","Chrome 118.0.0.0","1920x1080","1280x641",NA,NA,0,"BIQ (Charlotte)",3,"GHFIEJDACB","Passed AC2","","Spreadsheet1",1,"BIQ","Screen 1","9dh6eq",1,"response","4",35602.293,36767.947,36784.599,35602.293,36767.947,36784.599,1,35602.293,1182.30599999999,0,NA,"Rating Scale","Rating Scale",17,"object-80","BIQ",NA,"SUPPRF85297"
"6",1699292503950,"06/11/2023 17:41:43",1699292503950,0,"06/11/2023 17:41:43",150440,6,"task-gjqt",NA,32748641,9689775,NA,"complete",NA,"6549244aa62da2216068a2f5","computer","Desktop or Laptop","Chromium OS 14541.0.0","Chrome 118.0.0.0","1920x1080","1280x641",NA,NA,0,"BIQ (Charlotte)",3,"GHFIEJDACB","Passed AC2","","Spreadsheet1",1,"BIQ","Screen 2","o21mwi",2,"continue","",20891.821,20881.791,20891.821,20891.821,20881.791,20891.821,1,20891.821,0,0,NA,"Click To Continue","Continue Button",22,"object-50","BIQ",NA,"SUPPRF85297"
"7",1699292503957,"06/11/2023 17:41:43",1699292503957,0,"06/11/2023 17:41:43",150440,6,"task-gjqt",NA,32748641,9689775,NA,"complete",NA,"6549244aa62da2216068a2f5","computer","Desktop or Laptop","Chromium OS 14541.0.0","Chrome 118.0.0.0","1920x1080","1280x641",NA,NA,0,"BIQ (Charlotte)",3,"GHFIEJDACB","Passed AC2","","Spreadsheet1",1,"BIQ","Screen 2","o21mwi",2,"response","2",9391.805,20881.791,20898.443,9391.805,20881.791,20898.443,1,9391.805,11506.638,0,NA,"Rating Scale","Rating Scale",2,"object-259","BIQ",NA,"SUPPRF85297"
"8",1699292503959,"06/11/2023 17:41:43",1699292503959,0,"06/11/2023 17:41:43",150440,6,"task-gjqt",NA,32748641,9689775,NA,"complete",NA,"6549244aa62da2216068a2f5","computer","Desktop or Laptop","Chromium OS 14541.0.0","Chrome 118.0.0.0","1920x1080","1280x641",NA,NA,0,"BIQ (Charlotte)",3,"GHFIEJDACB","Passed AC2","","Spreadsheet1",1,"BIQ","Screen 2","o21mwi",2,"response","7",13754.672,20881.791,20898.443,13754.672,20881.791,20898.443,1,13754.672,7143.77100000001,0,NA,"Rating Scale","Rating Scale",9,"object-36","BIQ",NA,"SUPPRF85297"
"9",1699292503961,"06/11/2023 17:41:43",1699292503961,0,"06/11/2023 17:41:43",150440,6,"task-gjqt",NA,32748641,9689775,NA,"complete",NA,"6549244aa62da2216068a2f5","computer","Desktop or Laptop","Chromium OS 14541.0.0","Chrome 118.0.0.0","1920x1080","1280x641",NA,NA,0,"BIQ (Charlotte)",3,"GHFIEJDACB","Passed AC2","","Spreadsheet1",1,"BIQ","Screen 2","o21mwi",2,"response","8",19782.75,20881.791,20898.443,19782.75,20881.791,20898.443,1,19782.75,1115.69300000001,0,NA,"Rating Scale","Rating Scale",16,"object-86","BIQ",NA,"SUPPRF85297"
"10",1699292523183,"06/11/2023 17:42:03",1699292523183,0,"06/11/2023 17:42:03",150440,6,"task-gjqt",NA,32748641,9689775,NA,"complete",NA,"6549244aa62da2216068a2f5","computer","Desktop or Laptop","Chromium OS 14541.0.0","Chrome 118.0.0.0","1920x1080","1280x641",NA,NA,0,"BIQ (Charlotte)",3,"GHFIEJDACB","Passed AC2","","Spreadsheet1",1,"BIQ","Screen 3","iz3the",3,"continue","",19242.33,19233.24,19242.33,19242.33,19233.24,19242.33,1,19242.33,0,0,NA,"Click To Continue","Continue Button",22,"object-73","BIQ",NA,"SUPPRF85297"
"11",1699292523192,"06/11/2023 17:42:03",1699292523192,0,"06/11/2023 17:42:03",150440,6,"task-gjqt",NA,32748641,9689775,NA,"complete",NA,"6549244aa62da2216068a2f5","computer","Desktop or Laptop","Chromium OS 14541.0.0","Chrome 118.0.0.0","1920x1080","1280x641",NA,NA,0,"BIQ (Charlotte)",3,"GHFIEJDACB","Passed AC2","","Spreadsheet1",1,"BIQ","Screen 3","iz3the",3,"response","2",12206.026,19233.24,19249.892,12206.026,19233.24,19249.892,1,12206.026,7043.86600000001,0,NA,"Rating Scale","Rating Scale",2,"object-53","BIQ",NA,"SUPPRF85297"
"12",1699292523196,"06/11/2023 17:42:03",1699292523196,0,"06/11/2023 17:42:03",150440,6,"task-gjqt",NA,32748641,9689775,NA,"complete",NA,"6549244aa62da2216068a2f5","computer","Desktop or Laptop","Chromium OS 14541.0.0","Chrome 118.0.0.0","1920x1080","1280x641",NA,NA,0,"BIQ (Charlotte)",3,"GHFIEJDACB","Passed AC2","","Spreadsheet1",1,"BIQ","Screen 3","iz3the",3,"response","5",13138.547,19233.24,19249.892,13138.547,19233.24,19249.892,1,13138.547,6111.345,0,NA,"Rating Scale","Rating Scale",9,"object-60","BIQ",NA,"SUPPRF85297"
"13",1699292523197,"06/11/2023 17:42:03",1699292523197,0,"06/11/2023 17:42:03",150440,6,"task-gjqt",NA,32748641,9689775,NA,"complete",NA,"6549244aa62da2216068a2f5","computer","Desktop or Laptop","Chromium OS 14541.0.0","Chrome 118.0.0.0","1920x1080","1280x641",NA,NA,0,"BIQ (Charlotte)",3,"GHFIEJDACB","Passed AC2","","Spreadsheet1",1,"BIQ","Screen 3","iz3the",3,"response","4",18383.978,19233.24,19249.892,18383.978,19233.24,19249.892,1,18383.978,865.914000000004,0,NA,"Rating Scale","Rating Scale",16,"object-67","BIQ",NA,"SUPPRF85297"
"14",1699292523210,"06/11/2023 17:42:03",1699292523210,0,"06/11/2023 17:42:03",150440,6,"task-gjqt",NA,32748641,9689775,NA,"complete",NA,"6549244aa62da2216068a2f5","computer","Desktop or Laptop","Chromium OS 14541.0.0","Chrome 118.0.0.0","1920x1080","1280x641",NA,NA,0,"BIQ (Charlotte)",3,"GHFIEJDACB","Passed AC2","","Spreadsheet1",NA,"","","",NA,"5","END",NA,NA,NA,NA,NA,NA,0,NA,NA,NA,NA,"","",NA,"","",NA,"SUPPRF85297"
"1",1699292690684,"06/11/2023 17:44:50",1699274690684,-5,"06/11/2023 07:44:50",150440,6,"task-gjqt",NA,32748814,9689820,NA,"complete",NA,"6549257ddccdea07d4ac5729","computer","Desktop or Laptop","Mac OS 10.15.7","Safari 16.0","820x1180","1180x678",NA,NA,0,"BIQ (Charlotte)",3,"EFDGCHBIAJ","Passed AC2","","Spreadsheet1",NA,"","","",NA,"5","BEGIN",NA,NA,NA,NA,NA,NA,0,NA,NA,NA,NA,"","",NA,"","",NA,"SUPPRF73117"
"2",1699292715864,"06/11/2023 17:45:15",1699274715864,-5,"06/11/2023 07:45:15",150440,6,"task-gjqt",NA,32748814,9689820,NA,"complete",NA,"6549257ddccdea07d4ac5729","computer","Desktop or Laptop","Mac OS 10.15.7","Safari 16.0","820x1180","1180x678",NA,NA,0,"BIQ (Charlotte)",3,"EFDGCHBIAJ","Passed AC2","","Spreadsheet1",1,"BIQ","Screen 1","9dh6eq",1,"continue","",25179,25162,25179,25179,25162,25179,1,25179,0,0,NA,"Click To Continue","Continue Button",23,"object-48","BIQ",NA,"SUPPRF73117"
"3",1699292715870,"06/11/2023 17:45:15",1699274715870,-5,"06/11/2023 07:45:15",150440,6,"task-gjqt",NA,32748814,9689820,NA,"complete",NA,"6549257ddccdea07d4ac5729","computer","Desktop or Laptop","Mac OS 10.15.7","Safari 16.0","820x1180","1180x678",NA,NA,0,"BIQ (Charlotte)",3,"EFDGCHBIAJ","Passed AC2","","Spreadsheet1",1,"BIQ","Screen 1","9dh6eq",1,"response","5",12714,25162,25179,12714,25162,25179,1,12714,12465,0,NA,"Rating Scale","Rating Scale",3,"object-5","BIQ",NA,"SUPPRF73117"
"4",1699292715872,"06/11/2023 17:45:15",1699274715872,-5,"06/11/2023 07:45:15",150440,6,"task-gjqt",NA,32748814,9689820,NA,"complete",NA,"6549257ddccdea07d4ac5729","computer","Desktop or Laptop","Mac OS 10.15.7","Safari 16.0","820x1180","1180x678",NA,NA,0,"BIQ (Charlotte)",3,"EFDGCHBIAJ","Passed AC2","","Spreadsheet1",1,"BIQ","Screen 1","9dh6eq",1,"response","7",20579,25162,25179,20579,25162,25179,1,20579,4600,0,NA,"Rating Scale","Rating Scale",10,"object-18","BIQ",NA,"SUPPRF73117"
"5",1699292715873,"06/11/2023 17:45:15",1699274715873,-5,"06/11/2023 07:45:15",150440,6,"task-gjqt",NA,32748814,9689820,NA,"complete",NA,"6549257ddccdea07d4ac5729","computer","Desktop or Laptop","Mac OS 10.15.7","Safari 16.0","820x1180","1180x678",NA,NA,0,"BIQ (Charlotte)",3,"EFDGCHBIAJ","Passed AC2","","Spreadsheet1",1,"BIQ","Screen 1","9dh6eq",1,"response","0",23879,25162,25179,23879,25162,25179,1,23879,1300,0,NA,"Rating Scale","Rating Scale",17,"object-80","BIQ",NA,"SUPPRF73117"
"6",1699292738266,"06/11/2023 17:45:38",1699274738266,-5,"06/11/2023 07:45:38",150440,6,"task-gjqt",NA,32748814,9689820,NA,"complete",NA,"6549257ddccdea07d4ac5729","computer","Desktop or Laptop","Mac OS 10.15.7","Safari 16.0","820x1180","1180x678",NA,NA,0,"BIQ (Charlotte)",3,"EFDGCHBIAJ","Passed AC2","","Spreadsheet1",1,"BIQ","Screen 2","o21mwi",2,"continue","",22427,22415,22427,22427,22415,22427,1,22427,0,0,NA,"Click To Continue","Continue Button",22,"object-50","BIQ",NA,"SUPPRF73117"
"7",1699292738274,"06/11/2023 17:45:38",1699274738274,-5,"06/11/2023 07:45:38",150440,6,"task-gjqt",NA,32748814,9689820,NA,"complete",NA,"6549257ddccdea07d4ac5729","computer","Desktop or Laptop","Mac OS 10.15.7","Safari 16.0","820x1180","1180x678",NA,NA,0,"BIQ (Charlotte)",3,"EFDGCHBIAJ","Passed AC2","","Spreadsheet1",1,"BIQ","Screen 2","o21mwi",2,"response","8",4054,22415,22432,4054,22415,22432,1,4054,18378,0,NA,"Rating Scale","Rating Scale",2,"object-259","BIQ",NA,"SUPPRF73117"
"8",1699292738275,"06/11/2023 17:45:38",1699274738275,-5,"06/11/2023 07:45:38",150440,6,"task-gjqt",NA,32748814,9689820,NA,"complete",NA,"6549257ddccdea07d4ac5729","computer","Desktop or Laptop","Mac OS 10.15.7","Safari 16.0","820x1180","1180x678",NA,NA,0,"BIQ (Charlotte)",3,"EFDGCHBIAJ","Passed AC2","","Spreadsheet1",1,"BIQ","Screen 2","o21mwi",2,"response","0",8349,22415,22432,8349,22415,22432,1,8349,14083,0,NA,"Rating Scale","Rating Scale",9,"object-36","BIQ",NA,"SUPPRF73117"
"9",1699292738276,"06/11/2023 17:45:38",1699274738276,-5,"06/11/2023 07:45:38",150440,6,"task-gjqt",NA,32748814,9689820,NA,"complete",NA,"6549257ddccdea07d4ac5729","computer","Desktop or Laptop","Mac OS 10.15.7","Safari 16.0","820x1180","1180x678",NA,NA,0,"BIQ (Charlotte)",3,"EFDGCHBIAJ","Passed AC2","","Spreadsheet1",1,"BIQ","Screen 2","o21mwi",2,"response","0",22000,22415,22432,22000,22415,22432,1,22000,432,0,NA,"Rating Scale","Rating Scale",16,"object-86","BIQ",NA,"SUPPRF73117"
"10",1699292746487,"06/11/2023 17:45:46",1699274746487,-5,"06/11/2023 07:45:46",150440,6,"task-gjqt",NA,32748814,9689820,NA,"complete",NA,"6549257ddccdea07d4ac5729","computer","Desktop or Laptop","Mac OS 10.15.7","Safari 16.0","820x1180","1180x678",NA,NA,0,"BIQ (Charlotte)",3,"EFDGCHBIAJ","Passed AC2","","Spreadsheet1",1,"BIQ","Screen 3","iz3the",3,"continue","",8233,8216,8233,8233,8216,8233,1,8233,0,0,NA,"Click To Continue","Continue Button",22,"object-73","BIQ",NA,"SUPPRF73117"
"11",1699292746488,"06/11/2023 17:45:46",1699274746488,-5,"06/11/2023 07:45:46",150440,6,"task-gjqt",NA,32748814,9689820,NA,"complete",NA,"6549257ddccdea07d4ac5729","computer","Desktop or Laptop","Mac OS 10.15.7","Safari 16.0","820x1180","1180x678",NA,NA,0,"BIQ (Charlotte)",3,"EFDGCHBIAJ","Passed AC2","","Spreadsheet1",1,"BIQ","Screen 3","iz3the",3,"response","0",3533,8216,8233,3533,8216,8233,1,3533,4700,0,NA,"Rating Scale","Rating Scale",2,"object-53","BIQ",NA,"SUPPRF73117"
"12",1699292746489,"06/11/2023 17:45:46",1699274746489,-5,"06/11/2023 07:45:46",150440,6,"task-gjqt",NA,32748814,9689820,NA,"complete",NA,"6549257ddccdea07d4ac5729","computer","Desktop or Laptop","Mac OS 10.15.7","Safari 16.0","820x1180","1180x678",NA,NA,0,"BIQ (Charlotte)",3,"EFDGCHBIAJ","Passed AC2","","Spreadsheet1",1,"BIQ","Screen 3","iz3the",3,"response","0",5885,8216,8233,5885,8216,8233,1,5885,2348,0,NA,"Rating Scale","Rating Scale",9,"object-60","BIQ",NA,"SUPPRF73117"
"13",1699292746490,"06/11/2023 17:45:46",1699274746490,-5,"06/11/2023 07:45:46",150440,6,"task-gjqt",NA,32748814,9689820,NA,"complete",NA,"6549257ddccdea07d4ac5729","computer","Desktop or Laptop","Mac OS 10.15.7","Safari 16.0","820x1180","1180x678",NA,NA,0,"BIQ (Charlotte)",3,"EFDGCHBIAJ","Passed AC2","","Spreadsheet1",1,"BIQ","Screen 3","iz3the",3,"response","0",7499,8216,8233,7499,8216,8233,1,7499,734,0,NA,"Rating Scale","Rating Scale",16,"object-67","BIQ",NA,"SUPPRF73117"
