"Event.Index","UTC.Timestamp","UTC.Date.and.Time","Local.Timestamp","Local.Timezone","Local.Date.and.Time","Experiment.ID","Experiment.Version","Tree.Node.Key","Repeat.Key","Schedule.ID","Participant.Private.ID","Participant.Starting.Group","Participant.Status","Participant.Completion.Code","Participant.External.Session.ID","Participant.Device.Type","Participant.Device","Participant.OS","Participant.Browser","Participant.Monitor.Size","Participant.Viewport.Size","Checkpoint","Room.ID","Room.Order","Task.Name","Task.Version","order.ot79","branch.g31k","branch.5gtn","counterbalance.huxg","Spreadsheet","Trial.Number","Display","Screen","Screen.ID","Screen.Counter","Response.Type","Response","Onset.Time","Clock.Time","Reaction.Time","Absolute.Onset.Time","Absolute.Clock.Time","Absolute.Reaction.Time","Correct","Response.Onset","Response.Duration","Proportion","Tag","Component.Name","Object.Name","Object.Number","Object.ID","Spreadsheet..display","Manipulation..Spreadsheet","Random_ID"
"1",1709575314093,"04/03/2024 18:01:54",1709575314093,0,"04/03/2024 18:01:54",169741,4,"task-gjqt",NA,35764629,10571657,NA,"complete",NA,"65e60a883f4af7de914390c8","computer","Desktop or Laptop","Mac OS 10.15.7","Chrome 121.0.0.0","1440x900","1440x813",NA,NA,0,"BIQ (Charlotte)",3,"BCADJEIFHG","Passed AC2","","Chocking_second","Spreadsheet1",NA,"","","",NA,"5","BEGIN",NA,NA,NA,NA,NA,NA,0,NA,NA,NA,NA,"","",NA,"","",NA,"SUPPRF45961"
"2",1709575343717,"04/03/2024 18:02:23",1709575343717,0,"04/03/2024 18:02:23",169741,4,"task-gjqt",NA,35764629,10571657,NA,"complete",NA,"65e60a883f4af7de914390c8","computer","Desktop or Laptop","Mac OS 10.15.7","Chrome 121.0.0.0","1440x900","1440x813",NA,NA,0,"BIQ (Charlotte)",3,"BCADJEIFHG","Passed AC2","","Chocking_second","Spreadsheet1",1,"BIQ","Screen 1","9dh6eq",1,"continue","",29629.722,29613.022,29629.722,29629.722,29613.022,29629.722,1,29629.722,0,0,NA,"Click To Continue","Continue Button",23,"object-48","BIQ",NA,"SUPPRF45961"
"3",1709575343719,"04/03/2024 18:02:23",1709575343719,0,"04/03/2024 18:02:23",169741,4,"task-gjqt",NA,35764629,10571657,NA,"complete",NA,"65e60a883f4af7de914390c8","computer","Desktop or Laptop","Mac OS 10.15.7","Chrome 121.0.0.0","1440x900","1440x813",NA,NA,0,"BIQ (Charlotte)",3,"BCADJEIFHG","Passed AC2","","Chocking_second","Spreadsheet1",1,"BIQ","Screen 1","9dh6eq",1,"response","6",12357.722,29613.022,29629.722,12357.722,29613.022,29629.722,1,12357.722,17272,0,NA,"Rating Scale","Rating Scale",3,"object-5","BIQ",NA,"SUPPRF45961"
"4",1709575343719,"04/03/2024 18:02:23",1709575343719,0,"04/03/2024 18:02:23",169741,4,"task-gjqt",NA,35764629,10571657,NA,"complete",NA,"65e60a883f4af7de914390c8","computer","Desktop or Laptop","Mac OS 10.15.7","Chrome 121.0.0.0","1440x900","1440x813",NA,NA,0,"BIQ (Charlotte)",3,"BCADJEIFHG","Passed AC2","","Chocking_second","Spreadsheet1",1,"BIQ","Screen 1","9dh6eq",1,"response","4",17082.222,29613.022,29629.722,17082.222,29613.022,29629.722,1,17082.222,12547.5,0,NA,"Rating Scale","Rating Scale",10,"object-18","BIQ",NA,"SUPPRF45961"
"5",1709575343719,"04/03/2024 18:02:23",1709575343719,0,"04/03/2024 18:02:23",169741,4,"task-gjqt",NA,35764629,10571657,NA,"complete",NA,"65e60a883f4af7de914390c8","computer","Desktop or Laptop","Mac OS 10.15.7","Chrome 121.0.0.0","1440x900","1440x813",NA,NA,0,"BIQ (Charlotte)",3,"BCADJEIFHG","Passed AC2","","Chocking_second","Spreadsheet1",1,"BIQ","Screen 1","9dh6eq",1,"response","6",28298.722,29613.022,29629.722,28298.722,29613.022,29629.722,1,28298.722,1331,0,NA,"Rating Scale","Rating Scale",17,"object-80","BIQ",NA,"SUPPRF45961"
"6",1709575364058,"04/03/2024 18:02:44",1709575364058,0,"04/03/2024 18:02:44",169741,4,"task-gjqt",NA,35764629,10571657,NA,"complete",NA,"65e60a883f4af7de914390c8","computer","Desktop or Laptop","Mac OS 10.15.7","Chrome 121.0.0.0","1440x900","1440x813",NA,NA,0,"BIQ (Charlotte)",3,"BCADJEIFHG","Passed AC2","","Chocking_second","Spreadsheet1",1,"BIQ","Screen 2","o21mwi",2,"continue","",20360.6,20354,20360.6,20360.6,20354,20360.6,1,20360.6,0,0,NA,"Click To Continue","Continue Button",22,"object-50","BIQ",NA,"SUPPRF45961"
"7",1709575364061,"04/03/2024 18:02:44",1709575364061,0,"04/03/2024 18:02:44",169741,4,"task-gjqt",NA,35764629,10571657,NA,"complete",NA,"65e60a883f4af7de914390c8","computer","Desktop or Laptop","Mac OS 10.15.7","Chrome 121.0.0.0","1440x900","1440x813",NA,NA,0,"BIQ (Charlotte)",3,"BCADJEIFHG","Passed AC2","","Chocking_second","Spreadsheet1",1,"BIQ","Screen 2","o21mwi",2,"response","5",4418.6,20354,20363.9000000119,4418.6,20354,20363.9000000119,1,4418.6,15945.3000000119,0,NA,"Rating Scale","Rating Scale",2,"object-259","BIQ",NA,"SUPPRF45961"
"8",1709575364061,"04/03/2024 18:02:44",1709575364061,0,"04/03/2024 18:02:44",169741,4,"task-gjqt",NA,35764629,10571657,NA,"complete",NA,"65e60a883f4af7de914390c8","computer","Desktop or Laptop","Mac OS 10.15.7","Chrome 121.0.0.0","1440x900","1440x813",NA,NA,0,"BIQ (Charlotte)",3,"BCADJEIFHG","Passed AC2","","Chocking_second","Spreadsheet1",1,"BIQ","Screen 2","o21mwi",2,"response","6",10059.6,20354,20364.4000000119,10059.6,20354,20364.4000000119,1,10059.6,10304.8000000119,0,NA,"Rating Scale","Rating Scale",9,"object-36","BIQ",NA,"SUPPRF45961"
"9",1709575364062,"04/03/2024 18:02:44",1709575364062,0,"04/03/2024 18:02:44",169741,4,"task-gjqt",NA,35764629,10571657,NA,"complete",NA,"65e60a883f4af7de914390c8","computer","Desktop or Laptop","Mac OS 10.15.7","Chrome 121.0.0.0","1440x900","1440x813",NA,NA,0,"BIQ (Charlotte)",3,"BCADJEIFHG","Passed AC2","","Chocking_second","Spreadsheet1",1,"BIQ","Screen 2","o21mwi",2,"response","4",18757.1,20354,20364.7999999881,18757.1,20354,20364.7999999881,1,18757.1,1607.69999998808,0,NA,"Rating Scale","Rating Scale",16,"object-86","BIQ",NA,"SUPPRF45961"
"10",1709575378139,"04/03/2024 18:02:58",1709575378139,0,"04/03/2024 18:02:58",169741,4,"task-gjqt",NA,35764629,10571657,NA,"complete",NA,"65e60a883f4af7de914390c8","computer","Desktop or Laptop","Mac OS 10.15.7","Chrome 121.0.0.0","1440x900","1440x813",NA,NA,0,"BIQ (Charlotte)",3,"BCADJEIFHG","Passed AC2","","Chocking_second","Spreadsheet1",1,"BIQ","Screen 3","iz3the",3,"continue","",14087.4999999762,14082.9,14087.4999999762,14087.4999999762,14082.9,14087.4999999762,1,14087.4999999762,0,0,NA,"Click To Continue","Continue Button",22,"object-73","BIQ",NA,"SUPPRF45961"
"11",1709575378142,"04/03/2024 18:02:58",1709575378142,0,"04/03/2024 18:02:58",169741,4,"task-gjqt",NA,35764629,10571657,NA,"complete",NA,"65e60a883f4af7de914390c8","computer","Desktop or Laptop","Mac OS 10.15.7","Chrome 121.0.0.0","1440x900","1440x813",NA,NA,0,"BIQ (Charlotte)",3,"BCADJEIFHG","Passed AC2","","Chocking_second","Spreadsheet1",1,"BIQ","Screen 3","iz3the",3,"response","1",5667.7,14082.9,14091.4999999762,5667.7,14082.9,14091.4999999762,1,5667.7,8423.79999997616,0,NA,"Rating Scale","Rating Scale",2,"object-53","BIQ",NA,"SUPPRF45961"
"12",1709575378143,"04/03/2024 18:02:58",1709575378143,0,"04/03/2024 18:02:58",169741,4,"task-gjqt",NA,35764629,10571657,NA,"complete",NA,"65e60a883f4af7de914390c8","computer","Desktop or Laptop","Mac OS 10.15.7","Chrome 121.0.0.0","1440x900","1440x813",NA,NA,0,"BIQ (Charlotte)",3,"BCADJEIFHG","Passed AC2","","Chocking_second","Spreadsheet1",1,"BIQ","Screen 3","iz3the",3,"response","4",11017.4,14082.9,14091.9000000119,11017.4,14082.9,14091.9000000119,1,11017.4,3074.50000001192,0,NA,"Rating Scale","Rating Scale",9,"object-60","BIQ",NA,"SUPPRF45961"
"13",1709575378143,"04/03/2024 18:02:58",1709575378143,0,"04/03/2024 18:02:58",169741,4,"task-gjqt",NA,35764629,10571657,NA,"complete",NA,"65e60a883f4af7de914390c8","computer","Desktop or Laptop","Mac OS 10.15.7","Chrome 121.0.0.0","1440x900","1440x813",NA,NA,0,"BIQ (Charlotte)",3,"BCADJEIFHG","Passed AC2","","Chocking_second","Spreadsheet1",1,"BIQ","Screen 3","iz3the",3,"response","3",13131.6,14082.9,14092.2000000238,13131.6,14082.9,14092.2000000238,1,13131.6,960.600000023842,0,NA,"Rating Scale","Rating Scale",16,"object-67","BIQ",NA,"SUPPRF45961"
"14",1709575378149,"04/03/2024 18:02:58",1709575378149,0,"04/03/2024 18:02:58",169741,4,"task-gjqt",NA,35764629,10571657,NA,"complete",NA,"65e60a883f4af7de914390c8","computer","Desktop or Laptop","Mac OS 10.15.7","Chrome 121.0.0.0","1440x900","1440x813",NA,NA,0,"BIQ (Charlotte)",3,"BCADJEIFHG","Passed AC2","","Chocking_second","Spreadsheet1",NA,"","","",NA,"5","END",NA,NA,NA,NA,NA,NA,0,NA,NA,NA,NA,"","",NA,"","",NA,"SUPPRF45961"
"1",1709577241115,"04/03/2024 18:34:01",1709559241115,-5,"04/03/2024 08:34:01",169741,4,"task-gjqt",NA,35768194,10572173,NA,"complete",NA,"65e6121c13c300c867dade4b","computer","Desktop or Laptop","Windows 10","Chrome 120.0.0.0","1536x864","1536x730",NA,NA,0,"BIQ (Charlotte)",3,"CDBEAFJGIH","Passed AC2","","Chocking_first","Spreadsheet1",NA,"","","",NA,"5","BEGIN",NA,NA,NA,NA,NA,NA,0,NA,NA,NA,NA,"","",NA,"","",NA,"SUPPRF85564"
"2",1709577269183,"04/03/2024 18:34:29",1709559269183,-5,"04/03/2024 08:34:29",169741,4,"task-gjqt",NA,35768194,10572173,NA,"complete",NA,"65e6121c13c300c867dade4b","computer","Desktop or Laptop","Windows 10","Chrome 120.0.0.0","1536x864","1536x730",NA,NA,0,"BIQ (Charlotte)",3,"CDBEAFJGIH","Passed AC2","","Chocking_first","Spreadsheet1",1,"BIQ","Screen 1","9dh6eq",1,"continue","",28091.7000003815,28064.9,28091.7000003815,28091.7000003815,28064.9,28091.7000003815,1,28091.7000003815,0,0,NA,"Click To Continue","Continue Button",23,"object-48","BIQ",NA,"SUPPRF85564"
"3",1709577269185,"04/03/2024 18:34:29",1709559269185,-5,"04/03/2024 08:34:29",169741,4,"task-gjqt",NA,35768194,10572173,NA,"complete",NA,"65e6121c13c300c867dade4b","computer","Desktop or Laptop","Windows 10","Chrome 120.0.0.0","1536x864","1536x730",NA,NA,0,"BIQ (Charlotte)",3,"CDBEAFJGIH","Passed AC2","","Chocking_first","Spreadsheet1",1,"BIQ","Screen 1","9dh6eq",1,"response","5",10999.2,28064.9,28094.4999996185,10999.2,28064.9,28094.4999996185,1,10999.2,17095.2999996185,0,NA,"Rating Scale","Rating Scale",3,"object-5","BIQ",NA,"SUPPRF85564"
"4",1709577269185,"04/03/2024 18:34:29",1709559269185,-5,"04/03/2024 08:34:29",169741,4,"task-gjqt",NA,35768194,10572173,NA,"complete",NA,"65e6121c13c300c867dade4b","computer","Desktop or Laptop","Windows 10","Chrome 120.0.0.0","1536x864","1536x730",NA,NA,0,"BIQ (Charlotte)",3,"CDBEAFJGIH","Passed AC2","","Chocking_first","Spreadsheet1",1,"BIQ","Screen 1","9dh6eq",1,"response","6",19398.8,28064.9,28094.8000007629,19398.8,28064.9,28094.8000007629,1,19398.8,8696.00000076294,0,NA,"Rating Scale","Rating Scale",10,"object-18","BIQ",NA,"SUPPRF85564"
"5",1709577269185,"04/03/2024 18:34:29",1709559269185,-5,"04/03/2024 08:34:29",169741,4,"task-gjqt",NA,35768194,10572173,NA,"complete",NA,"65e6121c13c300c867dade4b","computer","Desktop or Laptop","Windows 10","Chrome 120.0.0.0","1536x864","1536x730",NA,NA,0,"BIQ (Charlotte)",3,"CDBEAFJGIH","Passed AC2","","Chocking_first","Spreadsheet1",1,"BIQ","Screen 1","9dh6eq",1,"response","6",26498.3,28064.9,28095.2000003815,26498.3,28064.9,28095.2000003815,1,26498.3,1596.90000038147,0,NA,"Rating Scale","Rating Scale",17,"object-80","BIQ",NA,"SUPPRF85564"
"6",1709577283598,"04/03/2024 18:34:43",1709559283598,-5,"04/03/2024 08:34:43",169741,4,"task-gjqt",NA,35768194,10572173,NA,"complete",NA,"65e6121c13c300c867dade4b","computer","Desktop or Laptop","Windows 10","Chrome 120.0.0.0","1536x864","1536x730",NA,NA,0,"BIQ (Charlotte)",3,"CDBEAFJGIH","Passed AC2","","Chocking_first","Spreadsheet1",1,"BIQ","Screen 2","o21mwi",2,"continue","",14442.7,14432.5,14442.7,14442.7,14432.5,14442.7,1,14442.7,0,0,NA,"Click To Continue","Continue Button",22,"object-50","BIQ",NA,"SUPPRF85564"
"7",1709577283600,"04/03/2024 18:34:43",1709559283600,-5,"04/03/2024 08:34:43",169741,4,"task-gjqt",NA,35768194,10572173,NA,"complete",NA,"65e6121c13c300c867dade4b","computer","Desktop or Laptop","Windows 10","Chrome 120.0.0.0","1536x864","1536x730",NA,NA,0,"BIQ (Charlotte)",3,"CDBEAFJGIH","Passed AC2","","Chocking_first","Spreadsheet1",1,"BIQ","Screen 2","o21mwi",2,"response","2",4299.7,14432.5,14445.0999996185,4299.7,14432.5,14445.0999996185,1,4299.7,10145.3999996185,0,NA,"Rating Scale","Rating Scale",2,"object-259","BIQ",NA,"SUPPRF85564"
"8",1709577283601,"04/03/2024 18:34:43",1709559283601,-5,"04/03/2024 08:34:43",169741,4,"task-gjqt",NA,35768194,10572173,NA,"complete",NA,"65e6121c13c300c867dade4b","computer","Desktop or Laptop","Windows 10","Chrome 120.0.0.0","1536x864","1536x730",NA,NA,0,"BIQ (Charlotte)",3,"CDBEAFJGIH","Passed AC2","","Chocking_first","Spreadsheet1",1,"BIQ","Screen 2","o21mwi",2,"response","2",7399.6,14432.5,14445.9999992371,7399.6,14432.5,14445.9999992371,1,7399.6,7046.39999923706,0,NA,"Rating Scale","Rating Scale",9,"object-36","BIQ",NA,"SUPPRF85564"
"9",1709577283602,"04/03/2024 18:34:43",1709559283602,-5,"04/03/2024 08:34:43",169741,4,"task-gjqt",NA,35768194,10572173,NA,"complete",NA,"65e6121c13c300c867dade4b","computer","Desktop or Laptop","Windows 10","Chrome 120.0.0.0","1536x864","1536x730",NA,NA,0,"BIQ (Charlotte)",3,"CDBEAFJGIH","Passed AC2","","Chocking_first","Spreadsheet1",1,"BIQ","Screen 2","o21mwi",2,"response","4",13865.8,14432.5,14446.5999996185,13865.8,14432.5,14446.5999996185,1,13865.8,580.799999618532,0,NA,"Rating Scale","Rating Scale",16,"object-86","BIQ",NA,"SUPPRF85564"
"10",1709577310813,"04/03/2024 18:35:10",1709559310813,-5,"04/03/2024 08:35:10",169741,4,"task-gjqt",NA,35768194,10572173,NA,"complete",NA,"65e6121c13c300c867dade4b","computer","Desktop or Laptop","Windows 10","Chrome 120.0.0.0","1536x864","1536x730",NA,NA,0,"BIQ (Charlotte)",3,"CDBEAFJGIH","Passed AC2","","Chocking_first","Spreadsheet1",1,"BIQ","Screen 3","iz3the",3,"continue","",27218.8000003815,27198.5,27218.8000003815,27218.8000003815,27198.5,27218.8000003815,1,27218.8000003815,0,0,NA,"Click To Continue","Continue Button",22,"object-73","BIQ",NA,"SUPPRF85564"
"11",1709577310816,"04/03/2024 18:35:10",1709559310816,-5,"04/03/2024 08:35:10",169741,4,"task-gjqt",NA,35768194,10572173,NA,"complete",NA,"65e6121c13c300c867dade4b","computer","Desktop or Laptop","Windows 10","Chrome 120.0.0.0","1536x864","1536x730",NA,NA,0,"BIQ (Charlotte)",3,"CDBEAFJGIH","Passed AC2","","Chocking_first","Spreadsheet1",1,"BIQ","Screen 3","iz3the",3,"response","1",16765.7,27198.5,27221.4999992371,16765.7,27198.5,27221.4999992371,1,16765.7,10455.7999992371,0,NA,"Rating Scale","Rating Scale",2,"object-53","BIQ",NA,"SUPPRF85564"
"12",1709577310816,"04/03/2024 18:35:10",1709559310816,-5,"04/03/2024 08:35:10",169741,4,"task-gjqt",NA,35768194,10572173,NA,"complete",NA,"65e6121c13c300c867dade4b","computer","Desktop or Laptop","Windows 10","Chrome 120.0.0.0","1536x864","1536x730",NA,NA,0,"BIQ (Charlotte)",3,"CDBEAFJGIH","Passed AC2","","Chocking_first","Spreadsheet1",1,"BIQ","Screen 3","iz3the",3,"response","2",21298.8,27198.5,27221.9000007629,21298.8,27198.5,27221.9000007629,1,21298.8,5923.10000076293,0,NA,"Rating Scale","Rating Scale",9,"object-60","BIQ",NA,"SUPPRF85564"
"13",1709577310817,"04/03/2024 18:35:10",1709559310817,-5,"04/03/2024 08:35:10",169741,4,"task-gjqt",NA,35768194,10572173,NA,"complete",NA,"65e6121c13c300c867dade4b","computer","Desktop or Laptop","Windows 10","Chrome 120.0.0.0","1536x864","1536x730",NA,NA,0,"BIQ (Charlotte)",3,"CDBEAFJGIH","Passed AC2","","Chocking_first","Spreadsheet1",1,"BIQ","Screen 3","iz3the",3,"response","5",25831.9,27198.5,27222.3000003815,25831.9,27198.5,27222.3000003815,1,25831.9,1390.40000038147,0,NA,"Rating Scale","Rating Scale",16,"object-67","BIQ",NA,"SUPPRF85564"
"14",1709577310821,"04/03/2024 18:35:10",1709559310821,-5,"04/03/2024 08:35:10",169741,4,"task-gjqt",NA,35768194,10572173,NA,"complete",NA,"65e6121c13c300c867dade4b","computer","Desktop or Laptop","Windows 10","Chrome 120.0.0.0","1536x864","1536x730",NA,NA,0,"BIQ (Charlotte)",3,"CDBEAFJGIH","Passed AC2","","Chocking_first","Spreadsheet1",NA,"","","",NA,"5","END",NA,NA,NA,NA,NA,NA,0,NA,NA,NA,NA,"","",NA,"","",NA,"SUPPRF85564"
"1",1709577824427,"04/03/2024 18:43:44",1709577824427,0,"04/03/2024 18:43:44",169741,4,"task-gjqt",NA,35768523,10572250,NA,"complete",NA,"65e6145c5ea714f6ca7020b0","computer","Desktop or Laptop","Windows 10","Chrome 122.0.0.0","1280x720","1280x595",NA,NA,0,"BIQ (Charlotte)",3,"DECFBGAHJI","Passed AC2","","Chocking_second","Spreadsheet1",NA,"","","",NA,"5","BEGIN",NA,NA,NA,NA,NA,NA,0,NA,NA,NA,NA,"","",NA,"","",NA,"SUPPRF01010"
"2",1709577897941,"04/03/2024 18:44:57",1709577897941,0,"04/03/2024 18:44:57",169741,4,"task-gjqt",NA,35768523,10572250,NA,"complete",NA,"65e6145c5ea714f6ca7020b0","computer","Desktop or Laptop","Windows 10","Chrome 122.0.0.0","1280x720","1280x595",NA,NA,0,"BIQ (Charlotte)",3,"DECFBGAHJI","Passed AC2","","Chocking_second","Spreadsheet1",1,"BIQ","Screen 1","9dh6eq",1,"continue","",73525.799999997,73519,73525.799999997,73525.799999997,73519,73525.799999997,1,73525.799999997,0,0,NA,"Click To Continue","Continue Button",23,"object-48","BIQ",NA,"SUPPRF01010"
"3",1709577897945,"04/03/2024 18:44:57",1709577897945,0,"04/03/2024 18:44:57",169741,4,"task-gjqt",NA,35768523,10572250,NA,"complete",NA,"65e6145c5ea714f6ca7020b0","computer","Desktop or Laptop","Windows 10","Chrome 122.0.0.0","1280x720","1280x595",NA,NA,0,"BIQ (Charlotte)",3,"DECFBGAHJI","Passed AC2","","Chocking_second","Spreadsheet1",1,"BIQ","Screen 1","9dh6eq",1,"response","6",60635.2,73519,73530.5,60635.2,73519,73530.5,1,60635.2,12895.3,0,NA,"Rating Scale","Rating Scale",3,"object-5","BIQ",NA,"SUPPRF01010"
"4",1709577897946,"04/03/2024 18:44:57",1709577897946,0,"04/03/2024 18:44:57",169741,4,"task-gjqt",NA,35768523,10572250,NA,"complete",NA,"65e6145c5ea714f6ca7020b0","computer","Desktop or Laptop","Windows 10","Chrome 122.0.0.0","1280x720","1280x595",NA,NA,0,"BIQ (Charlotte)",3,"DECFBGAHJI","Passed AC2","","Chocking_second","Spreadsheet1",1,"BIQ","Screen 1","9dh6eq",1,"response","6",69368.8,73519,73531.299999997,69368.8,73519,73531.299999997,1,69368.8,4162.49999999702,0,NA,"Rating Scale","Rating Scale",10,"object-18","BIQ",NA,"SUPPRF01010"
"5",1709577897947,"04/03/2024 18:44:57",1709577897947,0,"04/03/2024 18:44:57",169741,4,"task-gjqt",NA,35768523,10572250,NA,"complete",NA,"65e6145c5ea714f6ca7020b0","computer","Desktop or Laptop","Windows 10","Chrome 122.0.0.0","1280x720","1280x595",NA,NA,0,"BIQ (Charlotte)",3,"DECFBGAHJI","Passed AC2","","Chocking_second","Spreadsheet1",1,"BIQ","Screen 1","9dh6eq",1,"response","0",72735.6,73519,73531.8999999985,72735.6,73519,73531.8999999985,1,72735.6,796.299999998504,0,NA,"Rating Scale","Rating Scale",17,"object-80","BIQ",NA,"SUPPRF01010"
"6",1709577931616,"04/03/2024 18:45:31",1709577931616,0,"04/03/2024 18:45:31",169741,4,"task-gjqt",NA,35768523,10572250,NA,"complete",NA,"65e6145c5ea714f6ca7020b0","computer","Desktop or Laptop","Windows 10","Chrome 122.0.0.0","1280x720","1280x595",NA,NA,0,"BIQ (Charlotte)",3,"DECFBGAHJI","Passed AC2","","Chocking_second","Spreadsheet1",1,"BIQ","Screen 2","o21mwi",2,"continue","",33681.799999997,33667.7,33681.799999997,33681.799999997,33667.7,33681.799999997,1,33681.799999997,0,0,NA,"Click To Continue","Continue Button",22,"object-50","BIQ",NA,"SUPPRF01010"
"7",1709577931619,"04/03/2024 18:45:31",1709577931619,0,"04/03/2024 18:45:31",169741,4,"task-gjqt",NA,35768523,10572250,NA,"complete",NA,"65e6145c5ea714f6ca7020b0","computer","Desktop or Laptop","Windows 10","Chrome 122.0.0.0","1280x720","1280x595",NA,NA,0,"BIQ (Charlotte)",3,"DECFBGAHJI","Passed AC2","","Chocking_second","Spreadsheet1",1,"BIQ","Screen 2","o21mwi",2,"response","8",8433.8,33667.7,33684.3,8433.8,33667.7,33684.3,1,8433.8,25250.5,0,NA,"Rating Scale","Rating Scale",2,"object-259","BIQ",NA,"SUPPRF01010"
"8",1709577931619,"04/03/2024 18:45:31",1709577931619,0,"04/03/2024 18:45:31",169741,4,"task-gjqt",NA,35768523,10572250,NA,"complete",NA,"65e6145c5ea714f6ca7020b0","computer","Desktop or Laptop","Windows 10","Chrome 122.0.0.0","1280x720","1280x595",NA,NA,0,"BIQ (Charlotte)",3,"DECFBGAHJI","Passed AC2","","Chocking_second","Spreadsheet1",1,"BIQ","Screen 2","o21mwi",2,"response","0",13200.4,33667.7,33684.3,13200.4,33667.7,33684.3,1,13200.4,20483.9,0,NA,"Rating Scale","Rating Scale",9,"object-36","BIQ",NA,"SUPPRF01010"
"9",1709577931620,"04/03/2024 18:45:31",1709577931620,0,"04/03/2024 18:45:31",169741,4,"task-gjqt",NA,35768523,10572250,NA,"complete",NA,"65e6145c5ea714f6ca7020b0","computer","Desktop or Laptop","Windows 10","Chrome 122.0.0.0","1280x720","1280x595",NA,NA,0,"BIQ (Charlotte)",3,"DECFBGAHJI","Passed AC2","","Chocking_second","Spreadsheet1",1,"BIQ","Screen 2","o21mwi",2,"response","4",32818.1,33667.7,33684.3,32818.1,33667.7,33684.3,1,32818.1,866.199999999983,0,NA,"Rating Scale","Rating Scale",16,"object-86","BIQ",NA,"SUPPRF01010"
"10",1709577949796,"04/03/2024 18:45:49",1709577949796,0,"04/03/2024 18:45:49",169741,4,"task-gjqt",NA,35768523,10572250,NA,"complete",NA,"65e6145c5ea714f6ca7020b0","computer","Desktop or Laptop","Windows 10","Chrome 122.0.0.0","1280x720","1280x595",NA,NA,0,"BIQ (Charlotte)",3,"DECFBGAHJI","Passed AC2","","Chocking_second","Spreadsheet1",1,"BIQ","Screen 3","iz3the",3,"continue","",18193.8,18184,18193.8,18193.8,18184,18193.8,1,18193.8,0,0,NA,"Click To Continue","Continue Button",22,"object-73","BIQ",NA,"SUPPRF01010"
"11",1709577949798,"04/03/2024 18:45:49",1709577949798,0,"04/03/2024 18:45:49",169741,4,"task-gjqt",NA,35768523,10572250,NA,"complete",NA,"65e6145c5ea714f6ca7020b0","computer","Desktop or Laptop","Windows 10","Chrome 122.0.0.0","1280x720","1280x595",NA,NA,0,"BIQ (Charlotte)",3,"DECFBGAHJI","Passed AC2","","Chocking_second","Spreadsheet1",1,"BIQ","Screen 3","iz3the",3,"response","0",10233.8,18184,18196.8999999978,10233.8,18184,18196.8999999978,1,10233.8,7963.09999999776,0,NA,"Rating Scale","Rating Scale",2,"object-53","BIQ",NA,"SUPPRF01010"
"12",1709577949799,"04/03/2024 18:45:49",1709577949799,0,"04/03/2024 18:45:49",169741,4,"task-gjqt",NA,35768523,10572250,NA,"complete",NA,"65e6145c5ea714f6ca7020b0","computer","Desktop or Laptop","Windows 10","Chrome 122.0.0.0","1280x720","1280x595",NA,NA,0,"BIQ (Charlotte)",3,"DECFBGAHJI","Passed AC2","","Chocking_second","Spreadsheet1",1,"BIQ","Screen 3","iz3the",3,"response","0",12917.3,18184,18197.4999999993,12917.3,18184,18197.4999999993,1,12917.3,5280.19999999925,0,NA,"Rating Scale","Rating Scale",9,"object-60","BIQ",NA,"SUPPRF01010"
"13",1709577949800,"04/03/2024 18:45:49",1709577949800,0,"04/03/2024 18:45:49",169741,4,"task-gjqt",NA,35768523,10572250,NA,"complete",NA,"65e6145c5ea714f6ca7020b0","computer","Desktop or Laptop","Windows 10","Chrome 122.0.0.0","1280x720","1280x595",NA,NA,0,"BIQ (Charlotte)",3,"DECFBGAHJI","Passed AC2","","Chocking_second","Spreadsheet1",1,"BIQ","Screen 3","iz3the",3,"response","0",16484,18184,18198.1999999985,16484,18184,18198.1999999985,1,16484,1714.19999999851,0,NA,"Rating Scale","Rating Scale",16,"object-67","BIQ",NA,"SUPPRF01010"
"14",1709577949805,"04/03/2024 18:45:49",1709577949805,0,"04/03/2024 18:45:49",169741,4,"task-gjqt",NA,35768523,10572250,NA,"complete",NA,"65e6145c5ea714f6ca7020b0","computer","Desktop or Laptop","Windows 10","Chrome 122.0.0.0","1280x720","1280x595",NA,NA,0,"BIQ (Charlotte)",3,"DECFBGAHJI","Passed AC2","","Chocking_second","Spreadsheet1",NA,"","","",NA,"5","END",NA,NA,NA,NA,NA,NA,0,NA,NA,NA,NA,"","",NA,"","",NA,"SUPPRF01010"
"1",1709578160640,"04/03/2024 18:49:20",1709578160640,0,"04/03/2024 18:49:20",169741,4,"task-gjqt",NA,35768706,10572350,NA,"complete",NA,"65e61655112ede9803cb7027","computer","Desktop or Laptop","Mac OS 10.15.7","Chrome 113.0.0.0","1440x900","1440x700",NA,NA,0,"BIQ (Charlotte)",3,"EFDGCHBIAJ","Passed AC2","","Chocking_second","Spreadsheet1",NA,"","","",NA,"5","BEGIN",NA,NA,NA,NA,NA,NA,0,NA,NA,NA,NA,"","",NA,"","",NA,"SUPPRF90122"
"2",1709578178432,"04/03/2024 18:49:38",1709578178432,0,"04/03/2024 18:49:38",169741,4,"task-gjqt",NA,35768706,10572350,NA,"complete",NA,"65e61655112ede9803cb7027","computer","Desktop or Laptop","Mac OS 10.15.7","Chrome 113.0.0.0","1440x900","1440x700",NA,NA,0,"BIQ (Charlotte)",3,"EFDGCHBIAJ","Passed AC2","","Chocking_second","Spreadsheet1",1,"BIQ","Screen 1","9dh6eq",1,"continue","",17812.607,17800.921,17812.607,17812.607,17800.921,17812.607,1,17812.607,0,0,NA,"Click To Continue","Continue Button",23,"object-48","BIQ",NA,"SUPPRF90122"
"3",1709578178436,"04/03/2024 18:49:38",1709578178436,0,"04/03/2024 18:49:38",169741,4,"task-gjqt",NA,35768706,10572350,NA,"complete",NA,"65e61655112ede9803cb7027","computer","Desktop or Laptop","Mac OS 10.15.7","Chrome 113.0.0.0","1440x900","1440x700",NA,NA,0,"BIQ (Charlotte)",3,"EFDGCHBIAJ","Passed AC2","","Chocking_second","Spreadsheet1",1,"BIQ","Screen 1","9dh6eq",1,"response","7",9000.455,17800.921,17816.7070001431,9000.455,17800.921,17816.7070001431,1,9000.455,8816.25200014305,0,NA,"Rating Scale","Rating Scale",3,"object-5","BIQ",NA,"SUPPRF90122"
"4",1709578178436,"04/03/2024 18:49:38",1709578178436,0,"04/03/2024 18:49:38",169741,4,"task-gjqt",NA,35768706,10572350,NA,"complete",NA,"65e61655112ede9803cb7027","computer","Desktop or Laptop","Mac OS 10.15.7","Chrome 113.0.0.0","1440x900","1440x700",NA,NA,0,"BIQ (Charlotte)",3,"EFDGCHBIAJ","Passed AC2","","Chocking_second","Spreadsheet1",1,"BIQ","Screen 1","9dh6eq",1,"response","4",13267.769,17800.921,17817.107,13267.769,17800.921,17817.107,1,13267.769,4549.338,0,NA,"Rating Scale","Rating Scale",10,"object-18","BIQ",NA,"SUPPRF90122"
"5",1709578178436,"04/03/2024 18:49:38",1709578178436,0,"04/03/2024 18:49:38",169741,4,"task-gjqt",NA,35768706,10572350,NA,"complete",NA,"65e61655112ede9803cb7027","computer","Desktop or Laptop","Mac OS 10.15.7","Chrome 113.0.0.0","1440x900","1440x700",NA,NA,0,"BIQ (Charlotte)",3,"EFDGCHBIAJ","Passed AC2","","Chocking_second","Spreadsheet1",1,"BIQ","Screen 1","9dh6eq",1,"response","5",16917.623,17800.921,17817.4069999523,16917.623,17800.921,17817.4069999523,1,16917.623,899.783999952317,0,NA,"Rating Scale","Rating Scale",17,"object-80","BIQ",NA,"SUPPRF90122"
"6",1709578206963,"04/03/2024 18:50:06",1709578206963,0,"04/03/2024 18:50:06",169741,4,"task-gjqt",NA,35768706,10572350,NA,"complete",NA,"65e61655112ede9803cb7027","computer","Desktop or Laptop","Mac OS 10.15.7","Chrome 113.0.0.0","1440x900","1440x700",NA,NA,0,"BIQ (Charlotte)",3,"EFDGCHBIAJ","Passed AC2","","Chocking_second","Spreadsheet1",1,"BIQ","Screen 2","o21mwi",2,"continue","",28543.5860000954,28534.729,28543.5860000954,28543.5860000954,28534.729,28543.5860000954,1,28543.5860000954,0,0,NA,"Click To Continue","Continue Button",22,"object-50","BIQ",NA,"SUPPRF90122"
"7",1709578206967,"04/03/2024 18:50:06",1709578206967,0,"04/03/2024 18:50:06",169741,4,"task-gjqt",NA,35768706,10572350,NA,"complete",NA,"65e61655112ede9803cb7027","computer","Desktop or Laptop","Mac OS 10.15.7","Chrome 113.0.0.0","1440x900","1440x700",NA,NA,0,"BIQ (Charlotte)",3,"EFDGCHBIAJ","Passed AC2","","Chocking_second","Spreadsheet1",1,"BIQ","Screen 2","o21mwi",2,"response","2",11683.65,28534.729,28547.8860000477,11683.65,28534.729,28547.8860000477,1,11683.65,16864.2360000477,0,NA,"Rating Scale","Rating Scale",2,"object-259","BIQ",NA,"SUPPRF90122"
"8",1709578206967,"04/03/2024 18:50:06",1709578206967,0,"04/03/2024 18:50:06",169741,4,"task-gjqt",NA,35768706,10572350,NA,"complete",NA,"65e61655112ede9803cb7027","computer","Desktop or Laptop","Mac OS 10.15.7","Chrome 113.0.0.0","1440x900","1440x700",NA,NA,0,"BIQ (Charlotte)",3,"EFDGCHBIAJ","Passed AC2","","Chocking_second","Spreadsheet1",1,"BIQ","Screen 2","o21mwi",2,"response","2",18884.305,28534.729,28548.3860000477,18884.305,28534.729,28548.3860000477,1,18884.305,9664.08100004768,0,NA,"Rating Scale","Rating Scale",9,"object-36","BIQ",NA,"SUPPRF90122"
"9",1709578206968,"04/03/2024 18:50:06",1709578206968,0,"04/03/2024 18:50:06",169741,4,"task-gjqt",NA,35768706,10572350,NA,"complete",NA,"65e61655112ede9803cb7027","computer","Desktop or Laptop","Mac OS 10.15.7","Chrome 113.0.0.0","1440x900","1440x700",NA,NA,0,"BIQ (Charlotte)",3,"EFDGCHBIAJ","Passed AC2","","Chocking_second","Spreadsheet1",1,"BIQ","Screen 2","o21mwi",2,"response","5",27934.753,28534.729,28548.686,27934.753,28534.729,28548.686,1,27934.753,613.932999999997,0,NA,"Rating Scale","Rating Scale",16,"object-86","BIQ",NA,"SUPPRF90122"
"10",1709578227187,"04/03/2024 18:50:27",1709578227187,0,"04/03/2024 18:50:27",169741,4,"task-gjqt",NA,35768706,10572350,NA,"complete",NA,"65e61655112ede9803cb7027","computer","Desktop or Laptop","Mac OS 10.15.7","Chrome 113.0.0.0","1440x900","1440x700",NA,NA,0,"BIQ (Charlotte)",3,"EFDGCHBIAJ","Passed AC2","","Chocking_second","Spreadsheet1",1,"BIQ","Screen 3","iz3the",3,"continue","",20234.087,20217.421,20234.087,20234.087,20217.421,20234.087,1,20234.087,0,0,NA,"Click To Continue","Continue Button",22,"object-73","BIQ",NA,"SUPPRF90122"
"11",1709578227190,"04/03/2024 18:50:27",1709578227190,0,"04/03/2024 18:50:27",169741,4,"task-gjqt",NA,35768706,10572350,NA,"complete",NA,"65e61655112ede9803cb7027","computer","Desktop or Laptop","Mac OS 10.15.7","Chrome 113.0.0.0","1440x900","1440x700",NA,NA,0,"BIQ (Charlotte)",3,"EFDGCHBIAJ","Passed AC2","","Chocking_second","Spreadsheet1",1,"BIQ","Screen 3","iz3the",3,"response","6",10749.57,20217.421,20234.087,10749.57,20217.421,20234.087,1,10749.57,9484.51700000002,0,NA,"Rating Scale","Rating Scale",2,"object-53","BIQ",NA,"SUPPRF90122"
"12",1709578227190,"04/03/2024 18:50:27",1709578227190,0,"04/03/2024 18:50:27",169741,4,"task-gjqt",NA,35768706,10572350,NA,"complete",NA,"65e61655112ede9803cb7027","computer","Desktop or Laptop","Mac OS 10.15.7","Chrome 113.0.0.0","1440x900","1440x700",NA,NA,0,"BIQ (Charlotte)",3,"EFDGCHBIAJ","Passed AC2","","Chocking_second","Spreadsheet1",1,"BIQ","Screen 3","iz3the",3,"response","5",13999.44,20217.421,20234.087,13999.44,20217.421,20234.087,1,13999.44,6234.64700000002,0,NA,"Rating Scale","Rating Scale",9,"object-60","BIQ",NA,"SUPPRF90122"
"13",1709578227190,"04/03/2024 18:50:27",1709578227190,0,"04/03/2024 18:50:27",169741,4,"task-gjqt",NA,35768706,10572350,NA,"complete",NA,"65e61655112ede9803cb7027","computer","Desktop or Laptop","Mac OS 10.15.7","Chrome 113.0.0.0","1440x900","1440x700",NA,NA,0,"BIQ (Charlotte)",3,"EFDGCHBIAJ","Passed AC2","","Chocking_second","Spreadsheet1",1,"BIQ","Screen 3","iz3the",3,"response","4",17815.954,20217.421,20234.087,17815.954,20217.421,20234.087,1,17815.954,2418.13300000002,0,NA,"Rating Scale","Rating Scale",16,"object-67","BIQ",NA,"SUPPRF90122"
"14",1709578227195,"04/03/2024 18:50:27",1709578227195,0,"04/03/2024 18:50:27",169741,4,"task-gjqt",NA,35768706,10572350,NA,"complete",NA,"65e61655112ede9803cb7027","computer","Desktop or Laptop","Mac OS 10.15.7","Chrome 113.0.0.0","1440x900","1440x700",NA,NA,0,"BIQ (Charlotte)",3,"EFDGCHBIAJ","Passed AC2","","Chocking_second","Spreadsheet1",NA,"","","",NA,"5","END",NA,NA,NA,NA,NA,NA,0,NA,NA,NA,NA,"","",NA,"","",NA,"SUPPRF90122"
"1",1709580239050,"04/03/2024 19:23:59",1709580239050,0,"04/03/2024 19:23:59",169741,4,"task-gjqt",NA,35769917,10572429,NA,"complete",NA,"65e618b72145f01e320788fb","computer","Desktop or Laptop","Windows 10","Chrome 121.0.0.0","1366x768","1366x679",NA,NA,0,"BIQ (Charlotte)",3,"HIGJFAEBDC","Passed AC2","","Chocking_first","Spreadsheet1",NA,"","","",NA,"5","BEGIN",NA,NA,NA,NA,NA,NA,0,NA,NA,NA,NA,"","",NA,"","",NA,"SUPPRF33311"
"2",1709580371689,"04/03/2024 19:26:11",1709580371689,0,"04/03/2024 19:26:11",169741,4,"task-gjqt",NA,35769917,10572429,NA,"complete",NA,"65e618b72145f01e320788fb","computer","Desktop or Laptop","Windows 10","Chrome 121.0.0.0","1366x768","1366x679",NA,NA,0,"BIQ (Charlotte)",3,"HIGJFAEBDC","Passed AC2","","Chocking_first","Spreadsheet1",1,"BIQ","Screen 1","9dh6eq",1,"continue","",132684.925999994,132666.426,132684.925999994,132684.925999994,132666.426,132684.925999994,1,132684.925999994,0,0,NA,"Click To Continue","Continue Button",23,"object-48","BIQ",NA,"SUPPRF33311"
"3",1709580371695,"04/03/2024 19:26:11",1709580371695,0,"04/03/2024 19:26:11",169741,4,"task-gjqt",NA,35769917,10572429,NA,"complete",NA,"65e618b72145f01e320788fb","computer","Desktop or Laptop","Windows 10","Chrome 121.0.0.0","1366x768","1366x679",NA,NA,0,"BIQ (Charlotte)",3,"HIGJFAEBDC","Passed AC2","","Chocking_first","Spreadsheet1",1,"BIQ","Screen 1","9dh6eq",1,"response","7",65603.726,132666.426,132691.526,65603.726,132666.426,132691.526,1,65603.726,67087.8,0,NA,"Rating Scale","Rating Scale",3,"object-5","BIQ",NA,"SUPPRF33311"
"4",1709580371696,"04/03/2024 19:26:11",1709580371696,0,"04/03/2024 19:26:11",169741,4,"task-gjqt",NA,35769917,10572429,NA,"complete",NA,"65e618b72145f01e320788fb","computer","Desktop or Laptop","Windows 10","Chrome 121.0.0.0","1366x768","1366x679",NA,NA,0,"BIQ (Charlotte)",3,"HIGJFAEBDC","Passed AC2","","Chocking_first","Spreadsheet1",1,"BIQ","Screen 1","9dh6eq",1,"response","7",119589.326,132666.426,132691.526,119589.326,132666.426,132691.526,1,119589.326,13102.2,0,NA,"Rating Scale","Rating Scale",10,"object-18","BIQ",NA,"SUPPRF33311"
"5",1709580371697,"04/03/2024 19:26:11",1709580371697,0,"04/03/2024 19:26:11",169741,4,"task-gjqt",NA,35769917,10572429,NA,"complete",NA,"65e618b72145f01e320788fb","computer","Desktop or Laptop","Windows 10","Chrome 121.0.0.0","1366x768","1366x679",NA,NA,0,"BIQ (Charlotte)",3,"HIGJFAEBDC","Passed AC2","","Chocking_first","Spreadsheet1",1,"BIQ","Screen 1","9dh6eq",1,"response","2",127130.026,132666.426,132691.526,127130.026,132666.426,132691.526,1,127130.026,5561.5,0,NA,"Rating Scale","Rating Scale",17,"object-80","BIQ",NA,"SUPPRF33311"
"6",1709580425630,"04/03/2024 19:27:05",1709580425630,0,"04/03/2024 19:27:05",169741,4,"task-gjqt",NA,35769917,10572429,NA,"complete",NA,"65e618b72145f01e320788fb","computer","Desktop or Laptop","Windows 10","Chrome 121.0.0.0","1366x768","1366x679",NA,NA,0,"BIQ (Charlotte)",3,"HIGJFAEBDC","Passed AC2","","Chocking_first","Spreadsheet1",1,"BIQ","Screen 2","o21mwi",2,"continue","",53968.5999999881,53959.2,53968.5999999881,53968.5999999881,53959.2,53968.5999999881,1,53968.5999999881,0,0,NA,"Click To Continue","Continue Button",22,"object-50","BIQ",NA,"SUPPRF33311"
"7",1709580425644,"04/03/2024 19:27:05",1709580425644,0,"04/03/2024 19:27:05",169741,4,"task-gjqt",NA,35769917,10572429,NA,"complete",NA,"65e618b72145f01e320788fb","computer","Desktop or Laptop","Windows 10","Chrome 121.0.0.0","1366x768","1366x679",NA,NA,0,"BIQ (Charlotte)",3,"HIGJFAEBDC","Passed AC2","","Chocking_first","Spreadsheet1",1,"BIQ","Screen 2","o21mwi",2,"response","6",17810.5,53959.2,53982.5999999881,17810.5,53959.2,53982.5999999881,1,17810.5,36172.0999999881,0,NA,"Rating Scale","Rating Scale",2,"object-259","BIQ",NA,"SUPPRF33311"
"8",1709580425646,"04/03/2024 19:27:05",1709580425646,0,"04/03/2024 19:27:05",169741,4,"task-gjqt",NA,35769917,10572429,NA,"complete",NA,"65e618b72145f01e320788fb","computer","Desktop or Laptop","Windows 10","Chrome 121.0.0.0","1366x768","1366x679",NA,NA,0,"BIQ (Charlotte)",3,"HIGJFAEBDC","Passed AC2","","Chocking_first","Spreadsheet1",1,"BIQ","Screen 2","o21mwi",2,"response","2",32415.7,53959.2,53984.2,32415.7,53959.2,53984.2,1,32415.7,21568.5,0,NA,"Rating Scale","Rating Scale",9,"object-36","BIQ",NA,"SUPPRF33311"
"9",1709580425650,"04/03/2024 19:27:05",1709580425650,0,"04/03/2024 19:27:05",169741,4,"task-gjqt",NA,35769917,10572429,NA,"complete",NA,"65e618b72145f01e320788fb","computer","Desktop or Laptop","Windows 10","Chrome 121.0.0.0","1366x768","1366x679",NA,NA,0,"BIQ (Charlotte)",3,"HIGJFAEBDC","Passed AC2","","Chocking_first","Spreadsheet1",1,"BIQ","Screen 2","o21mwi",2,"response","1",46118.8,53959.2,53984.2,46118.8,53959.2,53984.2,1,46118.8,7865.39999999999,0,NA,"Rating Scale","Rating Scale",16,"object-86","BIQ",NA,"SUPPRF33311"
"10",1709580482141,"04/03/2024 19:28:02",1709580482141,0,"04/03/2024 19:28:02",169741,4,"task-gjqt",NA,35769917,10572429,NA,"complete",NA,"65e618b72145f01e320788fb","computer","Desktop or Laptop","Windows 10","Chrome 121.0.0.0","1366x768","1366x679",NA,NA,0,"BIQ (Charlotte)",3,"HIGJFAEBDC","Passed AC2","","Chocking_first","Spreadsheet1",1,"BIQ","Screen 3","iz3the",3,"continue","",56520.7,56515.8,56520.7,56520.7,56515.8,56520.7,1,56520.7,0,0,NA,"Click To Continue","Continue Button",22,"object-73","BIQ",NA,"SUPPRF33311"
"11",1709580482148,"04/03/2024 19:28:02",1709580482148,0,"04/03/2024 19:28:02",169741,4,"task-gjqt",NA,35769917,10572429,NA,"complete",NA,"65e618b72145f01e320788fb","computer","Desktop or Laptop","Windows 10","Chrome 121.0.0.0","1366x768","1366x679",NA,NA,0,"BIQ (Charlotte)",3,"HIGJFAEBDC","Passed AC2","","Chocking_first","Spreadsheet1",1,"BIQ","Screen 3","iz3the",3,"response","1",38653,56515.8,56529.2,38653,56515.8,56529.2,1,38653,17876.2,0,NA,"Rating Scale","Rating Scale",2,"object-53","BIQ",NA,"SUPPRF33311"
"12",1709580482150,"04/03/2024 19:28:02",1709580482150,0,"04/03/2024 19:28:02",169741,4,"task-gjqt",NA,35769917,10572429,NA,"complete",NA,"65e618b72145f01e320788fb","computer","Desktop or Laptop","Windows 10","Chrome 121.0.0.0","1366x768","1366x679",NA,NA,0,"BIQ (Charlotte)",3,"HIGJFAEBDC","Passed AC2","","Chocking_first","Spreadsheet1",1,"BIQ","Screen 3","iz3the",3,"response","2",49351.3,56515.8,56531.0999999762,49351.3,56515.8,56531.0999999762,1,49351.3,7179.79999997615,0,NA,"Rating Scale","Rating Scale",9,"object-60","BIQ",NA,"SUPPRF33311"
"13",1709580482152,"04/03/2024 19:28:02",1709580482152,0,"04/03/2024 19:28:02",169741,4,"task-gjqt",NA,35769917,10572429,NA,"complete",NA,"65e618b72145f01e320788fb","computer","Desktop or Laptop","Windows 10","Chrome 121.0.0.0","1366x768","1366x679",NA,NA,0,"BIQ (Charlotte)",3,"HIGJFAEBDC","Passed AC2","","Chocking_first","Spreadsheet1",1,"BIQ","Screen 3","iz3the",3,"response","2",54860.8,56515.8,56532.8999999881,54860.8,56515.8,56532.8999999881,1,54860.8,1672.0999999881,0,NA,"Rating Scale","Rating Scale",16,"object-67","BIQ",NA,"SUPPRF33311"
"14",1709580482169,"04/03/2024 19:28:02",1709580482169,0,"04/03/2024 19:28:02",169741,4,"task-gjqt",NA,35769917,10572429,NA,"complete",NA,"65e618b72145f01e320788fb","computer","Desktop or Laptop","Windows 10","Chrome 121.0.0.0","1366x768","1366x679",NA,NA,0,"BIQ (Charlotte)",3,"HIGJFAEBDC","Passed AC2","","Chocking_first","Spreadsheet1",NA,"","","",NA,"5","END",NA,NA,NA,NA,NA,NA,0,NA,NA,NA,NA,"","",NA,"","",NA,"SUPPRF33311"
"1",1709579079692,"04/03/2024 19:04:39",1709557479692,-6,"04/03/2024 07:04:39",169741,4,"task-gjqt",NA,35769318,10572500,NA,"complete",NA,"65e61ac1ea11151a57933935","computer","Desktop or Laptop","Chromium OS 14541.0.0","Chrome 121.0.0.0","1366x768","1366x599",NA,NA,0,"BIQ (Charlotte)",3,"FGEHDICJBA","Passed AC2","","Chocking_first","Spreadsheet1",NA,"","","",NA,"5","BEGIN",NA,NA,NA,NA,NA,NA,0,NA,NA,NA,NA,"","",NA,"","",NA,"SUPPRF99447"
"2",1709579118378,"04/03/2024 19:05:18",1709557518378,-6,"04/03/2024 07:05:18",169741,4,"task-gjqt",NA,35769318,10572500,NA,"complete",NA,"65e61ac1ea11151a57933935","computer","Desktop or Laptop","Chromium OS 14541.0.0","Chrome 121.0.0.0","1366x768","1366x599",NA,NA,0,"BIQ (Charlotte)",3,"FGEHDICJBA","Passed AC2","","Chocking_first","Spreadsheet1",1,"BIQ","Screen 1","9dh6eq",1,"continue","",38714.861999997,38702.062,38714.861999997,38714.861999997,38702.062,38714.861999997,1,38714.861999997,0,0,NA,"Click To Continue","Continue Button",23,"object-48","BIQ",NA,"SUPPRF99447"
"3",1709579118383,"04/03/2024 19:05:18",1709557518383,-6,"04/03/2024 07:05:18",169741,4,"task-gjqt",NA,35769318,10572500,NA,"complete",NA,"65e61ac1ea11151a57933935","computer","Desktop or Laptop","Chromium OS 14541.0.0","Chrome 121.0.0.0","1366x768","1366x599",NA,NA,0,"BIQ (Charlotte)",3,"FGEHDICJBA","Passed AC2","","Chocking_first","Spreadsheet1",1,"BIQ","Screen 1","9dh6eq",1,"response","7",11861.462,38702.062,38718.662,11861.462,38702.062,38718.662,1,11861.462,26857.2,0,NA,"Rating Scale","Rating Scale",3,"object-5","BIQ",NA,"SUPPRF99447"
"4",1709579118383,"04/03/2024 19:05:18",1709557518383,-6,"04/03/2024 07:05:18",169741,4,"task-gjqt",NA,35769318,10572500,NA,"complete",NA,"65e61ac1ea11151a57933935","computer","Desktop or Laptop","Chromium OS 14541.0.0","Chrome 121.0.0.0","1366x768","1366x599",NA,NA,0,"BIQ (Charlotte)",3,"FGEHDICJBA","Passed AC2","","Chocking_first","Spreadsheet1",1,"BIQ","Screen 1","9dh6eq",1,"response","7",28122.462,38702.062,38718.662,28122.462,38702.062,38718.662,1,28122.462,10596.2,0,NA,"Rating Scale","Rating Scale",10,"object-18","BIQ",NA,"SUPPRF99447"
"5",1709579118384,"04/03/2024 19:05:18",1709557518384,-6,"04/03/2024 07:05:18",169741,4,"task-gjqt",NA,35769318,10572500,NA,"complete",NA,"65e61ac1ea11151a57933935","computer","Desktop or Laptop","Chromium OS 14541.0.0","Chrome 121.0.0.0","1366x768","1366x599",NA,NA,0,"BIQ (Charlotte)",3,"FGEHDICJBA","Passed AC2","","Chocking_first","Spreadsheet1",1,"BIQ","Screen 1","9dh6eq",1,"response","1",35003.462,38702.062,38718.662,35003.462,38702.062,38718.662,1,35003.462,3715.2,0,NA,"Rating Scale","Rating Scale",17,"object-80","BIQ",NA,"SUPPRF99447"
"6",1709579179111,"04/03/2024 19:06:19",1709557579111,-6,"04/03/2024 07:06:19",169741,4,"task-gjqt",NA,35769318,10572500,NA,"complete",NA,"65e61ac1ea11151a57933935","computer","Desktop or Laptop","Chromium OS 14541.0.0","Chrome 121.0.0.0","1366x768","1366x599",NA,NA,0,"BIQ (Charlotte)",3,"FGEHDICJBA","Passed AC2","","Chocking_first","Spreadsheet1",1,"BIQ","Screen 2","o21mwi",2,"continue","",60745.4,60728.8,60745.4,60745.4,60728.8,60745.4,1,60745.4,0,0,NA,"Click To Continue","Continue Button",22,"object-50","BIQ",NA,"SUPPRF99447"
"7",1709579179118,"04/03/2024 19:06:19",1709557579118,-6,"04/03/2024 07:06:19",169741,4,"task-gjqt",NA,35769318,10572500,NA,"complete",NA,"65e61ac1ea11151a57933935","computer","Desktop or Laptop","Chromium OS 14541.0.0","Chrome 121.0.0.0","1366x768","1366x599",NA,NA,0,"BIQ (Charlotte)",3,"FGEHDICJBA","Passed AC2","","Chocking_first","Spreadsheet1",1,"BIQ","Screen 2","o21mwi",2,"response","8",32821.9,60728.8,60745.4,32821.9,60728.8,60745.4,1,32821.9,27923.5,0,NA,"Rating Scale","Rating Scale",2,"object-259","BIQ",NA,"SUPPRF99447"
"8",1709579179119,"04/03/2024 19:06:19",1709557579119,-6,"04/03/2024 07:06:19",169741,4,"task-gjqt",NA,35769318,10572500,NA,"complete",NA,"65e61ac1ea11151a57933935","computer","Desktop or Laptop","Chromium OS 14541.0.0","Chrome 121.0.0.0","1366x768","1366x599",NA,NA,0,"BIQ (Charlotte)",3,"FGEHDICJBA","Passed AC2","","Chocking_first","Spreadsheet1",1,"BIQ","Screen 2","o21mwi",2,"response","1",48133.2,60728.8,60745.4,48133.2,60728.8,60745.4,1,48133.2,12612.2,0,NA,"Rating Scale","Rating Scale",9,"object-36","BIQ",NA,"SUPPRF99447"
"9",1709579179120,"04/03/2024 19:06:19",1709557579120,-6,"04/03/2024 07:06:19",169741,4,"task-gjqt",NA,35769318,10572500,NA,"complete",NA,"65e61ac1ea11151a57933935","computer","Desktop or Laptop","Chromium OS 14541.0.0","Chrome 121.0.0.0","1366x768","1366x599",NA,NA,0,"BIQ (Charlotte)",3,"FGEHDICJBA","Passed AC2","","Chocking_first","Spreadsheet1",1,"BIQ","Screen 2","o21mwi",2,"response","0",59629.2,60728.8,60745.4,59629.2,60728.8,60745.4,1,59629.2,1116.20000000001,0,NA,"Rating Scale","Rating Scale",16,"object-86","BIQ",NA,"SUPPRF99447"
"10",1709579257825,"04/03/2024 19:07:37",1709557657825,-6,"04/03/2024 07:07:37",169741,4,"task-gjqt",NA,35769318,10572500,NA,"complete",NA,"65e61ac1ea11151a57933935","computer","Desktop or Laptop","Chromium OS 14541.0.0","Chrome 121.0.0.0","1366x768","1366x599",NA,NA,0,"BIQ (Charlotte)",3,"FGEHDICJBA","Passed AC2","","Chocking_first","Spreadsheet1",1,"BIQ","Screen 3","iz3the",3,"continue","",78730.900000003,78722.5,78730.900000003,78730.900000003,78722.5,78730.900000003,1,78730.900000003,0,0,NA,"Click To Continue","Continue Button",22,"object-73","BIQ",NA,"SUPPRF99447"
"11",1709579257833,"04/03/2024 19:07:37",1709557657833,-6,"04/03/2024 07:07:37",169741,4,"task-gjqt",NA,35769318,10572500,NA,"complete",NA,"65e61ac1ea11151a57933935","computer","Desktop or Laptop","Chromium OS 14541.0.0","Chrome 121.0.0.0","1366x768","1366x599",NA,NA,0,"BIQ (Charlotte)",3,"FGEHDICJBA","Passed AC2","","Chocking_first","Spreadsheet1",1,"BIQ","Screen 3","iz3the",3,"response","0",10213.1,78722.5,78738.999999997,10213.1,78722.5,78738.999999997,1,10213.1,68525.899999997,0,NA,"Rating Scale","Rating Scale",2,"object-53","BIQ",NA,"SUPPRF99447"
"12",1709579257834,"04/03/2024 19:07:37",1709557657834,-6,"04/03/2024 07:07:37",169741,4,"task-gjqt",NA,35769318,10572500,NA,"complete",NA,"65e61ac1ea11151a57933935","computer","Desktop or Laptop","Chromium OS 14541.0.0","Chrome 121.0.0.0","1366x768","1366x599",NA,NA,0,"BIQ (Charlotte)",3,"FGEHDICJBA","Passed AC2","","Chocking_first","Spreadsheet1",1,"BIQ","Screen 3","iz3the",3,"response","0",68992.5,78722.5,78739.2,68992.5,78722.5,78739.2,1,68992.5,9746.69999999998,0,NA,"Rating Scale","Rating Scale",9,"object-60","BIQ",NA,"SUPPRF99447"
"13",1709579257835,"04/03/2024 19:07:37",1709557657835,-6,"04/03/2024 07:07:37",169741,4,"task-gjqt",NA,35769318,10572500,NA,"complete",NA,"65e61ac1ea11151a57933935","computer","Desktop or Laptop","Chromium OS 14541.0.0","Chrome 121.0.0.0","1366x768","1366x599",NA,NA,0,"BIQ (Charlotte)",3,"FGEHDICJBA","Passed AC2","","Chocking_first","Spreadsheet1",1,"BIQ","Screen 3","iz3the",3,"response","0",77789.4,78722.5,78739.2,77789.4,78722.5,78739.2,1,77789.4,949.799999999959,0,NA,"Rating Scale","Rating Scale",16,"object-67","BIQ",NA,"SUPPRF99447"
"14",1709579257841,"04/03/2024 19:07:37",1709557657841,-6,"04/03/2024 07:07:37",169741,4,"task-gjqt",NA,35769318,10572500,NA,"complete",NA,"65e61ac1ea11151a57933935","computer","Desktop or Laptop","Chromium OS 14541.0.0","Chrome 121.0.0.0","1366x768","1366x599",NA,NA,0,"BIQ (Charlotte)",3,"FGEHDICJBA","Passed AC2","","Chocking_first","Spreadsheet1",NA,"","","",NA,"5","END",NA,NA,NA,NA,NA,NA,0,NA,NA,NA,NA,"","",NA,"","",NA,"SUPPRF99447"
"1",1709580847148,"04/03/2024 19:34:07",1709580847148,0,"04/03/2024 19:34:07",169741,4,"task-gjqt",NA,35770342,10572707,NA,"complete",NA,"65e6212196c95a694dd9bf64","computer","Desktop or Laptop","Linux x86_64","Chrome 122.0.0.0","1920x1080","1920x863",NA,NA,0,"BIQ (Charlotte)",3,"IJHAGBFCED","Passed AC2","","Chocking_first","Spreadsheet1",NA,"","","",NA,"5","BEGIN",NA,NA,NA,NA,NA,NA,0,NA,NA,NA,NA,"","",NA,"","",NA,"SUPPRF68034"
"2",1709580874137,"04/03/2024 19:34:34",1709580874137,0,"04/03/2024 19:34:34",169741,4,"task-gjqt",NA,35770342,10572707,NA,"complete",NA,"65e6212196c95a694dd9bf64","computer","Desktop or Laptop","Linux x86_64","Chrome 122.0.0.0","1920x1080","1920x863",NA,NA,0,"BIQ (Charlotte)",3,"IJHAGBFCED","Passed AC2","","Chocking_first","Spreadsheet1",1,"BIQ","Screen 1","9dh6eq",1,"continue","",26999.474,26982.774,26999.474,26999.474,26982.774,26999.474,1,26999.474,0,0,NA,"Click To Continue","Continue Button",23,"object-48","BIQ",NA,"SUPPRF68034"
"3",1709580874144,"04/03/2024 19:34:34",1709580874144,0,"04/03/2024 19:34:34",169741,4,"task-gjqt",NA,35770342,10572707,NA,"complete",NA,"65e6212196c95a694dd9bf64","computer","Desktop or Laptop","Linux x86_64","Chrome 122.0.0.0","1920x1080","1920x863",NA,NA,0,"BIQ (Charlotte)",3,"IJHAGBFCED","Passed AC2","","Chocking_first","Spreadsheet1",1,"BIQ","Screen 1","9dh6eq",1,"response","6",16432.974,26982.774,26999.474,16432.974,26982.774,26999.474,1,16432.974,10566.5,0,NA,"Rating Scale","Rating Scale",3,"object-5","BIQ",NA,"SUPPRF68034"
"4",1709580874145,"04/03/2024 19:34:34",1709580874145,0,"04/03/2024 19:34:34",169741,4,"task-gjqt",NA,35770342,10572707,NA,"complete",NA,"65e6212196c95a694dd9bf64","computer","Desktop or Laptop","Linux x86_64","Chrome 122.0.0.0","1920x1080","1920x863",NA,NA,0,"BIQ (Charlotte)",3,"IJHAGBFCED","Passed AC2","","Chocking_first","Spreadsheet1",1,"BIQ","Screen 1","9dh6eq",1,"response","8",19532.874,26982.774,26999.474,19532.874,26982.774,26999.474,1,19532.874,7466.6,0,NA,"Rating Scale","Rating Scale",10,"object-18","BIQ",NA,"SUPPRF68034"
"5",1709580874146,"04/03/2024 19:34:34",1709580874146,0,"04/03/2024 19:34:34",169741,4,"task-gjqt",NA,35770342,10572707,NA,"complete",NA,"65e6212196c95a694dd9bf64","computer","Desktop or Laptop","Linux x86_64","Chrome 122.0.0.0","1920x1080","1920x863",NA,NA,0,"BIQ (Charlotte)",3,"IJHAGBFCED","Passed AC2","","Chocking_first","Spreadsheet1",1,"BIQ","Screen 1","9dh6eq",1,"response","0",25266.174,26982.774,26999.474,25266.174,26982.774,26999.474,1,25266.174,1733.3,0,NA,"Rating Scale","Rating Scale",17,"object-80","BIQ",NA,"SUPPRF68034"
"6",1709580893142,"04/03/2024 19:34:53",1709580893142,0,"04/03/2024 19:34:53",169741,4,"task-gjqt",NA,35770342,10572707,NA,"complete",NA,"65e6212196c95a694dd9bf64","computer","Desktop or Laptop","Linux x86_64","Chrome 122.0.0.0","1920x1080","1920x863",NA,NA,0,"BIQ (Charlotte)",3,"IJHAGBFCED","Passed AC2","","Chocking_first","Spreadsheet1",1,"BIQ","Screen 2","o21mwi",2,"continue","",19033.1,19016.4,19033.1,19033.1,19016.4,19033.1,1,19033.1,0,0,NA,"Click To Continue","Continue Button",22,"object-50","BIQ",NA,"SUPPRF68034"
"7",1709580893150,"04/03/2024 19:34:53",1709580893150,0,"04/03/2024 19:34:53",169741,4,"task-gjqt",NA,35770342,10572707,NA,"complete",NA,"65e6212196c95a694dd9bf64","computer","Desktop or Laptop","Linux x86_64","Chrome 122.0.0.0","1920x1080","1920x863",NA,NA,0,"BIQ (Charlotte)",3,"IJHAGBFCED","Passed AC2","","Chocking_first","Spreadsheet1",1,"BIQ","Screen 2","o21mwi",2,"response","8",3949.9,19016.4,19033.1,3949.9,19016.4,19033.1,1,3949.9,15083.2,0,NA,"Rating Scale","Rating Scale",2,"object-259","BIQ",NA,"SUPPRF68034"
"8",1709580893152,"04/03/2024 19:34:53",1709580893152,0,"04/03/2024 19:34:53",169741,4,"task-gjqt",NA,35770342,10572707,NA,"complete",NA,"65e6212196c95a694dd9bf64","computer","Desktop or Laptop","Linux x86_64","Chrome 122.0.0.0","1920x1080","1920x863",NA,NA,0,"BIQ (Charlotte)",3,"IJHAGBFCED","Passed AC2","","Chocking_first","Spreadsheet1",1,"BIQ","Screen 2","o21mwi",2,"response","1",7366.5,19016.4,19033.1,7366.5,19016.4,19033.1,1,7366.5,11666.6,0,NA,"Rating Scale","Rating Scale",9,"object-36","BIQ",NA,"SUPPRF68034"
"9",1709580893154,"04/03/2024 19:34:53",1709580893154,0,"04/03/2024 19:34:53",169741,4,"task-gjqt",NA,35770342,10572707,NA,"complete",NA,"65e6212196c95a694dd9bf64","computer","Desktop or Laptop","Linux x86_64","Chrome 122.0.0.0","1920x1080","1920x863",NA,NA,0,"BIQ (Charlotte)",3,"IJHAGBFCED","Passed AC2","","Chocking_first","Spreadsheet1",1,"BIQ","Screen 2","o21mwi",2,"response","8",18366.5,19016.4,19033.1,18366.5,19016.4,19033.1,1,18366.5,666.599999999999,0,NA,"Rating Scale","Rating Scale",16,"object-86","BIQ",NA,"SUPPRF68034"
"10",1709580902469,"04/03/2024 19:35:02",1709580902469,0,"04/03/2024 19:35:02",169741,4,"task-gjqt",NA,35770342,10572707,NA,"complete",NA,"65e6212196c95a694dd9bf64","computer","Desktop or Laptop","Linux x86_64","Chrome 122.0.0.0","1920x1080","1920x863",NA,NA,0,"BIQ (Charlotte)",3,"IJHAGBFCED","Passed AC2","","Chocking_first","Spreadsheet1",1,"BIQ","Screen 3","iz3the",3,"continue","",9346.59999999926,9333.2,9346.59999999926,9346.59999999926,9333.2,9346.59999999926,1,9346.59999999926,0,0,NA,"Click To Continue","Continue Button",22,"object-73","BIQ",NA,"SUPPRF68034"
"11",1709580902470,"04/03/2024 19:35:02",1709580902470,0,"04/03/2024 19:35:02",169741,4,"task-gjqt",NA,35770342,10572707,NA,"complete",NA,"65e6212196c95a694dd9bf64","computer","Desktop or Laptop","Linux x86_64","Chrome 122.0.0.0","1920x1080","1920x863",NA,NA,0,"BIQ (Charlotte)",3,"IJHAGBFCED","Passed AC2","","Chocking_first","Spreadsheet1",1,"BIQ","Screen 3","iz3the",3,"response","0",2800,9333.2,9347.9,2800,9333.2,9347.9,1,2800,6547.9,0,NA,"Rating Scale","Rating Scale",2,"object-53","BIQ",NA,"SUPPRF68034"
"12",1709580902471,"04/03/2024 19:35:02",1709580902471,0,"04/03/2024 19:35:02",169741,4,"task-gjqt",NA,35770342,10572707,NA,"complete",NA,"65e6212196c95a694dd9bf64","computer","Desktop or Laptop","Linux x86_64","Chrome 122.0.0.0","1920x1080","1920x863",NA,NA,0,"BIQ (Charlotte)",3,"IJHAGBFCED","Passed AC2","","Chocking_first","Spreadsheet1",1,"BIQ","Screen 3","iz3the",3,"response","2",4083.3,9333.2,9348.9,4083.3,9333.2,9348.9,1,4083.3,5265.6,0,NA,"Rating Scale","Rating Scale",9,"object-60","BIQ",NA,"SUPPRF68034"
"13",1709580902473,"04/03/2024 19:35:02",1709580902473,0,"04/03/2024 19:35:02",169741,4,"task-gjqt",NA,35770342,10572707,NA,"complete",NA,"65e6212196c95a694dd9bf64","computer","Desktop or Laptop","Linux x86_64","Chrome 122.0.0.0","1920x1080","1920x863",NA,NA,0,"BIQ (Charlotte)",3,"IJHAGBFCED","Passed AC2","","Chocking_first","Spreadsheet1",1,"BIQ","Screen 3","iz3the",3,"response","2",8699.9,9333.2,9349.90000000001,8699.9,9333.2,9349.90000000001,1,8699.9,650.000000000007,0,NA,"Rating Scale","Rating Scale",16,"object-67","BIQ",NA,"SUPPRF68034"
"14",1709580902487,"04/03/2024 19:35:02",1709580902487,0,"04/03/2024 19:35:02",169741,4,"task-gjqt",NA,35770342,10572707,NA,"complete",NA,"65e6212196c95a694dd9bf64","computer","Desktop or Laptop","Linux x86_64","Chrome 122.0.0.0","1920x1080","1920x863",NA,NA,0,"BIQ (Charlotte)",3,"IJHAGBFCED","Passed AC2","","Chocking_first","Spreadsheet1",NA,"","","",NA,"5","END",NA,NA,NA,NA,NA,NA,0,NA,NA,NA,NA,"","",NA,"","",NA,"SUPPRF68034"
"1",1709581240693,"04/03/2024 19:40:40",1709581240693,0,"04/03/2024 19:40:40",169741,4,"task-gjqt",NA,35770607,10572714,NA,"complete",NA,"65e6212570d2d33db2d2c762","computer","Desktop or Laptop","Windows 10","Chrome 122.0.0.0","1536x864","1536x695",NA,NA,0,"BIQ (Charlotte)",3,"JAIBHCGDFE","Passed AC2","","Chocking_second","Spreadsheet1",NA,"","","",NA,"5","BEGIN",NA,NA,NA,NA,NA,NA,0,NA,NA,NA,NA,"","",NA,"","",NA,"SUPPRF40866"
"2",1709581274168,"04/03/2024 19:41:14",1709581274168,0,"04/03/2024 19:41:14",169741,4,"task-gjqt",NA,35770607,10572714,NA,"complete",NA,"65e6212570d2d33db2d2c762","computer","Desktop or Laptop","Windows 10","Chrome 122.0.0.0","1536x864","1536x695",NA,NA,0,"BIQ (Charlotte)",3,"JAIBHCGDFE","Passed AC2","","Chocking_second","Spreadsheet1",1,"BIQ","Screen 1","9dh6eq",1,"continue","",33481.8,33476.1,33481.8,33481.8,33476.1,33481.8,1,33481.8,0,0,NA,"Click To Continue","Continue Button",23,"object-48","BIQ",NA,"SUPPRF40866"
"3",1709581274169,"04/03/2024 19:41:14",1709581274169,0,"04/03/2024 19:41:14",169741,4,"task-gjqt",NA,35770607,10572714,NA,"complete",NA,"65e6212570d2d33db2d2c762","computer","Desktop or Laptop","Windows 10","Chrome 122.0.0.0","1536x864","1536x695",NA,NA,0,"BIQ (Charlotte)",3,"JAIBHCGDFE","Passed AC2","","Chocking_second","Spreadsheet1",1,"BIQ","Screen 1","9dh6eq",1,"response","7",11764.2,33476.1,33483,11764.2,33476.1,33483,1,11764.2,21718.8,0,NA,"Rating Scale","Rating Scale",3,"object-5","BIQ",NA,"SUPPRF40866"
"4",1709581274170,"04/03/2024 19:41:14",1709581274170,0,"04/03/2024 19:41:14",169741,4,"task-gjqt",NA,35770607,10572714,NA,"complete",NA,"65e6212570d2d33db2d2c762","computer","Desktop or Laptop","Windows 10","Chrome 122.0.0.0","1536x864","1536x695",NA,NA,0,"BIQ (Charlotte)",3,"JAIBHCGDFE","Passed AC2","","Chocking_second","Spreadsheet1",1,"BIQ","Screen 1","9dh6eq",1,"response","7",27838.1,33476.1,33483,27838.1,33476.1,33483,1,27838.1,5644.90000000001,0,NA,"Rating Scale","Rating Scale",10,"object-18","BIQ",NA,"SUPPRF40866"
"5",1709581274170,"04/03/2024 19:41:14",1709581274170,0,"04/03/2024 19:41:14",169741,4,"task-gjqt",NA,35770607,10572714,NA,"complete",NA,"65e6212570d2d33db2d2c762","computer","Desktop or Laptop","Windows 10","Chrome 122.0.0.0","1536x864","1536x695",NA,NA,0,"BIQ (Charlotte)",3,"JAIBHCGDFE","Passed AC2","","Chocking_second","Spreadsheet1",1,"BIQ","Screen 1","9dh6eq",1,"response","7",31358.4,33476.1,33483,31358.4,33476.1,33483,1,31358.4,2124.60000000001,0,NA,"Rating Scale","Rating Scale",17,"object-80","BIQ",NA,"SUPPRF40866"
"6",1709581310058,"04/03/2024 19:41:50",1709581310058,0,"04/03/2024 19:41:50",169741,4,"task-gjqt",NA,35770607,10572714,NA,"complete",NA,"65e6212570d2d33db2d2c762","computer","Desktop or Laptop","Windows 10","Chrome 122.0.0.0","1536x864","1536x695",NA,NA,0,"BIQ (Charlotte)",3,"JAIBHCGDFE","Passed AC2","","Chocking_second","Spreadsheet1",1,"BIQ","Screen 2","o21mwi",2,"continue","",35895.4000000477,35890.5,35895.4000000477,35895.4000000477,35890.5,35895.4000000477,1,35895.4000000477,0,0,NA,"Click To Continue","Continue Button",22,"object-50","BIQ",NA,"SUPPRF40866"
"7",1709581310062,"04/03/2024 19:41:50",1709581310062,0,"04/03/2024 19:41:50",169741,4,"task-gjqt",NA,35770607,10572714,NA,"complete",NA,"65e6212570d2d33db2d2c762","computer","Desktop or Laptop","Windows 10","Chrome 122.0.0.0","1536x864","1536x695",NA,NA,0,"BIQ (Charlotte)",3,"JAIBHCGDFE","Passed AC2","","Chocking_second","Spreadsheet1",1,"BIQ","Screen 2","o21mwi",2,"response","8",5228.3,35890.5,35897.3,5228.3,35890.5,35897.3,1,5228.3,30669,0,NA,"Rating Scale","Rating Scale",2,"object-259","BIQ",NA,"SUPPRF40866"
"8",1709581310062,"04/03/2024 19:41:50",1709581310062,0,"04/03/2024 19:41:50",169741,4,"task-gjqt",NA,35770607,10572714,NA,"complete",NA,"65e6212570d2d33db2d2c762","computer","Desktop or Laptop","Windows 10","Chrome 122.0.0.0","1536x864","1536x695",NA,NA,0,"BIQ (Charlotte)",3,"JAIBHCGDFE","Passed AC2","","Chocking_second","Spreadsheet1",1,"BIQ","Screen 2","o21mwi",2,"response","0",7991.8,35890.5,35897.3,7991.8,35890.5,35897.3,1,7991.8,27905.5,0,NA,"Rating Scale","Rating Scale",9,"object-36","BIQ",NA,"SUPPRF40866"
"9",1709581310062,"04/03/2024 19:41:50",1709581310062,0,"04/03/2024 19:41:50",169741,4,"task-gjqt",NA,35770607,10572714,NA,"complete",NA,"65e6212570d2d33db2d2c762","computer","Desktop or Laptop","Windows 10","Chrome 122.0.0.0","1536x864","1536x695",NA,NA,0,"BIQ (Charlotte)",3,"JAIBHCGDFE","Passed AC2","","Chocking_second","Spreadsheet1",1,"BIQ","Screen 2","o21mwi",2,"response","0",32481.3,35890.5,35897.3,32481.3,35890.5,35897.3,1,32481.3,3416,0,NA,"Rating Scale","Rating Scale",16,"object-86","BIQ",NA,"SUPPRF40866"
"10",1709581330888,"04/03/2024 19:42:10",1709581330888,0,"04/03/2024 19:42:10",169741,4,"task-gjqt",NA,35770607,10572714,NA,"complete",NA,"65e6212570d2d33db2d2c762","computer","Desktop or Laptop","Windows 10","Chrome 122.0.0.0","1536x864","1536x695",NA,NA,0,"BIQ (Charlotte)",3,"JAIBHCGDFE","Passed AC2","","Chocking_second","Spreadsheet1",1,"BIQ","Screen 3","iz3the",3,"continue","",20834.9999999523,20830.3,20834.9999999523,20834.9999999523,20830.3,20834.9999999523,1,20834.9999999523,0,0,NA,"Click To Continue","Continue Button",22,"object-73","BIQ",NA,"SUPPRF40866"
"11",1709581330891,"04/03/2024 19:42:10",1709581330891,0,"04/03/2024 19:42:10",169741,4,"task-gjqt",NA,35770607,10572714,NA,"complete",NA,"65e6212570d2d33db2d2c762","computer","Desktop or Laptop","Windows 10","Chrome 122.0.0.0","1536x864","1536x695",NA,NA,0,"BIQ (Charlotte)",3,"JAIBHCGDFE","Passed AC2","","Chocking_second","Spreadsheet1",1,"BIQ","Screen 3","iz3the",3,"response","0",10512.4,20830.3,20837.2,10512.4,20830.3,20837.2,1,10512.4,10324.8,0,NA,"Rating Scale","Rating Scale",2,"object-53","BIQ",NA,"SUPPRF40866"
"12",1709581330891,"04/03/2024 19:42:10",1709581330891,0,"04/03/2024 19:42:10",169741,4,"task-gjqt",NA,35770607,10572714,NA,"complete",NA,"65e6212570d2d33db2d2c762","computer","Desktop or Laptop","Windows 10","Chrome 122.0.0.0","1536x864","1536x695",NA,NA,0,"BIQ (Charlotte)",3,"JAIBHCGDFE","Passed AC2","","Chocking_second","Spreadsheet1",1,"BIQ","Screen 3","iz3the",3,"response","0",16157.4,20830.3,20837.2,16157.4,20830.3,20837.2,1,16157.4,4679.80000000002,0,NA,"Rating Scale","Rating Scale",9,"object-60","BIQ",NA,"SUPPRF40866"
"13",1709581330892,"04/03/2024 19:42:10",1709581330892,0,"04/03/2024 19:42:10",169741,4,"task-gjqt",NA,35770607,10572714,NA,"complete",NA,"65e6212570d2d33db2d2c762","computer","Desktop or Laptop","Windows 10","Chrome 122.0.0.0","1536x864","1536x695",NA,NA,0,"BIQ (Charlotte)",3,"JAIBHCGDFE","Passed AC2","","Chocking_second","Spreadsheet1",1,"BIQ","Screen 3","iz3the",3,"response","0",19413.9,20830.3,20837.2,19413.9,20830.3,20837.2,1,19413.9,1423.30000000002,0,NA,"Rating Scale","Rating Scale",16,"object-67","BIQ",NA,"SUPPRF40866"
"14",1709581330894,"04/03/2024 19:42:10",1709581330894,0,"04/03/2024 19:42:10",169741,4,"task-gjqt",NA,35770607,10572714,NA,"complete",NA,"65e6212570d2d33db2d2c762","computer","Desktop or Laptop","Windows 10","Chrome 122.0.0.0","1536x864","1536x695",NA,NA,0,"BIQ (Charlotte)",3,"JAIBHCGDFE","Passed AC2","","Chocking_second","Spreadsheet1",NA,"","","",NA,"5","END",NA,NA,NA,NA,NA,NA,0,NA,NA,NA,NA,"","",NA,"","",NA,"SUPPRF40866"
"1",1709582596787,"04/03/2024 20:03:16",1709564596787,-5,"04/03/2024 10:03:16",169741,4,"task-gjqt",NA,35771485,10572920,NA,"complete",NA,"65e627240d9a8286e779f5d0","computer","Desktop or Laptop","Windows 10","Chrome 121.0.0.0","1920x1080","1920x953",NA,NA,0,"BIQ (Charlotte)",3,"BCADJEIFHG","Passed AC2","","Chocking_first","Spreadsheet1",NA,"","","",NA,"5","BEGIN",NA,NA,NA,NA,NA,NA,0,NA,NA,NA,NA,"","",NA,"","",NA,"SUPPRF82077"
"2",1709582630481,"04/03/2024 20:03:50",1709564630481,-5,"04/03/2024 10:03:50",169741,4,"task-gjqt",NA,35771485,10572920,NA,"complete",NA,"65e627240d9a8286e779f5d0","computer","Desktop or Laptop","Windows 10","Chrome 121.0.0.0","1920x1080","1920x953",NA,NA,0,"BIQ (Charlotte)",3,"BCADJEIFHG","Passed AC2","","Chocking_first","Spreadsheet1",1,"BIQ","Screen 1","9dh6eq",1,"continue","",33704.2399999046,33702.04,33704.2399999046,33704.2399999046,33702.04,33704.2399999046,1,33704.2399999046,0,0,NA,"Click To Continue","Continue Button",23,"object-48","BIQ",NA,"SUPPRF82077"
"3",1709582630483,"04/03/2024 20:03:50",1709564630483,-5,"04/03/2024 10:03:50",169741,4,"task-gjqt",NA,35771485,10572920,NA,"complete",NA,"65e627240d9a8286e779f5d0","computer","Desktop or Laptop","Windows 10","Chrome 121.0.0.0","1920x1080","1920x953",NA,NA,0,"BIQ (Charlotte)",3,"BCADJEIFHG","Passed AC2","","Chocking_first","Spreadsheet1",1,"BIQ","Screen 1","9dh6eq",1,"response","6",11632.24,33702.04,33706.9399999523,11632.24,33702.04,33706.9399999523,1,11632.24,22074.6999999523,0,NA,"Rating Scale","Rating Scale",3,"object-5","BIQ",NA,"SUPPRF82077"
"4",1709582630484,"04/03/2024 20:03:50",1709564630484,-5,"04/03/2024 10:03:50",169741,4,"task-gjqt",NA,35771485,10572920,NA,"complete",NA,"65e627240d9a8286e779f5d0","computer","Desktop or Laptop","Windows 10","Chrome 121.0.0.0","1920x1080","1920x953",NA,NA,0,"BIQ (Charlotte)",3,"BCADJEIFHG","Passed AC2","","Chocking_first","Spreadsheet1",1,"BIQ","Screen 1","9dh6eq",1,"response","5",18125.34,33702.04,33707.4399999523,18125.34,33702.04,33707.4399999523,1,18125.34,15582.0999999523,0,NA,"Rating Scale","Rating Scale",10,"object-18","BIQ",NA,"SUPPRF82077"
"5",1709582630484,"04/03/2024 20:03:50",1709564630484,-5,"04/03/2024 10:03:50",169741,4,"task-gjqt",NA,35771485,10572920,NA,"complete",NA,"65e627240d9a8286e779f5d0","computer","Desktop or Laptop","Windows 10","Chrome 121.0.0.0","1920x1080","1920x953",NA,NA,0,"BIQ (Charlotte)",3,"BCADJEIFHG","Passed AC2","","Chocking_first","Spreadsheet1",1,"BIQ","Screen 1","9dh6eq",1,"response","4",29396.34,33702.04,33707.7399999046,29396.34,33702.04,33707.7399999046,1,29396.34,4311.39999990464,0,NA,"Rating Scale","Rating Scale",17,"object-80","BIQ",NA,"SUPPRF82077"
"6",1709582652015,"04/03/2024 20:04:12",1709564652015,-5,"04/03/2024 10:04:12",169741,4,"task-gjqt",NA,35771485,10572920,NA,"complete",NA,"65e627240d9a8286e779f5d0","computer","Desktop or Laptop","Windows 10","Chrome 121.0.0.0","1920x1080","1920x953",NA,NA,0,"BIQ (Charlotte)",3,"BCADJEIFHG","Passed AC2","","Chocking_first","Spreadsheet1",1,"BIQ","Screen 2","o21mwi",2,"continue","",21536.1999999046,21535.2,21536.1999999046,21536.1999999046,21535.2,21536.1999999046,1,21536.1999999046,0,0,NA,"Click To Continue","Continue Button",22,"object-50","BIQ",NA,"SUPPRF82077"
"7",1709582652017,"04/03/2024 20:04:12",1709564652017,-5,"04/03/2024 10:04:12",169741,4,"task-gjqt",NA,35771485,10572920,NA,"complete",NA,"65e627240d9a8286e779f5d0","computer","Desktop or Laptop","Windows 10","Chrome 121.0.0.0","1920x1080","1920x953",NA,NA,0,"BIQ (Charlotte)",3,"BCADJEIFHG","Passed AC2","","Chocking_first","Spreadsheet1",1,"BIQ","Screen 2","o21mwi",2,"response","5",4291.8,21535.2,21539.1999999046,4291.8,21535.2,21539.1999999046,1,4291.8,17247.3999999046,0,NA,"Rating Scale","Rating Scale",2,"object-259","BIQ",NA,"SUPPRF82077"
"8",1709582652018,"04/03/2024 20:04:12",1709564652018,-5,"04/03/2024 10:04:12",169741,4,"task-gjqt",NA,35771485,10572920,NA,"complete",NA,"65e627240d9a8286e779f5d0","computer","Desktop or Laptop","Windows 10","Chrome 121.0.0.0","1920x1080","1920x953",NA,NA,0,"BIQ (Charlotte)",3,"BCADJEIFHG","Passed AC2","","Chocking_first","Spreadsheet1",1,"BIQ","Screen 2","o21mwi",2,"response","7",9798.8,21535.2,21539.6999999046,9798.8,21535.2,21539.6999999046,1,9798.8,11740.8999999046,0,NA,"Rating Scale","Rating Scale",9,"object-36","BIQ",NA,"SUPPRF82077"
"9",1709582652018,"04/03/2024 20:04:12",1709564652018,-5,"04/03/2024 10:04:12",169741,4,"task-gjqt",NA,35771485,10572920,NA,"complete",NA,"65e627240d9a8286e779f5d0","computer","Desktop or Laptop","Windows 10","Chrome 121.0.0.0","1920x1080","1920x953",NA,NA,0,"BIQ (Charlotte)",3,"BCADJEIFHG","Passed AC2","","Chocking_first","Spreadsheet1",1,"BIQ","Screen 2","o21mwi",2,"response","4",21215.6,21535.2,21540.1999999046,21215.6,21535.2,21540.1999999046,1,21215.6,324.599999904633,0,NA,"Rating Scale","Rating Scale",16,"object-86","BIQ",NA,"SUPPRF82077"
"10",1709582750236,"04/03/2024 20:05:50",1709564750236,-5,"04/03/2024 10:05:50",169741,4,"task-gjqt",NA,35771485,10572920,NA,"complete",NA,"65e627240d9a8286e779f5d0","computer","Desktop or Laptop","Windows 10","Chrome 121.0.0.0","1920x1080","1920x953",NA,NA,0,"BIQ (Charlotte)",3,"BCADJEIFHG","Passed AC2","","Chocking_first","Spreadsheet1",1,"BIQ","Screen 3","iz3the",3,"continue","",98222.9999999046,98217.3,98222.9999999046,98222.9999999046,98217.3,98222.9999999046,1,98222.9999999046,0,0,NA,"Click To Continue","Continue Button",22,"object-73","BIQ",NA,"SUPPRF82077"
"11",1709582750239,"04/03/2024 20:05:50",1709564750239,-5,"04/03/2024 10:05:50",169741,4,"task-gjqt",NA,35771485,10572920,NA,"complete",NA,"65e627240d9a8286e779f5d0","computer","Desktop or Laptop","Windows 10","Chrome 121.0.0.0","1920x1080","1920x953",NA,NA,0,"BIQ (Charlotte)",3,"BCADJEIFHG","Passed AC2","","Chocking_first","Spreadsheet1",1,"BIQ","Screen 3","iz3the",3,"response","2",90390.8,98217.3,98224.3,90390.8,98217.3,98224.3,1,90390.8,7833.5,0,NA,"Rating Scale","Rating Scale",2,"object-53","BIQ",NA,"SUPPRF82077"
"12",1709582750240,"04/03/2024 20:05:50",1709564750240,-5,"04/03/2024 10:05:50",169741,4,"task-gjqt",NA,35771485,10572920,NA,"complete",NA,"65e627240d9a8286e779f5d0","computer","Desktop or Laptop","Windows 10","Chrome 121.0.0.0","1920x1080","1920x953",NA,NA,0,"BIQ (Charlotte)",3,"BCADJEIFHG","Passed AC2","","Chocking_first","Spreadsheet1",1,"BIQ","Screen 3","iz3the",3,"response","3",94224.3,98217.3,98224.3,94224.3,98217.3,98224.3,1,94224.3,4000,0,NA,"Rating Scale","Rating Scale",9,"object-60","BIQ",NA,"SUPPRF82077"
"13",1709582750240,"04/03/2024 20:05:50",1709564750240,-5,"04/03/2024 10:05:50",169741,4,"task-gjqt",NA,35771485,10572920,NA,"complete",NA,"65e627240d9a8286e779f5d0","computer","Desktop or Laptop","Windows 10","Chrome 121.0.0.0","1920x1080","1920x953",NA,NA,0,"BIQ (Charlotte)",3,"BCADJEIFHG","Passed AC2","","Chocking_first","Spreadsheet1",1,"BIQ","Screen 3","iz3the",3,"response","6",97085.3,98217.3,98224.3,97085.3,98217.3,98224.3,1,97085.3,1139,0,NA,"Rating Scale","Rating Scale",16,"object-67","BIQ",NA,"SUPPRF82077"
"14",1709582750245,"04/03/2024 20:05:50",1709564750245,-5,"04/03/2024 10:05:50",169741,4,"task-gjqt",NA,35771485,10572920,NA,"complete",NA,"65e627240d9a8286e779f5d0","computer","Desktop or Laptop","Windows 10","Chrome 121.0.0.0","1920x1080","1920x953",NA,NA,0,"BIQ (Charlotte)",3,"BCADJEIFHG","Passed AC2","","Chocking_first","Spreadsheet1",NA,"","","",NA,"5","END",NA,NA,NA,NA,NA,NA,0,NA,NA,NA,NA,"","",NA,"","",NA,"SUPPRF82077"
"1",1709582487663,"04/03/2024 20:01:27",1709582487663,0,"04/03/2024 20:01:27",169741,4,"task-gjqt",NA,35771408,10572941,NA,"complete",NA,"65e62789fe158501e40a907f","computer","Desktop or Laptop","Windows 10","Chrome 122.0.0.0","1920x1080","1920x919",NA,NA,0,"BIQ (Charlotte)",3,"CDBEAFJGIH","Failed AC2","Passed AC1","Chocking_second","Spreadsheet1",NA,"","","",NA,"5","BEGIN",NA,NA,NA,NA,NA,NA,0,NA,NA,NA,NA,"","",NA,"","",NA,"SUPPRF89522"
"2",1709582501491,"04/03/2024 20:01:41",1709582501491,0,"04/03/2024 20:01:41",169741,4,"task-gjqt",NA,35771408,10572941,NA,"complete",NA,"65e62789fe158501e40a907f","computer","Desktop or Laptop","Windows 10","Chrome 122.0.0.0","1920x1080","1920x919",NA,NA,0,"BIQ (Charlotte)",3,"CDBEAFJGIH","Failed AC2","Passed AC1","Chocking_second","Spreadsheet1",1,"BIQ","Screen 1","9dh6eq",1,"continue","",13832.399999994,13826.4,13832.399999994,13832.399999994,13826.4,13832.399999994,1,13832.399999994,0,0,NA,"Click To Continue","Continue Button",23,"object-48","BIQ",NA,"SUPPRF89522"
"3",1709582501492,"04/03/2024 20:01:41",1709582501492,0,"04/03/2024 20:01:41",169741,4,"task-gjqt",NA,35771408,10572941,NA,"complete",NA,"65e62789fe158501e40a907f","computer","Desktop or Laptop","Windows 10","Chrome 122.0.0.0","1920x1080","1920x919",NA,NA,0,"BIQ (Charlotte)",3,"CDBEAFJGIH","Failed AC2","Passed AC1","Chocking_second","Spreadsheet1",1,"BIQ","Screen 1","9dh6eq",1,"response","0",4826.4,13826.4,13833.4,4826.4,13826.4,13833.4,1,4826.4,9007,0,NA,"Rating Scale","Rating Scale",3,"object-5","BIQ",NA,"SUPPRF89522"
"4",1709582501492,"04/03/2024 20:01:41",1709582501492,0,"04/03/2024 20:01:41",169741,4,"task-gjqt",NA,35771408,10572941,NA,"complete",NA,"65e62789fe158501e40a907f","computer","Desktop or Laptop","Windows 10","Chrome 122.0.0.0","1920x1080","1920x919",NA,NA,0,"BIQ (Charlotte)",3,"CDBEAFJGIH","Failed AC2","Passed AC1","Chocking_second","Spreadsheet1",1,"BIQ","Screen 1","9dh6eq",1,"response","0",8409.7,13826.4,13833.4,8409.7,13826.4,13833.4,1,8409.7,5423.7,0,NA,"Rating Scale","Rating Scale",10,"object-18","BIQ",NA,"SUPPRF89522"
"5",1709582501492,"04/03/2024 20:01:41",1709582501492,0,"04/03/2024 20:01:41",169741,4,"task-gjqt",NA,35771408,10572941,NA,"complete",NA,"65e62789fe158501e40a907f","computer","Desktop or Laptop","Windows 10","Chrome 122.0.0.0","1920x1080","1920x919",NA,NA,0,"BIQ (Charlotte)",3,"CDBEAFJGIH","Failed AC2","Passed AC1","Chocking_second","Spreadsheet1",1,"BIQ","Screen 1","9dh6eq",1,"response","8",11354.2,13826.4,13833.4,11354.2,13826.4,13833.4,1,11354.2,2479.2,0,NA,"Rating Scale","Rating Scale",17,"object-80","BIQ",NA,"SUPPRF89522"
"6",1709582515338,"04/03/2024 20:01:55",1709582515338,0,"04/03/2024 20:01:55",169741,4,"task-gjqt",NA,35771408,10572941,NA,"complete",NA,"65e62789fe158501e40a907f","computer","Desktop or Laptop","Windows 10","Chrome 122.0.0.0","1920x1080","1920x919",NA,NA,0,"BIQ (Charlotte)",3,"CDBEAFJGIH","Failed AC2","Passed AC1","Chocking_second","Spreadsheet1",1,"BIQ","Screen 2","o21mwi",2,"continue","",13854.100000003,13847.3,13854.100000003,13854.100000003,13847.3,13854.100000003,1,13854.100000003,0,0,NA,"Click To Continue","Continue Button",22,"object-50","BIQ",NA,"SUPPRF89522"
"7",1709582515339,"04/03/2024 20:01:55",1709582515339,0,"04/03/2024 20:01:55",169741,4,"task-gjqt",NA,35771408,10572941,NA,"complete",NA,"65e62789fe158501e40a907f","computer","Desktop or Laptop","Windows 10","Chrome 122.0.0.0","1920x1080","1920x919",NA,NA,0,"BIQ (Charlotte)",3,"CDBEAFJGIH","Failed AC2","Passed AC1","Chocking_second","Spreadsheet1",1,"BIQ","Screen 2","o21mwi",2,"response","4",5277.8,13847.3,13854.3,5277.8,13847.3,13854.3,1,5277.8,8576.5,0,NA,"Rating Scale","Rating Scale",2,"object-259","BIQ",NA,"SUPPRF89522"
"8",1709582515340,"04/03/2024 20:01:55",1709582515340,0,"04/03/2024 20:01:55",169741,4,"task-gjqt",NA,35771408,10572941,NA,"complete",NA,"65e62789fe158501e40a907f","computer","Desktop or Laptop","Windows 10","Chrome 122.0.0.0","1920x1080","1920x919",NA,NA,0,"BIQ (Charlotte)",3,"CDBEAFJGIH","Failed AC2","Passed AC1","Chocking_second","Spreadsheet1",1,"BIQ","Screen 2","o21mwi",2,"response","8",8895.8,13847.3,13854.3,8895.8,13847.3,13854.3,1,8895.8,4958.5,0,NA,"Rating Scale","Rating Scale",9,"object-36","BIQ",NA,"SUPPRF89522"
"9",1709582515340,"04/03/2024 20:01:55",1709582515340,0,"04/03/2024 20:01:55",169741,4,"task-gjqt",NA,35771408,10572941,NA,"complete",NA,"65e62789fe158501e40a907f","computer","Desktop or Laptop","Windows 10","Chrome 122.0.0.0","1920x1080","1920x919",NA,NA,0,"BIQ (Charlotte)",3,"CDBEAFJGIH","Failed AC2","Passed AC1","Chocking_second","Spreadsheet1",1,"BIQ","Screen 2","o21mwi",2,"response","8",12513.9,13847.3,13854.3,12513.9,13847.3,13854.3,1,12513.9,1340.4,0,NA,"Rating Scale","Rating Scale",16,"object-86","BIQ",NA,"SUPPRF89522"
"10",1709582526304,"04/03/2024 20:02:06",1709582526304,0,"04/03/2024 20:02:06",169741,4,"task-gjqt",NA,35771408,10572941,NA,"complete",NA,"65e62789fe158501e40a907f","computer","Desktop or Laptop","Windows 10","Chrome 122.0.0.0","1920x1080","1920x919",NA,NA,0,"BIQ (Charlotte)",3,"CDBEAFJGIH","Failed AC2","Passed AC1","Chocking_second","Spreadsheet1",1,"BIQ","Screen 3","iz3the",3,"continue","",10972.6,10972.2,10972.6,10972.6,10972.2,10972.6,1,10972.6,0,0,NA,"Click To Continue","Continue Button",22,"object-73","BIQ",NA,"SUPPRF89522"
"11",1709582526306,"04/03/2024 20:02:06",1709582526306,0,"04/03/2024 20:02:06",169741,4,"task-gjqt",NA,35771408,10572941,NA,"complete",NA,"65e62789fe158501e40a907f","computer","Desktop or Laptop","Windows 10","Chrome 122.0.0.0","1920x1080","1920x919",NA,NA,0,"BIQ (Charlotte)",3,"CDBEAFJGIH","Failed AC2","Passed AC1","Chocking_second","Spreadsheet1",1,"BIQ","Screen 3","iz3the",3,"response","0",6354.2,10972.2,10973.899999997,6354.2,10972.2,10973.899999997,1,6354.2,4619.69999999702,0,NA,"Rating Scale","Rating Scale",2,"object-53","BIQ",NA,"SUPPRF89522"
"12",1709582526306,"04/03/2024 20:02:06",1709582526306,0,"04/03/2024 20:02:06",169741,4,"task-gjqt",NA,35771408,10572941,NA,"complete",NA,"65e62789fe158501e40a907f","computer","Desktop or Laptop","Windows 10","Chrome 122.0.0.0","1920x1080","1920x919",NA,NA,0,"BIQ (Charlotte)",3,"CDBEAFJGIH","Failed AC2","Passed AC1","Chocking_second","Spreadsheet1",1,"BIQ","Screen 3","iz3the",3,"response","6",8576.4,10972.2,10973.9999999911,8576.4,10972.2,10973.9999999911,1,8576.4,2397.59999999106,0,NA,"Rating Scale","Rating Scale",9,"object-60","BIQ",NA,"SUPPRF89522"
"13",1709582526306,"04/03/2024 20:02:06",1709582526306,0,"04/03/2024 20:02:06",169741,4,"task-gjqt",NA,35771408,10572941,NA,"complete",NA,"65e62789fe158501e40a907f","computer","Desktop or Laptop","Windows 10","Chrome 122.0.0.0","1920x1080","1920x919",NA,NA,0,"BIQ (Charlotte)",3,"CDBEAFJGIH","Failed AC2","Passed AC1","Chocking_second","Spreadsheet1",1,"BIQ","Screen 3","iz3the",3,"response","8",10409.8,10972.2,10974.199999994,10409.8,10972.2,10974.199999994,1,10409.8,564.399999994042,0,NA,"Rating Scale","Rating Scale",16,"object-67","BIQ",NA,"SUPPRF89522"
"14",1709582526308,"04/03/2024 20:02:06",1709582526308,0,"04/03/2024 20:02:06",169741,4,"task-gjqt",NA,35771408,10572941,NA,"complete",NA,"65e62789fe158501e40a907f","computer","Desktop or Laptop","Windows 10","Chrome 122.0.0.0","1920x1080","1920x919",NA,NA,0,"BIQ (Charlotte)",3,"CDBEAFJGIH","Failed AC2","Passed AC1","Chocking_second","Spreadsheet1",NA,"","","",NA,"5","END",NA,NA,NA,NA,NA,NA,0,NA,NA,NA,NA,"","",NA,"","",NA,"SUPPRF89522"
"1",1709583043945,"04/03/2024 20:10:43",1709583043945,0,"04/03/2024 20:10:43",169741,4,"task-gjqt",NA,35771842,10573012,NA,"complete",NA,"65e61cbd9c011620fb06f645","computer","Desktop or Laptop","Windows 10","Chrome 121.0.0.0","1366x768","1366x651",NA,NA,0,"BIQ (Charlotte)",3,"DECFBGAHJI","Passed AC2","","Chocking_second","Spreadsheet1",NA,"","","",NA,"5","BEGIN",NA,NA,NA,NA,NA,NA,0,NA,NA,NA,NA,"","",NA,"","",NA,"SUPPRF92065"
"2",1709583082739,"04/03/2024 20:11:22",1709583082739,0,"04/03/2024 20:11:22",169741,4,"task-gjqt",NA,35771842,10573012,NA,"complete",NA,"65e61cbd9c011620fb06f645","computer","Desktop or Laptop","Windows 10","Chrome 121.0.0.0","1366x768","1366x651",NA,NA,0,"BIQ (Charlotte)",3,"DECFBGAHJI","Passed AC2","","Chocking_second","Spreadsheet1",1,"BIQ","Screen 1","9dh6eq",1,"continue","",38806.542,38794.742,38806.542,38806.542,38794.742,38806.542,1,38806.542,0,0,NA,"Click To Continue","Continue Button",23,"object-48","BIQ",NA,"SUPPRF92065"
"3",1709583082743,"04/03/2024 20:11:22",1709583082743,0,"04/03/2024 20:11:22",169741,4,"task-gjqt",NA,35771842,10573012,NA,"complete",NA,"65e61cbd9c011620fb06f645","computer","Desktop or Laptop","Windows 10","Chrome 121.0.0.0","1366x768","1366x651",NA,NA,0,"BIQ (Charlotte)",3,"DECFBGAHJI","Passed AC2","","Chocking_second","Spreadsheet1",1,"BIQ","Screen 1","9dh6eq",1,"response","7",25981.142,38794.742,38811.442,25981.142,38794.742,38811.442,1,25981.142,12830.3,0,NA,"Rating Scale","Rating Scale",3,"object-5","BIQ",NA,"SUPPRF92065"
"4",1709583082744,"04/03/2024 20:11:22",1709583082744,0,"04/03/2024 20:11:22",169741,4,"task-gjqt",NA,35771842,10573012,NA,"complete",NA,"65e61cbd9c011620fb06f645","computer","Desktop or Laptop","Windows 10","Chrome 121.0.0.0","1366x768","1366x651",NA,NA,0,"BIQ (Charlotte)",3,"DECFBGAHJI","Passed AC2","","Chocking_second","Spreadsheet1",1,"BIQ","Screen 1","9dh6eq",1,"response","3",30565.442,38794.742,38811.442,30565.442,38794.742,38811.442,1,30565.442,8245.99999999999,0,NA,"Rating Scale","Rating Scale",10,"object-18","BIQ",NA,"SUPPRF92065"
"5",1709583082745,"04/03/2024 20:11:22",1709583082745,0,"04/03/2024 20:11:22",169741,4,"task-gjqt",NA,35771842,10573012,NA,"complete",NA,"65e61cbd9c011620fb06f645","computer","Desktop or Laptop","Windows 10","Chrome 121.0.0.0","1366x768","1366x651",NA,NA,0,"BIQ (Charlotte)",3,"DECFBGAHJI","Passed AC2","","Chocking_second","Spreadsheet1",1,"BIQ","Screen 1","9dh6eq",1,"response","2",34849.142,38794.742,38811.442,34849.142,38794.742,38811.442,1,34849.142,3962.3,0,NA,"Rating Scale","Rating Scale",17,"object-80","BIQ",NA,"SUPPRF92065"
"6",1709583104619,"04/03/2024 20:11:44",1709583104619,0,"04/03/2024 20:11:44",169741,4,"task-gjqt",NA,35771842,10573012,NA,"complete",NA,"65e61cbd9c011620fb06f645","computer","Desktop or Laptop","Windows 10","Chrome 121.0.0.0","1366x768","1366x651",NA,NA,0,"BIQ (Charlotte)",3,"DECFBGAHJI","Passed AC2","","Chocking_second","Spreadsheet1",1,"BIQ","Screen 2","o21mwi",2,"continue","",21893.5,21883.4,21893.5,21893.5,21883.4,21893.5,1,21893.5,0,0,NA,"Click To Continue","Continue Button",22,"object-50","BIQ",NA,"SUPPRF92065"
"7",1709583104623,"04/03/2024 20:11:44",1709583104623,0,"04/03/2024 20:11:44",169741,4,"task-gjqt",NA,35771842,10573012,NA,"complete",NA,"65e61cbd9c011620fb06f645","computer","Desktop or Laptop","Windows 10","Chrome 121.0.0.0","1366x768","1366x651",NA,NA,0,"BIQ (Charlotte)",3,"DECFBGAHJI","Passed AC2","","Chocking_second","Spreadsheet1",1,"BIQ","Screen 2","o21mwi",2,"response","7",7746.3,21883.4,21897.3,7746.3,21883.4,21897.3,1,7746.3,14151,0,NA,"Rating Scale","Rating Scale",2,"object-259","BIQ",NA,"SUPPRF92065"
"8",1709583104624,"04/03/2024 20:11:44",1709583104624,0,"04/03/2024 20:11:44",169741,4,"task-gjqt",NA,35771842,10573012,NA,"complete",NA,"65e61cbd9c011620fb06f645","computer","Desktop or Laptop","Windows 10","Chrome 121.0.0.0","1366x768","1366x651",NA,NA,0,"BIQ (Charlotte)",3,"DECFBGAHJI","Passed AC2","","Chocking_second","Spreadsheet1",1,"BIQ","Screen 2","o21mwi",2,"response","0",10407,21883.4,21898.2,10407,21883.4,21898.2,1,10407,11491.2,0,NA,"Rating Scale","Rating Scale",9,"object-36","BIQ",NA,"SUPPRF92065"
"9",1709583104625,"04/03/2024 20:11:44",1709583104625,0,"04/03/2024 20:11:44",169741,4,"task-gjqt",NA,35771842,10573012,NA,"complete",NA,"65e61cbd9c011620fb06f645","computer","Desktop or Laptop","Windows 10","Chrome 121.0.0.0","1366x768","1366x651",NA,NA,0,"BIQ (Charlotte)",3,"DECFBGAHJI","Passed AC2","","Chocking_second","Spreadsheet1",1,"BIQ","Screen 2","o21mwi",2,"response","8",18905.6,21883.4,21898.9,18905.6,21883.4,21898.9,1,18905.6,2993.29999999997,0,NA,"Rating Scale","Rating Scale",16,"object-86","BIQ",NA,"SUPPRF92065"
"10",1709583120970,"04/03/2024 20:12:00",1709583120970,0,"04/03/2024 20:12:00",169741,4,"task-gjqt",NA,35771842,10573012,NA,"complete",NA,"65e61cbd9c011620fb06f645","computer","Desktop or Laptop","Windows 10","Chrome 121.0.0.0","1366x768","1366x651",NA,NA,0,"BIQ (Charlotte)",3,"DECFBGAHJI","Passed AC2","","Chocking_second","Spreadsheet1",1,"BIQ","Screen 3","iz3the",3,"continue","",16360.1,16344,16360.1,16360.1,16344,16360.1,1,16360.1,0,0,NA,"Click To Continue","Continue Button",22,"object-73","BIQ",NA,"SUPPRF92065"
"11",1709583120974,"04/03/2024 20:12:00",1709583120974,0,"04/03/2024 20:12:00",169741,4,"task-gjqt",NA,35771842,10573012,NA,"complete",NA,"65e61cbd9c011620fb06f645","computer","Desktop or Laptop","Windows 10","Chrome 121.0.0.0","1366x768","1366x651",NA,NA,0,"BIQ (Charlotte)",3,"DECFBGAHJI","Passed AC2","","Chocking_second","Spreadsheet1",1,"BIQ","Screen 3","iz3the",3,"response","0",6808.50000000001,16344,16360.7,6808.50000000001,16344,16360.7,1,6808.50000000001,9552.20000000001,0,NA,"Rating Scale","Rating Scale",2,"object-53","BIQ",NA,"SUPPRF92065"
"12",1709583120975,"04/03/2024 20:12:00",1709583120975,0,"04/03/2024 20:12:00",169741,4,"task-gjqt",NA,35771842,10573012,NA,"complete",NA,"65e61cbd9c011620fb06f645","computer","Desktop or Laptop","Windows 10","Chrome 121.0.0.0","1366x768","1366x651",NA,NA,0,"BIQ (Charlotte)",3,"DECFBGAHJI","Passed AC2","","Chocking_second","Spreadsheet1",1,"BIQ","Screen 3","iz3the",3,"response","5",10721.7,16344,16360.7,10721.7,16344,16360.7,1,10721.7,5639.00000000001,0,NA,"Rating Scale","Rating Scale",9,"object-60","BIQ",NA,"SUPPRF92065"
"13",1709583120976,"04/03/2024 20:12:00",1709583120976,0,"04/03/2024 20:12:00",169741,4,"task-gjqt",NA,35771842,10573012,NA,"complete",NA,"65e61cbd9c011620fb06f645","computer","Desktop or Laptop","Windows 10","Chrome 121.0.0.0","1366x768","1366x651",NA,NA,0,"BIQ (Charlotte)",3,"DECFBGAHJI","Passed AC2","","Chocking_second","Spreadsheet1",1,"BIQ","Screen 3","iz3the",3,"response","2",13600.1,16344,16360.7,13600.1,16344,16360.7,1,13600.1,2760.60000000002,0,NA,"Rating Scale","Rating Scale",16,"object-67","BIQ",NA,"SUPPRF92065"
"14",1709583120986,"04/03/2024 20:12:00",1709583120986,0,"04/03/2024 20:12:00",169741,4,"task-gjqt",NA,35771842,10573012,NA,"complete",NA,"65e61cbd9c011620fb06f645","computer","Desktop or Laptop","Windows 10","Chrome 121.0.0.0","1366x768","1366x651",NA,NA,0,"BIQ (Charlotte)",3,"DECFBGAHJI","Passed AC2","","Chocking_second","Spreadsheet1",NA,"","","",NA,"5","END",NA,NA,NA,NA,NA,NA,0,NA,NA,NA,NA,"","",NA,"","",NA,"SUPPRF92065"
"1",1709585970324,"04/03/2024 20:59:30",1709567970324,-5,"04/03/2024 10:59:30",169741,4,"task-gjqt",NA,35773838,10573500,NA,"complete",NA,"65e6357b41f59d31ba13b2b5","computer","Desktop or Laptop","Mac OS 10.15.7","Chrome 122.0.0.0","1440x900","1440x815",NA,NA,0,"BIQ (Charlotte)",3,"EFDGCHBIAJ","Passed AC2","","Chocking_second","Spreadsheet1",NA,"","","",NA,"5","BEGIN",NA,NA,NA,NA,NA,NA,0,NA,NA,NA,NA,"","",NA,"","",NA,"SUPPRF57112"
"2",1709586003844,"04/03/2024 21:00:03",1709568003844,-5,"04/03/2024 11:00:03",169741,4,"task-gjqt",NA,35773838,10573500,NA,"complete",NA,"65e6357b41f59d31ba13b2b5","computer","Desktop or Laptop","Mac OS 10.15.7","Chrome 122.0.0.0","1440x900","1440x815",NA,NA,0,"BIQ (Charlotte)",3,"EFDGCHBIAJ","Passed AC2","","Chocking_second","Spreadsheet1",1,"BIQ","Screen 1","9dh6eq",1,"continue","",33533.4040000477,33518.404,33533.4040000477,33533.4040000477,33518.404,33533.4040000477,1,33533.4040000477,0,0,NA,"Click To Continue","Continue Button",23,"object-48","BIQ",NA,"SUPPRF57112"
"3",1709586003846,"04/03/2024 21:00:03",1709568003846,-5,"04/03/2024 11:00:03",169741,4,"task-gjqt",NA,35773838,10573500,NA,"complete",NA,"65e6357b41f59d31ba13b2b5","computer","Desktop or Laptop","Mac OS 10.15.7","Chrome 122.0.0.0","1440x900","1440x815",NA,NA,0,"BIQ (Charlotte)",3,"EFDGCHBIAJ","Passed AC2","","Chocking_second","Spreadsheet1",1,"BIQ","Screen 1","9dh6eq",1,"response","6",12300.604,33518.404,33535.104,12300.604,33518.404,33535.104,1,12300.604,21234.5,0,NA,"Rating Scale","Rating Scale",3,"object-5","BIQ",NA,"SUPPRF57112"
"4",1709586003846,"04/03/2024 21:00:03",1709568003846,-5,"04/03/2024 11:00:03",169741,4,"task-gjqt",NA,35773838,10573500,NA,"complete",NA,"65e6357b41f59d31ba13b2b5","computer","Desktop or Laptop","Mac OS 10.15.7","Chrome 122.0.0.0","1440x900","1440x815",NA,NA,0,"BIQ (Charlotte)",3,"EFDGCHBIAJ","Passed AC2","","Chocking_second","Spreadsheet1",1,"BIQ","Screen 1","9dh6eq",1,"response","3",22767.004,33518.404,33535.104,22767.004,33518.404,33535.104,1,22767.004,10768.1,0,NA,"Rating Scale","Rating Scale",10,"object-18","BIQ",NA,"SUPPRF57112"
"5",1709586003846,"04/03/2024 21:00:03",1709568003846,-5,"04/03/2024 11:00:03",169741,4,"task-gjqt",NA,35773838,10573500,NA,"complete",NA,"65e6357b41f59d31ba13b2b5","computer","Desktop or Laptop","Mac OS 10.15.7","Chrome 122.0.0.0","1440x900","1440x815",NA,NA,0,"BIQ (Charlotte)",3,"EFDGCHBIAJ","Passed AC2","","Chocking_second","Spreadsheet1",1,"BIQ","Screen 1","9dh6eq",1,"response","4",26218.004,33518.404,33535.104,26218.004,33518.404,33535.104,1,26218.004,7317.09999999999,0,NA,"Rating Scale","Rating Scale",17,"object-80","BIQ",NA,"SUPPRF57112"
"6",1709586030816,"04/03/2024 21:00:30",1709568030816,-5,"04/03/2024 11:00:30",169741,4,"task-gjqt",NA,35773838,10573500,NA,"complete",NA,"65e6357b41f59d31ba13b2b5","computer","Desktop or Laptop","Mac OS 10.15.7","Chrome 122.0.0.0","1440x900","1440x815",NA,NA,0,"BIQ (Charlotte)",3,"EFDGCHBIAJ","Passed AC2","","Chocking_second","Spreadsheet1",1,"BIQ","Screen 2","o21mwi",2,"continue","",26988.6000000119,26984.5,26988.6000000119,26988.6000000119,26984.5,26988.6000000119,1,26988.6000000119,0,0,NA,"Click To Continue","Continue Button",22,"object-50","BIQ",NA,"SUPPRF57112"
"7",1709586030819,"04/03/2024 21:00:30",1709568030819,-5,"04/03/2024 11:00:30",169741,4,"task-gjqt",NA,35773838,10573500,NA,"complete",NA,"65e6357b41f59d31ba13b2b5","computer","Desktop or Laptop","Mac OS 10.15.7","Chrome 122.0.0.0","1440x900","1440x815",NA,NA,0,"BIQ (Charlotte)",3,"EFDGCHBIAJ","Passed AC2","","Chocking_second","Spreadsheet1",1,"BIQ","Screen 2","o21mwi",2,"response","7",4933.5,26984.5,26992.4000000238,4933.5,26984.5,26992.4000000238,1,4933.5,22058.9000000238,0,NA,"Rating Scale","Rating Scale",2,"object-259","BIQ",NA,"SUPPRF57112"
"8",1709586030820,"04/03/2024 21:00:30",1709568030820,-5,"04/03/2024 11:00:30",169741,4,"task-gjqt",NA,35773838,10573500,NA,"complete",NA,"65e6357b41f59d31ba13b2b5","computer","Desktop or Laptop","Mac OS 10.15.7","Chrome 122.0.0.0","1440x900","1440x815",NA,NA,0,"BIQ (Charlotte)",3,"EFDGCHBIAJ","Passed AC2","","Chocking_second","Spreadsheet1",1,"BIQ","Screen 2","o21mwi",2,"response","2",10517.1,26984.5,26993.0000000477,10517.1,26984.5,26993.0000000477,1,10517.1,16475.9000000477,0,NA,"Rating Scale","Rating Scale",9,"object-36","BIQ",NA,"SUPPRF57112"
"9",1709586030820,"04/03/2024 21:00:30",1709568030820,-5,"04/03/2024 11:00:30",169741,4,"task-gjqt",NA,35773838,10573500,NA,"complete",NA,"65e6357b41f59d31ba13b2b5","computer","Desktop or Laptop","Mac OS 10.15.7","Chrome 122.0.0.0","1440x900","1440x815",NA,NA,0,"BIQ (Charlotte)",3,"EFDGCHBIAJ","Passed AC2","","Chocking_second","Spreadsheet1",1,"BIQ","Screen 2","o21mwi",2,"response","4",22867.8,26984.5,26993.4000000238,22867.8,26984.5,26993.4000000238,1,22867.8,4125.60000002384,0,NA,"Rating Scale","Rating Scale",16,"object-86","BIQ",NA,"SUPPRF57112"
"10",1709586049534,"04/03/2024 21:00:49",1709568049534,-5,"04/03/2024 11:00:49",169741,4,"task-gjqt",NA,35773838,10573500,NA,"complete",NA,"65e6357b41f59d31ba13b2b5","computer","Desktop or Laptop","Mac OS 10.15.7","Chrome 122.0.0.0","1440x900","1440x815",NA,NA,0,"BIQ (Charlotte)",3,"EFDGCHBIAJ","Passed AC2","","Chocking_second","Spreadsheet1",1,"BIQ","Screen 3","iz3the",3,"continue","",18723.7000000358,18717.7,18723.7000000358,18723.7000000358,18717.7,18723.7000000358,1,18723.7000000358,0,0,NA,"Click To Continue","Continue Button",22,"object-73","BIQ",NA,"SUPPRF57112"
"11",1709586049538,"04/03/2024 21:00:49",1709568049538,-5,"04/03/2024 11:00:49",169741,4,"task-gjqt",NA,35773838,10573500,NA,"complete",NA,"65e6357b41f59d31ba13b2b5","computer","Desktop or Laptop","Mac OS 10.15.7","Chrome 122.0.0.0","1440x900","1440x815",NA,NA,0,"BIQ (Charlotte)",3,"EFDGCHBIAJ","Passed AC2","","Chocking_second","Spreadsheet1",1,"BIQ","Screen 3","iz3the",3,"response","0",10233.9,18717.7,18727.2000000358,10233.9,18717.7,18727.2000000358,1,10233.9,8493.30000003576,0,NA,"Rating Scale","Rating Scale",2,"object-53","BIQ",NA,"SUPPRF57112"
"12",1709586049538,"04/03/2024 21:00:49",1709568049538,-5,"04/03/2024 11:00:49",169741,4,"task-gjqt",NA,35773838,10573500,NA,"complete",NA,"65e6357b41f59d31ba13b2b5","computer","Desktop or Laptop","Mac OS 10.15.7","Chrome 122.0.0.0","1440x900","1440x815",NA,NA,0,"BIQ (Charlotte)",3,"EFDGCHBIAJ","Passed AC2","","Chocking_second","Spreadsheet1",1,"BIQ","Screen 3","iz3the",3,"response","0",13450.8,18717.7,18727.8,13450.8,18717.7,18727.8,1,13450.8,5277,0,NA,"Rating Scale","Rating Scale",9,"object-60","BIQ",NA,"SUPPRF57112"
"13",1709586049538,"04/03/2024 21:00:49",1709568049538,-5,"04/03/2024 11:00:49",169741,4,"task-gjqt",NA,35773838,10573500,NA,"complete",NA,"65e6357b41f59d31ba13b2b5","computer","Desktop or Laptop","Mac OS 10.15.7","Chrome 122.0.0.0","1440x900","1440x815",NA,NA,0,"BIQ (Charlotte)",3,"EFDGCHBIAJ","Passed AC2","","Chocking_second","Spreadsheet1",1,"BIQ","Screen 3","iz3the",3,"response","0",17434.3,18717.7,18728.2000000358,17434.3,18717.7,18728.2000000358,1,17434.3,1293.90000003576,0,NA,"Rating Scale","Rating Scale",16,"object-67","BIQ",NA,"SUPPRF57112"
"14",1709586049544,"04/03/2024 21:00:49",1709568049544,-5,"04/03/2024 11:00:49",169741,4,"task-gjqt",NA,35773838,10573500,NA,"complete",NA,"65e6357b41f59d31ba13b2b5","computer","Desktop or Laptop","Mac OS 10.15.7","Chrome 122.0.0.0","1440x900","1440x815",NA,NA,0,"BIQ (Charlotte)",3,"EFDGCHBIAJ","Passed AC2","","Chocking_second","Spreadsheet1",NA,"","","",NA,"5","END",NA,NA,NA,NA,NA,NA,0,NA,NA,NA,NA,"","",NA,"","",NA,"SUPPRF57112"
"1",1709586259084,"04/03/2024 21:04:19",1709568259084,-5,"04/03/2024 11:04:19",169741,4,"task-gjqt",NA,35773987,10573539,NA,"complete",NA,"65e636b392761b1846fc1cc2","computer","Desktop or Laptop","Windows 10","Chrome 122.0.0.0","1920x1080","1920x911",NA,NA,0,"BIQ (Charlotte)",3,"FGEHDICJBA","Passed AC2","","Chocking_first","Spreadsheet1",NA,"","","",NA,"5","BEGIN",NA,NA,NA,NA,NA,NA,0,NA,NA,NA,NA,"","",NA,"","",NA,"SUPPRF60453"
"2",1709586290881,"04/03/2024 21:04:50",1709568290881,-5,"04/03/2024 11:04:50",169741,4,"task-gjqt",NA,35773987,10573539,NA,"complete",NA,"65e636b392761b1846fc1cc2","computer","Desktop or Laptop","Windows 10","Chrome 122.0.0.0","1920x1080","1920x911",NA,NA,0,"BIQ (Charlotte)",3,"FGEHDICJBA","Passed AC2","","Chocking_first","Spreadsheet1",1,"BIQ","Screen 1","9dh6eq",1,"continue","",31806.9,31791.5,31806.9,31806.9,31791.5,31806.9,1,31806.9,0,0,NA,"Click To Continue","Continue Button",23,"object-48","BIQ",NA,"SUPPRF60453"
"3",1709586290883,"04/03/2024 21:04:50",1709568290883,-5,"04/03/2024 11:04:50",169741,4,"task-gjqt",NA,35773987,10573539,NA,"complete",NA,"65e636b392761b1846fc1cc2","computer","Desktop or Laptop","Windows 10","Chrome 122.0.0.0","1920x1080","1920x911",NA,NA,0,"BIQ (Charlotte)",3,"FGEHDICJBA","Passed AC2","","Chocking_first","Spreadsheet1",1,"BIQ","Screen 1","9dh6eq",1,"response","0",16244.5,31791.5,31808.4,16244.5,31791.5,31808.4,1,16244.5,15563.9,0,NA,"Rating Scale","Rating Scale",3,"object-5","BIQ",NA,"SUPPRF60453"
"4",1709586290883,"04/03/2024 21:04:50",1709568290883,-5,"04/03/2024 11:04:50",169741,4,"task-gjqt",NA,35773987,10573539,NA,"complete",NA,"65e636b392761b1846fc1cc2","computer","Desktop or Laptop","Windows 10","Chrome 122.0.0.0","1920x1080","1920x911",NA,NA,0,"BIQ (Charlotte)",3,"FGEHDICJBA","Passed AC2","","Chocking_first","Spreadsheet1",1,"BIQ","Screen 1","9dh6eq",1,"response","7",20895.1,31791.5,31808.4,20895.1,31791.5,31808.4,1,20895.1,10913.3,0,NA,"Rating Scale","Rating Scale",10,"object-18","BIQ",NA,"SUPPRF60453"
"5",1709586290883,"04/03/2024 21:04:50",1709568290883,-5,"04/03/2024 11:04:50",169741,4,"task-gjqt",NA,35773987,10573539,NA,"complete",NA,"65e636b392761b1846fc1cc2","computer","Desktop or Laptop","Windows 10","Chrome 122.0.0.0","1920x1080","1920x911",NA,NA,0,"BIQ (Charlotte)",3,"FGEHDICJBA","Passed AC2","","Chocking_first","Spreadsheet1",1,"BIQ","Screen 1","9dh6eq",1,"response","2",30844.4,31791.5,31808.4,30844.4,31791.5,31808.4,1,30844.4,964,0,NA,"Rating Scale","Rating Scale",17,"object-80","BIQ",NA,"SUPPRF60453"
"6",1709586313373,"04/03/2024 21:05:13",1709568313373,-5,"04/03/2024 11:05:13",169741,4,"task-gjqt",NA,35773987,10573539,NA,"complete",NA,"65e636b392761b1846fc1cc2","computer","Desktop or Laptop","Windows 10","Chrome 122.0.0.0","1920x1080","1920x911",NA,NA,0,"BIQ (Charlotte)",3,"FGEHDICJBA","Passed AC2","","Chocking_first","Spreadsheet1",1,"BIQ","Screen 2","o21mwi",2,"continue","",22506.2,22489.6,22506.2,22506.2,22489.6,22506.2,1,22506.2,0,0,NA,"Click To Continue","Continue Button",22,"object-50","BIQ",NA,"SUPPRF60453"
"7",1709586313378,"04/03/2024 21:05:13",1709568313378,-5,"04/03/2024 11:05:13",169741,4,"task-gjqt",NA,35773987,10573539,NA,"complete",NA,"65e636b392761b1846fc1cc2","computer","Desktop or Laptop","Windows 10","Chrome 122.0.0.0","1920x1080","1920x911",NA,NA,0,"BIQ (Charlotte)",3,"FGEHDICJBA","Passed AC2","","Chocking_first","Spreadsheet1",1,"BIQ","Screen 2","o21mwi",2,"response","7",6743.5,22489.6,22506.2,6743.5,22489.6,22506.2,1,6743.5,15762.7,0,NA,"Rating Scale","Rating Scale",2,"object-259","BIQ",NA,"SUPPRF60453"
"8",1709586313379,"04/03/2024 21:05:13",1709568313379,-5,"04/03/2024 11:05:13",169741,4,"task-gjqt",NA,35773987,10573539,NA,"complete",NA,"65e636b392761b1846fc1cc2","computer","Desktop or Laptop","Windows 10","Chrome 122.0.0.0","1920x1080","1920x911",NA,NA,0,"BIQ (Charlotte)",3,"FGEHDICJBA","Passed AC2","","Chocking_first","Spreadsheet1",1,"BIQ","Screen 2","o21mwi",2,"response","2",14300.7,22489.6,22506.2,14300.7,22489.6,22506.2,1,14300.7,8205.49999999999,0,NA,"Rating Scale","Rating Scale",9,"object-36","BIQ",NA,"SUPPRF60453"
"9",1709586313380,"04/03/2024 21:05:13",1709568313380,-5,"04/03/2024 11:05:13",169741,4,"task-gjqt",NA,35773987,10573539,NA,"complete",NA,"65e636b392761b1846fc1cc2","computer","Desktop or Laptop","Windows 10","Chrome 122.0.0.0","1920x1080","1920x911",NA,NA,0,"BIQ (Charlotte)",3,"FGEHDICJBA","Passed AC2","","Chocking_first","Spreadsheet1",1,"BIQ","Screen 2","o21mwi",2,"response","0",21360.1,22489.6,22506.2,21360.1,22489.6,22506.2,1,21360.1,1146.1,0,NA,"Rating Scale","Rating Scale",16,"object-86","BIQ",NA,"SUPPRF60453"
"10",1709586325576,"04/03/2024 21:05:25",1709568325576,-5,"04/03/2024 11:05:25",169741,4,"task-gjqt",NA,35773987,10573539,NA,"complete",NA,"65e636b392761b1846fc1cc2","computer","Desktop or Laptop","Windows 10","Chrome 122.0.0.0","1920x1080","1920x911",NA,NA,0,"BIQ (Charlotte)",3,"FGEHDICJBA","Passed AC2","","Chocking_first","Spreadsheet1",1,"BIQ","Screen 3","iz3the",3,"continue","",12220.6999999985,12208.1,12220.6999999985,12220.6999999985,12208.1,12220.6999999985,1,12220.6999999985,0,0,NA,"Click To Continue","Continue Button",22,"object-73","BIQ",NA,"SUPPRF60453"
"11",1709586325579,"04/03/2024 21:05:25",1709568325579,-5,"04/03/2024 11:05:25",169741,4,"task-gjqt",NA,35773987,10573539,NA,"complete",NA,"65e636b392761b1846fc1cc2","computer","Desktop or Laptop","Windows 10","Chrome 122.0.0.0","1920x1080","1920x911",NA,NA,0,"BIQ (Charlotte)",3,"FGEHDICJBA","Passed AC2","","Chocking_first","Spreadsheet1",1,"BIQ","Screen 3","iz3the",3,"response","0",5315.10000000001,12208.1,12223.3,5315.10000000001,12208.1,12223.3,1,5315.10000000001,6908.2,0,NA,"Rating Scale","Rating Scale",2,"object-53","BIQ",NA,"SUPPRF60453"
"12",1709586325579,"04/03/2024 21:05:25",1709568325579,-5,"04/03/2024 11:05:25",169741,4,"task-gjqt",NA,35773987,10573539,NA,"complete",NA,"65e636b392761b1846fc1cc2","computer","Desktop or Laptop","Windows 10","Chrome 122.0.0.0","1920x1080","1920x911",NA,NA,0,"BIQ (Charlotte)",3,"FGEHDICJBA","Passed AC2","","Chocking_first","Spreadsheet1",1,"BIQ","Screen 3","iz3the",3,"response","0",7873.10000000001,12208.1,12223.599999997,7873.10000000001,12208.1,12223.599999997,1,7873.10000000001,4350.49999999702,0,NA,"Rating Scale","Rating Scale",9,"object-60","BIQ",NA,"SUPPRF60453"
"13",1709586325579,"04/03/2024 21:05:25",1709568325579,-5,"04/03/2024 11:05:25",169741,4,"task-gjqt",NA,35773987,10573539,NA,"complete",NA,"65e636b392761b1846fc1cc2","computer","Desktop or Laptop","Windows 10","Chrome 122.0.0.0","1920x1080","1920x911",NA,NA,0,"BIQ (Charlotte)",3,"FGEHDICJBA","Passed AC2","","Chocking_first","Spreadsheet1",1,"BIQ","Screen 3","iz3the",3,"response","0",11145.2,12208.1,12224.000000003,11145.2,12208.1,12224.000000003,1,11145.2,1078.80000000299,0,NA,"Rating Scale","Rating Scale",16,"object-67","BIQ",NA,"SUPPRF60453"
"14",1709586325584,"04/03/2024 21:05:25",1709568325584,-5,"04/03/2024 11:05:25",169741,4,"task-gjqt",NA,35773987,10573539,NA,"complete",NA,"65e636b392761b1846fc1cc2","computer","Desktop or Laptop","Windows 10","Chrome 122.0.0.0","1920x1080","1920x911",NA,NA,0,"BIQ (Charlotte)",3,"FGEHDICJBA","Passed AC2","","Chocking_first","Spreadsheet1",NA,"","","",NA,"5","END",NA,NA,NA,NA,NA,NA,0,NA,NA,NA,NA,"","",NA,"","",NA,"SUPPRF60453"
"1",1709586509698,"04/03/2024 21:08:29",1709568509698,-5,"04/03/2024 11:08:29",169741,4,"task-gjqt",NA,35774150,10573564,NA,"complete",NA,"65e6378085f512aeefe14550","computer","Desktop or Laptop","Mac OS 10.15.7","Chrome 116.0.0.0","1440x900","1440x754",NA,NA,0,"BIQ (Charlotte)",3,"GHFIEJDACB","Passed AC2","","Chocking_second","Spreadsheet1",NA,"","","",NA,"5","BEGIN",NA,NA,NA,NA,NA,NA,0,NA,NA,NA,NA,"","",NA,"","",NA,"SUPPRF85387"
"2",1709586537839,"04/03/2024 21:08:57",1709568537839,-5,"04/03/2024 11:08:57",169741,4,"task-gjqt",NA,35774150,10573564,NA,"complete",NA,"65e6378085f512aeefe14550","computer","Desktop or Laptop","Mac OS 10.15.7","Chrome 116.0.0.0","1440x900","1440x754",NA,NA,0,"BIQ (Charlotte)",3,"GHFIEJDACB","Passed AC2","","Chocking_second","Spreadsheet1",1,"BIQ","Screen 1","9dh6eq",1,"continue","",28157.4669999993,28150.683,28157.4669999993,28157.4669999993,28150.683,28157.4669999993,1,28157.4669999993,0,0,NA,"Click To Continue","Continue Button",23,"object-48","BIQ",NA,"SUPPRF85387"
"3",1709586537841,"04/03/2024 21:08:57",1709568537841,-5,"04/03/2024 11:08:57",169741,4,"task-gjqt",NA,35774150,10573564,NA,"complete",NA,"65e6378085f512aeefe14550","computer","Desktop or Laptop","Mac OS 10.15.7","Chrome 116.0.0.0","1440x900","1440x754",NA,NA,0,"BIQ (Charlotte)",3,"GHFIEJDACB","Passed AC2","","Chocking_second","Spreadsheet1",1,"BIQ","Screen 1","9dh6eq",1,"response","6",10230.702,28150.683,28160.0669999989,10230.702,28150.683,28160.0669999989,1,10230.702,17929.3649999989,0,NA,"Rating Scale","Rating Scale",3,"object-5","BIQ",NA,"SUPPRF85387"
"4",1709586537842,"04/03/2024 21:08:57",1709568537842,-5,"04/03/2024 11:08:57",169741,4,"task-gjqt",NA,35774150,10573564,NA,"complete",NA,"65e6378085f512aeefe14550","computer","Desktop or Laptop","Mac OS 10.15.7","Chrome 116.0.0.0","1440x900","1440x754",NA,NA,0,"BIQ (Charlotte)",3,"GHFIEJDACB","Passed AC2","","Chocking_second","Spreadsheet1",1,"BIQ","Screen 1","9dh6eq",1,"response","6",20584.319,28150.683,28160.9669999993,20584.319,28150.683,28160.9669999993,1,20584.319,7576.64799999926,0,NA,"Rating Scale","Rating Scale",10,"object-18","BIQ",NA,"SUPPRF85387"
"5",1709586537842,"04/03/2024 21:08:57",1709568537842,-5,"04/03/2024 11:08:57",169741,4,"task-gjqt",NA,35774150,10573564,NA,"complete",NA,"65e6378085f512aeefe14550","computer","Desktop or Laptop","Mac OS 10.15.7","Chrome 116.0.0.0","1440x900","1440x754",NA,NA,0,"BIQ (Charlotte)",3,"GHFIEJDACB","Passed AC2","","Chocking_second","Spreadsheet1",1,"BIQ","Screen 1","9dh6eq",1,"response","2",26550.747,28150.683,28161.5669999989,26550.747,28150.683,28161.5669999989,1,26550.747,1610.81999999888,0,NA,"Rating Scale","Rating Scale",17,"object-80","BIQ",NA,"SUPPRF85387"
