"Event.Index","UTC.Timestamp","UTC.Date.and.Time","Local.Timestamp","Local.Timezone","Local.Date.and.Time","Experiment.ID","Experiment.Version","Tree.Node.Key","Repeat.Key","Schedule.ID","Participant.Private.ID","Participant.Starting.Group","Participant.Status","Participant.Completion.Code","Participant.External.Session.ID","Participant.Device.Type","Participant.Device","Participant.OS","Participant.Browser","Participant.Monitor.Size","Participant.Viewport.Size","Checkpoint","Room.ID","Room.Order","Task.Name","Task.Version","order.ot79","branch.g31k","branch.5gtn","Spreadsheet","Trial.Number","Display","Screen","Screen.ID","Screen.Counter","Response.Type","Response","Onset.Time","Clock.Time","Reaction.Time","Absolute.Onset.Time","Absolute.Clock.Time","Absolute.Reaction.Time","Correct","Response.Onset","Response.Duration","Proportion","Tag","Component.Name","Object.Name","Object.Number","Object.ID","Spreadsheet..display","Manipulation..Spreadsheet","Random_ID"
"1",1697629875668,"18/10/2023 11:51:15",1697633475668,1,"18/10/2023 13:51:15",147683,3,"task-gjqt",NA,32328158,9559360,NA,"complete",NA,"652fc474c8ed36f51a72a679","computer","Desktop or Laptop","Windows 10","Chrome 118.0.0.0","1707x1067","852x900",NA,NA,0,"BIQ (Charlotte)",3,"ABJCIDHEGF","Passed AC2",NA,"Spreadsheet1",NA,"","","",NA,"5","BEGIN",NA,NA,NA,NA,NA,NA,0,NA,NA,NA,NA,"","",NA,"","",NA,"SUPPRF59606"
"2",1697629911910,"18/10/2023 11:51:51",1697633511910,1,"18/10/2023 13:51:51",147683,3,"task-gjqt",NA,32328158,9559360,NA,"complete",NA,"652fc474c8ed36f51a72a679","computer","Desktop or Laptop","Windows 10","Chrome 118.0.0.0","1707x1067","852x900",NA,NA,0,"BIQ (Charlotte)",3,"ABJCIDHEGF","Passed AC2",NA,"Spreadsheet1",1,"BIQ","Screen 1","9dh6eq",1,"continue","",36257.781,36240.946,36257.781,36257.781,36240.946,36257.781,1,36257.781,0,0,NA,"Click To Continue","Continue Button",23,"object-48","BIQ",NA,"SUPPRF59606"
"3",1697629911912,"18/10/2023 11:51:51",1697633511912,1,"18/10/2023 13:51:51",147683,3,"task-gjqt",NA,32328158,9559360,NA,"complete",NA,"652fc474c8ed36f51a72a679","computer","Desktop or Laptop","Windows 10","Chrome 118.0.0.0","1707x1067","852x900",NA,NA,0,"BIQ (Charlotte)",3,"ABJCIDHEGF","Passed AC2",NA,"Spreadsheet1",1,"BIQ","Screen 1","9dh6eq",1,"response","6",10557.605,36240.946,36257.781,10557.605,36240.946,36257.781,1,10557.605,25700.176,0,NA,"Rating Scale","Rating Scale",3,"object-5","BIQ",NA,"SUPPRF59606"
"4",1697629911913,"18/10/2023 11:51:51",1697633511913,1,"18/10/2023 13:51:51",147683,3,"task-gjqt",NA,32328158,9559360,NA,"complete",NA,"652fc474c8ed36f51a72a679","computer","Desktop or Laptop","Windows 10","Chrome 118.0.0.0","1707x1067","852x900",NA,NA,0,"BIQ (Charlotte)",3,"ABJCIDHEGF","Passed AC2",NA,"Spreadsheet1",1,"BIQ","Screen 1","9dh6eq",1,"response","7",26474.271,36240.946,36257.781,26474.271,36240.946,36257.781,1,26474.271,9783.51,0,NA,"Rating Scale","Rating Scale",10,"object-18","BIQ",NA,"SUPPRF59606"
"5",1697629911913,"18/10/2023 11:51:51",1697633511913,1,"18/10/2023 13:51:51",147683,3,"task-gjqt",NA,32328158,9559360,NA,"complete",NA,"652fc474c8ed36f51a72a679","computer","Desktop or Laptop","Windows 10","Chrome 118.0.0.0","1707x1067","852x900",NA,NA,0,"BIQ (Charlotte)",3,"ABJCIDHEGF","Passed AC2",NA,"Spreadsheet1",1,"BIQ","Screen 1","9dh6eq",1,"response","1",34607.539,36240.946,36257.781,34607.539,36240.946,36257.781,1,34607.539,1650.242,0,NA,"Rating Scale","Rating Scale",17,"object-80","BIQ",NA,"SUPPRF59606"
"6",1697629932071,"18/10/2023 11:52:12",1697633532071,1,"18/10/2023 13:52:12",147683,3,"task-gjqt",NA,32328158,9559360,NA,"complete",NA,"652fc474c8ed36f51a72a679","computer","Desktop or Laptop","Windows 10","Chrome 118.0.0.0","1707x1067","852x900",NA,NA,0,"BIQ (Charlotte)",3,"ABJCIDHEGF","Passed AC2",NA,"Spreadsheet1",1,"BIQ","Screen 2","o21mwi",2,"continue","",20182.1230000179,20167.108,20182.1230000179,20182.1230000179,20167.108,20182.1230000179,1,20182.1230000179,0,0,NA,"Click To Continue","Continue Button",22,"object-50","BIQ",NA,"SUPPRF59606"
"7",1697629932074,"18/10/2023 11:52:12",1697633532074,1,"18/10/2023 13:52:12",147683,3,"task-gjqt",NA,32328158,9559360,NA,"complete",NA,"652fc474c8ed36f51a72a679","computer","Desktop or Laptop","Windows 10","Chrome 118.0.0.0","1707x1067","852x900",NA,NA,0,"BIQ (Charlotte)",3,"ABJCIDHEGF","Passed AC2",NA,"Spreadsheet1",1,"BIQ","Screen 2","o21mwi",2,"response","7",4166.575,20167.108,20184.402,4166.575,20167.108,20184.402,1,4166.575,16017.827,0,NA,"Rating Scale","Rating Scale",2,"object-259","BIQ",NA,"SUPPRF59606"
"8",1697629932074,"18/10/2023 11:52:12",1697633532074,1,"18/10/2023 13:52:12",147683,3,"task-gjqt",NA,32328158,9559360,NA,"complete",NA,"652fc474c8ed36f51a72a679","computer","Desktop or Laptop","Windows 10","Chrome 118.0.0.0","1707x1067","852x900",NA,NA,0,"BIQ (Charlotte)",3,"ABJCIDHEGF","Passed AC2",NA,"Spreadsheet1",1,"BIQ","Screen 2","o21mwi",2,"response","2",6533.158,20167.108,20184.402,6533.158,20167.108,20184.402,1,6533.158,13651.244,0,NA,"Rating Scale","Rating Scale",9,"object-36","BIQ",NA,"SUPPRF59606"
"9",1697629932075,"18/10/2023 11:52:12",1697633532075,1,"18/10/2023 13:52:12",147683,3,"task-gjqt",NA,32328158,9559360,NA,"complete",NA,"652fc474c8ed36f51a72a679","computer","Desktop or Laptop","Windows 10","Chrome 118.0.0.0","1707x1067","852x900",NA,NA,0,"BIQ (Charlotte)",3,"ABJCIDHEGF","Passed AC2",NA,"Spreadsheet1",1,"BIQ","Screen 2","o21mwi",2,"response","1",9717.199,20167.108,20184.402,9717.199,20167.108,20184.402,1,9717.199,10467.203,0,NA,"Rating Scale","Rating Scale",16,"object-86","BIQ",NA,"SUPPRF59606"
"10",1697629940290,"18/10/2023 11:52:20",1697633540290,1,"18/10/2023 13:52:20",147683,3,"task-gjqt",NA,32328158,9559360,NA,"complete",NA,"652fc474c8ed36f51a72a679","computer","Desktop or Laptop","Windows 10","Chrome 118.0.0.0","1707x1067","852x900",NA,NA,0,"BIQ (Charlotte)",3,"ABJCIDHEGF","Passed AC2",NA,"Spreadsheet1",1,"BIQ","Screen 3","iz3the",3,"continue","",8234.303,8217.069,8234.303,8234.303,8217.069,8234.303,1,8234.303,0,0,NA,"Click To Continue","Continue Button",22,"object-73","BIQ",NA,"SUPPRF59606"
"11",1697629940291,"18/10/2023 11:52:20",1697633540291,1,"18/10/2023 13:52:20",147683,3,"task-gjqt",NA,32328158,9559360,NA,"complete",NA,"652fc474c8ed36f51a72a679","computer","Desktop or Laptop","Windows 10","Chrome 118.0.0.0","1707x1067","852x900",NA,NA,0,"BIQ (Charlotte)",3,"ABJCIDHEGF","Passed AC2",NA,"Spreadsheet1",1,"BIQ","Screen 3","iz3the",3,"response","1",3365.92200000001,8217.069,8234.303,3365.92200000001,8217.069,8234.303,1,3365.92200000001,4868.38099999999,0,NA,"Rating Scale","Rating Scale",2,"object-53","BIQ",NA,"SUPPRF59606"
"12",1697629940291,"18/10/2023 11:52:20",1697633540291,1,"18/10/2023 13:52:20",147683,3,"task-gjqt",NA,32328158,9559360,NA,"complete",NA,"652fc474c8ed36f51a72a679","computer","Desktop or Laptop","Windows 10","Chrome 118.0.0.0","1707x1067","852x900",NA,NA,0,"BIQ (Charlotte)",3,"ABJCIDHEGF","Passed AC2",NA,"Spreadsheet1",1,"BIQ","Screen 3","iz3the",3,"response","2",4382.567,8217.069,8234.303,4382.567,8217.069,8234.303,1,4382.567,3851.736,0,NA,"Rating Scale","Rating Scale",9,"object-60","BIQ",NA,"SUPPRF59606"
"13",1697629940292,"18/10/2023 11:52:20",1697633540292,1,"18/10/2023 13:52:20",147683,3,"task-gjqt",NA,32328158,9559360,NA,"complete",NA,"652fc474c8ed36f51a72a679","computer","Desktop or Laptop","Windows 10","Chrome 118.0.0.0","1707x1067","852x900",NA,NA,0,"BIQ (Charlotte)",3,"ABJCIDHEGF","Passed AC2",NA,"Spreadsheet1",1,"BIQ","Screen 3","iz3the",3,"response","1",5982.643,8217.069,8234.303,5982.643,8217.069,8234.303,1,5982.643,2251.66,0,NA,"Rating Scale","Rating Scale",16,"object-67","BIQ",NA,"SUPPRF59606"
"14",1697629940297,"18/10/2023 11:52:20",1697633540297,1,"18/10/2023 13:52:20",147683,3,"task-gjqt",NA,32328158,9559360,NA,"complete",NA,"652fc474c8ed36f51a72a679","computer","Desktop or Laptop","Windows 10","Chrome 118.0.0.0","1707x1067","852x900",NA,NA,0,"BIQ (Charlotte)",3,"ABJCIDHEGF","Passed AC2",NA,"Spreadsheet1",NA,"","","",NA,"5","END",NA,NA,NA,NA,NA,NA,0,NA,NA,NA,NA,"","",NA,"","",NA,"SUPPRF59606"
"1",1697644037216,"18/10/2023 15:47:17",1697647637216,1,"18/10/2023 17:47:17",147683,3,"task-gjqt",NA,32336482,9561687,NA,"complete",NA,"652ffadb010422e0d379e4ca","computer","Desktop or Laptop","Windows 10","Chrome 117.0.0.0","1920x1080","1920x931",NA,NA,0,"BIQ (Charlotte)",3,"BCADJEIFHG","Passed AC2",NA,"Spreadsheet1",NA,"","","",NA,"5","BEGIN",NA,NA,NA,NA,NA,NA,0,NA,NA,NA,NA,"","",NA,"","",NA,"SUPPRF37681"
"2",1697644084847,"18/10/2023 15:48:04",1697647684847,1,"18/10/2023 17:48:04",147683,3,"task-gjqt",NA,32336482,9561687,NA,"complete",NA,"652ffadb010422e0d379e4ca","computer","Desktop or Laptop","Windows 10","Chrome 117.0.0.0","1920x1080","1920x931",NA,NA,0,"BIQ (Charlotte)",3,"BCADJEIFHG","Passed AC2",NA,"Spreadsheet1",1,"BIQ","Screen 1","9dh6eq",1,"continue","",47647.1840000477,47631.61,47647.1840000477,47647.1840000477,47631.61,47647.1840000477,1,47647.1840000477,0,0,NA,"Click To Continue","Continue Button",23,"object-48","BIQ",NA,"SUPPRF37681"
"3",1697644084850,"18/10/2023 15:48:04",1697647684850,1,"18/10/2023 17:48:04",147683,3,"task-gjqt",NA,32336482,9561687,NA,"complete",NA,"652ffadb010422e0d379e4ca","computer","Desktop or Laptop","Windows 10","Chrome 117.0.0.0","1920x1080","1920x931",NA,NA,0,"BIQ (Charlotte)",3,"BCADJEIFHG","Passed AC2",NA,"Spreadsheet1",1,"BIQ","Screen 1","9dh6eq",1,"response","6",39615.239,47631.61,47648.333,39615.239,47631.61,47648.333,1,39615.239,8033.094,0,NA,"Rating Scale","Rating Scale",3,"object-5","BIQ",NA,"SUPPRF37681"
"4",1697644084851,"18/10/2023 15:48:04",1697647684851,1,"18/10/2023 17:48:04",147683,3,"task-gjqt",NA,32336482,9561687,NA,"complete",NA,"652ffadb010422e0d379e4ca","computer","Desktop or Laptop","Windows 10","Chrome 117.0.0.0","1920x1080","1920x931",NA,NA,0,"BIQ (Charlotte)",3,"BCADJEIFHG","Passed AC2",NA,"Spreadsheet1",1,"BIQ","Screen 1","9dh6eq",1,"response","3",43998.371,47631.61,47648.333,43998.371,47631.61,47648.333,1,43998.371,3649.96199999999,0,NA,"Rating Scale","Rating Scale",10,"object-18","BIQ",NA,"SUPPRF37681"
"5",1697644084852,"18/10/2023 15:48:04",1697647684852,1,"18/10/2023 17:48:04",147683,3,"task-gjqt",NA,32336482,9561687,NA,"complete",NA,"652ffadb010422e0d379e4ca","computer","Desktop or Laptop","Windows 10","Chrome 117.0.0.0","1920x1080","1920x931",NA,NA,0,"BIQ (Charlotte)",3,"BCADJEIFHG","Passed AC2",NA,"Spreadsheet1",1,"BIQ","Screen 1","9dh6eq",1,"response","4",46598.278,47631.61,47648.333,46598.278,47631.61,47648.333,1,46598.278,1050.05499999999,0,NA,"Rating Scale","Rating Scale",17,"object-80","BIQ",NA,"SUPPRF37681"
"6",1697644097159,"18/10/2023 15:48:17",1697647697159,1,"18/10/2023 17:48:17",147683,3,"task-gjqt",NA,32336482,9561687,NA,"complete",NA,"652ffadb010422e0d379e4ca","computer","Desktop or Laptop","Windows 10","Chrome 117.0.0.0","1920x1080","1920x931",NA,NA,0,"BIQ (Charlotte)",3,"BCADJEIFHG","Passed AC2",NA,"Spreadsheet1",1,"BIQ","Screen 2","o21mwi",2,"continue","",12329.6739999523,12316.209,12329.6739999523,12329.6739999523,12316.209,12329.6739999523,1,12329.6739999523,0,0,NA,"Click To Continue","Continue Button",22,"object-50","BIQ",NA,"SUPPRF37681"
"7",1697644097163,"18/10/2023 15:48:17",1697647697163,1,"18/10/2023 17:48:17",147683,3,"task-gjqt",NA,32336482,9561687,NA,"complete",NA,"652ffadb010422e0d379e4ca","computer","Desktop or Laptop","Windows 10","Chrome 117.0.0.0","1920x1080","1920x931",NA,NA,0,"BIQ (Charlotte)",3,"BCADJEIFHG","Passed AC2",NA,"Spreadsheet1",1,"BIQ","Screen 2","o21mwi",2,"response","3",5899.76,12316.209,12332.874,5899.76,12316.209,12332.874,1,5899.76,6433.114,0,NA,"Rating Scale","Rating Scale",2,"object-259","BIQ",NA,"SUPPRF37681"
"8",1697644097164,"18/10/2023 15:48:17",1697647697164,1,"18/10/2023 17:48:17",147683,3,"task-gjqt",NA,32336482,9561687,NA,"complete",NA,"652ffadb010422e0d379e4ca","computer","Desktop or Laptop","Windows 10","Chrome 117.0.0.0","1920x1080","1920x931",NA,NA,0,"BIQ (Charlotte)",3,"BCADJEIFHG","Passed AC2",NA,"Spreadsheet1",1,"BIQ","Screen 2","o21mwi",2,"response","4",8349.673,12316.209,12332.878,8349.673,12316.209,12332.878,1,8349.673,3983.205,0,NA,"Rating Scale","Rating Scale",9,"object-36","BIQ",NA,"SUPPRF37681"
"9",1697644097164,"18/10/2023 15:48:17",1697647697164,1,"18/10/2023 17:48:17",147683,3,"task-gjqt",NA,32336482,9561687,NA,"complete",NA,"652ffadb010422e0d379e4ca","computer","Desktop or Laptop","Windows 10","Chrome 117.0.0.0","1920x1080","1920x931",NA,NA,0,"BIQ (Charlotte)",3,"BCADJEIFHG","Passed AC2",NA,"Spreadsheet1",1,"BIQ","Screen 2","o21mwi",2,"response","4",11516.22,12316.209,12332.878,11516.22,12316.209,12332.878,1,11516.22,816.658000000003,0,NA,"Rating Scale","Rating Scale",16,"object-86","BIQ",NA,"SUPPRF37681"
"10",1697644104847,"18/10/2023 15:48:24",1697647704847,1,"18/10/2023 17:48:24",147683,3,"task-gjqt",NA,32336482,9561687,NA,"complete",NA,"652ffadb010422e0d379e4ca","computer","Desktop or Laptop","Windows 10","Chrome 117.0.0.0","1920x1080","1920x931",NA,NA,0,"BIQ (Charlotte)",3,"BCADJEIFHG","Passed AC2",NA,"Spreadsheet1",1,"BIQ","Screen 3","iz3the",3,"continue","",7701.36500004768,7699.65900000001,7701.36500004768,7701.36500004768,7699.65900000001,7701.36500004768,1,7701.36500004768,0,0,NA,"Click To Continue","Continue Button",22,"object-73","BIQ",NA,"SUPPRF37681"
"11",1697644104848,"18/10/2023 15:48:24",1697647704848,1,"18/10/2023 17:48:24",147683,3,"task-gjqt",NA,32336482,9561687,NA,"complete",NA,"652ffadb010422e0d379e4ca","computer","Desktop or Laptop","Windows 10","Chrome 117.0.0.0","1920x1080","1920x931",NA,NA,0,"BIQ (Charlotte)",3,"BCADJEIFHG","Passed AC2",NA,"Spreadsheet1",1,"BIQ","Screen 3","iz3the",3,"response","2",3583.19,7699.65900000001,7702.26500002384,3583.19,7699.65900000001,7702.26500002384,1,3583.19,4119.07500002384,0,NA,"Rating Scale","Rating Scale",2,"object-53","BIQ",NA,"SUPPRF37681"
"12",1697644104849,"18/10/2023 15:48:24",1697647704849,1,"18/10/2023 17:48:24",147683,3,"task-gjqt",NA,32336482,9561687,NA,"complete",NA,"652ffadb010422e0d379e4ca","computer","Desktop or Laptop","Windows 10","Chrome 117.0.0.0","1920x1080","1920x931",NA,NA,0,"BIQ (Charlotte)",3,"BCADJEIFHG","Passed AC2",NA,"Spreadsheet1",1,"BIQ","Screen 3","iz3the",3,"response","3",5099.77,7699.65900000001,7702.86500004768,5099.77,7699.65900000001,7702.86500004768,1,5099.77,2603.09500004769,0,NA,"Rating Scale","Rating Scale",9,"object-60","BIQ",NA,"SUPPRF37681"
"13",1697644104850,"18/10/2023 15:48:24",1697647704850,1,"18/10/2023 17:48:24",147683,3,"task-gjqt",NA,32336482,9561687,NA,"complete",NA,"652ffadb010422e0d379e4ca","computer","Desktop or Laptop","Windows 10","Chrome 117.0.0.0","1920x1080","1920x931",NA,NA,0,"BIQ (Charlotte)",3,"BCADJEIFHG","Passed AC2",NA,"Spreadsheet1",1,"BIQ","Screen 3","iz3the",3,"response","4",7066.377,7699.65900000001,7703.76500002384,7066.377,7699.65900000001,7703.76500002384,1,7066.377,637.388000023842,0,NA,"Rating Scale","Rating Scale",16,"object-67","BIQ",NA,"SUPPRF37681"
"14",1697644104857,"18/10/2023 15:48:24",1697647704857,1,"18/10/2023 17:48:24",147683,3,"task-gjqt",NA,32336482,9561687,NA,"complete",NA,"652ffadb010422e0d379e4ca","computer","Desktop or Laptop","Windows 10","Chrome 117.0.0.0","1920x1080","1920x931",NA,NA,0,"BIQ (Charlotte)",3,"BCADJEIFHG","Passed AC2",NA,"Spreadsheet1",NA,"","","",NA,"5","END",NA,NA,NA,NA,NA,NA,0,NA,NA,NA,NA,"","",NA,"","",NA,"SUPPRF37681"
"1",1697666504550,"18/10/2023 22:01:44",1697670104550,1,"19/10/2023 00:01:44",147683,3,"task-gjqt",NA,32347616,9565152,NA,"complete",NA,"653053b8f7c0c5dea6665f6f","computer","Desktop or Laptop","Windows 10","Chrome 118.0.0.0","1536x864","1536x707",NA,NA,0,"BIQ (Charlotte)",3,"CDBEAFJGIH","Passed AC2",NA,"Spreadsheet1",NA,"","","",NA,"5","BEGIN",NA,NA,NA,NA,NA,NA,0,NA,NA,NA,NA,"","",NA,"","",NA,"SUPPRF11139"
"2",1697666572392,"18/10/2023 22:02:52",1697670172392,1,"19/10/2023 00:02:52",147683,3,"task-gjqt",NA,32347616,9565152,NA,"complete",NA,"653053b8f7c0c5dea6665f6f","computer","Desktop or Laptop","Windows 10","Chrome 118.0.0.0","1536x864","1536x707",NA,NA,0,"BIQ (Charlotte)",3,"CDBEAFJGIH","Passed AC2",NA,"Spreadsheet1",1,"BIQ","Screen 1","9dh6eq",1,"continue","",67840.733,67833.784,67840.733,67840.733,67833.784,67840.733,1,67840.733,0,0,NA,"Click To Continue","Continue Button",23,"object-48","BIQ",NA,"SUPPRF11139"
"3",1697666572396,"18/10/2023 22:02:52",1697670172396,1,"19/10/2023 00:02:52",147683,3,"task-gjqt",NA,32347616,9565152,NA,"complete",NA,"653053b8f7c0c5dea6665f6f","computer","Desktop or Laptop","Windows 10","Chrome 118.0.0.0","1536x864","1536x707",NA,NA,0,"BIQ (Charlotte)",3,"CDBEAFJGIH","Passed AC2",NA,"Spreadsheet1",1,"BIQ","Screen 1","9dh6eq",1,"response","7",58860.772,67833.784,67840.733,58860.772,67833.784,67840.733,1,58860.772,8979.96100000001,0,NA,"Rating Scale","Rating Scale",3,"object-5","BIQ",NA,"SUPPRF11139"
"4",1697666572397,"18/10/2023 22:02:52",1697670172397,1,"19/10/2023 00:02:52",147683,3,"task-gjqt",NA,32347616,9565152,NA,"complete",NA,"653053b8f7c0c5dea6665f6f","computer","Desktop or Laptop","Windows 10","Chrome 118.0.0.0","1536x864","1536x707",NA,NA,0,"BIQ (Charlotte)",3,"CDBEAFJGIH","Passed AC2",NA,"Spreadsheet1",1,"BIQ","Screen 1","9dh6eq",1,"response","5",63569.913,67833.784,67840.733,63569.913,67833.784,67840.733,1,63569.913,4270.82000000001,0,NA,"Rating Scale","Rating Scale",10,"object-18","BIQ",NA,"SUPPRF11139"
"5",1697666572398,"18/10/2023 22:02:52",1697670172398,1,"19/10/2023 00:02:52",147683,3,"task-gjqt",NA,32347616,9565152,NA,"complete",NA,"653053b8f7c0c5dea6665f6f","computer","Desktop or Laptop","Windows 10","Chrome 118.0.0.0","1536x864","1536x707",NA,NA,0,"BIQ (Charlotte)",3,"CDBEAFJGIH","Passed AC2",NA,"Spreadsheet1",1,"BIQ","Screen 1","9dh6eq",1,"response","3",66582.801,67833.784,67840.733,66582.801,67833.784,67840.733,1,66582.801,1257.93200000002,0,NA,"Rating Scale","Rating Scale",17,"object-80","BIQ",NA,"SUPPRF11139"
"6",1697666584795,"18/10/2023 22:03:04",1697670184795,1,"19/10/2023 00:03:04",147683,3,"task-gjqt",NA,32347616,9565152,NA,"complete",NA,"653053b8f7c0c5dea6665f6f","computer","Desktop or Laptop","Windows 10","Chrome 118.0.0.0","1536x864","1536x707",NA,NA,0,"BIQ (Charlotte)",3,"CDBEAFJGIH","Passed AC2",NA,"Spreadsheet1",1,"BIQ","Screen 2","o21mwi",2,"continue","",12422.507999997,12416.052,12422.507999997,12422.507999997,12416.052,12422.507999997,1,12422.507999997,0,0,NA,"Click To Continue","Continue Button",22,"object-50","BIQ",NA,"SUPPRF11139"
"7",1697666584797,"18/10/2023 22:03:04",1697670184797,1,"19/10/2023 00:03:04",147683,3,"task-gjqt",NA,32347616,9565152,NA,"complete",NA,"653053b8f7c0c5dea6665f6f","computer","Desktop or Laptop","Windows 10","Chrome 118.0.0.0","1536x864","1536x707",NA,NA,0,"BIQ (Charlotte)",3,"CDBEAFJGIH","Passed AC2",NA,"Spreadsheet1",1,"BIQ","Screen 2","o21mwi",2,"response","6",4402.09299999999,12416.052,12422.997,4402.09299999999,12416.052,12422.997,1,4402.09299999999,8020.90399999999,0,NA,"Rating Scale","Rating Scale",2,"object-259","BIQ",NA,"SUPPRF11139"
"8",1697666584797,"18/10/2023 22:03:04",1697670184797,1,"19/10/2023 00:03:04",147683,3,"task-gjqt",NA,32347616,9565152,NA,"complete",NA,"653053b8f7c0c5dea6665f6f","computer","Desktop or Laptop","Windows 10","Chrome 118.0.0.0","1536x864","1536x707",NA,NA,0,"BIQ (Charlotte)",3,"CDBEAFJGIH","Passed AC2",NA,"Spreadsheet1",1,"BIQ","Screen 2","o21mwi",2,"response","5",6978.927,12416.052,12422.997,6978.927,12416.052,12422.997,1,6978.927,5444.06999999999,0,NA,"Rating Scale","Rating Scale",9,"object-36","BIQ",NA,"SUPPRF11139"
"9",1697666584798,"18/10/2023 22:03:04",1697670184798,1,"19/10/2023 00:03:04",147683,3,"task-gjqt",NA,32347616,9565152,NA,"complete",NA,"653053b8f7c0c5dea6665f6f","computer","Desktop or Laptop","Windows 10","Chrome 118.0.0.0","1536x864","1536x707",NA,NA,0,"BIQ (Charlotte)",3,"CDBEAFJGIH","Passed AC2",NA,"Spreadsheet1",1,"BIQ","Screen 2","o21mwi",2,"response","2",11742.435,12416.052,12422.997,11742.435,12416.052,12422.997,1,11742.435,680.561999999991,0,NA,"Rating Scale","Rating Scale",16,"object-86","BIQ",NA,"SUPPRF11139"
"10",1697666594493,"18/10/2023 22:03:14",1697670194493,1,"19/10/2023 00:03:14",147683,3,"task-gjqt",NA,32347616,9565152,NA,"complete",NA,"653053b8f7c0c5dea6665f6f","computer","Desktop or Laptop","Windows 10","Chrome 118.0.0.0","1536x864","1536x707",NA,NA,0,"BIQ (Charlotte)",3,"CDBEAFJGIH","Passed AC2",NA,"Spreadsheet1",1,"BIQ","Screen 3","iz3the",3,"continue","",9701.658,9694.709,9701.658,9701.658,9694.709,9701.658,1,9701.658,0,0,NA,"Click To Continue","Continue Button",22,"object-73","BIQ",NA,"SUPPRF11139"
"11",1697666594494,"18/10/2023 22:03:14",1697670194494,1,"19/10/2023 00:03:14",147683,3,"task-gjqt",NA,32347616,9565152,NA,"complete",NA,"653053b8f7c0c5dea6665f6f","computer","Desktop or Laptop","Windows 10","Chrome 118.0.0.0","1536x864","1536x707",NA,NA,0,"BIQ (Charlotte)",3,"CDBEAFJGIH","Passed AC2",NA,"Spreadsheet1",1,"BIQ","Screen 3","iz3the",3,"response","2",3709.10000000001,9694.709,9701.658,3709.10000000001,9694.709,9701.658,1,3709.10000000001,5992.55799999999,0,NA,"Rating Scale","Rating Scale",2,"object-53","BIQ",NA,"SUPPRF11139"
"12",1697666594495,"18/10/2023 22:03:14",1697670194495,1,"19/10/2023 00:03:14",147683,3,"task-gjqt",NA,32347616,9565152,NA,"complete",NA,"653053b8f7c0c5dea6665f6f","computer","Desktop or Laptop","Windows 10","Chrome 118.0.0.0","1536x864","1536x707",NA,NA,0,"BIQ (Charlotte)",3,"CDBEAFJGIH","Passed AC2",NA,"Spreadsheet1",1,"BIQ","Screen 3","iz3the",3,"response","4",6569.41100000001,9694.709,9701.658,6569.41100000001,9694.709,9701.658,1,6569.41100000001,3132.24699999999,0,NA,"Rating Scale","Rating Scale",9,"object-60","BIQ",NA,"SUPPRF11139"
"13",1697666594496,"18/10/2023 22:03:14",1697670194496,1,"19/10/2023 00:03:14",147683,3,"task-gjqt",NA,32347616,9565152,NA,"complete",NA,"653053b8f7c0c5dea6665f6f","computer","Desktop or Laptop","Windows 10","Chrome 118.0.0.0","1536x864","1536x707",NA,NA,0,"BIQ (Charlotte)",3,"CDBEAFJGIH","Passed AC2",NA,"Spreadsheet1",1,"BIQ","Screen 3","iz3the",3,"response","3",8575.939,9694.709,9701.658,8575.939,9694.709,9701.658,1,8575.939,1125.719,0,NA,"Rating Scale","Rating Scale",16,"object-67","BIQ",NA,"SUPPRF11139"
"14",1697666594506,"18/10/2023 22:03:14",1697670194506,1,"19/10/2023 00:03:14",147683,3,"task-gjqt",NA,32347616,9565152,NA,"complete",NA,"653053b8f7c0c5dea6665f6f","computer","Desktop or Laptop","Windows 10","Chrome 118.0.0.0","1536x864","1536x707",NA,NA,0,"BIQ (Charlotte)",3,"CDBEAFJGIH","Passed AC2",NA,"Spreadsheet1",NA,"","","",NA,"5","END",NA,NA,NA,NA,NA,NA,0,NA,NA,NA,NA,"","",NA,"","",NA,"SUPPRF11139"
"1",1697732004912,"19/10/2023 16:13:24",1697735604912,1,"19/10/2023 18:13:24",147683,3,"task-gjqt",NA,32366074,9571426,NA,"complete",NA,"653154994fa6fef45b59128a","computer","Desktop or Laptop","Mac OS 10.15.7","Chrome 117.0.0.0","1440x900","1440x708",NA,NA,0,"BIQ (Charlotte)",3,"EFDGCHBIAJ","Passed AC2",NA,"Spreadsheet1",NA,"","","",NA,"5","BEGIN",NA,NA,NA,NA,NA,NA,0,NA,NA,NA,NA,"","",NA,"","",NA,"SUPPRF01788"
"2",1697732035647,"19/10/2023 16:13:55",1697735635647,1,"19/10/2023 18:13:55",147683,3,"task-gjqt",NA,32366074,9571426,NA,"complete",NA,"653154994fa6fef45b59128a","computer","Desktop or Laptop","Mac OS 10.15.7","Chrome 117.0.0.0","1440x900","1440x708",NA,NA,0,"BIQ (Charlotte)",3,"EFDGCHBIAJ","Passed AC2",NA,"Spreadsheet1",1,"BIQ","Screen 1","9dh6eq",1,"continue","",30758.3729999993,30748.748,30758.3729999993,30758.3729999993,30748.748,30758.3729999993,1,30758.3729999993,0,0,NA,"Click To Continue","Continue Button",23,"object-48","BIQ",NA,"SUPPRF01788"
"3",1697732035650,"19/10/2023 16:13:55",1697735635650,1,"19/10/2023 18:13:55",147683,3,"task-gjqt",NA,32366074,9571426,NA,"complete",NA,"653154994fa6fef45b59128a","computer","Desktop or Laptop","Mac OS 10.15.7","Chrome 117.0.0.0","1440x900","1440x708",NA,NA,0,"BIQ (Charlotte)",3,"EFDGCHBIAJ","Passed AC2",NA,"Spreadsheet1",1,"BIQ","Screen 1","9dh6eq",1,"response","4",12867.642,30748.748,30762.173,12867.642,30748.748,30762.173,1,12867.642,17894.531,0,NA,"Rating Scale","Rating Scale",3,"object-5","BIQ",NA,"SUPPRF01788"
"4",1697732035650,"19/10/2023 16:13:55",1697735635650,1,"19/10/2023 18:13:55",147683,3,"task-gjqt",NA,32366074,9571426,NA,"complete",NA,"653154994fa6fef45b59128a","computer","Desktop or Laptop","Mac OS 10.15.7","Chrome 117.0.0.0","1440x900","1440x708",NA,NA,0,"BIQ (Charlotte)",3,"EFDGCHBIAJ","Passed AC2",NA,"Spreadsheet1",1,"BIQ","Screen 1","9dh6eq",1,"response","2",19886.416,30748.748,30762.673,19886.416,30748.748,30762.673,1,19886.416,10876.257,0,NA,"Rating Scale","Rating Scale",10,"object-18","BIQ",NA,"SUPPRF01788"
"5",1697732035651,"19/10/2023 16:13:55",1697735635651,1,"19/10/2023 18:13:55",147683,3,"task-gjqt",NA,32366074,9571426,NA,"complete",NA,"653154994fa6fef45b59128a","computer","Desktop or Laptop","Mac OS 10.15.7","Chrome 117.0.0.0","1440x900","1440x708",NA,NA,0,"BIQ (Charlotte)",3,"EFDGCHBIAJ","Passed AC2",NA,"Spreadsheet1",1,"BIQ","Screen 1","9dh6eq",1,"response","4",27924.589,30748.748,30763.173,27924.589,30748.748,30763.173,1,27924.589,2838.584,0,NA,"Rating Scale","Rating Scale",17,"object-80","BIQ",NA,"SUPPRF01788"
"6",1697732061165,"19/10/2023 16:14:21",1697735661165,1,"19/10/2023 18:14:21",147683,3,"task-gjqt",NA,32366074,9571426,NA,"complete",NA,"653154994fa6fef45b59128a","computer","Desktop or Laptop","Mac OS 10.15.7","Chrome 117.0.0.0","1440x900","1440x708",NA,NA,0,"BIQ (Charlotte)",3,"EFDGCHBIAJ","Passed AC2",NA,"Spreadsheet1",1,"BIQ","Screen 2","o21mwi",2,"continue","",25528.1249999993,25518.269,25528.1249999993,25528.1249999993,25518.269,25528.1249999993,1,25528.1249999993,0,0,NA,"Click To Continue","Continue Button",22,"object-50","BIQ",NA,"SUPPRF01788"
"7",1697732061170,"19/10/2023 16:14:21",1697735661170,1,"19/10/2023 18:14:21",147683,3,"task-gjqt",NA,32366074,9571426,NA,"complete",NA,"653154994fa6fef45b59128a","computer","Desktop or Laptop","Mac OS 10.15.7","Chrome 117.0.0.0","1440x900","1440x708",NA,NA,0,"BIQ (Charlotte)",3,"EFDGCHBIAJ","Passed AC2",NA,"Spreadsheet1",1,"BIQ","Screen 2","o21mwi",2,"response","6",3759.97500000001,25518.269,25532.8249999985,3759.97500000001,25518.269,25532.8249999985,1,3759.97500000001,21772.8499999985,0,NA,"Rating Scale","Rating Scale",2,"object-259","BIQ",NA,"SUPPRF01788"
"8",1697732061171,"19/10/2023 16:14:21",1697735661171,1,"19/10/2023 18:14:21",147683,3,"task-gjqt",NA,32366074,9571426,NA,"complete",NA,"653154994fa6fef45b59128a","computer","Desktop or Laptop","Mac OS 10.15.7","Chrome 117.0.0.0","1440x900","1440x708",NA,NA,0,"BIQ (Charlotte)",3,"EFDGCHBIAJ","Passed AC2",NA,"Spreadsheet1",1,"BIQ","Screen 2","o21mwi",2,"response","3",13987.316,25518.269,25533.6249999993,13987.316,25518.269,25533.6249999993,1,13987.316,11546.3089999993,0,NA,"Rating Scale","Rating Scale",9,"object-36","BIQ",NA,"SUPPRF01788"
"9",1697732061171,"19/10/2023 16:14:21",1697735661171,1,"19/10/2023 18:14:21",147683,3,"task-gjqt",NA,32366074,9571426,NA,"complete",NA,"653154994fa6fef45b59128a","computer","Desktop or Laptop","Mac OS 10.15.7","Chrome 117.0.0.0","1440x900","1440x708",NA,NA,0,"BIQ (Charlotte)",3,"EFDGCHBIAJ","Passed AC2",NA,"Spreadsheet1",1,"BIQ","Screen 2","o21mwi",2,"response","5",21925.233,25518.269,25534.2249999989,21925.233,25518.269,25534.2249999989,1,21925.233,3608.99199999889,0,NA,"Rating Scale","Rating Scale",16,"object-86","BIQ",NA,"SUPPRF01788"
"10",1697732106239,"19/10/2023 16:15:06",1697735706239,1,"19/10/2023 18:15:06",147683,3,"task-gjqt",NA,32366074,9571426,NA,"complete",NA,"653154994fa6fef45b59128a","computer","Desktop or Laptop","Mac OS 10.15.7","Chrome 117.0.0.0","1440x900","1440x708",NA,NA,0,"BIQ (Charlotte)",3,"EFDGCHBIAJ","Passed AC2",NA,"Spreadsheet1",1,"BIQ","Screen 3","iz3the",3,"continue","",45082.656,45070.29,45082.656,45082.656,45070.29,45082.656,1,45082.656,0,0,NA,"Click To Continue","Continue Button",22,"object-73","BIQ",NA,"SUPPRF01788"
"11",1697732106243,"19/10/2023 16:15:06",1697735706243,1,"19/10/2023 18:15:06",147683,3,"task-gjqt",NA,32366074,9571426,NA,"complete",NA,"653154994fa6fef45b59128a","computer","Desktop or Laptop","Mac OS 10.15.7","Chrome 117.0.0.0","1440x900","1440x708",NA,NA,0,"BIQ (Charlotte)",3,"EFDGCHBIAJ","Passed AC2",NA,"Spreadsheet1",1,"BIQ","Screen 3","iz3the",3,"response","2",34441.905,45070.29,45087.001,34441.905,45070.29,45087.001,1,34441.905,10645.096,0,NA,"Rating Scale","Rating Scale",2,"object-53","BIQ",NA,"SUPPRF01788"
"12",1697732106247,"19/10/2023 16:15:06",1697735706247,1,"19/10/2023 18:15:06",147683,3,"task-gjqt",NA,32366074,9571426,NA,"complete",NA,"653154994fa6fef45b59128a","computer","Desktop or Laptop","Mac OS 10.15.7","Chrome 117.0.0.0","1440x900","1440x708",NA,NA,0,"BIQ (Charlotte)",3,"EFDGCHBIAJ","Passed AC2",NA,"Spreadsheet1",1,"BIQ","Screen 3","iz3the",3,"response","3",39471.916,45070.29,45087.001,39471.916,45070.29,45087.001,1,39471.916,5615.08500000002,0,NA,"Rating Scale","Rating Scale",9,"object-60","BIQ",NA,"SUPPRF01788"
"13",1697732106247,"19/10/2023 16:15:06",1697735706247,1,"19/10/2023 18:15:06",147683,3,"task-gjqt",NA,32366074,9571426,NA,"complete",NA,"653154994fa6fef45b59128a","computer","Desktop or Laptop","Mac OS 10.15.7","Chrome 117.0.0.0","1440x900","1440x708",NA,NA,0,"BIQ (Charlotte)",3,"EFDGCHBIAJ","Passed AC2",NA,"Spreadsheet1",1,"BIQ","Screen 3","iz3the",3,"response","5",43683.277,45070.29,45087.001,43683.277,45070.29,45087.001,1,43683.277,1403.72400000002,0,NA,"Rating Scale","Rating Scale",16,"object-67","BIQ",NA,"SUPPRF01788"
"14",1697732106252,"19/10/2023 16:15:06",1697735706252,1,"19/10/2023 18:15:06",147683,3,"task-gjqt",NA,32366074,9571426,NA,"complete",NA,"653154994fa6fef45b59128a","computer","Desktop or Laptop","Mac OS 10.15.7","Chrome 117.0.0.0","1440x900","1440x708",NA,NA,0,"BIQ (Charlotte)",3,"EFDGCHBIAJ","Passed AC2",NA,"Spreadsheet1",NA,"","","",NA,"5","END",NA,NA,NA,NA,NA,NA,0,NA,NA,NA,NA,"","",NA,"","",NA,"SUPPRF01788"
"1",1697737362446,"19/10/2023 17:42:42",1697740962446,1,"19/10/2023 19:42:42",147683,3,"task-gjqt",NA,32367921,9572136,NA,"complete",NA,"653168b4778f39567345066d","computer","Desktop or Laptop","Windows 10","Firefox 118.0","2560x1080","2560x955",NA,NA,0,"BIQ (Charlotte)",3,"GHFIEJDACB","Passed AC2",NA,"Spreadsheet1",NA,"","","",NA,"5","BEGIN",NA,NA,NA,NA,NA,NA,0,NA,NA,NA,NA,"","",NA,"","",NA,"SUPPRF93027"
"2",1697737387246,"19/10/2023 17:43:07",1697740987246,1,"19/10/2023 19:43:07",147683,3,"task-gjqt",NA,32367921,9572136,NA,"complete",NA,"653168b4778f39567345066d","computer","Desktop or Laptop","Windows 10","Firefox 118.0","2560x1080","2560x955",NA,NA,0,"BIQ (Charlotte)",3,"GHFIEJDACB","Passed AC2",NA,"Spreadsheet1",1,"BIQ","Screen 1","9dh6eq",1,"continue","",24807.68,24791.66,24807.68,24807.68,24791.66,24807.68,1,24807.68,0,0,NA,"Click To Continue","Continue Button",23,"object-48","BIQ",NA,"SUPPRF93027"
"3",1697737387249,"19/10/2023 17:43:07",1697740987249,1,"19/10/2023 19:43:07",147683,3,"task-gjqt",NA,32367921,9572136,NA,"complete",NA,"653168b4778f39567345066d","computer","Desktop or Laptop","Windows 10","Firefox 118.0","2560x1080","2560x955",NA,NA,0,"BIQ (Charlotte)",3,"GHFIEJDACB","Passed AC2",NA,"Spreadsheet1",1,"BIQ","Screen 1","9dh6eq",1,"response","6",10374.84,24791.66,24808.32,10374.84,24791.66,24808.32,1,10374.84,14433.48,0,NA,"Rating Scale","Rating Scale",3,"object-5","BIQ",NA,"SUPPRF93027"
"4",1697737387249,"19/10/2023 17:43:07",1697740987249,1,"19/10/2023 19:43:07",147683,3,"task-gjqt",NA,32367921,9572136,NA,"complete",NA,"653168b4778f39567345066d","computer","Desktop or Laptop","Windows 10","Firefox 118.0","2560x1080","2560x955",NA,NA,0,"BIQ (Charlotte)",3,"GHFIEJDACB","Passed AC2",NA,"Spreadsheet1",1,"BIQ","Screen 1","9dh6eq",1,"response","7",14958.32,24791.66,24808.32,14958.32,24791.66,24808.32,1,14958.32,9850,0,NA,"Rating Scale","Rating Scale",10,"object-18","BIQ",NA,"SUPPRF93027"
"5",1697737387251,"19/10/2023 17:43:07",1697740987251,1,"19/10/2023 19:43:07",147683,3,"task-gjqt",NA,32367921,9572136,NA,"complete",NA,"653168b4778f39567345066d","computer","Desktop or Laptop","Windows 10","Firefox 118.0","2560x1080","2560x955",NA,NA,0,"BIQ (Charlotte)",3,"GHFIEJDACB","Passed AC2",NA,"Spreadsheet1",1,"BIQ","Screen 1","9dh6eq",1,"response","0",22158.32,24791.66,24808.32,22158.32,24791.66,24808.32,1,22158.32,2650,0,NA,"Rating Scale","Rating Scale",17,"object-80","BIQ",NA,"SUPPRF93027"
"6",1697737400007,"19/10/2023 17:43:20",1697741000007,1,"19/10/2023 19:43:20",147683,3,"task-gjqt",NA,32367921,9572136,NA,"complete",NA,"653168b4778f39567345066d","computer","Desktop or Laptop","Windows 10","Firefox 118.0","2560x1080","2560x955",NA,NA,0,"BIQ (Charlotte)",3,"GHFIEJDACB","Passed AC2",NA,"Spreadsheet1",1,"BIQ","Screen 2","o21mwi",2,"continue","",12779.02,12766.68,12779.02,12779.02,12766.68,12779.02,1,12779.02,0,0,NA,"Click To Continue","Continue Button",22,"object-50","BIQ",NA,"SUPPRF93027"
"7",1697737400009,"19/10/2023 17:43:20",1697741000009,1,"19/10/2023 19:43:20",147683,3,"task-gjqt",NA,32367921,9572136,NA,"complete",NA,"653168b4778f39567345066d","computer","Desktop or Laptop","Windows 10","Firefox 118.0","2560x1080","2560x955",NA,NA,0,"BIQ (Charlotte)",3,"GHFIEJDACB","Passed AC2",NA,"Spreadsheet1",1,"BIQ","Screen 2","o21mwi",2,"response","8",3233.34,12766.68,12781.02,3233.34,12766.68,12781.02,1,3233.34,9547.68,0,NA,"Rating Scale","Rating Scale",2,"object-259","BIQ",NA,"SUPPRF93027"
"8",1697737400009,"19/10/2023 17:43:20",1697741000009,1,"19/10/2023 19:43:20",147683,3,"task-gjqt",NA,32367921,9572136,NA,"complete",NA,"653168b4778f39567345066d","computer","Desktop or Laptop","Windows 10","Firefox 118.0","2560x1080","2560x955",NA,NA,0,"BIQ (Charlotte)",3,"GHFIEJDACB","Passed AC2",NA,"Spreadsheet1",1,"BIQ","Screen 2","o21mwi",2,"response","0",7016.66,12766.68,12781.02,7016.66,12766.68,12781.02,1,7016.66,5764.36,0,NA,"Rating Scale","Rating Scale",9,"object-36","BIQ",NA,"SUPPRF93027"
"9",1697737400010,"19/10/2023 17:43:20",1697741000010,1,"19/10/2023 19:43:20",147683,3,"task-gjqt",NA,32367921,9572136,NA,"complete",NA,"653168b4778f39567345066d","computer","Desktop or Laptop","Windows 10","Firefox 118.0","2560x1080","2560x955",NA,NA,0,"BIQ (Charlotte)",3,"GHFIEJDACB","Passed AC2",NA,"Spreadsheet1",1,"BIQ","Screen 2","o21mwi",2,"response","0",10416.66,12766.68,12781.02,10416.66,12766.68,12781.02,1,10416.66,2364.36,0,NA,"Rating Scale","Rating Scale",16,"object-86","BIQ",NA,"SUPPRF93027"
"10",1697737407078,"19/10/2023 17:43:27",1697741007078,1,"19/10/2023 19:43:27",147683,3,"task-gjqt",NA,32367921,9572136,NA,"complete",NA,"653168b4778f39567345066d","computer","Desktop or Laptop","Windows 10","Firefox 118.0","2560x1080","2560x955",NA,NA,0,"BIQ (Charlotte)",3,"GHFIEJDACB","Passed AC2",NA,"Spreadsheet1",1,"BIQ","Screen 3","iz3the",3,"continue","",7083.31999999999,7066.66,7083.31999999999,7083.31999999999,7066.66,7083.31999999999,1,7083.31999999999,0,0,NA,"Click To Continue","Continue Button",22,"object-73","BIQ",NA,"SUPPRF93027"
"11",1697737407078,"19/10/2023 17:43:27",1697741007078,1,"19/10/2023 19:43:27",147683,3,"task-gjqt",NA,32367921,9572136,NA,"complete",NA,"653168b4778f39567345066d","computer","Desktop or Laptop","Windows 10","Firefox 118.0","2560x1080","2560x955",NA,NA,0,"BIQ (Charlotte)",3,"GHFIEJDACB","Passed AC2",NA,"Spreadsheet1",1,"BIQ","Screen 3","iz3the",3,"response","0",3683.32,7066.66,7083.31999999999,3683.32,7066.66,7083.31999999999,1,3683.32,3399.99999999999,0,NA,"Rating Scale","Rating Scale",2,"object-53","BIQ",NA,"SUPPRF93027"
"12",1697737407078,"19/10/2023 17:43:27",1697741007078,1,"19/10/2023 19:43:27",147683,3,"task-gjqt",NA,32367921,9572136,NA,"complete",NA,"653168b4778f39567345066d","computer","Desktop or Laptop","Windows 10","Firefox 118.0","2560x1080","2560x955",NA,NA,0,"BIQ (Charlotte)",3,"GHFIEJDACB","Passed AC2",NA,"Spreadsheet1",1,"BIQ","Screen 3","iz3the",3,"response","0",4783.32,7066.66,7083.31999999999,4783.32,7066.66,7083.31999999999,1,4783.32,2299.99999999999,0,NA,"Rating Scale","Rating Scale",9,"object-60","BIQ",NA,"SUPPRF93027"
"13",1697737407079,"19/10/2023 17:43:27",1697741007079,1,"19/10/2023 19:43:27",147683,3,"task-gjqt",NA,32367921,9572136,NA,"complete",NA,"653168b4778f39567345066d","computer","Desktop or Laptop","Windows 10","Firefox 118.0","2560x1080","2560x955",NA,NA,0,"BIQ (Charlotte)",3,"GHFIEJDACB","Passed AC2",NA,"Spreadsheet1",1,"BIQ","Screen 3","iz3the",3,"response","0",6483.32,7066.66,7083.31999999999,6483.32,7066.66,7083.31999999999,1,6483.32,599.999999999993,0,NA,"Rating Scale","Rating Scale",16,"object-67","BIQ",NA,"SUPPRF93027"
"14",1697737407080,"19/10/2023 17:43:27",1697741007080,1,"19/10/2023 19:43:27",147683,3,"task-gjqt",NA,32367921,9572136,NA,"complete",NA,"653168b4778f39567345066d","computer","Desktop or Laptop","Windows 10","Firefox 118.0","2560x1080","2560x955",NA,NA,0,"BIQ (Charlotte)",3,"GHFIEJDACB","Passed AC2",NA,"Spreadsheet1",NA,"","","",NA,"5","END",NA,NA,NA,NA,NA,NA,0,NA,NA,NA,NA,"","",NA,"","",NA,"SUPPRF93027"
"1",1697804664648,"20/10/2023 12:24:24",1697808264648,1,"20/10/2023 14:24:24",147683,3,"task-gjqt",NA,32380522,9577007,NA,"rejected - time limit reached",NA,"65326ff35afdf92b45388b44","computer","Desktop or Laptop","Windows 10","Chrome 117.0.0.0","1366x768","1366x651",NA,NA,0,"BIQ (Charlotte)",3,"IJHAGBFCED","Passed AC2",NA,"Spreadsheet1",NA,"","","",NA,"5","BEGIN",NA,NA,NA,NA,NA,NA,0,NA,NA,NA,NA,"","",NA,"","",NA,"SUPPRF43235"
"2",1697804737258,"20/10/2023 12:25:37",1697808337258,1,"20/10/2023 14:25:37",147683,3,"task-gjqt",NA,32380522,9577007,NA,"rejected - time limit reached",NA,"65326ff35afdf92b45388b44","computer","Desktop or Laptop","Windows 10","Chrome 117.0.0.0","1366x768","1366x651",NA,NA,0,"BIQ (Charlotte)",3,"IJHAGBFCED","Passed AC2",NA,"Spreadsheet1",1,"BIQ","Screen 1","9dh6eq",1,"continue","",72613.3,72596.628,72613.3,72613.3,72596.628,72613.3,1,72613.3,0,0,NA,"Click To Continue","Continue Button",23,"object-48","BIQ",NA,"SUPPRF43235"
"3",1697804737262,"20/10/2023 12:25:37",1697808337262,1,"20/10/2023 14:25:37",147683,3,"task-gjqt",NA,32380522,9577007,NA,"rejected - time limit reached",NA,"65326ff35afdf92b45388b44","computer","Desktop or Laptop","Windows 10","Chrome 117.0.0.0","1366x768","1366x651",NA,NA,0,"BIQ (Charlotte)",3,"IJHAGBFCED","Passed AC2",NA,"Spreadsheet1",1,"BIQ","Screen 1","9dh6eq",1,"response","6",66497.15,72596.628,72613.3,66497.15,72596.628,72613.3,1,66497.15,6116.15000000001,0,NA,"Rating Scale","Rating Scale",3,"object-5","BIQ",NA,"SUPPRF43235"
"4",1697804737264,"20/10/2023 12:25:37",1697808337264,1,"20/10/2023 14:25:37",147683,3,"task-gjqt",NA,32380522,9577007,NA,"rejected - time limit reached",NA,"65326ff35afdf92b45388b44","computer","Desktop or Laptop","Windows 10","Chrome 117.0.0.0","1366x768","1366x651",NA,NA,0,"BIQ (Charlotte)",3,"IJHAGBFCED","Passed AC2",NA,"Spreadsheet1",1,"BIQ","Screen 1","9dh6eq",1,"response","6",69180.348,72596.628,72613.3,69180.348,72596.628,72613.3,1,69180.348,3432.952,0,NA,"Rating Scale","Rating Scale",10,"object-18","BIQ",NA,"SUPPRF43235"
"5",1697804737264,"20/10/2023 12:25:37",1697808337264,1,"20/10/2023 14:25:37",147683,3,"task-gjqt",NA,32380522,9577007,NA,"rejected - time limit reached",NA,"65326ff35afdf92b45388b44","computer","Desktop or Laptop","Windows 10","Chrome 117.0.0.0","1366x768","1366x651",NA,NA,0,"BIQ (Charlotte)",3,"IJHAGBFCED","Passed AC2",NA,"Spreadsheet1",1,"BIQ","Screen 1","9dh6eq",1,"response","4",71779.985,72596.628,72613.3,71779.985,72596.628,72613.3,1,71779.985,833.315000000002,0,NA,"Rating Scale","Rating Scale",17,"object-80","BIQ",NA,"SUPPRF43235"
"6",1697804752381,"20/10/2023 12:25:52",1697808352381,1,"20/10/2023 14:25:52",147683,3,"task-gjqt",NA,32380522,9577007,NA,"rejected - time limit reached",NA,"65326ff35afdf92b45388b44","computer","Desktop or Laptop","Windows 10","Chrome 117.0.0.0","1366x768","1366x651",NA,NA,0,"BIQ (Charlotte)",3,"IJHAGBFCED","Passed AC2",NA,"Spreadsheet1",1,"BIQ","Screen 2","o21mwi",2,"continue","",15154.6170000477,15149.327,15154.6170000477,15154.6170000477,15149.327,15154.6170000477,1,15154.6170000477,0,0,NA,"Click To Continue","Continue Button",22,"object-50","BIQ",NA,"SUPPRF43235"
"7",1697804752389,"20/10/2023 12:25:52",1697808352389,1,"20/10/2023 14:25:52",147683,3,"task-gjqt",NA,32380522,9577007,NA,"rejected - time limit reached",NA,"65326ff35afdf92b45388b44","computer","Desktop or Laptop","Windows 10","Chrome 117.0.0.0","1366x768","1366x651",NA,NA,0,"BIQ (Charlotte)",3,"IJHAGBFCED","Passed AC2",NA,"Spreadsheet1",1,"BIQ","Screen 2","o21mwi",2,"response","0",11182.783,15149.327,15161.7169999523,11182.783,15149.327,15161.7169999523,1,11182.783,3978.93399995232,0,NA,"Rating Scale","Rating Scale",2,"object-259","BIQ",NA,"SUPPRF43235"
"8",1697804752391,"20/10/2023 12:25:52",1697808352391,1,"20/10/2023 14:25:52",147683,3,"task-gjqt",NA,32380522,9577007,NA,"rejected - time limit reached",NA,"65326ff35afdf92b45388b44","computer","Desktop or Laptop","Windows 10","Chrome 117.0.0.0","1366x768","1366x651",NA,NA,0,"BIQ (Charlotte)",3,"IJHAGBFCED","Passed AC2",NA,"Spreadsheet1",1,"BIQ","Screen 2","o21mwi",2,"response","0",12816.281,15149.327,15163.5169999046,12816.281,15149.327,15163.5169999046,1,12816.281,2347.23599990463,0,NA,"Rating Scale","Rating Scale",9,"object-36","BIQ",NA,"SUPPRF43235"
"9",1697804752394,"20/10/2023 12:25:52",1697808352394,1,"20/10/2023 14:25:52",147683,3,"task-gjqt",NA,32380522,9577007,NA,"rejected - time limit reached",NA,"65326ff35afdf92b45388b44","computer","Desktop or Laptop","Windows 10","Chrome 117.0.0.0","1366x768","1366x651",NA,NA,0,"BIQ (Charlotte)",3,"IJHAGBFCED","Passed AC2",NA,"Spreadsheet1",1,"BIQ","Screen 2","o21mwi",2,"response","0",13932.934,15149.327,15165.953,13932.934,15149.327,15165.953,1,13932.934,1233.019,0,NA,"Rating Scale","Rating Scale",16,"object-86","BIQ",NA,"SUPPRF43235"
"10",1697804761518,"20/10/2023 12:26:01",1697808361518,1,"20/10/2023 14:26:01",147683,3,"task-gjqt",NA,32380522,9577007,NA,"rejected - time limit reached",NA,"65326ff35afdf92b45388b44","computer","Desktop or Laptop","Windows 10","Chrome 117.0.0.0","1366x768","1366x651",NA,NA,0,"BIQ (Charlotte)",3,"IJHAGBFCED","Passed AC2",NA,"Spreadsheet1",1,"BIQ","Screen 3","iz3the",3,"continue","",9141.59,9132.93699999999,9141.59,9141.59,9132.93699999999,9141.59,1,9141.59,0,0,NA,"Click To Continue","Continue Button",22,"object-73","BIQ",NA,"SUPPRF43235"
"11",1697804761519,"20/10/2023 12:26:01",1697808361519,1,"20/10/2023 14:26:01",147683,3,"task-gjqt",NA,32380522,9577007,NA,"rejected - time limit reached",NA,"65326ff35afdf92b45388b44","computer","Desktop or Laptop","Windows 10","Chrome 117.0.0.0","1366x768","1366x651",NA,NA,0,"BIQ (Charlotte)",3,"IJHAGBFCED","Passed AC2",NA,"Spreadsheet1",1,"BIQ","Screen 3","iz3the",3,"response","2",3033.40399999999,9132.93699999999,9143.48999985695,3033.40399999999,9132.93699999999,9143.48999985695,1,3033.40399999999,6110.08599985695,0,NA,"Rating Scale","Rating Scale",2,"object-53","BIQ",NA,"SUPPRF43235"
"12",1697804761521,"20/10/2023 12:26:01",1697808361521,1,"20/10/2023 14:26:01",147683,3,"task-gjqt",NA,32380522,9577007,NA,"rejected - time limit reached",NA,"65326ff35afdf92b45388b44","computer","Desktop or Laptop","Windows 10","Chrome 117.0.0.0","1366x768","1366x651",NA,NA,0,"BIQ (Charlotte)",3,"IJHAGBFCED","Passed AC2",NA,"Spreadsheet1",1,"BIQ","Screen 3","iz3the",3,"response","2",4216.386,9132.93699999999,9144.88999995231,4216.386,9132.93699999999,9144.88999995231,1,4216.386,4928.50399995231,0,NA,"Rating Scale","Rating Scale",9,"object-60","BIQ",NA,"SUPPRF43235"
"13",1697804761522,"20/10/2023 12:26:01",1697808361522,1,"20/10/2023 14:26:01",147683,3,"task-gjqt",NA,32380522,9577007,NA,"rejected - time limit reached",NA,"65326ff35afdf92b45388b44","computer","Desktop or Laptop","Windows 10","Chrome 117.0.0.0","1366x768","1366x651",NA,NA,0,"BIQ (Charlotte)",3,"IJHAGBFCED","Passed AC2",NA,"Spreadsheet1",1,"BIQ","Screen 3","iz3the",3,"response","2",5083.03199999999,9132.93699999999,9146.38999995231,5083.03199999999,9132.93699999999,9146.38999995231,1,5083.03199999999,4063.35799995232,0,NA,"Rating Scale","Rating Scale",16,"object-67","BIQ",NA,"SUPPRF43235"
"14",1697804761538,"20/10/2023 12:26:01",1697808361538,1,"20/10/2023 14:26:01",147683,3,"task-gjqt",NA,32380522,9577007,NA,"rejected - time limit reached",NA,"65326ff35afdf92b45388b44","computer","Desktop or Laptop","Windows 10","Chrome 117.0.0.0","1366x768","1366x651",NA,NA,0,"BIQ (Charlotte)",3,"IJHAGBFCED","Passed AC2",NA,"Spreadsheet1",NA,"","","",NA,"5","END",NA,NA,NA,NA,NA,NA,0,NA,NA,NA,NA,"","",NA,"","",NA,"SUPPRF43235"
"1",1697805040731,"20/10/2023 12:30:40",1697790640731,-4,"20/10/2023 04:30:40",147683,3,"task-gjqt",NA,32380647,9577059,NA,"complete",NA,"6532706690febf7cc2ea91b4","computer","Desktop or Laptop","Mac OS 10.15.7","Chrome 117.0.0.0","1440x900","1440x815",NA,NA,0,"BIQ (Charlotte)",3,"JAIBHCGDFE","Passed AC2",NA,"Spreadsheet1",NA,"","","",NA,"5","BEGIN",NA,NA,NA,NA,NA,NA,0,NA,NA,NA,NA,"","",NA,"","",NA,"SUPPRF97235"
"2",1697805062149,"20/10/2023 12:31:02",1697790662149,-4,"20/10/2023 04:31:02",147683,3,"task-gjqt",NA,32380647,9577059,NA,"complete",NA,"6532706690febf7cc2ea91b4","computer","Desktop or Laptop","Mac OS 10.15.7","Chrome 117.0.0.0","1440x900","1440x815",NA,NA,0,"BIQ (Charlotte)",3,"JAIBHCGDFE","Passed AC2",NA,"Spreadsheet1",1,"BIQ","Screen 1","9dh6eq",1,"continue","",21430.851,21414.185,21430.851,21430.851,21414.185,21430.851,1,21430.851,0,0,NA,"Click To Continue","Continue Button",23,"object-48","BIQ",NA,"SUPPRF97235"
"3",1697805062153,"20/10/2023 12:31:02",1697790662153,-4,"20/10/2023 04:31:02",147683,3,"task-gjqt",NA,32380647,9577059,NA,"complete",NA,"6532706690febf7cc2ea91b4","computer","Desktop or Laptop","Mac OS 10.15.7","Chrome 117.0.0.0","1440x900","1440x815",NA,NA,0,"BIQ (Charlotte)",3,"JAIBHCGDFE","Passed AC2",NA,"Spreadsheet1",1,"BIQ","Screen 1","9dh6eq",1,"response","0",7707.305,21414.185,21430.851,7707.305,21414.185,21430.851,1,7707.305,13723.546,0,NA,"Rating Scale","Rating Scale",3,"object-5","BIQ",NA,"SUPPRF97235"
"4",1697805062154,"20/10/2023 12:31:02",1697790662154,-4,"20/10/2023 04:31:02",147683,3,"task-gjqt",NA,32380647,9577059,NA,"complete",NA,"6532706690febf7cc2ea91b4","computer","Desktop or Laptop","Mac OS 10.15.7","Chrome 117.0.0.0","1440x900","1440x815",NA,NA,0,"BIQ (Charlotte)",3,"JAIBHCGDFE","Passed AC2",NA,"Spreadsheet1",1,"BIQ","Screen 1","9dh6eq",1,"response","4",15031.107,21414.185,21430.851,15031.107,21414.185,21430.851,1,15031.107,6399.744,0,NA,"Rating Scale","Rating Scale",10,"object-18","BIQ",NA,"SUPPRF97235"
"5",1697805062154,"20/10/2023 12:31:02",1697790662154,-4,"20/10/2023 04:31:02",147683,3,"task-gjqt",NA,32380647,9577059,NA,"complete",NA,"6532706690febf7cc2ea91b4","computer","Desktop or Laptop","Mac OS 10.15.7","Chrome 117.0.0.0","1440x900","1440x815",NA,NA,0,"BIQ (Charlotte)",3,"JAIBHCGDFE","Passed AC2",NA,"Spreadsheet1",1,"BIQ","Screen 1","9dh6eq",1,"response","6",20530.887,21414.185,21430.851,20530.887,21414.185,21430.851,1,20530.887,899.963999999996,0,NA,"Rating Scale","Rating Scale",17,"object-80","BIQ",NA,"SUPPRF97235"
"6",1697805079074,"20/10/2023 12:31:19",1697790679074,-4,"20/10/2023 04:31:19",147683,3,"task-gjqt",NA,32380647,9577059,NA,"complete",NA,"6532706690febf7cc2ea91b4","computer","Desktop or Laptop","Mac OS 10.15.7","Chrome 117.0.0.0","1440x900","1440x815",NA,NA,0,"BIQ (Charlotte)",3,"JAIBHCGDFE","Passed AC2",NA,"Spreadsheet1",1,"BIQ","Screen 2","o21mwi",2,"continue","",16946.7310000015,16943.288,16946.7310000015,16946.7310000015,16943.288,16946.7310000015,1,16946.7310000015,0,0,NA,"Click To Continue","Continue Button",22,"object-50","BIQ",NA,"SUPPRF97235"
"7",1697805079080,"20/10/2023 12:31:19",1697790679080,-4,"20/10/2023 04:31:19",147683,3,"task-gjqt",NA,32380647,9577059,NA,"complete",NA,"6532706690febf7cc2ea91b4","computer","Desktop or Laptop","Mac OS 10.15.7","Chrome 117.0.0.0","1440x900","1440x815",NA,NA,0,"BIQ (Charlotte)",3,"JAIBHCGDFE","Passed AC2",NA,"Spreadsheet1",1,"BIQ","Screen 2","o21mwi",2,"response","5",4574.559,16943.288,16952.7310000015,4574.559,16943.288,16952.7310000015,1,4574.559,12378.1720000015,0,NA,"Rating Scale","Rating Scale",2,"object-259","BIQ",NA,"SUPPRF97235"
"8",1697805079081,"20/10/2023 12:31:19",1697790679081,-4,"20/10/2023 04:31:19",147683,3,"task-gjqt",NA,32380647,9577059,NA,"complete",NA,"6532706690febf7cc2ea91b4","computer","Desktop or Laptop","Mac OS 10.15.7","Chrome 117.0.0.0","1440x900","1440x815",NA,NA,0,"BIQ (Charlotte)",3,"JAIBHCGDFE","Passed AC2",NA,"Spreadsheet1",1,"BIQ","Screen 2","o21mwi",2,"response","8",7707.767,16943.288,16953.631,7707.767,16943.288,16953.631,1,7707.767,9245.864,0,NA,"Rating Scale","Rating Scale",9,"object-36","BIQ",NA,"SUPPRF97235"
"9",1697805079082,"20/10/2023 12:31:19",1697790679082,-4,"20/10/2023 04:31:19",147683,3,"task-gjqt",NA,32380647,9577059,NA,"complete",NA,"6532706690febf7cc2ea91b4","computer","Desktop or Laptop","Mac OS 10.15.7","Chrome 117.0.0.0","1440x900","1440x815",NA,NA,0,"BIQ (Charlotte)",3,"JAIBHCGDFE","Passed AC2",NA,"Spreadsheet1",1,"BIQ","Screen 2","o21mwi",2,"response","6",15060.03,16943.288,16954.2310000015,15060.03,16943.288,16954.2310000015,1,15060.03,1894.20100000149,0,NA,"Rating Scale","Rating Scale",16,"object-86","BIQ",NA,"SUPPRF97235"
"10",1697805093348,"20/10/2023 12:31:33",1697790693348,-4,"20/10/2023 04:31:33",147683,3,"task-gjqt",NA,32380647,9577059,NA,"complete",NA,"6532706690febf7cc2ea91b4","computer","Desktop or Laptop","Mac OS 10.15.7","Chrome 117.0.0.0","1440x900","1440x815",NA,NA,0,"BIQ (Charlotte)",3,"JAIBHCGDFE","Passed AC2",NA,"Spreadsheet1",1,"BIQ","Screen 3","iz3the",3,"continue","",14277.2429999985,14272.013,14277.2429999985,14277.2429999985,14272.013,14277.2429999985,1,14277.2429999985,0,0,NA,"Click To Continue","Continue Button",22,"object-73","BIQ",NA,"SUPPRF97235"
"11",1697805093352,"20/10/2023 12:31:33",1697790693352,-4,"20/10/2023 04:31:33",147683,3,"task-gjqt",NA,32380647,9577059,NA,"complete",NA,"6532706690febf7cc2ea91b4","computer","Desktop or Laptop","Mac OS 10.15.7","Chrome 117.0.0.0","1440x900","1440x815",NA,NA,0,"BIQ (Charlotte)",3,"JAIBHCGDFE","Passed AC2",NA,"Spreadsheet1",1,"BIQ","Screen 3","iz3the",3,"response","2",4433.156,14272.013,14280.9430000015,4433.156,14272.013,14280.9430000015,1,4433.156,9847.78700000149,0,NA,"Rating Scale","Rating Scale",2,"object-53","BIQ",NA,"SUPPRF97235"
"12",1697805093353,"20/10/2023 12:31:33",1697790693353,-4,"20/10/2023 04:31:33",147683,3,"task-gjqt",NA,32380647,9577059,NA,"complete",NA,"6532706690febf7cc2ea91b4","computer","Desktop or Laptop","Mac OS 10.15.7","Chrome 117.0.0.0","1440x900","1440x815",NA,NA,0,"BIQ (Charlotte)",3,"JAIBHCGDFE","Passed AC2",NA,"Spreadsheet1",1,"BIQ","Screen 3","iz3the",3,"response","5",9172.217,14272.013,14281.843,9172.217,14272.013,14281.843,1,9172.217,5109.626,0,NA,"Rating Scale","Rating Scale",9,"object-60","BIQ",NA,"SUPPRF97235"
"13",1697805093354,"20/10/2023 12:31:33",1697790693354,-4,"20/10/2023 04:31:33",147683,3,"task-gjqt",NA,32380647,9577059,NA,"complete",NA,"6532706690febf7cc2ea91b4","computer","Desktop or Laptop","Mac OS 10.15.7","Chrome 117.0.0.0","1440x900","1440x815",NA,NA,0,"BIQ (Charlotte)",3,"JAIBHCGDFE","Passed AC2",NA,"Spreadsheet1",1,"BIQ","Screen 3","iz3the",3,"response","5",13105.393,14272.013,14282.642999997,13105.393,14272.013,14282.642999997,1,13105.393,1177.24999999702,0,NA,"Rating Scale","Rating Scale",16,"object-67","BIQ",NA,"SUPPRF97235"
"14",1697805093360,"20/10/2023 12:31:33",1697790693360,-4,"20/10/2023 04:31:33",147683,3,"task-gjqt",NA,32380647,9577059,NA,"complete",NA,"6532706690febf7cc2ea91b4","computer","Desktop or Laptop","Mac OS 10.15.7","Chrome 117.0.0.0","1440x900","1440x815",NA,NA,0,"BIQ (Charlotte)",3,"JAIBHCGDFE","Passed AC2",NA,"Spreadsheet1",NA,"","","",NA,"5","END",NA,NA,NA,NA,NA,NA,0,NA,NA,NA,NA,"","",NA,"","",NA,"SUPPRF97235"
"1",1697805506790,"20/10/2023 12:38:26",1697809106790,1,"20/10/2023 14:38:26",147683,3,"task-gjqt",NA,32380858,9577424,NA,"complete",NA,"65327436bd8652e10f461c5e","tablet","Apple iPad","iOS 16.6","Chrome 118.0.5993.92","834x1112","782x719",NA,NA,0,"BIQ (Charlotte)",3,"EFDGCHBIAJ","Passed AC2",NA,"Spreadsheet1",NA,"","","",NA,"5","BEGIN",NA,NA,NA,NA,NA,NA,0,NA,NA,NA,NA,"","",NA,"","",NA,"SUPPRF55923"
"2",1697805546053,"20/10/2023 12:39:06",1697809146053,1,"20/10/2023 14:39:06",147683,3,"task-gjqt",NA,32380858,9577424,NA,"complete",NA,"65327436bd8652e10f461c5e","tablet","Apple iPad","iOS 16.6","Chrome 118.0.5993.92","834x1112","782x719",NA,NA,0,"BIQ (Charlotte)",3,"EFDGCHBIAJ","Passed AC2",NA,"Spreadsheet1",1,"BIQ","Screen 1","9dh6eq",1,"continue","",39253,39236,39253,39253,39236,39253,1,39253,0,0,NA,"Click To Continue","Continue Button",23,"object-48","BIQ",NA,"SUPPRF55923"
"3",1697805546059,"20/10/2023 12:39:06",1697809146059,1,"20/10/2023 14:39:06",147683,3,"task-gjqt",NA,32380858,9577424,NA,"complete",NA,"65327436bd8652e10f461c5e","tablet","Apple iPad","iOS 16.6","Chrome 118.0.5993.92","834x1112","782x719",NA,NA,0,"BIQ (Charlotte)",3,"EFDGCHBIAJ","Passed AC2",NA,"Spreadsheet1",1,"BIQ","Screen 1","9dh6eq",1,"response","6",18539,39236,39253,18539,39236,39253,1,18539,20714,0,NA,"Rating Scale","Rating Scale",3,"object-5","BIQ",NA,"SUPPRF55923"
"4",1697805546060,"20/10/2023 12:39:06",1697809146060,1,"20/10/2023 14:39:06",147683,3,"task-gjqt",NA,32380858,9577424,NA,"complete",NA,"65327436bd8652e10f461c5e","tablet","Apple iPad","iOS 16.6","Chrome 118.0.5993.92","834x1112","782x719",NA,NA,0,"BIQ (Charlotte)",3,"EFDGCHBIAJ","Passed AC2",NA,"Spreadsheet1",1,"BIQ","Screen 1","9dh6eq",1,"response","2",25454,39236,39253,25454,39236,39253,1,25454,13799,0,NA,"Rating Scale","Rating Scale",10,"object-18","BIQ",NA,"SUPPRF55923"
"5",1697805546060,"20/10/2023 12:39:06",1697809146060,1,"20/10/2023 14:39:06",147683,3,"task-gjqt",NA,32380858,9577424,NA,"complete",NA,"65327436bd8652e10f461c5e","tablet","Apple iPad","iOS 16.6","Chrome 118.0.5993.92","834x1112","782x719",NA,NA,0,"BIQ (Charlotte)",3,"EFDGCHBIAJ","Passed AC2",NA,"Spreadsheet1",1,"BIQ","Screen 1","9dh6eq",1,"response","3",38153,39236,39253,38153,39236,39253,1,38153,1100,0,NA,"Rating Scale","Rating Scale",17,"object-80","BIQ",NA,"SUPPRF55923"
"6",1697805573752,"20/10/2023 12:39:33",1697809173752,1,"20/10/2023 14:39:33",147683,3,"task-gjqt",NA,32380858,9577424,NA,"complete",NA,"65327436bd8652e10f461c5e","tablet","Apple iPad","iOS 16.6","Chrome 118.0.5993.92","834x1112","782x719",NA,NA,0,"BIQ (Charlotte)",3,"EFDGCHBIAJ","Passed AC2",NA,"Spreadsheet1",1,"BIQ","Screen 2","o21mwi",2,"continue","",27733,27719,27733,27733,27719,27733,1,27733,0,0,NA,"Click To Continue","Continue Button",22,"object-50","BIQ",NA,"SUPPRF55923"
"7",1697805573766,"20/10/2023 12:39:33",1697809173766,1,"20/10/2023 14:39:33",147683,3,"task-gjqt",NA,32380858,9577424,NA,"complete",NA,"65327436bd8652e10f461c5e","tablet","Apple iPad","iOS 16.6","Chrome 118.0.5993.92","834x1112","782x719",NA,NA,0,"BIQ (Charlotte)",3,"EFDGCHBIAJ","Passed AC2",NA,"Spreadsheet1",1,"BIQ","Screen 2","o21mwi",2,"response","4",7166,27719,27736,7166,27719,27736,1,7166,20570,0,NA,"Rating Scale","Rating Scale",2,"object-259","BIQ",NA,"SUPPRF55923"
"8",1697805573767,"20/10/2023 12:39:33",1697809173767,1,"20/10/2023 14:39:33",147683,3,"task-gjqt",NA,32380858,9577424,NA,"complete",NA,"65327436bd8652e10f461c5e","tablet","Apple iPad","iOS 16.6","Chrome 118.0.5993.92","834x1112","782x719",NA,NA,0,"BIQ (Charlotte)",3,"EFDGCHBIAJ","Passed AC2",NA,"Spreadsheet1",1,"BIQ","Screen 2","o21mwi",2,"response","2",18497,27719,27736,18497,27719,27736,1,18497,9239,0,NA,"Rating Scale","Rating Scale",9,"object-36","BIQ",NA,"SUPPRF55923"
"9",1697805573768,"20/10/2023 12:39:33",1697809173768,1,"20/10/2023 14:39:33",147683,3,"task-gjqt",NA,32380858,9577424,NA,"complete",NA,"65327436bd8652e10f461c5e","tablet","Apple iPad","iOS 16.6","Chrome 118.0.5993.92","834x1112","782x719",NA,NA,0,"BIQ (Charlotte)",3,"EFDGCHBIAJ","Passed AC2",NA,"Spreadsheet1",1,"BIQ","Screen 2","o21mwi",2,"response","4",27135,27719,27736,27135,27719,27736,1,27135,601,0,NA,"Rating Scale","Rating Scale",16,"object-86","BIQ",NA,"SUPPRF55923"
"10",1697805587380,"20/10/2023 12:39:47",1697809187380,1,"20/10/2023 14:39:47",147683,3,"task-gjqt",NA,32380858,9577424,NA,"complete",NA,"65327436bd8652e10f461c5e","tablet","Apple iPad","iOS 16.6","Chrome 118.0.5993.92","834x1112","782x719",NA,NA,0,"BIQ (Charlotte)",3,"EFDGCHBIAJ","Passed AC2",NA,"Spreadsheet1",1,"BIQ","Screen 3","iz3the",3,"continue","",13644,13633,13644,13644,13633,13644,1,13644,0,0,NA,"Click To Continue","Continue Button",22,"object-73","BIQ",NA,"SUPPRF55923"
"11",1697805587385,"20/10/2023 12:39:47",1697809187385,1,"20/10/2023 14:39:47",147683,3,"task-gjqt",NA,32380858,9577424,NA,"complete",NA,"65327436bd8652e10f461c5e","tablet","Apple iPad","iOS 16.6","Chrome 118.0.5993.92","834x1112","782x719",NA,NA,0,"BIQ (Charlotte)",3,"EFDGCHBIAJ","Passed AC2",NA,"Spreadsheet1",1,"BIQ","Screen 3","iz3the",3,"response","1",5495,13633,13649,5495,13633,13649,1,5495,8154,0,NA,"Rating Scale","Rating Scale",2,"object-53","BIQ",NA,"SUPPRF55923"
"12",1697805587386,"20/10/2023 12:39:47",1697809187386,1,"20/10/2023 14:39:47",147683,3,"task-gjqt",NA,32380858,9577424,NA,"complete",NA,"65327436bd8652e10f461c5e","tablet","Apple iPad","iOS 16.6","Chrome 118.0.5993.92","834x1112","782x719",NA,NA,0,"BIQ (Charlotte)",3,"EFDGCHBIAJ","Passed AC2",NA,"Spreadsheet1",1,"BIQ","Screen 3","iz3the",3,"response","5",9633,13633,13649,9633,13633,13649,1,9633,4016,0,NA,"Rating Scale","Rating Scale",9,"object-60","BIQ",NA,"SUPPRF55923"
"13",1697805587387,"20/10/2023 12:39:47",1697809187387,1,"20/10/2023 14:39:47",147683,3,"task-gjqt",NA,32380858,9577424,NA,"complete",NA,"65327436bd8652e10f461c5e","tablet","Apple iPad","iOS 16.6","Chrome 118.0.5993.92","834x1112","782x719",NA,NA,0,"BIQ (Charlotte)",3,"EFDGCHBIAJ","Passed AC2",NA,"Spreadsheet1",1,"BIQ","Screen 3","iz3the",3,"response","2",13165,13633,13649,13165,13633,13649,1,13165,484,0,NA,"Rating Scale","Rating Scale",16,"object-67","BIQ",NA,"SUPPRF55923"
"14",1697805587390,"20/10/2023 12:39:47",1697809187390,1,"20/10/2023 14:39:47",147683,3,"task-gjqt",NA,32380858,9577424,NA,"complete",NA,"65327436bd8652e10f461c5e","tablet","Apple iPad","iOS 16.6","Chrome 118.0.5993.92","834x1112","782x719",NA,NA,0,"BIQ (Charlotte)",3,"EFDGCHBIAJ","Passed AC2",NA,"Spreadsheet1",NA,"","","",NA,"5","END",NA,NA,NA,NA,NA,NA,0,NA,NA,NA,NA,"","",NA,"","",NA,"SUPPRF55923"
"1",1697805523702,"20/10/2023 12:38:43",1697809123702,1,"20/10/2023 14:38:43",147683,3,"task-gjqt",NA,32380865,9577446,NA,"complete",NA,"653274782a9833c271b31a6e","computer","Desktop or Laptop","Windows 10","Chrome 118.0.0.0","1366x768","2049x927",NA,NA,0,"BIQ (Charlotte)",3,"FGEHDICJBA","Passed AC2",NA,"Spreadsheet1",NA,"","","",NA,"5","BEGIN",NA,NA,NA,NA,NA,NA,0,NA,NA,NA,NA,"","",NA,"","",NA,"SUPPRF05688"
"2",1697805554716,"20/10/2023 12:39:14",1697809154716,1,"20/10/2023 14:39:14",147683,3,"task-gjqt",NA,32380865,9577446,NA,"complete",NA,"653274782a9833c271b31a6e","computer","Desktop or Laptop","Windows 10","Chrome 118.0.0.0","1366x768","2049x927",NA,NA,0,"BIQ (Charlotte)",3,"FGEHDICJBA","Passed AC2",NA,"Spreadsheet1",1,"BIQ","Screen 1","9dh6eq",1,"continue","",31067.2390000179,31050.762,31067.2390000179,31067.2390000179,31050.762,31067.2390000179,1,31067.2390000179,0,0,NA,"Click To Continue","Continue Button",23,"object-48","BIQ",NA,"SUPPRF05688"
"3",1697805554724,"20/10/2023 12:39:14",1697809154724,1,"20/10/2023 14:39:14",147683,3,"task-gjqt",NA,32380865,9577446,NA,"complete",NA,"653274782a9833c271b31a6e","computer","Desktop or Laptop","Windows 10","Chrome 118.0.0.0","1366x768","2049x927",NA,NA,0,"BIQ (Charlotte)",3,"FGEHDICJBA","Passed AC2",NA,"Spreadsheet1",1,"BIQ","Screen 1","9dh6eq",1,"response","6",9800.462,31050.762,31067.305,9800.462,31050.762,31067.305,1,9800.462,21266.843,0,NA,"Rating Scale","Rating Scale",3,"object-5","BIQ",NA,"SUPPRF05688"
"4",1697805554726,"20/10/2023 12:39:14",1697809154726,1,"20/10/2023 14:39:14",147683,3,"task-gjqt",NA,32380865,9577446,NA,"complete",NA,"653274782a9833c271b31a6e","computer","Desktop or Laptop","Windows 10","Chrome 118.0.0.0","1366x768","2049x927",NA,NA,0,"BIQ (Charlotte)",3,"FGEHDICJBA","Passed AC2",NA,"Spreadsheet1",1,"BIQ","Screen 1","9dh6eq",1,"response","4",24100.747,31050.762,31067.305,24100.747,31050.762,31067.305,1,24100.747,6966.558,0,NA,"Rating Scale","Rating Scale",10,"object-18","BIQ",NA,"SUPPRF05688"
"5",1697805554727,"20/10/2023 12:39:14",1697809154727,1,"20/10/2023 14:39:14",147683,3,"task-gjqt",NA,32380865,9577446,NA,"complete",NA,"653274782a9833c271b31a6e","computer","Desktop or Laptop","Windows 10","Chrome 118.0.0.0","1366x768","2049x927",NA,NA,0,"BIQ (Charlotte)",3,"FGEHDICJBA","Passed AC2",NA,"Spreadsheet1",1,"BIQ","Screen 1","9dh6eq",1,"response","2",29884.193,31050.762,31067.305,29884.193,31050.762,31067.305,1,29884.193,1183.112,0,NA,"Rating Scale","Rating Scale",17,"object-80","BIQ",NA,"SUPPRF05688"
"6",1697805589889,"20/10/2023 12:39:49",1697809189889,1,"20/10/2023 14:39:49",147683,3,"task-gjqt",NA,32380865,9577446,NA,"complete",NA,"653274782a9833c271b31a6e","computer","Desktop or Laptop","Windows 10","Chrome 118.0.0.0","1366x768","2049x927",NA,NA,0,"BIQ (Charlotte)",3,"FGEHDICJBA","Passed AC2",NA,"Spreadsheet1",1,"BIQ","Screen 2","o21mwi",2,"continue","",35191.876999994,35184.272,35191.876999994,35191.876999994,35184.272,35191.876999994,1,35191.876999994,0,0,NA,"Click To Continue","Continue Button",22,"object-50","BIQ",NA,"SUPPRF05688"
"7",1697805589897,"20/10/2023 12:39:49",1697809189897,1,"20/10/2023 14:39:49",147683,3,"task-gjqt",NA,32380865,9577446,NA,"complete",NA,"653274782a9833c271b31a6e","computer","Desktop or Laptop","Windows 10","Chrome 118.0.0.0","1366x768","2049x927",NA,NA,0,"BIQ (Charlotte)",3,"FGEHDICJBA","Passed AC2",NA,"Spreadsheet1",1,"BIQ","Screen 2","o21mwi",2,"response","5",6967.047,35184.272,35199.9770000179,6967.047,35184.272,35199.9770000179,1,6967.047,28232.9300000179,0,NA,"Rating Scale","Rating Scale",2,"object-259","BIQ",NA,"SUPPRF05688"
"8",1697805589900,"20/10/2023 12:39:49",1697809189900,1,"20/10/2023 14:39:49",147683,3,"task-gjqt",NA,32380865,9577446,NA,"complete",NA,"653274782a9833c271b31a6e","computer","Desktop or Laptop","Windows 10","Chrome 118.0.0.0","1366x768","2049x927",NA,NA,0,"BIQ (Charlotte)",3,"FGEHDICJBA","Passed AC2",NA,"Spreadsheet1",1,"BIQ","Screen 2","o21mwi",2,"response","4",23283.945,35184.272,35200.954,23283.945,35184.272,35200.954,1,23283.945,11917.009,0,NA,"Rating Scale","Rating Scale",9,"object-36","BIQ",NA,"SUPPRF05688"
"9",1697805589901,"20/10/2023 12:39:49",1697809189901,1,"20/10/2023 14:39:49",147683,3,"task-gjqt",NA,32380865,9577446,NA,"complete",NA,"653274782a9833c271b31a6e","computer","Desktop or Laptop","Windows 10","Chrome 118.0.0.0","1366x768","2049x927",NA,NA,0,"BIQ (Charlotte)",3,"FGEHDICJBA","Passed AC2",NA,"Spreadsheet1",1,"BIQ","Screen 2","o21mwi",2,"response","7",33500.916,35184.272,35200.954,33500.916,35184.272,35200.954,1,33500.916,1700.038,0,NA,"Rating Scale","Rating Scale",16,"object-86","BIQ",NA,"SUPPRF05688"
"10",1697805619992,"20/10/2023 12:40:19",1697809219992,1,"20/10/2023 14:40:19",147683,3,"task-gjqt",NA,32380865,9577446,NA,"complete",NA,"653274782a9833c271b31a6e","computer","Desktop or Laptop","Windows 10","Chrome 118.0.0.0","1366x768","2049x927",NA,NA,0,"BIQ (Charlotte)",3,"FGEHDICJBA","Passed AC2",NA,"Spreadsheet1",1,"BIQ","Screen 3","iz3the",3,"continue","",30110.8050000119,30100.972,30110.8050000119,30110.8050000119,30100.972,30110.8050000119,1,30110.8050000119,0,0,NA,"Click To Continue","Continue Button",22,"object-73","BIQ",NA,"SUPPRF05688"
"11",1697805620001,"20/10/2023 12:40:20",1697809220001,1,"20/10/2023 14:40:20",147683,3,"task-gjqt",NA,32380865,9577446,NA,"complete",NA,"653274782a9833c271b31a6e","computer","Desktop or Laptop","Windows 10","Chrome 118.0.0.0","1366x768","2049x927",NA,NA,0,"BIQ (Charlotte)",3,"FGEHDICJBA","Passed AC2",NA,"Spreadsheet1",1,"BIQ","Screen 3","iz3the",3,"response","3",21200.543,30100.972,30117.61,21200.543,30100.972,30117.61,1,21200.543,8917.06700000001,0,NA,"Rating Scale","Rating Scale",2,"object-53","BIQ",NA,"SUPPRF05688"
"12",1697805620003,"20/10/2023 12:40:20",1697809220003,1,"20/10/2023 14:40:20",147683,3,"task-gjqt",NA,32380865,9577446,NA,"complete",NA,"653274782a9833c271b31a6e","computer","Desktop or Laptop","Windows 10","Chrome 118.0.0.0","1366x768","2049x927",NA,NA,0,"BIQ (Charlotte)",3,"FGEHDICJBA","Passed AC2",NA,"Spreadsheet1",1,"BIQ","Screen 3","iz3the",3,"response","6",24933.996,30100.972,30117.61,24933.996,30100.972,30117.61,1,24933.996,5183.61400000002,0,NA,"Rating Scale","Rating Scale",9,"object-60","BIQ",NA,"SUPPRF05688"
"13",1697805620006,"20/10/2023 12:40:20",1697809220006,1,"20/10/2023 14:40:20",147683,3,"task-gjqt",NA,32380865,9577446,NA,"complete",NA,"653274782a9833c271b31a6e","computer","Desktop or Laptop","Windows 10","Chrome 118.0.0.0","1366x768","2049x927",NA,NA,0,"BIQ (Charlotte)",3,"FGEHDICJBA","Passed AC2",NA,"Spreadsheet1",1,"BIQ","Screen 3","iz3the",3,"response","5",28950.919,30100.972,30117.61,28950.919,30100.972,30117.61,1,28950.919,1166.69100000001,0,NA,"Rating Scale","Rating Scale",16,"object-67","BIQ",NA,"SUPPRF05688"
"14",1697805620022,"20/10/2023 12:40:20",1697809220022,1,"20/10/2023 14:40:20",147683,3,"task-gjqt",NA,32380865,9577446,NA,"complete",NA,"653274782a9833c271b31a6e","computer","Desktop or Laptop","Windows 10","Chrome 118.0.0.0","1366x768","2049x927",NA,NA,0,"BIQ (Charlotte)",3,"FGEHDICJBA","Passed AC2",NA,"Spreadsheet1",NA,"","","",NA,"5","END",NA,NA,NA,NA,NA,NA,0,NA,NA,NA,NA,"","",NA,"","",NA,"SUPPRF05688"
"1",1697805628325,"20/10/2023 12:40:28",1697809228325,1,"20/10/2023 14:40:28",147683,3,"task-gjqt",NA,32380901,9577436,NA,"complete",NA,"653274794c2d3cfdfbb3c7b1","computer","Desktop or Laptop","Windows 10","Firefox 120.0","2560x1440","1279x1286",NA,NA,0,"BIQ (Charlotte)",3,"GHFIEJDACB","Passed AC2",NA,"Spreadsheet1",NA,"","","",NA,"5","BEGIN",NA,NA,NA,NA,NA,NA,0,NA,NA,NA,NA,"","",NA,"","",NA,"SUPPRF44350"
"2",1697805665978,"20/10/2023 12:41:05",1697809265978,1,"20/10/2023 14:41:05",147683,3,"task-gjqt",NA,32380901,9577436,NA,"complete",NA,"653274794c2d3cfdfbb3c7b1","computer","Desktop or Laptop","Windows 10","Firefox 120.0","2560x1440","1279x1286",NA,NA,0,"BIQ (Charlotte)",3,"GHFIEJDACB","Passed AC2",NA,"Spreadsheet1",1,"BIQ","Screen 1","9dh6eq",1,"continue","",38919,38904.86,38919,38919,38904.86,38919,1,38919,0,0,NA,"Click To Continue","Continue Button",23,"object-48","BIQ",NA,"SUPPRF44350"
"3",1697805665981,"20/10/2023 12:41:05",1697809265981,1,"20/10/2023 14:41:05",147683,3,"task-gjqt",NA,32380901,9577436,NA,"complete",NA,"653274794c2d3cfdfbb3c7b1","computer","Desktop or Laptop","Windows 10","Firefox 120.0","2560x1440","1279x1286",NA,NA,0,"BIQ (Charlotte)",3,"GHFIEJDACB","Passed AC2",NA,"Spreadsheet1",1,"BIQ","Screen 1","9dh6eq",1,"response","8",20568.68,38904.86,38921.52,20568.68,38904.86,38921.52,1,20568.68,18352.84,0,NA,"Rating Scale","Rating Scale",3,"object-5","BIQ",NA,"SUPPRF44350"
"4",1697805665981,"20/10/2023 12:41:05",1697809265981,1,"20/10/2023 14:41:05",147683,3,"task-gjqt",NA,32380901,9577436,NA,"complete",NA,"653274794c2d3cfdfbb3c7b1","computer","Desktop or Laptop","Windows 10","Firefox 120.0","2560x1440","1279x1286",NA,NA,0,"BIQ (Charlotte)",3,"GHFIEJDACB","Passed AC2",NA,"Spreadsheet1",1,"BIQ","Screen 1","9dh6eq",1,"response","7",26752.32,38904.86,38921.52,26752.32,38904.86,38921.52,1,26752.32,12169.2,0,NA,"Rating Scale","Rating Scale",10,"object-18","BIQ",NA,"SUPPRF44350"
"5",1697805665981,"20/10/2023 12:41:05",1697809265981,1,"20/10/2023 14:41:05",147683,3,"task-gjqt",NA,32380901,9577436,NA,"complete",NA,"653274794c2d3cfdfbb3c7b1","computer","Desktop or Laptop","Windows 10","Firefox 120.0","2560x1440","1279x1286",NA,NA,0,"BIQ (Charlotte)",3,"GHFIEJDACB","Passed AC2",NA,"Spreadsheet1",1,"BIQ","Screen 1","9dh6eq",1,"response","0",30252.48,38904.86,38921.52,30252.48,38904.86,38921.52,1,30252.48,8669.04,0,NA,"Rating Scale","Rating Scale",17,"object-80","BIQ",NA,"SUPPRF44350"
"6",1697805690954,"20/10/2023 12:41:30",1697809290954,1,"20/10/2023 14:41:30",147683,3,"task-gjqt",NA,32380901,9577436,NA,"complete",NA,"653274794c2d3cfdfbb3c7b1","computer","Desktop or Laptop","Windows 10","Firefox 120.0","2560x1440","1279x1286",NA,NA,0,"BIQ (Charlotte)",3,"GHFIEJDACB","Passed AC2",NA,"Spreadsheet1",1,"BIQ","Screen 2","o21mwi",2,"continue","",24990.14,24984.58,24990.14,24990.14,24984.58,24990.14,1,24990.14,0,0,NA,"Click To Continue","Continue Button",22,"object-50","BIQ",NA,"SUPPRF44350"
"7",1697805690955,"20/10/2023 12:41:30",1697809290955,1,"20/10/2023 14:41:30",147683,3,"task-gjqt",NA,32380901,9577436,NA,"complete",NA,"653274794c2d3cfdfbb3c7b1","computer","Desktop or Laptop","Windows 10","Firefox 120.0","2560x1440","1279x1286",NA,NA,0,"BIQ (Charlotte)",3,"GHFIEJDACB","Passed AC2",NA,"Spreadsheet1",1,"BIQ","Screen 2","o21mwi",2,"response","7",3900.2,24984.58,24991.14,3900.2,24984.58,24991.14,1,3900.2,21090.94,0,NA,"Rating Scale","Rating Scale",2,"object-259","BIQ",NA,"SUPPRF44350"
"8",1697805690955,"20/10/2023 12:41:30",1697809290955,1,"20/10/2023 14:41:30",147683,3,"task-gjqt",NA,32380901,9577436,NA,"complete",NA,"653274794c2d3cfdfbb3c7b1","computer","Desktop or Laptop","Windows 10","Firefox 120.0","2560x1440","1279x1286",NA,NA,0,"BIQ (Charlotte)",3,"GHFIEJDACB","Passed AC2",NA,"Spreadsheet1",1,"BIQ","Screen 2","o21mwi",2,"response","0",12067.28,24984.58,24991.14,12067.28,24984.58,24991.14,1,12067.28,12923.86,0,NA,"Rating Scale","Rating Scale",9,"object-36","BIQ",NA,"SUPPRF44350"
"9",1697805690956,"20/10/2023 12:41:30",1697809290956,1,"20/10/2023 14:41:30",147683,3,"task-gjqt",NA,32380901,9577436,NA,"complete",NA,"653274794c2d3cfdfbb3c7b1","computer","Desktop or Laptop","Windows 10","Firefox 120.0","2560x1440","1279x1286",NA,NA,0,"BIQ (Charlotte)",3,"GHFIEJDACB","Passed AC2",NA,"Spreadsheet1",1,"BIQ","Screen 2","o21mwi",2,"response","0",22084.44,24984.58,24992.14,22084.44,24984.58,24992.14,1,22084.44,2907.7,0,NA,"Rating Scale","Rating Scale",16,"object-86","BIQ",NA,"SUPPRF44350"
"10",1697805714539,"20/10/2023 12:41:54",1697809314539,1,"20/10/2023 14:41:54",147683,3,"task-gjqt",NA,32380901,9577436,NA,"complete",NA,"653274794c2d3cfdfbb3c7b1","computer","Desktop or Laptop","Windows 10","Firefox 120.0","2560x1440","1279x1286",NA,NA,0,"BIQ (Charlotte)",3,"GHFIEJDACB","Passed AC2",NA,"Spreadsheet1",1,"BIQ","Screen 3","iz3the",3,"continue","",23590.56,23586.42,23590.56,23590.56,23586.42,23590.56,1,23590.56,0,0,NA,"Click To Continue","Continue Button",22,"object-73","BIQ",NA,"SUPPRF44350"
"11",1697805714540,"20/10/2023 12:41:54",1697809314540,1,"20/10/2023 14:41:54",147683,3,"task-gjqt",NA,32380901,9577436,NA,"complete",NA,"653274794c2d3cfdfbb3c7b1","computer","Desktop or Laptop","Windows 10","Firefox 120.0","2560x1440","1279x1286",NA,NA,0,"BIQ (Charlotte)",3,"GHFIEJDACB","Passed AC2",NA,"Spreadsheet1",1,"BIQ","Screen 3","iz3the",3,"response","0",6402.22,23586.42,23591.56,6402.22,23586.42,23591.56,1,6402.22,17189.34,0,NA,"Rating Scale","Rating Scale",2,"object-53","BIQ",NA,"SUPPRF44350"
"12",1697805714540,"20/10/2023 12:41:54",1697809314540,1,"20/10/2023 14:41:54",147683,3,"task-gjqt",NA,32380901,9577436,NA,"complete",NA,"653274794c2d3cfdfbb3c7b1","computer","Desktop or Laptop","Windows 10","Firefox 120.0","2560x1440","1279x1286",NA,NA,0,"BIQ (Charlotte)",3,"GHFIEJDACB","Passed AC2",NA,"Spreadsheet1",1,"BIQ","Screen 3","iz3the",3,"response","0",11402.48,23586.42,23591.56,11402.48,23586.42,23591.56,1,11402.48,12189.08,0,NA,"Rating Scale","Rating Scale",9,"object-60","BIQ",NA,"SUPPRF44350"
"13",1697805714540,"20/10/2023 12:41:54",1697809314540,1,"20/10/2023 14:41:54",147683,3,"task-gjqt",NA,32380901,9577436,NA,"complete",NA,"653274794c2d3cfdfbb3c7b1","computer","Desktop or Laptop","Windows 10","Firefox 120.0","2560x1440","1279x1286",NA,NA,0,"BIQ (Charlotte)",3,"GHFIEJDACB","Passed AC2",NA,"Spreadsheet1",1,"BIQ","Screen 3","iz3the",3,"response","2",14969.32,23586.42,23591.56,14969.32,23586.42,23591.56,1,14969.32,8622.24000000001,0,NA,"Rating Scale","Rating Scale",16,"object-67","BIQ",NA,"SUPPRF44350"
"14",1697805714541,"20/10/2023 12:41:54",1697809314541,1,"20/10/2023 14:41:54",147683,3,"task-gjqt",NA,32380901,9577436,NA,"complete",NA,"653274794c2d3cfdfbb3c7b1","computer","Desktop or Laptop","Windows 10","Firefox 120.0","2560x1440","1279x1286",NA,NA,0,"BIQ (Charlotte)",3,"GHFIEJDACB","Passed AC2",NA,"Spreadsheet1",NA,"","","",NA,"5","END",NA,NA,NA,NA,NA,NA,0,NA,NA,NA,NA,"","",NA,"","",NA,"SUPPRF44350"
"1",1697805633454,"20/10/2023 12:40:33",1697809233454,1,"20/10/2023 14:40:33",147683,3,"task-gjqt",NA,32380903,9577338,NA,"complete",NA,"6532739f2c4691903668628b","computer","Desktop or Laptop","Windows 10","Chrome 118.0.0.0","1536x1024","1536x867",NA,NA,0,"BIQ (Charlotte)",3,"CDBEAFJGIH","Passed AC2",NA,"Spreadsheet1",NA,"","","",NA,"5","BEGIN",NA,NA,NA,NA,NA,NA,0,NA,NA,NA,NA,"","",NA,"","",NA,"SUPPRF06488"
"2",1697805656841,"20/10/2023 12:40:56",1697809256841,1,"20/10/2023 14:40:56",147683,3,"task-gjqt",NA,32380903,9577338,NA,"complete",NA,"6532739f2c4691903668628b","computer","Desktop or Laptop","Windows 10","Chrome 118.0.0.0","1536x1024","1536x867",NA,NA,0,"BIQ (Charlotte)",3,"CDBEAFJGIH","Passed AC2",NA,"Spreadsheet1",1,"BIQ","Screen 1","9dh6eq",1,"continue","",24091.599999994,24075.644,24091.599999994,24091.599999994,24075.644,24091.599999994,1,24091.599999994,0,0,NA,"Click To Continue","Continue Button",23,"object-48","BIQ",NA,"SUPPRF06488"
"3",1697805656845,"20/10/2023 12:40:56",1697809256845,1,"20/10/2023 14:40:56",147683,3,"task-gjqt",NA,32380903,9577338,NA,"complete",NA,"6532739f2c4691903668628b","computer","Desktop or Laptop","Windows 10","Chrome 118.0.0.0","1536x1024","1536x867",NA,NA,0,"BIQ (Charlotte)",3,"CDBEAFJGIH","Passed AC2",NA,"Spreadsheet1",1,"BIQ","Screen 1","9dh6eq",1,"response","5",9324.634,24075.644,24092.568,9324.634,24075.644,24092.568,1,9324.634,14767.934,0,NA,"Rating Scale","Rating Scale",3,"object-5","BIQ",NA,"SUPPRF06488"
"4",1697805656846,"20/10/2023 12:40:56",1697809256846,1,"20/10/2023 14:40:56",147683,3,"task-gjqt",NA,32380903,9577338,NA,"complete",NA,"6532739f2c4691903668628b","computer","Desktop or Laptop","Windows 10","Chrome 118.0.0.0","1536x1024","1536x867",NA,NA,0,"BIQ (Charlotte)",3,"CDBEAFJGIH","Passed AC2",NA,"Spreadsheet1",1,"BIQ","Screen 1","9dh6eq",1,"response","4",16208.338,24075.644,24092.568,16208.338,24075.644,24092.568,1,16208.338,7884.23,0,NA,"Rating Scale","Rating Scale",10,"object-18","BIQ",NA,"SUPPRF06488"
"5",1697805656848,"20/10/2023 12:40:56",1697809256848,1,"20/10/2023 14:40:56",147683,3,"task-gjqt",NA,32380903,9577338,NA,"complete",NA,"6532739f2c4691903668628b","computer","Desktop or Laptop","Windows 10","Chrome 118.0.0.0","1536x1024","1536x867",NA,NA,0,"BIQ (Charlotte)",3,"CDBEAFJGIH","Passed AC2",NA,"Spreadsheet1",1,"BIQ","Screen 1","9dh6eq",1,"response","2",23442.014,24075.644,24092.568,23442.014,24075.644,24092.568,1,23442.014,650.554,0,NA,"Rating Scale","Rating Scale",17,"object-80","BIQ",NA,"SUPPRF06488"
"6",1697805669739,"20/10/2023 12:41:09",1697809269739,1,"20/10/2023 14:41:09",147683,3,"task-gjqt",NA,32380903,9577338,NA,"complete",NA,"6532739f2c4691903668628b","computer","Desktop or Laptop","Windows 10","Chrome 118.0.0.0","1536x1024","1536x867",NA,NA,0,"BIQ (Charlotte)",3,"CDBEAFJGIH","Passed AC2",NA,"Spreadsheet1",1,"BIQ","Screen 2","o21mwi",2,"continue","",12914.655999997,12900.226,12914.655999997,12914.655999997,12900.226,12914.655999997,1,12914.655999997,0,0,NA,"Click To Continue","Continue Button",22,"object-50","BIQ",NA,"SUPPRF06488"
"7",1697805669744,"20/10/2023 12:41:09",1697809269744,1,"20/10/2023 14:41:09",147683,3,"task-gjqt",NA,32380903,9577338,NA,"complete",NA,"6532739f2c4691903668628b","computer","Desktop or Laptop","Windows 10","Chrome 118.0.0.0","1536x1024","1536x867",NA,NA,0,"BIQ (Charlotte)",3,"CDBEAFJGIH","Passed AC2",NA,"Spreadsheet1",1,"BIQ","Screen 2","o21mwi",2,"response","7",3516.416,12900.226,12916.418,3516.416,12900.226,12916.418,1,3516.416,9400.002,0,NA,"Rating Scale","Rating Scale",2,"object-259","BIQ",NA,"SUPPRF06488"
"8",1697805669745,"20/10/2023 12:41:09",1697809269745,1,"20/10/2023 14:41:09",147683,3,"task-gjqt",NA,32380903,9577338,NA,"complete",NA,"6532739f2c4691903668628b","computer","Desktop or Laptop","Windows 10","Chrome 118.0.0.0","1536x1024","1536x867",NA,NA,0,"BIQ (Charlotte)",3,"CDBEAFJGIH","Passed AC2",NA,"Spreadsheet1",1,"BIQ","Screen 2","o21mwi",2,"response","2",6233.643,12900.226,12916.418,6233.643,12900.226,12916.418,1,6233.643,6682.77500000001,0,NA,"Rating Scale","Rating Scale",9,"object-36","BIQ",NA,"SUPPRF06488"
"9",1697805669746,"20/10/2023 12:41:09",1697809269746,1,"20/10/2023 14:41:09",147683,3,"task-gjqt",NA,32380903,9577338,NA,"complete",NA,"6532739f2c4691903668628b","computer","Desktop or Laptop","Windows 10","Chrome 118.0.0.0","1536x1024","1536x867",NA,NA,0,"BIQ (Charlotte)",3,"CDBEAFJGIH","Passed AC2",NA,"Spreadsheet1",1,"BIQ","Screen 2","o21mwi",2,"response","3",10733.441,12900.226,12916.418,10733.441,12900.226,12916.418,1,10733.441,2182.97700000001,0,NA,"Rating Scale","Rating Scale",16,"object-86","BIQ",NA,"SUPPRF06488"
"10",1697805679249,"20/10/2023 12:41:19",1697809279249,1,"20/10/2023 14:41:19",147683,3,"task-gjqt",NA,32380903,9577338,NA,"complete",NA,"6532739f2c4691903668628b","computer","Desktop or Laptop","Windows 10","Chrome 118.0.0.0","1536x1024","1536x867",NA,NA,0,"BIQ (Charlotte)",3,"CDBEAFJGIH","Passed AC2",NA,"Spreadsheet1",1,"BIQ","Screen 3","iz3the",3,"continue","",9524.63,9516.995,9524.63,9524.63,9516.995,9524.63,1,9524.63,0,0,NA,"Click To Continue","Continue Button",22,"object-73","BIQ",NA,"SUPPRF06488"
"11",1697805679250,"20/10/2023 12:41:19",1697809279250,1,"20/10/2023 14:41:19",147683,3,"task-gjqt",NA,32380903,9577338,NA,"complete",NA,"6532739f2c4691903668628b","computer","Desktop or Laptop","Windows 10","Chrome 118.0.0.0","1536x1024","1536x867",NA,NA,0,"BIQ (Charlotte)",3,"CDBEAFJGIH","Passed AC2",NA,"Spreadsheet1",1,"BIQ","Screen 3","iz3the",3,"response","1",2200.13299999999,9516.995,9525.52999999106,2200.13299999999,9516.995,9525.52999999106,1,2200.13299999999,7325.39699999106,0,NA,"Rating Scale","Rating Scale",2,"object-53","BIQ",NA,"SUPPRF06488"
"12",1697805679251,"20/10/2023 12:41:19",1697809279251,1,"20/10/2023 14:41:19",147683,3,"task-gjqt",NA,32380903,9577338,NA,"complete",NA,"6532739f2c4691903668628b","computer","Desktop or Laptop","Windows 10","Chrome 118.0.0.0","1536x1024","1536x867",NA,NA,0,"BIQ (Charlotte)",3,"CDBEAFJGIH","Passed AC2",NA,"Spreadsheet1",1,"BIQ","Screen 3","iz3the",3,"response","1",5917.905,9516.995,9526.42999999702,5917.905,9516.995,9526.42999999702,1,5917.905,3608.52499999702,0,NA,"Rating Scale","Rating Scale",9,"object-60","BIQ",NA,"SUPPRF06488"
"13",1697805679252,"20/10/2023 12:41:19",1697809279252,1,"20/10/2023 14:41:19",147683,3,"task-gjqt",NA,32380903,9577338,NA,"complete",NA,"6532739f2c4691903668628b","computer","Desktop or Laptop","Windows 10","Chrome 118.0.0.0","1536x1024","1536x867",NA,NA,0,"BIQ (Charlotte)",3,"CDBEAFJGIH","Passed AC2",NA,"Spreadsheet1",1,"BIQ","Screen 3","iz3the",3,"response","2",8000.416,9516.995,9527.32999998808,8000.416,9516.995,9527.32999998808,1,8000.416,1526.91399998808,0,NA,"Rating Scale","Rating Scale",16,"object-67","BIQ",NA,"SUPPRF06488"
"14",1697805679260,"20/10/2023 12:41:19",1697809279260,1,"20/10/2023 14:41:19",147683,3,"task-gjqt",NA,32380903,9577338,NA,"complete",NA,"6532739f2c4691903668628b","computer","Desktop or Laptop","Windows 10","Chrome 118.0.0.0","1536x1024","1536x867",NA,NA,0,"BIQ (Charlotte)",3,"CDBEAFJGIH","Passed AC2",NA,"Spreadsheet1",NA,"","","",NA,"5","END",NA,NA,NA,NA,NA,NA,0,NA,NA,NA,NA,"","",NA,"","",NA,"SUPPRF06488"
"1",1697805657233,"20/10/2023 12:40:57",1697809257233,1,"20/10/2023 14:40:57",147683,3,"task-gjqt",NA,32380908,9577396,NA,"complete",NA,"6532741adb139ac3ecdd48d4","computer","Desktop or Laptop","Mac OS 10.15.7","Chrome 117.0.0.0","1440x900","794x741",NA,NA,0,"BIQ (Charlotte)",3,"DECFBGAHJI","Passed AC2",NA,"Spreadsheet1",NA,"","","",NA,"5","BEGIN",NA,NA,NA,NA,NA,NA,0,NA,NA,NA,NA,"","",NA,"","",NA,"SUPPRF45081"
"2",1697805683295,"20/10/2023 12:41:23",1697809283295,1,"20/10/2023 14:41:23",147683,3,"task-gjqt",NA,32380908,9577396,NA,"complete",NA,"6532741adb139ac3ecdd48d4","computer","Desktop or Laptop","Mac OS 10.15.7","Chrome 117.0.0.0","1440x900","794x741",NA,NA,0,"BIQ (Charlotte)",3,"DECFBGAHJI","Passed AC2",NA,"Spreadsheet1",1,"BIQ","Screen 1","9dh6eq",1,"continue","",26083.132,26066.466,26083.132,26083.132,26066.466,26083.132,1,26083.132,0,0,NA,"Click To Continue","Continue Button",23,"object-48","BIQ",NA,"SUPPRF45081"
"3",1697805683298,"20/10/2023 12:41:23",1697809283298,1,"20/10/2023 14:41:23",147683,3,"task-gjqt",NA,32380908,9577396,NA,"complete",NA,"6532741adb139ac3ecdd48d4","computer","Desktop or Laptop","Mac OS 10.15.7","Chrome 117.0.0.0","1440x900","794x741",NA,NA,0,"BIQ (Charlotte)",3,"DECFBGAHJI","Passed AC2",NA,"Spreadsheet1",1,"BIQ","Screen 1","9dh6eq",1,"response","6",18399.869,26066.466,26083.132,18399.869,26066.466,26083.132,1,18399.869,7683.263,0,NA,"Rating Scale","Rating Scale",3,"object-5","BIQ",NA,"SUPPRF45081"
"4",1697805683299,"20/10/2023 12:41:23",1697809283299,1,"20/10/2023 14:41:23",147683,3,"task-gjqt",NA,32380908,9577396,NA,"complete",NA,"6532741adb139ac3ecdd48d4","computer","Desktop or Laptop","Mac OS 10.15.7","Chrome 117.0.0.0","1440x900","794x741",NA,NA,0,"BIQ (Charlotte)",3,"DECFBGAHJI","Passed AC2",NA,"Spreadsheet1",1,"BIQ","Screen 1","9dh6eq",1,"response","1",21549.743,26066.466,26083.132,21549.743,26066.466,26083.132,1,21549.743,4533.389,0,NA,"Rating Scale","Rating Scale",10,"object-18","BIQ",NA,"SUPPRF45081"
"5",1697805683300,"20/10/2023 12:41:23",1697809283300,1,"20/10/2023 14:41:23",147683,3,"task-gjqt",NA,32380908,9577396,NA,"complete",NA,"6532741adb139ac3ecdd48d4","computer","Desktop or Laptop","Mac OS 10.15.7","Chrome 117.0.0.0","1440x900","794x741",NA,NA,0,"BIQ (Charlotte)",3,"DECFBGAHJI","Passed AC2",NA,"Spreadsheet1",1,"BIQ","Screen 1","9dh6eq",1,"response","8",25316.496,26066.466,26083.132,25316.496,26066.466,26083.132,1,25316.496,766.636000000002,0,NA,"Rating Scale","Rating Scale",17,"object-80","BIQ",NA,"SUPPRF45081"
"6",1697805708781,"20/10/2023 12:41:48",1697809308781,1,"20/10/2023 14:41:48",147683,3,"task-gjqt",NA,32380908,9577396,NA,"complete",NA,"6532741adb139ac3ecdd48d4","computer","Desktop or Laptop","Mac OS 10.15.7","Chrome 117.0.0.0","1440x900","794x741",NA,NA,0,"BIQ (Charlotte)",3,"DECFBGAHJI","Passed AC2",NA,"Spreadsheet1",1,"BIQ","Screen 2","o21mwi",2,"continue","",25505.0239999881,25499.551,25505.0239999881,25505.0239999881,25499.551,25505.0239999881,1,25505.0239999881,0,0,NA,"Click To Continue","Continue Button",22,"object-50","BIQ",NA,"SUPPRF45081"
"7",1697805708787,"20/10/2023 12:41:48",1697809308787,1,"20/10/2023 14:41:48",147683,3,"task-gjqt",NA,32380908,9577396,NA,"complete",NA,"6532741adb139ac3ecdd48d4","computer","Desktop or Laptop","Mac OS 10.15.7","Chrome 117.0.0.0","1440x900","794x741",NA,NA,0,"BIQ (Charlotte)",3,"DECFBGAHJI","Passed AC2",NA,"Spreadsheet1",1,"BIQ","Screen 2","o21mwi",2,"response","4",6850.029,25499.551,25510.5239999881,6850.029,25499.551,25510.5239999881,1,6850.029,18660.4949999881,0,NA,"Rating Scale","Rating Scale",2,"object-259","BIQ",NA,"SUPPRF45081"
"8",1697805708788,"20/10/2023 12:41:48",1697809308788,1,"20/10/2023 14:41:48",147683,3,"task-gjqt",NA,32380908,9577396,NA,"complete",NA,"6532741adb139ac3ecdd48d4","computer","Desktop or Laptop","Mac OS 10.15.7","Chrome 117.0.0.0","1440x900","794x741",NA,NA,0,"BIQ (Charlotte)",3,"DECFBGAHJI","Passed AC2",NA,"Spreadsheet1",1,"BIQ","Screen 2","o21mwi",2,"response","8",10699.875,25499.551,25512.1240000119,10699.875,25499.551,25512.1240000119,1,10699.875,14812.2490000119,0,NA,"Rating Scale","Rating Scale",9,"object-36","BIQ",NA,"SUPPRF45081"
"9",1697805708788,"20/10/2023 12:41:48",1697809308788,1,"20/10/2023 14:41:48",147683,3,"task-gjqt",NA,32380908,9577396,NA,"complete",NA,"6532741adb139ac3ecdd48d4","computer","Desktop or Laptop","Mac OS 10.15.7","Chrome 117.0.0.0","1440x900","794x741",NA,NA,0,"BIQ (Charlotte)",3,"DECFBGAHJI","Passed AC2",NA,"Spreadsheet1",1,"BIQ","Screen 2","o21mwi",2,"response","7",24666.251,25499.551,25512.7239999762,24666.251,25499.551,25512.7239999762,1,24666.251,846.472999976155,0,NA,"Rating Scale","Rating Scale",16,"object-86","BIQ",NA,"SUPPRF45081"
"10",1697805726871,"20/10/2023 12:42:06",1697809326871,1,"20/10/2023 14:42:06",147683,3,"task-gjqt",NA,32380908,9577396,NA,"complete",NA,"6532741adb139ac3ecdd48d4","computer","Desktop or Laptop","Mac OS 10.15.7","Chrome 117.0.0.0","1440x900","794x741",NA,NA,0,"BIQ (Charlotte)",3,"DECFBGAHJI","Passed AC2",NA,"Spreadsheet1",1,"BIQ","Screen 3","iz3the",3,"continue","",18094.9729999881,18083.145,18094.9729999881,18094.9729999881,18083.145,18094.9729999881,1,18094.9729999881,0,0,NA,"Click To Continue","Continue Button",22,"object-73","BIQ",NA,"SUPPRF45081"
"11",1697805726876,"20/10/2023 12:42:06",1697809326876,1,"20/10/2023 14:42:06",147683,3,"task-gjqt",NA,32380908,9577396,NA,"complete",NA,"6532741adb139ac3ecdd48d4","computer","Desktop or Laptop","Mac OS 10.15.7","Chrome 117.0.0.0","1440x900","794x741",NA,NA,0,"BIQ (Charlotte)",3,"DECFBGAHJI","Passed AC2",NA,"Spreadsheet1",1,"BIQ","Screen 3","iz3the",3,"response","0",7349.975,18083.145,18099.811,7349.975,18083.145,18099.811,1,7349.975,10749.836,0,NA,"Rating Scale","Rating Scale",2,"object-53","BIQ",NA,"SUPPRF45081"
"12",1697805726878,"20/10/2023 12:42:06",1697809326878,1,"20/10/2023 14:42:06",147683,3,"task-gjqt",NA,32380908,9577396,NA,"complete",NA,"6532741adb139ac3ecdd48d4","computer","Desktop or Laptop","Mac OS 10.15.7","Chrome 117.0.0.0","1440x900","794x741",NA,NA,0,"BIQ (Charlotte)",3,"DECFBGAHJI","Passed AC2",NA,"Spreadsheet1",1,"BIQ","Screen 3","iz3the",3,"response","5",14666.615,18083.145,18099.811,14666.615,18083.145,18099.811,1,14666.615,3433.196,0,NA,"Rating Scale","Rating Scale",9,"object-60","BIQ",NA,"SUPPRF45081"
"13",1697805726880,"20/10/2023 12:42:06",1697809326880,1,"20/10/2023 14:42:06",147683,3,"task-gjqt",NA,32380908,9577396,NA,"complete",NA,"6532741adb139ac3ecdd48d4","computer","Desktop or Laptop","Mac OS 10.15.7","Chrome 117.0.0.0","1440x900","794x741",NA,NA,0,"BIQ (Charlotte)",3,"DECFBGAHJI","Passed AC2",NA,"Spreadsheet1",1,"BIQ","Screen 3","iz3the",3,"response","4",17333.175,18083.145,18099.811,17333.175,18083.145,18099.811,1,17333.175,766.635999999999,0,NA,"Rating Scale","Rating Scale",16,"object-67","BIQ",NA,"SUPPRF45081"
"14",1697805726888,"20/10/2023 12:42:06",1697809326888,1,"20/10/2023 14:42:06",147683,3,"task-gjqt",NA,32380908,9577396,NA,"complete",NA,"6532741adb139ac3ecdd48d4","computer","Desktop or Laptop","Mac OS 10.15.7","Chrome 117.0.0.0","1440x900","794x741",NA,NA,0,"BIQ (Charlotte)",3,"DECFBGAHJI","Passed AC2",NA,"Spreadsheet1",NA,"","","",NA,"5","END",NA,NA,NA,NA,NA,NA,0,NA,NA,NA,NA,"","",NA,"","",NA,"SUPPRF45081"
"1",1697805714653,"20/10/2023 12:41:54",1697809314653,1,"20/10/2023 14:41:54",147683,3,"task-gjqt",NA,32380929,9577244,NA,"complete",NA,"653272c16dd19336f4549895","computer","Desktop or Laptop","Windows 10","Chrome 118.0.0.0","1366x768","1366x619",NA,NA,0,"BIQ (Charlotte)",3,"BCADJEIFHG","Passed AC2",NA,"Spreadsheet1",NA,"","","",NA,"5","BEGIN",NA,NA,NA,NA,NA,NA,0,NA,NA,NA,NA,"","",NA,"","",NA,"SUPPRF78020"
"2",1697805761784,"20/10/2023 12:42:41",1697809361784,1,"20/10/2023 14:42:41",147683,3,"task-gjqt",NA,32380929,9577244,NA,"complete",NA,"653272c16dd19336f4549895","computer","Desktop or Laptop","Windows 10","Chrome 118.0.0.0","1366x768","1366x619",NA,NA,0,"BIQ (Charlotte)",3,"BCADJEIFHG","Passed AC2",NA,"Spreadsheet1",1,"BIQ","Screen 1","9dh6eq",1,"continue","",47137.5849999523,47129.828,47137.5849999523,47137.5849999523,47129.828,47137.5849999523,1,47137.5849999523,0,0,NA,"Click To Continue","Continue Button",23,"object-48","BIQ",NA,"SUPPRF78020"
"3",1697805761786,"20/10/2023 12:42:41",1697809361786,1,"20/10/2023 14:42:41",147683,3,"task-gjqt",NA,32380929,9577244,NA,"complete",NA,"653272c16dd19336f4549895","computer","Desktop or Laptop","Windows 10","Chrome 118.0.0.0","1366x768","1366x619",NA,NA,0,"BIQ (Charlotte)",3,"BCADJEIFHG","Passed AC2",NA,"Spreadsheet1",1,"BIQ","Screen 1","9dh6eq",1,"response","6",15465.514,47129.828,47140.785,15465.514,47129.828,47140.785,1,15465.514,31675.271,0,NA,"Rating Scale","Rating Scale",3,"object-5","BIQ",NA,"SUPPRF78020"
"4",1697805761787,"20/10/2023 12:42:41",1697809361787,1,"20/10/2023 14:42:41",147683,3,"task-gjqt",NA,32380929,9577244,NA,"complete",NA,"653272c16dd19336f4549895","computer","Desktop or Laptop","Windows 10","Chrome 118.0.0.0","1366x768","1366x619",NA,NA,0,"BIQ (Charlotte)",3,"BCADJEIFHG","Passed AC2",NA,"Spreadsheet1",1,"BIQ","Screen 1","9dh6eq",1,"response","6",38580.586,47129.828,47141.6849999762,38580.586,47129.828,47141.6849999762,1,38580.586,8561.09899997616,0,NA,"Rating Scale","Rating Scale",10,"object-18","BIQ",NA,"SUPPRF78020"
"5",1697805761787,"20/10/2023 12:42:41",1697809361787,1,"20/10/2023 14:42:41",147683,3,"task-gjqt",NA,32380929,9577244,NA,"complete",NA,"653272c16dd19336f4549895","computer","Desktop or Laptop","Windows 10","Chrome 118.0.0.0","1366x768","1366x619",NA,NA,0,"BIQ (Charlotte)",3,"BCADJEIFHG","Passed AC2",NA,"Spreadsheet1",1,"BIQ","Screen 1","9dh6eq",1,"response","2",45896.712,47129.828,47142.0849999523,45896.712,47129.828,47142.0849999523,1,45896.712,1245.37299995231,0,NA,"Rating Scale","Rating Scale",17,"object-80","BIQ",NA,"SUPPRF78020"
"6",1697805778208,"20/10/2023 12:42:58",1697809378208,1,"20/10/2023 14:42:58",147683,3,"task-gjqt",NA,32380929,9577244,NA,"complete",NA,"653272c16dd19336f4549895","computer","Desktop or Laptop","Windows 10","Chrome 118.0.0.0","1366x768","1366x619",NA,NA,0,"BIQ (Charlotte)",3,"BCADJEIFHG","Passed AC2",NA,"Spreadsheet1",1,"BIQ","Screen 2","o21mwi",2,"continue","",16432.295,16415.553,16432.295,16432.295,16415.553,16432.295,1,16432.295,0,0,NA,"Click To Continue","Continue Button",22,"object-50","BIQ",NA,"SUPPRF78020"
"7",1697805778210,"20/10/2023 12:42:58",1697809378210,1,"20/10/2023 14:42:58",147683,3,"task-gjqt",NA,32380929,9577244,NA,"complete",NA,"653272c16dd19336f4549895","computer","Desktop or Laptop","Windows 10","Chrome 118.0.0.0","1366x768","1366x619",NA,NA,0,"BIQ (Charlotte)",3,"BCADJEIFHG","Passed AC2",NA,"Spreadsheet1",1,"BIQ","Screen 2","o21mwi",2,"response","0",5633.025,16415.553,16432.295,5633.025,16415.553,16432.295,1,5633.025,10799.27,0,NA,"Rating Scale","Rating Scale",2,"object-259","BIQ",NA,"SUPPRF78020"
"8",1697805778211,"20/10/2023 12:42:58",1697809378211,1,"20/10/2023 14:42:58",147683,3,"task-gjqt",NA,32380929,9577244,NA,"complete",NA,"653272c16dd19336f4549895","computer","Desktop or Laptop","Windows 10","Chrome 118.0.0.0","1366x768","1366x619",NA,NA,0,"BIQ (Charlotte)",3,"BCADJEIFHG","Passed AC2",NA,"Spreadsheet1",1,"BIQ","Screen 2","o21mwi",2,"response","0",9199.43900000001,16415.553,16432.295,9199.43900000001,16415.553,16432.295,1,9199.43900000001,7232.85599999999,0,NA,"Rating Scale","Rating Scale",9,"object-36","BIQ",NA,"SUPPRF78020"
"9",1697805778212,"20/10/2023 12:42:58",1697809378212,1,"20/10/2023 14:42:58",147683,3,"task-gjqt",NA,32380929,9577244,NA,"complete",NA,"653272c16dd19336f4549895","computer","Desktop or Laptop","Windows 10","Chrome 118.0.0.0","1366x768","1366x619",NA,NA,0,"BIQ (Charlotte)",3,"BCADJEIFHG","Passed AC2",NA,"Spreadsheet1",1,"BIQ","Screen 2","o21mwi",2,"response","0",15048.995,16415.553,16432.295,15048.995,16415.553,16432.295,1,15048.995,1383.3,0,NA,"Rating Scale","Rating Scale",16,"object-86","BIQ",NA,"SUPPRF78020"
"10",1697805789794,"20/10/2023 12:43:09",1697809389794,1,"20/10/2023 14:43:09",147683,3,"task-gjqt",NA,32380929,9577244,NA,"complete",NA,"653272c16dd19336f4549895","computer","Desktop or Laptop","Windows 10","Chrome 118.0.0.0","1366x768","1366x619",NA,NA,0,"BIQ (Charlotte)",3,"BCADJEIFHG","Passed AC2",NA,"Spreadsheet1",1,"BIQ","Screen 3","iz3the",3,"continue","",11603.5039999046,11599.251,11603.5039999046,11603.5039999046,11599.251,11603.5039999046,1,11603.5039999046,0,0,NA,"Click To Continue","Continue Button",22,"object-73","BIQ",NA,"SUPPRF78020"
"11",1697805789798,"20/10/2023 12:43:09",1697809389798,1,"20/10/2023 14:43:09",147683,3,"task-gjqt",NA,32380929,9577244,NA,"complete",NA,"653272c16dd19336f4549895","computer","Desktop or Laptop","Windows 10","Chrome 118.0.0.0","1366x768","1366x619",NA,NA,0,"BIQ (Charlotte)",3,"BCADJEIFHG","Passed AC2",NA,"Spreadsheet1",1,"BIQ","Screen 3","iz3the",3,"response","0",5716.221,11599.251,11606.904,5716.221,11599.251,11606.904,1,5716.221,5890.683,0,NA,"Rating Scale","Rating Scale",2,"object-53","BIQ",NA,"SUPPRF78020"
"12",1697805789798,"20/10/2023 12:43:09",1697809389798,1,"20/10/2023 14:43:09",147683,3,"task-gjqt",NA,32380929,9577244,NA,"complete",NA,"653272c16dd19336f4549895","computer","Desktop or Laptop","Windows 10","Chrome 118.0.0.0","1366x768","1366x619",NA,NA,0,"BIQ (Charlotte)",3,"BCADJEIFHG","Passed AC2",NA,"Spreadsheet1",1,"BIQ","Screen 3","iz3the",3,"response","0",8265.946,11599.251,11607.6039999285,8265.946,11599.251,11607.6039999285,1,8265.946,3341.65799992847,0,NA,"Rating Scale","Rating Scale",9,"object-60","BIQ",NA,"SUPPRF78020"
"13",1697805789799,"20/10/2023 12:43:09",1697809389799,1,"20/10/2023 14:43:09",147683,3,"task-gjqt",NA,32380929,9577244,NA,"complete",NA,"653272c16dd19336f4549895","computer","Desktop or Laptop","Windows 10","Chrome 118.0.0.0","1366x768","1366x619",NA,NA,0,"BIQ (Charlotte)",3,"BCADJEIFHG","Passed AC2",NA,"Spreadsheet1",1,"BIQ","Screen 3","iz3the",3,"response","0",10415.926,11599.251,11608.2039999523,10415.926,11599.251,11608.2039999523,1,10415.926,1192.27799995232,0,NA,"Rating Scale","Rating Scale",16,"object-67","BIQ",NA,"SUPPRF78020"
"14",1697805789804,"20/10/2023 12:43:09",1697809389804,1,"20/10/2023 14:43:09",147683,3,"task-gjqt",NA,32380929,9577244,NA,"complete",NA,"653272c16dd19336f4549895","computer","Desktop or Laptop","Windows 10","Chrome 118.0.0.0","1366x768","1366x619",NA,NA,0,"BIQ (Charlotte)",3,"BCADJEIFHG","Passed AC2",NA,"Spreadsheet1",NA,"","","",NA,"5","END",NA,NA,NA,NA,NA,NA,0,NA,NA,NA,NA,"","",NA,"","",NA,"SUPPRF78020"
"1",1697805917387,"20/10/2023 12:45:17",1697809517387,1,"20/10/2023 14:45:17",147683,3,"task-gjqt",NA,32381039,9577484,NA,"complete",NA,"653274e0a37f4de4ab6817c9","computer","Desktop or Laptop","Windows 10","Chrome 117.0.0.0","1920x1080","1920x963",NA,NA,0,"BIQ (Charlotte)",3,"HIGJFAEBDC","Passed AC2",NA,"Spreadsheet1",NA,"","","",NA,"5","BEGIN",NA,NA,NA,NA,NA,NA,0,NA,NA,NA,NA,"","",NA,"","",NA,"SUPPRF56321"
"2",1697805966468,"20/10/2023 12:46:06",1697809566468,1,"20/10/2023 14:46:06",147683,3,"task-gjqt",NA,32381039,9577484,NA,"complete",NA,"653274e0a37f4de4ab6817c9","computer","Desktop or Laptop","Windows 10","Chrome 117.0.0.0","1920x1080","1920x963",NA,NA,0,"BIQ (Charlotte)",3,"HIGJFAEBDC","Passed AC2",NA,"Spreadsheet1",NA,"","","",NA,"5","BEGIN",NA,NA,NA,NA,NA,NA,0,NA,NA,NA,NA,"","",NA,"","",NA,"SUPPRF56321"
"3",1697805979327,"20/10/2023 12:46:19",1697809579327,1,"20/10/2023 14:46:19",147683,3,"task-gjqt",NA,32381039,9577484,NA,"complete",NA,"653274e0a37f4de4ab6817c9","computer","Desktop or Laptop","Windows 10","Chrome 117.0.0.0","1920x1080","1920x963",NA,NA,0,"BIQ (Charlotte)",3,"HIGJFAEBDC","Passed AC2",NA,"Spreadsheet1",1,"BIQ","Screen 1","9dh6eq",1,"continue","",12881.131,12864.417,12881.131,12881.131,12864.417,12881.131,1,12881.131,0,0,NA,"Click To Continue","Continue Button",23,"object-48","BIQ",NA,"SUPPRF56321"
"4",1697805979335,"20/10/2023 12:46:19",1697809579335,1,"20/10/2023 14:46:19",147683,3,"task-gjqt",NA,32381039,9577484,NA,"complete",NA,"653274e0a37f4de4ab6817c9","computer","Desktop or Laptop","Windows 10","Chrome 117.0.0.0","1920x1080","1920x963",NA,NA,0,"BIQ (Charlotte)",3,"HIGJFAEBDC","Passed AC2",NA,"Spreadsheet1",1,"BIQ","Screen 1","9dh6eq",1,"response","7",5422.71,12864.417,12881.131,5422.71,12864.417,12881.131,1,5422.71,7458.421,0,NA,"Rating Scale","Rating Scale",3,"object-5","BIQ",NA,"SUPPRF56321"
"5",1697805979337,"20/10/2023 12:46:19",1697809579337,1,"20/10/2023 14:46:19",147683,3,"task-gjqt",NA,32381039,9577484,NA,"complete",NA,"653274e0a37f4de4ab6817c9","computer","Desktop or Laptop","Windows 10","Chrome 117.0.0.0","1920x1080","1920x963",NA,NA,0,"BIQ (Charlotte)",3,"HIGJFAEBDC","Passed AC2",NA,"Spreadsheet1",1,"BIQ","Screen 1","9dh6eq",1,"response","6",7274.79,12864.417,12881.131,7274.79,12864.417,12881.131,1,7274.79,5606.341,0,NA,"Rating Scale","Rating Scale",10,"object-18","BIQ",NA,"SUPPRF56321"
"6",1697805979338,"20/10/2023 12:46:19",1697809579338,1,"20/10/2023 14:46:19",147683,3,"task-gjqt",NA,32381039,9577484,NA,"complete",NA,"653274e0a37f4de4ab6817c9","computer","Desktop or Laptop","Windows 10","Chrome 117.0.0.0","1920x1080","1920x963",NA,NA,0,"BIQ (Charlotte)",3,"HIGJFAEBDC","Passed AC2",NA,"Spreadsheet1",1,"BIQ","Screen 1","9dh6eq",1,"response","4",10995.641,12864.417,12881.131,10995.641,12864.417,12881.131,1,10995.641,1885.49,0,NA,"Rating Scale","Rating Scale",17,"object-80","BIQ",NA,"SUPPRF56321"
"7",1697806015754,"20/10/2023 12:46:55",1697809615754,1,"20/10/2023 14:46:55",147683,3,"task-gjqt",NA,32381039,9577484,NA,"complete",NA,"653274e0a37f4de4ab6817c9","computer","Desktop or Laptop","Windows 10","Chrome 117.0.0.0","1920x1080","1920x963",NA,NA,0,"BIQ (Charlotte)",3,"HIGJFAEBDC","Passed AC2",NA,"Spreadsheet1",1,"BIQ","Screen 2","o21mwi",2,"continue","",36451.194,36440.842,36451.194,36451.194,36440.842,36451.194,1,36451.194,0,0,NA,"Click To Continue","Continue Button",22,"object-50","BIQ",NA,"SUPPRF56321"
"8",1697806015764,"20/10/2023 12:46:55",1697809615764,1,"20/10/2023 14:46:55",147683,3,"task-gjqt",NA,32381039,9577484,NA,"complete",NA,"653274e0a37f4de4ab6817c9","computer","Desktop or Laptop","Windows 10","Chrome 117.0.0.0","1920x1080","1920x963",NA,NA,0,"BIQ (Charlotte)",3,"HIGJFAEBDC","Passed AC2",NA,"Spreadsheet1",1,"BIQ","Screen 2","o21mwi",2,"response","7",9443.89,36440.842,36457.513,9443.89,36440.842,36457.513,1,9443.89,27013.623,0,NA,"Rating Scale","Rating Scale",2,"object-259","BIQ",NA,"SUPPRF56321"
"9",1697806015765,"20/10/2023 12:46:55",1697809615765,1,"20/10/2023 14:46:55",147683,3,"task-gjqt",NA,32381039,9577484,NA,"complete",NA,"653274e0a37f4de4ab6817c9","computer","Desktop or Laptop","Windows 10","Chrome 117.0.0.0","1920x1080","1920x963",NA,NA,0,"BIQ (Charlotte)",3,"HIGJFAEBDC","Passed AC2",NA,"Spreadsheet1",1,"BIQ","Screen 2","o21mwi",2,"response","1",19939.011,36440.842,36457.513,19939.011,36440.842,36457.513,1,19939.011,16518.502,0,NA,"Rating Scale","Rating Scale",9,"object-36","BIQ",NA,"SUPPRF56321"
"10",1697806015768,"20/10/2023 12:46:55",1697809615768,1,"20/10/2023 14:46:55",147683,3,"task-gjqt",NA,32381039,9577484,NA,"complete",NA,"653274e0a37f4de4ab6817c9","computer","Desktop or Laptop","Windows 10","Chrome 117.0.0.0","1920x1080","1920x963",NA,NA,0,"BIQ (Charlotte)",3,"HIGJFAEBDC","Passed AC2",NA,"Spreadsheet1",1,"BIQ","Screen 2","o21mwi",2,"response","0",35956.946,36440.842,36457.513,35956.946,36440.842,36457.513,1,35956.946,500.56700000001,0,NA,"Rating Scale","Rating Scale",16,"object-86","BIQ",NA,"SUPPRF56321"
"11",1697806046667,"20/10/2023 12:47:26",1697809646667,1,"20/10/2023 14:47:26",147683,3,"task-gjqt",NA,32381039,9577484,NA,"complete",NA,"653274e0a37f4de4ab6817c9","computer","Desktop or Laptop","Windows 10","Chrome 117.0.0.0","1920x1080","1920x963",NA,NA,0,"BIQ (Charlotte)",3,"HIGJFAEBDC","Passed AC2",NA,"Spreadsheet1",1,"BIQ","Screen 3","iz3the",3,"continue","",30922.752000006,30918.015,30922.752000006,30922.752000006,30918.015,30922.752000006,1,30922.752000006,0,0,NA,"Click To Continue","Continue Button",22,"object-73","BIQ",NA,"SUPPRF56321"
"12",1697806046676,"20/10/2023 12:47:26",1697809646676,1,"20/10/2023 14:47:26",147683,3,"task-gjqt",NA,32381039,9577484,NA,"complete",NA,"653274e0a37f4de4ab6817c9","computer","Desktop or Laptop","Windows 10","Chrome 117.0.0.0","1920x1080","1920x963",NA,NA,0,"BIQ (Charlotte)",3,"HIGJFAEBDC","Passed AC2",NA,"Spreadsheet1",1,"BIQ","Screen 3","iz3the",3,"response","0",13915.577,30918.015,30932.852,13915.577,30918.015,30932.852,1,13915.577,17017.275,0,NA,"Rating Scale","Rating Scale",2,"object-53","BIQ",NA,"SUPPRF56321"
