"Event.Index","UTC.Timestamp","UTC.Date.and.Time","Local.Timestamp","Local.Timezone","Local.Date.and.Time","Experiment.ID","Experiment.Version","Tree.Node.Key","Repeat.Key","Schedule.ID","Participant.Private.ID","Participant.Starting.Group","Participant.Status","Participant.Completion.Code","Participant.External.Session.ID","Participant.Device.Type","Participant.Device","Participant.OS","Participant.Browser","Participant.Monitor.Size","Participant.Viewport.Size","Checkpoint","Room.ID","Room.Order","Task.Name","Task.Version","order.ot79","branch.g31k","branch.5gtn","Spreadsheet","Trial.Number","Display","Screen","Screen.ID","Screen.Counter","Response.Type","Response","Onset.Time","Clock.Time","Reaction.Time","Absolute.Onset.Time","Absolute.Clock.Time","Absolute.Reaction.Time","Correct","Response.Onset","Response.Duration","Proportion","Tag","Component.Name","Object.Name","Object.Number","Object.ID","Spreadsheet..display","Manipulation..Spreadsheet","Random_ID"
"1",1711374057501,"25/03/2024 13:40:57",1711359657501,-4,"25/03/2024 05:40:57",172741,4,"task-7hcp",NA,36416032,10748550,NA,"complete",NA,"66017d3ddf20d46323ba2ab7","computer","Desktop or Laptop","Windows 10","Chrome 123.0.0.0","1280x720","1280x598",NA,NA,0,"BIQ (Charlotte)",5,"ABICHDGEF","Passed AC2","","Spreadsheet1",NA,"","","",NA,"5","BEGIN",NA,NA,NA,NA,NA,NA,0,NA,NA,NA,NA,"","",NA,"","",NA,"SUPPRF97228"
"2",1711374088038,"25/03/2024 13:41:28",1711359688038,-4,"25/03/2024 05:41:28",172741,4,"task-7hcp",NA,36416032,10748550,NA,"complete",NA,"66017d3ddf20d46323ba2ab7","computer","Desktop or Laptop","Windows 10","Chrome 123.0.0.0","1280x720","1280x598",NA,NA,0,"BIQ (Charlotte)",5,"ABICHDGEF","Passed AC2","","Spreadsheet1",1,"BIQ","Screen 1","9dh6eq",1,"continue","",30556.288,30539.688,30556.288,30556.288,30539.688,30556.288,1,30556.288,0,0,NA,"Click To Continue","Continue Button",16,"object-48","BIQ",NA,"SUPPRF97228"
"3",1711374088040,"25/03/2024 13:41:28",1711359688040,-4,"25/03/2024 05:41:28",172741,4,"task-7hcp",NA,36416032,10748550,NA,"complete",NA,"66017d3ddf20d46323ba2ab7","computer","Desktop or Laptop","Windows 10","Chrome 123.0.0.0","1280x720","1280x598",NA,NA,0,"BIQ (Charlotte)",5,"ABICHDGEF","Passed AC2","","Spreadsheet1",1,"BIQ","Screen 1","9dh6eq",1,"response","7",18227.288,30539.688,30556.288,18227.288,30539.688,30556.288,1,18227.288,12329,0,NA,"Rating Scale","Rating Scale",3,"object-5","BIQ",NA,"SUPPRF97228"
"4",1711374088041,"25/03/2024 13:41:28",1711359688041,-4,"25/03/2024 05:41:28",172741,4,"task-7hcp",NA,36416032,10748550,NA,"complete",NA,"66017d3ddf20d46323ba2ab7","computer","Desktop or Laptop","Windows 10","Chrome 123.0.0.0","1280x720","1280x598",NA,NA,0,"BIQ (Charlotte)",5,"ABICHDGEF","Passed AC2","","Spreadsheet1",1,"BIQ","Screen 1","9dh6eq",1,"response","7",29706.588,30539.688,30556.288,29706.588,30539.688,30556.288,1,29706.588,849.700000000012,0,NA,"Rating Scale","Rating Scale",10,"object-18","BIQ",NA,"SUPPRF97228"
"5",1711374099217,"25/03/2024 13:41:39",1711359699217,-4,"25/03/2024 05:41:39",172741,4,"task-7hcp",NA,36416032,10748550,NA,"complete",NA,"66017d3ddf20d46323ba2ab7","computer","Desktop or Laptop","Windows 10","Chrome 123.0.0.0","1280x720","1280x598",NA,NA,0,"BIQ (Charlotte)",5,"ABICHDGEF","Passed AC2","","Spreadsheet1",1,"BIQ","Screen 2","svpz34",2,"continue","",11196.6,11179.9,11196.6,11196.6,11179.9,11196.6,1,11196.6,0,0,NA,"Click To Continue","Continue Button",7,"object-1017","BIQ",NA,"SUPPRF97228"
"6",1711374099219,"25/03/2024 13:41:39",1711359699219,-4,"25/03/2024 05:41:39",172741,4,"task-7hcp",NA,36416032,10748550,NA,"complete",NA,"66017d3ddf20d46323ba2ab7","computer","Desktop or Laptop","Windows 10","Chrome 123.0.0.0","1280x720","1280x598",NA,NA,0,"BIQ (Charlotte)",5,"ABICHDGEF","Passed AC2","","Spreadsheet1",1,"BIQ","Screen 2","svpz34",2,"response","0",4548.3,11179.9,11196.6,4548.3,11179.9,11196.6,1,4548.3,6648.3,0,NA,"Rating Scale","Rating Scale",8,"object-118","BIQ",NA,"SUPPRF97228"
"7",1711374099220,"25/03/2024 13:41:39",1711359699220,-4,"25/03/2024 05:41:39",172741,4,"task-7hcp",NA,36416032,10748550,NA,"complete",NA,"66017d3ddf20d46323ba2ab7","computer","Desktop or Laptop","Windows 10","Chrome 123.0.0.0","1280x720","1280x598",NA,NA,0,"BIQ (Charlotte)",5,"ABICHDGEF","Passed AC2","","Spreadsheet1",1,"BIQ","Screen 2","svpz34",2,"response","7",8414.2,11179.9,11196.6,8414.2,11179.9,11196.6,1,8414.2,2782.39999999999,0,NA,"Rating Scale","Rating Scale",10,"object-121","BIQ",NA,"SUPPRF97228"
"8",1711374116611,"25/03/2024 13:41:56",1711359716611,-4,"25/03/2024 05:41:56",172741,4,"task-7hcp",NA,36416032,10748550,NA,"complete",NA,"66017d3ddf20d46323ba2ab7","computer","Desktop or Laptop","Windows 10","Chrome 123.0.0.0","1280x720","1280x598",NA,NA,0,"BIQ (Charlotte)",5,"ABICHDGEF","Passed AC2","","Spreadsheet1",1,"BIQ","Screen 3","o21mwi",3,"continue","",17410.8,17394.3,17410.8,17410.8,17394.3,17410.8,1,17410.8,0,0,NA,"Click To Continue","Continue Button",15,"object-50","BIQ",NA,"SUPPRF97228"
"9",1711374116613,"25/03/2024 13:41:56",1711359716613,-4,"25/03/2024 05:41:56",172741,4,"task-7hcp",NA,36416032,10748550,NA,"complete",NA,"66017d3ddf20d46323ba2ab7","computer","Desktop or Laptop","Windows 10","Chrome 123.0.0.0","1280x720","1280x598",NA,NA,0,"BIQ (Charlotte)",5,"ABICHDGEF","Passed AC2","","Spreadsheet1",1,"BIQ","Screen 3","o21mwi",3,"response","0",4481.5,17394.3,17410.8,4481.5,17394.3,17410.8,1,4481.5,12929.3,0,NA,"Rating Scale","Rating Scale",2,"object-36","BIQ",NA,"SUPPRF97228"
"10",1711374116614,"25/03/2024 13:41:56",1711359716614,-4,"25/03/2024 05:41:56",172741,4,"task-7hcp",NA,36416032,10748550,NA,"complete",NA,"66017d3ddf20d46323ba2ab7","computer","Desktop or Laptop","Windows 10","Chrome 123.0.0.0","1280x720","1280x598",NA,NA,0,"BIQ (Charlotte)",5,"ABICHDGEF","Passed AC2","","Spreadsheet1",1,"BIQ","Screen 3","o21mwi",3,"response","2",10279.9,17394.3,17410.8,10279.9,17394.3,17410.8,1,10279.9,7130.9,0,NA,"Rating Scale","Rating Scale",9,"object-86","BIQ",NA,"SUPPRF97228"
"11",1711374127464,"25/03/2024 13:42:07",1711359727464,-4,"25/03/2024 05:42:07",172741,4,"task-7hcp",NA,36416032,10748550,NA,"complete",NA,"66017d3ddf20d46323ba2ab7","computer","Desktop or Laptop","Windows 10","Chrome 123.0.0.0","1280x720","1280x598",NA,NA,0,"BIQ (Charlotte)",5,"ABICHDGEF","Passed AC2","","Spreadsheet1",1,"BIQ","Screen 4","iz3the",4,"continue","",10862.8,10846.1,10862.8,10862.8,10846.1,10862.8,1,10862.8,0,0,NA,"Click To Continue","Continue Button",22,"object-73","BIQ",NA,"SUPPRF97228"
"12",1711374127466,"25/03/2024 13:42:07",1711359727466,-4,"25/03/2024 05:42:07",172741,4,"task-7hcp",NA,36416032,10748550,NA,"complete",NA,"66017d3ddf20d46323ba2ab7","computer","Desktop or Laptop","Windows 10","Chrome 123.0.0.0","1280x720","1280x598",NA,NA,0,"BIQ (Charlotte)",5,"ABICHDGEF","Passed AC2","","Spreadsheet1",1,"BIQ","Screen 4","iz3the",4,"response","0",4598.2,10846.1,10862.8,4598.2,10846.1,10862.8,1,4598.2,6264.60000000002,0,NA,"Rating Scale","Rating Scale",2,"object-53","BIQ",NA,"SUPPRF97228"
"13",1711374127467,"25/03/2024 13:42:07",1711359727467,-4,"25/03/2024 05:42:07",172741,4,"task-7hcp",NA,36416032,10748550,NA,"complete",NA,"66017d3ddf20d46323ba2ab7","computer","Desktop or Laptop","Windows 10","Chrome 123.0.0.0","1280x720","1280x598",NA,NA,0,"BIQ (Charlotte)",5,"ABICHDGEF","Passed AC2","","Spreadsheet1",1,"BIQ","Screen 4","iz3the",4,"response","0",6847.5,10846.1,10862.8,6847.5,10846.1,10862.8,1,6847.5,4015.30000000002,0,NA,"Rating Scale","Rating Scale",9,"object-60","BIQ",NA,"SUPPRF97228"
"14",1711374127467,"25/03/2024 13:42:07",1711359727467,-4,"25/03/2024 05:42:07",172741,4,"task-7hcp",NA,36416032,10748550,NA,"complete",NA,"66017d3ddf20d46323ba2ab7","computer","Desktop or Laptop","Windows 10","Chrome 123.0.0.0","1280x720","1280x598",NA,NA,0,"BIQ (Charlotte)",5,"ABICHDGEF","Passed AC2","","Spreadsheet1",1,"BIQ","Screen 4","iz3the",4,"response","0",9996.60000000001,10846.1,10862.8,9996.60000000001,10846.1,10862.8,1,9996.60000000001,866.200000000012,0,NA,"Rating Scale","Rating Scale",16,"object-67","BIQ",NA,"SUPPRF97228"
"15",1711374127469,"25/03/2024 13:42:07",1711359727469,-4,"25/03/2024 05:42:07",172741,4,"task-7hcp",NA,36416032,10748550,NA,"complete",NA,"66017d3ddf20d46323ba2ab7","computer","Desktop or Laptop","Windows 10","Chrome 123.0.0.0","1280x720","1280x598",NA,NA,0,"BIQ (Charlotte)",5,"ABICHDGEF","Passed AC2","","Spreadsheet1",NA,"","","",NA,"5","END",NA,NA,NA,NA,NA,NA,0,NA,NA,NA,NA,"","",NA,"","",NA,"SUPPRF97228"
"1",1711375740827,"25/03/2024 14:09:00",1711375740827,0,"25/03/2024 14:09:00",172741,4,"task-7hcp",NA,36418051,10748886,NA,"complete",NA,"660182ca861e0cd143091963","computer","Desktop or Laptop","Mac OS 10.15.7","Chrome 116.0.0.0","1440x900","1440x815",NA,NA,0,"BIQ (Charlotte)",5,"CDBEAFIGH","Passed AC2","","Spreadsheet1",NA,"","","",NA,"5","BEGIN",NA,NA,NA,NA,NA,NA,0,NA,NA,NA,NA,"","",NA,"","",NA,"SUPPRF95311"
"2",1711375775328,"25/03/2024 14:09:35",1711375775328,0,"25/03/2024 14:09:35",172741,4,"task-7hcp",NA,36418051,10748886,NA,"complete",NA,"660182ca861e0cd143091963","computer","Desktop or Laptop","Mac OS 10.15.7","Chrome 116.0.0.0","1440x900","1440x815",NA,NA,0,"BIQ (Charlotte)",5,"CDBEAFIGH","Passed AC2","","Spreadsheet1",1,"BIQ","Screen 1","9dh6eq",1,"continue","",34528.8160000954,34518.942,34528.8160000954,34528.8160000954,34518.942,34528.8160000954,1,34528.8160000954,0,0,NA,"Click To Continue","Continue Button",16,"object-48","BIQ",NA,"SUPPRF95311"
"3",1711375775333,"25/03/2024 14:09:35",1711375775333,0,"25/03/2024 14:09:35",172741,4,"task-7hcp",NA,36418051,10748886,NA,"complete",NA,"660182ca861e0cd143091963","computer","Desktop or Laptop","Mac OS 10.15.7","Chrome 116.0.0.0","1440x900","1440x815",NA,NA,0,"BIQ (Charlotte)",5,"CDBEAFIGH","Passed AC2","","Spreadsheet1",1,"BIQ","Screen 1","9dh6eq",1,"response","7",26668.28,34518.942,34535.0160000238,26668.28,34518.942,34535.0160000238,1,26668.28,7866.73600002384,0,NA,"Rating Scale","Rating Scale",3,"object-5","BIQ",NA,"SUPPRF95311"
"4",1711375775334,"25/03/2024 14:09:35",1711375775334,0,"25/03/2024 14:09:35",172741,4,"task-7hcp",NA,36418051,10748886,NA,"complete",NA,"660182ca861e0cd143091963","computer","Desktop or Laptop","Mac OS 10.15.7","Chrome 116.0.0.0","1440x900","1440x815",NA,NA,0,"BIQ (Charlotte)",5,"CDBEAFIGH","Passed AC2","","Spreadsheet1",1,"BIQ","Screen 1","9dh6eq",1,"response","6",33352.252,34518.942,34535.609,33352.252,34518.942,34535.609,1,33352.252,1183.357,0,NA,"Rating Scale","Rating Scale",10,"object-18","BIQ",NA,"SUPPRF95311"
"5",1711375786424,"25/03/2024 14:09:46",1711375786424,0,"25/03/2024 14:09:46",172741,4,"task-7hcp",NA,36418051,10748886,NA,"complete",NA,"660182ca861e0cd143091963","computer","Desktop or Laptop","Mac OS 10.15.7","Chrome 116.0.0.0","1440x900","1440x815",NA,NA,0,"BIQ (Charlotte)",5,"CDBEAFIGH","Passed AC2","","Spreadsheet1",1,"BIQ","Screen 2","svpz34",2,"continue","",11106.2740000715,11100.602,11106.2740000715,11106.2740000715,11100.602,11106.2740000715,1,11106.2740000715,0,0,NA,"Click To Continue","Continue Button",7,"object-1017","BIQ",NA,"SUPPRF95311"
"6",1711375786427,"25/03/2024 14:09:46",1711375786427,0,"25/03/2024 14:09:46",172741,4,"task-7hcp",NA,36418051,10748886,NA,"complete",NA,"660182ca861e0cd143091963","computer","Desktop or Laptop","Mac OS 10.15.7","Chrome 116.0.0.0","1440x900","1440x815",NA,NA,0,"BIQ (Charlotte)",5,"CDBEAFIGH","Passed AC2","","Spreadsheet1",1,"BIQ","Screen 2","svpz34",2,"response","0",4867.144,11100.602,11109.8740000954,4867.144,11100.602,11109.8740000954,1,4867.144,6242.73000009537,0,NA,"Rating Scale","Rating Scale",8,"object-118","BIQ",NA,"SUPPRF95311"
"7",1711375786429,"25/03/2024 14:09:46",1711375786429,0,"25/03/2024 14:09:46",172741,4,"task-7hcp",NA,36418051,10748886,NA,"complete",NA,"660182ca861e0cd143091963","computer","Desktop or Laptop","Mac OS 10.15.7","Chrome 116.0.0.0","1440x900","1440x815",NA,NA,0,"BIQ (Charlotte)",5,"CDBEAFIGH","Passed AC2","","Spreadsheet1",1,"BIQ","Screen 2","svpz34",2,"response","8",8617.219,11100.602,11111.474,8617.219,11100.602,11111.474,1,8617.219,2494.255,0,NA,"Rating Scale","Rating Scale",10,"object-121","BIQ",NA,"SUPPRF95311"
"8",1711375803006,"25/03/2024 14:10:03",1711375803006,0,"25/03/2024 14:10:03",172741,4,"task-7hcp",NA,36418051,10748886,NA,"complete",NA,"660182ca861e0cd143091963","computer","Desktop or Laptop","Mac OS 10.15.7","Chrome 116.0.0.0","1440x900","1440x815",NA,NA,0,"BIQ (Charlotte)",5,"CDBEAFIGH","Passed AC2","","Spreadsheet1",1,"BIQ","Screen 3","o21mwi",3,"continue","",16587.7720000954,16584.743,16587.7720000954,16587.7720000954,16584.743,16587.7720000954,1,16587.7720000954,0,0,NA,"Click To Continue","Continue Button",15,"object-50","BIQ",NA,"SUPPRF95311"
"9",1711375803010,"25/03/2024 14:10:03",1711375803010,0,"25/03/2024 14:10:03",172741,4,"task-7hcp",NA,36418051,10748886,NA,"complete",NA,"660182ca861e0cd143091963","computer","Desktop or Laptop","Mac OS 10.15.7","Chrome 116.0.0.0","1440x900","1440x815",NA,NA,0,"BIQ (Charlotte)",5,"CDBEAFIGH","Passed AC2","","Spreadsheet1",1,"BIQ","Screen 3","o21mwi",3,"response","0",5484.00700000001,16584.743,16591.1720000715,5484.00700000001,16584.743,16591.1720000715,1,5484.00700000001,11107.1650000715,0,NA,"Rating Scale","Rating Scale",2,"object-36","BIQ",NA,"SUPPRF95311"
"10",1711375803012,"25/03/2024 14:10:03",1711375803012,0,"25/03/2024 14:10:03",172741,4,"task-7hcp",NA,36418051,10748886,NA,"complete",NA,"660182ca861e0cd143091963","computer","Desktop or Laptop","Mac OS 10.15.7","Chrome 116.0.0.0","1440x900","1440x815",NA,NA,0,"BIQ (Charlotte)",5,"CDBEAFIGH","Passed AC2","","Spreadsheet1",1,"BIQ","Screen 3","o21mwi",3,"response","0",15618.057,16584.743,16592.7720000954,15618.057,16584.743,16592.7720000954,1,15618.057,974.71500009537,0,NA,"Rating Scale","Rating Scale",9,"object-86","BIQ",NA,"SUPPRF95311"
"11",1711375818236,"25/03/2024 14:10:18",1711375818236,0,"25/03/2024 14:10:18",172741,4,"task-7hcp",NA,36418051,10748886,NA,"complete",NA,"660182ca861e0cd143091963","computer","Desktop or Laptop","Mac OS 10.15.7","Chrome 116.0.0.0","1440x900","1440x815",NA,NA,0,"BIQ (Charlotte)",5,"CDBEAFIGH","Passed AC2","","Spreadsheet1",1,"BIQ","Screen 4","iz3the",4,"continue","",15232.129,15217.949,15232.129,15232.129,15217.949,15232.129,1,15232.129,0,0,NA,"Click To Continue","Continue Button",22,"object-73","BIQ",NA,"SUPPRF95311"
"12",1711375818240,"25/03/2024 14:10:18",1711375818240,0,"25/03/2024 14:10:18",172741,4,"task-7hcp",NA,36418051,10748886,NA,"complete",NA,"660182ca861e0cd143091963","computer","Desktop or Laptop","Mac OS 10.15.7","Chrome 116.0.0.0","1440x900","1440x815",NA,NA,0,"BIQ (Charlotte)",5,"CDBEAFIGH","Passed AC2","","Spreadsheet1",1,"BIQ","Screen 4","iz3the",4,"response","0",4533.424,15217.949,15234.616,4533.424,15217.949,15234.616,1,4533.424,10701.192,0,NA,"Rating Scale","Rating Scale",2,"object-53","BIQ",NA,"SUPPRF95311"
"13",1711375818241,"25/03/2024 14:10:18",1711375818241,0,"25/03/2024 14:10:18",172741,4,"task-7hcp",NA,36418051,10748886,NA,"complete",NA,"660182ca861e0cd143091963","computer","Desktop or Laptop","Mac OS 10.15.7","Chrome 116.0.0.0","1440x900","1440x815",NA,NA,0,"BIQ (Charlotte)",5,"CDBEAFIGH","Passed AC2","","Spreadsheet1",1,"BIQ","Screen 4","iz3the",4,"response","0",9667.37,15217.949,15234.616,9667.37,15217.949,15234.616,1,9667.37,5567.24600000001,0,NA,"Rating Scale","Rating Scale",9,"object-60","BIQ",NA,"SUPPRF95311"
"14",1711375818242,"25/03/2024 14:10:18",1711375818242,0,"25/03/2024 14:10:18",172741,4,"task-7hcp",NA,36418051,10748886,NA,"complete",NA,"660182ca861e0cd143091963","computer","Desktop or Laptop","Mac OS 10.15.7","Chrome 116.0.0.0","1440x900","1440x815",NA,NA,0,"BIQ (Charlotte)",5,"CDBEAFIGH","Passed AC2","","Spreadsheet1",1,"BIQ","Screen 4","iz3the",4,"response","0",14350.797,15217.949,15234.616,14350.797,15217.949,15234.616,1,14350.797,883.819000000003,0,NA,"Rating Scale","Rating Scale",16,"object-67","BIQ",NA,"SUPPRF95311"
"15",1711375818244,"25/03/2024 14:10:18",1711375818244,0,"25/03/2024 14:10:18",172741,4,"task-7hcp",NA,36418051,10748886,NA,"complete",NA,"660182ca861e0cd143091963","computer","Desktop or Laptop","Mac OS 10.15.7","Chrome 116.0.0.0","1440x900","1440x815",NA,NA,0,"BIQ (Charlotte)",5,"CDBEAFIGH","Passed AC2","","Spreadsheet1",NA,"","","",NA,"5","END",NA,NA,NA,NA,NA,NA,0,NA,NA,NA,NA,"","",NA,"","",NA,"SUPPRF95311"
"1",1711376709570,"25/03/2024 14:25:09",1711376709570,0,"25/03/2024 14:25:09",172741,4,"task-7hcp",NA,36419561,10749187,NA,"complete",NA,"660186cda1c64256036bb336","computer","Desktop or Laptop","Mac OS 10.15.7","Chrome 122.0.0.0","1366x768","1151x598",NA,NA,0,"BIQ (Charlotte)",5,"DECFBGAHI","Passed AC2","","Spreadsheet1",NA,"","","",NA,"5","BEGIN",NA,NA,NA,NA,NA,NA,0,NA,NA,NA,NA,"","",NA,"","",NA,"SUPPRF48071"
"2",1711376830238,"25/03/2024 14:27:10",1711376830238,0,"25/03/2024 14:27:10",172741,4,"task-7hcp",NA,36419561,10749187,NA,"complete",NA,"660186cda1c64256036bb336","computer","Desktop or Laptop","Mac OS 10.15.7","Chrome 122.0.0.0","1366x768","1151x598",NA,NA,0,"BIQ (Charlotte)",5,"DECFBGAHI","Passed AC2","","Spreadsheet1",1,"BIQ","Screen 1","9dh6eq",1,"continue","",121291.3,121274.6,121291.3,121291.3,121274.6,121291.3,1,121291.3,0,0,NA,"Click To Continue","Continue Button",16,"object-48","BIQ",NA,"SUPPRF48071"
"3",1711376830246,"25/03/2024 14:27:10",1711376830246,0,"25/03/2024 14:27:10",172741,4,"task-7hcp",NA,36419561,10749187,NA,"complete",NA,"660186cda1c64256036bb336","computer","Desktop or Laptop","Mac OS 10.15.7","Chrome 122.0.0.0","1366x768","1151x598",NA,NA,0,"BIQ (Charlotte)",5,"DECFBGAHI","Passed AC2","","Spreadsheet1",1,"BIQ","Screen 1","9dh6eq",1,"response","4",111756.8,121274.6,121291.3,111756.8,121274.6,121291.3,1,111756.8,9534.50000000001,0,NA,"Rating Scale","Rating Scale",3,"object-5","BIQ",NA,"SUPPRF48071"
"4",1711376830246,"25/03/2024 14:27:10",1711376830246,0,"25/03/2024 14:27:10",172741,4,"task-7hcp",NA,36419561,10749187,NA,"complete",NA,"660186cda1c64256036bb336","computer","Desktop or Laptop","Mac OS 10.15.7","Chrome 122.0.0.0","1366x768","1151x598",NA,NA,0,"BIQ (Charlotte)",5,"DECFBGAHI","Passed AC2","","Spreadsheet1",1,"BIQ","Screen 1","9dh6eq",1,"response","0",115740.9,121274.6,121291.3,115740.9,121274.6,121291.3,1,115740.9,5550.40000000002,0,NA,"Rating Scale","Rating Scale",10,"object-18","BIQ",NA,"SUPPRF48071"
"5",1711376840458,"25/03/2024 14:27:20",1711376840458,0,"25/03/2024 14:27:20",172741,4,"task-7hcp",NA,36419561,10749187,NA,"complete",NA,"660186cda1c64256036bb336","computer","Desktop or Laptop","Mac OS 10.15.7","Chrome 122.0.0.0","1366x768","1151x598",NA,NA,0,"BIQ (Charlotte)",5,"DECFBGAHI","Passed AC2","","Spreadsheet1",1,"BIQ","Screen 2","svpz34",2,"continue","",10247.999999994,10233.3,10247.999999994,10247.999999994,10233.3,10247.999999994,1,10247.999999994,0,0,NA,"Click To Continue","Continue Button",7,"object-1017","BIQ",NA,"SUPPRF48071"
"6",1711376840461,"25/03/2024 14:27:20",1711376840461,0,"25/03/2024 14:27:20",172741,4,"task-7hcp",NA,36419561,10749187,NA,"complete",NA,"660186cda1c64256036bb336","computer","Desktop or Laptop","Mac OS 10.15.7","Chrome 122.0.0.0","1366x768","1151x598",NA,NA,0,"BIQ (Charlotte)",5,"DECFBGAHI","Passed AC2","","Spreadsheet1",1,"BIQ","Screen 2","svpz34",2,"response","7",4916.5,10233.3,10249.9,4916.5,10233.3,10249.9,1,4916.5,5333.39999999999,0,NA,"Rating Scale","Rating Scale",8,"object-118","BIQ",NA,"SUPPRF48071"
"7",1711376840463,"25/03/2024 14:27:20",1711376840463,0,"25/03/2024 14:27:20",172741,4,"task-7hcp",NA,36419561,10749187,NA,"complete",NA,"660186cda1c64256036bb336","computer","Desktop or Laptop","Mac OS 10.15.7","Chrome 122.0.0.0","1366x768","1151x598",NA,NA,0,"BIQ (Charlotte)",5,"DECFBGAHI","Passed AC2","","Spreadsheet1",1,"BIQ","Screen 2","svpz34",2,"response","6",8950,10233.3,10249.9,8950,10233.3,10249.9,1,8950,1299.89999999999,0,NA,"Rating Scale","Rating Scale",10,"object-121","BIQ",NA,"SUPPRF48071"
"8",1711376859486,"25/03/2024 14:27:39",1711376859486,0,"25/03/2024 14:27:39",172741,4,"task-7hcp",NA,36419561,10749187,NA,"complete",NA,"660186cda1c64256036bb336","computer","Desktop or Laptop","Mac OS 10.15.7","Chrome 122.0.0.0","1366x768","1151x598",NA,NA,0,"BIQ (Charlotte)",5,"DECFBGAHI","Passed AC2","","Spreadsheet1",1,"BIQ","Screen 3","o21mwi",3,"continue","",19042.399999997,19033.3,19042.399999997,19042.399999997,19033.3,19042.399999997,1,19042.399999997,0,0,NA,"Click To Continue","Continue Button",15,"object-50","BIQ",NA,"SUPPRF48071"
"9",1711376859491,"25/03/2024 14:27:39",1711376859491,0,"25/03/2024 14:27:39",172741,4,"task-7hcp",NA,36419561,10749187,NA,"complete",NA,"660186cda1c64256036bb336","computer","Desktop or Laptop","Mac OS 10.15.7","Chrome 122.0.0.0","1366x768","1151x598",NA,NA,0,"BIQ (Charlotte)",5,"DECFBGAHI","Passed AC2","","Spreadsheet1",1,"BIQ","Screen 3","o21mwi",3,"response","7",5383.10000000001,19033.3,19046.199999994,5383.10000000001,19033.3,19046.199999994,1,5383.10000000001,13663.099999994,0,NA,"Rating Scale","Rating Scale",2,"object-36","BIQ",NA,"SUPPRF48071"
"10",1711376859491,"25/03/2024 14:27:39",1711376859491,0,"25/03/2024 14:27:39",172741,4,"task-7hcp",NA,36419561,10749187,NA,"complete",NA,"660186cda1c64256036bb336","computer","Desktop or Laptop","Mac OS 10.15.7","Chrome 122.0.0.0","1366x768","1151x598",NA,NA,0,"BIQ (Charlotte)",5,"DECFBGAHI","Passed AC2","","Spreadsheet1",1,"BIQ","Screen 3","o21mwi",3,"response","5",17932.6,19033.3,19047.4999999911,17932.6,19033.3,19047.4999999911,1,17932.6,1114.89999999106,0,NA,"Rating Scale","Rating Scale",9,"object-86","BIQ",NA,"SUPPRF48071"
"11",1711376902217,"25/03/2024 14:28:22",1711376902217,0,"25/03/2024 14:28:22",172741,4,"task-7hcp",NA,36419561,10749187,NA,"complete",NA,"660186cda1c64256036bb336","computer","Desktop or Laptop","Mac OS 10.15.7","Chrome 122.0.0.0","1366x768","1151x598",NA,NA,0,"BIQ (Charlotte)",5,"DECFBGAHI","Passed AC2","","Spreadsheet1",1,"BIQ","Screen 4","iz3the",4,"continue","",42738.399999994,42733.4,42738.399999994,42738.399999994,42733.4,42738.399999994,1,42738.399999994,0,0,NA,"Click To Continue","Continue Button",22,"object-73","BIQ",NA,"SUPPRF48071"
"12",1711376902221,"25/03/2024 14:28:22",1711376902221,0,"25/03/2024 14:28:22",172741,4,"task-7hcp",NA,36419561,10749187,NA,"complete",NA,"660186cda1c64256036bb336","computer","Desktop or Laptop","Mac OS 10.15.7","Chrome 122.0.0.0","1366x768","1151x598",NA,NA,0,"BIQ (Charlotte)",5,"DECFBGAHI","Passed AC2","","Spreadsheet1",1,"BIQ","Screen 4","iz3the",4,"response","2",15950,42733.4,42742.8,15950,42733.4,42742.8,1,15950,26792.8,0,NA,"Rating Scale","Rating Scale",2,"object-53","BIQ",NA,"SUPPRF48071"
"13",1711376902222,"25/03/2024 14:28:22",1711376902222,0,"25/03/2024 14:28:22",172741,4,"task-7hcp",NA,36419561,10749187,NA,"complete",NA,"660186cda1c64256036bb336","computer","Desktop or Laptop","Mac OS 10.15.7","Chrome 122.0.0.0","1366x768","1151x598",NA,NA,0,"BIQ (Charlotte)",5,"DECFBGAHI","Passed AC2","","Spreadsheet1",1,"BIQ","Screen 4","iz3the",4,"response","2",34815.7,42733.4,42743.699999991,34815.7,42733.4,42743.699999991,1,34815.7,7927.99999999107,0,NA,"Rating Scale","Rating Scale",9,"object-60","BIQ",NA,"SUPPRF48071"
"14",1711376902223,"25/03/2024 14:28:22",1711376902223,0,"25/03/2024 14:28:22",172741,4,"task-7hcp",NA,36419561,10749187,NA,"complete",NA,"660186cda1c64256036bb336","computer","Desktop or Laptop","Mac OS 10.15.7","Chrome 122.0.0.0","1366x768","1151x598",NA,NA,0,"BIQ (Charlotte)",5,"DECFBGAHI","Passed AC2","","Spreadsheet1",1,"BIQ","Screen 4","iz3the",4,"response","4",40666,42733.4,42744.3,40666,42733.4,42744.3,1,40666,2078.29999999999,0,NA,"Rating Scale","Rating Scale",16,"object-67","BIQ",NA,"SUPPRF48071"
"15",1711376902229,"25/03/2024 14:28:22",1711376902229,0,"25/03/2024 14:28:22",172741,4,"task-7hcp",NA,36419561,10749187,NA,"complete",NA,"660186cda1c64256036bb336","computer","Desktop or Laptop","Mac OS 10.15.7","Chrome 122.0.0.0","1366x768","1151x598",NA,NA,0,"BIQ (Charlotte)",5,"DECFBGAHI","Passed AC2","","Spreadsheet1",NA,"","","",NA,"5","END",NA,NA,NA,NA,NA,NA,0,NA,NA,NA,NA,"","",NA,"","",NA,"SUPPRF48071"
"1",1711377453835,"25/03/2024 14:37:33",1711377453835,0,"25/03/2024 14:37:33",172741,4,"task-7hcp",NA,36420581,10749437,NA,"complete",NA,"66018a9e515ef50a88317f5e","computer","Desktop or Laptop","Mac OS 10.15.7","Chrome 122.0.0.0","1470x956","1325x733",NA,NA,0,"BIQ (Charlotte)",5,"EFDGCHBIA","Passed AC2","","Spreadsheet1",NA,"","","",NA,"5","BEGIN",NA,NA,NA,NA,NA,NA,0,NA,NA,NA,NA,"","",NA,"","",NA,"SUPPRF72649"
"2",1711377467248,"25/03/2024 14:37:47",1711377467248,0,"25/03/2024 14:37:47",172741,4,"task-7hcp",NA,36420581,10749437,NA,"complete",NA,"66018a9e515ef50a88317f5e","computer","Desktop or Laptop","Mac OS 10.15.7","Chrome 122.0.0.0","1470x956","1325x733",NA,NA,0,"BIQ (Charlotte)",5,"EFDGCHBIA","Passed AC2","","Spreadsheet1",1,"BIQ","Screen 1","9dh6eq",1,"continue","",14456.6000000238,14445.1,14456.6000000238,14456.6000000238,14445.1,14456.6000000238,1,14456.6000000238,0,0,NA,"Click To Continue","Continue Button",16,"object-48","BIQ",NA,"SUPPRF72649"
"3",1711377467252,"25/03/2024 14:37:47",1711377467252,0,"25/03/2024 14:37:47",172741,4,"task-7hcp",NA,36420581,10749437,NA,"complete",NA,"66018a9e515ef50a88317f5e","computer","Desktop or Laptop","Mac OS 10.15.7","Chrome 122.0.0.0","1470x956","1325x733",NA,NA,0,"BIQ (Charlotte)",5,"EFDGCHBIA","Passed AC2","","Spreadsheet1",1,"BIQ","Screen 1","9dh6eq",1,"response","4",11678.4,14445.1,14461.6999999285,11678.4,14445.1,14461.6999999285,1,11678.4,2783.29999992847,0,NA,"Rating Scale","Rating Scale",3,"object-5","BIQ",NA,"SUPPRF72649"
"4",1711377467253,"25/03/2024 14:37:47",1711377467253,0,"25/03/2024 14:37:47",172741,4,"task-7hcp",NA,36420581,10749437,NA,"complete",NA,"66018a9e515ef50a88317f5e","computer","Desktop or Laptop","Mac OS 10.15.7","Chrome 122.0.0.0","1470x956","1325x733",NA,NA,0,"BIQ (Charlotte)",5,"EFDGCHBIA","Passed AC2","","Spreadsheet1",1,"BIQ","Screen 1","9dh6eq",1,"response","3",12494.6,14445.1,14461.8,12494.6,14445.1,14461.8,1,12494.6,1967.2,0,NA,"Rating Scale","Rating Scale",10,"object-18","BIQ",NA,"SUPPRF72649"
"5",1711377473070,"25/03/2024 14:37:53",1711377473070,0,"25/03/2024 14:37:53",172741,4,"task-7hcp",NA,36420581,10749437,NA,"complete",NA,"66018a9e515ef50a88317f5e","computer","Desktop or Laptop","Mac OS 10.15.7","Chrome 122.0.0.0","1470x956","1325x733",NA,NA,0,"BIQ (Charlotte)",5,"EFDGCHBIA","Passed AC2","","Spreadsheet1",1,"BIQ","Screen 2","svpz34",2,"continue","",5834.69999995232,5833.4,5834.69999995232,5834.69999995232,5833.4,5834.69999995232,1,5834.69999995232,0,0,NA,"Click To Continue","Continue Button",7,"object-1017","BIQ",NA,"SUPPRF72649"
"6",1711377473071,"25/03/2024 14:37:53",1711377473071,0,"25/03/2024 14:37:53",172741,4,"task-7hcp",NA,36420581,10749437,NA,"complete",NA,"66018a9e515ef50a88317f5e","computer","Desktop or Laptop","Mac OS 10.15.7","Chrome 122.0.0.0","1470x956","1325x733",NA,NA,0,"BIQ (Charlotte)",5,"EFDGCHBIA","Passed AC2","","Spreadsheet1",1,"BIQ","Screen 2","svpz34",2,"response","5",3133.3,5833.4,5835.09999992847,3133.3,5833.4,5835.09999992847,1,3133.3,2701.79999992847,0,NA,"Rating Scale","Rating Scale",8,"object-118","BIQ",NA,"SUPPRF72649"
"7",1711377473071,"25/03/2024 14:37:53",1711377473071,0,"25/03/2024 14:37:53",172741,4,"task-7hcp",NA,36420581,10749437,NA,"complete",NA,"66018a9e515ef50a88317f5e","computer","Desktop or Laptop","Mac OS 10.15.7","Chrome 122.0.0.0","1470x956","1325x733",NA,NA,0,"BIQ (Charlotte)",5,"EFDGCHBIA","Passed AC2","","Spreadsheet1",1,"BIQ","Screen 2","svpz34",2,"response","4",4966.7,5833.4,5835.19999995232,4966.7,5833.4,5835.19999995232,1,4966.7,868.499999952317,0,NA,"Rating Scale","Rating Scale",10,"object-121","BIQ",NA,"SUPPRF72649"
"8",1711377476726,"25/03/2024 14:37:56",1711377476726,0,"25/03/2024 14:37:56",172741,4,"task-7hcp",NA,36420581,10749437,NA,"complete",NA,"66018a9e515ef50a88317f5e","computer","Desktop or Laptop","Mac OS 10.15.7","Chrome 122.0.0.0","1470x956","1325x733",NA,NA,0,"BIQ (Charlotte)",5,"EFDGCHBIA","Passed AC2","","Spreadsheet1",1,"BIQ","Screen 3","o21mwi",3,"continue","",3656.5,3649.9,3656.5,3656.5,3649.9,3656.5,1,3656.5,0,0,NA,"Click To Continue","Continue Button",15,"object-50","BIQ",NA,"SUPPRF72649"
"9",1711377476726,"25/03/2024 14:37:56",1711377476726,0,"25/03/2024 14:37:56",172741,4,"task-7hcp",NA,36420581,10749437,NA,"complete",NA,"66018a9e515ef50a88317f5e","computer","Desktop or Laptop","Mac OS 10.15.7","Chrome 122.0.0.0","1470x956","1325x733",NA,NA,0,"BIQ (Charlotte)",5,"EFDGCHBIA","Passed AC2","","Spreadsheet1",1,"BIQ","Screen 3","o21mwi",3,"response","3",1516.6,3649.9,3656.89999997616,1516.6,3649.9,3656.89999997616,1,1516.6,2140.29999997616,0,NA,"Rating Scale","Rating Scale",2,"object-36","BIQ",NA,"SUPPRF72649"
"10",1711377476726,"25/03/2024 14:37:56",1711377476726,0,"25/03/2024 14:37:56",172741,4,"task-7hcp",NA,36420581,10749437,NA,"complete",NA,"66018a9e515ef50a88317f5e","computer","Desktop or Laptop","Mac OS 10.15.7","Chrome 122.0.0.0","1470x956","1325x733",NA,NA,0,"BIQ (Charlotte)",5,"EFDGCHBIA","Passed AC2","","Spreadsheet1",1,"BIQ","Screen 3","o21mwi",3,"response","5",2583.2,3649.9,3657.10000002384,2583.2,3649.9,3657.10000002384,1,2583.2,1073.90000002384,0,NA,"Rating Scale","Rating Scale",9,"object-86","BIQ",NA,"SUPPRF72649"
"11",1711377480796,"25/03/2024 14:38:00",1711377480796,0,"25/03/2024 14:38:00",172741,4,"task-7hcp",NA,36420581,10749437,NA,"complete",NA,"66018a9e515ef50a88317f5e","computer","Desktop or Laptop","Mac OS 10.15.7","Chrome 122.0.0.0","1470x956","1325x733",NA,NA,0,"BIQ (Charlotte)",5,"EFDGCHBIA","Passed AC2","","Spreadsheet1",1,"BIQ","Screen 4","iz3the",4,"continue","",4077.1,4066.7,4077.1,4077.1,4066.7,4077.1,1,4077.1,0,0,NA,"Click To Continue","Continue Button",22,"object-73","BIQ",NA,"SUPPRF72649"
"12",1711377480798,"25/03/2024 14:38:00",1711377480798,0,"25/03/2024 14:38:00",172741,4,"task-7hcp",NA,36420581,10749437,NA,"complete",NA,"66018a9e515ef50a88317f5e","computer","Desktop or Laptop","Mac OS 10.15.7","Chrome 122.0.0.0","1470x956","1325x733",NA,NA,0,"BIQ (Charlotte)",5,"EFDGCHBIA","Passed AC2","","Spreadsheet1",1,"BIQ","Screen 4","iz3the",4,"response","3",1700,4066.7,4079.49999997616,1700,4066.7,4079.49999997616,1,1700,2379.49999997616,0,NA,"Rating Scale","Rating Scale",2,"object-53","BIQ",NA,"SUPPRF72649"
"13",1711377480799,"25/03/2024 14:38:00",1711377480799,0,"25/03/2024 14:38:00",172741,4,"task-7hcp",NA,36420581,10749437,NA,"complete",NA,"66018a9e515ef50a88317f5e","computer","Desktop or Laptop","Mac OS 10.15.7","Chrome 122.0.0.0","1470x956","1325x733",NA,NA,0,"BIQ (Charlotte)",5,"EFDGCHBIA","Passed AC2","","Spreadsheet1",1,"BIQ","Screen 4","iz3the",4,"response","3",2450,4066.7,4079.70000002384,2450,4066.7,4079.70000002384,1,2450,1629.70000002384,0,NA,"Rating Scale","Rating Scale",9,"object-60","BIQ",NA,"SUPPRF72649"
"14",1711377480799,"25/03/2024 14:38:00",1711377480799,0,"25/03/2024 14:38:00",172741,4,"task-7hcp",NA,36420581,10749437,NA,"complete",NA,"66018a9e515ef50a88317f5e","computer","Desktop or Laptop","Mac OS 10.15.7","Chrome 122.0.0.0","1470x956","1325x733",NA,NA,0,"BIQ (Charlotte)",5,"EFDGCHBIA","Passed AC2","","Spreadsheet1",1,"BIQ","Screen 4","iz3the",4,"response","5",3133.4,4066.7,4079.79999992847,3133.4,4066.7,4079.79999992847,1,3133.4,946.399999928475,0,NA,"Rating Scale","Rating Scale",16,"object-67","BIQ",NA,"SUPPRF72649"
"15",1711377480802,"25/03/2024 14:38:00",1711377480802,0,"25/03/2024 14:38:00",172741,4,"task-7hcp",NA,36420581,10749437,NA,"complete",NA,"66018a9e515ef50a88317f5e","computer","Desktop or Laptop","Mac OS 10.15.7","Chrome 122.0.0.0","1470x956","1325x733",NA,NA,0,"BIQ (Charlotte)",5,"EFDGCHBIA","Passed AC2","","Spreadsheet1",NA,"","","",NA,"5","END",NA,NA,NA,NA,NA,NA,0,NA,NA,NA,NA,"","",NA,"","",NA,"SUPPRF72649"
"1",1711394360457,"25/03/2024 19:19:20",1711379960457,-4,"25/03/2024 11:19:20",172741,4,"task-7hcp",NA,36436220,10754684,NA,"complete",NA,"6601cb868c4c847f2e11c901","computer","Desktop or Laptop","Mac OS 10.15.7","Chrome 123.0.0.0","1440x900","1322x696",NA,NA,0,"BIQ (Charlotte)",5,"HIGAFBECD","Passed AC2","","Spreadsheet1",NA,"","","",NA,"5","BEGIN",NA,NA,NA,NA,NA,NA,0,NA,NA,NA,NA,"","",NA,"","",NA,"SUPPRF75031"
"2",1711394392022,"25/03/2024 19:19:52",1711379992022,-4,"25/03/2024 11:19:52",172741,4,"task-7hcp",NA,36436220,10754684,NA,"complete",NA,"6601cb868c4c847f2e11c901","computer","Desktop or Laptop","Mac OS 10.15.7","Chrome 123.0.0.0","1440x900","1322x696",NA,NA,0,"BIQ (Charlotte)",5,"HIGAFBECD","Passed AC2","","Spreadsheet1",1,"BIQ","Screen 1","9dh6eq",1,"continue","",31582.196,31565.896,31582.196,31582.196,31565.896,31582.196,1,31582.196,0,0,NA,"Click To Continue","Continue Button",16,"object-48","BIQ",NA,"SUPPRF75031"
"3",1711394392024,"25/03/2024 19:19:52",1711379992024,-4,"25/03/2024 11:19:52",172741,4,"task-7hcp",NA,36436220,10754684,NA,"complete",NA,"6601cb868c4c847f2e11c901","computer","Desktop or Laptop","Mac OS 10.15.7","Chrome 123.0.0.0","1440x900","1322x696",NA,NA,0,"BIQ (Charlotte)",5,"HIGAFBECD","Passed AC2","","Spreadsheet1",1,"BIQ","Screen 1","9dh6eq",1,"response","4",21932.696,31565.896,31582.196,21932.696,31565.896,31582.196,1,21932.696,9649.5,0,NA,"Rating Scale","Rating Scale",3,"object-5","BIQ",NA,"SUPPRF75031"
"4",1711394392025,"25/03/2024 19:19:52",1711379992025,-4,"25/03/2024 11:19:52",172741,4,"task-7hcp",NA,36436220,10754684,NA,"complete",NA,"6601cb868c4c847f2e11c901","computer","Desktop or Laptop","Mac OS 10.15.7","Chrome 123.0.0.0","1440x900","1322x696",NA,NA,0,"BIQ (Charlotte)",5,"HIGAFBECD","Passed AC2","","Spreadsheet1",1,"BIQ","Screen 1","9dh6eq",1,"response","5",28432.596,31565.896,31582.196,28432.596,31565.896,31582.196,1,28432.596,3149.6,0,NA,"Rating Scale","Rating Scale",10,"object-18","BIQ",NA,"SUPPRF75031"
"5",1711394409356,"25/03/2024 19:20:09",1711380009356,-4,"25/03/2024 11:20:09",172741,4,"task-7hcp",NA,36436220,10754684,NA,"complete",NA,"6601cb868c4c847f2e11c901","computer","Desktop or Laptop","Mac OS 10.15.7","Chrome 123.0.0.0","1440x900","1322x696",NA,NA,0,"BIQ (Charlotte)",5,"HIGAFBECD","Passed AC2","","Spreadsheet1",1,"BIQ","Screen 2","svpz34",2,"continue","",17359.1999999881,17349.8,17359.1999999881,17359.1999999881,17349.8,17359.1999999881,1,17359.1999999881,0,0,NA,"Click To Continue","Continue Button",7,"object-1017","BIQ",NA,"SUPPRF75031"
"6",1711394409359,"25/03/2024 19:20:09",1711380009359,-4,"25/03/2024 11:20:09",172741,4,"task-7hcp",NA,36436220,10754684,NA,"complete",NA,"6601cb868c4c847f2e11c901","computer","Desktop or Laptop","Mac OS 10.15.7","Chrome 123.0.0.0","1440x900","1322x696",NA,NA,0,"BIQ (Charlotte)",5,"HIGAFBECD","Passed AC2","","Spreadsheet1",1,"BIQ","Screen 2","svpz34",2,"response","2",6900.1,17349.8,17362.599999994,6900.1,17349.8,17362.599999994,1,6900.1,10462.499999994,0,NA,"Rating Scale","Rating Scale",8,"object-118","BIQ",NA,"SUPPRF75031"
"7",1711394409359,"25/03/2024 19:20:09",1711380009359,-4,"25/03/2024 11:20:09",172741,4,"task-7hcp",NA,36436220,10754684,NA,"complete",NA,"6601cb868c4c847f2e11c901","computer","Desktop or Laptop","Mac OS 10.15.7","Chrome 123.0.0.0","1440x900","1322x696",NA,NA,0,"BIQ (Charlotte)",5,"HIGAFBECD","Passed AC2","","Spreadsheet1",1,"BIQ","Screen 2","svpz34",2,"response","7",15850.3,17349.8,17363.099999994,15850.3,17349.8,17363.099999994,1,15850.3,1512.79999999404,0,NA,"Rating Scale","Rating Scale",10,"object-121","BIQ",NA,"SUPPRF75031"
"8",1711394424444,"25/03/2024 19:20:24",1711380024444,-4,"25/03/2024 11:20:24",172741,4,"task-7hcp",NA,36436220,10754684,NA,"complete",NA,"6601cb868c4c847f2e11c901","computer","Desktop or Laptop","Mac OS 10.15.7","Chrome 123.0.0.0","1440x900","1322x696",NA,NA,0,"BIQ (Charlotte)",5,"HIGAFBECD","Passed AC2","","Spreadsheet1",1,"BIQ","Screen 3","o21mwi",3,"continue","",15097.2,15083,15097.2,15097.2,15083,15097.2,1,15097.2,0,0,NA,"Click To Continue","Continue Button",15,"object-50","BIQ",NA,"SUPPRF75031"
"9",1711394424448,"25/03/2024 19:20:24",1711380024448,-4,"25/03/2024 11:20:24",172741,4,"task-7hcp",NA,36436220,10754684,NA,"complete",NA,"6601cb868c4c847f2e11c901","computer","Desktop or Laptop","Mac OS 10.15.7","Chrome 123.0.0.0","1440x900","1322x696",NA,NA,0,"BIQ (Charlotte)",5,"HIGAFBECD","Passed AC2","","Spreadsheet1",1,"BIQ","Screen 3","o21mwi",3,"response","3",5033.39999999999,15083,15099.3,5033.39999999999,15083,15099.3,1,5033.39999999999,10065.9,0,NA,"Rating Scale","Rating Scale",2,"object-36","BIQ",NA,"SUPPRF75031"
"10",1711394424449,"25/03/2024 19:20:24",1711380024449,-4,"25/03/2024 11:20:24",172741,4,"task-7hcp",NA,36436220,10754684,NA,"complete",NA,"6601cb868c4c847f2e11c901","computer","Desktop or Laptop","Mac OS 10.15.7","Chrome 123.0.0.0","1440x900","1322x696",NA,NA,0,"BIQ (Charlotte)",5,"HIGAFBECD","Passed AC2","","Spreadsheet1",1,"BIQ","Screen 3","o21mwi",3,"response","4",14383.3,15083,15099.3,14383.3,15083,15099.3,1,14383.3,716,0,NA,"Rating Scale","Rating Scale",9,"object-86","BIQ",NA,"SUPPRF75031"
"11",1711394455214,"25/03/2024 19:20:55",1711380055214,-4,"25/03/2024 11:20:55",172741,4,"task-7hcp",NA,36436220,10754684,NA,"complete",NA,"6601cb868c4c847f2e11c901","computer","Desktop or Laptop","Mac OS 10.15.7","Chrome 123.0.0.0","1440x900","1322x696",NA,NA,0,"BIQ (Charlotte)",5,"HIGAFBECD","Passed AC2","","Spreadsheet1",1,"BIQ","Screen 4","iz3the",4,"continue","",30784.0999999911,30767.3,30784.0999999911,30784.0999999911,30767.3,30784.0999999911,1,30784.0999999911,0,0,NA,"Click To Continue","Continue Button",22,"object-73","BIQ",NA,"SUPPRF75031"
"12",1711394455219,"25/03/2024 19:20:55",1711380055219,-4,"25/03/2024 11:20:55",172741,4,"task-7hcp",NA,36436220,10754684,NA,"complete",NA,"6601cb868c4c847f2e11c901","computer","Desktop or Laptop","Mac OS 10.15.7","Chrome 123.0.0.0","1440x900","1322x696",NA,NA,0,"BIQ (Charlotte)",5,"HIGAFBECD","Passed AC2","","Spreadsheet1",1,"BIQ","Screen 4","iz3the",4,"response","1",11399.9,30767.3,30784.6,11399.9,30767.3,30784.6,1,11399.9,19384.7,0,NA,"Rating Scale","Rating Scale",2,"object-53","BIQ",NA,"SUPPRF75031"
"13",1711394455220,"25/03/2024 19:20:55",1711380055220,-4,"25/03/2024 11:20:55",172741,4,"task-7hcp",NA,36436220,10754684,NA,"complete",NA,"6601cb868c4c847f2e11c901","computer","Desktop or Laptop","Mac OS 10.15.7","Chrome 123.0.0.0","1440x900","1322x696",NA,NA,0,"BIQ (Charlotte)",5,"HIGAFBECD","Passed AC2","","Spreadsheet1",1,"BIQ","Screen 4","iz3the",4,"response","0",17466.4,30767.3,30784.6,17466.4,30767.3,30784.6,1,17466.4,13318.2,0,NA,"Rating Scale","Rating Scale",9,"object-60","BIQ",NA,"SUPPRF75031"
"14",1711394455220,"25/03/2024 19:20:55",1711380055220,-4,"25/03/2024 11:20:55",172741,4,"task-7hcp",NA,36436220,10754684,NA,"complete",NA,"6601cb868c4c847f2e11c901","computer","Desktop or Laptop","Mac OS 10.15.7","Chrome 123.0.0.0","1440x900","1322x696",NA,NA,0,"BIQ (Charlotte)",5,"HIGAFBECD","Passed AC2","","Spreadsheet1",1,"BIQ","Screen 4","iz3the",4,"response","3",26834,30767.3,30784.6,26834,30767.3,30784.6,1,26834,3950.60000000001,0,NA,"Rating Scale","Rating Scale",16,"object-67","BIQ",NA,"SUPPRF75031"
"15",1711394455228,"25/03/2024 19:20:55",1711380055228,-4,"25/03/2024 11:20:55",172741,4,"task-7hcp",NA,36436220,10754684,NA,"complete",NA,"6601cb868c4c847f2e11c901","computer","Desktop or Laptop","Mac OS 10.15.7","Chrome 123.0.0.0","1440x900","1322x696",NA,NA,0,"BIQ (Charlotte)",5,"HIGAFBECD","Passed AC2","","Spreadsheet1",NA,"","","",NA,"5","END",NA,NA,NA,NA,NA,NA,0,NA,NA,NA,NA,"","",NA,"","",NA,"SUPPRF75031"
"1",1711394887369,"25/03/2024 19:28:07",1711412887369,5,"26/03/2024 05:28:07",172741,4,"task-7hcp",NA,36436526,10754782,NA,"complete",NA,"6601cd67faa97a294fe3db4c","computer","Desktop or Laptop","Windows 10","Chrome 123.0.0.0","1366x768","1366x607",NA,NA,0,"BIQ (Charlotte)",5,"IAHBGCFDE","Passed AC2","","Spreadsheet1",NA,"","","",NA,"5","BEGIN",NA,NA,NA,NA,NA,NA,0,NA,NA,NA,NA,"","",NA,"","",NA,"SUPPRF36782"
"2",1711394960745,"25/03/2024 19:29:20",1711412960745,5,"26/03/2024 05:29:20",172741,4,"task-7hcp",NA,36436526,10754782,NA,"complete",NA,"6601cd67faa97a294fe3db4c","computer","Desktop or Laptop","Windows 10","Chrome 123.0.0.0","1366x768","1366x607",NA,NA,0,"BIQ (Charlotte)",5,"IAHBGCFDE","Passed AC2","","Spreadsheet1",1,"BIQ","Screen 1","9dh6eq",1,"continue","",73383.9,73367.2,73383.9,73383.9,73367.2,73383.9,1,73383.9,0,0,NA,"Click To Continue","Continue Button",16,"object-48","BIQ",NA,"SUPPRF36782"
"3",1711394960756,"25/03/2024 19:29:20",1711412960756,5,"26/03/2024 05:29:20",172741,4,"task-7hcp",NA,36436526,10754782,NA,"complete",NA,"6601cd67faa97a294fe3db4c","computer","Desktop or Laptop","Windows 10","Chrome 123.0.0.0","1366x768","1366x607",NA,NA,0,"BIQ (Charlotte)",5,"IAHBGCFDE","Passed AC2","","Spreadsheet1",1,"BIQ","Screen 1","9dh6eq",1,"response","8",47317,73367.2,73383.9,47317,73367.2,73383.9,1,47317,26066.9,0,NA,"Rating Scale","Rating Scale",3,"object-5","BIQ",NA,"SUPPRF36782"
"4",1711394960759,"25/03/2024 19:29:20",1711412960759,5,"26/03/2024 05:29:20",172741,4,"task-7hcp",NA,36436526,10754782,NA,"complete",NA,"6601cd67faa97a294fe3db4c","computer","Desktop or Laptop","Windows 10","Chrome 123.0.0.0","1366x768","1366x607",NA,NA,0,"BIQ (Charlotte)",5,"IAHBGCFDE","Passed AC2","","Spreadsheet1",1,"BIQ","Screen 1","9dh6eq",1,"response","7",66100.4,73367.2,73383.9,66100.4,73367.2,73383.9,1,66100.4,7283.50000000001,0,NA,"Rating Scale","Rating Scale",10,"object-18","BIQ",NA,"SUPPRF36782"
"5",1711394981517,"25/03/2024 19:29:41",1711412981517,5,"26/03/2024 05:29:41",172741,4,"task-7hcp",NA,36436526,10754782,NA,"complete",NA,"6601cd67faa97a294fe3db4c","computer","Desktop or Laptop","Windows 10","Chrome 123.0.0.0","1366x768","1366x607",NA,NA,0,"BIQ (Charlotte)",5,"IAHBGCFDE","Passed AC2","","Spreadsheet1",1,"BIQ","Screen 2","svpz34",2,"continue","",20813.5999999881,20800,20813.5999999881,20813.5999999881,20800,20813.5999999881,1,20813.5999999881,0,0,NA,"Click To Continue","Continue Button",7,"object-1017","BIQ",NA,"SUPPRF36782"
"6",1711394981519,"25/03/2024 19:29:41",1711412981519,5,"26/03/2024 05:29:41",172741,4,"task-7hcp",NA,36436526,10754782,NA,"complete",NA,"6601cd67faa97a294fe3db4c","computer","Desktop or Laptop","Windows 10","Chrome 123.0.0.0","1366x768","1366x607",NA,NA,0,"BIQ (Charlotte)",5,"IAHBGCFDE","Passed AC2","","Spreadsheet1",1,"BIQ","Screen 2","svpz34",2,"response","0",8016.79999999999,20800,20815.4999999642,8016.79999999999,20800,20815.4999999642,1,8016.79999999999,12798.6999999642,0,NA,"Rating Scale","Rating Scale",8,"object-118","BIQ",NA,"SUPPRF36782"
"7",1711394981520,"25/03/2024 19:29:41",1711412981520,5,"26/03/2024 05:29:41",172741,4,"task-7hcp",NA,36436526,10754782,NA,"complete",NA,"6601cd67faa97a294fe3db4c","computer","Desktop or Laptop","Windows 10","Chrome 123.0.0.0","1366x768","1366x607",NA,NA,0,"BIQ (Charlotte)",5,"IAHBGCFDE","Passed AC2","","Spreadsheet1",1,"BIQ","Screen 2","svpz34",2,"response","8",19500,20800,20815.9999999642,19500,20800,20815.9999999642,1,19500,1315.99999996423,0,NA,"Rating Scale","Rating Scale",10,"object-121","BIQ",NA,"SUPPRF36782"
"8",1711395029551,"25/03/2024 19:30:29",1711413029551,5,"26/03/2024 05:30:29",172741,4,"task-7hcp",NA,36436526,10754782,NA,"complete",NA,"6601cd67faa97a294fe3db4c","computer","Desktop or Laptop","Windows 10","Chrome 123.0.0.0","1366x768","1366x607",NA,NA,0,"BIQ (Charlotte)",5,"IAHBGCFDE","Passed AC2","","Spreadsheet1",1,"BIQ","Screen 3","o21mwi",3,"continue","",48045.5999999881,48033.7,48045.5999999881,48045.5999999881,48033.7,48045.5999999881,1,48045.5999999881,0,0,NA,"Click To Continue","Continue Button",15,"object-50","BIQ",NA,"SUPPRF36782"
"9",1711395029564,"25/03/2024 19:30:29",1711413029564,5,"26/03/2024 05:30:29",172741,4,"task-7hcp",NA,36436526,10754782,NA,"complete",NA,"6601cd67faa97a294fe3db4c","computer","Desktop or Laptop","Windows 10","Chrome 123.0.0.0","1366x768","1366x607",NA,NA,0,"BIQ (Charlotte)",5,"IAHBGCFDE","Passed AC2","","Spreadsheet1",1,"BIQ","Screen 3","o21mwi",3,"response","0",10250.1,48033.7,48050.5,10250.1,48033.7,48050.5,1,10250.1,37800.4,0,NA,"Rating Scale","Rating Scale",2,"object-36","BIQ",NA,"SUPPRF36782"
"10",1711395029567,"25/03/2024 19:30:29",1711413029567,5,"26/03/2024 05:30:29",172741,4,"task-7hcp",NA,36436526,10754782,NA,"complete",NA,"6601cd67faa97a294fe3db4c","computer","Desktop or Laptop","Windows 10","Chrome 123.0.0.0","1366x768","1366x607",NA,NA,0,"BIQ (Charlotte)",5,"IAHBGCFDE","Passed AC2","","Spreadsheet1",1,"BIQ","Screen 3","o21mwi",3,"response","1",46450.2,48033.7,48050.5,46450.2,48033.7,48050.5,1,46450.2,1600.29999999999,0,NA,"Rating Scale","Rating Scale",9,"object-86","BIQ",NA,"SUPPRF36782"
"11",1711395048229,"25/03/2024 19:30:48",1711413048229,5,"26/03/2024 05:30:48",172741,4,"task-7hcp",NA,36436526,10754782,NA,"complete",NA,"6601cd67faa97a294fe3db4c","computer","Desktop or Laptop","Windows 10","Chrome 123.0.0.0","1366x768","1366x607",NA,NA,0,"BIQ (Charlotte)",5,"IAHBGCFDE","Passed AC2","","Spreadsheet1",1,"BIQ","Screen 4","iz3the",4,"continue","",18689.8999999881,18683.5,18689.8999999881,18689.8999999881,18683.5,18689.8999999881,1,18689.8999999881,0,0,NA,"Click To Continue","Continue Button",22,"object-73","BIQ",NA,"SUPPRF36782"
"12",1711395048239,"25/03/2024 19:30:48",1711413048239,5,"26/03/2024 05:30:48",172741,4,"task-7hcp",NA,36436526,10754782,NA,"complete",NA,"6601cd67faa97a294fe3db4c","computer","Desktop or Laptop","Windows 10","Chrome 123.0.0.0","1366x768","1366x607",NA,NA,0,"BIQ (Charlotte)",5,"IAHBGCFDE","Passed AC2","","Spreadsheet1",1,"BIQ","Screen 4","iz3the",4,"response","0",8249.90000000002,18683.5,18700.4,8249.90000000002,18683.5,18700.4,1,8249.90000000002,10450.5,0,NA,"Rating Scale","Rating Scale",2,"object-53","BIQ",NA,"SUPPRF36782"
"13",1711395048241,"25/03/2024 19:30:48",1711413048241,5,"26/03/2024 05:30:48",172741,4,"task-7hcp",NA,36436526,10754782,NA,"complete",NA,"6601cd67faa97a294fe3db4c","computer","Desktop or Laptop","Windows 10","Chrome 123.0.0.0","1366x768","1366x607",NA,NA,0,"BIQ (Charlotte)",5,"IAHBGCFDE","Passed AC2","","Spreadsheet1",1,"BIQ","Screen 4","iz3the",4,"response","0",10983.3,18683.5,18700.4,10983.3,18683.5,18700.4,1,10983.3,7717.09999999998,0,NA,"Rating Scale","Rating Scale",9,"object-60","BIQ",NA,"SUPPRF36782"
"14",1711395048243,"25/03/2024 19:30:48",1711413048243,5,"26/03/2024 05:30:48",172741,4,"task-7hcp",NA,36436526,10754782,NA,"complete",NA,"6601cd67faa97a294fe3db4c","computer","Desktop or Laptop","Windows 10","Chrome 123.0.0.0","1366x768","1366x607",NA,NA,0,"BIQ (Charlotte)",5,"IAHBGCFDE","Passed AC2","","Spreadsheet1",1,"BIQ","Screen 4","iz3the",4,"response","1",17333.4,18683.5,18700.4,17333.4,18683.5,18700.4,1,17333.4,1366.99999999997,0,NA,"Rating Scale","Rating Scale",16,"object-67","BIQ",NA,"SUPPRF36782"
"15",1711395048269,"25/03/2024 19:30:48",1711413048269,5,"26/03/2024 05:30:48",172741,4,"task-7hcp",NA,36436526,10754782,NA,"complete",NA,"6601cd67faa97a294fe3db4c","computer","Desktop or Laptop","Windows 10","Chrome 123.0.0.0","1366x768","1366x607",NA,NA,0,"BIQ (Charlotte)",5,"IAHBGCFDE","Passed AC2","","Spreadsheet1",NA,"","","",NA,"5","END",NA,NA,NA,NA,NA,NA,0,NA,NA,NA,NA,"","",NA,"","",NA,"SUPPRF36782"
"1",1711410045185,"25/03/2024 23:40:45",1711392045185,-5,"25/03/2024 13:40:45",172741,4,"task-7hcp",NA,36442603,10756348,NA,"complete",NA,"66020a14fed03f0a4e034fb5","computer","Desktop or Laptop","Windows 10","Chrome 121.0.0.0","1280x720","1280x551",NA,NA,0,"BIQ (Charlotte)",5,"ABICHDGEF","Passed AC2","","Spreadsheet1",NA,"","","",NA,"5","BEGIN",NA,NA,NA,NA,NA,NA,0,NA,NA,NA,NA,"","",NA,"","",NA,"SUPPRF49898"
"2",1711410063151,"25/03/2024 23:41:03",1711392063151,-5,"25/03/2024 13:41:03",172741,4,"task-7hcp",NA,36442603,10756348,NA,"complete",NA,"66020a14fed03f0a4e034fb5","computer","Desktop or Laptop","Windows 10","Chrome 121.0.0.0","1280x720","1280x551",NA,NA,0,"BIQ (Charlotte)",5,"ABICHDGEF","Passed AC2","","Spreadsheet1",1,"BIQ","Screen 1","9dh6eq",1,"continue","",17975.7200007629,17966.92,17975.7200007629,17975.7200007629,17966.92,17975.7200007629,1,17975.7200007629,0,0,NA,"Click To Continue","Continue Button",16,"object-48","BIQ",NA,"SUPPRF49898"
"3",1711410063152,"25/03/2024 23:41:03",1711392063152,-5,"25/03/2024 13:41:03",172741,4,"task-7hcp",NA,36442603,10756348,NA,"complete",NA,"66020a14fed03f0a4e034fb5","computer","Desktop or Laptop","Windows 10","Chrome 121.0.0.0","1280x720","1280x551",NA,NA,0,"BIQ (Charlotte)",5,"ABICHDGEF","Passed AC2","","Spreadsheet1",1,"BIQ","Screen 1","9dh6eq",1,"response","4",12518.72,17966.92,17977.8200001907,12518.72,17966.92,17977.8200001907,1,12518.72,5459.10000019073,0,NA,"Rating Scale","Rating Scale",3,"object-5","BIQ",NA,"SUPPRF49898"
"4",1711410063152,"25/03/2024 23:41:03",1711392063152,-5,"25/03/2024 13:41:03",172741,4,"task-7hcp",NA,36442603,10756348,NA,"complete",NA,"66020a14fed03f0a4e034fb5","computer","Desktop or Laptop","Windows 10","Chrome 121.0.0.0","1280x720","1280x551",NA,NA,0,"BIQ (Charlotte)",5,"ABICHDGEF","Passed AC2","","Spreadsheet1",1,"BIQ","Screen 1","9dh6eq",1,"response","6",17017.62,17966.92,17978.02,17017.62,17966.92,17978.02,1,17017.62,960.400000000001,0,NA,"Rating Scale","Rating Scale",10,"object-18","BIQ",NA,"SUPPRF49898"
"5",1711410072899,"25/03/2024 23:41:12",1711392072899,-5,"25/03/2024 13:41:12",172741,4,"task-7hcp",NA,36442603,10756348,NA,"complete",NA,"66020a14fed03f0a4e034fb5","computer","Desktop or Laptop","Windows 10","Chrome 121.0.0.0","1280x720","1280x551",NA,NA,0,"BIQ (Charlotte)",5,"ABICHDGEF","Passed AC2","","Spreadsheet1",1,"BIQ","Screen 2","svpz34",2,"continue","",9757.20000038147,9746.9,9757.20000038147,9757.20000038147,9746.9,9757.20000038147,1,9757.20000038147,0,0,NA,"Click To Continue","Continue Button",7,"object-1017","BIQ",NA,"SUPPRF49898"
"6",1711410072900,"25/03/2024 23:41:12",1711392072900,-5,"25/03/2024 13:41:12",172741,4,"task-7hcp",NA,36442603,10756348,NA,"complete",NA,"66020a14fed03f0a4e034fb5","computer","Desktop or Laptop","Windows 10","Chrome 121.0.0.0","1280x720","1280x551",NA,NA,0,"BIQ (Charlotte)",5,"ABICHDGEF","Passed AC2","","Spreadsheet1",1,"BIQ","Screen 2","svpz34",2,"response","2",4431.8,9746.9,9758.1,4431.8,9746.9,9758.1,1,4431.8,5326.3,0,NA,"Rating Scale","Rating Scale",8,"object-118","BIQ",NA,"SUPPRF49898"
"7",1711410072900,"25/03/2024 23:41:12",1711392072900,-5,"25/03/2024 13:41:12",172741,4,"task-7hcp",NA,36442603,10756348,NA,"complete",NA,"66020a14fed03f0a4e034fb5","computer","Desktop or Laptop","Windows 10","Chrome 121.0.0.0","1280x720","1280x551",NA,NA,0,"BIQ (Charlotte)",5,"ABICHDGEF","Passed AC2","","Spreadsheet1",1,"BIQ","Screen 2","svpz34",2,"response","7",8613.7,9746.9,9759.0000005722,8613.7,9746.9,9759.0000005722,1,8613.7,1145.30000057221,0,NA,"Rating Scale","Rating Scale",10,"object-121","BIQ",NA,"SUPPRF49898"
"8",1711410086961,"25/03/2024 23:41:26",1711392086961,-5,"25/03/2024 13:41:26",172741,4,"task-7hcp",NA,36442603,10756348,NA,"complete",NA,"66020a14fed03f0a4e034fb5","computer","Desktop or Laptop","Windows 10","Chrome 121.0.0.0","1280x720","1280x551",NA,NA,0,"BIQ (Charlotte)",5,"ABICHDGEF","Passed AC2","","Spreadsheet1",1,"BIQ","Screen 3","o21mwi",3,"continue","",14072.5000001907,14062.2,14072.5000001907,14072.5000001907,14062.2,14072.5000001907,1,14072.5000001907,0,0,NA,"Click To Continue","Continue Button",15,"object-50","BIQ",NA,"SUPPRF49898"
"9",1711410086966,"25/03/2024 23:41:26",1711392086966,-5,"25/03/2024 13:41:26",172741,4,"task-7hcp",NA,36442603,10756348,NA,"complete",NA,"66020a14fed03f0a4e034fb5","computer","Desktop or Laptop","Windows 10","Chrome 121.0.0.0","1280x720","1280x551",NA,NA,0,"BIQ (Charlotte)",5,"ABICHDGEF","Passed AC2","","Spreadsheet1",1,"BIQ","Screen 3","o21mwi",3,"response","1",5348.1,14062.2,14078.1000005722,5348.1,14062.2,14078.1000005722,1,5348.1,8730.0000005722,0,NA,"Rating Scale","Rating Scale",2,"object-36","BIQ",NA,"SUPPRF49898"
"10",1711410086967,"25/03/2024 23:41:26",1711392086967,-5,"25/03/2024 13:41:26",172741,4,"task-7hcp",NA,36442603,10756348,NA,"complete",NA,"66020a14fed03f0a4e034fb5","computer","Desktop or Laptop","Windows 10","Chrome 121.0.0.0","1280x720","1280x551",NA,NA,0,"BIQ (Charlotte)",5,"ABICHDGEF","Passed AC2","","Spreadsheet1",1,"BIQ","Screen 3","o21mwi",3,"response","0",9613.6,14062.2,14078.5000001907,9613.6,14062.2,14078.5000001907,1,9613.6,4464.90000019073,0,NA,"Rating Scale","Rating Scale",9,"object-86","BIQ",NA,"SUPPRF49898"
"11",1711410098938,"25/03/2024 23:41:38",1711392098938,-5,"25/03/2024 13:41:38",172741,4,"task-7hcp",NA,36442603,10756348,NA,"complete",NA,"66020a14fed03f0a4e034fb5","computer","Desktop or Laptop","Windows 10","Chrome 121.0.0.0","1280x720","1280x551",NA,NA,0,"BIQ (Charlotte)",5,"ABICHDGEF","Passed AC2","","Spreadsheet1",1,"BIQ","Screen 4","iz3the",4,"continue","",11988,11978.8,11988,11988,11978.8,11988,1,11988,0,0,NA,"Click To Continue","Continue Button",22,"object-73","BIQ",NA,"SUPPRF49898"
"12",1711410098942,"25/03/2024 23:41:38",1711392098942,-5,"25/03/2024 13:41:38",172741,4,"task-7hcp",NA,36442603,10756348,NA,"complete",NA,"66020a14fed03f0a4e034fb5","computer","Desktop or Laptop","Windows 10","Chrome 121.0.0.0","1280x720","1280x551",NA,NA,0,"BIQ (Charlotte)",5,"ABICHDGEF","Passed AC2","","Spreadsheet1",1,"BIQ","Screen 4","iz3the",4,"response","0",5097.8,11978.8,11991.5,5097.8,11978.8,11991.5,1,5097.8,6893.7,0,NA,"Rating Scale","Rating Scale",2,"object-53","BIQ",NA,"SUPPRF49898"
"13",1711410098942,"25/03/2024 23:41:38",1711392098942,-5,"25/03/2024 13:41:38",172741,4,"task-7hcp",NA,36442603,10756348,NA,"complete",NA,"66020a14fed03f0a4e034fb5","computer","Desktop or Laptop","Windows 10","Chrome 121.0.0.0","1280x720","1280x551",NA,NA,0,"BIQ (Charlotte)",5,"ABICHDGEF","Passed AC2","","Spreadsheet1",1,"BIQ","Screen 4","iz3the",4,"response","2",8613.3,11978.8,11991.9000005722,8613.3,11978.8,11991.9000005722,1,8613.3,3378.6000005722,0,NA,"Rating Scale","Rating Scale",9,"object-60","BIQ",NA,"SUPPRF49898"
"14",1711410098942,"25/03/2024 23:41:38",1711392098942,-5,"25/03/2024 13:41:38",172741,4,"task-7hcp",NA,36442603,10756348,NA,"complete",NA,"66020a14fed03f0a4e034fb5","computer","Desktop or Laptop","Windows 10","Chrome 121.0.0.0","1280x720","1280x551",NA,NA,0,"BIQ (Charlotte)",5,"ABICHDGEF","Passed AC2","","Spreadsheet1",1,"BIQ","Screen 4","iz3the",4,"response","3",11262.9,11978.8,11992.2000007629,11262.9,11978.8,11992.2000007629,1,11262.9,729.300000762938,0,NA,"Rating Scale","Rating Scale",16,"object-67","BIQ",NA,"SUPPRF49898"
"15",1711410098947,"25/03/2024 23:41:38",1711392098947,-5,"25/03/2024 13:41:38",172741,4,"task-7hcp",NA,36442603,10756348,NA,"complete",NA,"66020a14fed03f0a4e034fb5","computer","Desktop or Laptop","Windows 10","Chrome 121.0.0.0","1280x720","1280x551",NA,NA,0,"BIQ (Charlotte)",5,"ABICHDGEF","Passed AC2","","Spreadsheet1",NA,"","","",NA,"5","END",NA,NA,NA,NA,NA,NA,0,NA,NA,NA,NA,"","",NA,"","",NA,"SUPPRF49898"
"1",1711422374177,"26/03/2024 03:06:14",1711404374177,-5,"25/03/2024 17:06:14",172741,4,"task-7hcp",NA,36444607,10756916,NA,"complete",NA,"660238f01be858ed29072393","computer","Desktop or Laptop","Mac OS 10.15.7","Chrome 123.0.0.0","1440x900","1440x813",NA,NA,0,"BIQ (Charlotte)",5,"CDBEAFIGH","Passed AC2","","Spreadsheet1",NA,"","","",NA,"5","BEGIN",NA,NA,NA,NA,NA,NA,0,NA,NA,NA,NA,"","",NA,"","",NA,"SUPPRF60894"
"2",1711422387844,"26/03/2024 03:06:27",1711404387844,-5,"25/03/2024 17:06:27",172741,4,"task-7hcp",NA,36444607,10756916,NA,"complete",NA,"660238f01be858ed29072393","computer","Desktop or Laptop","Mac OS 10.15.7","Chrome 123.0.0.0","1440x900","1440x813",NA,NA,0,"BIQ (Charlotte)",5,"CDBEAFIGH","Passed AC2","","Spreadsheet1",1,"BIQ","Screen 1","9dh6eq",1,"continue","",13683,13666.4,13683,13683,13666.4,13683,1,13683,0,0,NA,"Click To Continue","Continue Button",16,"object-48","BIQ",NA,"SUPPRF60894"
"3",1711422387846,"26/03/2024 03:06:27",1711404387846,-5,"25/03/2024 17:06:27",172741,4,"task-7hcp",NA,36444607,10756916,NA,"complete",NA,"660238f01be858ed29072393","computer","Desktop or Laptop","Mac OS 10.15.7","Chrome 123.0.0.0","1440x900","1440x813",NA,NA,0,"BIQ (Charlotte)",5,"CDBEAFIGH","Passed AC2","","Spreadsheet1",1,"BIQ","Screen 1","9dh6eq",1,"response","6",10866,13666.4,13683,10866,13666.4,13683,1,10866,2817,0,NA,"Rating Scale","Rating Scale",3,"object-5","BIQ",NA,"SUPPRF60894"
"4",1711422387847,"26/03/2024 03:06:27",1711404387847,-5,"25/03/2024 17:06:27",172741,4,"task-7hcp",NA,36444607,10756916,NA,"complete",NA,"660238f01be858ed29072393","computer","Desktop or Laptop","Mac OS 10.15.7","Chrome 123.0.0.0","1440x900","1440x813",NA,NA,0,"BIQ (Charlotte)",5,"CDBEAFIGH","Passed AC2","","Spreadsheet1",1,"BIQ","Screen 1","9dh6eq",1,"response","6",12733.1,13666.4,13683,12733.1,13666.4,13683,1,12733.1,949.899999999998,0,NA,"Rating Scale","Rating Scale",10,"object-18","BIQ",NA,"SUPPRF60894"
"5",1711422393817,"26/03/2024 03:06:33",1711404393817,-5,"25/03/2024 17:06:33",172741,4,"task-7hcp",NA,36444607,10756916,NA,"complete",NA,"660238f01be858ed29072393","computer","Desktop or Laptop","Mac OS 10.15.7","Chrome 123.0.0.0","1440x900","1440x813",NA,NA,0,"BIQ (Charlotte)",5,"CDBEAFIGH","Passed AC2","","Spreadsheet1",1,"BIQ","Screen 2","svpz34",2,"continue","",5991,5983.3,5991,5991,5983.3,5991,1,5991,0,0,NA,"Click To Continue","Continue Button",7,"object-1017","BIQ",NA,"SUPPRF60894"
"6",1711422393818,"26/03/2024 03:06:33",1711404393818,-5,"25/03/2024 17:06:33",172741,4,"task-7hcp",NA,36444607,10756916,NA,"complete",NA,"660238f01be858ed29072393","computer","Desktop or Laptop","Mac OS 10.15.7","Chrome 123.0.0.0","1440x900","1440x813",NA,NA,0,"BIQ (Charlotte)",5,"CDBEAFIGH","Passed AC2","","Spreadsheet1",1,"BIQ","Screen 2","svpz34",2,"response","6",2500,5983.3,5991.80000000028,2500,5983.3,5991.80000000028,1,2500,3491.80000000028,0,NA,"Rating Scale","Rating Scale",8,"object-118","BIQ",NA,"SUPPRF60894"
"7",1711422393818,"26/03/2024 03:06:33",1711404393818,-5,"25/03/2024 17:06:33",172741,4,"task-7hcp",NA,36444607,10756916,NA,"complete",NA,"660238f01be858ed29072393","computer","Desktop or Laptop","Mac OS 10.15.7","Chrome 123.0.0.0","1440x900","1440x813",NA,NA,0,"BIQ (Charlotte)",5,"CDBEAFIGH","Passed AC2","","Spreadsheet1",1,"BIQ","Screen 2","svpz34",2,"response","4",3549.9,5983.3,5992.30000000028,3549.9,5983.3,5992.30000000028,1,3549.9,2442.40000000028,0,NA,"Rating Scale","Rating Scale",10,"object-121","BIQ",NA,"SUPPRF60894"
"8",1711422410094,"26/03/2024 03:06:50",1711404410094,-5,"25/03/2024 17:06:50",172741,4,"task-7hcp",NA,36444607,10756916,NA,"complete",NA,"660238f01be858ed29072393","computer","Desktop or Laptop","Mac OS 10.15.7","Chrome 123.0.0.0","1440x900","1440x813",NA,NA,0,"BIQ (Charlotte)",5,"CDBEAFIGH","Passed AC2","","Spreadsheet1",1,"BIQ","Screen 3","o21mwi",3,"continue","",16283,16266.4,16283,16283,16266.4,16283,1,16283,0,0,NA,"Click To Continue","Continue Button",15,"object-50","BIQ",NA,"SUPPRF60894"
"9",1711422410100,"26/03/2024 03:06:50",1711404410100,-5,"25/03/2024 17:06:50",172741,4,"task-7hcp",NA,36444607,10756916,NA,"complete",NA,"660238f01be858ed29072393","computer","Desktop or Laptop","Mac OS 10.15.7","Chrome 123.0.0.0","1440x900","1440x813",NA,NA,0,"BIQ (Charlotte)",5,"CDBEAFIGH","Passed AC2","","Spreadsheet1",1,"BIQ","Screen 3","o21mwi",3,"response","4",11633.1,16266.4,16283,11633.1,16266.4,16283,1,11633.1,4649.89999999999,0,NA,"Rating Scale","Rating Scale",2,"object-36","BIQ",NA,"SUPPRF60894"
"10",1711422410100,"26/03/2024 03:06:50",1711404410100,-5,"25/03/2024 17:06:50",172741,4,"task-7hcp",NA,36444607,10756916,NA,"complete",NA,"660238f01be858ed29072393","computer","Desktop or Laptop","Mac OS 10.15.7","Chrome 123.0.0.0","1440x900","1440x813",NA,NA,0,"BIQ (Charlotte)",5,"CDBEAFIGH","Passed AC2","","Spreadsheet1",1,"BIQ","Screen 3","o21mwi",3,"response","3",15415.8,16266.4,16283,15415.8,16266.4,16283,1,15415.8,867.199999999997,0,NA,"Rating Scale","Rating Scale",9,"object-86","BIQ",NA,"SUPPRF60894"
"11",1711422421736,"26/03/2024 03:07:01",1711404421736,-5,"25/03/2024 17:07:01",172741,4,"task-7hcp",NA,36444607,10756916,NA,"complete",NA,"660238f01be858ed29072393","computer","Desktop or Laptop","Mac OS 10.15.7","Chrome 123.0.0.0","1440x900","1440x813",NA,NA,0,"BIQ (Charlotte)",5,"CDBEAFIGH","Passed AC2","","Spreadsheet1",1,"BIQ","Screen 4","iz3the",4,"continue","",11660.1999999999,11648.8,11660.1999999999,11660.1999999999,11648.8,11660.1999999999,1,11660.1999999999,0,0,NA,"Click To Continue","Continue Button",22,"object-73","BIQ",NA,"SUPPRF60894"
"12",1711422421740,"26/03/2024 03:07:01",1711404421740,-5,"25/03/2024 17:07:01",172741,4,"task-7hcp",NA,36444607,10756916,NA,"complete",NA,"660238f01be858ed29072393","computer","Desktop or Laptop","Mac OS 10.15.7","Chrome 123.0.0.0","1440x900","1440x813",NA,NA,0,"BIQ (Charlotte)",5,"CDBEAFIGH","Passed AC2","","Spreadsheet1",1,"BIQ","Screen 4","iz3the",4,"response","1",6416.60000000001,11648.8,11663.6999999999,6416.60000000001,11648.8,11663.6999999999,1,6416.60000000001,5247.0999999999,0,NA,"Rating Scale","Rating Scale",2,"object-53","BIQ",NA,"SUPPRF60894"
"13",1711422421741,"26/03/2024 03:07:01",1711404421741,-5,"25/03/2024 17:07:01",172741,4,"task-7hcp",NA,36444607,10756916,NA,"complete",NA,"660238f01be858ed29072393","computer","Desktop or Laptop","Mac OS 10.15.7","Chrome 123.0.0.0","1440x900","1440x813",NA,NA,0,"BIQ (Charlotte)",5,"CDBEAFIGH","Passed AC2","","Spreadsheet1",1,"BIQ","Screen 4","iz3the",4,"response","2",7548.9,11648.8,11664.4000000001,7548.9,11648.8,11664.4000000001,1,7548.9,4115.50000000009,0,NA,"Rating Scale","Rating Scale",9,"object-60","BIQ",NA,"SUPPRF60894"
"14",1711422421741,"26/03/2024 03:07:01",1711404421741,-5,"25/03/2024 17:07:01",172741,4,"task-7hcp",NA,36444607,10756916,NA,"complete",NA,"660238f01be858ed29072393","computer","Desktop or Laptop","Mac OS 10.15.7","Chrome 123.0.0.0","1440x900","1440x813",NA,NA,0,"BIQ (Charlotte)",5,"CDBEAFIGH","Passed AC2","","Spreadsheet1",1,"BIQ","Screen 4","iz3the",4,"response","3",10449.9,11648.8,11664.9000000001,10449.9,11648.8,11664.9000000001,1,10449.9,1215.00000000009,0,NA,"Rating Scale","Rating Scale",16,"object-67","BIQ",NA,"SUPPRF60894"
"15",1711422421743,"26/03/2024 03:07:01",1711404421743,-5,"25/03/2024 17:07:01",172741,4,"task-7hcp",NA,36444607,10756916,NA,"complete",NA,"660238f01be858ed29072393","computer","Desktop or Laptop","Mac OS 10.15.7","Chrome 123.0.0.0","1440x900","1440x813",NA,NA,0,"BIQ (Charlotte)",5,"CDBEAFIGH","Passed AC2","","Spreadsheet1",NA,"","","",NA,"5","END",NA,NA,NA,NA,NA,NA,0,NA,NA,NA,NA,"","",NA,"","",NA,"SUPPRF60894"
"1",1711429933740,"26/03/2024 05:12:13",1711411933740,-5,"25/03/2024 19:12:13",172741,4,"task-7hcp",NA,36445388,10757142,NA,"complete",NA,"6602563d86cb8962f2d42b1f","computer","Desktop or Laptop","Windows 10","Chrome 123.0.0.0","1920x1080","1920x911",NA,NA,0,"BIQ (Charlotte)",5,"DECFBGAHI","Passed AC2","","Spreadsheet1",NA,"","","",NA,"5","BEGIN",NA,NA,NA,NA,NA,NA,0,NA,NA,NA,NA,"","",NA,"","",NA,"SUPPRF90238"
"2",1711429989788,"26/03/2024 05:13:09",1711411989788,-5,"25/03/2024 19:13:09",172741,4,"task-7hcp",NA,36445388,10757142,NA,"complete",NA,"6602563d86cb8962f2d42b1f","computer","Desktop or Laptop","Windows 10","Chrome 123.0.0.0","1920x1080","1920x911",NA,NA,0,"BIQ (Charlotte)",5,"DECFBGAHI","Passed AC2","","Spreadsheet1",1,"BIQ","Screen 1","9dh6eq",1,"continue","",56063.8999999881,56050,56063.8999999881,56063.8999999881,56050,56063.8999999881,1,56063.8999999881,0,0,NA,"Click To Continue","Continue Button",16,"object-48","BIQ",NA,"SUPPRF90238"
"3",1711429989789,"26/03/2024 05:13:09",1711411989789,-5,"25/03/2024 19:13:09",172741,4,"task-7hcp",NA,36445388,10757142,NA,"complete",NA,"6602563d86cb8962f2d42b1f","computer","Desktop or Laptop","Windows 10","Chrome 123.0.0.0","1920x1080","1920x911",NA,NA,0,"BIQ (Charlotte)",5,"DECFBGAHI","Passed AC2","","Spreadsheet1",1,"BIQ","Screen 1","9dh6eq",1,"response","6",43833.4,56050,56065.799999994,43833.4,56050,56065.799999994,1,43833.4,12232.399999994,0,NA,"Rating Scale","Rating Scale",3,"object-5","BIQ",NA,"SUPPRF90238"
"4",1711429989790,"26/03/2024 05:13:09",1711411989790,-5,"25/03/2024 19:13:09",172741,4,"task-7hcp",NA,36445388,10757142,NA,"complete",NA,"6602563d86cb8962f2d42b1f","computer","Desktop or Laptop","Windows 10","Chrome 123.0.0.0","1920x1080","1920x911",NA,NA,0,"BIQ (Charlotte)",5,"DECFBGAHI","Passed AC2","","Spreadsheet1",1,"BIQ","Screen 1","9dh6eq",1,"response","6",54166.7,56050,56066.0000000119,54166.7,56050,56066.0000000119,1,54166.7,1899.30000001192,0,NA,"Rating Scale","Rating Scale",10,"object-18","BIQ",NA,"SUPPRF90238"
"5",1711430002900,"26/03/2024 05:13:22",1711412002900,-5,"25/03/2024 19:13:22",172741,4,"task-7hcp",NA,36445388,10757142,NA,"complete",NA,"6602563d86cb8962f2d42b1f","computer","Desktop or Laptop","Windows 10","Chrome 123.0.0.0","1920x1080","1920x911",NA,NA,0,"BIQ (Charlotte)",5,"DECFBGAHI","Passed AC2","","Spreadsheet1",1,"BIQ","Screen 2","svpz34",2,"continue","",13127.2,13116.7,13127.2,13127.2,13116.7,13127.2,1,13127.2,0,0,NA,"Click To Continue","Continue Button",7,"object-1017","BIQ",NA,"SUPPRF90238"
"6",1711430002902,"26/03/2024 05:13:22",1711412002902,-5,"25/03/2024 19:13:22",172741,4,"task-7hcp",NA,36445388,10757142,NA,"complete",NA,"6602563d86cb8962f2d42b1f","computer","Desktop or Laptop","Windows 10","Chrome 123.0.0.0","1920x1080","1920x911",NA,NA,0,"BIQ (Charlotte)",5,"DECFBGAHI","Passed AC2","","Spreadsheet1",1,"BIQ","Screen 2","svpz34",2,"response","1",5966.7,13116.7,13128.7,5966.7,13116.7,13128.7,1,5966.7,7162,0,NA,"Rating Scale","Rating Scale",8,"object-118","BIQ",NA,"SUPPRF90238"
"7",1711430002902,"26/03/2024 05:13:22",1711412002902,-5,"25/03/2024 19:13:22",172741,4,"task-7hcp",NA,36445388,10757142,NA,"complete",NA,"6602563d86cb8962f2d42b1f","computer","Desktop or Laptop","Windows 10","Chrome 123.0.0.0","1920x1080","1920x911",NA,NA,0,"BIQ (Charlotte)",5,"DECFBGAHI","Passed AC2","","Spreadsheet1",1,"BIQ","Screen 2","svpz34",2,"response","8",10933.6,13116.7,13128.799999994,10933.6,13116.7,13128.799999994,1,10933.6,2195.19999999405,0,NA,"Rating Scale","Rating Scale",10,"object-121","BIQ",NA,"SUPPRF90238"
"8",1711430022979,"26/03/2024 05:13:42",1711412022979,-5,"25/03/2024 19:13:42",172741,4,"task-7hcp",NA,36445388,10757142,NA,"complete",NA,"6602563d86cb8962f2d42b1f","computer","Desktop or Laptop","Windows 10","Chrome 123.0.0.0","1920x1080","1920x911",NA,NA,0,"BIQ (Charlotte)",5,"DECFBGAHI","Passed AC2","","Spreadsheet1",1,"BIQ","Screen 3","o21mwi",3,"continue","",20089.5,20083.3,20089.5,20089.5,20083.3,20089.5,1,20089.5,0,0,NA,"Click To Continue","Continue Button",15,"object-50","BIQ",NA,"SUPPRF90238"
"9",1711430022981,"26/03/2024 05:13:42",1711412022981,-5,"25/03/2024 19:13:42",172741,4,"task-7hcp",NA,36445388,10757142,NA,"complete",NA,"6602563d86cb8962f2d42b1f","computer","Desktop or Laptop","Windows 10","Chrome 123.0.0.0","1920x1080","1920x911",NA,NA,0,"BIQ (Charlotte)",5,"DECFBGAHI","Passed AC2","","Spreadsheet1",1,"BIQ","Screen 3","o21mwi",3,"response","2",10250,20083.3,20091.3000000119,10250,20083.3,20091.3000000119,1,10250,9841.30000001192,0,NA,"Rating Scale","Rating Scale",2,"object-36","BIQ",NA,"SUPPRF90238"
"10",1711430022981,"26/03/2024 05:13:42",1711412022981,-5,"25/03/2024 19:13:42",172741,4,"task-7hcp",NA,36445388,10757142,NA,"complete",NA,"6602563d86cb8962f2d42b1f","computer","Desktop or Laptop","Windows 10","Chrome 123.0.0.0","1920x1080","1920x911",NA,NA,0,"BIQ (Charlotte)",5,"DECFBGAHI","Passed AC2","","Spreadsheet1",1,"BIQ","Screen 3","o21mwi",3,"response","3",18650,20083.3,20091.400000006,18650,20083.3,20091.400000006,1,18650,1441.40000000596,0,NA,"Rating Scale","Rating Scale",9,"object-86","BIQ",NA,"SUPPRF90238"
"11",1711430041572,"26/03/2024 05:14:01",1711412041572,-5,"25/03/2024 19:14:01",172741,4,"task-7hcp",NA,36445388,10757142,NA,"complete",NA,"6602563d86cb8962f2d42b1f","computer","Desktop or Laptop","Windows 10","Chrome 123.0.0.0","1920x1080","1920x911",NA,NA,0,"BIQ (Charlotte)",5,"DECFBGAHI","Passed AC2","","Spreadsheet1",1,"BIQ","Screen 4","iz3the",4,"continue","",18598.799999994,18583.2,18598.799999994,18598.799999994,18583.2,18598.799999994,1,18598.799999994,0,0,NA,"Click To Continue","Continue Button",22,"object-73","BIQ",NA,"SUPPRF90238"
"12",1711430041574,"26/03/2024 05:14:01",1711412041574,-5,"25/03/2024 19:14:01",172741,4,"task-7hcp",NA,36445388,10757142,NA,"complete",NA,"6602563d86cb8962f2d42b1f","computer","Desktop or Laptop","Windows 10","Chrome 123.0.0.0","1920x1080","1920x911",NA,NA,0,"BIQ (Charlotte)",5,"DECFBGAHI","Passed AC2","","Spreadsheet1",1,"BIQ","Screen 4","iz3the",4,"response","0",4416.59999999999,18583.2,18599.8,4416.59999999999,18583.2,18599.8,1,4416.59999999999,14183.2,0,NA,"Rating Scale","Rating Scale",2,"object-53","BIQ",NA,"SUPPRF90238"
"13",1711430041574,"26/03/2024 05:14:01",1711412041574,-5,"25/03/2024 19:14:01",172741,4,"task-7hcp",NA,36445388,10757142,NA,"complete",NA,"6602563d86cb8962f2d42b1f","computer","Desktop or Laptop","Windows 10","Chrome 123.0.0.0","1920x1080","1920x911",NA,NA,0,"BIQ (Charlotte)",5,"DECFBGAHI","Passed AC2","","Spreadsheet1",1,"BIQ","Screen 4","iz3the",4,"response","0",14216.7,18583.2,18599.8,14216.7,18583.2,18599.8,1,14216.7,4383.10000000001,0,NA,"Rating Scale","Rating Scale",9,"object-60","BIQ",NA,"SUPPRF90238"
"14",1711430041574,"26/03/2024 05:14:01",1711412041574,-5,"25/03/2024 19:14:01",172741,4,"task-7hcp",NA,36445388,10757142,NA,"complete",NA,"6602563d86cb8962f2d42b1f","computer","Desktop or Laptop","Windows 10","Chrome 123.0.0.0","1920x1080","1920x911",NA,NA,0,"BIQ (Charlotte)",5,"DECFBGAHI","Passed AC2","","Spreadsheet1",1,"BIQ","Screen 4","iz3the",4,"response","5",17333.3,18583.2,18599.8,17333.3,18583.2,18599.8,1,17333.3,1266.5,0,NA,"Rating Scale","Rating Scale",16,"object-67","BIQ",NA,"SUPPRF90238"
"15",1711430041575,"26/03/2024 05:14:01",1711412041575,-5,"25/03/2024 19:14:01",172741,4,"task-7hcp",NA,36445388,10757142,NA,"complete",NA,"6602563d86cb8962f2d42b1f","computer","Desktop or Laptop","Windows 10","Chrome 123.0.0.0","1920x1080","1920x911",NA,NA,0,"BIQ (Charlotte)",5,"DECFBGAHI","Passed AC2","","Spreadsheet1",NA,"","","",NA,"5","END",NA,NA,NA,NA,NA,NA,0,NA,NA,NA,NA,"","",NA,"","",NA,"SUPPRF90238"
"1",1711431451851,"26/03/2024 05:37:31",1711417051851,-4,"25/03/2024 21:37:31",172741,4,"task-7hcp",NA,36445488,10757176,NA,"complete",NA,"66025d2d6e435259d20b2437","computer","Desktop or Laptop","Mac OS 10.15.7","Chrome 120.0.0.0","1792x1120","1212x740",NA,NA,0,"BIQ (Charlotte)",5,"EFDGCHBIA","Passed AC2","","Spreadsheet1",NA,"","","",NA,"5","BEGIN",NA,NA,NA,NA,NA,NA,0,NA,NA,NA,NA,"","",NA,"","",NA,"SUPPRF18827"
"2",1711431475664,"26/03/2024 05:37:55",1711417075664,-4,"25/03/2024 21:37:55",172741,4,"task-7hcp",NA,36445488,10757176,NA,"complete",NA,"66025d2d6e435259d20b2437","computer","Desktop or Laptop","Mac OS 10.15.7","Chrome 120.0.0.0","1792x1120","1212x740",NA,NA,0,"BIQ (Charlotte)",5,"EFDGCHBIA","Passed AC2","","Spreadsheet1",1,"BIQ","Screen 1","9dh6eq",1,"continue","",23828.300000006,23817.2,23828.300000006,23828.300000006,23817.2,23828.300000006,1,23828.300000006,0,0,NA,"Click To Continue","Continue Button",16,"object-48","BIQ",NA,"SUPPRF18827"
"3",1711431475666,"26/03/2024 05:37:55",1711417075666,-4,"25/03/2024 21:37:55",172741,4,"task-7hcp",NA,36445488,10757176,NA,"complete",NA,"66025d2d6e435259d20b2437","computer","Desktop or Laptop","Mac OS 10.15.7","Chrome 120.0.0.0","1792x1120","1212x740",NA,NA,0,"BIQ (Charlotte)",5,"EFDGCHBIA","Passed AC2","","Spreadsheet1",1,"BIQ","Screen 1","9dh6eq",1,"response","6",16383.6,23817.2,23830.0999999881,16383.6,23817.2,23830.0999999881,1,16383.6,7446.49999998808,0,NA,"Rating Scale","Rating Scale",3,"object-5","BIQ",NA,"SUPPRF18827"
"4",1711431475666,"26/03/2024 05:37:55",1711417075666,-4,"25/03/2024 21:37:55",172741,4,"task-7hcp",NA,36445488,10757176,NA,"complete",NA,"66025d2d6e435259d20b2437","computer","Desktop or Laptop","Mac OS 10.15.7","Chrome 120.0.0.0","1792x1120","1212x740",NA,NA,0,"BIQ (Charlotte)",5,"EFDGCHBIA","Passed AC2","","Spreadsheet1",1,"BIQ","Screen 1","9dh6eq",1,"response","4",21400.1,23817.2,23830.4,21400.1,23817.2,23830.4,1,21400.1,2430.3,0,NA,"Rating Scale","Rating Scale",10,"object-18","BIQ",NA,"SUPPRF18827"
"5",1711431488204,"26/03/2024 05:38:08",1711417088204,-4,"25/03/2024 21:38:08",172741,4,"task-7hcp",NA,36445488,10757176,NA,"complete",NA,"66025d2d6e435259d20b2437","computer","Desktop or Laptop","Mac OS 10.15.7","Chrome 120.0.0.0","1792x1120","1212x740",NA,NA,0,"BIQ (Charlotte)",5,"EFDGCHBIA","Passed AC2","","Spreadsheet1",1,"BIQ","Screen 2","svpz34",2,"continue","",12550.1,12533.4,12550.1,12550.1,12533.4,12550.1,1,12550.1,0,0,NA,"Click To Continue","Continue Button",7,"object-1017","BIQ",NA,"SUPPRF18827"
"6",1711431488206,"26/03/2024 05:38:08",1711417088206,-4,"25/03/2024 21:38:08",172741,4,"task-7hcp",NA,36445488,10757176,NA,"complete",NA,"66025d2d6e435259d20b2437","computer","Desktop or Laptop","Mac OS 10.15.7","Chrome 120.0.0.0","1792x1120","1212x740",NA,NA,0,"BIQ (Charlotte)",5,"EFDGCHBIA","Passed AC2","","Spreadsheet1",1,"BIQ","Screen 2","svpz34",2,"response","4",4299.9,12533.4,12550.1,4299.9,12533.4,12550.1,1,4299.9,8250.19999999999,0,NA,"Rating Scale","Rating Scale",8,"object-118","BIQ",NA,"SUPPRF18827"
"7",1711431488207,"26/03/2024 05:38:08",1711417088207,-4,"25/03/2024 21:38:08",172741,4,"task-7hcp",NA,36445488,10757176,NA,"complete",NA,"66025d2d6e435259d20b2437","computer","Desktop or Laptop","Mac OS 10.15.7","Chrome 120.0.0.0","1792x1120","1212x740",NA,NA,0,"BIQ (Charlotte)",5,"EFDGCHBIA","Passed AC2","","Spreadsheet1",1,"BIQ","Screen 2","svpz34",2,"response","5",11516.7,12533.4,12550.1,11516.7,12533.4,12550.1,1,11516.7,1033.39999999999,0,NA,"Rating Scale","Rating Scale",10,"object-121","BIQ",NA,"SUPPRF18827"
"8",1711431503755,"26/03/2024 05:38:23",1711417103755,-4,"25/03/2024 21:38:23",172741,4,"task-7hcp",NA,36445488,10757176,NA,"complete",NA,"66025d2d6e435259d20b2437","computer","Desktop or Laptop","Mac OS 10.15.7","Chrome 120.0.0.0","1792x1120","1212x740",NA,NA,0,"BIQ (Charlotte)",5,"EFDGCHBIA","Passed AC2","","Spreadsheet1",1,"BIQ","Screen 3","o21mwi",3,"continue","",15566.4,15549.8,15566.4,15566.4,15549.8,15566.4,1,15566.4,0,0,NA,"Click To Continue","Continue Button",15,"object-50","BIQ",NA,"SUPPRF18827"
"9",1711431503757,"26/03/2024 05:38:23",1711417103757,-4,"25/03/2024 21:38:23",172741,4,"task-7hcp",NA,36445488,10757176,NA,"complete",NA,"66025d2d6e435259d20b2437","computer","Desktop or Laptop","Mac OS 10.15.7","Chrome 120.0.0.0","1792x1120","1212x740",NA,NA,0,"BIQ (Charlotte)",5,"EFDGCHBIA","Passed AC2","","Spreadsheet1",1,"BIQ","Screen 3","o21mwi",3,"response","5",6266.8,15549.8,15566.4,6266.8,15549.8,15566.4,1,6266.8,9299.6,0,NA,"Rating Scale","Rating Scale",2,"object-36","BIQ",NA,"SUPPRF18827"
"10",1711431503758,"26/03/2024 05:38:23",1711417103758,-4,"25/03/2024 21:38:23",172741,4,"task-7hcp",NA,36445488,10757176,NA,"complete",NA,"66025d2d6e435259d20b2437","computer","Desktop or Laptop","Mac OS 10.15.7","Chrome 120.0.0.0","1792x1120","1212x740",NA,NA,0,"BIQ (Charlotte)",5,"EFDGCHBIA","Passed AC2","","Spreadsheet1",1,"BIQ","Screen 3","o21mwi",3,"response","4",12549.9,15549.8,15566.4,12549.9,15549.8,15566.4,1,12549.9,3016.5,0,NA,"Rating Scale","Rating Scale",9,"object-86","BIQ",NA,"SUPPRF18827"
"11",1711431517038,"26/03/2024 05:38:37",1711417117038,-4,"25/03/2024 21:38:37",172741,4,"task-7hcp",NA,36445488,10757176,NA,"complete",NA,"66025d2d6e435259d20b2437","computer","Desktop or Laptop","Mac OS 10.15.7","Chrome 120.0.0.0","1792x1120","1212x740",NA,NA,0,"BIQ (Charlotte)",5,"EFDGCHBIA","Passed AC2","","Spreadsheet1",1,"BIQ","Screen 4","iz3the",4,"continue","",13300.4,13283.8,13300.4,13300.4,13283.8,13300.4,1,13300.4,0,0,NA,"Click To Continue","Continue Button",22,"object-73","BIQ",NA,"SUPPRF18827"
"12",1711431517040,"26/03/2024 05:38:37",1711417117040,-4,"25/03/2024 21:38:37",172741,4,"task-7hcp",NA,36445488,10757176,NA,"complete",NA,"66025d2d6e435259d20b2437","computer","Desktop or Laptop","Mac OS 10.15.7","Chrome 120.0.0.0","1792x1120","1212x740",NA,NA,0,"BIQ (Charlotte)",5,"EFDGCHBIA","Passed AC2","","Spreadsheet1",1,"BIQ","Screen 4","iz3the",4,"response","3",4883.7,13283.8,13300.4,4883.7,13283.8,13300.4,1,4883.7,8416.70000000001,0,NA,"Rating Scale","Rating Scale",2,"object-53","BIQ",NA,"SUPPRF18827"
"13",1711431517040,"26/03/2024 05:38:37",1711417117040,-4,"25/03/2024 21:38:37",172741,4,"task-7hcp",NA,36445488,10757176,NA,"complete",NA,"66025d2d6e435259d20b2437","computer","Desktop or Laptop","Mac OS 10.15.7","Chrome 120.0.0.0","1792x1120","1212x740",NA,NA,0,"BIQ (Charlotte)",5,"EFDGCHBIA","Passed AC2","","Spreadsheet1",1,"BIQ","Screen 4","iz3the",4,"response","4",7966.8,13283.8,13300.4,7966.8,13283.8,13300.4,1,7966.8,5333.60000000001,0,NA,"Rating Scale","Rating Scale",9,"object-60","BIQ",NA,"SUPPRF18827"
"14",1711431517040,"26/03/2024 05:38:37",1711417117040,-4,"25/03/2024 21:38:37",172741,4,"task-7hcp",NA,36445488,10757176,NA,"complete",NA,"66025d2d6e435259d20b2437","computer","Desktop or Laptop","Mac OS 10.15.7","Chrome 120.0.0.0","1792x1120","1212x740",NA,NA,0,"BIQ (Charlotte)",5,"EFDGCHBIA","Passed AC2","","Spreadsheet1",1,"BIQ","Screen 4","iz3the",4,"response","3",12083.9,13283.8,13300.4,12083.9,13283.8,13300.4,1,12083.9,1216.50000000001,0,NA,"Rating Scale","Rating Scale",16,"object-67","BIQ",NA,"SUPPRF18827"
"15",1711431517044,"26/03/2024 05:38:37",1711417117044,-4,"25/03/2024 21:38:37",172741,4,"task-7hcp",NA,36445488,10757176,NA,"complete",NA,"66025d2d6e435259d20b2437","computer","Desktop or Laptop","Mac OS 10.15.7","Chrome 120.0.0.0","1792x1120","1212x740",NA,NA,0,"BIQ (Charlotte)",5,"EFDGCHBIA","Passed AC2","","Spreadsheet1",NA,"","","",NA,"5","END",NA,NA,NA,NA,NA,NA,0,NA,NA,NA,NA,"","",NA,"","",NA,"SUPPRF18827"
"1",1711449297503,"26/03/2024 10:34:57",1711449297503,0,"26/03/2024 10:34:57",172741,4,"task-7hcp",NA,36452326,10759064,NA,"complete",NA,"6602a30233c28bbe2e29631e","computer","Desktop or Laptop","Windows 10","Chrome 123.0.0.0","1366x768","1366x641",NA,NA,0,"BIQ (Charlotte)",5,"FGEHDICAB","Passed AC2","","Spreadsheet1",NA,"","","",NA,"5","BEGIN",NA,NA,NA,NA,NA,NA,0,NA,NA,NA,NA,"","",NA,"","",NA,"SUPPRF28922"
"2",1711449454451,"26/03/2024 10:37:34",1711449454451,0,"26/03/2024 10:37:34",172741,4,"task-7hcp",NA,36452326,10759064,NA,"complete",NA,"6602a30233c28bbe2e29631e","computer","Desktop or Laptop","Windows 10","Chrome 123.0.0.0","1366x768","1366x641",NA,NA,0,"BIQ (Charlotte)",5,"FGEHDICAB","Passed AC2","","Spreadsheet1",1,"BIQ","Screen 1","9dh6eq",1,"continue","",156967.727999994,156959.628,156967.727999994,156967.727999994,156959.628,156967.727999994,1,156967.727999994,0,0,NA,"Click To Continue","Continue Button",16,"object-48","BIQ",NA,"SUPPRF28922"
"3",1711449454454,"26/03/2024 10:37:34",1711449454454,0,"26/03/2024 10:37:34",172741,4,"task-7hcp",NA,36452326,10759064,NA,"complete",NA,"6602a30233c28bbe2e29631e","computer","Desktop or Laptop","Windows 10","Chrome 123.0.0.0","1366x768","1366x641",NA,NA,0,"BIQ (Charlotte)",5,"FGEHDICAB","Passed AC2","","Spreadsheet1",1,"BIQ","Screen 1","9dh6eq",1,"response","7",143926.728,156959.628,156971.428000012,143926.728,156959.628,156971.428000012,1,143926.728,13044.7000000119,0,NA,"Rating Scale","Rating Scale",3,"object-5","BIQ",NA,"SUPPRF28922"
"4",1711449454455,"26/03/2024 10:37:34",1711449454455,0,"26/03/2024 10:37:34",172741,4,"task-7hcp",NA,36452326,10759064,NA,"complete",NA,"6602a30233c28bbe2e29631e","computer","Desktop or Laptop","Windows 10","Chrome 123.0.0.0","1366x768","1366x641",NA,NA,0,"BIQ (Charlotte)",5,"FGEHDICAB","Passed AC2","","Spreadsheet1",1,"BIQ","Screen 1","9dh6eq",1,"response","2",149126.528,156959.628,156972.128,149126.528,156959.628,156972.128,1,149126.528,7845.60000000001,0,NA,"Rating Scale","Rating Scale",10,"object-18","BIQ",NA,"SUPPRF28922"
"5",1711449465920,"26/03/2024 10:37:45",1711449465920,0,"26/03/2024 10:37:45",172741,4,"task-7hcp",NA,36452326,10759064,NA,"complete",NA,"6602a30233c28bbe2e29631e","computer","Desktop or Laptop","Windows 10","Chrome 123.0.0.0","1366x768","1366x641",NA,NA,0,"BIQ (Charlotte)",5,"FGEHDICAB","Passed AC2","","Spreadsheet1",1,"BIQ","Screen 2","svpz34",2,"continue","",11477.599999994,11466.3,11477.599999994,11477.599999994,11466.3,11477.599999994,1,11477.599999994,0,0,NA,"Click To Continue","Continue Button",7,"object-1017","BIQ",NA,"SUPPRF28922"
"6",1711449465923,"26/03/2024 10:37:45",1711449465923,0,"26/03/2024 10:37:45",172741,4,"task-7hcp",NA,36452326,10759064,NA,"complete",NA,"6602a30233c28bbe2e29631e","computer","Desktop or Laptop","Windows 10","Chrome 123.0.0.0","1366x768","1366x641",NA,NA,0,"BIQ (Charlotte)",5,"FGEHDICAB","Passed AC2","","Spreadsheet1",1,"BIQ","Screen 2","svpz34",2,"response","2",4499.89999999999,11466.3,11480.5,4499.89999999999,11466.3,11480.5,1,4499.89999999999,6980.60000000001,0,NA,"Rating Scale","Rating Scale",8,"object-118","BIQ",NA,"SUPPRF28922"
"7",1711449465924,"26/03/2024 10:37:45",1711449465924,0,"26/03/2024 10:37:45",172741,4,"task-7hcp",NA,36452326,10759064,NA,"complete",NA,"6602a30233c28bbe2e29631e","computer","Desktop or Laptop","Windows 10","Chrome 123.0.0.0","1366x768","1366x641",NA,NA,0,"BIQ (Charlotte)",5,"FGEHDICAB","Passed AC2","","Spreadsheet1",1,"BIQ","Screen 2","svpz34",2,"response","6",7466.20000000001,11466.3,11481.599999994,7466.20000000001,11466.3,11481.599999994,1,7466.20000000001,4015.39999999403,0,NA,"Rating Scale","Rating Scale",10,"object-121","BIQ",NA,"SUPPRF28922"
"8",1711449484296,"26/03/2024 10:38:04",1711449484296,0,"26/03/2024 10:38:04",172741,4,"task-7hcp",NA,36452326,10759064,NA,"complete",NA,"6602a30233c28bbe2e29631e","computer","Desktop or Laptop","Windows 10","Chrome 123.0.0.0","1366x768","1366x641",NA,NA,0,"BIQ (Charlotte)",5,"FGEHDICAB","Passed AC2","","Spreadsheet1",1,"BIQ","Screen 3","o21mwi",3,"continue","",18386.7999999941,18382.1,18386.7999999941,18386.7999999941,18382.1,18386.7999999941,1,18386.7999999941,0,0,NA,"Click To Continue","Continue Button",15,"object-50","BIQ",NA,"SUPPRF28922"
"9",1711449484298,"26/03/2024 10:38:04",1711449484298,0,"26/03/2024 10:38:04",172741,4,"task-7hcp",NA,36452326,10759064,NA,"complete",NA,"6602a30233c28bbe2e29631e","computer","Desktop or Laptop","Windows 10","Chrome 123.0.0.0","1366x768","1366x641",NA,NA,0,"BIQ (Charlotte)",5,"FGEHDICAB","Passed AC2","","Spreadsheet1",1,"BIQ","Screen 3","o21mwi",3,"response","3",9499.20000000001,18382.1,18389.0000000119,9499.20000000001,18382.1,18389.0000000119,1,9499.20000000001,8889.80000001192,0,NA,"Rating Scale","Rating Scale",2,"object-36","BIQ",NA,"SUPPRF28922"
"10",1711449484298,"26/03/2024 10:38:04",1711449484298,0,"26/03/2024 10:38:04",172741,4,"task-7hcp",NA,36452326,10759064,NA,"complete",NA,"6602a30233c28bbe2e29631e","computer","Desktop or Laptop","Windows 10","Chrome 123.0.0.0","1366x768","1366x641",NA,NA,0,"BIQ (Charlotte)",5,"FGEHDICAB","Passed AC2","","Spreadsheet1",1,"BIQ","Screen 3","o21mwi",3,"response","6",16365.7,18382.1,18389.5000000119,16365.7,18382.1,18389.5000000119,1,16365.7,2023.80000001192,0,NA,"Rating Scale","Rating Scale",9,"object-86","BIQ",NA,"SUPPRF28922"
"11",1711449507643,"26/03/2024 10:38:27",1711449507643,0,"26/03/2024 10:38:27",172741,4,"task-7hcp",NA,36452326,10759064,NA,"complete",NA,"6602a30233c28bbe2e29631e","computer","Desktop or Laptop","Windows 10","Chrome 123.0.0.0","1366x768","1366x641",NA,NA,0,"BIQ (Charlotte)",5,"FGEHDICAB","Passed AC2","","Spreadsheet1",1,"BIQ","Screen 4","iz3the",4,"continue","",23352.6,23349,23352.6,23352.6,23349,23352.6,1,23352.6,0,0,NA,"Click To Continue","Continue Button",22,"object-73","BIQ",NA,"SUPPRF28922"
"12",1711449507648,"26/03/2024 10:38:27",1711449507648,0,"26/03/2024 10:38:27",172741,4,"task-7hcp",NA,36452326,10759064,NA,"complete",NA,"6602a30233c28bbe2e29631e","computer","Desktop or Laptop","Windows 10","Chrome 123.0.0.0","1366x768","1366x641",NA,NA,0,"BIQ (Charlotte)",5,"FGEHDICAB","Passed AC2","","Spreadsheet1",1,"BIQ","Screen 4","iz3the",4,"response","0",5633.5,23349,23357.4000000119,5633.5,23349,23357.4000000119,1,5633.5,17723.9000000119,0,NA,"Rating Scale","Rating Scale",2,"object-53","BIQ",NA,"SUPPRF28922"
"13",1711449507650,"26/03/2024 10:38:27",1711449507650,0,"26/03/2024 10:38:27",172741,4,"task-7hcp",NA,36452326,10759064,NA,"complete",NA,"6602a30233c28bbe2e29631e","computer","Desktop or Laptop","Windows 10","Chrome 123.0.0.0","1366x768","1366x641",NA,NA,0,"BIQ (Charlotte)",5,"FGEHDICAB","Passed AC2","","Spreadsheet1",1,"BIQ","Screen 4","iz3the",4,"response","4",13983.1,23349,23358.9000000119,13983.1,23349,23358.9000000119,1,13983.1,9375.80000001192,0,NA,"Rating Scale","Rating Scale",9,"object-60","BIQ",NA,"SUPPRF28922"
"14",1711449507651,"26/03/2024 10:38:27",1711449507651,0,"26/03/2024 10:38:27",172741,4,"task-7hcp",NA,36452326,10759064,NA,"complete",NA,"6602a30233c28bbe2e29631e","computer","Desktop or Laptop","Windows 10","Chrome 123.0.0.0","1366x768","1366x641",NA,NA,0,"BIQ (Charlotte)",5,"FGEHDICAB","Passed AC2","","Spreadsheet1",1,"BIQ","Screen 4","iz3the",4,"response","4",22432.4,23349,23360.1,22432.4,23349,23360.1,1,22432.4,927.700000000012,0,NA,"Rating Scale","Rating Scale",16,"object-67","BIQ",NA,"SUPPRF28922"
"15",1711449507663,"26/03/2024 10:38:27",1711449507663,0,"26/03/2024 10:38:27",172741,4,"task-7hcp",NA,36452326,10759064,NA,"complete",NA,"6602a30233c28bbe2e29631e","computer","Desktop or Laptop","Windows 10","Chrome 123.0.0.0","1366x768","1366x641",NA,NA,0,"BIQ (Charlotte)",5,"FGEHDICAB","Passed AC2","","Spreadsheet1",NA,"","","",NA,"5","END",NA,NA,NA,NA,NA,NA,0,NA,NA,NA,NA,"","",NA,"","",NA,"SUPPRF28922"
"1",1711459152633,"26/03/2024 13:19:12",1711459152633,0,"26/03/2024 13:19:12",172741,4,"task-7hcp",NA,36462117,10761843,NA,"complete",NA,"6602c9270bfcef8b81cfcfc1","computer","Desktop or Laptop","Windows 10","Chrome 122.0.0.0","1280x720","1280x585",NA,NA,0,"BIQ (Charlotte)",5,"GHFIEADBC","Passed AC2","","Spreadsheet1",NA,"","","",NA,"5","BEGIN",NA,NA,NA,NA,NA,NA,0,NA,NA,NA,NA,"","",NA,"","",NA,"SUPPRF15230"
"2",1711459194107,"26/03/2024 13:19:54",1711459194107,0,"26/03/2024 13:19:54",172741,4,"task-7hcp",NA,36462117,10761843,NA,"complete",NA,"6602c9270bfcef8b81cfcfc1","computer","Desktop or Laptop","Windows 10","Chrome 122.0.0.0","1280x720","1280x585",NA,NA,0,"BIQ (Charlotte)",5,"GHFIEADBC","Passed AC2","","Spreadsheet1",1,"BIQ","Screen 1","9dh6eq",1,"continue","",42562,42545.9,42562,42562,42545.9,42562,1,42562,0,0,NA,"Click To Continue","Continue Button",16,"object-48","BIQ",NA,"SUPPRF15230"
"3",1711459194110,"26/03/2024 13:19:54",1711459194110,0,"26/03/2024 13:19:54",172741,4,"task-7hcp",NA,36462117,10761843,NA,"complete",NA,"6602c9270bfcef8b81cfcfc1","computer","Desktop or Laptop","Windows 10","Chrome 122.0.0.0","1280x720","1280x585",NA,NA,0,"BIQ (Charlotte)",5,"GHFIEADBC","Passed AC2","","Spreadsheet1",1,"BIQ","Screen 1","9dh6eq",1,"response","2",8302.9,42545.9,42562.5,8302.9,42545.9,42562.5,1,8302.9,34259.6,0,NA,"Rating Scale","Rating Scale",3,"object-5","BIQ",NA,"SUPPRF15230"
"4",1711459194111,"26/03/2024 13:19:54",1711459194111,0,"26/03/2024 13:19:54",172741,4,"task-7hcp",NA,36462117,10761843,NA,"complete",NA,"6602c9270bfcef8b81cfcfc1","computer","Desktop or Laptop","Windows 10","Chrome 122.0.0.0","1280x720","1280x585",NA,NA,0,"BIQ (Charlotte)",5,"GHFIEADBC","Passed AC2","","Spreadsheet1",1,"BIQ","Screen 1","9dh6eq",1,"response","6",40413.4,42545.9,42562.5,40413.4,42545.9,42562.5,1,40413.4,2149.1,0,NA,"Rating Scale","Rating Scale",10,"object-18","BIQ",NA,"SUPPRF15230"
"5",1711459209734,"26/03/2024 13:20:09",1711459209734,0,"26/03/2024 13:20:09",172741,4,"task-7hcp",NA,36462117,10761843,NA,"complete",NA,"6602c9270bfcef8b81cfcfc1","computer","Desktop or Laptop","Windows 10","Chrome 122.0.0.0","1280x720","1280x585",NA,NA,0,"BIQ (Charlotte)",5,"GHFIEADBC","Passed AC2","","Spreadsheet1",1,"BIQ","Screen 2","svpz34",2,"continue","",15645.1,15630.6,15645.1,15645.1,15630.6,15645.1,1,15645.1,0,0,NA,"Click To Continue","Continue Button",7,"object-1017","BIQ",NA,"SUPPRF15230"
"6",1711459209738,"26/03/2024 13:20:09",1711459209738,0,"26/03/2024 13:20:09",172741,4,"task-7hcp",NA,36462117,10761843,NA,"complete",NA,"6602c9270bfcef8b81cfcfc1","computer","Desktop or Laptop","Windows 10","Chrome 122.0.0.0","1280x720","1280x585",NA,NA,0,"BIQ (Charlotte)",5,"GHFIEADBC","Passed AC2","","Spreadsheet1",1,"BIQ","Screen 2","svpz34",2,"response","2",5449.4,15630.6,15647.7,5449.4,15630.6,15647.7,1,5449.4,10198.3,0,NA,"Rating Scale","Rating Scale",8,"object-118","BIQ",NA,"SUPPRF15230"
"7",1711459209739,"26/03/2024 13:20:09",1711459209739,0,"26/03/2024 13:20:09",172741,4,"task-7hcp",NA,36462117,10761843,NA,"complete",NA,"6602c9270bfcef8b81cfcfc1","computer","Desktop or Laptop","Windows 10","Chrome 122.0.0.0","1280x720","1280x585",NA,NA,0,"BIQ (Charlotte)",5,"GHFIEADBC","Passed AC2","","Spreadsheet1",1,"BIQ","Screen 2","svpz34",2,"response","6",13314,15630.6,15647.7,13314,15630.6,15647.7,1,13314,2333.7,0,NA,"Rating Scale","Rating Scale",10,"object-121","BIQ",NA,"SUPPRF15230"
"8",1711459228572,"26/03/2024 13:20:28",1711459228572,0,"26/03/2024 13:20:28",172741,4,"task-7hcp",NA,36462117,10761843,NA,"complete",NA,"6602c9270bfcef8b81cfcfc1","computer","Desktop or Laptop","Windows 10","Chrome 122.0.0.0","1280x720","1280x585",NA,NA,0,"BIQ (Charlotte)",5,"GHFIEADBC","Passed AC2","","Spreadsheet1",1,"BIQ","Screen 3","o21mwi",3,"continue","",18851.4000000954,18847.1,18851.4000000954,18851.4000000954,18847.1,18851.4000000954,1,18851.4000000954,0,0,NA,"Click To Continue","Continue Button",15,"object-50","BIQ",NA,"SUPPRF15230"
"9",1711459228575,"26/03/2024 13:20:28",1711459228575,0,"26/03/2024 13:20:28",172741,4,"task-7hcp",NA,36462117,10761843,NA,"complete",NA,"6602c9270bfcef8b81cfcfc1","computer","Desktop or Laptop","Windows 10","Chrome 122.0.0.0","1280x720","1280x585",NA,NA,0,"BIQ (Charlotte)",5,"GHFIEADBC","Passed AC2","","Spreadsheet1",1,"BIQ","Screen 3","o21mwi",3,"response","6",10247.7,18847.1,18855.4000000954,10247.7,18847.1,18855.4000000954,1,10247.7,8607.70000009537,0,NA,"Rating Scale","Rating Scale",2,"object-36","BIQ",NA,"SUPPRF15230"
"10",1711459228576,"26/03/2024 13:20:28",1711459228576,0,"26/03/2024 13:20:28",172741,4,"task-7hcp",NA,36462117,10761843,NA,"complete",NA,"6602c9270bfcef8b81cfcfc1","computer","Desktop or Laptop","Windows 10","Chrome 122.0.0.0","1280x720","1280x585",NA,NA,0,"BIQ (Charlotte)",5,"GHFIEADBC","Passed AC2","","Spreadsheet1",1,"BIQ","Screen 3","o21mwi",3,"response","2",17696.2,18847.1,18856.0999999046,17696.2,18847.1,18856.0999999046,1,17696.2,1159.89999990464,0,NA,"Rating Scale","Rating Scale",9,"object-86","BIQ",NA,"SUPPRF15230"
"11",1711459287616,"26/03/2024 13:21:27",1711459287616,0,"26/03/2024 13:21:27",172741,4,"task-7hcp",NA,36462117,10761843,NA,"complete",NA,"6602c9270bfcef8b81cfcfc1","computer","Desktop or Laptop","Windows 10","Chrome 122.0.0.0","1280x720","1280x585",NA,NA,0,"BIQ (Charlotte)",5,"GHFIEADBC","Passed AC2","","Spreadsheet1",1,"BIQ","Screen 4","iz3the",4,"continue","",59049.6000002861,59037.2,59049.6000002861,59049.6000002861,59037.2,59049.6000002861,1,59049.6000002861,0,0,NA,"Click To Continue","Continue Button",22,"object-73","BIQ",NA,"SUPPRF15230"
"12",1711459287621,"26/03/2024 13:21:27",1711459287621,0,"26/03/2024 13:21:27",172741,4,"task-7hcp",NA,36462117,10761843,NA,"complete",NA,"6602c9270bfcef8b81cfcfc1","computer","Desktop or Laptop","Windows 10","Chrome 122.0.0.0","1280x720","1280x585",NA,NA,0,"BIQ (Charlotte)",5,"GHFIEADBC","Passed AC2","","Spreadsheet1",1,"BIQ","Screen 4","iz3the",4,"response","2",48222.7,59037.2,59053.7,48222.7,59037.2,59053.7,1,48222.7,10831,0,NA,"Rating Scale","Rating Scale",2,"object-53","BIQ",NA,"SUPPRF15230"
"13",1711459287621,"26/03/2024 13:21:27",1711459287621,0,"26/03/2024 13:21:27",172741,4,"task-7hcp",NA,36462117,10761843,NA,"complete",NA,"6602c9270bfcef8b81cfcfc1","computer","Desktop or Laptop","Windows 10","Chrome 122.0.0.0","1280x720","1280x585",NA,NA,0,"BIQ (Charlotte)",5,"GHFIEADBC","Passed AC2","","Spreadsheet1",1,"BIQ","Screen 4","iz3the",4,"response","3",53738.1,59037.2,59053.7,53738.1,59037.2,59053.7,1,53738.1,5315.59999999999,0,NA,"Rating Scale","Rating Scale",9,"object-60","BIQ",NA,"SUPPRF15230"
"14",1711459287621,"26/03/2024 13:21:27",1711459287621,0,"26/03/2024 13:21:27",172741,4,"task-7hcp",NA,36462117,10761843,NA,"complete",NA,"6602c9270bfcef8b81cfcfc1","computer","Desktop or Laptop","Windows 10","Chrome 122.0.0.0","1280x720","1280x585",NA,NA,0,"BIQ (Charlotte)",5,"GHFIEADBC","Passed AC2","","Spreadsheet1",1,"BIQ","Screen 4","iz3the",4,"response","4",57021.4,59037.2,59053.7,57021.4,59037.2,59053.7,1,57021.4,2032.29999999999,0,NA,"Rating Scale","Rating Scale",16,"object-67","BIQ",NA,"SUPPRF15230"
"15",1711459287627,"26/03/2024 13:21:27",1711459287627,0,"26/03/2024 13:21:27",172741,4,"task-7hcp",NA,36462117,10761843,NA,"complete",NA,"6602c9270bfcef8b81cfcfc1","computer","Desktop or Laptop","Windows 10","Chrome 122.0.0.0","1280x720","1280x585",NA,NA,0,"BIQ (Charlotte)",5,"GHFIEADBC","Passed AC2","","Spreadsheet1",NA,"","","",NA,"5","END",NA,NA,NA,NA,NA,NA,0,NA,NA,NA,NA,"","",NA,"","",NA,"SUPPRF15230"
"1",1711459327996,"26/03/2024 13:22:07",1711459327996,0,"26/03/2024 13:22:07",172741,4,"task-7hcp",NA,36462308,10761950,NA,"complete",NA,"6602caaad4a7d0315c1ff519","computer","Desktop or Laptop","Mac OS 10.15.7","Chrome 122.0.0.0","1440x900","1440x815",NA,NA,0,"BIQ (Charlotte)",5,"HIGAFBECD","Failed AC2","Passed AC1","Spreadsheet1",NA,"","","",NA,"5","BEGIN",NA,NA,NA,NA,NA,NA,0,NA,NA,NA,NA,"","",NA,"","",NA,"SUPPRF71225"
"2",1711459347480,"26/03/2024 13:22:27",1711459347480,0,"26/03/2024 13:22:27",172741,4,"task-7hcp",NA,36462308,10761950,NA,"complete",NA,"6602caaad4a7d0315c1ff519","computer","Desktop or Laptop","Mac OS 10.15.7","Chrome 122.0.0.0","1440x900","1440x815",NA,NA,0,"BIQ (Charlotte)",5,"HIGAFBECD","Failed AC2","Passed AC1","Spreadsheet1",1,"BIQ","Screen 1","9dh6eq",1,"continue","",19511.2560000954,19501.756,19511.2560000954,19511.2560000954,19501.756,19511.2560000954,1,19511.2560000954,0,0,NA,"Click To Continue","Continue Button",16,"object-48","BIQ",NA,"SUPPRF71225"
"3",1711459347483,"26/03/2024 13:22:27",1711459347483,0,"26/03/2024 13:22:27",172741,4,"task-7hcp",NA,36462308,10761950,NA,"complete",NA,"6602caaad4a7d0315c1ff519","computer","Desktop or Laptop","Mac OS 10.15.7","Chrome 122.0.0.0","1440x900","1440x815",NA,NA,0,"BIQ (Charlotte)",5,"HIGAFBECD","Failed AC2","Passed AC1","Spreadsheet1",1,"BIQ","Screen 1","9dh6eq",1,"response","3",9334.556,19501.756,19515.5560000477,9334.556,19501.756,19515.5560000477,1,9334.556,10181.0000000477,0,NA,"Rating Scale","Rating Scale",3,"object-5","BIQ",NA,"SUPPRF71225"
"4",1711459347484,"26/03/2024 13:22:27",1711459347484,0,"26/03/2024 13:22:27",172741,4,"task-7hcp",NA,36462308,10761950,NA,"complete",NA,"6602caaad4a7d0315c1ff519","computer","Desktop or Laptop","Mac OS 10.15.7","Chrome 122.0.0.0","1440x900","1440x815",NA,NA,0,"BIQ (Charlotte)",5,"HIGAFBECD","Failed AC2","Passed AC1","Spreadsheet1",1,"BIQ","Screen 1","9dh6eq",1,"response","4",13891.756,19501.756,19516.1559999523,13891.756,19501.756,19516.1559999523,1,13891.756,5624.39999995232,0,NA,"Rating Scale","Rating Scale",10,"object-18","BIQ",NA,"SUPPRF71225"
"5",1711459364822,"26/03/2024 13:22:44",1711459364822,0,"26/03/2024 13:22:44",172741,4,"task-7hcp",NA,36462308,10761950,NA,"complete",NA,"6602caaad4a7d0315c1ff519","computer","Desktop or Laptop","Mac OS 10.15.7","Chrome 122.0.0.0","1440x900","1440x815",NA,NA,0,"BIQ (Charlotte)",5,"HIGAFBECD","Failed AC2","Passed AC1","Spreadsheet1",1,"BIQ","Screen 2","svpz34",2,"continue","",17352.6,17346.9,17352.6,17352.6,17346.9,17352.6,1,17352.6,0,0,NA,"Click To Continue","Continue Button",7,"object-1017","BIQ",NA,"SUPPRF71225"
"6",1711459364827,"26/03/2024 13:22:44",1711459364827,0,"26/03/2024 13:22:44",172741,4,"task-7hcp",NA,36462308,10761950,NA,"complete",NA,"6602caaad4a7d0315c1ff519","computer","Desktop or Laptop","Mac OS 10.15.7","Chrome 122.0.0.0","1440x900","1440x815",NA,NA,0,"BIQ (Charlotte)",5,"HIGAFBECD","Failed AC2","Passed AC1","Spreadsheet1",1,"BIQ","Screen 2","svpz34",2,"response","5",6316.7,17346.9,17357.6999999046,6316.7,17346.9,17357.6999999046,1,6316.7,11040.9999999046,0,NA,"Rating Scale","Rating Scale",8,"object-118","BIQ",NA,"SUPPRF71225"
"7",1711459364827,"26/03/2024 13:22:44",1711459364827,0,"26/03/2024 13:22:44",172741,4,"task-7hcp",NA,36462308,10761950,NA,"complete",NA,"6602caaad4a7d0315c1ff519","computer","Desktop or Laptop","Mac OS 10.15.7","Chrome 122.0.0.0","1440x900","1440x815",NA,NA,0,"BIQ (Charlotte)",5,"HIGAFBECD","Failed AC2","Passed AC1","Spreadsheet1",1,"BIQ","Screen 2","svpz34",2,"response","6",13305.3,17346.9,17358.5000000954,13305.3,17346.9,17358.5000000954,1,13305.3,4053.20000009537,0,NA,"Rating Scale","Rating Scale",10,"object-121","BIQ",NA,"SUPPRF71225"
"8",1711459383923,"26/03/2024 13:23:03",1711459383923,0,"26/03/2024 13:23:03",172741,4,"task-7hcp",NA,36462308,10761950,NA,"complete",NA,"6602caaad4a7d0315c1ff519","computer","Desktop or Laptop","Mac OS 10.15.7","Chrome 122.0.0.0","1440x900","1440x815",NA,NA,0,"BIQ (Charlotte)",5,"HIGAFBECD","Failed AC2","Passed AC1","Spreadsheet1",1,"BIQ","Screen 3","o21mwi",3,"continue","",19107.4000000477,19093.3,19107.4000000477,19107.4000000477,19093.3,19107.4000000477,1,19107.4000000477,0,0,NA,"Click To Continue","Continue Button",15,"object-50","BIQ",NA,"SUPPRF71225"
"9",1711459383927,"26/03/2024 13:23:03",1711459383927,0,"26/03/2024 13:23:03",172741,4,"task-7hcp",NA,36462308,10761950,NA,"complete",NA,"6602caaad4a7d0315c1ff519","computer","Desktop or Laptop","Mac OS 10.15.7","Chrome 122.0.0.0","1440x900","1440x815",NA,NA,0,"BIQ (Charlotte)",5,"HIGAFBECD","Failed AC2","Passed AC1","Spreadsheet1",1,"BIQ","Screen 3","o21mwi",3,"response","5",5548,19093.3,19109.8,5548,19093.3,19109.8,1,5548,13561.8,0,NA,"Rating Scale","Rating Scale",2,"object-36","BIQ",NA,"SUPPRF71225"
"10",1711459383928,"26/03/2024 13:23:03",1711459383928,0,"26/03/2024 13:23:03",172741,4,"task-7hcp",NA,36462308,10761950,NA,"complete",NA,"6602caaad4a7d0315c1ff519","computer","Desktop or Laptop","Mac OS 10.15.7","Chrome 122.0.0.0","1440x900","1440x815",NA,NA,0,"BIQ (Charlotte)",5,"HIGAFBECD","Failed AC2","Passed AC1","Spreadsheet1",1,"BIQ","Screen 3","o21mwi",3,"response","4",17177.1,19093.3,19109.8,17177.1,19093.3,19109.8,1,17177.1,1932.7,0,NA,"Rating Scale","Rating Scale",9,"object-86","BIQ",NA,"SUPPRF71225"
"11",1711459399778,"26/03/2024 13:23:19",1711459399778,0,"26/03/2024 13:23:19",172741,4,"task-7hcp",NA,36462308,10761950,NA,"complete",NA,"6602caaad4a7d0315c1ff519","computer","Desktop or Laptop","Mac OS 10.15.7","Chrome 122.0.0.0","1440x900","1440x815",NA,NA,0,"BIQ (Charlotte)",5,"HIGAFBECD","Failed AC2","Passed AC1","Spreadsheet1",1,"BIQ","Screen 4","iz3the",4,"continue","",15870.6999999523,15865.4,15870.6999999523,15870.6999999523,15865.4,15870.6999999523,1,15870.6999999523,0,0,NA,"Click To Continue","Continue Button",22,"object-73","BIQ",NA,"SUPPRF71225"
"12",1711459399783,"26/03/2024 13:23:19",1711459399783,0,"26/03/2024 13:23:19",172741,4,"task-7hcp",NA,36462308,10761950,NA,"complete",NA,"6602caaad4a7d0315c1ff519","computer","Desktop or Laptop","Mac OS 10.15.7","Chrome 122.0.0.0","1440x900","1440x815",NA,NA,0,"BIQ (Charlotte)",5,"HIGAFBECD","Failed AC2","Passed AC1","Spreadsheet1",1,"BIQ","Screen 4","iz3the",4,"response","2",8432.9,15865.4,15874.6999999523,8432.9,15865.4,15874.6999999523,1,8432.9,7441.79999995232,0,NA,"Rating Scale","Rating Scale",2,"object-53","BIQ",NA,"SUPPRF71225"
"13",1711459399783,"26/03/2024 13:23:19",1711459399783,0,"26/03/2024 13:23:19",172741,4,"task-7hcp",NA,36462308,10761950,NA,"complete",NA,"6602caaad4a7d0315c1ff519","computer","Desktop or Laptop","Mac OS 10.15.7","Chrome 122.0.0.0","1440x900","1440x815",NA,NA,0,"BIQ (Charlotte)",5,"HIGAFBECD","Failed AC2","Passed AC1","Spreadsheet1",1,"BIQ","Screen 4","iz3the",4,"response","4",10999.7,15865.4,15875.8000000954,10999.7,15865.4,15875.8000000954,1,10999.7,4876.10000009536,0,NA,"Rating Scale","Rating Scale",9,"object-60","BIQ",NA,"SUPPRF71225"
