"Event.Index","UTC.Timestamp","UTC.Date.and.Time","Local.Timestamp","Local.Timezone","Local.Date.and.Time","Experiment.ID","Experiment.Version","Tree.Node.Key","Repeat.Key","Schedule.ID","Participant.Private.ID","Participant.Starting.Group","Participant.Status","Participant.Completion.Code","Participant.External.Session.ID","Participant.Device.Type","Participant.Device","Participant.OS","Participant.Browser","Participant.Monitor.Size","Participant.Viewport.Size","Checkpoint","Room.ID","Room.Order","Task.Name","Task.Version","order.ot79","branch.g31k","branch.5gtn","Spreadsheet","Trial.Number","Display","Screen","Screen.ID","Screen.Counter","Response.Type","Response","Onset.Time","Clock.Time","Reaction.Time","Absolute.Onset.Time","Absolute.Clock.Time","Absolute.Reaction.Time","Correct","Response.Onset","Response.Duration","Proportion","Tag","Component.Name","Object.Name","Object.Number","Object.ID","Spreadsheet..display","Manipulation..Spreadsheet","Random_ID"
"1",1711374421814,"25/03/2024 13:47:01",1711360021814,-4,"25/03/2024 05:47:01",172741,4,"task-kvtv",NA,36416382,10748550,NA,"complete",NA,"66017d3ddf20d46323ba2ab7","computer","Desktop or Laptop","Windows 10","Chrome 123.0.0.0","1280x720","1280x598",NA,NA,0,"Task Introduction and Instructions (re-introduce video and audio) (Clone) (Clone)",2,"ABICHDGEF","Passed AC2","","Spreadsheet1",NA,"","","",NA,"5","BEGIN",NA,NA,NA,NA,NA,NA,0,NA,NA,NA,NA,"","",NA,"","",NA,"SUPPRF97228"
"2",1711374426467,"25/03/2024 13:47:06",1711360026467,-4,"25/03/2024 05:47:06",172741,4,"task-kvtv",NA,36416382,10748550,NA,"complete",NA,"66017d3ddf20d46323ba2ab7","computer","Desktop or Laptop","Windows 10","Chrome 123.0.0.0","1280x720","1280x598",NA,NA,0,"Task Introduction and Instructions (re-introduce video and audio) (Clone) (Clone)",2,"ABICHDGEF","Passed AC2","","Spreadsheet1",1,"Task Instructions","Screen 1","anr7sn",1,"continue","",4115.5,4098.8,4115.5,4115.5,4098.8,4115.5,1,4115.5,0,0,NA,"Click To Continue","Continue Button",3,"object-60","Task Instructions",NA,"SUPPRF97228"
"3",1711374429507,"25/03/2024 13:47:09",1711360029507,-4,"25/03/2024 05:47:09",172741,4,"task-kvtv",NA,36416382,10748550,NA,"complete",NA,"66017d3ddf20d46323ba2ab7","computer","Desktop or Laptop","Windows 10","Chrome 123.0.0.0","1280x720","1280x598",NA,NA,0,"Task Introduction and Instructions (re-introduce video and audio) (Clone) (Clone)",2,"ABICHDGEF","Passed AC2","","Spreadsheet1",1,"Task Instructions","Screen 4","spepx9",2,"continue","",3062.50000001192,3048.9,3062.50000001192,3062.50000001192,3048.9,3062.50000001192,1,3062.50000001192,0,0,NA,"Click To Continue","Continue Button",2,"object-9","Task Instructions",NA,"SUPPRF97228"
"4",1711374448117,"25/03/2024 13:47:28",1711360048117,-4,"25/03/2024 05:47:28",172741,4,"task-kvtv",NA,36416382,10748550,NA,"complete",NA,"66017d3ddf20d46323ba2ab7","computer","Desktop or Laptop","Windows 10","Chrome 123.0.0.0","1280x720","1280x598",NA,NA,0,"Task Introduction and Instructions (re-introduce video and audio) (Clone) (Clone)",2,"ABICHDGEF","Passed AC2","","Spreadsheet1",1,"Task Instructions","Screen 2","ce2tc8",3,"continue","",18623.5000000179,18612.9,18623.5000000179,18623.5000000179,18612.9,18623.5000000179,1,18623.5000000179,0,0,NA,"Click To Continue","Continue Button",3,"object-59","Task Instructions",NA,"SUPPRF97228"
"5",1711374463992,"25/03/2024 13:47:43",1711360063992,-4,"25/03/2024 05:47:43",172741,4,"task-kvtv",NA,36416382,10748550,NA,"complete",NA,"66017d3ddf20d46323ba2ab7","computer","Desktop or Laptop","Windows 10","Chrome 123.0.0.0","1280x720","1280x598",NA,NA,0,"Task Introduction and Instructions (re-introduce video and audio) (Clone) (Clone)",2,"ABICHDGEF","Passed AC2","","Spreadsheet1",1,"Task Instructions","Screen 3","1qtc8v",4,"continue","",15886.0000000238,15876.3,15886.0000000238,15886.0000000238,15876.3,15886.0000000238,1,15886.0000000238,0,0,NA,"Click To Continue","Continue Button",2,"object-2983","Task Instructions",NA,"SUPPRF97228"
"6",1711374473686,"25/03/2024 13:47:53",1711360073686,-4,"25/03/2024 05:47:53",172741,4,"task-kvtv",NA,36416382,10748550,NA,"complete",NA,"66017d3ddf20d46323ba2ab7","computer","Desktop or Laptop","Windows 10","Chrome 123.0.0.0","1280x720","1280x598",NA,NA,0,"Task Introduction and Instructions (re-introduce video and audio) (Clone) (Clone)",2,"ABICHDGEF","Passed AC2","","Spreadsheet1",1,"Task Instructions","Screen 12","1a4vu2",5,"continue","",9696.6,9680,9696.6,9696.6,9680,9696.6,1,9696.6,0,0,NA,"Click To Continue","Continue Button",2,"object-2466","Task Instructions",NA,"SUPPRF97228"
"7",1711374478987,"25/03/2024 13:47:58",1711360078987,-4,"25/03/2024 05:47:58",172741,4,"task-kvtv",NA,36416382,10748550,NA,"complete",NA,"66017d3ddf20d46323ba2ab7","computer","Desktop or Laptop","Windows 10","Chrome 123.0.0.0","1280x720","1280x598",NA,NA,0,"Task Introduction and Instructions (re-introduce video and audio) (Clone) (Clone)",2,"ABICHDGEF","Passed AC2","","Spreadsheet1",1,"Task Instructions","Screen 13","q9vwda",6,"continue","",5324.70000002384,5314.7,5324.70000002384,5324.70000002384,5314.7,5324.70000002384,1,5324.70000002384,0,0,NA,"Click To Continue","Continue Button",2,"object-2989","Task Instructions",NA,"SUPPRF97228"
"8",1711374482198,"25/03/2024 13:48:02",1711360082198,-4,"25/03/2024 05:48:02",172741,4,"task-kvtv",NA,36416382,10748550,NA,"complete",NA,"66017d3ddf20d46323ba2ab7","computer","Desktop or Laptop","Windows 10","Chrome 123.0.0.0","1280x720","1280x598",NA,NA,0,"Task Introduction and Instructions (re-introduce video and audio) (Clone) (Clone)",2,"ABICHDGEF","Passed AC2","","Spreadsheet1",1,"Task Instructions","Screen 11","oyulb7",7,"continue","",3216.00000000001,3199.3,3216.00000000001,3216.00000000001,3199.3,3216.00000000001,1,3216.00000000001,0,0,NA,"Click To Continue","Continue Button",2,"object-52","Task Instructions",NA,"SUPPRF97228"
"9",1711374485430,"25/03/2024 13:48:05",1711360085430,-4,"25/03/2024 05:48:05",172741,4,"task-kvtv",NA,36416382,10748550,NA,"complete",NA,"66017d3ddf20d46323ba2ab7","computer","Desktop or Laptop","Windows 10","Chrome 123.0.0.0","1280x720","1280x598",NA,NA,0,"Task Introduction and Instructions (re-introduce video and audio) (Clone) (Clone)",2,"ABICHDGEF","Passed AC2","","Spreadsheet1",1,"Task Instructions","Screen 5","8nvnao",8,"continue","",3249.2,3232.6,3249.2,3249.2,3232.6,3249.2,1,3249.2,0,0,NA,"Click To Continue","Continue Button",2,"object-44","Task Instructions",NA,"SUPPRF97228"
"10",1711374485432,"25/03/2024 13:48:05",1711360085432,-4,"25/03/2024 05:48:05",172741,4,"task-kvtv",NA,36416382,10748550,NA,"complete",NA,"66017d3ddf20d46323ba2ab7","computer","Desktop or Laptop","Windows 10","Chrome 123.0.0.0","1280x720","1280x598",NA,NA,0,"Task Introduction and Instructions (re-introduce video and audio) (Clone) (Clone)",2,"ABICHDGEF","Passed AC2","","Spreadsheet1",NA,"","","",NA,"5","END",NA,NA,NA,NA,NA,NA,0,NA,NA,NA,NA,"","",NA,"","",NA,"SUPPRF97228"
"1",1711375993219,"25/03/2024 14:13:13",1711375993219,0,"25/03/2024 14:13:13",172741,4,"task-kvtv",NA,36418510,10748886,NA,"complete",NA,"660182ca861e0cd143091963","computer","Desktop or Laptop","Mac OS 10.15.7","Chrome 116.0.0.0","1440x900","1440x815",NA,NA,0,"Task Introduction and Instructions (re-introduce video and audio) (Clone) (Clone)",2,"CDBEAFIGH","Passed AC2","","Spreadsheet1",NA,"","","",NA,"5","BEGIN",NA,NA,NA,NA,NA,NA,0,NA,NA,NA,NA,"","",NA,"","",NA,"SUPPRF95311"
"2",1711375997687,"25/03/2024 14:13:17",1711375997687,0,"25/03/2024 14:13:17",172741,4,"task-kvtv",NA,36418510,10748886,NA,"complete",NA,"660182ca861e0cd143091963","computer","Desktop or Laptop","Mac OS 10.15.7","Chrome 116.0.0.0","1440x900","1440x815",NA,NA,0,"Task Introduction and Instructions (re-introduce video and audio) (Clone) (Clone)",2,"CDBEAFIGH","Passed AC2","","Spreadsheet1",1,"Task Instructions","Screen 1","anr7sn",1,"continue","",4381.17199992847,4366.754,4381.17199992847,4381.17199992847,4366.754,4381.17199992847,1,4381.17199992847,0,0,NA,"Click To Continue","Continue Button",3,"object-60","Task Instructions",NA,"SUPPRF95311"
"3",1711376000934,"25/03/2024 14:13:20",1711376000934,0,"25/03/2024 14:13:20",172741,4,"task-kvtv",NA,36418510,10748886,NA,"complete",NA,"660182ca861e0cd143091963","computer","Desktop or Laptop","Mac OS 10.15.7","Chrome 116.0.0.0","1440x900","1440x815",NA,NA,0,"Task Introduction and Instructions (re-introduce video and audio) (Clone) (Clone)",2,"CDBEAFIGH","Passed AC2","","Spreadsheet1",1,"Task Instructions","Screen 4","spepx9",2,"continue","",3262.11799997616,3250.567,3262.11799997616,3262.11799997616,3250.567,3262.11799997616,1,3262.11799997616,0,0,NA,"Click To Continue","Continue Button",2,"object-9","Task Instructions",NA,"SUPPRF95311"
"4",1711376023289,"25/03/2024 14:13:43",1711376023289,0,"25/03/2024 14:13:43",172741,4,"task-kvtv",NA,36418510,10748886,NA,"complete",NA,"660182ca861e0cd143091963","computer","Desktop or Laptop","Mac OS 10.15.7","Chrome 116.0.0.0","1440x900","1440x815",NA,NA,0,"Task Introduction and Instructions (re-introduce video and audio) (Clone) (Clone)",2,"CDBEAFIGH","Passed AC2","","Spreadsheet1",1,"Task Instructions","Screen 2","ce2tc8",3,"continue","",22365.9509999523,22351.446,22365.9509999523,22365.9509999523,22351.446,22365.9509999523,1,22365.9509999523,0,0,NA,"Click To Continue","Continue Button",3,"object-59","Task Instructions",NA,"SUPPRF95311"
"5",1711376044615,"25/03/2024 14:14:04",1711376044615,0,"25/03/2024 14:14:04",172741,4,"task-kvtv",NA,36418510,10748886,NA,"complete",NA,"660182ca861e0cd143091963","computer","Desktop or Laptop","Mac OS 10.15.7","Chrome 116.0.0.0","1440x900","1440x815",NA,NA,0,"Task Introduction and Instructions (re-introduce video and audio) (Clone) (Clone)",2,"CDBEAFIGH","Passed AC2","","Spreadsheet1",1,"Task Instructions","Screen 3","1qtc8v",4,"continue","",21339.205,21334.733,21339.205,21339.205,21334.733,21339.205,1,21339.205,0,0,NA,"Click To Continue","Continue Button",2,"object-2983","Task Instructions",NA,"SUPPRF95311"
"6",1711376054746,"25/03/2024 14:14:14",1711376054746,0,"25/03/2024 14:14:14",172741,4,"task-kvtv",NA,36418510,10748886,NA,"complete",NA,"660182ca861e0cd143091963","computer","Desktop or Laptop","Mac OS 10.15.7","Chrome 116.0.0.0","1440x900","1440x815",NA,NA,0,"Task Introduction and Instructions (re-introduce video and audio) (Clone) (Clone)",2,"CDBEAFIGH","Passed AC2","","Spreadsheet1",1,"Task Instructions","Screen 12","1a4vu2",5,"continue","",10133.935,10117.268,10133.935,10133.935,10117.268,10133.935,1,10133.935,0,0,NA,"Click To Continue","Continue Button",2,"object-2466","Task Instructions",NA,"SUPPRF95311"
"7",1711376060248,"25/03/2024 14:14:20",1711376060248,0,"25/03/2024 14:14:20",172741,4,"task-kvtv",NA,36418510,10748886,NA,"complete",NA,"660182ca861e0cd143091963","computer","Desktop or Laptop","Mac OS 10.15.7","Chrome 116.0.0.0","1440x900","1440x815",NA,NA,0,"Task Introduction and Instructions (re-introduce video and audio) (Clone) (Clone)",2,"CDBEAFIGH","Passed AC2","","Spreadsheet1",1,"Task Instructions","Screen 13","q9vwda",6,"continue","",5520.40399992847,5517.36599999999,5520.40399992847,5520.40399992847,5517.36599999999,5520.40399992847,1,5520.40399992847,0,0,NA,"Click To Continue","Continue Button",2,"object-2989","Task Instructions",NA,"SUPPRF95311"
"8",1711376063534,"25/03/2024 14:14:23",1711376063534,0,"25/03/2024 14:14:23",172741,4,"task-kvtv",NA,36418510,10748886,NA,"complete",NA,"660182ca861e0cd143091963","computer","Desktop or Laptop","Mac OS 10.15.7","Chrome 116.0.0.0","1440x900","1440x815",NA,NA,0,"Task Introduction and Instructions (re-introduce video and audio) (Clone) (Clone)",2,"CDBEAFIGH","Passed AC2","","Spreadsheet1",1,"Task Instructions","Screen 11","oyulb7",7,"continue","",3288.63799995232,3283.399,3288.63799995232,3288.63799995232,3283.399,3288.63799995232,1,3288.63799995232,0,0,NA,"Click To Continue","Continue Button",2,"object-52","Task Instructions",NA,"SUPPRF95311"
"9",1711376066820,"25/03/2024 14:14:26",1711376066820,0,"25/03/2024 14:14:26",172741,4,"task-kvtv",NA,36418510,10748886,NA,"complete",NA,"660182ca861e0cd143091963","computer","Desktop or Laptop","Mac OS 10.15.7","Chrome 116.0.0.0","1440x900","1440x815",NA,NA,0,"Task Introduction and Instructions (re-introduce video and audio) (Clone) (Clone)",2,"CDBEAFIGH","Passed AC2","","Spreadsheet1",1,"Task Instructions","Screen 5","8nvnao",8,"continue","",3291.03900002384,3283.399,3291.03900002384,3291.03900002384,3283.399,3291.03900002384,1,3291.03900002384,0,0,NA,"Click To Continue","Continue Button",2,"object-44","Task Instructions",NA,"SUPPRF95311"
"10",1711376066827,"25/03/2024 14:14:26",1711376066827,0,"25/03/2024 14:14:26",172741,4,"task-kvtv",NA,36418510,10748886,NA,"complete",NA,"660182ca861e0cd143091963","computer","Desktop or Laptop","Mac OS 10.15.7","Chrome 116.0.0.0","1440x900","1440x815",NA,NA,0,"Task Introduction and Instructions (re-introduce video and audio) (Clone) (Clone)",2,"CDBEAFIGH","Passed AC2","","Spreadsheet1",NA,"","","",NA,"5","END",NA,NA,NA,NA,NA,NA,0,NA,NA,NA,NA,"","",NA,"","",NA,"SUPPRF95311"
"1",1711377079873,"25/03/2024 14:31:19",1711377079873,0,"25/03/2024 14:31:19",172741,4,"task-kvtv",NA,36420087,10749187,NA,"complete",NA,"660186cda1c64256036bb336","computer","Desktop or Laptop","Mac OS 10.15.7","Chrome 122.0.0.0","1366x768","1151x598",NA,NA,0,"Task Introduction and Instructions (re-introduce video and audio) (Clone) (Clone)",2,"DECFBGAHI","Passed AC2","","Spreadsheet1",NA,"","","",NA,"5","BEGIN",NA,NA,NA,NA,NA,NA,0,NA,NA,NA,NA,"","",NA,"","",NA,"SUPPRF48071"
"2",1711377083531,"25/03/2024 14:31:23",1711377083531,0,"25/03/2024 14:31:23",172741,4,"task-kvtv",NA,36420087,10749187,NA,"complete",NA,"660186cda1c64256036bb336","computer","Desktop or Laptop","Mac OS 10.15.7","Chrome 122.0.0.0","1366x768","1151x598",NA,NA,0,"Task Introduction and Instructions (re-introduce video and audio) (Clone) (Clone)",2,"DECFBGAHI","Passed AC2","","Spreadsheet1",1,"Task Instructions","Screen 1","anr7sn",1,"continue","",3613.9,3600.9,3613.9,3613.9,3600.9,3613.9,1,3613.9,0,0,NA,"Click To Continue","Continue Button",3,"object-60","Task Instructions",NA,"SUPPRF48071"
"3",1711377086641,"25/03/2024 14:31:26",1711377086641,0,"25/03/2024 14:31:26",172741,4,"task-kvtv",NA,36420087,10749187,NA,"complete",NA,"660186cda1c64256036bb336","computer","Desktop or Laptop","Mac OS 10.15.7","Chrome 122.0.0.0","1366x768","1151x598",NA,NA,0,"Task Introduction and Instructions (re-introduce video and audio) (Clone) (Clone)",2,"DECFBGAHI","Passed AC2","","Spreadsheet1",1,"Task Instructions","Screen 4","spepx9",2,"continue","",3123.10000000894,3116.6,3123.10000000894,3123.10000000894,3116.6,3123.10000000894,1,3123.10000000894,0,0,NA,"Click To Continue","Continue Button",2,"object-9","Task Instructions",NA,"SUPPRF48071"
"4",1711377102567,"25/03/2024 14:31:42",1711377102567,0,"25/03/2024 14:31:42",172741,4,"task-kvtv",NA,36420087,10749187,NA,"complete",NA,"660186cda1c64256036bb336","computer","Desktop or Laptop","Mac OS 10.15.7","Chrome 122.0.0.0","1366x768","1151x598",NA,NA,0,"Task Introduction and Instructions (re-introduce video and audio) (Clone) (Clone)",2,"DECFBGAHI","Passed AC2","","Spreadsheet1",1,"Task Instructions","Screen 2","ce2tc8",3,"continue","",15932.199999997,15916.7,15932.199999997,15932.199999997,15916.7,15932.199999997,1,15932.199999997,0,0,NA,"Click To Continue","Continue Button",3,"object-59","Task Instructions",NA,"SUPPRF48071"
"5",1711377113900,"25/03/2024 14:31:53",1711377113900,0,"25/03/2024 14:31:53",172741,4,"task-kvtv",NA,36420087,10749187,NA,"complete",NA,"660186cda1c64256036bb336","computer","Desktop or Laptop","Mac OS 10.15.7","Chrome 122.0.0.0","1366x768","1151x598",NA,NA,0,"Task Introduction and Instructions (re-introduce video and audio) (Clone) (Clone)",2,"DECFBGAHI","Passed AC2","","Spreadsheet1",1,"Task Instructions","Screen 3","1qtc8v",4,"continue","",11348.900000003,11333.4,11348.900000003,11348.900000003,11333.4,11348.900000003,1,11348.900000003,0,0,NA,"Click To Continue","Continue Button",2,"object-2983","Task Instructions",NA,"SUPPRF48071"
"6",1711377127081,"25/03/2024 14:32:07",1711377127081,0,"25/03/2024 14:32:07",172741,4,"task-kvtv",NA,36420087,10749187,NA,"complete",NA,"660186cda1c64256036bb336","computer","Desktop or Laptop","Mac OS 10.15.7","Chrome 122.0.0.0","1366x768","1151x598",NA,NA,0,"Task Introduction and Instructions (re-introduce video and audio) (Clone) (Clone)",2,"DECFBGAHI","Passed AC2","","Spreadsheet1",1,"Task Instructions","Screen 12","1a4vu2",5,"continue","",13195.8,13183.3,13195.8,13195.8,13183.3,13195.8,1,13195.8,0,0,NA,"Click To Continue","Continue Button",2,"object-2466","Task Instructions",NA,"SUPPRF48071"
"7",1711377137570,"25/03/2024 14:32:17",1711377137570,0,"25/03/2024 14:32:17",172741,4,"task-kvtv",NA,36420087,10749187,NA,"complete",NA,"660186cda1c64256036bb336","computer","Desktop or Laptop","Mac OS 10.15.7","Chrome 122.0.0.0","1366x768","1151x598",NA,NA,0,"Task Introduction and Instructions (re-introduce video and audio) (Clone) (Clone)",2,"DECFBGAHI","Passed AC2","","Spreadsheet1",1,"Task Instructions","Screen 13","q9vwda",6,"continue","",10500.799999997,10499,10500.799999997,10500.799999997,10499,10500.799999997,1,10500.799999997,0,0,NA,"Click To Continue","Continue Button",2,"object-2989","Task Instructions",NA,"SUPPRF48071"
"8",1711377142822,"25/03/2024 14:32:22",1711377142822,0,"25/03/2024 14:32:22",172741,4,"task-kvtv",NA,36420087,10749187,NA,"complete",NA,"660186cda1c64256036bb336","computer","Desktop or Laptop","Mac OS 10.15.7","Chrome 122.0.0.0","1366x768","1151x598",NA,NA,0,"Task Introduction and Instructions (re-introduce video and audio) (Clone) (Clone)",2,"DECFBGAHI","Passed AC2","","Spreadsheet1",1,"Task Instructions","Screen 11","oyulb7",7,"continue","",5254.10000000894,5251,5254.10000000894,5254.10000000894,5251,5254.10000000894,1,5254.10000000894,0,0,NA,"Click To Continue","Continue Button",2,"object-52","Task Instructions",NA,"SUPPRF48071"
"9",1711377145572,"25/03/2024 14:32:25",1711377145572,0,"25/03/2024 14:32:25",172741,4,"task-kvtv",NA,36420087,10749187,NA,"complete",NA,"660186cda1c64256036bb336","computer","Desktop or Laptop","Mac OS 10.15.7","Chrome 122.0.0.0","1366x768","1151x598",NA,NA,0,"Task Introduction and Instructions (re-introduce video and audio) (Clone) (Clone)",2,"DECFBGAHI","Passed AC2","","Spreadsheet1",1,"Task Instructions","Screen 5","8nvnao",8,"continue","",2752.29999999702,2749.60000000001,2752.29999999702,2752.29999999702,2749.60000000001,2752.29999999702,1,2752.29999999702,0,0,NA,"Click To Continue","Continue Button",2,"object-44","Task Instructions",NA,"SUPPRF48071"
"10",1711377145575,"25/03/2024 14:32:25",1711377145575,0,"25/03/2024 14:32:25",172741,4,"task-kvtv",NA,36420087,10749187,NA,"complete",NA,"660186cda1c64256036bb336","computer","Desktop or Laptop","Mac OS 10.15.7","Chrome 122.0.0.0","1366x768","1151x598",NA,NA,0,"Task Introduction and Instructions (re-introduce video and audio) (Clone) (Clone)",2,"DECFBGAHI","Passed AC2","","Spreadsheet1",NA,"","","",NA,"5","END",NA,NA,NA,NA,NA,NA,0,NA,NA,NA,NA,"","",NA,"","",NA,"SUPPRF48071"
"1",1711377655814,"25/03/2024 14:40:55",1711377655814,0,"25/03/2024 14:40:55",172741,4,"task-kvtv",NA,36420846,10749437,NA,"complete",NA,"66018a9e515ef50a88317f5e","computer","Desktop or Laptop","Mac OS 10.15.7","Chrome 122.0.0.0","1470x956","1325x733",NA,NA,0,"Task Introduction and Instructions (re-introduce video and audio) (Clone) (Clone)",2,"EFDGCHBIA","Passed AC2","","Spreadsheet1",NA,"","","",NA,"5","BEGIN",NA,NA,NA,NA,NA,NA,0,NA,NA,NA,NA,"","",NA,"","",NA,"SUPPRF72649"
"2",1711377670500,"25/03/2024 14:41:10",1711377670500,0,"25/03/2024 14:41:10",172741,4,"task-kvtv",NA,36420846,10749437,NA,"complete",NA,"66018a9e515ef50a88317f5e","computer","Desktop or Laptop","Mac OS 10.15.7","Chrome 122.0.0.0","1470x956","1325x733",NA,NA,0,"Task Introduction and Instructions (re-introduce video and audio) (Clone) (Clone)",2,"EFDGCHBIA","Passed AC2","","Spreadsheet1",1,"Task Instructions","Screen 1","anr7sn",1,"continue","",14480.8000000715,14465.7,14480.8000000715,14480.8000000715,14465.7,14480.8000000715,1,14480.8000000715,0,0,NA,"Click To Continue","Continue Button",3,"object-60","Task Instructions",NA,"SUPPRF72649"
"3",1711377675331,"25/03/2024 14:41:15",1711377675331,0,"25/03/2024 14:41:15",172741,4,"task-kvtv",NA,36420846,10749437,NA,"complete",NA,"66018a9e515ef50a88317f5e","computer","Desktop or Laptop","Mac OS 10.15.7","Chrome 122.0.0.0","1470x956","1325x733",NA,NA,0,"Task Introduction and Instructions (re-introduce video and audio) (Clone) (Clone)",2,"EFDGCHBIA","Passed AC2","","Spreadsheet1",1,"Task Instructions","Screen 4","spepx9",2,"continue","",4845.50000004768,4834.3,4845.50000004768,4845.50000004768,4834.3,4845.50000004768,1,4845.50000004768,0,0,NA,"Click To Continue","Continue Button",2,"object-9","Task Instructions",NA,"SUPPRF72649"
"4",1711377679595,"25/03/2024 14:41:19",1711377679595,0,"25/03/2024 14:41:19",172741,4,"task-kvtv",NA,36420846,10749437,NA,"complete",NA,"66018a9e515ef50a88317f5e","computer","Desktop or Laptop","Mac OS 10.15.7","Chrome 122.0.0.0","1470x956","1325x733",NA,NA,0,"Task Introduction and Instructions (re-introduce video and audio) (Clone) (Clone)",2,"EFDGCHBIA","Passed AC2","","Spreadsheet1",1,"Task Instructions","Screen 2","ce2tc8",3,"continue","",4275.40000009537,4266.7,4275.40000009537,4275.40000009537,4266.7,4275.40000009537,1,4275.40000009537,0,0,NA,"Click To Continue","Continue Button",3,"object-59","Task Instructions",NA,"SUPPRF72649"
"5",1711377749500,"25/03/2024 14:42:29",1711377749500,0,"25/03/2024 14:42:29",172741,4,"task-kvtv",NA,36420846,10749437,NA,"complete",NA,"66018a9e515ef50a88317f5e","computer","Desktop or Laptop","Mac OS 10.15.7","Chrome 122.0.0.0","1470x956","1325x733",NA,NA,0,"Task Introduction and Instructions (re-introduce video and audio) (Clone) (Clone)",2,"EFDGCHBIA","Passed AC2","","Spreadsheet1",1,"Task Instructions","Screen 3","1qtc8v",4,"continue","",69913.9000000238,69899.3,69913.9000000238,69913.9000000238,69899.3,69913.9000000238,1,69913.9000000238,0,0,NA,"Click To Continue","Continue Button",2,"object-2983","Task Instructions",NA,"SUPPRF72649"
"6",1711377764137,"25/03/2024 14:42:44",1711377764137,0,"25/03/2024 14:42:44",172741,4,"task-kvtv",NA,36420846,10749437,NA,"complete",NA,"66018a9e515ef50a88317f5e","computer","Desktop or Laptop","Mac OS 10.15.7","Chrome 122.0.0.0","1470x956","1325x733",NA,NA,0,"Task Introduction and Instructions (re-introduce video and audio) (Clone) (Clone)",2,"EFDGCHBIA","Passed AC2","","Spreadsheet1",1,"Task Instructions","Screen 12","1a4vu2",5,"continue","",14650.8,14634.1,14650.8,14650.8,14634.1,14650.8,1,14650.8,0,0,NA,"Click To Continue","Continue Button",2,"object-2466","Task Instructions",NA,"SUPPRF72649"
"7",1711377774371,"25/03/2024 14:42:54",1711377774371,0,"25/03/2024 14:42:54",172741,4,"task-kvtv",NA,36420846,10749437,NA,"complete",NA,"66018a9e515ef50a88317f5e","computer","Desktop or Laptop","Mac OS 10.15.7","Chrome 122.0.0.0","1470x956","1325x733",NA,NA,0,"Task Introduction and Instructions (re-introduce video and audio) (Clone) (Clone)",2,"EFDGCHBIA","Passed AC2","","Spreadsheet1",1,"Task Instructions","Screen 13","q9vwda",6,"continue","",10251.6000000477,10249.4,10251.6000000477,10251.6000000477,10249.4,10251.6000000477,1,10251.6000000477,0,0,NA,"Click To Continue","Continue Button",2,"object-2989","Task Instructions",NA,"SUPPRF72649"
"8",1711377782686,"25/03/2024 14:43:02",1711377782686,0,"25/03/2024 14:43:02",172741,4,"task-kvtv",NA,36420846,10749437,NA,"complete",NA,"66018a9e515ef50a88317f5e","computer","Desktop or Laptop","Mac OS 10.15.7","Chrome 122.0.0.0","1470x956","1325x733",NA,NA,0,"Task Introduction and Instructions (re-introduce video and audio) (Clone) (Clone)",2,"EFDGCHBIA","Passed AC2","","Spreadsheet1",1,"Task Instructions","Screen 11","oyulb7",7,"continue","",8316.10000000001,8299.8,8316.10000000001,8316.10000000001,8299.8,8316.10000000001,1,8316.10000000001,0,0,NA,"Click To Continue","Continue Button",2,"object-52","Task Instructions",NA,"SUPPRF72649"
"9",1711377787776,"25/03/2024 14:43:07",1711377787776,0,"25/03/2024 14:43:07",172741,4,"task-kvtv",NA,36420846,10749437,NA,"complete",NA,"66018a9e515ef50a88317f5e","computer","Desktop or Laptop","Mac OS 10.15.7","Chrome 122.0.0.0","1470x956","1325x733",NA,NA,0,"Task Introduction and Instructions (re-introduce video and audio) (Clone) (Clone)",2,"EFDGCHBIA","Passed AC2","","Spreadsheet1",1,"Task Instructions","Screen 5","8nvnao",8,"continue","",5107.80000002384,5100.90000000001,5107.80000002384,5107.80000002384,5100.90000000001,5107.80000002384,1,5107.80000002384,0,0,NA,"Click To Continue","Continue Button",2,"object-44","Task Instructions",NA,"SUPPRF72649"
"10",1711377787782,"25/03/2024 14:43:07",1711377787782,0,"25/03/2024 14:43:07",172741,4,"task-kvtv",NA,36420846,10749437,NA,"complete",NA,"66018a9e515ef50a88317f5e","computer","Desktop or Laptop","Mac OS 10.15.7","Chrome 122.0.0.0","1470x956","1325x733",NA,NA,0,"Task Introduction and Instructions (re-introduce video and audio) (Clone) (Clone)",2,"EFDGCHBIA","Passed AC2","","Spreadsheet1",NA,"","","",NA,"5","END",NA,NA,NA,NA,NA,NA,0,NA,NA,NA,NA,"","",NA,"","",NA,"SUPPRF72649"
"1",1711394882107,"25/03/2024 19:28:02",1711380482107,-4,"25/03/2024 11:28:02",172741,4,"task-kvtv",NA,36436533,10754684,NA,"complete",NA,"6601cb868c4c847f2e11c901","computer","Desktop or Laptop","Mac OS 10.15.7","Chrome 123.0.0.0","1440x900","1322x696",NA,NA,0,"Task Introduction and Instructions (re-introduce video and audio) (Clone) (Clone)",2,"HIGAFBECD","Passed AC2","","Spreadsheet1",NA,"","","",NA,"5","BEGIN",NA,NA,NA,NA,NA,NA,0,NA,NA,NA,NA,"","",NA,"","",NA,"SUPPRF75031"
"2",1711394887417,"25/03/2024 19:28:07",1711380487417,-4,"25/03/2024 11:28:07",172741,4,"task-kvtv",NA,36436533,10754684,NA,"complete",NA,"6601cb868c4c847f2e11c901","computer","Desktop or Laptop","Mac OS 10.15.7","Chrome 123.0.0.0","1440x900","1322x696",NA,NA,0,"Task Introduction and Instructions (re-introduce video and audio) (Clone) (Clone)",2,"HIGAFBECD","Passed AC2","","Spreadsheet1",1,"Task Instructions","Screen 1","anr7sn",1,"continue","",5200.6,5183.7,5200.6,5200.6,5183.7,5200.6,1,5200.6,0,0,NA,"Click To Continue","Continue Button",3,"object-60","Task Instructions",NA,"SUPPRF75031"
"3",1711394892182,"25/03/2024 19:28:12",1711380492182,-4,"25/03/2024 11:28:12",172741,4,"task-kvtv",NA,36436533,10754684,NA,"complete",NA,"6601cb868c4c847f2e11c901","computer","Desktop or Laptop","Mac OS 10.15.7","Chrome 123.0.0.0","1440x900","1322x696",NA,NA,0,"Task Introduction and Instructions (re-introduce video and audio) (Clone) (Clone)",2,"HIGAFBECD","Passed AC2","","Spreadsheet1",1,"Task Instructions","Screen 4","spepx9",2,"continue","",4786.59999999404,4782.7,4786.59999999404,4786.59999999404,4782.7,4786.59999999404,1,4786.59999999404,0,0,NA,"Click To Continue","Continue Button",2,"object-9","Task Instructions",NA,"SUPPRF75031"
"4",1711394903358,"25/03/2024 19:28:23",1711380503358,-4,"25/03/2024 11:28:23",172741,4,"task-kvtv",NA,36436533,10754684,NA,"complete",NA,"6601cb868c4c847f2e11c901","computer","Desktop or Laptop","Mac OS 10.15.7","Chrome 123.0.0.0","1440x900","1322x696",NA,NA,0,"Task Introduction and Instructions (re-introduce video and audio) (Clone) (Clone)",2,"HIGAFBECD","Passed AC2","","Spreadsheet1",1,"Task Instructions","Screen 2","ce2tc8",3,"continue","",11179.399999994,11166.3,11179.399999994,11179.399999994,11166.3,11179.399999994,1,11179.399999994,0,0,NA,"Click To Continue","Continue Button",3,"object-59","Task Instructions",NA,"SUPPRF75031"
"5",1711394926410,"25/03/2024 19:28:46",1711380526410,-4,"25/03/2024 11:28:46",172741,4,"task-kvtv",NA,36436533,10754684,NA,"complete",NA,"6601cb868c4c847f2e11c901","computer","Desktop or Laptop","Mac OS 10.15.7","Chrome 123.0.0.0","1440x900","1322x696",NA,NA,0,"Task Introduction and Instructions (re-introduce video and audio) (Clone) (Clone)",2,"HIGAFBECD","Passed AC2","","Spreadsheet1",1,"Task Instructions","Screen 3","1qtc8v",4,"continue","",23065.299999997,23049.8,23065.299999997,23065.299999997,23049.8,23065.299999997,1,23065.299999997,0,0,NA,"Click To Continue","Continue Button",2,"object-2983","Task Instructions",NA,"SUPPRF75031"
"6",1711395023542,"25/03/2024 19:30:23",1711380623542,-4,"25/03/2024 11:30:23",172741,4,"task-kvtv",NA,36436533,10754684,NA,"complete",NA,"6601cb868c4c847f2e11c901","computer","Desktop or Laptop","Mac OS 10.15.7","Chrome 123.0.0.0","1440x900","1322x696",NA,NA,0,"Task Introduction and Instructions (re-introduce video and audio) (Clone) (Clone)",2,"HIGAFBECD","Passed AC2","","Spreadsheet1",1,"Task Instructions","Screen 12","1a4vu2",5,"continue","",97146.400000003,97131.7,97146.400000003,97146.400000003,97131.7,97146.400000003,1,97146.400000003,0,0,NA,"Click To Continue","Continue Button",2,"object-2466","Task Instructions",NA,"SUPPRF75031"
"7",1711395029012,"25/03/2024 19:30:29",1711380629012,-4,"25/03/2024 11:30:29",172741,4,"task-kvtv",NA,36436533,10754684,NA,"complete",NA,"6601cb868c4c847f2e11c901","computer","Desktop or Laptop","Mac OS 10.15.7","Chrome 123.0.0.0","1440x900","1322x696",NA,NA,0,"Task Introduction and Instructions (re-introduce video and audio) (Clone) (Clone)",2,"HIGAFBECD","Passed AC2","","Spreadsheet1",1,"Task Instructions","Screen 13","q9vwda",6,"continue","",5484.29999999702,5467.60000000001,5484.29999999702,5484.29999999702,5467.60000000001,5484.29999999702,1,5484.29999999702,0,0,NA,"Click To Continue","Continue Button",2,"object-2989","Task Instructions",NA,"SUPPRF75031"
"8",1711395035683,"25/03/2024 19:30:35",1711380635683,-4,"25/03/2024 11:30:35",172741,4,"task-kvtv",NA,36436533,10754684,NA,"complete",NA,"6601cb868c4c847f2e11c901","computer","Desktop or Laptop","Mac OS 10.15.7","Chrome 123.0.0.0","1440x900","1322x696",NA,NA,0,"Task Introduction and Instructions (re-introduce video and audio) (Clone) (Clone)",2,"HIGAFBECD","Passed AC2","","Spreadsheet1",1,"Task Instructions","Screen 11","oyulb7",7,"continue","",6687.19999999701,6683,6687.19999999701,6687.19999999701,6683,6687.19999999701,1,6687.19999999701,0,0,NA,"Click To Continue","Continue Button",2,"object-52","Task Instructions",NA,"SUPPRF75031"
"9",1711395039293,"25/03/2024 19:30:39",1711380639293,-4,"25/03/2024 11:30:39",172741,4,"task-kvtv",NA,36436533,10754684,NA,"complete",NA,"6601cb868c4c847f2e11c901","computer","Desktop or Laptop","Mac OS 10.15.7","Chrome 123.0.0.0","1440x900","1322x696",NA,NA,0,"Task Introduction and Instructions (re-introduce video and audio) (Clone) (Clone)",2,"HIGAFBECD","Passed AC2","","Spreadsheet1",1,"Task Instructions","Screen 5","8nvnao",8,"continue","",3614.10000000297,3600.19999999998,3614.10000000297,3614.10000000297,3600.19999999998,3614.10000000297,1,3614.10000000297,0,0,NA,"Click To Continue","Continue Button",2,"object-44","Task Instructions",NA,"SUPPRF75031"
"10",1711395039295,"25/03/2024 19:30:39",1711380639295,-4,"25/03/2024 11:30:39",172741,4,"task-kvtv",NA,36436533,10754684,NA,"complete",NA,"6601cb868c4c847f2e11c901","computer","Desktop or Laptop","Mac OS 10.15.7","Chrome 123.0.0.0","1440x900","1322x696",NA,NA,0,"Task Introduction and Instructions (re-introduce video and audio) (Clone) (Clone)",2,"HIGAFBECD","Passed AC2","","Spreadsheet1",NA,"","","",NA,"5","END",NA,NA,NA,NA,NA,NA,0,NA,NA,NA,NA,"","",NA,"","",NA,"SUPPRF75031"
"1",1711395743909,"25/03/2024 19:42:23",1711413743909,5,"26/03/2024 05:42:23",172741,4,"task-kvtv",NA,36436913,10754782,NA,"complete",NA,"6601cd67faa97a294fe3db4c","computer","Desktop or Laptop","Windows 10","Chrome 123.0.0.0","1366x768","1366x607",NA,NA,0,"Task Introduction and Instructions (re-introduce video and audio) (Clone) (Clone)",2,"IAHBGCFDE","Passed AC2","","Spreadsheet1",NA,"","","",NA,"5","BEGIN",NA,NA,NA,NA,NA,NA,0,NA,NA,NA,NA,"","",NA,"","",NA,"SUPPRF36782"
"2",1711395752821,"25/03/2024 19:42:32",1711413752821,5,"26/03/2024 05:42:32",172741,4,"task-kvtv",NA,36436913,10754782,NA,"complete",NA,"6601cd67faa97a294fe3db4c","computer","Desktop or Laptop","Windows 10","Chrome 123.0.0.0","1366x768","1366x607",NA,NA,0,"Task Introduction and Instructions (re-introduce video and audio) (Clone) (Clone)",2,"IAHBGCFDE","Passed AC2","","Spreadsheet1",1,"Task Instructions","Screen 1","anr7sn",1,"continue","",6929.10000002384,6916.7,6929.10000002384,6929.10000002384,6916.7,6929.10000002384,1,6929.10000002384,0,0,NA,"Click To Continue","Continue Button",3,"object-60","Task Instructions",NA,"SUPPRF36782"
"3",1711395757482,"25/03/2024 19:42:37",1711413757482,5,"26/03/2024 05:42:37",172741,4,"task-kvtv",NA,36436913,10754782,NA,"complete",NA,"6601cd67faa97a294fe3db4c","computer","Desktop or Laptop","Windows 10","Chrome 123.0.0.0","1366x768","1366x607",NA,NA,0,"Task Introduction and Instructions (re-introduce video and audio) (Clone) (Clone)",2,"IAHBGCFDE","Passed AC2","","Spreadsheet1",1,"Task Instructions","Screen 4","spepx9",2,"continue","",4674.20000003576,4666.6,4674.20000003576,4674.20000003576,4666.6,4674.20000003576,1,4674.20000003576,0,0,NA,"Click To Continue","Continue Button",2,"object-9","Task Instructions",NA,"SUPPRF36782"
"4",1711395786394,"25/03/2024 19:43:06",1711413786394,5,"26/03/2024 05:43:06",172741,4,"task-kvtv",NA,36436913,10754782,NA,"complete",NA,"6601cd67faa97a294fe3db4c","computer","Desktop or Laptop","Windows 10","Chrome 123.0.0.0","1366x768","1366x607",NA,NA,0,"Task Introduction and Instructions (re-introduce video and audio) (Clone) (Clone)",2,"IAHBGCFDE","Passed AC2","","Spreadsheet1",1,"Task Instructions","Screen 2","ce2tc8",3,"continue","",28920.3999999881,28916.9,28920.3999999881,28920.3999999881,28916.9,28920.3999999881,1,28920.3999999881,0,0,NA,"Click To Continue","Continue Button",3,"object-59","Task Instructions",NA,"SUPPRF36782"
"5",1711395816987,"25/03/2024 19:43:36",1711413816987,5,"26/03/2024 05:43:36",172741,4,"task-kvtv",NA,36436913,10754782,NA,"complete",NA,"6601cd67faa97a294fe3db4c","computer","Desktop or Laptop","Windows 10","Chrome 123.0.0.0","1366x768","1366x607",NA,NA,0,"Task Introduction and Instructions (re-introduce video and audio) (Clone) (Clone)",2,"IAHBGCFDE","Passed AC2","","Spreadsheet1",1,"Task Instructions","Screen 3","1qtc8v",4,"continue","",30596.7000000358,30583.4,30596.7000000358,30596.7000000358,30583.4,30596.7000000358,1,30596.7000000358,0,0,NA,"Click To Continue","Continue Button",2,"object-2983","Task Instructions",NA,"SUPPRF36782"
"6",1711395841853,"25/03/2024 19:44:01",1711413841853,5,"26/03/2024 05:44:01",172741,4,"task-kvtv",NA,36436913,10754782,NA,"complete",NA,"6601cd67faa97a294fe3db4c","computer","Desktop or Laptop","Windows 10","Chrome 123.0.0.0","1366x768","1366x607",NA,NA,0,"Task Introduction and Instructions (re-introduce video and audio) (Clone) (Clone)",2,"IAHBGCFDE","Passed AC2","","Spreadsheet1",1,"Task Instructions","Screen 12","1a4vu2",5,"continue","",24879.3000000358,24866.8,24879.3000000358,24879.3000000358,24866.8,24879.3000000358,1,24879.3000000358,0,0,NA,"Click To Continue","Continue Button",2,"object-2466","Task Instructions",NA,"SUPPRF36782"
"7",1711395861185,"25/03/2024 19:44:21",1711413861185,5,"26/03/2024 05:44:21",172741,4,"task-kvtv",NA,36436913,10754782,NA,"complete",NA,"6601cd67faa97a294fe3db4c","computer","Desktop or Laptop","Windows 10","Chrome 123.0.0.0","1366x768","1366x607",NA,NA,0,"Task Introduction and Instructions (re-introduce video and audio) (Clone) (Clone)",2,"IAHBGCFDE","Passed AC2","","Spreadsheet1",1,"Task Instructions","Screen 13","q9vwda",6,"continue","",19344.7999999881,19333.5,19344.7999999881,19344.7999999881,19333.5,19344.7999999881,1,19344.7999999881,0,0,NA,"Click To Continue","Continue Button",2,"object-2989","Task Instructions",NA,"SUPPRF36782"
"8",1711395866936,"25/03/2024 19:44:26",1711413866936,5,"26/03/2024 05:44:26",172741,4,"task-kvtv",NA,36436913,10754782,NA,"complete",NA,"6601cd67faa97a294fe3db4c","computer","Desktop or Laptop","Windows 10","Chrome 123.0.0.0","1366x768","1366x607",NA,NA,0,"Task Introduction and Instructions (re-introduce video and audio) (Clone) (Clone)",2,"IAHBGCFDE","Passed AC2","","Spreadsheet1",1,"Task Instructions","Screen 11","oyulb7",7,"continue","",5762.40000001193,5750,5762.40000001193,5762.40000001193,5750,5762.40000001193,1,5762.40000001193,0,0,NA,"Click To Continue","Continue Button",2,"object-52","Task Instructions",NA,"SUPPRF36782"
"9",1711395870404,"25/03/2024 19:44:30",1711413870404,5,"26/03/2024 05:44:30",172741,4,"task-kvtv",NA,36436913,10754782,NA,"complete",NA,"6601cd67faa97a294fe3db4c","computer","Desktop or Laptop","Windows 10","Chrome 123.0.0.0","1366x768","1366x607",NA,NA,0,"Task Introduction and Instructions (re-introduce video and audio) (Clone) (Clone)",2,"IAHBGCFDE","Passed AC2","","Spreadsheet1",1,"Task Instructions","Screen 5","8nvnao",8,"continue","",3480.29999998808,3466.80000000002,3480.29999998808,3480.29999998808,3466.80000000002,3480.29999998808,1,3480.29999998808,0,0,NA,"Click To Continue","Continue Button",2,"object-44","Task Instructions",NA,"SUPPRF36782"
"10",1711395870414,"25/03/2024 19:44:30",1711413870414,5,"26/03/2024 05:44:30",172741,4,"task-kvtv",NA,36436913,10754782,NA,"complete",NA,"6601cd67faa97a294fe3db4c","computer","Desktop or Laptop","Windows 10","Chrome 123.0.0.0","1366x768","1366x607",NA,NA,0,"Task Introduction and Instructions (re-introduce video and audio) (Clone) (Clone)",2,"IAHBGCFDE","Passed AC2","","Spreadsheet1",NA,"","","",NA,"5","END",NA,NA,NA,NA,NA,NA,0,NA,NA,NA,NA,"","",NA,"","",NA,"SUPPRF36782"
"1",1711410381049,"25/03/2024 23:46:21",1711392381049,-5,"25/03/2024 13:46:21",172741,4,"task-kvtv",NA,36442685,10756348,NA,"complete",NA,"66020a14fed03f0a4e034fb5","computer","Desktop or Laptop","Windows 10","Chrome 121.0.0.0","1280x720","1280x551",NA,NA,0,"Task Introduction and Instructions (re-introduce video and audio) (Clone) (Clone)",2,"ABICHDGEF","Passed AC2","","Spreadsheet1",NA,"","","",NA,"5","BEGIN",NA,NA,NA,NA,NA,NA,0,NA,NA,NA,NA,"","",NA,"","",NA,"SUPPRF49898"
"2",1711410385407,"25/03/2024 23:46:25",1711392385407,-5,"25/03/2024 13:46:25",172741,4,"task-kvtv",NA,36442685,10756348,NA,"complete",NA,"66020a14fed03f0a4e034fb5","computer","Desktop or Laptop","Windows 10","Chrome 121.0.0.0","1280x720","1280x551",NA,NA,0,"Task Introduction and Instructions (re-introduce video and audio) (Clone) (Clone)",2,"ABICHDGEF","Passed AC2","","Spreadsheet1",1,"Task Instructions","Screen 1","anr7sn",1,"continue","",3663.90000038147,3648.8,3663.90000038147,3663.90000038147,3648.8,3663.90000038147,1,3663.90000038147,0,0,NA,"Click To Continue","Continue Button",3,"object-60","Task Instructions",NA,"SUPPRF49898"
"3",1711410388477,"25/03/2024 23:46:28",1711392388477,-5,"25/03/2024 13:46:28",172741,4,"task-kvtv",NA,36442685,10756348,NA,"complete",NA,"66020a14fed03f0a4e034fb5","computer","Desktop or Laptop","Windows 10","Chrome 121.0.0.0","1280x720","1280x551",NA,NA,0,"Task Introduction and Instructions (re-introduce video and audio) (Clone) (Clone)",2,"ABICHDGEF","Passed AC2","","Spreadsheet1",1,"Task Instructions","Screen 4","spepx9",2,"continue","",3085.30000019073,3082.3,3085.30000019073,3085.30000019073,3082.3,3085.30000019073,1,3085.30000019073,0,0,NA,"Click To Continue","Continue Button",2,"object-9","Task Instructions",NA,"SUPPRF49898"
"4",1711410405721,"25/03/2024 23:46:45",1711392405721,-5,"25/03/2024 13:46:45",172741,4,"task-kvtv",NA,36442685,10756348,NA,"complete",NA,"66020a14fed03f0a4e034fb5","computer","Desktop or Laptop","Windows 10","Chrome 121.0.0.0","1280x720","1280x551",NA,NA,0,"Task Introduction and Instructions (re-introduce video and audio) (Clone) (Clone)",2,"ABICHDGEF","Passed AC2","","Spreadsheet1",1,"Task Instructions","Screen 2","ce2tc8",3,"continue","",17246.8000003815,17244.1,17246.8000003815,17246.8000003815,17244.1,17246.8000003815,1,17246.8000003815,0,0,NA,"Click To Continue","Continue Button",3,"object-59","Task Instructions",NA,"SUPPRF49898"
"5",1711410411856,"25/03/2024 23:46:51",1711392411856,-5,"25/03/2024 13:46:51",172741,4,"task-kvtv",NA,36442685,10756348,NA,"complete",NA,"66020a14fed03f0a4e034fb5","computer","Desktop or Laptop","Windows 10","Chrome 121.0.0.0","1280x720","1280x551",NA,NA,0,"Task Introduction and Instructions (re-introduce video and audio) (Clone) (Clone)",2,"ABICHDGEF","Passed AC2","","Spreadsheet1",1,"Task Instructions","Screen 3","1qtc8v",4,"continue","",6138.1,6131,6138.1,6138.1,6131,6138.1,1,6138.1,0,0,NA,"Click To Continue","Continue Button",2,"object-2983","Task Instructions",NA,"SUPPRF49898"
"6",1711410419621,"25/03/2024 23:46:59",1711392419621,-5,"25/03/2024 13:46:59",172741,4,"task-kvtv",NA,36442685,10756348,NA,"complete",NA,"66020a14fed03f0a4e034fb5","computer","Desktop or Laptop","Windows 10","Chrome 121.0.0.0","1280x720","1280x551",NA,NA,0,"Task Introduction and Instructions (re-introduce video and audio) (Clone) (Clone)",2,"ABICHDGEF","Passed AC2","","Spreadsheet1",1,"Task Instructions","Screen 12","1a4vu2",5,"continue","",7772.20000038147,7764.2,7772.20000038147,7772.20000038147,7764.2,7772.20000038147,1,7772.20000038147,0,0,NA,"Click To Continue","Continue Button",2,"object-2466","Task Instructions",NA,"SUPPRF49898"
"7",1711410424660,"25/03/2024 23:47:04",1711392424660,-5,"25/03/2024 13:47:04",172741,4,"task-kvtv",NA,36442685,10756348,NA,"complete",NA,"66020a14fed03f0a4e034fb5","computer","Desktop or Laptop","Windows 10","Chrome 121.0.0.0","1280x720","1280x551",NA,NA,0,"Task Introduction and Instructions (re-introduce video and audio) (Clone) (Clone)",2,"ABICHDGEF","Passed AC2","","Spreadsheet1",1,"Task Instructions","Screen 13","q9vwda",6,"continue","",5046.50000038147,5031.9,5046.50000038147,5046.50000038147,5031.9,5046.50000038147,1,5046.50000038147,0,0,NA,"Click To Continue","Continue Button",2,"object-2989","Task Instructions",NA,"SUPPRF49898"
"8",1711410427886,"25/03/2024 23:47:07",1711392427886,-5,"25/03/2024 13:47:07",172741,4,"task-kvtv",NA,36442685,10756348,NA,"complete",NA,"66020a14fed03f0a4e034fb5","computer","Desktop or Laptop","Windows 10","Chrome 121.0.0.0","1280x720","1280x551",NA,NA,0,"Task Introduction and Instructions (re-introduce video and audio) (Clone) (Clone)",2,"ABICHDGEF","Passed AC2","","Spreadsheet1",1,"Task Instructions","Screen 11","oyulb7",7,"continue","",3240.60000038147,3232.1,3240.60000038147,3240.60000038147,3232.1,3240.60000038147,1,3240.60000038147,0,0,NA,"Click To Continue","Continue Button",2,"object-52","Task Instructions",NA,"SUPPRF49898"
"9",1711410430855,"25/03/2024 23:47:10",1711392430855,-5,"25/03/2024 13:47:10",172741,4,"task-kvtv",NA,36442685,10756348,NA,"complete",NA,"66020a14fed03f0a4e034fb5","computer","Desktop or Laptop","Windows 10","Chrome 121.0.0.0","1280x720","1280x551",NA,NA,0,"Task Introduction and Instructions (re-introduce video and audio) (Clone) (Clone)",2,"ABICHDGEF","Passed AC2","","Spreadsheet1",1,"Task Instructions","Screen 5","8nvnao",8,"continue","",2977.59999980927,2965.4,2977.59999980927,2977.59999980927,2965.4,2977.59999980927,1,2977.59999980927,0,0,NA,"Click To Continue","Continue Button",2,"object-44","Task Instructions",NA,"SUPPRF49898"
"10",1711410430860,"25/03/2024 23:47:10",1711392430860,-5,"25/03/2024 13:47:10",172741,4,"task-kvtv",NA,36442685,10756348,NA,"complete",NA,"66020a14fed03f0a4e034fb5","computer","Desktop or Laptop","Windows 10","Chrome 121.0.0.0","1280x720","1280x551",NA,NA,0,"Task Introduction and Instructions (re-introduce video and audio) (Clone) (Clone)",2,"ABICHDGEF","Passed AC2","","Spreadsheet1",NA,"","","",NA,"5","END",NA,NA,NA,NA,NA,NA,0,NA,NA,NA,NA,"","",NA,"","",NA,"SUPPRF49898"
"1",1711422873979,"26/03/2024 03:14:33",1711404873979,-5,"25/03/2024 17:14:33",172741,4,"task-kvtv",NA,36444669,10756916,NA,"complete",NA,"660238f01be858ed29072393","computer","Desktop or Laptop","Mac OS 10.15.7","Chrome 123.0.0.0","1440x900","1440x813",NA,NA,0,"Task Introduction and Instructions (re-introduce video and audio) (Clone) (Clone)",2,"CDBEAFIGH","Passed AC2","","Spreadsheet1",NA,"","","",NA,"5","BEGIN",NA,NA,NA,NA,NA,NA,0,NA,NA,NA,NA,"","",NA,"","",NA,"SUPPRF60894"
"2",1711422878173,"26/03/2024 03:14:38",1711404878173,-5,"25/03/2024 17:14:38",172741,4,"task-kvtv",NA,36444669,10756916,NA,"complete",NA,"660238f01be858ed29072393","computer","Desktop or Laptop","Mac OS 10.15.7","Chrome 123.0.0.0","1440x900","1440x813",NA,NA,0,"Task Introduction and Instructions (re-introduce video and audio) (Clone) (Clone)",2,"CDBEAFIGH","Passed AC2","","Spreadsheet1",1,"Task Instructions","Screen 1","anr7sn",1,"continue","",3576.99999999944,3566.6,3576.99999999944,3576.99999999944,3566.6,3576.99999999944,1,3576.99999999944,0,0,NA,"Click To Continue","Continue Button",3,"object-60","Task Instructions",NA,"SUPPRF60894"
"3",1711422892047,"26/03/2024 03:14:52",1711404892047,-5,"25/03/2024 17:14:52",172741,4,"task-kvtv",NA,36444669,10756916,NA,"complete",NA,"660238f01be858ed29072393","computer","Desktop or Laptop","Mac OS 10.15.7","Chrome 123.0.0.0","1440x900","1440x813",NA,NA,0,"Task Introduction and Instructions (re-introduce video and audio) (Clone) (Clone)",2,"CDBEAFIGH","Passed AC2","","Spreadsheet1",1,"Task Instructions","Screen 4","spepx9",2,"continue","",13883.2,13866.6,13883.2,13883.2,13866.6,13883.2,1,13883.2,0,0,NA,"Click To Continue","Continue Button",2,"object-9","Task Instructions",NA,"SUPPRF60894"
"4",1711422907989,"26/03/2024 03:15:07",1711404907989,-5,"25/03/2024 17:15:07",172741,4,"task-kvtv",NA,36444669,10756916,NA,"complete",NA,"660238f01be858ed29072393","computer","Desktop or Laptop","Mac OS 10.15.7","Chrome 123.0.0.0","1440x900","1440x813",NA,NA,0,"Task Introduction and Instructions (re-introduce video and audio) (Clone) (Clone)",2,"CDBEAFIGH","Passed AC2","","Spreadsheet1",1,"Task Instructions","Screen 2","ce2tc8",3,"continue","",15960.4999999996,15949.7,15960.4999999996,15960.4999999996,15949.7,15960.4999999996,1,15960.4999999996,0,0,NA,"Click To Continue","Continue Button",3,"object-59","Task Instructions",NA,"SUPPRF60894"
"5",1711422927745,"26/03/2024 03:15:27",1711404927745,-5,"25/03/2024 17:15:27",172741,4,"task-kvtv",NA,36444669,10756916,NA,"complete",NA,"660238f01be858ed29072393","computer","Desktop or Laptop","Mac OS 10.15.7","Chrome 123.0.0.0","1440x900","1440x813",NA,NA,0,"Task Introduction and Instructions (re-introduce video and audio) (Clone) (Clone)",2,"CDBEAFIGH","Passed AC2","","Spreadsheet1",1,"Task Instructions","Screen 3","1qtc8v",4,"continue","",19765.8999999993,19750.7,19765.8999999993,19765.8999999993,19750.7,19765.8999999993,1,19765.8999999993,0,0,NA,"Click To Continue","Continue Button",2,"object-2983","Task Instructions",NA,"SUPPRF60894"
"6",1711422936890,"26/03/2024 03:15:36",1711404936890,-5,"25/03/2024 17:15:36",172741,4,"task-kvtv",NA,36444669,10756916,NA,"complete",NA,"660238f01be858ed29072393","computer","Desktop or Laptop","Mac OS 10.15.7","Chrome 123.0.0.0","1440x900","1440x813",NA,NA,0,"Task Introduction and Instructions (re-introduce video and audio) (Clone) (Clone)",2,"CDBEAFIGH","Passed AC2","","Spreadsheet1",1,"Task Instructions","Screen 12","1a4vu2",5,"continue","",9159.69999999925,9149.89999999999,9159.69999999925,9159.69999999925,9149.89999999999,9159.69999999925,1,9159.69999999925,0,0,NA,"Click To Continue","Continue Button",2,"object-2466","Task Instructions",NA,"SUPPRF60894"
"7",1711422942120,"26/03/2024 03:15:42",1711404942120,-5,"25/03/2024 17:15:42",172741,4,"task-kvtv",NA,36444669,10756916,NA,"complete",NA,"660238f01be858ed29072393","computer","Desktop or Laptop","Mac OS 10.15.7","Chrome 123.0.0.0","1440x900","1440x813",NA,NA,0,"Task Introduction and Instructions (re-introduce video and audio) (Clone) (Clone)",2,"CDBEAFIGH","Passed AC2","","Spreadsheet1",1,"Task Instructions","Screen 13","q9vwda",6,"continue","",5239.69999999963,5233.20000000001,5239.69999999963,5239.69999999963,5233.20000000001,5239.69999999963,1,5239.69999999963,0,0,NA,"Click To Continue","Continue Button",2,"object-2989","Task Instructions",NA,"SUPPRF60894"
"8",1711422944956,"26/03/2024 03:15:44",1711404944956,-5,"25/03/2024 17:15:44",172741,4,"task-kvtv",NA,36444669,10756916,NA,"complete",NA,"660238f01be858ed29072393","computer","Desktop or Laptop","Mac OS 10.15.7","Chrome 123.0.0.0","1440x900","1440x813",NA,NA,0,"Task Introduction and Instructions (re-introduce video and audio) (Clone) (Clone)",2,"CDBEAFIGH","Passed AC2","","Spreadsheet1",1,"Task Instructions","Screen 11","oyulb7",7,"continue","",2842.59999999925,2833.39999999999,2842.59999999925,2842.59999999925,2833.39999999999,2842.59999999925,1,2842.59999999925,0,0,NA,"Click To Continue","Continue Button",2,"object-52","Task Instructions",NA,"SUPPRF60894"
"9",1711422947561,"26/03/2024 03:15:47",1711404947561,-5,"25/03/2024 17:15:47",172741,4,"task-kvtv",NA,36444669,10756916,NA,"complete",NA,"660238f01be858ed29072393","computer","Desktop or Laptop","Mac OS 10.15.7","Chrome 123.0.0.0","1440x900","1440x813",NA,NA,0,"Task Introduction and Instructions (re-introduce video and audio) (Clone) (Clone)",2,"CDBEAFIGH","Passed AC2","","Spreadsheet1",1,"Task Instructions","Screen 5","8nvnao",8,"continue","",2613.89999999944,2598.89999999999,2613.89999999944,2613.89999999944,2598.89999999999,2613.89999999944,1,2613.89999999944,0,0,NA,"Click To Continue","Continue Button",2,"object-44","Task Instructions",NA,"SUPPRF60894"
"10",1711422947563,"26/03/2024 03:15:47",1711404947563,-5,"25/03/2024 17:15:47",172741,4,"task-kvtv",NA,36444669,10756916,NA,"complete",NA,"660238f01be858ed29072393","computer","Desktop or Laptop","Mac OS 10.15.7","Chrome 123.0.0.0","1440x900","1440x813",NA,NA,0,"Task Introduction and Instructions (re-introduce video and audio) (Clone) (Clone)",2,"CDBEAFIGH","Passed AC2","","Spreadsheet1",NA,"","","",NA,"5","END",NA,NA,NA,NA,NA,NA,0,NA,NA,NA,NA,"","",NA,"","",NA,"SUPPRF60894"
"1",1711430341301,"26/03/2024 05:19:01",1711412341301,-5,"25/03/2024 19:19:01",172741,4,"task-kvtv",NA,36445423,10757142,NA,"complete",NA,"6602563d86cb8962f2d42b1f","computer","Desktop or Laptop","Windows 10","Chrome 123.0.0.0","1920x1080","1920x911",NA,NA,0,"Task Introduction and Instructions (re-introduce video and audio) (Clone) (Clone)",2,"DECFBGAHI","Passed AC2","","Spreadsheet1",NA,"","","",NA,"5","BEGIN",NA,NA,NA,NA,NA,NA,0,NA,NA,NA,NA,"","",NA,"","",NA,"SUPPRF90238"
"2",1711430349999,"26/03/2024 05:19:09",1711412349999,-5,"25/03/2024 19:19:09",172741,4,"task-kvtv",NA,36445423,10757142,NA,"complete",NA,"6602563d86cb8962f2d42b1f","computer","Desktop or Laptop","Windows 10","Chrome 123.0.0.0","1920x1080","1920x911",NA,NA,0,"Task Introduction and Instructions (re-introduce video and audio) (Clone) (Clone)",2,"DECFBGAHI","Passed AC2","","Spreadsheet1",1,"Task Instructions","Screen 1","anr7sn",1,"continue","",8092.99999999404,8083.2,8092.99999999404,8092.99999999404,8083.2,8092.99999999404,1,8092.99999999404,0,0,NA,"Click To Continue","Continue Button",3,"object-60","Task Instructions",NA,"SUPPRF90238"
"3",1711430354029,"26/03/2024 05:19:14",1711412354029,-5,"25/03/2024 19:19:14",172741,4,"task-kvtv",NA,36445423,10757142,NA,"complete",NA,"6602563d86cb8962f2d42b1f","computer","Desktop or Laptop","Windows 10","Chrome 123.0.0.0","1920x1080","1920x911",NA,NA,0,"Task Introduction and Instructions (re-introduce video and audio) (Clone) (Clone)",2,"DECFBGAHI","Passed AC2","","Spreadsheet1",1,"Task Instructions","Screen 4","spepx9",2,"continue","",4040.09999997616,4033.4,4040.09999997616,4040.09999997616,4033.4,4040.09999997616,1,4040.09999997616,0,0,NA,"Click To Continue","Continue Button",2,"object-9","Task Instructions",NA,"SUPPRF90238"
"4",1711430361138,"26/03/2024 05:19:21",1711412361138,-5,"25/03/2024 19:19:21",172741,4,"task-kvtv",NA,36445423,10757142,NA,"complete",NA,"6602563d86cb8962f2d42b1f","computer","Desktop or Laptop","Windows 10","Chrome 123.0.0.0","1920x1080","1920x911",NA,NA,0,"Task Introduction and Instructions (re-introduce video and audio) (Clone) (Clone)",2,"DECFBGAHI","Passed AC2","","Spreadsheet1",1,"Task Instructions","Screen 2","ce2tc8",3,"continue","",7115.89999999404,7100,7115.89999999404,7115.89999999404,7100,7115.89999999404,1,7115.89999999404,0,0,NA,"Click To Continue","Continue Button",3,"object-59","Task Instructions",NA,"SUPPRF90238"
"5",1711430397987,"26/03/2024 05:19:57",1711412397987,-5,"25/03/2024 19:19:57",172741,4,"task-kvtv",NA,36445423,10757142,NA,"complete",NA,"6602563d86cb8962f2d42b1f","computer","Desktop or Laptop","Windows 10","Chrome 123.0.0.0","1920x1080","1920x911",NA,NA,0,"Task Introduction and Instructions (re-introduce video and audio) (Clone) (Clone)",2,"DECFBGAHI","Passed AC2","","Spreadsheet1",1,"Task Instructions","Screen 3","1qtc8v",4,"continue","",36864.0999999821,36849.9,36864.0999999821,36864.0999999821,36849.9,36864.0999999821,1,36864.0999999821,0,0,NA,"Click To Continue","Continue Button",2,"object-2983","Task Instructions",NA,"SUPPRF90238"
"6",1711430403066,"26/03/2024 05:20:03",1711412403066,-5,"25/03/2024 19:20:03",172741,4,"task-kvtv",NA,36445423,10757142,NA,"complete",NA,"6602563d86cb8962f2d42b1f","computer","Desktop or Laptop","Windows 10","Chrome 123.0.0.0","1920x1080","1920x911",NA,NA,0,"Task Introduction and Instructions (re-introduce video and audio) (Clone) (Clone)",2,"DECFBGAHI","Passed AC2","","Spreadsheet1",1,"Task Instructions","Screen 12","1a4vu2",5,"continue","",5092.4,5083.50000000001,5092.4,5092.4,5083.50000000001,5092.4,1,5092.4,0,0,NA,"Click To Continue","Continue Button",2,"object-2466","Task Instructions",NA,"SUPPRF90238"
"7",1711430410294,"26/03/2024 05:20:10",1711412410294,-5,"25/03/2024 19:20:10",172741,4,"task-kvtv",NA,36445423,10757142,NA,"complete",NA,"6602563d86cb8962f2d42b1f","computer","Desktop or Laptop","Windows 10","Chrome 123.0.0.0","1920x1080","1920x911",NA,NA,0,"Task Introduction and Instructions (re-introduce video and audio) (Clone) (Clone)",2,"DECFBGAHI","Passed AC2","","Spreadsheet1",1,"Task Instructions","Screen 13","q9vwda",6,"continue","",7237.19999998211,7233.59999999999,7237.19999998211,7237.19999998211,7233.59999999999,7237.19999998211,1,7237.19999998211,0,0,NA,"Click To Continue","Continue Button",2,"object-2989","Task Instructions",NA,"SUPPRF90238"
"8",1711430413244,"26/03/2024 05:20:13",1711412413244,-5,"25/03/2024 19:20:13",172741,4,"task-kvtv",NA,36445423,10757142,NA,"complete",NA,"6602563d86cb8962f2d42b1f","computer","Desktop or Laptop","Windows 10","Chrome 123.0.0.0","1920x1080","1920x911",NA,NA,0,"Task Introduction and Instructions (re-introduce video and audio) (Clone) (Clone)",2,"DECFBGAHI","Passed AC2","","Spreadsheet1",1,"Task Instructions","Screen 11","oyulb7",7,"continue","",2954.3,2949.60000000001,2954.3,2954.3,2949.60000000001,2954.3,1,2954.3,0,0,NA,"Click To Continue","Continue Button",2,"object-52","Task Instructions",NA,"SUPPRF90238"
"9",1711430416315,"26/03/2024 05:20:16",1711412416315,-5,"25/03/2024 19:20:16",172741,4,"task-kvtv",NA,36445423,10757142,NA,"complete",NA,"6602563d86cb8962f2d42b1f","computer","Desktop or Laptop","Windows 10","Chrome 123.0.0.0","1920x1080","1920x911",NA,NA,0,"Task Introduction and Instructions (re-introduce video and audio) (Clone) (Clone)",2,"DECFBGAHI","Passed AC2","","Spreadsheet1",1,"Task Instructions","Screen 5","8nvnao",8,"continue","",3075.59999997616,3066.59999999999,3075.59999997616,3075.59999997616,3066.59999999999,3075.59999997616,1,3075.59999997616,0,0,NA,"Click To Continue","Continue Button",2,"object-44","Task Instructions",NA,"SUPPRF90238"
"10",1711430416317,"26/03/2024 05:20:16",1711412416317,-5,"25/03/2024 19:20:16",172741,4,"task-kvtv",NA,36445423,10757142,NA,"complete",NA,"6602563d86cb8962f2d42b1f","computer","Desktop or Laptop","Windows 10","Chrome 123.0.0.0","1920x1080","1920x911",NA,NA,0,"Task Introduction and Instructions (re-introduce video and audio) (Clone) (Clone)",2,"DECFBGAHI","Passed AC2","","Spreadsheet1",NA,"","","",NA,"5","END",NA,NA,NA,NA,NA,NA,0,NA,NA,NA,NA,"","",NA,"","",NA,"SUPPRF90238"
"1",1711431728046,"26/03/2024 05:42:08",1711417328046,-4,"25/03/2024 21:42:08",172741,4,"task-kvtv",NA,36445510,10757176,NA,"complete",NA,"66025d2d6e435259d20b2437","computer","Desktop or Laptop","Mac OS 10.15.7","Chrome 120.0.0.0","1792x1120","1212x740",NA,NA,0,"Task Introduction and Instructions (re-introduce video and audio) (Clone) (Clone)",2,"EFDGCHBIA","Passed AC2","","Spreadsheet1",NA,"","","",NA,"5","BEGIN",NA,NA,NA,NA,NA,NA,0,NA,NA,NA,NA,"","",NA,"","",NA,"SUPPRF18827"
"2",1711431732280,"26/03/2024 05:42:12",1711417332280,-4,"25/03/2024 21:42:12",172741,4,"task-kvtv",NA,36445510,10757176,NA,"complete",NA,"66025d2d6e435259d20b2437","computer","Desktop or Laptop","Mac OS 10.15.7","Chrome 120.0.0.0","1792x1120","1212x740",NA,NA,0,"Task Introduction and Instructions (re-introduce video and audio) (Clone) (Clone)",2,"EFDGCHBIA","Passed AC2","","Spreadsheet1",1,"Task Instructions","Screen 1","anr7sn",1,"continue","",4087.5,4083.2,4087.5,4087.5,4083.2,4087.5,1,4087.5,0,0,NA,"Click To Continue","Continue Button",3,"object-60","Task Instructions",NA,"SUPPRF18827"
"3",1711431735627,"26/03/2024 05:42:15",1711417335627,-4,"25/03/2024 21:42:15",172741,4,"task-kvtv",NA,36445510,10757176,NA,"complete",NA,"66025d2d6e435259d20b2437","computer","Desktop or Laptop","Mac OS 10.15.7","Chrome 120.0.0.0","1792x1120","1212x740",NA,NA,0,"Task Introduction and Instructions (re-introduce video and audio) (Clone) (Clone)",2,"EFDGCHBIA","Passed AC2","","Spreadsheet1",1,"Task Instructions","Screen 4","spepx9",2,"continue","",3349.7,3333.1,3349.7,3349.7,3333.1,3349.7,1,3349.7,0,0,NA,"Click To Continue","Continue Button",2,"object-9","Task Instructions",NA,"SUPPRF18827"
"4",1711431751630,"26/03/2024 05:42:31",1711417351630,-4,"25/03/2024 21:42:31",172741,4,"task-kvtv",NA,36445510,10757176,NA,"complete",NA,"66025d2d6e435259d20b2437","computer","Desktop or Laptop","Mac OS 10.15.7","Chrome 120.0.0.0","1792x1120","1212x740",NA,NA,0,"Task Introduction and Instructions (re-introduce video and audio) (Clone) (Clone)",2,"EFDGCHBIA","Passed AC2","","Spreadsheet1",1,"Task Instructions","Screen 2","ce2tc8",3,"continue","",16020.8999999881,16017.2,16020.8999999881,16020.8999999881,16017.2,16020.8999999881,1,16020.8999999881,0,0,NA,"Click To Continue","Continue Button",3,"object-59","Task Instructions",NA,"SUPPRF18827"
"5",1711431766072,"26/03/2024 05:42:46",1711417366072,-4,"25/03/2024 21:42:46",172741,4,"task-kvtv",NA,36445510,10757176,NA,"complete",NA,"66025d2d6e435259d20b2437","computer","Desktop or Laptop","Mac OS 10.15.7","Chrome 120.0.0.0","1792x1120","1212x740",NA,NA,0,"Task Introduction and Instructions (re-introduce video and audio) (Clone) (Clone)",2,"EFDGCHBIA","Passed AC2","","Spreadsheet1",1,"Task Instructions","Screen 3","1qtc8v",4,"continue","",14446,14433.7,14446,14446,14433.7,14446,1,14446,0,0,NA,"Click To Continue","Continue Button",2,"object-2983","Task Instructions",NA,"SUPPRF18827"
"6",1711431773475,"26/03/2024 05:42:53",1711417373475,-4,"25/03/2024 21:42:53",172741,4,"task-kvtv",NA,36445510,10757176,NA,"complete",NA,"66025d2d6e435259d20b2437","computer","Desktop or Laptop","Mac OS 10.15.7","Chrome 120.0.0.0","1792x1120","1212x740",NA,NA,0,"Task Introduction and Instructions (re-introduce video and audio) (Clone) (Clone)",2,"EFDGCHBIA","Passed AC2","","Spreadsheet1",1,"Task Instructions","Screen 12","1a4vu2",5,"continue","",7415.3,7399.7,7415.3,7415.3,7399.7,7415.3,1,7415.3,0,0,NA,"Click To Continue","Continue Button",2,"object-2466","Task Instructions",NA,"SUPPRF18827"
"7",1711431778178,"26/03/2024 05:42:58",1711417378178,-4,"25/03/2024 21:42:58",172741,4,"task-kvtv",NA,36445510,10757176,NA,"complete",NA,"66025d2d6e435259d20b2437","computer","Desktop or Laptop","Mac OS 10.15.7","Chrome 120.0.0.0","1792x1120","1212x740",NA,NA,0,"Task Introduction and Instructions (re-introduce video and audio) (Clone) (Clone)",2,"EFDGCHBIA","Passed AC2","","Spreadsheet1",1,"Task Instructions","Screen 13","q9vwda",6,"continue","",4717.2,4700.4,4717.2,4717.2,4700.4,4717.2,1,4717.2,0,0,NA,"Click To Continue","Continue Button",2,"object-2989","Task Instructions",NA,"SUPPRF18827"
"8",1711431781098,"26/03/2024 05:43:01",1711417381098,-4,"25/03/2024 21:43:01",172741,4,"task-kvtv",NA,36445510,10757176,NA,"complete",NA,"66025d2d6e435259d20b2437","computer","Desktop or Laptop","Mac OS 10.15.7","Chrome 120.0.0.0","1792x1120","1212x740",NA,NA,0,"Task Introduction and Instructions (re-introduce video and audio) (Clone) (Clone)",2,"EFDGCHBIA","Passed AC2","","Spreadsheet1",1,"Task Instructions","Screen 11","oyulb7",7,"continue","",2937.39999998808,2933.1,2937.39999998808,2937.39999998808,2933.1,2937.39999998808,1,2937.39999998808,0,0,NA,"Click To Continue","Continue Button",2,"object-52","Task Instructions",NA,"SUPPRF18827"
"9",1711431784112,"26/03/2024 05:43:04",1711417384112,-4,"25/03/2024 21:43:04",172741,4,"task-kvtv",NA,36445510,10757176,NA,"complete",NA,"66025d2d6e435259d20b2437","computer","Desktop or Laptop","Mac OS 10.15.7","Chrome 120.0.0.0","1792x1120","1212x740",NA,NA,0,"Task Introduction and Instructions (re-introduce video and audio) (Clone) (Clone)",2,"EFDGCHBIA","Passed AC2","","Spreadsheet1",1,"Task Instructions","Screen 5","8nvnao",8,"continue","",3016.8,3000,3016.8,3016.8,3000,3016.8,1,3016.8,0,0,NA,"Click To Continue","Continue Button",2,"object-44","Task Instructions",NA,"SUPPRF18827"
"10",1711431784114,"26/03/2024 05:43:04",1711417384114,-4,"25/03/2024 21:43:04",172741,4,"task-kvtv",NA,36445510,10757176,NA,"complete",NA,"66025d2d6e435259d20b2437","computer","Desktop or Laptop","Mac OS 10.15.7","Chrome 120.0.0.0","1792x1120","1212x740",NA,NA,0,"Task Introduction and Instructions (re-introduce video and audio) (Clone) (Clone)",2,"EFDGCHBIA","Passed AC2","","Spreadsheet1",NA,"","","",NA,"5","END",NA,NA,NA,NA,NA,NA,0,NA,NA,NA,NA,"","",NA,"","",NA,"SUPPRF18827"
"1",1711449763025,"26/03/2024 10:42:43",1711449763025,0,"26/03/2024 10:42:43",172741,4,"task-kvtv",NA,36452781,10759064,NA,"complete",NA,"6602a30233c28bbe2e29631e","computer","Desktop or Laptop","Windows 10","Chrome 123.0.0.0","1366x768","1366x641",NA,NA,0,"Task Introduction and Instructions (re-introduce video and audio) (Clone) (Clone)",2,"FGEHDICAB","Passed AC2","","Spreadsheet1",NA,"","","",NA,"5","BEGIN",NA,NA,NA,NA,NA,NA,0,NA,NA,NA,NA,"","",NA,"","",NA,"SUPPRF28922"
"2",1711449767499,"26/03/2024 10:42:47",1711449767499,0,"26/03/2024 10:42:47",172741,4,"task-kvtv",NA,36452781,10759064,NA,"complete",NA,"6602a30233c28bbe2e29631e","computer","Desktop or Laptop","Windows 10","Chrome 123.0.0.0","1366x768","1366x641",NA,NA,0,"Task Introduction and Instructions (re-introduce video and audio) (Clone) (Clone)",2,"FGEHDICAB","Passed AC2","","Spreadsheet1",1,"Task Instructions","Screen 1","anr7sn",1,"continue","",4304.40000001192,4299.9,4304.40000001192,4304.40000001192,4299.9,4304.40000001192,1,4304.40000001192,0,0,NA,"Click To Continue","Continue Button",3,"object-60","Task Instructions",NA,"SUPPRF28922"
"3",1711449780719,"26/03/2024 10:43:00",1711449780719,0,"26/03/2024 10:43:00",172741,4,"task-kvtv",NA,36452781,10759064,NA,"complete",NA,"6602a30233c28bbe2e29631e","computer","Desktop or Laptop","Windows 10","Chrome 123.0.0.0","1366x768","1366x641",NA,NA,0,"Task Introduction and Instructions (re-introduce video and audio) (Clone) (Clone)",2,"FGEHDICAB","Passed AC2","","Spreadsheet1",1,"Task Instructions","Screen 4","spepx9",2,"continue","",13224.7,13216.4,13224.7,13224.7,13216.4,13224.7,1,13224.7,0,0,NA,"Click To Continue","Continue Button",2,"object-9","Task Instructions",NA,"SUPPRF28922"
"4",1711449789845,"26/03/2024 10:43:09",1711449789845,0,"26/03/2024 10:43:09",172741,4,"task-kvtv",NA,36452781,10759064,NA,"complete",NA,"6602a30233c28bbe2e29631e","computer","Desktop or Laptop","Windows 10","Chrome 123.0.0.0","1366x768","1366x641",NA,NA,0,"Task Introduction and Instructions (re-introduce video and audio) (Clone) (Clone)",2,"FGEHDICAB","Passed AC2","","Spreadsheet1",1,"Task Instructions","Screen 2","ce2tc8",3,"continue","",9133.1,9116.2,9133.1,9133.1,9116.2,9133.1,1,9133.1,0,0,NA,"Click To Continue","Continue Button",3,"object-59","Task Instructions",NA,"SUPPRF28922"
"5",1711449795785,"26/03/2024 10:43:15",1711449795785,0,"26/03/2024 10:43:15",172741,4,"task-kvtv",NA,36452781,10759064,NA,"complete",NA,"6602a30233c28bbe2e29631e","computer","Desktop or Laptop","Windows 10","Chrome 123.0.0.0","1366x768","1366x641",NA,NA,0,"Task Introduction and Instructions (re-introduce video and audio) (Clone) (Clone)",2,"FGEHDICAB","Passed AC2","","Spreadsheet1",1,"Task Instructions","Screen 3","1qtc8v",4,"continue","",5957.30000001788,5949.9,5957.30000001788,5957.30000001788,5949.9,5957.30000001788,1,5957.30000001788,0,0,NA,"Click To Continue","Continue Button",2,"object-2983","Task Instructions",NA,"SUPPRF28922"
"6",1711449799506,"26/03/2024 10:43:19",1711449799506,0,"26/03/2024 10:43:19",172741,4,"task-kvtv",NA,36452781,10759064,NA,"complete",NA,"6602a30233c28bbe2e29631e","computer","Desktop or Laptop","Windows 10","Chrome 123.0.0.0","1366x768","1366x641",NA,NA,0,"Task Introduction and Instructions (re-introduce video and audio) (Clone) (Clone)",2,"FGEHDICAB","Passed AC2","","Spreadsheet1",1,"Task Instructions","Screen 12","1a4vu2",5,"continue","",3729.29999999404,3716.3,3729.29999999404,3729.29999999404,3716.3,3729.29999999404,1,3729.29999999404,0,0,NA,"Click To Continue","Continue Button",2,"object-2466","Task Instructions",NA,"SUPPRF28922"
"7",1711449804321,"26/03/2024 10:43:24",1711449804321,0,"26/03/2024 10:43:24",172741,4,"task-kvtv",NA,36452781,10759064,NA,"complete",NA,"6602a30233c28bbe2e29631e","computer","Desktop or Laptop","Windows 10","Chrome 123.0.0.0","1366x768","1366x641",NA,NA,0,"Task Introduction and Instructions (re-introduce video and audio) (Clone) (Clone)",2,"FGEHDICAB","Passed AC2","","Spreadsheet1",1,"Task Instructions","Screen 13","q9vwda",6,"continue","",4827.60000001788,4816.2,4827.60000001788,4827.60000001788,4816.2,4827.60000001788,1,4827.60000001788,0,0,NA,"Click To Continue","Continue Button",2,"object-2989","Task Instructions",NA,"SUPPRF28922"
"8",1711449807585,"26/03/2024 10:43:27",1711449807585,0,"26/03/2024 10:43:27",172741,4,"task-kvtv",NA,36452781,10759064,NA,"complete",NA,"6602a30233c28bbe2e29631e","computer","Desktop or Laptop","Windows 10","Chrome 123.0.0.0","1366x768","1366x641",NA,NA,0,"Task Introduction and Instructions (re-introduce video and audio) (Clone) (Clone)",2,"FGEHDICAB","Passed AC2","","Spreadsheet1",1,"Task Instructions","Screen 11","oyulb7",7,"continue","",3275.60000000596,3266.8,3275.60000000596,3275.60000000596,3266.8,3275.60000000596,1,3275.60000000596,0,0,NA,"Click To Continue","Continue Button",2,"object-52","Task Instructions",NA,"SUPPRF28922"
"9",1711449810596,"26/03/2024 10:43:30",1711449810596,0,"26/03/2024 10:43:30",172741,4,"task-kvtv",NA,36452781,10759064,NA,"complete",NA,"6602a30233c28bbe2e29631e","computer","Desktop or Laptop","Windows 10","Chrome 123.0.0.0","1366x768","1366x641",NA,NA,0,"Task Introduction and Instructions (re-introduce video and audio) (Clone) (Clone)",2,"FGEHDICAB","Passed AC2","","Spreadsheet1",1,"Task Instructions","Screen 5","8nvnao",8,"continue","",3019.60000001788,3016.2,3019.60000001788,3019.60000001788,3016.2,3019.60000001788,1,3019.60000001788,0,0,NA,"Click To Continue","Continue Button",2,"object-44","Task Instructions",NA,"SUPPRF28922"
"10",1711449810598,"26/03/2024 10:43:30",1711449810598,0,"26/03/2024 10:43:30",172741,4,"task-kvtv",NA,36452781,10759064,NA,"complete",NA,"6602a30233c28bbe2e29631e","computer","Desktop or Laptop","Windows 10","Chrome 123.0.0.0","1366x768","1366x641",NA,NA,0,"Task Introduction and Instructions (re-introduce video and audio) (Clone) (Clone)",2,"FGEHDICAB","Passed AC2","","Spreadsheet1",NA,"","","",NA,"5","END",NA,NA,NA,NA,NA,NA,0,NA,NA,NA,NA,"","",NA,"","",NA,"SUPPRF28922"
"1",1711459610103,"26/03/2024 13:26:50",1711459610103,0,"26/03/2024 13:26:50",172741,4,"task-kvtv",NA,36462623,10761843,NA,"complete",NA,"6602c9270bfcef8b81cfcfc1","computer","Desktop or Laptop","Windows 10","Chrome 122.0.0.0","1280x720","1280x585",NA,NA,0,"Task Introduction and Instructions (re-introduce video and audio) (Clone) (Clone)",2,"GHFIEADBC","Passed AC2","","Spreadsheet1",NA,"","","",NA,"5","BEGIN",NA,NA,NA,NA,NA,NA,0,NA,NA,NA,NA,"","",NA,"","",NA,"SUPPRF15230"
"2",1711459613830,"26/03/2024 13:26:53",1711459613830,0,"26/03/2024 13:26:53",172741,4,"task-kvtv",NA,36462623,10761843,NA,"complete",NA,"6602c9270bfcef8b81cfcfc1","computer","Desktop or Laptop","Windows 10","Chrome 122.0.0.0","1280x720","1280x585",NA,NA,0,"Task Introduction and Instructions (re-introduce video and audio) (Clone) (Clone)",2,"GHFIEADBC","Passed AC2","","Spreadsheet1",1,"Task Instructions","Screen 1","anr7sn",1,"continue","",3638.50000009537,3632.9,3638.50000009537,3638.50000009537,3632.9,3638.50000009537,1,3638.50000009537,0,0,NA,"Click To Continue","Continue Button",3,"object-60","Task Instructions",NA,"SUPPRF15230"
"3",1711459619062,"26/03/2024 13:26:59",1711459619062,0,"26/03/2024 13:26:59",172741,4,"task-kvtv",NA,36462623,10761843,NA,"complete",NA,"6602c9270bfcef8b81cfcfc1","computer","Desktop or Laptop","Windows 10","Chrome 122.0.0.0","1280x720","1280x585",NA,NA,0,"Task Introduction and Instructions (re-introduce video and audio) (Clone) (Clone)",2,"GHFIEADBC","Passed AC2","","Spreadsheet1",1,"Task Instructions","Screen 4","spepx9",2,"continue","",5238.00000019073,5232.1,5238.00000019073,5238.00000019073,5232.1,5238.00000019073,1,5238.00000019073,0,0,NA,"Click To Continue","Continue Button",2,"object-9","Task Instructions",NA,"SUPPRF15230"
"4",1711459631088,"26/03/2024 13:27:11",1711459631088,0,"26/03/2024 13:27:11",172741,4,"task-kvtv",NA,36462623,10761843,NA,"complete",NA,"6602c9270bfcef8b81cfcfc1","computer","Desktop or Laptop","Windows 10","Chrome 122.0.0.0","1280x720","1280x585",NA,NA,0,"Task Introduction and Instructions (re-introduce video and audio) (Clone) (Clone)",2,"GHFIEADBC","Passed AC2","","Spreadsheet1",1,"Task Instructions","Screen 2","ce2tc8",3,"continue","",12031,12014.3,12031,12031,12014.3,12031,1,12031,0,0,NA,"Click To Continue","Continue Button",3,"object-59","Task Instructions",NA,"SUPPRF15230"
"5",1711459699968,"26/03/2024 13:28:19",1711459699968,0,"26/03/2024 13:28:19",172741,4,"task-kvtv",NA,36462623,10761843,NA,"complete",NA,"6602c9270bfcef8b81cfcfc1","computer","Desktop or Laptop","Windows 10","Chrome 122.0.0.0","1280x720","1280x585",NA,NA,0,"Task Introduction and Instructions (re-introduce video and audio) (Clone) (Clone)",2,"GHFIEADBC","Passed AC2","","Spreadsheet1",1,"Task Instructions","Screen 3","1qtc8v",4,"continue","",68898.1000001907,68887.6,68898.1000001907,68898.1000001907,68887.6,68898.1000001907,1,68898.1000001907,0,0,NA,"Click To Continue","Continue Button",2,"object-2983","Task Instructions",NA,"SUPPRF15230"
"6",1711459709376,"26/03/2024 13:28:29",1711459709376,0,"26/03/2024 13:28:29",172741,4,"task-kvtv",NA,36462623,10761843,NA,"complete",NA,"6602c9270bfcef8b81cfcfc1","computer","Desktop or Laptop","Windows 10","Chrome 122.0.0.0","1280x720","1280x585",NA,NA,0,"Task Introduction and Instructions (re-introduce video and audio) (Clone) (Clone)",2,"GHFIEADBC","Passed AC2","","Spreadsheet1",1,"Task Instructions","Screen 12","1a4vu2",5,"continue","",9418.4000002861,9414,9418.4000002861,9418.4000002861,9414,9418.4000002861,1,9418.4000002861,0,0,NA,"Click To Continue","Continue Button",2,"object-2466","Task Instructions",NA,"SUPPRF15230"
"7",1711459714462,"26/03/2024 13:28:34",1711459714462,0,"26/03/2024 13:28:34",172741,4,"task-kvtv",NA,36462623,10761843,NA,"complete",NA,"6602c9270bfcef8b81cfcfc1","computer","Desktop or Laptop","Windows 10","Chrome 122.0.0.0","1280x720","1280x585",NA,NA,0,"Task Introduction and Instructions (re-introduce video and audio) (Clone) (Clone)",2,"GHFIEADBC","Passed AC2","","Spreadsheet1",1,"Task Instructions","Screen 13","q9vwda",6,"continue","",5089.9000002861,5081.89999999999,5089.9000002861,5089.9000002861,5081.89999999999,5089.9000002861,1,5089.9000002861,0,0,NA,"Click To Continue","Continue Button",2,"object-2989","Task Instructions",NA,"SUPPRF15230"
"8",1711459719930,"26/03/2024 13:28:39",1711459719930,0,"26/03/2024 13:28:39",172741,4,"task-kvtv",NA,36462623,10761843,NA,"complete",NA,"6602c9270bfcef8b81cfcfc1","computer","Desktop or Laptop","Windows 10","Chrome 122.0.0.0","1280x720","1280x585",NA,NA,0,"Task Introduction and Instructions (re-introduce video and audio) (Clone) (Clone)",2,"GHFIEADBC","Passed AC2","","Spreadsheet1",1,"Task Instructions","Screen 11","oyulb7",7,"continue","",5476.40000038147,5465.5,5476.40000038147,5476.40000038147,5465.5,5476.40000038147,1,5476.40000038147,0,0,NA,"Click To Continue","Continue Button",2,"object-52","Task Instructions",NA,"SUPPRF15230"
"9",1711459723275,"26/03/2024 13:28:43",1711459723275,0,"26/03/2024 13:28:43",172741,4,"task-kvtv",NA,36462623,10761843,NA,"complete",NA,"6602c9270bfcef8b81cfcfc1","computer","Desktop or Laptop","Windows 10","Chrome 122.0.0.0","1280x720","1280x585",NA,NA,0,"Task Introduction and Instructions (re-introduce video and audio) (Clone) (Clone)",2,"GHFIEADBC","Passed AC2","","Spreadsheet1",1,"Task Instructions","Screen 5","8nvnao",8,"continue","",3356.00000028611,3349.90000000001,3356.00000028611,3356.00000028611,3349.90000000001,3356.00000028611,1,3356.00000028611,0,0,NA,"Click To Continue","Continue Button",2,"object-44","Task Instructions",NA,"SUPPRF15230"
"10",1711459723278,"26/03/2024 13:28:43",1711459723278,0,"26/03/2024 13:28:43",172741,4,"task-kvtv",NA,36462623,10761843,NA,"complete",NA,"6602c9270bfcef8b81cfcfc1","computer","Desktop or Laptop","Windows 10","Chrome 122.0.0.0","1280x720","1280x585",NA,NA,0,"Task Introduction and Instructions (re-introduce video and audio) (Clone) (Clone)",2,"GHFIEADBC","Passed AC2","","Spreadsheet1",NA,"","","",NA,"5","END",NA,NA,NA,NA,NA,NA,0,NA,NA,NA,NA,"","",NA,"","",NA,"SUPPRF15230"
"1",1711459679119,"26/03/2024 13:27:59",1711459679119,0,"26/03/2024 13:27:59",172741,4,"task-kvtv",NA,36462706,10761950,NA,"complete",NA,"6602caaad4a7d0315c1ff519","computer","Desktop or Laptop","Mac OS 10.15.7","Chrome 122.0.0.0","1440x900","1440x815",NA,NA,0,"Task Introduction and Instructions (re-introduce video and audio) (Clone) (Clone)",2,"HIGAFBECD","Failed AC2","Passed AC1","Spreadsheet1",NA,"","","",NA,"5","BEGIN",NA,NA,NA,NA,NA,NA,0,NA,NA,NA,NA,"","",NA,"","",NA,"SUPPRF71225"
"2",1711459691163,"26/03/2024 13:28:11",1711459691163,0,"26/03/2024 13:28:11",172741,4,"task-kvtv",NA,36462706,10761950,NA,"complete",NA,"6602caaad4a7d0315c1ff519","computer","Desktop or Laptop","Mac OS 10.15.7","Chrome 122.0.0.0","1440x900","1440x815",NA,NA,0,"Task Introduction and Instructions (re-introduce video and audio) (Clone) (Clone)",2,"HIGAFBECD","Failed AC2","Passed AC1","Spreadsheet1",1,"Task Instructions","Screen 1","anr7sn",1,"continue","",11822.1999999046,11814.9,11822.1999999046,11822.1999999046,11814.9,11822.1999999046,1,11822.1999999046,0,0,NA,"Click To Continue","Continue Button",3,"object-60","Task Instructions",NA,"SUPPRF71225"
"3",1711459694625,"26/03/2024 13:28:14",1711459694625,0,"26/03/2024 13:28:14",172741,4,"task-kvtv",NA,36462706,10761950,NA,"complete",NA,"6602caaad4a7d0315c1ff519","computer","Desktop or Laptop","Mac OS 10.15.7","Chrome 122.0.0.0","1440x900","1440x815",NA,NA,0,"Task Introduction and Instructions (re-introduce video and audio) (Clone) (Clone)",2,"HIGAFBECD","Failed AC2","Passed AC1","Spreadsheet1",1,"Task Instructions","Screen 4","spepx9",2,"continue","",3467.6,3450.4,3467.6,3467.6,3450.4,3467.6,1,3467.6,0,0,NA,"Click To Continue","Continue Button",2,"object-9","Task Instructions",NA,"SUPPRF71225"
"4",1711459726057,"26/03/2024 13:28:46",1711459726057,0,"26/03/2024 13:28:46",172741,4,"task-kvtv",NA,36462706,10761950,NA,"complete",NA,"6602caaad4a7d0315c1ff519","computer","Desktop or Laptop","Mac OS 10.15.7","Chrome 122.0.0.0","1440x900","1440x815",NA,NA,0,"Task Introduction and Instructions (re-introduce video and audio) (Clone) (Clone)",2,"HIGAFBECD","Failed AC2","Passed AC1","Spreadsheet1",1,"Task Instructions","Screen 2","ce2tc8",3,"continue","",31452.6999998569,31443.2,31452.6999998569,31452.6999998569,31443.2,31452.6999998569,1,31452.6999998569,0,0,NA,"Click To Continue","Continue Button",3,"object-59","Task Instructions",NA,"SUPPRF71225"
"5",1711459742797,"26/03/2024 13:29:02",1711459742797,0,"26/03/2024 13:29:02",172741,4,"task-kvtv",NA,36462706,10761950,NA,"complete",NA,"6602caaad4a7d0315c1ff519","computer","Desktop or Laptop","Mac OS 10.15.7","Chrome 122.0.0.0","1440x900","1440x815",NA,NA,0,"Task Introduction and Instructions (re-introduce video and audio) (Clone) (Clone)",2,"HIGAFBECD","Failed AC2","Passed AC1","Spreadsheet1",1,"Task Instructions","Screen 3","1qtc8v",4,"continue","",16750.8999999523,16748.9,16750.8999999523,16750.8999999523,16748.9,16750.8999999523,1,16750.8999999523,0,0,NA,"Click To Continue","Continue Button",2,"object-2983","Task Instructions",NA,"SUPPRF71225"
"6",1711459756107,"26/03/2024 13:29:16",1711459756107,0,"26/03/2024 13:29:16",172741,4,"task-kvtv",NA,36462706,10761950,NA,"complete",NA,"6602caaad4a7d0315c1ff519","computer","Desktop or Laptop","Mac OS 10.15.7","Chrome 122.0.0.0","1440x900","1440x815",NA,NA,0,"Task Introduction and Instructions (re-introduce video and audio) (Clone) (Clone)",2,"HIGAFBECD","Failed AC2","Passed AC1","Spreadsheet1",1,"Task Instructions","Screen 12","1a4vu2",5,"continue","",13311.8999998093,13302.2,13311.8999998093,13311.8999998093,13302.2,13311.8999998093,1,13311.8999998093,0,0,NA,"Click To Continue","Continue Button",2,"object-2466","Task Instructions",NA,"SUPPRF71225"
"7",1711459761584,"26/03/2024 13:29:21",1711459761584,0,"26/03/2024 13:29:21",172741,4,"task-kvtv",NA,36462706,10761950,NA,"complete",NA,"6602caaad4a7d0315c1ff519","computer","Desktop or Laptop","Mac OS 10.15.7","Chrome 122.0.0.0","1440x900","1440x815",NA,NA,0,"Task Introduction and Instructions (re-introduce video and audio) (Clone) (Clone)",2,"HIGAFBECD","Failed AC2","Passed AC1","Spreadsheet1",1,"Task Instructions","Screen 13","q9vwda",6,"continue","",5487.29999995232,5475.8,5487.29999995232,5487.29999995232,5475.8,5487.29999995232,1,5487.29999995232,0,0,NA,"Click To Continue","Continue Button",2,"object-2989","Task Instructions",NA,"SUPPRF71225"
"8",1711459767937,"26/03/2024 13:29:27",1711459767937,0,"26/03/2024 13:29:27",172741,4,"task-kvtv",NA,36462706,10761950,NA,"complete",NA,"6602caaad4a7d0315c1ff519","computer","Desktop or Laptop","Mac OS 10.15.7","Chrome 122.0.0.0","1440x900","1440x815",NA,NA,0,"Task Introduction and Instructions (re-introduce video and audio) (Clone) (Clone)",2,"HIGAFBECD","Failed AC2","Passed AC1","Spreadsheet1",1,"Task Instructions","Screen 11","oyulb7",7,"continue","",6364.49999995231,6351,6364.49999995231,6364.49999995231,6351,6364.49999995231,1,6364.49999995231,0,0,NA,"Click To Continue","Continue Button",2,"object-52","Task Instructions",NA,"SUPPRF71225"
"9",1711459771148,"26/03/2024 13:29:31",1711459771148,0,"26/03/2024 13:29:31",172741,4,"task-kvtv",NA,36462706,10761950,NA,"complete",NA,"6602caaad4a7d0315c1ff519","computer","Desktop or Laptop","Mac OS 10.15.7","Chrome 122.0.0.0","1440x900","1440x815",NA,NA,0,"Task Introduction and Instructions (re-introduce video and audio) (Clone) (Clone)",2,"HIGAFBECD","Failed AC2","Passed AC1","Spreadsheet1",1,"Task Instructions","Screen 5","8nvnao",8,"continue","",3225.09999985695,3219.7,3225.09999985695,3225.09999985695,3219.7,3225.09999985695,1,3225.09999985695,0,0,NA,"Click To Continue","Continue Button",2,"object-44","Task Instructions",NA,"SUPPRF71225"
"10",1711459771157,"26/03/2024 13:29:31",1711459771157,0,"26/03/2024 13:29:31",172741,4,"task-kvtv",NA,36462706,10761950,NA,"complete",NA,"6602caaad4a7d0315c1ff519","computer","Desktop or Laptop","Mac OS 10.15.7","Chrome 122.0.0.0","1440x900","1440x815",NA,NA,0,"Task Introduction and Instructions (re-introduce video and audio) (Clone) (Clone)",2,"HIGAFBECD","Failed AC2","Passed AC1","Spreadsheet1",NA,"","","",NA,"5","END",NA,NA,NA,NA,NA,NA,0,NA,NA,NA,NA,"","",NA,"","",NA,"SUPPRF71225"
"1",1711491359697,"26/03/2024 22:15:59",1711491359697,0,"26/03/2024 22:15:59",172741,4,"task-kvtv",NA,36485680,10768992,NA,"complete",NA,"660346ec51abc7fef86aea9b","computer","Desktop or Laptop","Windows 10","Chrome 123.0.0.0","1366x768","1366x641",NA,NA,0,"Task Introduction and Instructions (re-introduce video and audio) (Clone) (Clone)",2,"BCADIEHFG","Passed AC2","","Spreadsheet1",NA,"","","",NA,"5","BEGIN",NA,NA,NA,NA,NA,NA,0,NA,NA,NA,NA,"","",NA,"","",NA,"SUPPRF36908"
"2",1711491364379,"26/03/2024 22:16:04",1711491364379,0,"26/03/2024 22:16:04",172741,4,"task-kvtv",NA,36485680,10768992,NA,"complete",NA,"660346ec51abc7fef86aea9b","computer","Desktop or Laptop","Windows 10","Chrome 123.0.0.0","1366x768","1366x641",NA,NA,0,"Task Introduction and Instructions (re-introduce video and audio) (Clone) (Clone)",2,"BCADIEHFG","Passed AC2","","Spreadsheet1",1,"Task Instructions","Screen 1","anr7sn",1,"continue","",4197.29999999926,4195.9,4197.29999999926,4197.29999999926,4195.9,4197.29999999926,1,4197.29999999926,0,0,NA,"Click To Continue","Continue Button",3,"object-60","Task Instructions",NA,"SUPPRF36908"
"3",1711491367197,"26/03/2024 22:16:07",1711491367197,0,"26/03/2024 22:16:07",172741,4,"task-kvtv",NA,36485680,10768992,NA,"complete",NA,"660346ec51abc7fef86aea9b","computer","Desktop or Laptop","Windows 10","Chrome 123.0.0.0","1366x768","1366x641",NA,NA,0,"Task Introduction and Instructions (re-introduce video and audio) (Clone) (Clone)",2,"BCADIEHFG","Passed AC2","","Spreadsheet1",1,"Task Instructions","Screen 4","spepx9",2,"continue","",2819.60000000037,2814,2819.60000000037,2819.60000000037,2814,2819.60000000037,1,2819.60000000037,0,0,NA,"Click To Continue","Continue Button",2,"object-9","Task Instructions",NA,"SUPPRF36908"
"4",1711491377789,"26/03/2024 22:16:17",1711491377789,0,"26/03/2024 22:16:17",172741,4,"task-kvtv",NA,36485680,10768992,NA,"complete",NA,"660346ec51abc7fef86aea9b","computer","Desktop or Laptop","Windows 10","Chrome 123.0.0.0","1366x768","1366x641",NA,NA,0,"Task Introduction and Instructions (re-introduce video and audio) (Clone) (Clone)",2,"BCADIEHFG","Passed AC2","","Spreadsheet1",1,"Task Instructions","Screen 2","ce2tc8",3,"continue","",10597.4999999989,10589.8,10597.4999999989,10597.4999999989,10589.8,10597.4999999989,1,10597.4999999989,0,0,NA,"Click To Continue","Continue Button",3,"object-59","Task Instructions",NA,"SUPPRF36908"
"5",1711491385594,"26/03/2024 22:16:25",1711491385594,0,"26/03/2024 22:16:25",172741,4,"task-kvtv",NA,36485680,10768992,NA,"complete",NA,"660346ec51abc7fef86aea9b","computer","Desktop or Laptop","Windows 10","Chrome 123.0.0.0","1366x768","1366x641",NA,NA,0,"Task Introduction and Instructions (re-introduce video and audio) (Clone) (Clone)",2,"BCADIEHFG","Passed AC2","","Spreadsheet1",1,"Task Instructions","Screen 3","1qtc8v",4,"continue","",7812.59999999926,7809,7812.59999999926,7812.59999999926,7809,7812.59999999926,1,7812.59999999926,0,0,NA,"Click To Continue","Continue Button",2,"object-2983","Task Instructions",NA,"SUPPRF36908"
"6",1711491392829,"26/03/2024 22:16:32",1711491392829,0,"26/03/2024 22:16:32",172741,4,"task-kvtv",NA,36485680,10768992,NA,"complete",NA,"660346ec51abc7fef86aea9b","computer","Desktop or Laptop","Windows 10","Chrome 123.0.0.0","1366x768","1366x641",NA,NA,0,"Task Introduction and Instructions (re-introduce video and audio) (Clone) (Clone)",2,"BCADIEHFG","Passed AC2","","Spreadsheet1",1,"Task Instructions","Screen 12","1a4vu2",5,"continue","",7238.80000000037,7226.2,7238.80000000037,7238.80000000037,7226.2,7238.80000000037,1,7238.80000000037,0,0,NA,"Click To Continue","Continue Button",2,"object-2466","Task Instructions",NA,"SUPPRF36908"
"7",1711491398051,"26/03/2024 22:16:38",1711491398051,0,"26/03/2024 22:16:38",172741,4,"task-kvtv",NA,36485680,10768992,NA,"complete",NA,"660346ec51abc7fef86aea9b","computer","Desktop or Laptop","Windows 10","Chrome 123.0.0.0","1366x768","1366x641",NA,NA,0,"Task Introduction and Instructions (re-introduce video and audio) (Clone) (Clone)",2,"BCADIEHFG","Passed AC2","","Spreadsheet1",1,"Task Instructions","Screen 13","q9vwda",6,"continue","",5233.99999999888,5228.3,5233.99999999888,5233.99999999888,5228.3,5233.99999999888,1,5233.99999999888,0,0,NA,"Click To Continue","Continue Button",2,"object-2989","Task Instructions",NA,"SUPPRF36908"
"8",1711491401087,"26/03/2024 22:16:41",1711491401087,0,"26/03/2024 22:16:41",172741,4,"task-kvtv",NA,36485680,10768992,NA,"complete",NA,"660346ec51abc7fef86aea9b","computer","Desktop or Laptop","Windows 10","Chrome 123.0.0.0","1366x768","1366x641",NA,NA,0,"Task Introduction and Instructions (re-introduce video and audio) (Clone) (Clone)",2,"BCADIEHFG","Passed AC2","","Spreadsheet1",1,"Task Instructions","Screen 11","oyulb7",7,"continue","",3041.80000000037,3030.3,3041.80000000037,3041.80000000037,3030.3,3041.80000000037,1,3041.80000000037,0,0,NA,"Click To Continue","Continue Button",2,"object-52","Task Instructions",NA,"SUPPRF36908"
"9",1711491403938,"26/03/2024 22:16:43",1711491403938,0,"26/03/2024 22:16:43",172741,4,"task-kvtv",NA,36485680,10768992,NA,"complete",NA,"660346ec51abc7fef86aea9b","computer","Desktop or Laptop","Windows 10","Chrome 123.0.0.0","1366x768","1366x641",NA,NA,0,"Task Introduction and Instructions (re-introduce video and audio) (Clone) (Clone)",2,"BCADIEHFG","Passed AC2","","Spreadsheet1",1,"Task Instructions","Screen 5","8nvnao",8,"continue","",2862.79999999925,2847.3,2862.79999999925,2862.79999999925,2847.3,2862.79999999925,1,2862.79999999925,0,0,NA,"Click To Continue","Continue Button",2,"object-44","Task Instructions",NA,"SUPPRF36908"
"10",1711491403941,"26/03/2024 22:16:43",1711491403941,0,"26/03/2024 22:16:43",172741,4,"task-kvtv",NA,36485680,10768992,NA,"complete",NA,"660346ec51abc7fef86aea9b","computer","Desktop or Laptop","Windows 10","Chrome 123.0.0.0","1366x768","1366x641",NA,NA,0,"Task Introduction and Instructions (re-introduce video and audio) (Clone) (Clone)",2,"BCADIEHFG","Passed AC2","","Spreadsheet1",NA,"","","",NA,"5","END",NA,NA,NA,NA,NA,NA,0,NA,NA,NA,NA,"","",NA,"","",NA,"SUPPRF36908"
"1",1711491631904,"26/03/2024 22:20:31",1711473631904,-5,"26/03/2024 12:20:31",172741,4,"task-kvtv",NA,36485776,10769022,NA,"complete",NA,"6603483a0fced9aa15df47c8","computer","Desktop or Laptop","Mac OS 10.15.7","Chrome 123.0.0.0","1440x900","1431x788",NA,NA,0,"Task Introduction and Instructions (re-introduce video and audio) (Clone) (Clone)",2,"CDBEAFIGH","Passed AC2","","Spreadsheet1",NA,"","","",NA,"5","BEGIN",NA,NA,NA,NA,NA,NA,0,NA,NA,NA,NA,"","",NA,"","",NA,"SUPPRF73842"
"2",1711491635145,"26/03/2024 22:20:35",1711473635145,-5,"26/03/2024 12:20:35",172741,4,"task-kvtv",NA,36485776,10769022,NA,"complete",NA,"6603483a0fced9aa15df47c8","computer","Desktop or Laptop","Mac OS 10.15.7","Chrome 123.0.0.0","1440x900","1431x788",NA,NA,0,"Task Introduction and Instructions (re-introduce video and audio) (Clone) (Clone)",2,"CDBEAFIGH","Passed AC2","","Spreadsheet1",1,"Task Instructions","Screen 1","anr7sn",1,"continue","",3131.49999998808,3116.4,3131.49999998808,3131.49999998808,3116.4,3131.49999998808,1,3131.49999998808,0,0,NA,"Click To Continue","Continue Button",3,"object-60","Task Instructions",NA,"SUPPRF73842"
"3",1711491638744,"26/03/2024 22:20:38",1711473638744,-5,"26/03/2024 12:20:38",172741,4,"task-kvtv",NA,36485776,10769022,NA,"complete",NA,"6603483a0fced9aa15df47c8","computer","Desktop or Laptop","Mac OS 10.15.7","Chrome 123.0.0.0","1440x900","1431x788",NA,NA,0,"Task Introduction and Instructions (re-introduce video and audio) (Clone) (Clone)",2,"CDBEAFIGH","Passed AC2","","Spreadsheet1",1,"Task Instructions","Screen 4","spepx9",2,"continue","",3614.20000001192,3600.4,3614.20000001192,3614.20000001192,3600.4,3614.20000001192,1,3614.20000001192,0,0,NA,"Click To Continue","Continue Button",2,"object-9","Task Instructions",NA,"SUPPRF73842"
"4",1711491649229,"26/03/2024 22:20:49",1711473649229,-5,"26/03/2024 12:20:49",172741,4,"task-kvtv",NA,36485776,10769022,NA,"complete",NA,"6603483a0fced9aa15df47c8","computer","Desktop or Laptop","Mac OS 10.15.7","Chrome 123.0.0.0","1440x900","1431x788",NA,NA,0,"Task Introduction and Instructions (re-introduce video and audio) (Clone) (Clone)",2,"CDBEAFIGH","Passed AC2","","Spreadsheet1",1,"Task Instructions","Screen 2","ce2tc8",3,"continue","",10499.3000000119,10483.6,10499.3000000119,10499.3000000119,10483.6,10499.3000000119,1,10499.3000000119,0,0,NA,"Click To Continue","Continue Button",3,"object-59","Task Instructions",NA,"SUPPRF73842"
"5",1711491656846,"26/03/2024 22:20:56",1711473656846,-5,"26/03/2024 12:20:56",172741,4,"task-kvtv",NA,36485776,10769022,NA,"complete",NA,"6603483a0fced9aa15df47c8","computer","Desktop or Laptop","Mac OS 10.15.7","Chrome 123.0.0.0","1440x900","1431x788",NA,NA,0,"Task Introduction and Instructions (re-introduce video and audio) (Clone) (Clone)",2,"CDBEAFIGH","Passed AC2","","Spreadsheet1",1,"Task Instructions","Screen 3","1qtc8v",4,"continue","",7632.00000002384,7616.8,7632.00000002384,7632.00000002384,7616.8,7632.00000002384,1,7632.00000002384,0,0,NA,"Click To Continue","Continue Button",2,"object-2983","Task Instructions",NA,"SUPPRF73842"
"6",1711491661096,"26/03/2024 22:21:01",1711473661096,-5,"26/03/2024 12:21:01",172741,4,"task-kvtv",NA,36485776,10769022,NA,"complete",NA,"6603483a0fced9aa15df47c8","computer","Desktop or Laptop","Mac OS 10.15.7","Chrome 123.0.0.0","1440x900","1431x788",NA,NA,0,"Task Introduction and Instructions (re-introduce video and audio) (Clone) (Clone)",2,"CDBEAFIGH","Passed AC2","","Spreadsheet1",1,"Task Instructions","Screen 12","1a4vu2",5,"continue","",4265.50000003576,4249.5,4265.50000003576,4265.50000003576,4249.5,4265.50000003576,1,4265.50000003576,0,0,NA,"Click To Continue","Continue Button",2,"object-2466","Task Instructions",NA,"SUPPRF73842"
"7",1711491665928,"26/03/2024 22:21:05",1711473665928,-5,"26/03/2024 12:21:05",172741,4,"task-kvtv",NA,36485776,10769022,NA,"complete",NA,"6603483a0fced9aa15df47c8","computer","Desktop or Laptop","Mac OS 10.15.7","Chrome 123.0.0.0","1440x900","1431x788",NA,NA,0,"Task Introduction and Instructions (re-introduce video and audio) (Clone) (Clone)",2,"CDBEAFIGH","Passed AC2","","Spreadsheet1",1,"Task Instructions","Screen 13","q9vwda",6,"continue","",4848.79999998808,4833.2,4848.79999998808,4848.79999998808,4833.2,4848.79999998808,1,4848.79999998808,0,0,NA,"Click To Continue","Continue Button",2,"object-2989","Task Instructions",NA,"SUPPRF73842"
"8",1711491669562,"26/03/2024 22:21:09",1711473669562,-5,"26/03/2024 12:21:09",172741,4,"task-kvtv",NA,36485776,10769022,NA,"complete",NA,"6603483a0fced9aa15df47c8","computer","Desktop or Laptop","Mac OS 10.15.7","Chrome 123.0.0.0","1440x900","1431x788",NA,NA,0,"Task Introduction and Instructions (re-introduce video and audio) (Clone) (Clone)",2,"CDBEAFIGH","Passed AC2","","Spreadsheet1",1,"Task Instructions","Screen 11","oyulb7",7,"continue","",3649.00000002384,3634.2,3649.00000002384,3649.00000002384,3634.2,3649.00000002384,1,3649.00000002384,0,0,NA,"Click To Continue","Continue Button",2,"object-52","Task Instructions",NA,"SUPPRF73842"
"9",1711491672295,"26/03/2024 22:21:12",1711473672295,-5,"26/03/2024 12:21:12",172741,4,"task-kvtv",NA,36485776,10769022,NA,"complete",NA,"6603483a0fced9aa15df47c8","computer","Desktop or Laptop","Mac OS 10.15.7","Chrome 123.0.0.0","1440x900","1431x788",NA,NA,0,"Task Introduction and Instructions (re-introduce video and audio) (Clone) (Clone)",2,"CDBEAFIGH","Passed AC2","","Spreadsheet1",1,"Task Instructions","Screen 5","8nvnao",8,"continue","",2747.89999998808,2733.39999999999,2747.89999998808,2747.89999998808,2733.39999999999,2747.89999998808,1,2747.89999998808,0,0,NA,"Click To Continue","Continue Button",2,"object-44","Task Instructions",NA,"SUPPRF73842"
"10",1711491672303,"26/03/2024 22:21:12",1711473672303,-5,"26/03/2024 12:21:12",172741,4,"task-kvtv",NA,36485776,10769022,NA,"complete",NA,"6603483a0fced9aa15df47c8","computer","Desktop or Laptop","Mac OS 10.15.7","Chrome 123.0.0.0","1440x900","1431x788",NA,NA,0,"Task Introduction and Instructions (re-introduce video and audio) (Clone) (Clone)",2,"CDBEAFIGH","Passed AC2","","Spreadsheet1",NA,"","","",NA,"5","END",NA,NA,NA,NA,NA,NA,0,NA,NA,NA,NA,"","",NA,"","",NA,"SUPPRF73842"
"1",1711492223619,"26/03/2024 22:30:23",1711492223619,0,"26/03/2024 22:30:23",172741,4,"task-kvtv",NA,36485940,10769060,NA,"complete",NA,"66034aa4176b5e7700bfbd43","computer","Desktop or Laptop","Mac OS 10.15.7","Chrome 123.0.0.0","1470x956","1470x799",NA,NA,0,"Task Introduction and Instructions (re-introduce video and audio) (Clone) (Clone)",2,"DECFBGAHI","Passed AC2","","Spreadsheet1",NA,"","","",NA,"5","BEGIN",NA,NA,NA,NA,NA,NA,0,NA,NA,NA,NA,"","",NA,"","",NA,"SUPPRF19080"
"2",1711492227009,"26/03/2024 22:30:27",1711492227009,0,"26/03/2024 22:30:27",172741,4,"task-kvtv",NA,36485940,10769060,NA,"complete",NA,"66034aa4176b5e7700bfbd43","computer","Desktop or Laptop","Mac OS 10.15.7","Chrome 123.0.0.0","1470x956","1470x799",NA,NA,0,"Task Introduction and Instructions (re-introduce video and audio) (Clone) (Clone)",2,"DECFBGAHI","Passed AC2","","Spreadsheet1",1,"Task Instructions","Screen 1","anr7sn",1,"continue","",3361.99999980927,3350,3361.99999980927,3361.99999980927,3350,3361.99999980927,1,3361.99999980927,0,0,NA,"Click To Continue","Continue Button",3,"object-60","Task Instructions",NA,"SUPPRF19080"
"3",1711492230672,"26/03/2024 22:30:30",1711492230672,0,"26/03/2024 22:30:30",172741,4,"task-kvtv",NA,36485940,10769060,NA,"complete",NA,"66034aa4176b5e7700bfbd43","computer","Desktop or Laptop","Mac OS 10.15.7","Chrome 123.0.0.0","1470x956","1470x799",NA,NA,0,"Task Introduction and Instructions (re-introduce video and audio) (Clone) (Clone)",2,"DECFBGAHI","Passed AC2","","Spreadsheet1",1,"Task Instructions","Screen 4","spepx9",2,"continue","",3675.3,3666.7,3675.3,3675.3,3666.7,3675.3,1,3675.3,0,0,NA,"Click To Continue","Continue Button",2,"object-9","Task Instructions",NA,"SUPPRF19080"
"4",1711492237283,"26/03/2024 22:30:37",1711492237283,0,"26/03/2024 22:30:37",172741,4,"task-kvtv",NA,36485940,10769060,NA,"complete",NA,"66034aa4176b5e7700bfbd43","computer","Desktop or Laptop","Mac OS 10.15.7","Chrome 123.0.0.0","1470x956","1470x799",NA,NA,0,"Task Introduction and Instructions (re-introduce video and audio) (Clone) (Clone)",2,"DECFBGAHI","Passed AC2","","Spreadsheet1",1,"Task Instructions","Screen 2","ce2tc8",3,"continue","",6618.99999985695,6616.6,6618.99999985695,6618.99999985695,6616.6,6618.99999985695,1,6618.99999985695,0,0,NA,"Click To Continue","Continue Button",3,"object-59","Task Instructions",NA,"SUPPRF19080"
"5",1711492246505,"26/03/2024 22:30:46",1711492246505,0,"26/03/2024 22:30:46",172741,4,"task-kvtv",NA,36485940,10769060,NA,"complete",NA,"66034aa4176b5e7700bfbd43","computer","Desktop or Laptop","Mac OS 10.15.7","Chrome 123.0.0.0","1470x956","1470x799",NA,NA,0,"Task Introduction and Instructions (re-introduce video and audio) (Clone) (Clone)",2,"DECFBGAHI","Passed AC2","","Spreadsheet1",1,"Task Instructions","Screen 3","1qtc8v",4,"continue","",9224.29999995232,9216.7,9224.29999995232,9224.29999995232,9216.7,9224.29999995232,1,9224.29999995232,0,0,NA,"Click To Continue","Continue Button",2,"object-2983","Task Instructions",NA,"SUPPRF19080"
"6",1711492274684,"26/03/2024 22:31:14",1711492274684,0,"26/03/2024 22:31:14",172741,4,"task-kvtv",NA,36485940,10769060,NA,"complete",NA,"66034aa4176b5e7700bfbd43","computer","Desktop or Laptop","Mac OS 10.15.7","Chrome 123.0.0.0","1470x956","1470x799",NA,NA,0,"Task Introduction and Instructions (re-introduce video and audio) (Clone) (Clone)",2,"DECFBGAHI","Passed AC2","","Spreadsheet1",1,"Task Instructions","Screen 12","1a4vu2",5,"continue","",28186.6999998569,28183,28186.6999998569,28186.6999998569,28183,28186.6999998569,1,28186.6999998569,0,0,NA,"Click To Continue","Continue Button",2,"object-2466","Task Instructions",NA,"SUPPRF19080"
"7",1711492279477,"26/03/2024 22:31:19",1711492279477,0,"26/03/2024 22:31:19",172741,4,"task-kvtv",NA,36485940,10769060,NA,"complete",NA,"66034aa4176b5e7700bfbd43","computer","Desktop or Laptop","Mac OS 10.15.7","Chrome 123.0.0.0","1470x956","1470x799",NA,NA,0,"Task Introduction and Instructions (re-introduce video and audio) (Clone) (Clone)",2,"DECFBGAHI","Passed AC2","","Spreadsheet1",1,"Task Instructions","Screen 13","q9vwda",6,"continue","",4797.09999995232,4783.3,4797.09999995232,4797.09999995232,4783.3,4797.09999995232,1,4797.09999995232,0,0,NA,"Click To Continue","Continue Button",2,"object-2989","Task Instructions",NA,"SUPPRF19080"
"8",1711492283534,"26/03/2024 22:31:23",1711492283534,0,"26/03/2024 22:31:23",172741,4,"task-kvtv",NA,36485940,10769060,NA,"complete",NA,"66034aa4176b5e7700bfbd43","computer","Desktop or Laptop","Mac OS 10.15.7","Chrome 123.0.0.0","1470x956","1470x799",NA,NA,0,"Task Introduction and Instructions (re-introduce video and audio) (Clone) (Clone)",2,"DECFBGAHI","Passed AC2","","Spreadsheet1",1,"Task Instructions","Screen 11","oyulb7",7,"continue","",4070.79999995232,4066.7,4070.79999995232,4070.79999995232,4066.7,4070.79999995232,1,4070.79999995232,0,0,NA,"Click To Continue","Continue Button",2,"object-52","Task Instructions",NA,"SUPPRF19080"
"9",1711492286662,"26/03/2024 22:31:26",1711492286662,0,"26/03/2024 22:31:26",172741,4,"task-kvtv",NA,36485940,10769060,NA,"complete",NA,"66034aa4176b5e7700bfbd43","computer","Desktop or Laptop","Mac OS 10.15.7","Chrome 123.0.0.0","1470x956","1470x799",NA,NA,0,"Task Introduction and Instructions (re-introduce video and audio) (Clone) (Clone)",2,"DECFBGAHI","Passed AC2","","Spreadsheet1",1,"Task Instructions","Screen 5","8nvnao",8,"continue","",3132.19999985695,3116.60000000001,3132.19999985695,3132.19999985695,3116.60000000001,3132.19999985695,1,3132.19999985695,0,0,NA,"Click To Continue","Continue Button",2,"object-44","Task Instructions",NA,"SUPPRF19080"
"10",1711492286667,"26/03/2024 22:31:26",1711492286667,0,"26/03/2024 22:31:26",172741,4,"task-kvtv",NA,36485940,10769060,NA,"complete",NA,"66034aa4176b5e7700bfbd43","computer","Desktop or Laptop","Mac OS 10.15.7","Chrome 123.0.0.0","1470x956","1470x799",NA,NA,0,"Task Introduction and Instructions (re-introduce video and audio) (Clone) (Clone)",2,"DECFBGAHI","Passed AC2","","Spreadsheet1",NA,"","","",NA,"5","END",NA,NA,NA,NA,NA,NA,0,NA,NA,NA,NA,"","",NA,"","",NA,"SUPPRF19080"
"1",1711501882819,"27/03/2024 01:11:22",1711483882819,-5,"26/03/2024 15:11:22",172741,4,"task-kvtv",NA,36487905,10769649,NA,"complete",NA,"66036ed4656160b776bfd2e6","computer","Desktop or Laptop","Mac OS 10.15.7","Chrome 123.0.0.0","1280x800","1280x579",NA,NA,0,"Task Introduction and Instructions (re-introduce video and audio) (Clone) (Clone)",2,"EFDGCHBIA","Passed AC2","","Spreadsheet1",NA,"","","",NA,"5","BEGIN",NA,NA,NA,NA,NA,NA,0,NA,NA,NA,NA,"","",NA,"","",NA,"SUPPRF82977"
"2",1711501886908,"27/03/2024 01:11:26",1711483886908,-5,"26/03/2024 15:11:26",172741,4,"task-kvtv",NA,36487905,10769649,NA,"complete",NA,"66036ed4656160b776bfd2e6","computer","Desktop or Laptop","Mac OS 10.15.7","Chrome 123.0.0.0","1280x800","1280x579",NA,NA,0,"Task Introduction and Instructions (re-introduce video and audio) (Clone) (Clone)",2,"EFDGCHBIA","Passed AC2","","Spreadsheet1",1,"Task Instructions","Screen 1","anr7sn",1,"continue","",3372.20000003576,3361.2,3372.20000003576,3372.20000003576,3361.2,3372.20000003576,1,3372.20000003576,0,0,NA,"Click To Continue","Continue Button",3,"object-60","Task Instructions",NA,"SUPPRF82977"
"3",1711501889402,"27/03/2024 01:11:29",1711483889402,-5,"26/03/2024 15:11:29",172741,4,"task-kvtv",NA,36487905,10769649,NA,"complete",NA,"66036ed4656160b776bfd2e6","computer","Desktop or Laptop","Mac OS 10.15.7","Chrome 123.0.0.0","1280x800","1280x579",NA,NA,0,"Task Introduction and Instructions (re-introduce video and audio) (Clone) (Clone)",2,"EFDGCHBIA","Passed AC2","","Spreadsheet1",1,"Task Instructions","Screen 4","spepx9",2,"continue","",2504.40000001192,2493.1,2504.40000001192,2504.40000001192,2493.1,2504.40000001192,1,2504.40000001192,0,0,NA,"Click To Continue","Continue Button",2,"object-9","Task Instructions",NA,"SUPPRF82977"
