"Event.Index","UTC.Timestamp","UTC.Date.and.Time","Local.Timestamp","Local.Timezone","Local.Date.and.Time","Experiment.ID","Experiment.Version","Tree.Node.Key","Repeat.Key","Schedule.ID","Participant.Private.ID","Participant.Starting.Group","Participant.Status","Participant.Completion.Code","Participant.External.Session.ID","Participant.Device.Type","Participant.Device","Participant.OS","Participant.Browser","Participant.Monitor.Size","Participant.Viewport.Size","Checkpoint","Room.ID","Room.Order","Task.Name","Task.Version","order.ot79","branch.g31k","branch.5gtn","counterbalance.af8t","Spreadsheet","Trial.Number","Display","Screen","Screen.ID","Screen.Counter","Response.Type","Response","Onset.Time","Clock.Time","Reaction.Time","Absolute.Onset.Time","Absolute.Clock.Time","Absolute.Reaction.Time","Correct","Response.Onset","Response.Duration","Proportion","Tag","Component.Name","Object.Name","Object.Number","Object.ID","Spreadsheet..display","Manipulation..Spreadsheet","Random_ID"
"1",1702488261976,"13/12/2023 17:24:21",1702488261976,0,"13/12/2023 17:24:21",157047,5,"task-gjqt",NA,33645520,9958209,NA,"complete",NA,"6579e646f74df15ba94f1587","computer","Desktop or Laptop","Mac OS 10.15.7","Chrome 119.0.0.0","1710x1107","1710x886",NA,NA,0,"BIQ (Charlotte)",3,"ABJCIDHEGF","Passed AC2","","Self_focused_attention_first","Spreadsheet1",NA,"","","",NA,"5","BEGIN",NA,NA,NA,NA,NA,NA,0,NA,NA,NA,NA,"","",NA,"","",NA,"SUPPRF51148"
"2",1702488290754,"13/12/2023 17:24:50",1702488290754,0,"13/12/2023 17:24:50",157047,5,"task-gjqt",NA,33645520,9958209,NA,"complete",NA,"6579e646f74df15ba94f1587","computer","Desktop or Laptop","Mac OS 10.15.7","Chrome 119.0.0.0","1710x1107","1710x886",NA,NA,0,"BIQ (Charlotte)",3,"ABJCIDHEGF","Passed AC2","","Self_focused_attention_first","Spreadsheet1",1,"BIQ","Screen 1","9dh6eq",1,"continue","",29841.736,29825.07,29841.736,29841.736,29825.07,29841.736,1,29841.736,0,0,NA,"Click To Continue","Continue Button",23,"object-48","BIQ",NA,"SUPPRF51148"
"3",1702488290755,"13/12/2023 17:24:50",1702488290755,0,"13/12/2023 17:24:50",157047,5,"task-gjqt",NA,33645520,9958209,NA,"complete",NA,"6579e646f74df15ba94f1587","computer","Desktop or Laptop","Mac OS 10.15.7","Chrome 119.0.0.0","1710x1107","1710x886",NA,NA,0,"BIQ (Charlotte)",3,"ABJCIDHEGF","Passed AC2","","Self_focused_attention_first","Spreadsheet1",1,"BIQ","Screen 1","9dh6eq",1,"response","4",11274.772,29825.07,29841.736,11274.772,29825.07,29841.736,1,11274.772,18566.964,0,NA,"Rating Scale","Rating Scale",3,"object-5","BIQ",NA,"SUPPRF51148"
"4",1702488290755,"13/12/2023 17:24:50",1702488290755,0,"13/12/2023 17:24:50",157047,5,"task-gjqt",NA,33645520,9958209,NA,"complete",NA,"6579e646f74df15ba94f1587","computer","Desktop or Laptop","Mac OS 10.15.7","Chrome 119.0.0.0","1710x1107","1710x886",NA,NA,0,"BIQ (Charlotte)",3,"ABJCIDHEGF","Passed AC2","","Self_focused_attention_first","Spreadsheet1",1,"BIQ","Screen 1","9dh6eq",1,"response","4",24191.466,29825.07,29841.736,24191.466,29825.07,29841.736,1,24191.466,5650.27,0,NA,"Rating Scale","Rating Scale",10,"object-18","BIQ",NA,"SUPPRF51148"
"5",1702488290756,"13/12/2023 17:24:50",1702488290756,0,"13/12/2023 17:24:50",157047,5,"task-gjqt",NA,33645520,9958209,NA,"complete",NA,"6579e646f74df15ba94f1587","computer","Desktop or Laptop","Mac OS 10.15.7","Chrome 119.0.0.0","1710x1107","1710x886",NA,NA,0,"BIQ (Charlotte)",3,"ABJCIDHEGF","Passed AC2","","Self_focused_attention_first","Spreadsheet1",1,"BIQ","Screen 1","9dh6eq",1,"response","5",28591.786,29825.07,29841.736,28591.786,29825.07,29841.736,1,28591.786,1249.95,0,NA,"Rating Scale","Rating Scale",17,"object-80","BIQ",NA,"SUPPRF51148"
"6",1702488317614,"13/12/2023 17:25:17",1702488317614,0,"13/12/2023 17:25:17",157047,5,"task-gjqt",NA,33645520,9958209,NA,"complete",NA,"6579e646f74df15ba94f1587","computer","Desktop or Laptop","Mac OS 10.15.7","Chrome 119.0.0.0","1710x1107","1710x886",NA,NA,0,"BIQ (Charlotte)",3,"ABJCIDHEGF","Passed AC2","","Self_focused_attention_first","Spreadsheet1",1,"BIQ","Screen 2","o21mwi",2,"continue","",26882.8299999762,26867.186,26882.8299999762,26882.8299999762,26867.186,26882.8299999762,1,26882.8299999762,0,0,NA,"Click To Continue","Continue Button",22,"object-50","BIQ",NA,"SUPPRF51148"
"7",1702488317616,"13/12/2023 17:25:17",1702488317616,0,"13/12/2023 17:25:17",157047,5,"task-gjqt",NA,33645520,9958209,NA,"complete",NA,"6579e646f74df15ba94f1587","computer","Desktop or Laptop","Mac OS 10.15.7","Chrome 119.0.0.0","1710x1107","1710x886",NA,NA,0,"BIQ (Charlotte)",3,"ABJCIDHEGF","Passed AC2","","Self_focused_attention_first","Spreadsheet1",1,"BIQ","Screen 2","o21mwi",2,"response","3",5933.657,26867.186,26883.852,5933.657,26867.186,26883.852,1,5933.657,20950.195,0,NA,"Rating Scale","Rating Scale",2,"object-259","BIQ",NA,"SUPPRF51148"
"8",1702488317617,"13/12/2023 17:25:17",1702488317617,0,"13/12/2023 17:25:17",157047,5,"task-gjqt",NA,33645520,9958209,NA,"complete",NA,"6579e646f74df15ba94f1587","computer","Desktop or Laptop","Mac OS 10.15.7","Chrome 119.0.0.0","1710x1107","1710x886",NA,NA,0,"BIQ (Charlotte)",3,"ABJCIDHEGF","Passed AC2","","Self_focused_attention_first","Spreadsheet1",1,"BIQ","Screen 2","o21mwi",2,"response","4",11300.109,26867.186,26883.852,11300.109,26867.186,26883.852,1,11300.109,15583.743,0,NA,"Rating Scale","Rating Scale",9,"object-36","BIQ",NA,"SUPPRF51148"
"9",1702488317617,"13/12/2023 17:25:17",1702488317617,0,"13/12/2023 17:25:17",157047,5,"task-gjqt",NA,33645520,9958209,NA,"complete",NA,"6579e646f74df15ba94f1587","computer","Desktop or Laptop","Mac OS 10.15.7","Chrome 119.0.0.0","1710x1107","1710x886",NA,NA,0,"BIQ (Charlotte)",3,"ABJCIDHEGF","Passed AC2","","Self_focused_attention_first","Spreadsheet1",1,"BIQ","Screen 2","o21mwi",2,"response","3",25967.222,26867.186,26883.852,25967.222,26867.186,26883.852,1,25967.222,916.630000000005,0,NA,"Rating Scale","Rating Scale",16,"object-86","BIQ",NA,"SUPPRF51148"
"10",1702488335407,"13/12/2023 17:25:35",1702488335407,0,"13/12/2023 17:25:35",157047,5,"task-gjqt",NA,33645520,9958209,NA,"complete",NA,"6579e646f74df15ba94f1587","computer","Desktop or Laptop","Mac OS 10.15.7","Chrome 119.0.0.0","1710x1107","1710x886",NA,NA,0,"BIQ (Charlotte)",3,"ABJCIDHEGF","Passed AC2","","Self_focused_attention_first","Spreadsheet1",1,"BIQ","Screen 3","iz3the",3,"continue","",17808.9439999881,17799.776,17808.9439999881,17808.9439999881,17799.776,17808.9439999881,1,17808.9439999881,0,0,NA,"Click To Continue","Continue Button",22,"object-73","BIQ",NA,"SUPPRF51148"
"11",1702488335409,"13/12/2023 17:25:35",1702488335409,0,"13/12/2023 17:25:35",157047,5,"task-gjqt",NA,33645520,9958209,NA,"complete",NA,"6579e646f74df15ba94f1587","computer","Desktop or Laptop","Mac OS 10.15.7","Chrome 119.0.0.0","1710x1107","1710x886",NA,NA,0,"BIQ (Charlotte)",3,"ABJCIDHEGF","Passed AC2","","Self_focused_attention_first","Spreadsheet1",1,"BIQ","Screen 3","iz3the",3,"response","0",5249.79,17799.776,17811.1439999762,5249.79,17799.776,17811.1439999762,1,5249.79,12561.3539999762,0,NA,"Rating Scale","Rating Scale",2,"object-53","BIQ",NA,"SUPPRF51148"
"12",1702488335410,"13/12/2023 17:25:35",1702488335410,0,"13/12/2023 17:25:35",157047,5,"task-gjqt",NA,33645520,9958209,NA,"complete",NA,"6579e646f74df15ba94f1587","computer","Desktop or Laptop","Mac OS 10.15.7","Chrome 119.0.0.0","1710x1107","1710x886",NA,NA,0,"BIQ (Charlotte)",3,"ABJCIDHEGF","Passed AC2","","Self_focused_attention_first","Spreadsheet1",1,"BIQ","Screen 3","iz3the",3,"response","3",12466.656,17799.776,17811.5439999523,12466.656,17799.776,17811.5439999523,1,12466.656,5344.88799995232,0,NA,"Rating Scale","Rating Scale",9,"object-60","BIQ",NA,"SUPPRF51148"
"13",1702488335410,"13/12/2023 17:25:35",1702488335410,0,"13/12/2023 17:25:35",157047,5,"task-gjqt",NA,33645520,9958209,NA,"complete",NA,"6579e646f74df15ba94f1587","computer","Desktop or Laptop","Mac OS 10.15.7","Chrome 119.0.0.0","1710x1107","1710x886",NA,NA,0,"BIQ (Charlotte)",3,"ABJCIDHEGF","Passed AC2","","Self_focused_attention_first","Spreadsheet1",1,"BIQ","Screen 3","iz3the",3,"response","2",17016.474,17799.776,17811.9439999881,17016.474,17799.776,17811.9439999881,1,17016.474,795.469999988083,0,NA,"Rating Scale","Rating Scale",16,"object-67","BIQ",NA,"SUPPRF51148"
"14",1702488335415,"13/12/2023 17:25:35",1702488335415,0,"13/12/2023 17:25:35",157047,5,"task-gjqt",NA,33645520,9958209,NA,"complete",NA,"6579e646f74df15ba94f1587","computer","Desktop or Laptop","Mac OS 10.15.7","Chrome 119.0.0.0","1710x1107","1710x886",NA,NA,0,"BIQ (Charlotte)",3,"ABJCIDHEGF","Passed AC2","","Self_focused_attention_first","Spreadsheet1",NA,"","","",NA,"5","END",NA,NA,NA,NA,NA,NA,0,NA,NA,NA,NA,"","",NA,"","",NA,"SUPPRF51148"
"1",1702488752780,"13/12/2023 17:32:32",1702488752780,0,"13/12/2023 17:32:32",157047,5,"task-gjqt",NA,33645841,9958278,NA,"complete",NA,"6579e7aa4b52396e491c9cc6","computer","Desktop or Laptop","Linux x86_64","Chrome 119.0.0.0","1205x753","1205x618",NA,NA,0,"BIQ (Charlotte)",3,"BCADJEIFHG","Passed AC2","","External_attention_first","Spreadsheet1",NA,"","","",NA,"5","BEGIN",NA,NA,NA,NA,NA,NA,0,NA,NA,NA,NA,"","",NA,"","",NA,"SUPPRF08809"
"2",1702488785355,"13/12/2023 17:33:05",1702488785355,0,"13/12/2023 17:33:05",157047,5,"task-gjqt",NA,33645841,9958278,NA,"complete",NA,"6579e7aa4b52396e491c9cc6","computer","Desktop or Laptop","Linux x86_64","Chrome 119.0.0.0","1205x753","1205x618",NA,NA,0,"BIQ (Charlotte)",3,"BCADJEIFHG","Passed AC2","","External_attention_first","Spreadsheet1",1,"BIQ","Screen 1","9dh6eq",1,"continue","",33760.29,33751.958,33760.29,33760.29,33751.958,33760.29,1,33760.29,0,0,NA,"Click To Continue","Continue Button",23,"object-48","BIQ",NA,"SUPPRF08809"
"3",1702488785361,"13/12/2023 17:33:05",1702488785361,0,"13/12/2023 17:33:05",157047,5,"task-gjqt",NA,33645841,9958278,NA,"complete",NA,"6579e7aa4b52396e491c9cc6","computer","Desktop or Laptop","Linux x86_64","Chrome 119.0.0.0","1205x753","1205x618",NA,NA,0,"BIQ (Charlotte)",3,"BCADJEIFHG","Passed AC2","","External_attention_first","Spreadsheet1",1,"BIQ","Screen 1","9dh6eq",1,"response","3",21702.488,33751.958,33760.29,21702.488,33751.958,33760.29,1,21702.488,12057.802,0,NA,"Rating Scale","Rating Scale",3,"object-5","BIQ",NA,"SUPPRF08809"
"4",1702488785362,"13/12/2023 17:33:05",1702488785362,0,"13/12/2023 17:33:05",157047,5,"task-gjqt",NA,33645841,9958278,NA,"complete",NA,"6579e7aa4b52396e491c9cc6","computer","Desktop or Laptop","Linux x86_64","Chrome 119.0.0.0","1205x753","1205x618",NA,NA,0,"BIQ (Charlotte)",3,"BCADJEIFHG","Passed AC2","","External_attention_first","Spreadsheet1",1,"BIQ","Screen 1","9dh6eq",1,"response","7",30218.681,33751.958,33760.29,30218.681,33751.958,33760.29,1,30218.681,3541.609,0,NA,"Rating Scale","Rating Scale",10,"object-18","BIQ",NA,"SUPPRF08809"
"5",1702488785362,"13/12/2023 17:33:05",1702488785362,0,"13/12/2023 17:33:05",157047,5,"task-gjqt",NA,33645841,9958278,NA,"complete",NA,"6579e7aa4b52396e491c9cc6","computer","Desktop or Laptop","Linux x86_64","Chrome 119.0.0.0","1205x753","1205x618",NA,NA,0,"BIQ (Charlotte)",3,"BCADJEIFHG","Passed AC2","","External_attention_first","Spreadsheet1",1,"BIQ","Screen 1","9dh6eq",1,"response","1",33301.837,33751.958,33760.29,33301.837,33751.958,33760.29,1,33301.837,458.453000000001,0,NA,"Rating Scale","Rating Scale",17,"object-80","BIQ",NA,"SUPPRF08809"
"6",1702488802330,"13/12/2023 17:33:22",1702488802330,0,"13/12/2023 17:33:22",157047,5,"task-gjqt",NA,33645841,9958278,NA,"complete",NA,"6579e7aa4b52396e491c9cc6","computer","Desktop or Laptop","Linux x86_64","Chrome 119.0.0.0","1205x753","1205x618",NA,NA,0,"BIQ (Charlotte)",3,"BCADJEIFHG","Passed AC2","","External_attention_first","Spreadsheet1",1,"BIQ","Screen 2","o21mwi",2,"continue","",16995.2419999881,16978.786,16995.2419999881,16995.2419999881,16978.786,16995.2419999881,1,16995.2419999881,0,0,NA,"Click To Continue","Continue Button",22,"object-50","BIQ",NA,"SUPPRF08809"
"7",1702488802341,"13/12/2023 17:33:22",1702488802341,0,"13/12/2023 17:33:22",157047,5,"task-gjqt",NA,33645841,9958278,NA,"complete",NA,"6579e7aa4b52396e491c9cc6","computer","Desktop or Laptop","Linux x86_64","Chrome 119.0.0.0","1205x753","1205x618",NA,NA,0,"BIQ (Charlotte)",3,"BCADJEIFHG","Passed AC2","","External_attention_first","Spreadsheet1",1,"BIQ","Screen 2","o21mwi",2,"response","8",3644.902,16978.786,16995.372,3644.902,16978.786,16995.372,1,3644.902,13350.47,0,NA,"Rating Scale","Rating Scale",2,"object-259","BIQ",NA,"SUPPRF08809"
"8",1702488802342,"13/12/2023 17:33:22",1702488802342,0,"13/12/2023 17:33:22",157047,5,"task-gjqt",NA,33645841,9958278,NA,"complete",NA,"6579e7aa4b52396e491c9cc6","computer","Desktop or Laptop","Linux x86_64","Chrome 119.0.0.0","1205x753","1205x618",NA,NA,0,"BIQ (Charlotte)",3,"BCADJEIFHG","Passed AC2","","External_attention_first","Spreadsheet1",1,"BIQ","Screen 2","o21mwi",2,"response","3",6866.308,16978.786,16995.372,6866.308,16978.786,16995.372,1,6866.308,10129.064,0,NA,"Rating Scale","Rating Scale",9,"object-36","BIQ",NA,"SUPPRF08809"
"9",1702488802347,"13/12/2023 17:33:22",1702488802347,0,"13/12/2023 17:33:22",157047,5,"task-gjqt",NA,33645841,9958278,NA,"complete",NA,"6579e7aa4b52396e491c9cc6","computer","Desktop or Laptop","Linux x86_64","Chrome 119.0.0.0","1205x753","1205x618",NA,NA,0,"BIQ (Charlotte)",3,"BCADJEIFHG","Passed AC2","","External_attention_first","Spreadsheet1",1,"BIQ","Screen 2","o21mwi",2,"response","3",10357.827,16978.786,16995.372,10357.827,16978.786,16995.372,1,10357.827,6637.54499999999,0,NA,"Rating Scale","Rating Scale",16,"object-86","BIQ",NA,"SUPPRF08809"
"10",1702488813633,"13/12/2023 17:33:33",1702488813633,0,"13/12/2023 17:33:33",157047,5,"task-gjqt",NA,33645841,9958278,NA,"complete",NA,"6579e7aa4b52396e491c9cc6","computer","Desktop or Laptop","Linux x86_64","Chrome 119.0.0.0","1205x753","1205x618",NA,NA,0,"BIQ (Charlotte)",3,"BCADJEIFHG","Passed AC2","","External_attention_first","Spreadsheet1",1,"BIQ","Screen 3","iz3the",3,"continue","",11311.617,11303.291,11311.617,11311.617,11303.291,11311.617,1,11311.617,0,0,NA,"Click To Continue","Continue Button",22,"object-73","BIQ",NA,"SUPPRF08809"
"11",1702488813641,"13/12/2023 17:33:33",1702488813641,0,"13/12/2023 17:33:33",157047,5,"task-gjqt",NA,33645841,9958278,NA,"complete",NA,"6579e7aa4b52396e491c9cc6","computer","Desktop or Laptop","Linux x86_64","Chrome 119.0.0.0","1205x753","1205x618",NA,NA,0,"BIQ (Charlotte)",3,"BCADJEIFHG","Passed AC2","","External_attention_first","Spreadsheet1",1,"BIQ","Screen 3","iz3the",3,"response","0",6019.452,11303.291,11311.617,6019.452,11303.291,11311.617,1,6019.452,5292.165,0,NA,"Rating Scale","Rating Scale",2,"object-53","BIQ",NA,"SUPPRF08809"
"12",1702488813642,"13/12/2023 17:33:33",1702488813642,0,"13/12/2023 17:33:33",157047,5,"task-gjqt",NA,33645841,9958278,NA,"complete",NA,"6579e7aa4b52396e491c9cc6","computer","Desktop or Laptop","Linux x86_64","Chrome 119.0.0.0","1205x753","1205x618",NA,NA,0,"BIQ (Charlotte)",3,"BCADJEIFHG","Passed AC2","","External_attention_first","Spreadsheet1",1,"BIQ","Screen 3","iz3the",3,"response","0",8695.156,11303.291,11311.617,8695.156,11303.291,11311.617,1,8695.156,2616.461,0,NA,"Rating Scale","Rating Scale",9,"object-60","BIQ",NA,"SUPPRF08809"
"13",1702488813643,"13/12/2023 17:33:33",1702488813643,0,"13/12/2023 17:33:33",157047,5,"task-gjqt",NA,33645841,9958278,NA,"complete",NA,"6579e7aa4b52396e491c9cc6","computer","Desktop or Laptop","Linux x86_64","Chrome 119.0.0.0","1205x753","1205x618",NA,NA,0,"BIQ (Charlotte)",3,"BCADJEIFHG","Passed AC2","","External_attention_first","Spreadsheet1",1,"BIQ","Screen 3","iz3the",3,"response","6",10828.425,11303.291,11311.617,10828.425,11303.291,11311.617,1,10828.425,483.192000000003,0,NA,"Rating Scale","Rating Scale",16,"object-67","BIQ",NA,"SUPPRF08809"
"14",1702488813650,"13/12/2023 17:33:33",1702488813650,0,"13/12/2023 17:33:33",157047,5,"task-gjqt",NA,33645841,9958278,NA,"complete",NA,"6579e7aa4b52396e491c9cc6","computer","Desktop or Laptop","Linux x86_64","Chrome 119.0.0.0","1205x753","1205x618",NA,NA,0,"BIQ (Charlotte)",3,"BCADJEIFHG","Passed AC2","","External_attention_first","Spreadsheet1",NA,"","","",NA,"5","END",NA,NA,NA,NA,NA,NA,0,NA,NA,NA,NA,"","",NA,"","",NA,"SUPPRF08809"
"1",1702489326113,"13/12/2023 17:42:06",1702489326113,0,"13/12/2023 17:42:06",157047,5,"task-gjqt",NA,33646120,9958307,NA,"complete",NA,"6579e89cc6dc7b0ff36ab9aa","computer","Desktop or Laptop","Mac OS 10.15.7","Chrome 120.0.0.0","1440x900","1440x813",NA,NA,0,"BIQ (Charlotte)",3,"DECFBGAHJI","Passed AC2","","Self_focused_attention_first","Spreadsheet1",NA,"","","",NA,"5","BEGIN",NA,NA,NA,NA,NA,NA,0,NA,NA,NA,NA,"","",NA,"","",NA,"SUPPRF66414"
"2",1702489354047,"13/12/2023 17:42:34",1702489354047,0,"13/12/2023 17:42:34",157047,5,"task-gjqt",NA,33646120,9958307,NA,"complete",NA,"6579e89cc6dc7b0ff36ab9aa","computer","Desktop or Laptop","Mac OS 10.15.7","Chrome 120.0.0.0","1440x900","1440x813",NA,NA,0,"BIQ (Charlotte)",3,"DECFBGAHJI","Passed AC2","","Self_focused_attention_first","Spreadsheet1",1,"BIQ","Screen 1","9dh6eq",1,"continue","",27945.8999999762,27934.6,27945.8999999762,27945.8999999762,27934.6,27945.8999999762,1,27945.8999999762,0,0,NA,"Click To Continue","Continue Button",23,"object-48","BIQ",NA,"SUPPRF66414"
"3",1702489354049,"13/12/2023 17:42:34",1702489354049,0,"13/12/2023 17:42:34",157047,5,"task-gjqt",NA,33646120,9958307,NA,"complete",NA,"6579e89cc6dc7b0ff36ab9aa","computer","Desktop or Laptop","Mac OS 10.15.7","Chrome 120.0.0.0","1440x900","1440x813",NA,NA,0,"BIQ (Charlotte)",3,"DECFBGAHJI","Passed AC2","","Self_focused_attention_first","Spreadsheet1",1,"BIQ","Screen 1","9dh6eq",1,"response","6",12149.9,27934.6,27949.3999999762,12149.9,27934.6,27949.3999999762,1,12149.9,15799.4999999762,0,NA,"Rating Scale","Rating Scale",3,"object-5","BIQ",NA,"SUPPRF66414"
"4",1702489354050,"13/12/2023 17:42:34",1702489354050,0,"13/12/2023 17:42:34",157047,5,"task-gjqt",NA,33646120,9958307,NA,"complete",NA,"6579e89cc6dc7b0ff36ab9aa","computer","Desktop or Laptop","Mac OS 10.15.7","Chrome 120.0.0.0","1440x900","1440x813",NA,NA,0,"BIQ (Charlotte)",3,"DECFBGAHJI","Passed AC2","","Self_focused_attention_first","Spreadsheet1",1,"BIQ","Screen 1","9dh6eq",1,"response","3",20534.2,27934.6,27949.7000000477,20534.2,27934.6,27949.7000000477,1,20534.2,7415.50000004768,0,NA,"Rating Scale","Rating Scale",10,"object-18","BIQ",NA,"SUPPRF66414"
"5",1702489354050,"13/12/2023 17:42:34",1702489354050,0,"13/12/2023 17:42:34",157047,5,"task-gjqt",NA,33646120,9958307,NA,"complete",NA,"6579e89cc6dc7b0ff36ab9aa","computer","Desktop or Laptop","Mac OS 10.15.7","Chrome 120.0.0.0","1440x900","1440x813",NA,NA,0,"BIQ (Charlotte)",3,"DECFBGAHJI","Passed AC2","","Self_focused_attention_first","Spreadsheet1",1,"BIQ","Screen 1","9dh6eq",1,"response","5",26000.6,27934.6,27949.8999999762,26000.6,27934.6,27949.8999999762,1,26000.6,1949.29999997616,0,NA,"Rating Scale","Rating Scale",17,"object-80","BIQ",NA,"SUPPRF66414"
"6",1702489390110,"13/12/2023 17:43:10",1702489390110,0,"13/12/2023 17:43:10",157047,5,"task-gjqt",NA,33646120,9958307,NA,"complete",NA,"6579e89cc6dc7b0ff36ab9aa","computer","Desktop or Laptop","Mac OS 10.15.7","Chrome 120.0.0.0","1440x900","1440x813",NA,NA,0,"BIQ (Charlotte)",3,"DECFBGAHJI","Passed AC2","","Self_focused_attention_first","Spreadsheet1",1,"BIQ","Screen 2","o21mwi",2,"continue","",36076.7000000715,36067.7,36076.7000000715,36076.7000000715,36067.7,36076.7000000715,1,36076.7000000715,0,0,NA,"Click To Continue","Continue Button",22,"object-50","BIQ",NA,"SUPPRF66414"
"7",1702489390114,"13/12/2023 17:43:10",1702489390114,0,"13/12/2023 17:43:10",157047,5,"task-gjqt",NA,33646120,9958307,NA,"complete",NA,"6579e89cc6dc7b0ff36ab9aa","computer","Desktop or Laptop","Mac OS 10.15.7","Chrome 120.0.0.0","1440x900","1440x813",NA,NA,0,"BIQ (Charlotte)",3,"DECFBGAHJI","Passed AC2","","Self_focused_attention_first","Spreadsheet1",1,"BIQ","Screen 2","o21mwi",2,"response","6",6066.5,36067.7,36080.9,6066.5,36067.7,36080.9,1,6066.5,30014.4,0,NA,"Rating Scale","Rating Scale",2,"object-259","BIQ",NA,"SUPPRF66414"
"8",1702489390114,"13/12/2023 17:43:10",1702489390114,0,"13/12/2023 17:43:10",157047,5,"task-gjqt",NA,33646120,9958307,NA,"complete",NA,"6579e89cc6dc7b0ff36ab9aa","computer","Desktop or Laptop","Mac OS 10.15.7","Chrome 120.0.0.0","1440x900","1440x813",NA,NA,0,"BIQ (Charlotte)",3,"DECFBGAHJI","Passed AC2","","Self_focused_attention_first","Spreadsheet1",1,"BIQ","Screen 2","o21mwi",2,"response","4",25567.3,36067.7,36081.5000000238,25567.3,36067.7,36081.5000000238,1,25567.3,10514.2000000238,0,NA,"Rating Scale","Rating Scale",9,"object-36","BIQ",NA,"SUPPRF66414"
"9",1702489390115,"13/12/2023 17:43:10",1702489390115,0,"13/12/2023 17:43:10",157047,5,"task-gjqt",NA,33646120,9958307,NA,"complete",NA,"6579e89cc6dc7b0ff36ab9aa","computer","Desktop or Laptop","Mac OS 10.15.7","Chrome 120.0.0.0","1440x900","1440x813",NA,NA,0,"BIQ (Charlotte)",3,"DECFBGAHJI","Passed AC2","","Self_focused_attention_first","Spreadsheet1",1,"BIQ","Screen 2","o21mwi",2,"response","0",35334.3,36067.7,36082.1000000477,35334.3,36067.7,36082.1000000477,1,35334.3,747.800000047682,0,NA,"Rating Scale","Rating Scale",16,"object-86","BIQ",NA,"SUPPRF66414"
"10",1702489403175,"13/12/2023 17:43:23",1702489403175,0,"13/12/2023 17:43:23",157047,5,"task-gjqt",NA,33646120,9958307,NA,"complete",NA,"6579e89cc6dc7b0ff36ab9aa","computer","Desktop or Laptop","Mac OS 10.15.7","Chrome 120.0.0.0","1440x900","1440x813",NA,NA,0,"BIQ (Charlotte)",3,"DECFBGAHJI","Passed AC2","","Self_focused_attention_first","Spreadsheet1",1,"BIQ","Screen 3","iz3the",3,"continue","",13074.5000000715,13066.9,13074.5000000715,13074.5000000715,13066.9,13074.5000000715,1,13074.5000000715,0,0,NA,"Click To Continue","Continue Button",22,"object-73","BIQ",NA,"SUPPRF66414"
"11",1702489403178,"13/12/2023 17:43:23",1702489403178,0,"13/12/2023 17:43:23",157047,5,"task-gjqt",NA,33646120,9958307,NA,"complete",NA,"6579e89cc6dc7b0ff36ab9aa","computer","Desktop or Laptop","Mac OS 10.15.7","Chrome 120.0.0.0","1440x900","1440x813",NA,NA,0,"BIQ (Charlotte)",3,"DECFBGAHJI","Passed AC2","","Self_focused_attention_first","Spreadsheet1",1,"BIQ","Screen 3","iz3the",3,"response","0",3867.3,13066.9,13078.2,3867.3,13066.9,13078.2,1,3867.3,9210.89999999999,0,NA,"Rating Scale","Rating Scale",2,"object-53","BIQ",NA,"SUPPRF66414"
"12",1702489403179,"13/12/2023 17:43:23",1702489403179,0,"13/12/2023 17:43:23",157047,5,"task-gjqt",NA,33646120,9958307,NA,"complete",NA,"6579e89cc6dc7b0ff36ab9aa","computer","Desktop or Laptop","Mac OS 10.15.7","Chrome 120.0.0.0","1440x900","1440x813",NA,NA,0,"BIQ (Charlotte)",3,"DECFBGAHJI","Passed AC2","","Self_focused_attention_first","Spreadsheet1",1,"BIQ","Screen 3","iz3the",3,"response","2",7450.5,13066.9,13078.8000000238,7450.5,13066.9,13078.8000000238,1,7450.5,5628.30000002384,0,NA,"Rating Scale","Rating Scale",9,"object-60","BIQ",NA,"SUPPRF66414"
"13",1702489403180,"13/12/2023 17:43:23",1702489403180,0,"13/12/2023 17:43:23",157047,5,"task-gjqt",NA,33646120,9958307,NA,"complete",NA,"6579e89cc6dc7b0ff36ab9aa","computer","Desktop or Laptop","Mac OS 10.15.7","Chrome 120.0.0.0","1440x900","1440x813",NA,NA,0,"BIQ (Charlotte)",3,"DECFBGAHJI","Passed AC2","","Self_focused_attention_first","Spreadsheet1",1,"BIQ","Screen 3","iz3the",3,"response","5",12283.6,13066.9,13079.5000000715,12283.6,13066.9,13079.5000000715,1,12283.6,795.900000071531,0,NA,"Rating Scale","Rating Scale",16,"object-67","BIQ",NA,"SUPPRF66414"
"14",1702489403185,"13/12/2023 17:43:23",1702489403185,0,"13/12/2023 17:43:23",157047,5,"task-gjqt",NA,33646120,9958307,NA,"complete",NA,"6579e89cc6dc7b0ff36ab9aa","computer","Desktop or Laptop","Mac OS 10.15.7","Chrome 120.0.0.0","1440x900","1440x813",NA,NA,0,"BIQ (Charlotte)",3,"DECFBGAHJI","Passed AC2","","Self_focused_attention_first","Spreadsheet1",NA,"","","",NA,"5","END",NA,NA,NA,NA,NA,NA,0,NA,NA,NA,NA,"","",NA,"","",NA,"SUPPRF66414"
"1",1702489074708,"13/12/2023 17:37:54",1702489074708,0,"13/12/2023 17:37:54",157047,5,"task-gjqt",NA,33646004,9958344,NA,"complete",NA,"6579ea92ae350e915f9413a3","computer","Desktop or Laptop","Chromium OS 14541.0.0","Chrome 118.0.0.0","1366x768","1366x644",NA,NA,0,"BIQ (Charlotte)",3,"CDBEAFJGIH","Passed AC2","","External_attention_first","Spreadsheet1",NA,"","","",NA,"5","BEGIN",NA,NA,NA,NA,NA,NA,0,NA,NA,NA,NA,"","",NA,"","",NA,"SUPPRF71393"
"2",1702489092663,"13/12/2023 17:38:12",1702489092663,0,"13/12/2023 17:38:12",157047,5,"task-gjqt",NA,33646004,9958344,NA,"complete",NA,"6579ea92ae350e915f9413a3","computer","Desktop or Laptop","Chromium OS 14541.0.0","Chrome 118.0.0.0","1366x768","1366x644",NA,NA,0,"BIQ (Charlotte)",3,"CDBEAFJGIH","Passed AC2","","External_attention_first","Spreadsheet1",1,"BIQ","Screen 1","9dh6eq",1,"continue","",17998.0360000715,17981.494,17998.0360000715,17998.0360000715,17981.494,17998.0360000715,1,17998.0360000715,0,0,NA,"Click To Continue","Continue Button",23,"object-48","BIQ",NA,"SUPPRF71393"
"3",1702489092671,"13/12/2023 17:38:12",1702489092671,0,"13/12/2023 17:38:12",157047,5,"task-gjqt",NA,33646004,9958344,NA,"complete",NA,"6579ea92ae350e915f9413a3","computer","Desktop or Laptop","Chromium OS 14541.0.0","Chrome 118.0.0.0","1366x768","1366x644",NA,NA,0,"BIQ (Charlotte)",3,"CDBEAFJGIH","Passed AC2","","External_attention_first","Spreadsheet1",1,"BIQ","Screen 1","9dh6eq",1,"response","3",8882.455,17981.494,17998.158,8882.455,17981.494,17998.158,1,8882.455,9115.703,0,NA,"Rating Scale","Rating Scale",3,"object-5","BIQ",NA,"SUPPRF71393"
"4",1702489092672,"13/12/2023 17:38:12",1702489092672,0,"13/12/2023 17:38:12",157047,5,"task-gjqt",NA,33646004,9958344,NA,"complete",NA,"6579ea92ae350e915f9413a3","computer","Desktop or Laptop","Chromium OS 14541.0.0","Chrome 118.0.0.0","1366x768","1366x644",NA,NA,0,"BIQ (Charlotte)",3,"CDBEAFJGIH","Passed AC2","","External_attention_first","Spreadsheet1",1,"BIQ","Screen 1","9dh6eq",1,"response","7",12732.015,17981.494,17998.158,12732.015,17981.494,17998.158,1,12732.015,5266.143,0,NA,"Rating Scale","Rating Scale",10,"object-18","BIQ",NA,"SUPPRF71393"
"5",1702489092673,"13/12/2023 17:38:12",1702489092673,0,"13/12/2023 17:38:12",157047,5,"task-gjqt",NA,33646004,9958344,NA,"complete",NA,"6579ea92ae350e915f9413a3","computer","Desktop or Laptop","Chromium OS 14541.0.0","Chrome 118.0.0.0","1366x768","1366x644",NA,NA,0,"BIQ (Charlotte)",3,"CDBEAFJGIH","Passed AC2","","External_attention_first","Spreadsheet1",1,"BIQ","Screen 1","9dh6eq",1,"response","0",16998.278,17981.494,17998.158,16998.278,17981.494,17998.158,1,16998.278,999.880000000001,0,NA,"Rating Scale","Rating Scale",17,"object-80","BIQ",NA,"SUPPRF71393"
"6",1702489103020,"13/12/2023 17:38:23",1702489103020,0,"13/12/2023 17:38:23",157047,5,"task-gjqt",NA,33646004,9958344,NA,"complete",NA,"6579ea92ae350e915f9413a3","computer","Desktop or Laptop","Chromium OS 14541.0.0","Chrome 118.0.0.0","1366x768","1366x644",NA,NA,0,"BIQ (Charlotte)",3,"CDBEAFJGIH","Passed AC2","","External_attention_first","Spreadsheet1",1,"BIQ","Screen 2","o21mwi",2,"continue","",10373.6420000954,10365.605,10373.6420000954,10373.6420000954,10365.605,10373.6420000954,1,10373.6420000954,0,0,NA,"Click To Continue","Continue Button",22,"object-50","BIQ",NA,"SUPPRF71393"
"7",1702489103028,"13/12/2023 17:38:23",1702489103028,0,"13/12/2023 17:38:23",157047,5,"task-gjqt",NA,33646004,9958344,NA,"complete",NA,"6579ea92ae350e915f9413a3","computer","Desktop or Laptop","Chromium OS 14541.0.0","Chrome 118.0.0.0","1366x768","1366x644",NA,NA,0,"BIQ (Charlotte)",3,"CDBEAFJGIH","Passed AC2","","External_attention_first","Spreadsheet1",1,"BIQ","Screen 2","o21mwi",2,"response","8",3766.253,10365.605,10380.6420000954,3766.253,10365.605,10380.6420000954,1,3766.253,6614.38900009537,0,NA,"Rating Scale","Rating Scale",2,"object-259","BIQ",NA,"SUPPRF71393"
"8",1702489103029,"13/12/2023 17:38:23",1702489103029,0,"13/12/2023 17:38:23",157047,5,"task-gjqt",NA,33646004,9958344,NA,"complete",NA,"6579ea92ae350e915f9413a3","computer","Desktop or Laptop","Chromium OS 14541.0.0","Chrome 118.0.0.0","1366x768","1366x644",NA,NA,0,"BIQ (Charlotte)",3,"CDBEAFJGIH","Passed AC2","","External_attention_first","Spreadsheet1",1,"BIQ","Screen 2","o21mwi",2,"response","0",7782.525,10365.605,10382.269,7782.525,10365.605,10382.269,1,7782.525,2599.744,0,NA,"Rating Scale","Rating Scale",9,"object-36","BIQ",NA,"SUPPRF71393"
"9",1702489103030,"13/12/2023 17:38:23",1702489103030,0,"13/12/2023 17:38:23",157047,5,"task-gjqt",NA,33646004,9958344,NA,"complete",NA,"6579ea92ae350e915f9413a3","computer","Desktop or Laptop","Chromium OS 14541.0.0","Chrome 118.0.0.0","1366x768","1366x644",NA,NA,0,"BIQ (Charlotte)",3,"CDBEAFJGIH","Passed AC2","","External_attention_first","Spreadsheet1",1,"BIQ","Screen 2","o21mwi",2,"response","0",9515.68,10365.605,10382.269,9515.68,10365.605,10382.269,1,9515.68,866.589000000004,0,NA,"Rating Scale","Rating Scale",16,"object-86","BIQ",NA,"SUPPRF71393"
"10",1702489109805,"13/12/2023 17:38:29",1702489109805,0,"13/12/2023 17:38:29",157047,5,"task-gjqt",NA,33646004,9958344,NA,"complete",NA,"6579ea92ae350e915f9413a3","computer","Desktop or Laptop","Chromium OS 14541.0.0","Chrome 118.0.0.0","1366x768","1366x644",NA,NA,0,"BIQ (Charlotte)",3,"CDBEAFJGIH","Passed AC2","","External_attention_first","Spreadsheet1",1,"BIQ","Screen 3","iz3the",3,"continue","",6793.637,6782.624,6793.637,6793.637,6782.624,6793.637,1,6793.637,0,0,NA,"Click To Continue","Continue Button",22,"object-73","BIQ",NA,"SUPPRF71393"
"11",1702489109806,"13/12/2023 17:38:29",1702489109806,0,"13/12/2023 17:38:29",157047,5,"task-gjqt",NA,33646004,9958344,NA,"complete",NA,"6579ea92ae350e915f9413a3","computer","Desktop or Laptop","Chromium OS 14541.0.0","Chrome 118.0.0.0","1366x768","1366x644",NA,NA,0,"BIQ (Charlotte)",3,"CDBEAFJGIH","Passed AC2","","External_attention_first","Spreadsheet1",1,"BIQ","Screen 3","iz3the",3,"response","0",2916.353,6782.624,6794.53700009537,2916.353,6782.624,6794.53700009537,1,2916.353,3878.18400009537,0,NA,"Rating Scale","Rating Scale",2,"object-53","BIQ",NA,"SUPPRF71393"
"12",1702489109807,"13/12/2023 17:38:29",1702489109807,0,"13/12/2023 17:38:29",157047,5,"task-gjqt",NA,33646004,9958344,NA,"complete",NA,"6579ea92ae350e915f9413a3","computer","Desktop or Laptop","Chromium OS 14541.0.0","Chrome 118.0.0.0","1366x768","1366x644",NA,NA,0,"BIQ (Charlotte)",3,"CDBEAFJGIH","Passed AC2","","External_attention_first","Spreadsheet1",1,"BIQ","Screen 3","iz3the",3,"response","0",4532.858,6782.624,6795.03700009537,4532.858,6782.624,6795.03700009537,1,4532.858,2262.17900009537,0,NA,"Rating Scale","Rating Scale",9,"object-60","BIQ",NA,"SUPPRF71393"
"13",1702489109807,"13/12/2023 17:38:29",1702489109807,0,"13/12/2023 17:38:29",157047,5,"task-gjqt",NA,33646004,9958344,NA,"complete",NA,"6579ea92ae350e915f9413a3","computer","Desktop or Laptop","Chromium OS 14541.0.0","Chrome 118.0.0.0","1366x768","1366x644",NA,NA,0,"BIQ (Charlotte)",3,"CDBEAFJGIH","Passed AC2","","External_attention_first","Spreadsheet1",1,"BIQ","Screen 3","iz3the",3,"response","0",5799.355,6782.624,6796.03700009537,5799.355,6782.624,6796.03700009537,1,5799.355,996.682000095367,0,NA,"Rating Scale","Rating Scale",16,"object-67","BIQ",NA,"SUPPRF71393"
"14",1702489109817,"13/12/2023 17:38:29",1702489109817,0,"13/12/2023 17:38:29",157047,5,"task-gjqt",NA,33646004,9958344,NA,"complete",NA,"6579ea92ae350e915f9413a3","computer","Desktop or Laptop","Chromium OS 14541.0.0","Chrome 118.0.0.0","1366x768","1366x644",NA,NA,0,"BIQ (Charlotte)",3,"CDBEAFJGIH","Passed AC2","","External_attention_first","Spreadsheet1",NA,"","","",NA,"5","END",NA,NA,NA,NA,NA,NA,0,NA,NA,NA,NA,"","",NA,"","",NA,"SUPPRF71393"
"1",1702489441686,"13/12/2023 17:44:01",1702489441686,0,"13/12/2023 17:44:01",157047,5,"task-gjqt",NA,33646175,9958387,NA,"complete",NA,"6579ecf0453e501981a47e1d","computer","Desktop or Laptop","Windows 10","Chrome 120.0.0.0","2560x1440","2560x1323",NA,NA,0,"BIQ (Charlotte)",3,"EFDGCHBIAJ","Passed AC2","","External_attention_first","Spreadsheet1",NA,"","","",NA,"5","BEGIN",NA,NA,NA,NA,NA,NA,0,NA,NA,NA,NA,"","",NA,"","",NA,"SUPPRF30141"
"2",1702489470391,"13/12/2023 17:44:30",1702489470391,0,"13/12/2023 17:44:30",157047,5,"task-gjqt",NA,33646175,9958387,NA,"complete",NA,"6579ecf0453e501981a47e1d","computer","Desktop or Laptop","Windows 10","Chrome 120.0.0.0","2560x1440","2560x1323",NA,NA,0,"BIQ (Charlotte)",3,"EFDGCHBIAJ","Passed AC2","","External_attention_first","Spreadsheet1",1,"BIQ","Screen 1","9dh6eq",1,"continue","",28713.0000000477,28708.5,28713.0000000477,28713.0000000477,28708.5,28713.0000000477,1,28713.0000000477,0,0,NA,"Click To Continue","Continue Button",23,"object-48","BIQ",NA,"SUPPRF30141"
"3",1702489470392,"13/12/2023 17:44:30",1702489470392,0,"13/12/2023 17:44:30",157047,5,"task-gjqt",NA,33646175,9958387,NA,"complete",NA,"6579ecf0453e501981a47e1d","computer","Desktop or Laptop","Windows 10","Chrome 120.0.0.0","2560x1440","2560x1323",NA,NA,0,"BIQ (Charlotte)",3,"EFDGCHBIAJ","Passed AC2","","External_attention_first","Spreadsheet1",1,"BIQ","Screen 1","9dh6eq",1,"response","2",12975.5,28708.5,28714.5,12975.5,28708.5,28714.5,1,12975.5,15739,0,NA,"Rating Scale","Rating Scale",3,"object-5","BIQ",NA,"SUPPRF30141"
"4",1702489470393,"13/12/2023 17:44:30",1702489470393,0,"13/12/2023 17:44:30",157047,5,"task-gjqt",NA,33646175,9958387,NA,"complete",NA,"6579ecf0453e501981a47e1d","computer","Desktop or Laptop","Windows 10","Chrome 120.0.0.0","2560x1440","2560x1323",NA,NA,0,"BIQ (Charlotte)",3,"EFDGCHBIAJ","Passed AC2","","External_attention_first","Spreadsheet1",1,"BIQ","Screen 1","9dh6eq",1,"response","7",20084.4,28708.5,28714.5,20084.4,28708.5,28714.5,1,20084.4,8630.1,0,NA,"Rating Scale","Rating Scale",10,"object-18","BIQ",NA,"SUPPRF30141"
"5",1702489470393,"13/12/2023 17:44:30",1702489470393,0,"13/12/2023 17:44:30",157047,5,"task-gjqt",NA,33646175,9958387,NA,"complete",NA,"6579ecf0453e501981a47e1d","computer","Desktop or Laptop","Windows 10","Chrome 120.0.0.0","2560x1440","2560x1323",NA,NA,0,"BIQ (Charlotte)",3,"EFDGCHBIAJ","Passed AC2","","External_attention_first","Spreadsheet1",1,"BIQ","Screen 1","9dh6eq",1,"response","1",24423.7,28708.5,28714.5,24423.7,28708.5,28714.5,1,24423.7,4290.8,0,NA,"Rating Scale","Rating Scale",17,"object-80","BIQ",NA,"SUPPRF30141"
"6",1702489486500,"13/12/2023 17:44:46",1702489486500,0,"13/12/2023 17:44:46",157047,5,"task-gjqt",NA,33646175,9958387,NA,"complete",NA,"6579ecf0453e501981a47e1d","computer","Desktop or Laptop","Windows 10","Chrome 120.0.0.0","2560x1440","2560x1323",NA,NA,0,"BIQ (Charlotte)",3,"EFDGCHBIAJ","Passed AC2","","External_attention_first","Spreadsheet1",1,"BIQ","Screen 2","o21mwi",2,"continue","",16114.0000000477,16108.8,16114.0000000477,16114.0000000477,16108.8,16114.0000000477,1,16114.0000000477,0,0,NA,"Click To Continue","Continue Button",22,"object-50","BIQ",NA,"SUPPRF30141"
"7",1702489486501,"13/12/2023 17:44:46",1702489486501,0,"13/12/2023 17:44:46",157047,5,"task-gjqt",NA,33646175,9958387,NA,"complete",NA,"6579ecf0453e501981a47e1d","computer","Desktop or Laptop","Windows 10","Chrome 120.0.0.0","2560x1440","2560x1323",NA,NA,0,"BIQ (Charlotte)",3,"EFDGCHBIAJ","Passed AC2","","External_attention_first","Spreadsheet1",1,"BIQ","Screen 2","o21mwi",2,"response","6",4527.1,16108.8,16114.8,4527.1,16108.8,16114.8,1,4527.1,11587.7,0,NA,"Rating Scale","Rating Scale",2,"object-259","BIQ",NA,"SUPPRF30141"
"8",1702489486502,"13/12/2023 17:44:46",1702489486502,0,"13/12/2023 17:44:46",157047,5,"task-gjqt",NA,33646175,9958387,NA,"complete",NA,"6579ecf0453e501981a47e1d","computer","Desktop or Laptop","Windows 10","Chrome 120.0.0.0","2560x1440","2560x1323",NA,NA,0,"BIQ (Charlotte)",3,"EFDGCHBIAJ","Passed AC2","","External_attention_first","Spreadsheet1",1,"BIQ","Screen 2","o21mwi",2,"response","1",10993.7,16108.8,16114.8,10993.7,16108.8,16114.8,1,10993.7,5121.1,0,NA,"Rating Scale","Rating Scale",9,"object-36","BIQ",NA,"SUPPRF30141"
"9",1702489486502,"13/12/2023 17:44:46",1702489486502,0,"13/12/2023 17:44:46",157047,5,"task-gjqt",NA,33646175,9958387,NA,"complete",NA,"6579ecf0453e501981a47e1d","computer","Desktop or Laptop","Windows 10","Chrome 120.0.0.0","2560x1440","2560x1323",NA,NA,0,"BIQ (Charlotte)",3,"EFDGCHBIAJ","Passed AC2","","External_attention_first","Spreadsheet1",1,"BIQ","Screen 2","o21mwi",2,"response","0",15272.4,16108.8,16114.8,15272.4,16108.8,16114.8,1,15272.4,842.400000000001,0,NA,"Rating Scale","Rating Scale",16,"object-86","BIQ",NA,"SUPPRF30141"
"10",1702489495376,"13/12/2023 17:44:55",1702489495376,0,"13/12/2023 17:44:55",157047,5,"task-gjqt",NA,33646175,9958387,NA,"complete",NA,"6579ecf0453e501981a47e1d","computer","Desktop or Laptop","Windows 10","Chrome 120.0.0.0","2560x1440","2560x1323",NA,NA,0,"BIQ (Charlotte)",3,"EFDGCHBIAJ","Passed AC2","","External_attention_first","Spreadsheet1",1,"BIQ","Screen 3","iz3the",3,"continue","",8881.29999995232,8878.6,8881.29999995232,8881.29999995232,8878.6,8881.29999995232,1,8881.29999995232,0,0,NA,"Click To Continue","Continue Button",22,"object-73","BIQ",NA,"SUPPRF30141"
"11",1702489495377,"13/12/2023 17:44:55",1702489495377,0,"13/12/2023 17:44:55",157047,5,"task-gjqt",NA,33646175,9958387,NA,"complete",NA,"6579ecf0453e501981a47e1d","computer","Desktop or Laptop","Windows 10","Chrome 120.0.0.0","2560x1440","2560x1323",NA,NA,0,"BIQ (Charlotte)",3,"EFDGCHBIAJ","Passed AC2","","External_attention_first","Spreadsheet1",1,"BIQ","Screen 3","iz3the",3,"response","0",4284.7,8878.6,8881.70000004768,4284.7,8878.6,8881.70000004768,1,4284.7,4597.00000004769,0,NA,"Rating Scale","Rating Scale",2,"object-53","BIQ",NA,"SUPPRF30141"
"12",1702489495377,"13/12/2023 17:44:55",1702489495377,0,"13/12/2023 17:44:55",157047,5,"task-gjqt",NA,33646175,9958387,NA,"complete",NA,"6579ecf0453e501981a47e1d","computer","Desktop or Laptop","Windows 10","Chrome 120.0.0.0","2560x1440","2560x1323",NA,NA,0,"BIQ (Charlotte)",3,"EFDGCHBIAJ","Passed AC2","","External_attention_first","Spreadsheet1",1,"BIQ","Screen 3","iz3the",3,"response","1",6490.7,8878.6,8881.90000009537,6490.7,8878.6,8881.90000009537,1,6490.7,2391.20000009537,0,NA,"Rating Scale","Rating Scale",9,"object-60","BIQ",NA,"SUPPRF30141"
"13",1702489495377,"13/12/2023 17:44:55",1702489495377,0,"13/12/2023 17:44:55",157047,5,"task-gjqt",NA,33646175,9958387,NA,"complete",NA,"6579ecf0453e501981a47e1d","computer","Desktop or Laptop","Windows 10","Chrome 120.0.0.0","2560x1440","2560x1323",NA,NA,0,"BIQ (Charlotte)",3,"EFDGCHBIAJ","Passed AC2","","External_attention_first","Spreadsheet1",1,"BIQ","Screen 3","iz3the",3,"response","2",7581.6,8878.6,8882.20000004768,7581.6,8878.6,8882.20000004768,1,7581.6,1300.60000004769,0,NA,"Rating Scale","Rating Scale",16,"object-67","BIQ",NA,"SUPPRF30141"
"14",1702489495380,"13/12/2023 17:44:55",1702489495380,0,"13/12/2023 17:44:55",157047,5,"task-gjqt",NA,33646175,9958387,NA,"complete",NA,"6579ecf0453e501981a47e1d","computer","Desktop or Laptop","Windows 10","Chrome 120.0.0.0","2560x1440","2560x1323",NA,NA,0,"BIQ (Charlotte)",3,"EFDGCHBIAJ","Passed AC2","","External_attention_first","Spreadsheet1",NA,"","","",NA,"5","END",NA,NA,NA,NA,NA,NA,0,NA,NA,NA,NA,"","",NA,"","",NA,"SUPPRF30141"
"1",1702489671619,"13/12/2023 17:47:51",1702489671619,0,"13/12/2023 17:47:51",157047,5,"task-gjqt",NA,33646275,9958403,NA,"complete",NA,"6579ede741c407c8885ec577","computer","Desktop or Laptop","Windows 10","Chrome 120.0.0.0","1280x720","1280x551",NA,NA,0,"BIQ (Charlotte)",3,"FGEHDICJBA","Passed AC2","","Self_focused_attention_first","Spreadsheet1",NA,"","","",NA,"5","BEGIN",NA,NA,NA,NA,NA,NA,0,NA,NA,NA,NA,"","",NA,"","",NA,"SUPPRF78779"
"2",1702489709553,"13/12/2023 17:48:29",1702489709553,0,"13/12/2023 17:48:29",157047,5,"task-gjqt",NA,33646275,9958403,NA,"complete",NA,"6579ede741c407c8885ec577","computer","Desktop or Laptop","Windows 10","Chrome 120.0.0.0","1280x720","1280x720",NA,NA,0,"BIQ (Charlotte)",3,"FGEHDICJBA","Passed AC2","","Self_focused_attention_first","Spreadsheet1",1,"BIQ","Screen 1","9dh6eq",1,"continue","",37952.8000000238,37944.7,37952.8000000238,37952.8000000238,37944.7,37952.8000000238,1,37952.8000000238,0,0,NA,"Click To Continue","Continue Button",23,"object-48","BIQ",NA,"SUPPRF78779"
"3",1702489709556,"13/12/2023 17:48:29",1702489709556,0,"13/12/2023 17:48:29",157047,5,"task-gjqt",NA,33646275,9958403,NA,"complete",NA,"6579ede741c407c8885ec577","computer","Desktop or Laptop","Windows 10","Chrome 120.0.0.0","1280x720","1280x720",NA,NA,0,"BIQ (Charlotte)",3,"FGEHDICJBA","Passed AC2","","Self_focused_attention_first","Spreadsheet1",1,"BIQ","Screen 1","9dh6eq",1,"response","6",16914,37944.7,37955.8000000238,16914,37944.7,37955.8000000238,1,16914,21041.8000000238,0,NA,"Rating Scale","Rating Scale",3,"object-5","BIQ",NA,"SUPPRF78779"
"4",1702489709556,"13/12/2023 17:48:29",1702489709556,0,"13/12/2023 17:48:29",157047,5,"task-gjqt",NA,33646275,9958403,NA,"complete",NA,"6579ede741c407c8885ec577","computer","Desktop or Laptop","Windows 10","Chrome 120.0.0.0","1280x720","1280x720",NA,NA,0,"BIQ (Charlotte)",3,"FGEHDICJBA","Passed AC2","","Self_focused_attention_first","Spreadsheet1",1,"BIQ","Screen 1","9dh6eq",1,"response","4",22580.2,37944.7,37956.2,22580.2,37944.7,37956.2,1,22580.2,15376,0,NA,"Rating Scale","Rating Scale",10,"object-18","BIQ",NA,"SUPPRF78779"
"5",1702489709556,"13/12/2023 17:48:29",1702489709556,0,"13/12/2023 17:48:29",157047,5,"task-gjqt",NA,33646275,9958403,NA,"complete",NA,"6579ede741c407c8885ec577","computer","Desktop or Laptop","Windows 10","Chrome 120.0.0.0","1280x720","1280x720",NA,NA,0,"BIQ (Charlotte)",3,"FGEHDICJBA","Passed AC2","","Self_focused_attention_first","Spreadsheet1",1,"BIQ","Screen 1","9dh6eq",1,"response","3",25812.9,37944.7,37956.4000000477,25812.9,37944.7,37956.4000000477,1,25812.9,12143.5000000477,0,NA,"Rating Scale","Rating Scale",17,"object-80","BIQ",NA,"SUPPRF78779"
"6",1702489727669,"13/12/2023 17:48:47",1702489727669,0,"13/12/2023 17:48:47",157047,5,"task-gjqt",NA,33646275,9958403,NA,"complete",NA,"6579ede741c407c8885ec577","computer","Desktop or Laptop","Windows 10","Chrome 120.0.0.0","1280x720","1280x720",NA,NA,0,"BIQ (Charlotte)",3,"FGEHDICJBA","Passed AC2","","Self_focused_attention_first","Spreadsheet1",1,"BIQ","Screen 2","o21mwi",2,"continue","",18124,18114.3,18124,18124,18114.3,18124,1,18124,0,0,NA,"Click To Continue","Continue Button",22,"object-50","BIQ",NA,"SUPPRF78779"
"7",1702489727673,"13/12/2023 17:48:47",1702489727673,0,"13/12/2023 17:48:47",157047,5,"task-gjqt",NA,33646275,9958403,NA,"complete",NA,"6579ede741c407c8885ec577","computer","Desktop or Laptop","Windows 10","Chrome 120.0.0.0","1280x720","1280x720",NA,NA,0,"BIQ (Charlotte)",3,"FGEHDICJBA","Passed AC2","","Self_focused_attention_first","Spreadsheet1",1,"BIQ","Screen 2","o21mwi",2,"response","7",6382.4,18114.3,18128.3999999762,6382.4,18114.3,18128.3999999762,1,6382.4,11745.9999999762,0,NA,"Rating Scale","Rating Scale",2,"object-259","BIQ",NA,"SUPPRF78779"
"8",1702489727674,"13/12/2023 17:48:47",1702489727674,0,"13/12/2023 17:48:47",157047,5,"task-gjqt",NA,33646275,9958403,NA,"complete",NA,"6579ede741c407c8885ec577","computer","Desktop or Laptop","Windows 10","Chrome 120.0.0.0","1280x720","1280x720",NA,NA,0,"BIQ (Charlotte)",3,"FGEHDICJBA","Passed AC2","","Self_focused_attention_first","Spreadsheet1",1,"BIQ","Screen 2","o21mwi",2,"response","4",10115.3,18114.3,18129.3999999762,10115.3,18114.3,18129.3999999762,1,10115.3,8014.09999997616,0,NA,"Rating Scale","Rating Scale",9,"object-36","BIQ",NA,"SUPPRF78779"
"9",1702489727675,"13/12/2023 17:48:47",1702489727675,0,"13/12/2023 17:48:47",157047,5,"task-gjqt",NA,33646275,9958403,NA,"complete",NA,"6579ede741c407c8885ec577","computer","Desktop or Laptop","Windows 10","Chrome 120.0.0.0","1280x720","1280x720",NA,NA,0,"BIQ (Charlotte)",3,"FGEHDICJBA","Passed AC2","","Self_focused_attention_first","Spreadsheet1",1,"BIQ","Screen 2","o21mwi",2,"response","3",15748,18114.3,18130,15748,18114.3,18130,1,15748,2382,0,NA,"Rating Scale","Rating Scale",16,"object-86","BIQ",NA,"SUPPRF78779"
"10",1702489744058,"13/12/2023 17:49:04",1702489744058,0,"13/12/2023 17:49:04",157047,5,"task-gjqt",NA,33646275,9958403,NA,"complete",NA,"6579ede741c407c8885ec577","computer","Desktop or Laptop","Windows 10","Chrome 120.0.0.0","1280x720","1280x720",NA,NA,0,"BIQ (Charlotte)",3,"FGEHDICJBA","Passed AC2","","Self_focused_attention_first","Spreadsheet1",1,"BIQ","Screen 3","iz3the",3,"continue","",16397.9,16381.3,16397.9,16397.9,16381.3,16397.9,1,16397.9,0,0,NA,"Click To Continue","Continue Button",22,"object-73","BIQ",NA,"SUPPRF78779"
"11",1702489744063,"13/12/2023 17:49:04",1702489744063,0,"13/12/2023 17:49:04",157047,5,"task-gjqt",NA,33646275,9958403,NA,"complete",NA,"6579ede741c407c8885ec577","computer","Desktop or Laptop","Windows 10","Chrome 120.0.0.0","1280x720","1280x720",NA,NA,0,"BIQ (Charlotte)",3,"FGEHDICJBA","Passed AC2","","Self_focused_attention_first","Spreadsheet1",1,"BIQ","Screen 3","iz3the",3,"response","1",3499.7,16381.3,16397.9,3499.7,16381.3,16397.9,1,3499.7,12898.2,0,NA,"Rating Scale","Rating Scale",2,"object-53","BIQ",NA,"SUPPRF78779"
"12",1702489744064,"13/12/2023 17:49:04",1702489744064,0,"13/12/2023 17:49:04",157047,5,"task-gjqt",NA,33646275,9958403,NA,"complete",NA,"6579ede741c407c8885ec577","computer","Desktop or Laptop","Windows 10","Chrome 120.0.0.0","1280x720","1280x720",NA,NA,0,"BIQ (Charlotte)",3,"FGEHDICJBA","Passed AC2","","Self_focused_attention_first","Spreadsheet1",1,"BIQ","Screen 3","iz3the",3,"response","1",8499.1,16381.3,16397.9,8499.1,16381.3,16397.9,1,8499.1,7898.80000000001,0,NA,"Rating Scale","Rating Scale",9,"object-60","BIQ",NA,"SUPPRF78779"
"13",1702489744065,"13/12/2023 17:49:04",1702489744065,0,"13/12/2023 17:49:04",157047,5,"task-gjqt",NA,33646275,9958403,NA,"complete",NA,"6579ede741c407c8885ec577","computer","Desktop or Laptop","Windows 10","Chrome 120.0.0.0","1280x720","1280x720",NA,NA,0,"BIQ (Charlotte)",3,"FGEHDICJBA","Passed AC2","","Self_focused_attention_first","Spreadsheet1",1,"BIQ","Screen 3","iz3the",3,"response","3",14114.9,16381.3,16397.9,14114.9,16381.3,16397.9,1,14114.9,2283.00000000001,0,NA,"Rating Scale","Rating Scale",16,"object-67","BIQ",NA,"SUPPRF78779"
"14",1702489744070,"13/12/2023 17:49:04",1702489744070,0,"13/12/2023 17:49:04",157047,5,"task-gjqt",NA,33646275,9958403,NA,"complete",NA,"6579ede741c407c8885ec577","computer","Desktop or Laptop","Windows 10","Chrome 120.0.0.0","1280x720","1280x720",NA,NA,0,"BIQ (Charlotte)",3,"FGEHDICJBA","Passed AC2","","Self_focused_attention_first","Spreadsheet1",NA,"","","",NA,"5","END",NA,NA,NA,NA,NA,NA,0,NA,NA,NA,NA,"","",NA,"","",NA,"SUPPRF78779"
"1",1702490558573,"13/12/2023 18:02:38",1702490558573,0,"13/12/2023 18:02:38",157047,5,"task-gjqt",NA,33646636,9958457,NA,"complete",NA,"6579f1191916bca7b797b451","computer","Desktop or Laptop","Mac OS 10.15.7","Chrome 120.0.0.0","1440x900","1440x815",NA,NA,0,"BIQ (Charlotte)",3,"GHFIEJDACB","Passed AC2","","External_attention_first","Spreadsheet1",NA,"","","",NA,"5","BEGIN",NA,NA,NA,NA,NA,NA,0,NA,NA,NA,NA,"","",NA,"","",NA,"SUPPRF37742"
"2",1702490589177,"13/12/2023 18:03:09",1702490589177,0,"13/12/2023 18:03:09",157047,5,"task-gjqt",NA,33646636,9958457,NA,"complete",NA,"6579f1191916bca7b797b451","computer","Desktop or Laptop","Mac OS 10.15.7","Chrome 120.0.0.0","1440x900","1440x815",NA,NA,0,"BIQ (Charlotte)",3,"GHFIEJDACB","Passed AC2","","External_attention_first","Spreadsheet1",1,"BIQ","Screen 1","9dh6eq",1,"continue","",30616.5,30599.8,30616.5,30616.5,30599.8,30616.5,1,30616.5,0,0,NA,"Click To Continue","Continue Button",23,"object-48","BIQ",NA,"SUPPRF37742"
"3",1702490589180,"13/12/2023 18:03:09",1702490589180,0,"13/12/2023 18:03:09",157047,5,"task-gjqt",NA,33646636,9958457,NA,"complete",NA,"6579f1191916bca7b797b451","computer","Desktop or Laptop","Mac OS 10.15.7","Chrome 120.0.0.0","1440x900","1440x815",NA,NA,0,"BIQ (Charlotte)",3,"GHFIEJDACB","Passed AC2","","External_attention_first","Spreadsheet1",1,"BIQ","Screen 1","9dh6eq",1,"response","6",11516.6,30599.8,30616.5,11516.6,30599.8,30616.5,1,11516.6,19099.9,0,NA,"Rating Scale","Rating Scale",3,"object-5","BIQ",NA,"SUPPRF37742"
"4",1702490589180,"13/12/2023 18:03:09",1702490589180,0,"13/12/2023 18:03:09",157047,5,"task-gjqt",NA,33646636,9958457,NA,"complete",NA,"6579f1191916bca7b797b451","computer","Desktop or Laptop","Mac OS 10.15.7","Chrome 120.0.0.0","1440x900","1440x815",NA,NA,0,"BIQ (Charlotte)",3,"GHFIEJDACB","Passed AC2","","External_attention_first","Spreadsheet1",1,"BIQ","Screen 1","9dh6eq",1,"response","4",17833.3,30599.8,30616.5,17833.3,30599.8,30616.5,1,17833.3,12783.2,0,NA,"Rating Scale","Rating Scale",10,"object-18","BIQ",NA,"SUPPRF37742"
"5",1702490589181,"13/12/2023 18:03:09",1702490589181,0,"13/12/2023 18:03:09",157047,5,"task-gjqt",NA,33646636,9958457,NA,"complete",NA,"6579f1191916bca7b797b451","computer","Desktop or Laptop","Mac OS 10.15.7","Chrome 120.0.0.0","1440x900","1440x815",NA,NA,0,"BIQ (Charlotte)",3,"GHFIEJDACB","Passed AC2","","External_attention_first","Spreadsheet1",1,"BIQ","Screen 1","9dh6eq",1,"response","1",27066.6,30599.8,30616.5,27066.6,30599.8,30616.5,1,27066.6,3549.9,0,NA,"Rating Scale","Rating Scale",17,"object-80","BIQ",NA,"SUPPRF37742"
"6",1702490604043,"13/12/2023 18:03:24",1702490604043,0,"13/12/2023 18:03:24",157047,5,"task-gjqt",NA,33646636,9958457,NA,"complete",NA,"6579f1191916bca7b797b451","computer","Desktop or Laptop","Mac OS 10.15.7","Chrome 120.0.0.0","1440x900","1440x815",NA,NA,0,"BIQ (Charlotte)",3,"GHFIEJDACB","Passed AC2","","External_attention_first","Spreadsheet1",1,"BIQ","Screen 2","o21mwi",2,"continue","",14883,14866.4,14883,14883,14866.4,14883,1,14883,0,0,NA,"Click To Continue","Continue Button",22,"object-50","BIQ",NA,"SUPPRF37742"
"7",1702490604047,"13/12/2023 18:03:24",1702490604047,0,"13/12/2023 18:03:24",157047,5,"task-gjqt",NA,33646636,9958457,NA,"complete",NA,"6579f1191916bca7b797b451","computer","Desktop or Laptop","Mac OS 10.15.7","Chrome 120.0.0.0","1440x900","1440x815",NA,NA,0,"BIQ (Charlotte)",3,"GHFIEJDACB","Passed AC2","","External_attention_first","Spreadsheet1",1,"BIQ","Screen 2","o21mwi",2,"response","7",3966.6,14866.4,14883,3966.6,14866.4,14883,1,3966.6,10916.4,0,NA,"Rating Scale","Rating Scale",2,"object-259","BIQ",NA,"SUPPRF37742"
"8",1702490604048,"13/12/2023 18:03:24",1702490604048,0,"13/12/2023 18:03:24",157047,5,"task-gjqt",NA,33646636,9958457,NA,"complete",NA,"6579f1191916bca7b797b451","computer","Desktop or Laptop","Mac OS 10.15.7","Chrome 120.0.0.0","1440x900","1440x815",NA,NA,0,"BIQ (Charlotte)",3,"GHFIEJDACB","Passed AC2","","External_attention_first","Spreadsheet1",1,"BIQ","Screen 2","o21mwi",2,"response","2",8833.4,14866.4,14883,8833.4,14866.4,14883,1,8833.4,6049.6,0,NA,"Rating Scale","Rating Scale",9,"object-36","BIQ",NA,"SUPPRF37742"
"9",1702490604049,"13/12/2023 18:03:24",1702490604049,0,"13/12/2023 18:03:24",157047,5,"task-gjqt",NA,33646636,9958457,NA,"complete",NA,"6579f1191916bca7b797b451","computer","Desktop or Laptop","Mac OS 10.15.7","Chrome 120.0.0.0","1440x900","1440x815",NA,NA,0,"BIQ (Charlotte)",3,"GHFIEJDACB","Passed AC2","","External_attention_first","Spreadsheet1",1,"BIQ","Screen 2","o21mwi",2,"response","0",12566.6,14866.4,14883,12566.6,14866.4,14883,1,12566.6,2316.39999999999,0,NA,"Rating Scale","Rating Scale",16,"object-86","BIQ",NA,"SUPPRF37742"
"10",1702490617603,"13/12/2023 18:03:37",1702490617603,0,"13/12/2023 18:03:37",157047,5,"task-gjqt",NA,33646636,9958457,NA,"complete",NA,"6579f1191916bca7b797b451","computer","Desktop or Laptop","Mac OS 10.15.7","Chrome 120.0.0.0","1440x900","1440x815",NA,NA,0,"BIQ (Charlotte)",3,"GHFIEJDACB","Passed AC2","","External_attention_first","Spreadsheet1",1,"BIQ","Screen 3","iz3the",3,"continue","",13580.7,13566.9,13580.7,13580.7,13566.9,13580.7,1,13580.7,0,0,NA,"Click To Continue","Continue Button",22,"object-73","BIQ",NA,"SUPPRF37742"
"11",1702490617605,"13/12/2023 18:03:37",1702490617605,0,"13/12/2023 18:03:37",157047,5,"task-gjqt",NA,33646636,9958457,NA,"complete",NA,"6579f1191916bca7b797b451","computer","Desktop or Laptop","Mac OS 10.15.7","Chrome 120.0.0.0","1440x900","1440x815",NA,NA,0,"BIQ (Charlotte)",3,"GHFIEJDACB","Passed AC2","","External_attention_first","Spreadsheet1",1,"BIQ","Screen 3","iz3the",3,"response","1",4800.2,13566.9,13583.2,4800.2,13566.9,13583.2,1,4800.2,8783.00000000004,0,NA,"Rating Scale","Rating Scale",2,"object-53","BIQ",NA,"SUPPRF37742"
"12",1702490617606,"13/12/2023 18:03:37",1702490617606,0,"13/12/2023 18:03:37",157047,5,"task-gjqt",NA,33646636,9958457,NA,"complete",NA,"6579f1191916bca7b797b451","computer","Desktop or Laptop","Mac OS 10.15.7","Chrome 120.0.0.0","1440x900","1440x815",NA,NA,0,"BIQ (Charlotte)",3,"GHFIEJDACB","Passed AC2","","External_attention_first","Spreadsheet1",1,"BIQ","Screen 3","iz3the",3,"response","2",8316.7,13566.9,13583.6,8316.7,13566.9,13583.6,1,8316.7,5266.89999999999,0,NA,"Rating Scale","Rating Scale",9,"object-60","BIQ",NA,"SUPPRF37742"
"13",1702490617606,"13/12/2023 18:03:37",1702490617606,0,"13/12/2023 18:03:37",157047,5,"task-gjqt",NA,33646636,9958457,NA,"complete",NA,"6579f1191916bca7b797b451","computer","Desktop or Laptop","Mac OS 10.15.7","Chrome 120.0.0.0","1440x900","1440x815",NA,NA,0,"BIQ (Charlotte)",3,"GHFIEJDACB","Passed AC2","","External_attention_first","Spreadsheet1",1,"BIQ","Screen 3","iz3the",3,"response","2",12883.6,13566.9,13583.6,12883.6,13566.9,13583.6,1,12883.6,700,0,NA,"Rating Scale","Rating Scale",16,"object-67","BIQ",NA,"SUPPRF37742"
"14",1702490617612,"13/12/2023 18:03:37",1702490617612,0,"13/12/2023 18:03:37",157047,5,"task-gjqt",NA,33646636,9958457,NA,"complete",NA,"6579f1191916bca7b797b451","computer","Desktop or Laptop","Mac OS 10.15.7","Chrome 120.0.0.0","1440x900","1440x815",NA,NA,0,"BIQ (Charlotte)",3,"GHFIEJDACB","Passed AC2","","External_attention_first","Spreadsheet1",NA,"","","",NA,"5","END",NA,NA,NA,NA,NA,NA,0,NA,NA,NA,NA,"","",NA,"","",NA,"SUPPRF37742"
"1",1702491024171,"13/12/2023 18:10:24",1702491024171,0,"13/12/2023 18:10:24",157047,5,"task-gjqt",NA,33646795,9958474,NA,"complete",NA,"6579f21df61fd8d35f99f228","computer","Desktop or Laptop","Windows 10","Chrome 120.0.0.0","1366x768","1366x611",NA,NA,0,"BIQ (Charlotte)",3,"HIGJFAEBDC","Passed AC2","","Self_focused_attention_first","Spreadsheet1",NA,"","","",NA,"5","BEGIN",NA,NA,NA,NA,NA,NA,0,NA,NA,NA,NA,"","",NA,"","",NA,"SUPPRF23841"
"2",1702491046041,"13/12/2023 18:10:46",1702491046041,0,"13/12/2023 18:10:46",157047,5,"task-gjqt",NA,33646795,9958474,NA,"complete",NA,"6579f21df61fd8d35f99f228","computer","Desktop or Laptop","Windows 10","Chrome 120.0.0.0","1366x768","1366x611",NA,NA,0,"BIQ (Charlotte)",3,"HIGJFAEBDC","Passed AC2","","Self_focused_attention_first","Spreadsheet1",1,"BIQ","Screen 1","9dh6eq",1,"continue","",21911.7,21895,21911.7,21911.7,21895,21911.7,1,21911.7,0,0,NA,"Click To Continue","Continue Button",23,"object-48","BIQ",NA,"SUPPRF23841"
"3",1702491046048,"13/12/2023 18:10:46",1702491046048,0,"13/12/2023 18:10:46",157047,5,"task-gjqt",NA,33646795,9958474,NA,"complete",NA,"6579f21df61fd8d35f99f228","computer","Desktop or Laptop","Windows 10","Chrome 120.0.0.0","1366x768","1366x611",NA,NA,0,"BIQ (Charlotte)",3,"HIGJFAEBDC","Passed AC2","","Self_focused_attention_first","Spreadsheet1",1,"BIQ","Screen 1","9dh6eq",1,"response","6",10223,21895,21911.7,10223,21895,21911.7,1,10223,11688.7,0,NA,"Rating Scale","Rating Scale",3,"object-5","BIQ",NA,"SUPPRF23841"
"4",1702491046050,"13/12/2023 18:10:46",1702491046050,0,"13/12/2023 18:10:46",157047,5,"task-gjqt",NA,33646795,9958474,NA,"complete",NA,"6579f21df61fd8d35f99f228","computer","Desktop or Laptop","Windows 10","Chrome 120.0.0.0","1366x768","1366x611",NA,NA,0,"BIQ (Charlotte)",3,"HIGJFAEBDC","Passed AC2","","Self_focused_attention_first","Spreadsheet1",1,"BIQ","Screen 1","9dh6eq",1,"response","2",14435.6,21895,21911.7,14435.6,21895,21911.7,1,14435.6,7476.1,0,NA,"Rating Scale","Rating Scale",10,"object-18","BIQ",NA,"SUPPRF23841"
"5",1702491046051,"13/12/2023 18:10:46",1702491046051,0,"13/12/2023 18:10:46",157047,5,"task-gjqt",NA,33646795,9958474,NA,"complete",NA,"6579f21df61fd8d35f99f228","computer","Desktop or Laptop","Windows 10","Chrome 120.0.0.0","1366x768","1366x611",NA,NA,0,"BIQ (Charlotte)",3,"HIGJFAEBDC","Passed AC2","","Self_focused_attention_first","Spreadsheet1",1,"BIQ","Screen 1","9dh6eq",1,"response","5",21062.4,21895,21911.7,21062.4,21895,21911.7,1,21062.4,849.300000000003,0,NA,"Rating Scale","Rating Scale",17,"object-80","BIQ",NA,"SUPPRF23841"
"6",1702491059635,"13/12/2023 18:10:59",1702491059635,0,"13/12/2023 18:10:59",157047,5,"task-gjqt",NA,33646795,9958474,NA,"complete",NA,"6579f21df61fd8d35f99f228","computer","Desktop or Laptop","Windows 10","Chrome 120.0.0.0","1366x768","1366x611",NA,NA,0,"BIQ (Charlotte)",3,"HIGJFAEBDC","Passed AC2","","Self_focused_attention_first","Spreadsheet1",1,"BIQ","Screen 2","o21mwi",2,"continue","",13620,13603.4,13620,13620,13603.4,13620,1,13620,0,0,NA,"Click To Continue","Continue Button",22,"object-50","BIQ",NA,"SUPPRF23841"
"7",1702491059643,"13/12/2023 18:10:59",1702491059643,0,"13/12/2023 18:10:59",157047,5,"task-gjqt",NA,33646795,9958474,NA,"complete",NA,"6579f21df61fd8d35f99f228","computer","Desktop or Laptop","Windows 10","Chrome 120.0.0.0","1366x768","1366x611",NA,NA,0,"BIQ (Charlotte)",3,"HIGJFAEBDC","Passed AC2","","Self_focused_attention_first","Spreadsheet1",1,"BIQ","Screen 2","o21mwi",2,"response","3",5128,13603.4,13620,5128,13603.4,13620,1,5128,8492.00000000001,0,NA,"Rating Scale","Rating Scale",2,"object-259","BIQ",NA,"SUPPRF23841"
"8",1702491059645,"13/12/2023 18:10:59",1702491059645,0,"13/12/2023 18:10:59",157047,5,"task-gjqt",NA,33646795,9958474,NA,"complete",NA,"6579f21df61fd8d35f99f228","computer","Desktop or Laptop","Windows 10","Chrome 120.0.0.0","1366x768","1366x611",NA,NA,0,"BIQ (Charlotte)",3,"HIGJFAEBDC","Passed AC2","","Self_focused_attention_first","Spreadsheet1",1,"BIQ","Screen 2","o21mwi",2,"response","4",8674.9,13603.4,13620,8674.9,13603.4,13620,1,8674.9,4945.10000000001,0,NA,"Rating Scale","Rating Scale",9,"object-36","BIQ",NA,"SUPPRF23841"
"9",1702491059647,"13/12/2023 18:10:59",1702491059647,0,"13/12/2023 18:10:59",157047,5,"task-gjqt",NA,33646795,9958474,NA,"complete",NA,"6579f21df61fd8d35f99f228","computer","Desktop or Laptop","Windows 10","Chrome 120.0.0.0","1366x768","1366x611",NA,NA,0,"BIQ (Charlotte)",3,"HIGJFAEBDC","Passed AC2","","Self_focused_attention_first","Spreadsheet1",1,"BIQ","Screen 2","o21mwi",2,"response","0",12354.2,13603.4,13620,12354.2,13603.4,13620,1,12354.2,1265.80000000001,0,NA,"Rating Scale","Rating Scale",16,"object-86","BIQ",NA,"SUPPRF23841"
"10",1702491073330,"13/12/2023 18:11:13",1702491073330,0,"13/12/2023 18:11:13",157047,5,"task-gjqt",NA,33646795,9958474,NA,"complete",NA,"6579f21df61fd8d35f99f228","computer","Desktop or Laptop","Windows 10","Chrome 120.0.0.0","1366x768","1366x611",NA,NA,0,"BIQ (Charlotte)",3,"HIGJFAEBDC","Passed AC2","","Self_focused_attention_first","Spreadsheet1",1,"BIQ","Screen 3","iz3the",3,"continue","",13712.9000000477,13703.1,13712.9000000477,13712.9000000477,13703.1,13712.9000000477,1,13712.9000000477,0,0,NA,"Click To Continue","Continue Button",22,"object-73","BIQ",NA,"SUPPRF23841"
"11",1702491073339,"13/12/2023 18:11:13",1702491073339,0,"13/12/2023 18:11:13",157047,5,"task-gjqt",NA,33646795,9958474,NA,"complete",NA,"6579f21df61fd8d35f99f228","computer","Desktop or Laptop","Windows 10","Chrome 120.0.0.0","1366x768","1366x611",NA,NA,0,"BIQ (Charlotte)",3,"HIGJFAEBDC","Passed AC2","","Self_focused_attention_first","Spreadsheet1",1,"BIQ","Screen 3","iz3the",3,"response","0",5411.3,13703.1,13719.8,5411.3,13703.1,13719.8,1,5411.3,8308.50000000001,0,NA,"Rating Scale","Rating Scale",2,"object-53","BIQ",NA,"SUPPRF23841"
"12",1702491073341,"13/12/2023 18:11:13",1702491073341,0,"13/12/2023 18:11:13",157047,5,"task-gjqt",NA,33646795,9958474,NA,"complete",NA,"6579f21df61fd8d35f99f228","computer","Desktop or Laptop","Windows 10","Chrome 120.0.0.0","1366x768","1366x611",NA,NA,0,"BIQ (Charlotte)",3,"HIGJFAEBDC","Passed AC2","","Self_focused_attention_first","Spreadsheet1",1,"BIQ","Screen 3","iz3the",3,"response","2",9856.7,13703.1,13719.8,9856.7,13703.1,13719.8,1,9856.7,3863.10000000001,0,NA,"Rating Scale","Rating Scale",9,"object-60","BIQ",NA,"SUPPRF23841"
"13",1702491073342,"13/12/2023 18:11:13",1702491073342,0,"13/12/2023 18:11:13",157047,5,"task-gjqt",NA,33646795,9958474,NA,"complete",NA,"6579f21df61fd8d35f99f228","computer","Desktop or Laptop","Windows 10","Chrome 120.0.0.0","1366x768","1366x611",NA,NA,0,"BIQ (Charlotte)",3,"HIGJFAEBDC","Passed AC2","","Self_focused_attention_first","Spreadsheet1",1,"BIQ","Screen 3","iz3the",3,"response","2",12970.5,13703.1,13719.8,12970.5,13703.1,13719.8,1,12970.5,749.300000000003,0,NA,"Rating Scale","Rating Scale",16,"object-67","BIQ",NA,"SUPPRF23841"
"14",1702491073358,"13/12/2023 18:11:13",1702491073358,0,"13/12/2023 18:11:13",157047,5,"task-gjqt",NA,33646795,9958474,NA,"complete",NA,"6579f21df61fd8d35f99f228","computer","Desktop or Laptop","Windows 10","Chrome 120.0.0.0","1366x768","1366x611",NA,NA,0,"BIQ (Charlotte)",3,"HIGJFAEBDC","Passed AC2","","Self_focused_attention_first","Spreadsheet1",NA,"","","",NA,"5","END",NA,NA,NA,NA,NA,NA,0,NA,NA,NA,NA,"","",NA,"","",NA,"SUPPRF23841"
"1",1702491387538,"13/12/2023 18:16:27",1702491387538,0,"13/12/2023 18:16:27",157047,5,"task-gjqt",NA,33646929,9958507,NA,"complete",NA,"6579f394d70dff89928ee832","computer","Desktop or Laptop","Windows 10","Chrome 120.0.0.0","1440x960","1440x825",NA,NA,0,"BIQ (Charlotte)",3,"IJHAGBFCED","Passed AC2","","Self_focused_attention_first","Spreadsheet1",NA,"","","",NA,"5","BEGIN",NA,NA,NA,NA,NA,NA,0,NA,NA,NA,NA,"","",NA,"","",NA,"SUPPRF21120"
"2",1702491416575,"13/12/2023 18:16:56",1702491416575,0,"13/12/2023 18:16:56",157047,5,"task-gjqt",NA,33646929,9958507,NA,"complete",NA,"6579f394d70dff89928ee832","computer","Desktop or Laptop","Windows 10","Chrome 120.0.0.0","1440x960","1440x825",NA,NA,0,"BIQ (Charlotte)",3,"IJHAGBFCED","Passed AC2","","Self_focused_attention_first","Spreadsheet1",1,"BIQ","Screen 1","9dh6eq",1,"continue","",29049.9,29033.3,29049.9,29049.9,29033.3,29049.9,1,29049.9,0,0,NA,"Click To Continue","Continue Button",23,"object-48","BIQ",NA,"SUPPRF21120"
"3",1702491416581,"13/12/2023 18:16:56",1702491416581,0,"13/12/2023 18:16:56",157047,5,"task-gjqt",NA,33646929,9958507,NA,"complete",NA,"6579f394d70dff89928ee832","computer","Desktop or Laptop","Windows 10","Chrome 120.0.0.0","1440x960","1440x825",NA,NA,0,"BIQ (Charlotte)",3,"IJHAGBFCED","Passed AC2","","Self_focused_attention_first","Spreadsheet1",1,"BIQ","Screen 1","9dh6eq",1,"response","7",10966.7,29033.3,29049.9,10966.7,29033.3,29049.9,1,10966.7,18083.2,0,NA,"Rating Scale","Rating Scale",3,"object-5","BIQ",NA,"SUPPRF21120"
"4",1702491416583,"13/12/2023 18:16:56",1702491416583,0,"13/12/2023 18:16:56",157047,5,"task-gjqt",NA,33646929,9958507,NA,"complete",NA,"6579f394d70dff89928ee832","computer","Desktop or Laptop","Windows 10","Chrome 120.0.0.0","1440x960","1440x825",NA,NA,0,"BIQ (Charlotte)",3,"IJHAGBFCED","Passed AC2","","Self_focused_attention_first","Spreadsheet1",1,"BIQ","Screen 1","9dh6eq",1,"response","4",15116.6,29033.3,29049.9,15116.6,29033.3,29049.9,1,15116.6,13933.3,0,NA,"Rating Scale","Rating Scale",10,"object-18","BIQ",NA,"SUPPRF21120"
"5",1702491416584,"13/12/2023 18:16:56",1702491416584,0,"13/12/2023 18:16:56",157047,5,"task-gjqt",NA,33646929,9958507,NA,"complete",NA,"6579f394d70dff89928ee832","computer","Desktop or Laptop","Windows 10","Chrome 120.0.0.0","1440x960","1440x825",NA,NA,0,"BIQ (Charlotte)",3,"IJHAGBFCED","Passed AC2","","Self_focused_attention_first","Spreadsheet1",1,"BIQ","Screen 1","9dh6eq",1,"response","3",25966.7,29033.3,29049.9,25966.7,29033.3,29049.9,1,25966.7,3083.2,0,NA,"Rating Scale","Rating Scale",17,"object-80","BIQ",NA,"SUPPRF21120"
"6",1702491442706,"13/12/2023 18:17:22",1702491442706,0,"13/12/2023 18:17:22",157047,5,"task-gjqt",NA,33646929,9958507,NA,"complete",NA,"6579f394d70dff89928ee832","computer","Desktop or Laptop","Windows 10","Chrome 120.0.0.0","1440x960","1440x825",NA,NA,0,"BIQ (Charlotte)",3,"IJHAGBFCED","Passed AC2","","Self_focused_attention_first","Spreadsheet1",1,"BIQ","Screen 2","o21mwi",2,"continue","",26155.7999999998,26150,26155.7999999998,26155.7999999998,26150,26155.7999999998,1,26155.7999999998,0,0,NA,"Click To Continue","Continue Button",22,"object-50","BIQ",NA,"SUPPRF21120"
"7",1702491442712,"13/12/2023 18:17:22",1702491442712,0,"13/12/2023 18:17:22",157047,5,"task-gjqt",NA,33646929,9958507,NA,"complete",NA,"6579f394d70dff89928ee832","computer","Desktop or Laptop","Windows 10","Chrome 120.0.0.0","1440x960","1440x825",NA,NA,0,"BIQ (Charlotte)",3,"IJHAGBFCED","Passed AC2","","Self_focused_attention_first","Spreadsheet1",1,"BIQ","Screen 2","o21mwi",2,"response","3",5900.1,26150,26161.3999999994,5900.1,26150,26161.3999999994,1,5900.1,20261.2999999994,0,NA,"Rating Scale","Rating Scale",2,"object-259","BIQ",NA,"SUPPRF21120"
"8",1702491442713,"13/12/2023 18:17:22",1702491442713,0,"13/12/2023 18:17:22",157047,5,"task-gjqt",NA,33646929,9958507,NA,"complete",NA,"6579f394d70dff89928ee832","computer","Desktop or Laptop","Windows 10","Chrome 120.0.0.0","1440x960","1440x825",NA,NA,0,"BIQ (Charlotte)",3,"IJHAGBFCED","Passed AC2","","Self_focused_attention_first","Spreadsheet1",1,"BIQ","Screen 2","o21mwi",2,"response","4",16250.1,26150,26162.7999999998,16250.1,26150,26162.7999999998,1,16250.1,9912.69999999982,0,NA,"Rating Scale","Rating Scale",9,"object-36","BIQ",NA,"SUPPRF21120"
"9",1702491442714,"13/12/2023 18:17:22",1702491442714,0,"13/12/2023 18:17:22",157047,5,"task-gjqt",NA,33646929,9958507,NA,"complete",NA,"6579f394d70dff89928ee832","computer","Desktop or Laptop","Windows 10","Chrome 120.0.0.0","1440x960","1440x825",NA,NA,0,"BIQ (Charlotte)",3,"IJHAGBFCED","Passed AC2","","Self_focused_attention_first","Spreadsheet1",1,"BIQ","Screen 2","o21mwi",2,"response","7",23200,26150,26163.8999999994,23200,26150,26163.8999999994,1,23200,2963.89999999944,0,NA,"Rating Scale","Rating Scale",16,"object-86","BIQ",NA,"SUPPRF21120"
"10",1702491461156,"13/12/2023 18:17:41",1702491461156,0,"13/12/2023 18:17:41",157047,5,"task-gjqt",NA,33646929,9958507,NA,"complete",NA,"6579f394d70dff89928ee832","computer","Desktop or Laptop","Windows 10","Chrome 120.0.0.0","1440x960","1440x825",NA,NA,0,"BIQ (Charlotte)",3,"IJHAGBFCED","Passed AC2","","Self_focused_attention_first","Spreadsheet1",1,"BIQ","Screen 3","iz3the",3,"continue","",18456.5,18450.2,18456.5,18456.5,18450.2,18456.5,1,18456.5,0,0,NA,"Click To Continue","Continue Button",22,"object-73","BIQ",NA,"SUPPRF21120"
"11",1702491461161,"13/12/2023 18:17:41",1702491461161,0,"13/12/2023 18:17:41",157047,5,"task-gjqt",NA,33646929,9958507,NA,"complete",NA,"6579f394d70dff89928ee832","computer","Desktop or Laptop","Windows 10","Chrome 120.0.0.0","1440x960","1440x825",NA,NA,0,"BIQ (Charlotte)",3,"IJHAGBFCED","Passed AC2","","Self_focused_attention_first","Spreadsheet1",1,"BIQ","Screen 3","iz3the",3,"response","1",9083.3,18450.2,18461,9083.3,18450.2,18461,1,9083.3,9377.7,0,NA,"Rating Scale","Rating Scale",2,"object-53","BIQ",NA,"SUPPRF21120"
"12",1702491461162,"13/12/2023 18:17:41",1702491461162,0,"13/12/2023 18:17:41",157047,5,"task-gjqt",NA,33646929,9958507,NA,"complete",NA,"6579f394d70dff89928ee832","computer","Desktop or Laptop","Windows 10","Chrome 120.0.0.0","1440x960","1440x825",NA,NA,0,"BIQ (Charlotte)",3,"IJHAGBFCED","Passed AC2","","Self_focused_attention_first","Spreadsheet1",1,"BIQ","Screen 3","iz3the",3,"response","4",13650,18450.2,18462.0999999996,13650,18450.2,18462.0999999996,1,13650,4812.09999999963,0,NA,"Rating Scale","Rating Scale",9,"object-60","BIQ",NA,"SUPPRF21120"
"13",1702491461164,"13/12/2023 18:17:41",1702491461164,0,"13/12/2023 18:17:41",157047,5,"task-gjqt",NA,33646929,9958507,NA,"complete",NA,"6579f394d70dff89928ee832","computer","Desktop or Laptop","Windows 10","Chrome 120.0.0.0","1440x960","1440x825",NA,NA,0,"BIQ (Charlotte)",3,"IJHAGBFCED","Passed AC2","","Self_focused_attention_first","Spreadsheet1",1,"BIQ","Screen 3","iz3the",3,"response","2",17550.1,18450.2,18463.5,17550.1,18450.2,18463.5,1,17550.1,913.399999999994,0,NA,"Rating Scale","Rating Scale",16,"object-67","BIQ",NA,"SUPPRF21120"
"14",1702491461171,"13/12/2023 18:17:41",1702491461171,0,"13/12/2023 18:17:41",157047,5,"task-gjqt",NA,33646929,9958507,NA,"complete",NA,"6579f394d70dff89928ee832","computer","Desktop or Laptop","Windows 10","Chrome 120.0.0.0","1440x960","1440x825",NA,NA,0,"BIQ (Charlotte)",3,"IJHAGBFCED","Passed AC2","","Self_focused_attention_first","Spreadsheet1",NA,"","","",NA,"5","END",NA,NA,NA,NA,NA,NA,0,NA,NA,NA,NA,"","",NA,"","",NA,"SUPPRF21120"
"1",1702492079438,"13/12/2023 18:27:59",1702492079438,0,"13/12/2023 18:27:59",157047,5,"task-gjqt",NA,33647206,9958550,NA,"complete",NA,"6579f4c9a63d54420e4e3405","computer","Desktop or Laptop","Mac OS 10.15.7","Chrome 120.0.0.0","1440x900","1800x911",NA,NA,0,"BIQ (Charlotte)",3,"BCADJEIFHG","Passed AC2","","External_attention_first","Spreadsheet1",NA,"","","",NA,"5","BEGIN",NA,NA,NA,NA,NA,NA,0,NA,NA,NA,NA,"","",NA,"","",NA,"SUPPRF76142"
"2",1702492123159,"13/12/2023 18:28:43",1702492123159,0,"13/12/2023 18:28:43",157047,5,"task-gjqt",NA,33647206,9958550,NA,"complete",NA,"6579f4c9a63d54420e4e3405","computer","Desktop or Laptop","Mac OS 10.15.7","Chrome 120.0.0.0","1440x900","1800x911",NA,NA,0,"BIQ (Charlotte)",3,"BCADJEIFHG","Passed AC2","","External_attention_first","Spreadsheet1",1,"BIQ","Screen 1","9dh6eq",1,"continue","",43736.3999999996,43719.9,43736.3999999996,43736.3999999996,43719.9,43736.3999999996,1,43736.3999999996,0,0,NA,"Click To Continue","Continue Button",23,"object-48","BIQ",NA,"SUPPRF76142"
"3",1702492123162,"13/12/2023 18:28:43",1702492123162,0,"13/12/2023 18:28:43",157047,5,"task-gjqt",NA,33647206,9958550,NA,"complete",NA,"6579f4c9a63d54420e4e3405","computer","Desktop or Laptop","Mac OS 10.15.7","Chrome 120.0.0.0","1440x900","1800x911",NA,NA,0,"BIQ (Charlotte)",3,"BCADJEIFHG","Passed AC2","","External_attention_first","Spreadsheet1",1,"BIQ","Screen 1","9dh6eq",1,"response","6",15201.4,43719.9,43736.5,15201.4,43719.9,43736.5,1,15201.4,28535.1,0,NA,"Rating Scale","Rating Scale",3,"object-5","BIQ",NA,"SUPPRF76142"
"4",1702492123162,"13/12/2023 18:28:43",1702492123162,0,"13/12/2023 18:28:43",157047,5,"task-gjqt",NA,33647206,9958550,NA,"complete",NA,"6579f4c9a63d54420e4e3405","computer","Desktop or Laptop","Mac OS 10.15.7","Chrome 120.0.0.0","1440x900","1800x911",NA,NA,0,"BIQ (Charlotte)",3,"BCADJEIFHG","Passed AC2","","External_attention_first","Spreadsheet1",1,"BIQ","Screen 1","9dh6eq",1,"response","5",34252.7,43719.9,43736.5,34252.7,43719.9,43736.5,1,34252.7,9483.8,0,NA,"Rating Scale","Rating Scale",10,"object-18","BIQ",NA,"SUPPRF76142"
"5",1702492123163,"13/12/2023 18:28:43",1702492123163,0,"13/12/2023 18:28:43",157047,5,"task-gjqt",NA,33647206,9958550,NA,"complete",NA,"6579f4c9a63d54420e4e3405","computer","Desktop or Laptop","Mac OS 10.15.7","Chrome 120.0.0.0","1440x900","1800x911",NA,NA,0,"BIQ (Charlotte)",3,"BCADJEIFHG","Passed AC2","","External_attention_first","Spreadsheet1",1,"BIQ","Screen 1","9dh6eq",1,"response","1",41002.8,43719.9,43736.5,41002.8,43719.9,43736.5,1,41002.8,2733.7,0,NA,"Rating Scale","Rating Scale",17,"object-80","BIQ",NA,"SUPPRF76142"
"6",1702492147219,"13/12/2023 18:29:07",1702492147219,0,"13/12/2023 18:29:07",157047,5,"task-gjqt",NA,33647206,9958550,NA,"complete",NA,"6579f4c9a63d54420e4e3405","computer","Desktop or Laptop","Mac OS 10.15.7","Chrome 120.0.0.0","1440x900","1800x911",NA,NA,0,"BIQ (Charlotte)",3,"BCADJEIFHG","Passed AC2","","External_attention_first","Spreadsheet1",1,"BIQ","Screen 2","o21mwi",2,"continue","",24076.4,24068.3,24076.4,24076.4,24068.3,24076.4,1,24076.4,0,0,NA,"Click To Continue","Continue Button",22,"object-50","BIQ",NA,"SUPPRF76142"
"7",1702492147225,"13/12/2023 18:29:07",1702492147225,0,"13/12/2023 18:29:07",157047,5,"task-gjqt",NA,33647206,9958550,NA,"complete",NA,"6579f4c9a63d54420e4e3405","computer","Desktop or Laptop","Mac OS 10.15.7","Chrome 120.0.0.0","1440x900","1800x911",NA,NA,0,"BIQ (Charlotte)",3,"BCADJEIFHG","Passed AC2","","External_attention_first","Spreadsheet1",1,"BIQ","Screen 2","o21mwi",2,"response","1",4216.8,24068.3,24082.2000000007,4216.8,24068.3,24082.2000000007,1,4216.8,19865.4000000007,0,NA,"Rating Scale","Rating Scale",2,"object-259","BIQ",NA,"SUPPRF76142"
"8",1702492147226,"13/12/2023 18:29:07",1702492147226,0,"13/12/2023 18:29:07",157047,5,"task-gjqt",NA,33647206,9958550,NA,"complete",NA,"6579f4c9a63d54420e4e3405","computer","Desktop or Laptop","Mac OS 10.15.7","Chrome 120.0.0.0","1440x900","1800x911",NA,NA,0,"BIQ (Charlotte)",3,"BCADJEIFHG","Passed AC2","","External_attention_first","Spreadsheet1",1,"BIQ","Screen 2","o21mwi",2,"response","1",8134.2,24068.3,24083.4,8134.2,24068.3,24083.4,1,8134.2,15949.2,0,NA,"Rating Scale","Rating Scale",9,"object-36","BIQ",NA,"SUPPRF76142"
"9",1702492147227,"13/12/2023 18:29:07",1702492147227,0,"13/12/2023 18:29:07",157047,5,"task-gjqt",NA,33647206,9958550,NA,"complete",NA,"6579f4c9a63d54420e4e3405","computer","Desktop or Laptop","Mac OS 10.15.7","Chrome 120.0.0.0","1440x900","1800x911",NA,NA,0,"BIQ (Charlotte)",3,"BCADJEIFHG","Passed AC2","","External_attention_first","Spreadsheet1",1,"BIQ","Screen 2","o21mwi",2,"response","2",10584.2,24068.3,24084.2000000007,10584.2,24068.3,24084.2000000007,1,10584.2,13500.0000000007,0,NA,"Rating Scale","Rating Scale",16,"object-86","BIQ",NA,"SUPPRF76142"
"10",1702492164171,"13/12/2023 18:29:24",1702492164171,0,"13/12/2023 18:29:24",157047,5,"task-gjqt",NA,33647206,9958550,NA,"complete",NA,"6579f4c9a63d54420e4e3405","computer","Desktop or Laptop","Mac OS 10.15.7","Chrome 120.0.0.0","1440x900","1800x911",NA,NA,0,"BIQ (Charlotte)",3,"BCADJEIFHG","Passed AC2","","External_attention_first","Spreadsheet1",1,"BIQ","Screen 3","iz3the",3,"continue","",16960.1,16951.3,16960.1,16960.1,16951.3,16960.1,1,16960.1,0,0,NA,"Click To Continue","Continue Button",22,"object-73","BIQ",NA,"SUPPRF76142"
"11",1702492164176,"13/12/2023 18:29:24",1702492164176,0,"13/12/2023 18:29:24",157047,5,"task-gjqt",NA,33647206,9958550,NA,"complete",NA,"6579f4c9a63d54420e4e3405","computer","Desktop or Laptop","Mac OS 10.15.7","Chrome 120.0.0.0","1440x900","1800x911",NA,NA,0,"BIQ (Charlotte)",3,"BCADJEIFHG","Passed AC2","","External_attention_first","Spreadsheet1",1,"BIQ","Screen 3","iz3the",3,"response","1",5633.90000000001,16951.3,16964.9000000008,5633.90000000001,16951.3,16964.9000000008,1,5633.90000000001,11331.0000000007,0,NA,"Rating Scale","Rating Scale",2,"object-53","BIQ",NA,"SUPPRF76142"
"12",1702492164177,"13/12/2023 18:29:24",1702492164177,0,"13/12/2023 18:29:24",157047,5,"task-gjqt",NA,33647206,9958550,NA,"complete",NA,"6579f4c9a63d54420e4e3405","computer","Desktop or Laptop","Mac OS 10.15.7","Chrome 120.0.0.0","1440x900","1800x911",NA,NA,0,"BIQ (Charlotte)",3,"BCADJEIFHG","Passed AC2","","External_attention_first","Spreadsheet1",1,"BIQ","Screen 3","iz3the",3,"response","1",9100.70000000001,16951.3,16965.6999999996,9100.70000000001,16951.3,16965.6999999996,1,9100.70000000001,7864.99999999962,0,NA,"Rating Scale","Rating Scale",9,"object-60","BIQ",NA,"SUPPRF76142"
"13",1702492164177,"13/12/2023 18:29:24",1702492164177,0,"13/12/2023 18:29:24",157047,5,"task-gjqt",NA,33647206,9958550,NA,"complete",NA,"6579f4c9a63d54420e4e3405","computer","Desktop or Laptop","Mac OS 10.15.7","Chrome 120.0.0.0","1440x900","1800x911",NA,NA,0,"BIQ (Charlotte)",3,"BCADJEIFHG","Passed AC2","","External_attention_first","Spreadsheet1",1,"BIQ","Screen 3","iz3the",3,"response","5",15234.6,16951.3,16966.4000000008,15234.6,16951.3,16966.4000000008,1,15234.6,1731.80000000075,0,NA,"Rating Scale","Rating Scale",16,"object-67","BIQ",NA,"SUPPRF76142"
"14",1702492164185,"13/12/2023 18:29:24",1702492164185,0,"13/12/2023 18:29:24",157047,5,"task-gjqt",NA,33647206,9958550,NA,"complete",NA,"6579f4c9a63d54420e4e3405","computer","Desktop or Laptop","Mac OS 10.15.7","Chrome 120.0.0.0","1440x900","1800x911",NA,NA,0,"BIQ (Charlotte)",3,"BCADJEIFHG","Passed AC2","","External_attention_first","Spreadsheet1",NA,"","","",NA,"5","END",NA,NA,NA,NA,NA,NA,0,NA,NA,NA,NA,"","",NA,"","",NA,"SUPPRF76142"
"1",1702492137471,"13/12/2023 18:28:57",1702492137471,0,"13/12/2023 18:28:57",157047,5,"task-gjqt",NA,33647222,9958565,NA,"complete",NA,"6579f6656ceae4a140d7284a","computer","Desktop or Laptop","Mac OS 10.15.7","Chrome 120.0.0.0","1440x900","1440x739",NA,NA,0,"BIQ (Charlotte)",3,"CDBEAFJGIH","Passed AC2","","External_attention_first","Spreadsheet1",NA,"","","",NA,"5","BEGIN",NA,NA,NA,NA,NA,NA,0,NA,NA,NA,NA,"","",NA,"","",NA,"SUPPRF14695"
"2",1702492155513,"13/12/2023 18:29:15",1702492155513,0,"13/12/2023 18:29:15",157047,5,"task-gjqt",NA,33647222,9958565,NA,"complete",NA,"6579f6656ceae4a140d7284a","computer","Desktop or Laptop","Mac OS 10.15.7","Chrome 120.0.0.0","1440x900","1440x739",NA,NA,0,"BIQ (Charlotte)",3,"CDBEAFJGIH","Passed AC2","","External_attention_first","Spreadsheet1",1,"BIQ","Screen 1","9dh6eq",1,"continue","",18053.7,18037,18053.7,18053.7,18037,18053.7,1,18053.7,0,0,NA,"Click To Continue","Continue Button",23,"object-48","BIQ",NA,"SUPPRF14695"
"3",1702492155515,"13/12/2023 18:29:15",1702492155515,0,"13/12/2023 18:29:15",157047,5,"task-gjqt",NA,33647222,9958565,NA,"complete",NA,"6579f6656ceae4a140d7284a","computer","Desktop or Laptop","Mac OS 10.15.7","Chrome 120.0.0.0","1440x900","1440x739",NA,NA,0,"BIQ (Charlotte)",3,"CDBEAFJGIH","Passed AC2","","External_attention_first","Spreadsheet1",1,"BIQ","Screen 1","9dh6eq",1,"response","7",8010.3,18037,18053.7,8010.3,18037,18053.7,1,8010.3,10043.4,0,NA,"Rating Scale","Rating Scale",3,"object-5","BIQ",NA,"SUPPRF14695"
"4",1702492155516,"13/12/2023 18:29:15",1702492155516,0,"13/12/2023 18:29:15",157047,5,"task-gjqt",NA,33647222,9958565,NA,"complete",NA,"6579f6656ceae4a140d7284a","computer","Desktop or Laptop","Mac OS 10.15.7","Chrome 120.0.0.0","1440x900","1440x739",NA,NA,0,"BIQ (Charlotte)",3,"CDBEAFJGIH","Passed AC2","","External_attention_first","Spreadsheet1",1,"BIQ","Screen 1","9dh6eq",1,"response","8",12774,18037,18053.7,12774,18037,18053.7,1,12774,5279.7,0,NA,"Rating Scale","Rating Scale",10,"object-18","BIQ",NA,"SUPPRF14695"
"5",1702492155516,"13/12/2023 18:29:15",1702492155516,0,"13/12/2023 18:29:15",157047,5,"task-gjqt",NA,33647222,9958565,NA,"complete",NA,"6579f6656ceae4a140d7284a","computer","Desktop or Laptop","Mac OS 10.15.7","Chrome 120.0.0.0","1440x900","1440x739",NA,NA,0,"BIQ (Charlotte)",3,"CDBEAFJGIH","Passed AC2","","External_attention_first","Spreadsheet1",1,"BIQ","Screen 1","9dh6eq",1,"response","0",15622,18037,18053.7,15622,18037,18053.7,1,15622,2431.7,0,NA,"Rating Scale","Rating Scale",17,"object-80","BIQ",NA,"SUPPRF14695"
"6",1702492171655,"13/12/2023 18:29:31",1702492171655,0,"13/12/2023 18:29:31",157047,5,"task-gjqt",NA,33647222,9958565,NA,"complete",NA,"6579f6656ceae4a140d7284a","computer","Desktop or Laptop","Mac OS 10.15.7","Chrome 120.0.0.0","1440x900","1440x739",NA,NA,0,"BIQ (Charlotte)",3,"CDBEAFJGIH","Passed AC2","","External_attention_first","Spreadsheet1",1,"BIQ","Screen 2","o21mwi",2,"continue","",16163.9999999985,16156.1,16163.9999999985,16163.9999999985,16156.1,16163.9999999985,1,16163.9999999985,0,0,NA,"Click To Continue","Continue Button",22,"object-50","BIQ",NA,"SUPPRF14695"
"7",1702492171660,"13/12/2023 18:29:31",1702492171660,0,"13/12/2023 18:29:31",157047,5,"task-gjqt",NA,33647222,9958565,NA,"complete",NA,"6579f6656ceae4a140d7284a","computer","Desktop or Laptop","Mac OS 10.15.7","Chrome 120.0.0.0","1440x900","1440x739",NA,NA,0,"BIQ (Charlotte)",3,"CDBEAFJGIH","Passed AC2","","External_attention_first","Spreadsheet1",1,"BIQ","Screen 2","o21mwi",2,"response","8",3897.6,16156.1,16168.7000000015,3897.6,16156.1,16168.7000000015,1,3897.6,12271.1000000015,0,NA,"Rating Scale","Rating Scale",2,"object-259","BIQ",NA,"SUPPRF14695"
"8",1702492171660,"13/12/2023 18:29:31",1702492171660,0,"13/12/2023 18:29:31",157047,5,"task-gjqt",NA,33647222,9958565,NA,"complete",NA,"6579f6656ceae4a140d7284a","computer","Desktop or Laptop","Mac OS 10.15.7","Chrome 120.0.0.0","1440x900","1440x739",NA,NA,0,"BIQ (Charlotte)",3,"CDBEAFJGIH","Passed AC2","","External_attention_first","Spreadsheet1",1,"BIQ","Screen 2","o21mwi",2,"response","0",8261.2,16156.1,16169.399999997,8261.2,16156.1,16169.399999997,1,8261.2,7908.19999999702,0,NA,"Rating Scale","Rating Scale",9,"object-36","BIQ",NA,"SUPPRF14695"
"9",1702492171661,"13/12/2023 18:29:31",1702492171661,0,"13/12/2023 18:29:31",157047,5,"task-gjqt",NA,33647222,9958565,NA,"complete",NA,"6579f6656ceae4a140d7284a","computer","Desktop or Laptop","Mac OS 10.15.7","Chrome 120.0.0.0","1440x900","1440x739",NA,NA,0,"BIQ (Charlotte)",3,"CDBEAFJGIH","Passed AC2","","External_attention_first","Spreadsheet1",1,"BIQ","Screen 2","o21mwi",2,"response","0",9427.1,16156.1,16169.9999999985,9427.1,16156.1,16169.9999999985,1,9427.1,6742.89999999851,0,NA,"Rating Scale","Rating Scale",16,"object-86","BIQ",NA,"SUPPRF14695"
"10",1702492177325,"13/12/2023 18:29:37",1702492177325,0,"13/12/2023 18:29:37",157047,5,"task-gjqt",NA,33647222,9958565,NA,"complete",NA,"6579f6656ceae4a140d7284a","computer","Desktop or Laptop","Mac OS 10.15.7","Chrome 120.0.0.0","1440x900","1440x739",NA,NA,0,"BIQ (Charlotte)",3,"CDBEAFJGIH","Passed AC2","","External_attention_first","Spreadsheet1",1,"BIQ","Screen 3","iz3the",3,"continue","",5677.60000000149,5663,5677.60000000149,5677.60000000149,5663,5677.60000000149,1,5677.60000000149,0,0,NA,"Click To Continue","Continue Button",22,"object-73","BIQ",NA,"SUPPRF14695"
"11",1702492177325,"13/12/2023 18:29:37",1702492177325,0,"13/12/2023 18:29:37",157047,5,"task-gjqt",NA,33647222,9958565,NA,"complete",NA,"6579f6656ceae4a140d7284a","computer","Desktop or Laptop","Mac OS 10.15.7","Chrome 120.0.0.0","1440x900","1440x739",NA,NA,0,"BIQ (Charlotte)",3,"CDBEAFJGIH","Passed AC2","","External_attention_first","Spreadsheet1",1,"BIQ","Screen 3","iz3the",3,"response","0",2514.8,5663,5678.39999999851,2514.8,5663,5678.39999999851,1,2514.8,3163.59999999851,0,NA,"Rating Scale","Rating Scale",2,"object-53","BIQ",NA,"SUPPRF14695"
"12",1702492177326,"13/12/2023 18:29:37",1702492177326,0,"13/12/2023 18:29:37",157047,5,"task-gjqt",NA,33647222,9958565,NA,"complete",NA,"6579f6656ceae4a140d7284a","computer","Desktop or Laptop","Mac OS 10.15.7","Chrome 120.0.0.0","1440x900","1440x739",NA,NA,0,"BIQ (Charlotte)",3,"CDBEAFJGIH","Passed AC2","","External_attention_first","Spreadsheet1",1,"BIQ","Screen 3","iz3the",3,"response","0",2981.2,5663,5679.20000000298,2981.2,5663,5679.20000000298,1,2981.2,2698.00000000298,0,NA,"Rating Scale","Rating Scale",9,"object-60","BIQ",NA,"SUPPRF14695"
"13",1702492177327,"13/12/2023 18:29:37",1702492177327,0,"13/12/2023 18:29:37",157047,5,"task-gjqt",NA,33647222,9958565,NA,"complete",NA,"6579f6656ceae4a140d7284a","computer","Desktop or Laptop","Mac OS 10.15.7","Chrome 120.0.0.0","1440x900","1440x739",NA,NA,0,"BIQ (Charlotte)",3,"CDBEAFJGIH","Passed AC2","","External_attention_first","Spreadsheet1",1,"BIQ","Screen 3","iz3the",3,"response","0",3980.5,5663,5679.6,3980.5,5663,5679.6,1,3980.5,1699.1,0,NA,"Rating Scale","Rating Scale",16,"object-67","BIQ",NA,"SUPPRF14695"
"14",1702492177334,"13/12/2023 18:29:37",1702492177334,0,"13/12/2023 18:29:37",157047,5,"task-gjqt",NA,33647222,9958565,NA,"complete",NA,"6579f6656ceae4a140d7284a","computer","Desktop or Laptop","Mac OS 10.15.7","Chrome 120.0.0.0","1440x900","1440x739",NA,NA,0,"BIQ (Charlotte)",3,"CDBEAFJGIH","Passed AC2","","External_attention_first","Spreadsheet1",NA,"","","",NA,"5","END",NA,NA,NA,NA,NA,NA,0,NA,NA,NA,NA,"","",NA,"","",NA,"SUPPRF14695"
"1",1702492465864,"13/12/2023 18:34:25",1702492465864,0,"13/12/2023 18:34:25",157047,5,"task-gjqt",NA,33647356,9958623,NA,"complete",NA,"6579f88fa880780f5ec4dcd3","computer","Desktop or Laptop","Windows 10","Chrome 120.0.0.0","1536x864","1536x730",NA,NA,0,"BIQ (Charlotte)",3,"EFDGCHBIAJ","Passed AC2","","External_attention_first","Spreadsheet1",NA,"","","",NA,"5","BEGIN",NA,NA,NA,NA,NA,NA,0,NA,NA,NA,NA,"","",NA,"","",NA,"SUPPRF61954"
"2",1702492502846,"13/12/2023 18:35:02",1702492502846,0,"13/12/2023 18:35:02",157047,5,"task-gjqt",NA,33647356,9958623,NA,"complete",NA,"6579f88fa880780f5ec4dcd3","computer","Desktop or Laptop","Windows 10","Chrome 120.0.0.0","1536x864","1536x730",NA,NA,0,"BIQ (Charlotte)",3,"EFDGCHBIAJ","Passed AC2","","External_attention_first","Spreadsheet1",1,"BIQ","Screen 1","9dh6eq",1,"continue","",36991.8999999985,36985.9,36991.8999999985,36991.8999999985,36985.9,36991.8999999985,1,36991.8999999985,0,0,NA,"Click To Continue","Continue Button",23,"object-48","BIQ",NA,"SUPPRF61954"
"3",1702492502847,"13/12/2023 18:35:02",1702492502847,0,"13/12/2023 18:35:02",157047,5,"task-gjqt",NA,33647356,9958623,NA,"complete",NA,"6579f88fa880780f5ec4dcd3","computer","Desktop or Laptop","Windows 10","Chrome 120.0.0.0","1536x864","1536x730",NA,NA,0,"BIQ (Charlotte)",3,"EFDGCHBIAJ","Passed AC2","","External_attention_first","Spreadsheet1",1,"BIQ","Screen 1","9dh6eq",1,"response","5",14275.2,36985.9,36994.1000000015,14275.2,36985.9,36994.1000000015,1,14275.2,22718.9000000015,0,NA,"Rating Scale","Rating Scale",3,"object-5","BIQ",NA,"SUPPRF61954"
"4",1702492502848,"13/12/2023 18:35:02",1702492502848,0,"13/12/2023 18:35:02",157047,5,"task-gjqt",NA,33647356,9958623,NA,"complete",NA,"6579f88fa880780f5ec4dcd3","computer","Desktop or Laptop","Windows 10","Chrome 120.0.0.0","1536x864","1536x730",NA,NA,0,"BIQ (Charlotte)",3,"EFDGCHBIAJ","Passed AC2","","External_attention_first","Spreadsheet1",1,"BIQ","Screen 1","9dh6eq",1,"response","4",33117.5,36985.9,36994.3,33117.5,36985.9,36994.3,1,33117.5,3876.8,0,NA,"Rating Scale","Rating Scale",10,"object-18","BIQ",NA,"SUPPRF61954"
"5",1702492502848,"13/12/2023 18:35:02",1702492502848,0,"13/12/2023 18:35:02",157047,5,"task-gjqt",NA,33647356,9958623,NA,"complete",NA,"6579f88fa880780f5ec4dcd3","computer","Desktop or Laptop","Windows 10","Chrome 120.0.0.0","1536x864","1536x730",NA,NA,0,"BIQ (Charlotte)",3,"EFDGCHBIAJ","Passed AC2","","External_attention_first","Spreadsheet1",1,"BIQ","Screen 1","9dh6eq",1,"response","5",35505.1,36985.9,36994.3,35505.1,36985.9,36994.3,1,35505.1,1489.2,0,NA,"Rating Scale","Rating Scale",17,"object-80","BIQ",NA,"SUPPRF61954"
"6",1702492505875,"13/12/2023 18:35:05",1702492505875,0,"13/12/2023 18:35:05",157047,5,"task-gjqt",NA,33647356,9958623,NA,"complete",NA,"6579f88fa880780f5ec4dcd3","computer","Desktop or Laptop","Windows 10","Chrome 120.0.0.0","1536x864","1536x730",NA,NA,0,"BIQ (Charlotte)",3,"EFDGCHBIAJ","Passed AC2","","External_attention_first","Spreadsheet1",1,"BIQ","Screen 2","o21mwi",2,"continue","",3036.1,3027.9,3036.1,3036.1,3027.9,3036.1,1,3036.1,0,0,NA,"Click To Continue","Continue Button",22,"object-50","BIQ",NA,"SUPPRF61954"
"7",1702492505876,"13/12/2023 18:35:05",1702492505876,0,"13/12/2023 18:35:05",157047,5,"task-gjqt",NA,33647356,9958623,NA,"complete",NA,"6579f88fa880780f5ec4dcd3","computer","Desktop or Laptop","Windows 10","Chrome 120.0.0.0","1536x864","1536x730",NA,NA,0,"BIQ (Charlotte)",3,"EFDGCHBIAJ","Passed AC2","","External_attention_first","Spreadsheet1",1,"BIQ","Screen 2","o21mwi",2,"response","4",1447.4,3027.9,3036.10000000001,1447.4,3027.9,3036.10000000001,1,1447.4,1588.7,0,NA,"Rating Scale","Rating Scale",2,"object-259","BIQ",NA,"SUPPRF61954"
"8",1702492505876,"13/12/2023 18:35:05",1702492505876,0,"13/12/2023 18:35:05",157047,5,"task-gjqt",NA,33647356,9958623,NA,"complete",NA,"6579f88fa880780f5ec4dcd3","computer","Desktop or Laptop","Windows 10","Chrome 120.0.0.0","1536x864","1536x730",NA,NA,0,"BIQ (Charlotte)",3,"EFDGCHBIAJ","Passed AC2","","External_attention_first","Spreadsheet1",1,"BIQ","Screen 2","o21mwi",2,"response","3",2079.6,3027.9,3036.10000000001,2079.6,3027.9,3036.10000000001,1,2079.6,956.500000000007,0,NA,"Rating Scale","Rating Scale",9,"object-36","BIQ",NA,"SUPPRF61954"
"9",1702492505876,"13/12/2023 18:35:05",1702492505876,0,"13/12/2023 18:35:05",157047,5,"task-gjqt",NA,33647356,9958623,NA,"complete",NA,"6579f88fa880780f5ec4dcd3","computer","Desktop or Laptop","Windows 10","Chrome 120.0.0.0","1536x864","1536x730",NA,NA,0,"BIQ (Charlotte)",3,"EFDGCHBIAJ","Passed AC2","","External_attention_first","Spreadsheet1",1,"BIQ","Screen 2","o21mwi",2,"response","5",2595.4,3027.9,3036.10000000001,2595.4,3027.9,3036.10000000001,1,2595.4,440.700000000004,0,NA,"Rating Scale","Rating Scale",16,"object-86","BIQ",NA,"SUPPRF61954"
"10",1702492508892,"13/12/2023 18:35:08",1702492508892,0,"13/12/2023 18:35:08",157047,5,"task-gjqt",NA,33647356,9958623,NA,"complete",NA,"6579f88fa880780f5ec4dcd3","computer","Desktop or Laptop","Windows 10","Chrome 120.0.0.0","1536x864","1536x730",NA,NA,0,"BIQ (Charlotte)",3,"EFDGCHBIAJ","Passed AC2","","External_attention_first","Spreadsheet1",1,"BIQ","Screen 3","iz3the",3,"continue","",3025.30000000149,3019.8,3025.30000000149,3025.30000000149,3019.8,3025.30000000149,1,3025.30000000149,0,0,NA,"Click To Continue","Continue Button",22,"object-73","BIQ",NA,"SUPPRF61954"
"11",1702492508893,"13/12/2023 18:35:08",1702492508893,0,"13/12/2023 18:35:08",157047,5,"task-gjqt",NA,33647356,9958623,NA,"complete",NA,"6579f88fa880780f5ec4dcd3","computer","Desktop or Laptop","Windows 10","Chrome 120.0.0.0","1536x864","1536x730",NA,NA,0,"BIQ (Charlotte)",3,"EFDGCHBIAJ","Passed AC2","","External_attention_first","Spreadsheet1",1,"BIQ","Screen 3","iz3the",3,"response","4",923.399999999994,3019.8,3025.80000000149,923.399999999994,3019.8,3025.80000000149,1,923.399999999994,2102.40000000149,0,NA,"Rating Scale","Rating Scale",2,"object-53","BIQ",NA,"SUPPRF61954"
"12",1702492508893,"13/12/2023 18:35:08",1702492508893,0,"13/12/2023 18:35:08",157047,5,"task-gjqt",NA,33647356,9958623,NA,"complete",NA,"6579f88fa880780f5ec4dcd3","computer","Desktop or Laptop","Windows 10","Chrome 120.0.0.0","1536x864","1536x730",NA,NA,0,"BIQ (Charlotte)",3,"EFDGCHBIAJ","Passed AC2","","External_attention_first","Spreadsheet1",1,"BIQ","Screen 3","iz3the",3,"response","5",2021.5,3019.8,3026.2,2021.5,3019.8,3026.2,1,2021.5,1004.7,0,NA,"Rating Scale","Rating Scale",9,"object-60","BIQ",NA,"SUPPRF61954"
"13",1702492508893,"13/12/2023 18:35:08",1702492508893,0,"13/12/2023 18:35:08",157047,5,"task-gjqt",NA,33647356,9958623,NA,"complete",NA,"6579f88fa880780f5ec4dcd3","computer","Desktop or Laptop","Windows 10","Chrome 120.0.0.0","1536x864","1536x730",NA,NA,0,"BIQ (Charlotte)",3,"EFDGCHBIAJ","Passed AC2","","External_attention_first","Spreadsheet1",1,"BIQ","Screen 3","iz3the",3,"response","4",2429.3,3019.8,3026.39999999925,2429.3,3019.8,3026.39999999925,1,2429.3,597.099999999256,0,NA,"Rating Scale","Rating Scale",16,"object-67","BIQ",NA,"SUPPRF61954"
"14",1702492508896,"13/12/2023 18:35:08",1702492508896,0,"13/12/2023 18:35:08",157047,5,"task-gjqt",NA,33647356,9958623,NA,"complete",NA,"6579f88fa880780f5ec4dcd3","computer","Desktop or Laptop","Windows 10","Chrome 120.0.0.0","1536x864","1536x730",NA,NA,0,"BIQ (Charlotte)",3,"EFDGCHBIAJ","Passed AC2","","External_attention_first","Spreadsheet1",NA,"","","",NA,"5","END",NA,NA,NA,NA,NA,NA,0,NA,NA,NA,NA,"","",NA,"","",NA,"SUPPRF61954"
"1",1702492560452,"13/12/2023 18:36:00",1702492560452,0,"13/12/2023 18:36:00",157047,5,"task-gjqt",NA,33647396,9958617,NA,"complete",NA,"6579f7be45eebb6b2b8eea0f","computer","Desktop or Laptop","Windows 10","Chrome 120.0.0.0","1536x864","1536x747",NA,NA,0,"BIQ (Charlotte)",3,"DECFBGAHJI","Passed AC2","","Self_focused_attention_first","Spreadsheet1",NA,"","","",NA,"5","BEGIN",NA,NA,NA,NA,NA,NA,0,NA,NA,NA,NA,"","",NA,"","",NA,"SUPPRF33974"
"2",1702492583860,"13/12/2023 18:36:23",1702492583860,0,"13/12/2023 18:36:23",157047,5,"task-gjqt",NA,33647396,9958617,NA,"complete",NA,"6579f7be45eebb6b2b8eea0f","computer","Desktop or Laptop","Windows 10","Chrome 120.0.0.0","1536x864","1536x747",NA,NA,0,"BIQ (Charlotte)",3,"DECFBGAHJI","Passed AC2","","Self_focused_attention_first","Spreadsheet1",1,"BIQ","Screen 1","9dh6eq",1,"continue","",23420.1999999881,23416.7,23420.1999999881,23420.1999999881,23416.7,23420.1999999881,1,23420.1999999881,0,0,NA,"Click To Continue","Continue Button",23,"object-48","BIQ",NA,"SUPPRF33974"
"3",1702492583863,"13/12/2023 18:36:23",1702492583863,0,"13/12/2023 18:36:23",157047,5,"task-gjqt",NA,33647396,9958617,NA,"complete",NA,"6579f7be45eebb6b2b8eea0f","computer","Desktop or Laptop","Windows 10","Chrome 120.0.0.0","1536x864","1536x747",NA,NA,0,"BIQ (Charlotte)",3,"DECFBGAHJI","Passed AC2","","Self_focused_attention_first","Spreadsheet1",1,"BIQ","Screen 1","9dh6eq",1,"response","7",11466.8,23416.7,23424.099999994,11466.8,23416.7,23424.099999994,1,11466.8,11957.299999994,0,NA,"Rating Scale","Rating Scale",3,"object-5","BIQ",NA,"SUPPRF33974"
"4",1702492583864,"13/12/2023 18:36:23",1702492583864,0,"13/12/2023 18:36:23",157047,5,"task-gjqt",NA,33647396,9958617,NA,"complete",NA,"6579f7be45eebb6b2b8eea0f","computer","Desktop or Laptop","Windows 10","Chrome 120.0.0.0","1536x864","1536x747",NA,NA,0,"BIQ (Charlotte)",3,"DECFBGAHJI","Passed AC2","","Self_focused_attention_first","Spreadsheet1",1,"BIQ","Screen 1","9dh6eq",1,"response","8",18650,23416.7,23424.6999999881,18650,23416.7,23424.6999999881,1,18650,4774.69999998808,0,NA,"Rating Scale","Rating Scale",10,"object-18","BIQ",NA,"SUPPRF33974"
"5",1702492583864,"13/12/2023 18:36:23",1702492583864,0,"13/12/2023 18:36:23",157047,5,"task-gjqt",NA,33647396,9958617,NA,"complete",NA,"6579f7be45eebb6b2b8eea0f","computer","Desktop or Laptop","Windows 10","Chrome 120.0.0.0","1536x864","1536x747",NA,NA,0,"BIQ (Charlotte)",3,"DECFBGAHJI","Passed AC2","","Self_focused_attention_first","Spreadsheet1",1,"BIQ","Screen 1","9dh6eq",1,"response","0",22716.8,23416.7,23425.1999999881,22716.8,23416.7,23425.1999999881,1,22716.8,708.39999998808,0,NA,"Rating Scale","Rating Scale",17,"object-80","BIQ",NA,"SUPPRF33974"
"6",1702492597508,"13/12/2023 18:36:37",1702492597508,0,"13/12/2023 18:36:37",157047,5,"task-gjqt",NA,33647396,9958617,NA,"complete",NA,"6579f7be45eebb6b2b8eea0f","computer","Desktop or Laptop","Windows 10","Chrome 120.0.0.0","1536x864","1536x747",NA,NA,0,"BIQ (Charlotte)",3,"DECFBGAHJI","Passed AC2","","Self_focused_attention_first","Spreadsheet1",1,"BIQ","Screen 2","o21mwi",2,"continue","",13651.899999994,13650,13651.899999994,13651.899999994,13650,13651.899999994,1,13651.899999994,0,0,NA,"Click To Continue","Continue Button",22,"object-50","BIQ",NA,"SUPPRF33974"
"7",1702492597511,"13/12/2023 18:36:37",1702492597511,0,"13/12/2023 18:36:37",157047,5,"task-gjqt",NA,33647396,9958617,NA,"complete",NA,"6579f7be45eebb6b2b8eea0f","computer","Desktop or Laptop","Windows 10","Chrome 120.0.0.0","1536x864","1536x747",NA,NA,0,"BIQ (Charlotte)",3,"DECFBGAHJI","Passed AC2","","Self_focused_attention_first","Spreadsheet1",1,"BIQ","Screen 2","o21mwi",2,"response","8",4100.1,13650,13655.3,4100.1,13650,13655.3,1,4100.1,9555.2,0,NA,"Rating Scale","Rating Scale",2,"object-259","BIQ",NA,"SUPPRF33974"
"8",1702492597512,"13/12/2023 18:36:37",1702492597512,0,"13/12/2023 18:36:37",157047,5,"task-gjqt",NA,33647396,9958617,NA,"complete",NA,"6579f7be45eebb6b2b8eea0f","computer","Desktop or Laptop","Windows 10","Chrome 120.0.0.0","1536x864","1536x747",NA,NA,0,"BIQ (Charlotte)",3,"DECFBGAHJI","Passed AC2","","Self_focused_attention_first","Spreadsheet1",1,"BIQ","Screen 2","o21mwi",2,"response","0",8733.3,13650,13655.9999999881,8733.3,13650,13655.9999999881,1,8733.3,4922.69999998808,0,NA,"Rating Scale","Rating Scale",9,"object-36","BIQ",NA,"SUPPRF33974"
"9",1702492597513,"13/12/2023 18:36:37",1702492597513,0,"13/12/2023 18:36:37",157047,5,"task-gjqt",NA,33647396,9958617,NA,"complete",NA,"6579f7be45eebb6b2b8eea0f","computer","Desktop or Laptop","Windows 10","Chrome 120.0.0.0","1536x864","1536x747",NA,NA,0,"BIQ (Charlotte)",3,"DECFBGAHJI","Passed AC2","","Self_focused_attention_first","Spreadsheet1",1,"BIQ","Screen 2","o21mwi",2,"response","0",11550,13650,13656.6999999762,11550,13650,13656.6999999762,1,11550,2106.69999997616,0,NA,"Rating Scale","Rating Scale",16,"object-86","BIQ",NA,"SUPPRF33974"
"10",1702492607199,"13/12/2023 18:36:47",1702492607199,0,"13/12/2023 18:36:47",157047,5,"task-gjqt",NA,33647396,9958617,NA,"complete",NA,"6579f7be45eebb6b2b8eea0f","computer","Desktop or Laptop","Windows 10","Chrome 120.0.0.0","1536x864","1536x747",NA,NA,0,"BIQ (Charlotte)",3,"DECFBGAHJI","Passed AC2","","Self_focused_attention_first","Spreadsheet1",1,"BIQ","Screen 3","iz3the",3,"continue","",9693.39999999404,9683.3,9693.39999999404,9693.39999999404,9683.3,9693.39999999404,1,9693.39999999404,0,0,NA,"Click To Continue","Continue Button",22,"object-73","BIQ",NA,"SUPPRF33974"
"11",1702492607200,"13/12/2023 18:36:47",1702492607200,0,"13/12/2023 18:36:47",157047,5,"task-gjqt",NA,33647396,9958617,NA,"complete",NA,"6579f7be45eebb6b2b8eea0f","computer","Desktop or Laptop","Windows 10","Chrome 120.0.0.0","1536x864","1536x747",NA,NA,0,"BIQ (Charlotte)",3,"DECFBGAHJI","Passed AC2","","Self_focused_attention_first","Spreadsheet1",1,"BIQ","Screen 3","iz3the",3,"response","0",3383.3,9683.3,9694.19999997616,3383.3,9683.3,9694.19999997616,1,3383.3,6310.89999997616,0,NA,"Rating Scale","Rating Scale",2,"object-53","BIQ",NA,"SUPPRF33974"
"12",1702492607201,"13/12/2023 18:36:47",1702492607201,0,"13/12/2023 18:36:47",157047,5,"task-gjqt",NA,33647396,9958617,NA,"complete",NA,"6579f7be45eebb6b2b8eea0f","computer","Desktop or Laptop","Windows 10","Chrome 120.0.0.0","1536x864","1536x747",NA,NA,0,"BIQ (Charlotte)",3,"DECFBGAHJI","Passed AC2","","Self_focused_attention_first","Spreadsheet1",1,"BIQ","Screen 3","iz3the",3,"response","0",4700.5,9683.3,9694.59999998212,4700.5,9683.3,9694.59999998212,1,4700.5,4994.09999998212,0,NA,"Rating Scale","Rating Scale",9,"object-60","BIQ",NA,"SUPPRF33974"
"13",1702492607201,"13/12/2023 18:36:47",1702492607201,0,"13/12/2023 18:36:47",157047,5,"task-gjqt",NA,33647396,9958617,NA,"complete",NA,"6579f7be45eebb6b2b8eea0f","computer","Desktop or Laptop","Windows 10","Chrome 120.0.0.0","1536x864","1536x747",NA,NA,0,"BIQ (Charlotte)",3,"DECFBGAHJI","Passed AC2","","Self_focused_attention_first","Spreadsheet1",1,"BIQ","Screen 3","iz3the",3,"response","2",5866.7,9683.3,9695.19999997616,5866.7,9683.3,9695.19999997616,1,5866.7,3828.49999997616,0,NA,"Rating Scale","Rating Scale",16,"object-67","BIQ",NA,"SUPPRF33974"
"14",1702492607203,"13/12/2023 18:36:47",1702492607203,0,"13/12/2023 18:36:47",157047,5,"task-gjqt",NA,33647396,9958617,NA,"complete",NA,"6579f7be45eebb6b2b8eea0f","computer","Desktop or Laptop","Windows 10","Chrome 120.0.0.0","1536x864","1536x747",NA,NA,0,"BIQ (Charlotte)",3,"DECFBGAHJI","Passed AC2","","Self_focused_attention_first","Spreadsheet1",NA,"","","",NA,"5","END",NA,NA,NA,NA,NA,NA,0,NA,NA,NA,NA,"","",NA,"","",NA,"SUPPRF33974"
"1",1702492845738,"13/12/2023 18:40:45",1702474845738,-5,"13/12/2023 08:40:45",157047,5,"task-gjqt",NA,33647484,9958649,NA,"complete",NA,"6579f9f657e6bd9df97dc5f6","computer","Desktop or Laptop","Chromium OS 14541.0.0","Chrome 118.0.0.0","1366x768","1366x612",NA,NA,0,"BIQ (Charlotte)",3,"FGEHDICJBA","Passed AC2","","Self_focused_attention_first","Spreadsheet1",NA,"","","",NA,"5","BEGIN",NA,NA,NA,NA,NA,NA,0,NA,NA,NA,NA,"","",NA,"","",NA,"SUPPRF49764"
"2",1702492889258,"13/12/2023 18:41:29",1702474889258,-5,"13/12/2023 08:41:29",157047,5,"task-gjqt",NA,33647484,9958649,NA,"complete",NA,"6579f9f657e6bd9df97dc5f6","computer","Desktop or Laptop","Chromium OS 14541.0.0","Chrome 118.0.0.0","1366x768","1366x612",NA,NA,0,"BIQ (Charlotte)",3,"FGEHDICJBA","Passed AC2","","Self_focused_attention_first","Spreadsheet1",1,"BIQ","Screen 1","9dh6eq",1,"continue","",43531.678,43498.346,43531.678,43531.678,43498.346,43531.678,1,43531.678,0,0,NA,"Click To Continue","Continue Button",23,"object-48","BIQ",NA,"SUPPRF49764"
