"Event.Index","UTC.Timestamp","UTC.Date.and.Time","Local.Timestamp","Local.Timezone","Local.Date.and.Time","Experiment.ID","Experiment.Version","Tree.Node.Key","Repeat.Key","Schedule.ID","Participant.Private.ID","Participant.Starting.Group","Participant.Status","Participant.Completion.Code","Participant.External.Session.ID","Participant.Device.Type","Participant.Device","Participant.OS","Participant.Browser","Participant.Monitor.Size","Participant.Viewport.Size","Checkpoint","Room.ID","Room.Order","Task.Name","Task.Version","order.ot79","branch.g31k","branch.5gtn","Spreadsheet","Trial.Number","Display","Screen","Screen.ID","Screen.Counter","Response.Type","Response","Onset.Time","Clock.Time","Reaction.Time","Absolute.Onset.Time","Absolute.Clock.Time","Absolute.Reaction.Time","Correct","Response.Onset","Response.Duration","Proportion","Tag","Component.Name","Object.Name","Object.Number","Object.ID","Spreadsheet..display","Manipulation..Spreadsheet","Random_ID"
"1",1707940409646,"14/02/2024 19:53:29",1707940409646,0,"14/02/2024 19:53:29",165975,4,"task-v7r7",NA,35156900,10389048,NA,"complete",NA,"65cd1867a8c70a340c80a8be","computer","Desktop or Laptop","Windows 10","Chrome 121.0.0.0","1920x1080","1920x911",NA,NA,0,"Task Introduction and Instructions (re-introduce video and audio) (Clone)",3,"ABJCIDHEGF","Passed AC2",NA,"Spreadsheet1",NA,"","","",NA,"5","BEGIN",NA,NA,NA,NA,NA,NA,0,NA,NA,NA,NA,"","",NA,"","",NA,NA
"2",1707940413114,"14/02/2024 19:53:33",1707940413114,0,"14/02/2024 19:53:33",165975,4,"task-v7r7",NA,35156900,10389048,NA,"complete",NA,"65cd1867a8c70a340c80a8be","computer","Desktop or Laptop","Windows 10","Chrome 121.0.0.0","1920x1080","1920x911",NA,NA,0,"Task Introduction and Instructions (re-introduce video and audio) (Clone)",3,"ABJCIDHEGF","Passed AC2",NA,"Spreadsheet1",1,"Task Instructions","Screen 1","anr7sn",1,"continue","",3300.60000004768,3298.6,3300.60000004768,3300.60000004768,3298.6,3300.60000004768,1,3300.60000004768,0,0,NA,"Click To Continue","Continue Button",3,"object-60","Task Instructions",NA,NA
"3",1707940424794,"14/02/2024 19:53:44",1707940424794,0,"14/02/2024 19:53:44",165975,4,"task-v7r7",NA,35156900,10389048,NA,"complete",NA,"65cd1867a8c70a340c80a8be","computer","Desktop or Laptop","Windows 10","Chrome 121.0.0.0","1920x1080","1920x911",NA,NA,0,"Task Introduction and Instructions (re-introduce video and audio) (Clone)",3,"ABJCIDHEGF","Passed AC2",NA,"Spreadsheet1",1,"Task Instructions","Screen 2","ce2tc8",2,"continue","",11682.1000000715,11680.5,11682.1000000715,11682.1000000715,11680.5,11682.1000000715,1,11682.1000000715,0,0,NA,"Click To Continue","Continue Button",3,"object-59","Task Instructions",NA,NA
"4",1707940429482,"14/02/2024 19:53:49",1707940429482,0,"14/02/2024 19:53:49",165975,4,"task-v7r7",NA,35156900,10389048,NA,"complete",NA,"65cd1867a8c70a340c80a8be","computer","Desktop or Laptop","Windows 10","Chrome 121.0.0.0","1920x1080","1920x911",NA,NA,0,"Task Introduction and Instructions (re-introduce video and audio) (Clone)",3,"ABJCIDHEGF","Passed AC2",NA,"Spreadsheet1",1,"Task Instructions","Screen 3","1qtc8v",3,"continue","",4689.60000007152,4687.4,4689.60000007152,4689.60000007152,4687.4,4689.60000007152,1,4689.60000007152,0,0,NA,"Click To Continue","Continue Button",2,"object-2983","Task Instructions",NA,NA
"5",1707940441978,"14/02/2024 19:54:01",1707940441978,0,"14/02/2024 19:54:01",165975,4,"task-v7r7",NA,35156900,10389048,NA,"complete",NA,"65cd1867a8c70a340c80a8be","computer","Desktop or Laptop","Windows 10","Chrome 121.0.0.0","1920x1080","1920x911",NA,NA,0,"Task Introduction and Instructions (re-introduce video and audio) (Clone)",3,"ABJCIDHEGF","Passed AC2",NA,"Spreadsheet1",1,"Task Instructions","Screen 12","1a4vu2",4,"continue","",12498.4,12493,12498.4,12498.4,12493,12498.4,1,12498.4,0,0,NA,"Click To Continue","Continue Button",2,"object-2466","Task Instructions",NA,NA
"6",1707940447738,"14/02/2024 19:54:07",1707940447738,0,"14/02/2024 19:54:07",165975,4,"task-v7r7",NA,35156900,10389048,NA,"complete",NA,"65cd1867a8c70a340c80a8be","computer","Desktop or Laptop","Windows 10","Chrome 121.0.0.0","1920x1080","1920x911",NA,NA,0,"Task Introduction and Instructions (re-introduce video and audio) (Clone)",3,"ABJCIDHEGF","Passed AC2",NA,"Spreadsheet1",1,"Task Instructions","Screen 13","q9vwda",5,"continue","",5765.20000007153,5763.8,5765.20000007153,5765.20000007153,5763.8,5765.20000007153,1,5765.20000007153,0,0,NA,"Click To Continue","Continue Button",2,"object-2989","Task Instructions",NA,NA
"7",1707940450322,"14/02/2024 19:54:10",1707940450322,0,"14/02/2024 19:54:10",165975,4,"task-v7r7",NA,35156900,10389048,NA,"complete",NA,"65cd1867a8c70a340c80a8be","computer","Desktop or Laptop","Windows 10","Chrome 121.0.0.0","1920x1080","1920x911",NA,NA,0,"Task Introduction and Instructions (re-introduce video and audio) (Clone)",3,"ABJCIDHEGF","Passed AC2",NA,"Spreadsheet1",1,"Task Instructions","Screen 11","oyulb7",6,"continue","",2585.40000007152,2583.4,2585.40000007152,2585.40000007152,2583.4,2585.40000007152,1,2585.40000007152,0,0,NA,"Click To Continue","Continue Button",2,"object-52","Task Instructions",NA,NA
"8",1707940453634,"14/02/2024 19:54:13",1707940453634,0,"14/02/2024 19:54:13",165975,4,"task-v7r7",NA,35156900,10389048,NA,"complete",NA,"65cd1867a8c70a340c80a8be","computer","Desktop or Laptop","Windows 10","Chrome 121.0.0.0","1920x1080","1920x911",NA,NA,0,"Task Introduction and Instructions (re-introduce video and audio) (Clone)",3,"ABJCIDHEGF","Passed AC2",NA,"Spreadsheet1",1,"Task Instructions","Screen 4","spepx9",7,"continue","",3314.09999997616,3312.3,3314.09999997616,3314.09999997616,3312.3,3314.09999997616,1,3314.09999997616,0,0,NA,"Click To Continue","Continue Button",2,"object-9","Task Instructions",NA,NA
"9",1707940456426,"14/02/2024 19:54:16",1707940456426,0,"14/02/2024 19:54:16",165975,4,"task-v7r7",NA,35156900,10389048,NA,"complete",NA,"65cd1867a8c70a340c80a8be","computer","Desktop or Laptop","Windows 10","Chrome 121.0.0.0","1920x1080","1920x911",NA,NA,0,"Task Introduction and Instructions (re-introduce video and audio) (Clone)",3,"ABJCIDHEGF","Passed AC2",NA,"Spreadsheet1",1,"Task Instructions","Screen 5","8nvnao",8,"continue","",2793.70000007153,2791.7,2793.70000007153,2793.70000007153,2791.7,2793.70000007153,1,2793.70000007153,0,0,NA,"Click To Continue","Continue Button",2,"object-44","Task Instructions",NA,NA
"10",1707940456427,"14/02/2024 19:54:16",1707940456427,0,"14/02/2024 19:54:16",165975,4,"task-v7r7",NA,35156900,10389048,NA,"complete",NA,"65cd1867a8c70a340c80a8be","computer","Desktop or Laptop","Windows 10","Chrome 121.0.0.0","1920x1080","1920x911",NA,NA,0,"Task Introduction and Instructions (re-introduce video and audio) (Clone)",3,"ABJCIDHEGF","Passed AC2",NA,"Spreadsheet1",NA,"","","",NA,"5","END",NA,NA,NA,NA,NA,NA,0,NA,NA,NA,NA,"","",NA,"","",NA,NA
"1",1707940708451,"14/02/2024 19:58:28",1707922708451,-5,"14/02/2024 09:58:28",165975,4,"task-v7r7",NA,35157057,10389073,NA,"complete",NA,"65cd193ab210334c78dff783","computer","Desktop or Laptop","Mac OS 10.15.7","Chrome 120.0.0.0","1440x900","1440x684",NA,NA,0,"Task Introduction and Instructions (re-introduce video and audio) (Clone)",3,"BCADJEIFHG","Passed AC2",NA,"Spreadsheet1",NA,"","","",NA,"5","BEGIN",NA,NA,NA,NA,NA,NA,0,NA,NA,NA,NA,"","",NA,"","",NA,"SUPPRF73357"
"2",1707940712625,"14/02/2024 19:58:32",1707922712625,-5,"14/02/2024 09:58:32",165975,4,"task-v7r7",NA,35157057,10389073,NA,"complete",NA,"65cd193ab210334c78dff783","computer","Desktop or Laptop","Mac OS 10.15.7","Chrome 120.0.0.0","1440x900","1440x684",NA,NA,0,"Task Introduction and Instructions (re-introduce video and audio) (Clone)",3,"BCADJEIFHG","Passed AC2",NA,"Spreadsheet1",1,"Task Instructions","Screen 1","anr7sn",1,"continue","",3591.29999997616,3583.3,3591.29999997616,3591.29999997616,3583.3,3591.29999997616,1,3591.29999997616,0,0,NA,"Click To Continue","Continue Button",3,"object-60","Task Instructions",NA,"SUPPRF73357"
"3",1707940717798,"14/02/2024 19:58:37",1707922717798,-5,"14/02/2024 09:58:37",165975,4,"task-v7r7",NA,35157057,10389073,NA,"complete",NA,"65cd193ab210334c78dff783","computer","Desktop or Laptop","Mac OS 10.15.7","Chrome 120.0.0.0","1440x900","1440x684",NA,NA,0,"Task Introduction and Instructions (re-introduce video and audio) (Clone)",3,"BCADJEIFHG","Passed AC2",NA,"Spreadsheet1",1,"Task Instructions","Screen 2","ce2tc8",2,"continue","",5181.49999997616,5166.6,5181.49999997616,5181.49999997616,5166.6,5181.49999997616,1,5181.49999997616,0,0,NA,"Click To Continue","Continue Button",3,"object-59","Task Instructions",NA,"SUPPRF73357"
"4",1707940722561,"14/02/2024 19:58:42",1707922722561,-5,"14/02/2024 09:58:42",165975,4,"task-v7r7",NA,35157057,10389073,NA,"complete",NA,"65cd193ab210334c78dff783","computer","Desktop or Laptop","Mac OS 10.15.7","Chrome 120.0.0.0","1440x900","1440x684",NA,NA,0,"Task Introduction and Instructions (re-introduce video and audio) (Clone)",3,"BCADJEIFHG","Passed AC2",NA,"Spreadsheet1",1,"Task Instructions","Screen 3","1qtc8v",3,"continue","",4777.39999997616,4766.5,4777.39999997616,4777.39999997616,4766.5,4777.39999997616,1,4777.39999997616,0,0,NA,"Click To Continue","Continue Button",2,"object-2983","Task Instructions",NA,"SUPPRF73357"
"5",1707940728762,"14/02/2024 19:58:48",1707922728762,-5,"14/02/2024 09:58:48",165975,4,"task-v7r7",NA,35157057,10389073,NA,"complete",NA,"65cd193ab210334c78dff783","computer","Desktop or Laptop","Mac OS 10.15.7","Chrome 120.0.0.0","1440x900","1440x684",NA,NA,0,"Task Introduction and Instructions (re-introduce video and audio) (Clone)",3,"BCADJEIFHG","Passed AC2",NA,"Spreadsheet1",1,"Task Instructions","Screen 12","1a4vu2",4,"continue","",6212,6200,6212,6212,6200,6212,1,6212,0,0,NA,"Click To Continue","Continue Button",2,"object-2466","Task Instructions",NA,"SUPPRF73357"
"6",1707940734176,"14/02/2024 19:58:54",1707922734176,-5,"14/02/2024 09:58:54",165975,4,"task-v7r7",NA,35157057,10389073,NA,"complete",NA,"65cd193ab210334c78dff783","computer","Desktop or Laptop","Mac OS 10.15.7","Chrome 120.0.0.0","1440x900","1440x684",NA,NA,0,"Task Introduction and Instructions (re-introduce video and audio) (Clone)",3,"BCADJEIFHG","Passed AC2",NA,"Spreadsheet1",1,"Task Instructions","Screen 13","q9vwda",5,"continue","",5426,5416.5,5426,5426,5416.5,5426,1,5426,0,0,NA,"Click To Continue","Continue Button",2,"object-2989","Task Instructions",NA,"SUPPRF73357"
"7",1707940737406,"14/02/2024 19:58:57",1707922737406,-5,"14/02/2024 09:58:57",165975,4,"task-v7r7",NA,35157057,10389073,NA,"complete",NA,"65cd193ab210334c78dff783","computer","Desktop or Laptop","Mac OS 10.15.7","Chrome 120.0.0.0","1440x900","1440x684",NA,NA,0,"Task Introduction and Instructions (re-introduce video and audio) (Clone)",3,"BCADJEIFHG","Passed AC2",NA,"Spreadsheet1",1,"Task Instructions","Screen 11","oyulb7",6,"continue","",3238.89999997616,3233.2,3238.89999997616,3238.89999997616,3233.2,3238.89999997616,1,3238.89999997616,0,0,NA,"Click To Continue","Continue Button",2,"object-52","Task Instructions",NA,"SUPPRF73357"
"8",1707940748352,"14/02/2024 19:59:08",1707922748352,-5,"14/02/2024 09:59:08",165975,4,"task-v7r7",NA,35157057,10389073,NA,"complete",NA,"65cd193ab210334c78dff783","computer","Desktop or Laptop","Mac OS 10.15.7","Chrome 120.0.0.0","1440x900","1440x684",NA,NA,0,"Task Introduction and Instructions (re-introduce video and audio) (Clone)",3,"BCADJEIFHG","Passed AC2",NA,"Spreadsheet1",1,"Task Instructions","Screen 4","spepx9",7,"continue","",10950,10933.4,10950,10950,10933.4,10950,1,10950,0,0,NA,"Click To Continue","Continue Button",2,"object-9","Task Instructions",NA,"SUPPRF73357"
"9",1707940750803,"14/02/2024 19:59:10",1707922750803,-5,"14/02/2024 09:59:10",165975,4,"task-v7r7",NA,35157057,10389073,NA,"complete",NA,"65cd193ab210334c78dff783","computer","Desktop or Laptop","Mac OS 10.15.7","Chrome 120.0.0.0","1440x900","1440x684",NA,NA,0,"Task Introduction and Instructions (re-introduce video and audio) (Clone)",3,"BCADJEIFHG","Passed AC2",NA,"Spreadsheet1",1,"Task Instructions","Screen 5","8nvnao",8,"continue","",2468.49999990463,2466.6,2468.49999990463,2468.49999990463,2466.6,2468.49999990463,1,2468.49999990463,0,0,NA,"Click To Continue","Continue Button",2,"object-44","Task Instructions",NA,"SUPPRF73357"
"10",1707940750805,"14/02/2024 19:59:10",1707922750805,-5,"14/02/2024 09:59:10",165975,4,"task-v7r7",NA,35157057,10389073,NA,"complete",NA,"65cd193ab210334c78dff783","computer","Desktop or Laptop","Mac OS 10.15.7","Chrome 120.0.0.0","1440x900","1440x684",NA,NA,0,"Task Introduction and Instructions (re-introduce video and audio) (Clone)",3,"BCADJEIFHG","Passed AC2",NA,"Spreadsheet1",NA,"","","",NA,"5","END",NA,NA,NA,NA,NA,NA,0,NA,NA,NA,NA,"","",NA,"","",NA,"SUPPRF73357"
"1",1707943787776,"14/02/2024 20:49:47",1707943787776,0,"14/02/2024 20:49:47",165975,4,"task-v7r7",NA,35158453,10389205,NA,"complete",NA,"65cd1c256f7be3af7ebb1a2d","computer","Desktop or Laptop","Mac OS 10.15.7","Chrome 121.0.0.0","1440x900","1420x707",NA,NA,0,"Task Introduction and Instructions (re-introduce video and audio) (Clone)",3,"EFDGCHBIAJ","Passed AC2",NA,"Spreadsheet1",NA,"","","",NA,"5","BEGIN",NA,NA,NA,NA,NA,NA,0,NA,NA,NA,NA,"","",NA,"","",NA,"SUPPRF82095"
"2",1707943803228,"14/02/2024 20:50:03",1707943803228,0,"14/02/2024 20:50:03",165975,4,"task-v7r7",NA,35158453,10389205,NA,"complete",NA,"65cd1c256f7be3af7ebb1a2d","computer","Desktop or Laptop","Mac OS 10.15.7","Chrome 121.0.0.0","1440x900","1420x707",NA,NA,0,"Task Introduction and Instructions (re-introduce video and audio) (Clone)",3,"EFDGCHBIAJ","Passed AC2",NA,"Spreadsheet1",1,"Task Instructions","Screen 1","anr7sn",1,"continue","",14566.5000000022,14550.5,14566.5000000022,14566.5000000022,14550.5,14566.5000000022,1,14566.5000000022,0,0,NA,"Click To Continue","Continue Button",3,"object-60","Task Instructions",NA,"SUPPRF82095"
"3",1707943815877,"14/02/2024 20:50:15",1707943815877,0,"14/02/2024 20:50:15",165975,4,"task-v7r7",NA,35158453,10389205,NA,"complete",NA,"65cd1c256f7be3af7ebb1a2d","computer","Desktop or Laptop","Mac OS 10.15.7","Chrome 121.0.0.0","1440x900","1420x707",NA,NA,0,"Task Introduction and Instructions (re-introduce video and audio) (Clone)",3,"EFDGCHBIAJ","Passed AC2",NA,"Spreadsheet1",1,"Task Instructions","Screen 2","ce2tc8",2,"continue","",12665.6,12650.4,12665.6,12665.6,12650.4,12665.6,1,12665.6,0,0,NA,"Click To Continue","Continue Button",3,"object-59","Task Instructions",NA,"SUPPRF82095"
"4",1707943826510,"14/02/2024 20:50:26",1707943826510,0,"14/02/2024 20:50:26",165975,4,"task-v7r7",NA,35158453,10389205,NA,"complete",NA,"65cd1c256f7be3af7ebb1a2d","computer","Desktop or Laptop","Mac OS 10.15.7","Chrome 121.0.0.0","1440x900","1420x707",NA,NA,0,"Task Introduction and Instructions (re-introduce video and audio) (Clone)",3,"EFDGCHBIAJ","Passed AC2",NA,"Spreadsheet1",1,"Task Instructions","Screen 3","1qtc8v",3,"continue","",10649.0000000007,10633.6,10649.0000000007,10649.0000000007,10633.6,10649.0000000007,1,10649.0000000007,0,0,NA,"Click To Continue","Continue Button",2,"object-2983","Task Instructions",NA,"SUPPRF82095"
"5",1707943842543,"14/02/2024 20:50:42",1707943842543,0,"14/02/2024 20:50:42",165975,4,"task-v7r7",NA,35158453,10389205,NA,"complete",NA,"65cd1c256f7be3af7ebb1a2d","computer","Desktop or Laptop","Mac OS 10.15.7","Chrome 121.0.0.0","1440x900","1420x707",NA,NA,0,"Task Introduction and Instructions (re-introduce video and audio) (Clone)",3,"EFDGCHBIAJ","Passed AC2",NA,"Spreadsheet1",1,"Task Instructions","Screen 12","1a4vu2",4,"continue","",16048.7000000015,16033.9,16048.7000000015,16048.7000000015,16033.9,16048.7000000015,1,16048.7000000015,0,0,NA,"Click To Continue","Continue Button",2,"object-2466","Task Instructions",NA,"SUPPRF82095"
"6",1707943854075,"14/02/2024 20:50:54",1707943854075,0,"14/02/2024 20:50:54",165975,4,"task-v7r7",NA,35158453,10389205,NA,"complete",NA,"65cd1c256f7be3af7ebb1a2d","computer","Desktop or Laptop","Mac OS 10.15.7","Chrome 121.0.0.0","1440x900","1420x707",NA,NA,0,"Task Introduction and Instructions (re-introduce video and audio) (Clone)",3,"EFDGCHBIAJ","Passed AC2",NA,"Spreadsheet1",1,"Task Instructions","Screen 13","q9vwda",5,"continue","",11547.400000003,11533.7,11547.400000003,11547.400000003,11533.7,11547.400000003,1,11547.400000003,0,0,NA,"Click To Continue","Continue Button",2,"object-2989","Task Instructions",NA,"SUPPRF82095"
"7",1707943858792,"14/02/2024 20:50:58",1707943858792,0,"14/02/2024 20:50:58",165975,4,"task-v7r7",NA,35158453,10389205,NA,"complete",NA,"65cd1c256f7be3af7ebb1a2d","computer","Desktop or Laptop","Mac OS 10.15.7","Chrome 121.0.0.0","1440x900","1420x707",NA,NA,0,"Task Introduction and Instructions (re-introduce video and audio) (Clone)",3,"EFDGCHBIAJ","Passed AC2",NA,"Spreadsheet1",1,"Task Instructions","Screen 11","oyulb7",6,"continue","",4730.80000000075,4716.8,4730.80000000075,4730.80000000075,4716.8,4730.80000000075,1,4730.80000000075,0,0,NA,"Click To Continue","Continue Button",2,"object-52","Task Instructions",NA,"SUPPRF82095"
"8",1707943862376,"14/02/2024 20:51:02",1707943862376,0,"14/02/2024 20:51:02",165975,4,"task-v7r7",NA,35158453,10389205,NA,"complete",NA,"65cd1c256f7be3af7ebb1a2d","computer","Desktop or Laptop","Mac OS 10.15.7","Chrome 121.0.0.0","1440x900","1420x707",NA,NA,0,"Task Introduction and Instructions (re-introduce video and audio) (Clone)",3,"EFDGCHBIAJ","Passed AC2",NA,"Spreadsheet1",1,"Task Instructions","Screen 4","spepx9",7,"continue","",3598.30000000149,3583.39999999999,3598.30000000149,3598.30000000149,3583.39999999999,3598.30000000149,1,3598.30000000149,0,0,NA,"Click To Continue","Continue Button",2,"object-9","Task Instructions",NA,"SUPPRF82095"
"9",1707943865510,"14/02/2024 20:51:05",1707943865510,0,"14/02/2024 20:51:05",165975,4,"task-v7r7",NA,35158453,10389205,NA,"complete",NA,"65cd1c256f7be3af7ebb1a2d","computer","Desktop or Laptop","Mac OS 10.15.7","Chrome 121.0.0.0","1440x900","1420x707",NA,NA,0,"Task Introduction and Instructions (re-introduce video and audio) (Clone)",3,"EFDGCHBIAJ","Passed AC2",NA,"Spreadsheet1",1,"Task Instructions","Screen 5","8nvnao",8,"continue","",3148.50000000298,3133.40000000001,3148.50000000298,3148.50000000298,3133.40000000001,3148.50000000298,1,3148.50000000298,0,0,NA,"Click To Continue","Continue Button",2,"object-44","Task Instructions",NA,"SUPPRF82095"
"10",1707943865516,"14/02/2024 20:51:05",1707943865516,0,"14/02/2024 20:51:05",165975,4,"task-v7r7",NA,35158453,10389205,NA,"complete",NA,"65cd1c256f7be3af7ebb1a2d","computer","Desktop or Laptop","Mac OS 10.15.7","Chrome 121.0.0.0","1440x900","1420x707",NA,NA,0,"Task Introduction and Instructions (re-introduce video and audio) (Clone)",3,"EFDGCHBIAJ","Passed AC2",NA,"Spreadsheet1",NA,"","","",NA,"5","END",NA,NA,NA,NA,NA,NA,0,NA,NA,NA,NA,"","",NA,"","",NA,"SUPPRF82095"
"1",1707942098029,"14/02/2024 20:21:38",1707920498029,-6,"14/02/2024 08:21:38",165975,4,"task-v7r7",NA,35157776,10389250,NA,"complete",NA,"65cd1e48f963d201475b76d4","computer","Desktop or Laptop","Windows 10","Chrome 121.0.0.0","1920x1080","1920x953",NA,NA,0,"Task Introduction and Instructions (re-introduce video and audio) (Clone)",3,"DECFBGAHJI","Passed AC2",NA,"Spreadsheet1",NA,"","","",NA,"5","BEGIN",NA,NA,NA,NA,NA,NA,0,NA,NA,NA,NA,"","",NA,"","",NA,"SUPPRF29203"
"2",1707942101670,"14/02/2024 20:21:41",1707920501670,-6,"14/02/2024 08:21:41",165975,4,"task-v7r7",NA,35157776,10389250,NA,"complete",NA,"65cd1e48f963d201475b76d4","computer","Desktop or Laptop","Windows 10","Chrome 121.0.0.0","1920x1080","1920x953",NA,NA,0,"Task Introduction and Instructions (re-introduce video and audio) (Clone)",3,"DECFBGAHJI","Passed AC2",NA,"Spreadsheet1",1,"Task Instructions","Screen 1","anr7sn",1,"continue","",3000,2993,3000,3000,2993,3000,1,3000,0,0,NA,"Click To Continue","Continue Button",3,"object-60","Task Instructions",NA,"SUPPRF29203"
"3",1707942109397,"14/02/2024 20:21:49",1707920509397,-6,"14/02/2024 08:21:49",165975,4,"task-v7r7",NA,35157776,10389250,NA,"complete",NA,"65cd1e48f963d201475b76d4","computer","Desktop or Laptop","Windows 10","Chrome 121.0.0.0","1920x1080","1920x953",NA,NA,0,"Task Introduction and Instructions (re-introduce video and audio) (Clone)",3,"DECFBGAHJI","Passed AC2",NA,"Spreadsheet1",1,"Task Instructions","Screen 2","ce2tc8",2,"continue","",7733.79999997616,7729.1,7733.79999997616,7733.79999997616,7729.1,7733.79999997616,1,7733.79999997616,0,0,NA,"Click To Continue","Continue Button",3,"object-59","Task Instructions",NA,"SUPPRF29203"
"4",1707942114608,"14/02/2024 20:21:54",1707920514608,-6,"14/02/2024 08:21:54",165975,4,"task-v7r7",NA,35157776,10389250,NA,"complete",NA,"65cd1e48f963d201475b76d4","computer","Desktop or Laptop","Windows 10","Chrome 121.0.0.0","1920x1080","1920x953",NA,NA,0,"Task Introduction and Instructions (re-introduce video and audio) (Clone)",3,"DECFBGAHJI","Passed AC2",NA,"Spreadsheet1",1,"Task Instructions","Screen 3","1qtc8v",3,"continue","",5215.2,5208.3,5215.2,5215.2,5208.3,5215.2,1,5215.2,0,0,NA,"Click To Continue","Continue Button",2,"object-2983","Task Instructions",NA,"SUPPRF29203"
"5",1707942121411,"14/02/2024 20:22:01",1707920521411,-6,"14/02/2024 08:22:01",165975,4,"task-v7r7",NA,35157776,10389250,NA,"complete",NA,"65cd1e48f963d201475b76d4","computer","Desktop or Laptop","Windows 10","Chrome 121.0.0.0","1920x1080","1920x953",NA,NA,0,"Task Introduction and Instructions (re-introduce video and audio) (Clone)",3,"DECFBGAHJI","Passed AC2",NA,"Spreadsheet1",1,"Task Instructions","Screen 12","1a4vu2",4,"continue","",6810.89999997616,6805.5,6810.89999997616,6810.89999997616,6805.5,6810.89999997616,1,6810.89999997616,0,0,NA,"Click To Continue","Continue Button",2,"object-2466","Task Instructions",NA,"SUPPRF29203"
"6",1707942126147,"14/02/2024 20:22:06",1707920526147,-6,"14/02/2024 08:22:06",165975,4,"task-v7r7",NA,35157776,10389250,NA,"complete",NA,"65cd1e48f963d201475b76d4","computer","Desktop or Laptop","Windows 10","Chrome 121.0.0.0","1920x1080","1920x953",NA,NA,0,"Task Introduction and Instructions (re-introduce video and audio) (Clone)",3,"DECFBGAHJI","Passed AC2",NA,"Spreadsheet1",1,"Task Instructions","Screen 13","q9vwda",5,"continue","",4740.70000004768,4736.2,4740.70000004768,4740.70000004768,4736.2,4740.70000004768,1,4740.70000004768,0,0,NA,"Click To Continue","Continue Button",2,"object-2989","Task Instructions",NA,"SUPPRF29203"
"7",1707942129142,"14/02/2024 20:22:09",1707920529142,-6,"14/02/2024 08:22:09",165975,4,"task-v7r7",NA,35157776,10389250,NA,"complete",NA,"65cd1e48f963d201475b76d4","computer","Desktop or Laptop","Windows 10","Chrome 121.0.0.0","1920x1080","1920x953",NA,NA,0,"Task Introduction and Instructions (re-introduce video and audio) (Clone)",3,"DECFBGAHJI","Passed AC2",NA,"Spreadsheet1",1,"Task Instructions","Screen 11","oyulb7",6,"continue","",3000,2993,3000,3000,2993,3000,1,3000,0,0,NA,"Click To Continue","Continue Button",2,"object-52","Task Instructions",NA,"SUPPRF29203"
"8",1707942131888,"14/02/2024 20:22:11",1707920531888,-6,"14/02/2024 08:22:11",165975,4,"task-v7r7",NA,35157776,10389250,NA,"complete",NA,"65cd1e48f963d201475b76d4","computer","Desktop or Laptop","Windows 10","Chrome 121.0.0.0","1920x1080","1920x953",NA,NA,0,"Task Introduction and Instructions (re-introduce video and audio) (Clone)",3,"DECFBGAHJI","Passed AC2",NA,"Spreadsheet1",1,"Task Instructions","Screen 4","spepx9",7,"continue","",2752.3,2750,2752.3,2752.3,2750,2752.3,1,2752.3,0,0,NA,"Click To Continue","Continue Button",2,"object-9","Task Instructions",NA,"SUPPRF29203"
"9",1707942134679,"14/02/2024 20:22:14",1707920534679,-6,"14/02/2024 08:22:14",165975,4,"task-v7r7",NA,35157776,10389250,NA,"complete",NA,"65cd1e48f963d201475b76d4","computer","Desktop or Laptop","Windows 10","Chrome 121.0.0.0","1920x1080","1920x953",NA,NA,0,"Task Introduction and Instructions (re-introduce video and audio) (Clone)",3,"DECFBGAHJI","Passed AC2",NA,"Spreadsheet1",1,"Task Instructions","Screen 5","8nvnao",8,"continue","",2793.59999995232,2791.7,2793.59999995232,2793.59999995232,2791.7,2793.59999995232,1,2793.59999995232,0,0,NA,"Click To Continue","Continue Button",2,"object-44","Task Instructions",NA,"SUPPRF29203"
"10",1707942134680,"14/02/2024 20:22:14",1707920534680,-6,"14/02/2024 08:22:14",165975,4,"task-v7r7",NA,35157776,10389250,NA,"complete",NA,"65cd1e48f963d201475b76d4","computer","Desktop or Laptop","Windows 10","Chrome 121.0.0.0","1920x1080","1920x953",NA,NA,0,"Task Introduction and Instructions (re-introduce video and audio) (Clone)",3,"DECFBGAHJI","Passed AC2",NA,"Spreadsheet1",NA,"","","",NA,"5","END",NA,NA,NA,NA,NA,NA,0,NA,NA,NA,NA,"","",NA,"","",NA,"SUPPRF29203"
"1",1707942455737,"14/02/2024 20:27:35",1707942455737,0,"14/02/2024 20:27:35",165975,4,"task-v7r7",NA,35157910,10389285,NA,"complete",NA,"65cd1f657ceb9cd7d4dfacc3","computer","Desktop or Laptop","Mac OS 10.15.7","Chrome 95.0.4638.54","1440x900","1440x821",NA,NA,0,"Task Introduction and Instructions (re-introduce video and audio) (Clone)",3,"FGEHDICJBA","Passed AC2",NA,"Spreadsheet1",NA,"","","",NA,"5","BEGIN",NA,NA,NA,NA,NA,NA,0,NA,NA,NA,NA,"","",NA,"","",NA,"SUPPRF29384"
"2",1707942459189,"14/02/2024 20:27:39",1707942459189,0,"14/02/2024 20:27:39",165975,4,"task-v7r7",NA,35157910,10389285,NA,"complete",NA,"65cd1f657ceb9cd7d4dfacc3","computer","Desktop or Laptop","Mac OS 10.15.7","Chrome 95.0.4638.54","1440x900","1440x821",NA,NA,0,"Task Introduction and Instructions (re-introduce video and audio) (Clone)",3,"FGEHDICJBA","Passed AC2",NA,"Spreadsheet1",1,"Task Instructions","Screen 1","anr7sn",1,"continue","",3246.15899997616,3233.398,3246.15899997616,3246.15899997616,3233.398,3246.15899997616,1,3246.15899997616,0,0,NA,"Click To Continue","Continue Button",3,"object-60","Task Instructions",NA,"SUPPRF29384"
"3",1707942468037,"14/02/2024 20:27:48",1707942468037,0,"14/02/2024 20:27:48",165975,4,"task-v7r7",NA,35157910,10389285,NA,"complete",NA,"65cd1f657ceb9cd7d4dfacc3","computer","Desktop or Laptop","Mac OS 10.15.7","Chrome 95.0.4638.54","1440x900","1440x821",NA,NA,0,"Task Introduction and Instructions (re-introduce video and audio) (Clone)",3,"FGEHDICJBA","Passed AC2",NA,"Spreadsheet1",1,"Task Instructions","Screen 2","ce2tc8",2,"continue","",8861.16099998212,8850.177,8861.16099998212,8861.16099998212,8850.177,8861.16099998212,1,8861.16099998212,0,0,NA,"Click To Continue","Continue Button",3,"object-59","Task Instructions",NA,"SUPPRF29384"
"4",1707942473932,"14/02/2024 20:27:53",1707942473932,0,"14/02/2024 20:27:53",165975,4,"task-v7r7",NA,35157910,10389285,NA,"complete",NA,"65cd1f657ceb9cd7d4dfacc3","computer","Desktop or Laptop","Mac OS 10.15.7","Chrome 95.0.4638.54","1440x900","1440x821",NA,NA,0,"Task Introduction and Instructions (re-introduce video and audio) (Clone)",3,"FGEHDICJBA","Passed AC2",NA,"Spreadsheet1",1,"Task Instructions","Screen 3","1qtc8v",3,"continue","",5905.684,5900.808,5905.684,5905.684,5900.808,5905.684,1,5905.684,0,0,NA,"Click To Continue","Continue Button",2,"object-2983","Task Instructions",NA,"SUPPRF29384"
"5",1707942482072,"14/02/2024 20:28:02",1707942482072,0,"14/02/2024 20:28:02",165975,4,"task-v7r7",NA,35157910,10389285,NA,"complete",NA,"65cd1f657ceb9cd7d4dfacc3","computer","Desktop or Laptop","Mac OS 10.15.7","Chrome 95.0.4638.54","1440x900","1440x821",NA,NA,0,"Task Introduction and Instructions (re-introduce video and audio) (Clone)",3,"FGEHDICJBA","Passed AC2",NA,"Spreadsheet1",1,"Task Instructions","Screen 12","1a4vu2",4,"continue","",8145.47599999404,8133.496,8145.47599999404,8145.47599999404,8133.496,8145.47599999404,1,8145.47599999404,0,0,NA,"Click To Continue","Continue Button",2,"object-2466","Task Instructions",NA,"SUPPRF29384"
"6",1707942487070,"14/02/2024 20:28:07",1707942487070,0,"14/02/2024 20:28:07",165975,4,"task-v7r7",NA,35157910,10389285,NA,"complete",NA,"65cd1f657ceb9cd7d4dfacc3","computer","Desktop or Laptop","Mac OS 10.15.7","Chrome 95.0.4638.54","1440x900","1440x821",NA,NA,0,"Task Introduction and Instructions (re-introduce video and audio) (Clone)",3,"FGEHDICJBA","Passed AC2",NA,"Spreadsheet1",1,"Task Instructions","Screen 13","q9vwda",5,"continue","",5009.07999998808,5000.73,5009.07999998808,5009.07999998808,5000.73,5009.07999998808,1,5009.07999998808,0,0,NA,"Click To Continue","Continue Button",2,"object-2989","Task Instructions",NA,"SUPPRF29384"
"7",1707942489785,"14/02/2024 20:28:09",1707942489785,0,"14/02/2024 20:28:09",165975,4,"task-v7r7",NA,35157910,10389285,NA,"complete",NA,"65cd1f657ceb9cd7d4dfacc3","computer","Desktop or Laptop","Mac OS 10.15.7","Chrome 95.0.4638.54","1440x900","1440x821",NA,NA,0,"Task Introduction and Instructions (re-introduce video and audio) (Clone)",3,"FGEHDICJBA","Passed AC2",NA,"Spreadsheet1",1,"Task Instructions","Screen 11","oyulb7",6,"continue","",2724.15,2716.72100000001,2724.15,2724.15,2716.72100000001,2724.15,1,2724.15,0,0,NA,"Click To Continue","Continue Button",2,"object-52","Task Instructions",NA,"SUPPRF29384"
"8",1707942492134,"14/02/2024 20:28:12",1707942492134,0,"14/02/2024 20:28:12",165975,4,"task-v7r7",NA,35157910,10389285,NA,"complete",NA,"65cd1f657ceb9cd7d4dfacc3","computer","Desktop or Laptop","Mac OS 10.15.7","Chrome 95.0.4638.54","1440x900","1440x821",NA,NA,0,"Task Introduction and Instructions (re-introduce video and audio) (Clone)",3,"FGEHDICJBA","Passed AC2",NA,"Spreadsheet1",1,"Task Instructions","Screen 4","spepx9",7,"continue","",2355.62899998808,2350.047,2355.62899998808,2355.62899998808,2350.047,2355.62899998808,1,2355.62899998808,0,0,NA,"Click To Continue","Continue Button",2,"object-9","Task Instructions",NA,"SUPPRF29384"
"9",1707942494586,"14/02/2024 20:28:14",1707942494586,0,"14/02/2024 20:28:14",165975,4,"task-v7r7",NA,35157910,10389285,NA,"complete",NA,"65cd1f657ceb9cd7d4dfacc3","computer","Desktop or Laptop","Mac OS 10.15.7","Chrome 95.0.4638.54","1440x900","1440x821",NA,NA,0,"Task Introduction and Instructions (re-introduce video and audio) (Clone)",3,"FGEHDICJBA","Passed AC2",NA,"Spreadsheet1",1,"Task Instructions","Screen 5","8nvnao",8,"continue","",2457.58199998808,2450.596,2457.58199998808,2457.58199998808,2450.596,2457.58199998808,1,2457.58199998808,0,0,NA,"Click To Continue","Continue Button",2,"object-44","Task Instructions",NA,"SUPPRF29384"
"10",1707942494599,"14/02/2024 20:28:14",1707942494599,0,"14/02/2024 20:28:14",165975,4,"task-v7r7",NA,35157910,10389285,NA,"complete",NA,"65cd1f657ceb9cd7d4dfacc3","computer","Desktop or Laptop","Mac OS 10.15.7","Chrome 95.0.4638.54","1440x900","1440x821",NA,NA,0,"Task Introduction and Instructions (re-introduce video and audio) (Clone)",3,"FGEHDICJBA","Passed AC2",NA,"Spreadsheet1",NA,"","","",NA,"5","END",NA,NA,NA,NA,NA,NA,0,NA,NA,NA,NA,"","",NA,"","",NA,"SUPPRF29384"
"1",1707944904890,"14/02/2024 21:08:24",1707948504890,1,"14/02/2024 23:08:24",165975,4,"task-v7r7",NA,35158911,10389435,NA,"complete",NA,"65cd2321df8f04f73b0873bb","computer","Desktop or Laptop","Windows 10","Chrome 107.0.0.0","1536x864","1536x730",NA,NA,0,"Task Introduction and Instructions (re-introduce video and audio) (Clone)",3,"GHFIEJDACB","Passed AC2",NA,"Spreadsheet1",NA,"","","",NA,"5","BEGIN",NA,NA,NA,NA,NA,NA,0,NA,NA,NA,NA,"","",NA,"","",NA,"SUPPRF74532"
"2",1707944911665,"14/02/2024 21:08:31",1707948511665,1,"14/02/2024 23:08:31",165975,4,"task-v7r7",NA,35158911,10389435,NA,"complete",NA,"65cd2321df8f04f73b0873bb","computer","Desktop or Laptop","Windows 10","Chrome 107.0.0.0","1536x864","1536x730",NA,NA,0,"Task Introduction and Instructions (re-introduce video and audio) (Clone)",3,"GHFIEJDACB","Passed AC2",NA,"Spreadsheet1",1,"Task Instructions","Screen 1","anr7sn",1,"continue","",5617.10000009537,5615.8,5617.10000009537,5617.10000009537,5615.8,5617.10000009537,1,5617.10000009537,0,0,NA,"Click To Continue","Continue Button",3,"object-60","Task Instructions",NA,"SUPPRF74532"
"3",1707944968548,"14/02/2024 21:09:28",1707948568548,1,"14/02/2024 23:09:28",165975,4,"task-v7r7",NA,35158911,10389435,NA,"complete",NA,"65cd2321df8f04f73b0873bb","computer","Desktop or Laptop","Windows 10","Chrome 107.0.0.0","1536x864","1536x730",NA,NA,0,"Task Introduction and Instructions (re-introduce video and audio) (Clone)",3,"GHFIEJDACB","Passed AC2",NA,"Spreadsheet1",1,"Task Instructions","Screen 2","ce2tc8",2,"continue","",56883.8000000954,56879.9,56883.8000000954,56883.8000000954,56879.9,56883.8000000954,1,56883.8000000954,0,0,NA,"Click To Continue","Continue Button",3,"object-59","Task Instructions",NA,"SUPPRF74532"
"4",1707944991292,"14/02/2024 21:09:51",1707948591292,1,"14/02/2024 23:09:51",165975,4,"task-v7r7",NA,35158911,10389435,NA,"complete",NA,"65cd2321df8f04f73b0873bb","computer","Desktop or Laptop","Windows 10","Chrome 107.0.0.0","1536x864","1536x730",NA,NA,0,"Task Introduction and Instructions (re-introduce video and audio) (Clone)",3,"GHFIEJDACB","Passed AC2",NA,"Spreadsheet1",1,"Task Instructions","Screen 3","1qtc8v",3,"continue","",22748.2000000477,22732.2,22748.2000000477,22748.2000000477,22732.2,22748.2000000477,1,22748.2000000477,0,0,NA,"Click To Continue","Continue Button",2,"object-2983","Task Instructions",NA,"SUPPRF74532"
"5",1707945031637,"14/02/2024 21:10:31",1707948631637,1,"14/02/2024 23:10:31",165975,4,"task-v7r7",NA,35158911,10389435,NA,"complete",NA,"65cd2321df8f04f73b0873bb","computer","Desktop or Laptop","Windows 10","Chrome 107.0.0.0","1536x864","1536x730",NA,NA,0,"Task Introduction and Instructions (re-introduce video and audio) (Clone)",3,"GHFIEJDACB","Passed AC2",NA,"Spreadsheet1",1,"Task Instructions","Screen 12","1a4vu2",4,"continue","",40360.6000000715,40348,40360.6000000715,40360.6000000715,40348,40360.6000000715,1,40360.6000000715,0,0,NA,"Click To Continue","Continue Button",2,"object-2466","Task Instructions",NA,"SUPPRF74532"
"6",1707945049240,"14/02/2024 21:10:49",1707948649240,1,"14/02/2024 23:10:49",165975,4,"task-v7r7",NA,35158911,10389435,NA,"complete",NA,"65cd2321df8f04f73b0873bb","computer","Desktop or Laptop","Windows 10","Chrome 107.0.0.0","1536x864","1536x730",NA,NA,0,"Task Introduction and Instructions (re-introduce video and audio) (Clone)",3,"GHFIEJDACB","Passed AC2",NA,"Spreadsheet1",1,"Task Instructions","Screen 13","q9vwda",5,"continue","",17615.6000000715,17615,17615.6000000715,17615.6000000715,17615,17615.6000000715,1,17615.6000000715,0,0,NA,"Click To Continue","Continue Button",2,"object-2989","Task Instructions",NA,"SUPPRF74532"
"7",1707945056107,"14/02/2024 21:10:56",1707948656107,1,"14/02/2024 23:10:56",165975,4,"task-v7r7",NA,35158911,10389435,NA,"complete",NA,"65cd2321df8f04f73b0873bb","computer","Desktop or Laptop","Windows 10","Chrome 107.0.0.0","1536x864","1536x730",NA,NA,0,"Task Introduction and Instructions (re-introduce video and audio) (Clone)",3,"GHFIEJDACB","Passed AC2",NA,"Spreadsheet1",1,"Task Instructions","Screen 11","oyulb7",6,"continue","",6867.79999999999,6866.19999999998,6867.79999999999,6867.79999999999,6866.19999999998,6867.79999999999,1,6867.79999999999,0,0,NA,"Click To Continue","Continue Button",2,"object-52","Task Instructions",NA,"SUPPRF74532"
"8",1707945060409,"14/02/2024 21:11:00",1707948660409,1,"14/02/2024 23:11:00",165975,4,"task-v7r7",NA,35158911,10389435,NA,"complete",NA,"65cd2321df8f04f73b0873bb","computer","Desktop or Laptop","Windows 10","Chrome 107.0.0.0","1536x864","1536x730",NA,NA,0,"Task Introduction and Instructions (re-introduce video and audio) (Clone)",3,"GHFIEJDACB","Passed AC2",NA,"Spreadsheet1",1,"Task Instructions","Screen 4","spepx9",7,"continue","",4304.00000009537,4299.70000000001,4304.00000009537,4304.00000009537,4299.70000000001,4304.00000009537,1,4304.00000009537,0,0,NA,"Click To Continue","Continue Button",2,"object-9","Task Instructions",NA,"SUPPRF74532"
"9",1707945063661,"14/02/2024 21:11:03",1707948663661,1,"14/02/2024 23:11:03",165975,4,"task-v7r7",NA,35158911,10389435,NA,"complete",NA,"65cd2321df8f04f73b0873bb","computer","Desktop or Laptop","Windows 10","Chrome 107.0.0.0","1536x864","1536x730",NA,NA,0,"Task Introduction and Instructions (re-introduce video and audio) (Clone)",3,"GHFIEJDACB","Passed AC2",NA,"Spreadsheet1",1,"Task Instructions","Screen 5","8nvnao",8,"continue","",3256.30000009536,3249.89999999999,3256.30000009536,3256.30000009536,3249.89999999999,3256.30000009536,1,3256.30000009536,0,0,NA,"Click To Continue","Continue Button",2,"object-44","Task Instructions",NA,"SUPPRF74532"
"10",1707945063662,"14/02/2024 21:11:03",1707948663662,1,"14/02/2024 23:11:03",165975,4,"task-v7r7",NA,35158911,10389435,NA,"complete",NA,"65cd2321df8f04f73b0873bb","computer","Desktop or Laptop","Windows 10","Chrome 107.0.0.0","1536x864","1536x730",NA,NA,0,"Task Introduction and Instructions (re-introduce video and audio) (Clone)",3,"GHFIEJDACB","Passed AC2",NA,"Spreadsheet1",NA,"","","",NA,"5","END",NA,NA,NA,NA,NA,NA,0,NA,NA,NA,NA,"","",NA,"","",NA,"SUPPRF74532"
"1",1707944199727,"14/02/2024 20:56:39",1707947799727,1,"14/02/2024 22:56:39",165975,4,"task-v7r7",NA,35158624,10389452,NA,"complete",NA,"65cd240b9901cef693c9dee4","computer","Desktop or Laptop","Windows 10","Chrome 121.0.0.0","1920x1080","1920x991",NA,NA,0,"Task Introduction and Instructions (re-introduce video and audio) (Clone)",3,"HIGJFAEBDC","Passed AC2",NA,"Spreadsheet1",NA,"","","",NA,"5","BEGIN",NA,NA,NA,NA,NA,NA,0,NA,NA,NA,NA,"","",NA,"","",NA,"SUPPRF79953"
"2",1707944224563,"14/02/2024 20:57:04",1707947824563,1,"14/02/2024 22:57:04",165975,4,"task-v7r7",NA,35158624,10389452,NA,"complete",NA,"65cd240b9901cef693c9dee4","computer","Desktop or Laptop","Windows 10","Chrome 121.0.0.0","1920x1080","1920x991",NA,NA,0,"Task Introduction and Instructions (re-introduce video and audio) (Clone)",3,"HIGJFAEBDC","Passed AC2",NA,"Spreadsheet1",1,"Task Instructions","Screen 1","anr7sn",1,"continue","",23761.099999997,23746.9,23761.099999997,23761.099999997,23746.9,23761.099999997,1,23761.099999997,0,0,NA,"Click To Continue","Continue Button",3,"object-60","Task Instructions",NA,"SUPPRF79953"
"3",1707944250681,"14/02/2024 20:57:30",1707947850681,1,"14/02/2024 22:57:30",165975,4,"task-v7r7",NA,35158624,10389452,NA,"complete",NA,"65cd240b9901cef693c9dee4","computer","Desktop or Laptop","Windows 10","Chrome 121.0.0.0","1920x1080","1920x991",NA,NA,0,"Task Introduction and Instructions (re-introduce video and audio) (Clone)",3,"HIGJFAEBDC","Passed AC2",NA,"Spreadsheet1",1,"Task Instructions","Screen 2","ce2tc8",2,"continue","",26130.9,26113.9,26130.9,26130.9,26113.9,26130.9,1,26130.9,0,0,NA,"Click To Continue","Continue Button",3,"object-59","Task Instructions",NA,"SUPPRF79953"
"4",1707944271347,"14/02/2024 20:57:51",1707947871347,1,"14/02/2024 22:57:51",165975,4,"task-v7r7",NA,35158624,10389452,NA,"complete",NA,"65cd240b9901cef693c9dee4","computer","Desktop or Laptop","Windows 10","Chrome 121.0.0.0","1920x1080","1920x991",NA,NA,0,"Task Introduction and Instructions (re-introduce video and audio) (Clone)",3,"HIGJFAEBDC","Passed AC2",NA,"Spreadsheet1",1,"Task Instructions","Screen 3","1qtc8v",3,"continue","",20683.799999997,20680.3,20683.799999997,20683.799999997,20680.3,20683.799999997,1,20683.799999997,0,0,NA,"Click To Continue","Continue Button",2,"object-2983","Task Instructions",NA,"SUPPRF79953"
"5",1707944295317,"14/02/2024 20:58:15",1707947895317,1,"14/02/2024 22:58:15",165975,4,"task-v7r7",NA,35158624,10389452,NA,"complete",NA,"65cd240b9901cef693c9dee4","computer","Desktop or Laptop","Windows 10","Chrome 121.0.0.0","1920x1080","1920x991",NA,NA,0,"Task Introduction and Instructions (re-introduce video and audio) (Clone)",3,"HIGJFAEBDC","Passed AC2",NA,"Spreadsheet1",1,"Task Instructions","Screen 12","1a4vu2",4,"continue","",23972.8999999955,23964.1,23972.8999999955,23972.8999999955,23964.1,23972.8999999955,1,23972.8999999955,0,0,NA,"Click To Continue","Continue Button",2,"object-2466","Task Instructions",NA,"SUPPRF79953"
"6",1707944332152,"14/02/2024 20:58:52",1707947932152,1,"14/02/2024 22:58:52",165975,4,"task-v7r7",NA,35158624,10389452,NA,"complete",NA,"65cd240b9901cef693c9dee4","computer","Desktop or Laptop","Windows 10","Chrome 121.0.0.0","1920x1080","1920x991",NA,NA,0,"Task Introduction and Instructions (re-introduce video and audio) (Clone)",3,"HIGJFAEBDC","Passed AC2",NA,"Spreadsheet1",1,"Task Instructions","Screen 13","q9vwda",5,"continue","",36844.2000000015,36828.3,36844.2000000015,36844.2000000015,36828.3,36844.2000000015,1,36844.2000000015,0,0,NA,"Click To Continue","Continue Button",2,"object-2989","Task Instructions",NA,"SUPPRF79953"
"7",1707944336387,"14/02/2024 20:58:56",1707947936387,1,"14/02/2024 22:58:56",165975,4,"task-v7r7",NA,35158624,10389452,NA,"complete",NA,"65cd240b9901cef693c9dee4","computer","Desktop or Laptop","Windows 10","Chrome 121.0.0.0","1920x1080","1920x991",NA,NA,0,"Task Introduction and Instructions (re-introduce video and audio) (Clone)",3,"HIGJFAEBDC","Passed AC2",NA,"Spreadsheet1",1,"Task Instructions","Screen 11","oyulb7",6,"continue","",4249.59999999998,4232.79999999999,4249.59999999998,4249.59999999998,4232.79999999999,4249.59999999998,1,4249.59999999998,0,0,NA,"Click To Continue","Continue Button",2,"object-52","Task Instructions",NA,"SUPPRF79953"
"8",1707945144956,"14/02/2024 21:12:24",1707948744956,1,"14/02/2024 23:12:24",165975,4,"task-v7r7",NA,35158624,10389452,NA,"complete",NA,"65cd240b9901cef693c9dee4","computer","Desktop or Laptop","Windows 10","Chrome 121.0.0.0","1920x1080","1920x991",NA,NA,0,"Task Introduction and Instructions (re-introduce video and audio) (Clone)",3,"HIGJFAEBDC","Passed AC2",NA,"Spreadsheet1",1,"Task Instructions","Screen 4","spepx9",7,"continue","",808554,808537.5,808554,808554,808537.5,808554,1,808554,0,0,NA,"Click To Continue","Continue Button",2,"object-9","Task Instructions",NA,"SUPPRF79953"
"9",1707945150031,"14/02/2024 21:12:30",1707948750031,1,"14/02/2024 23:12:30",165975,4,"task-v7r7",NA,35158624,10389452,NA,"complete",NA,"65cd240b9901cef693c9dee4","computer","Desktop or Laptop","Windows 10","Chrome 121.0.0.0","1920x1080","1920x991",NA,NA,0,"Task Introduction and Instructions (re-introduce video and audio) (Clone)",3,"HIGJFAEBDC","Passed AC2",NA,"Spreadsheet1",1,"Task Instructions","Screen 5","8nvnao",8,"continue","",5135.60000000149,5132.90000000002,5135.60000000149,5135.60000000149,5132.90000000002,5135.60000000149,1,5135.60000000149,0,0,NA,"Click To Continue","Continue Button",2,"object-44","Task Instructions",NA,"SUPPRF79953"
"10",1707945150074,"14/02/2024 21:12:30",1707948750074,1,"14/02/2024 23:12:30",165975,4,"task-v7r7",NA,35158624,10389452,NA,"complete",NA,"65cd240b9901cef693c9dee4","computer","Desktop or Laptop","Windows 10","Chrome 121.0.0.0","1920x1080","1920x991",NA,NA,0,"Task Introduction and Instructions (re-introduce video and audio) (Clone)",3,"HIGJFAEBDC","Passed AC2",NA,"Spreadsheet1",NA,"","","",NA,"5","END",NA,NA,NA,NA,NA,NA,0,NA,NA,NA,NA,"","",NA,"","",NA,"SUPPRF79953"
"1",1707944168588,"14/02/2024 20:56:08",1707944168588,0,"14/02/2024 20:56:08",165975,4,"task-v7r7",NA,35158614,10389500,NA,"complete",NA,"65cd24fb55260acb6c71c388","computer","Desktop or Laptop","Chromium OS 14541.0.0","Chrome 121.0.0.0","1536x864","1536x695",NA,NA,0,"Task Introduction and Instructions (re-introduce video and audio) (Clone)",3,"IJHAGBFCED","Passed AC2",NA,"Spreadsheet1",NA,"","","",NA,"5","BEGIN",NA,NA,NA,NA,NA,NA,0,NA,NA,NA,NA,"","",NA,"","",NA,"SUPPRF11788"
"2",1707944185473,"14/02/2024 20:56:25",1707944185473,0,"14/02/2024 20:56:25",165975,4,"task-v7r7",NA,35158614,10389500,NA,"complete",NA,"65cd24fb55260acb6c71c388","computer","Desktop or Laptop","Chromium OS 14541.0.0","Chrome 121.0.0.0","1536x864","1536x695",NA,NA,0,"Task Introduction and Instructions (re-introduce video and audio) (Clone)",3,"IJHAGBFCED","Passed AC2",NA,"Spreadsheet1",1,"Task Instructions","Screen 1","anr7sn",1,"continue","",16839.7999999993,16824.6,16839.7999999993,16839.7999999993,16824.6,16839.7999999993,1,16839.7999999993,0,0,NA,"Click To Continue","Continue Button",3,"object-60","Task Instructions",NA,"SUPPRF11788"
"3",1707944198028,"14/02/2024 20:56:38",1707944198028,0,"14/02/2024 20:56:38",165975,4,"task-v7r7",NA,35158614,10389500,NA,"complete",NA,"65cd24fb55260acb6c71c388","computer","Desktop or Laptop","Chromium OS 14541.0.0","Chrome 121.0.0.0","1536x864","1536x695",NA,NA,0,"Task Introduction and Instructions (re-introduce video and audio) (Clone)",3,"IJHAGBFCED","Passed AC2",NA,"Spreadsheet1",1,"Task Instructions","Screen 2","ce2tc8",2,"continue","",12570.1000000015,12566.1,12570.1000000015,12570.1000000015,12566.1,12570.1000000015,1,12570.1000000015,0,0,NA,"Click To Continue","Continue Button",3,"object-59","Task Instructions",NA,"SUPPRF11788"
"4",1707944216009,"14/02/2024 20:56:56",1707944216009,0,"14/02/2024 20:56:56",165975,4,"task-v7r7",NA,35158614,10389500,NA,"complete",NA,"65cd24fb55260acb6c71c388","computer","Desktop or Laptop","Chromium OS 14541.0.0","Chrome 121.0.0.0","1536x864","1536x695",NA,NA,0,"Task Introduction and Instructions (re-introduce video and audio) (Clone)",3,"IJHAGBFCED","Passed AC2",NA,"Spreadsheet1",1,"Task Instructions","Screen 3","1qtc8v",3,"continue","",17985.0999999993,17974.3,17985.0999999993,17985.0999999993,17974.3,17985.0999999993,1,17985.0999999993,0,0,NA,"Click To Continue","Continue Button",2,"object-2983","Task Instructions",NA,"SUPPRF11788"
"5",1707944225984,"14/02/2024 20:57:05",1707944225984,0,"14/02/2024 20:57:05",165975,4,"task-v7r7",NA,35158614,10389500,NA,"complete",NA,"65cd24fb55260acb6c71c388","computer","Desktop or Laptop","Chromium OS 14541.0.0","Chrome 121.0.0.0","1536x864","1536x695",NA,NA,0,"Task Introduction and Instructions (re-introduce video and audio) (Clone)",3,"IJHAGBFCED","Passed AC2",NA,"Spreadsheet1",1,"Task Instructions","Screen 12","1a4vu2",4,"continue","",9986.50000000223,9974.5,9986.50000000223,9986.50000000223,9974.5,9986.50000000223,1,9986.50000000223,0,0,NA,"Click To Continue","Continue Button",2,"object-2466","Task Instructions",NA,"SUPPRF11788"
"6",1707944237420,"14/02/2024 20:57:17",1707944237420,0,"14/02/2024 20:57:17",165975,4,"task-v7r7",NA,35158614,10389500,NA,"complete",NA,"65cd24fb55260acb6c71c388","computer","Desktop or Laptop","Chromium OS 14541.0.0","Chrome 121.0.0.0","1536x864","1536x695",NA,NA,0,"Task Introduction and Instructions (re-introduce video and audio) (Clone)",3,"IJHAGBFCED","Passed AC2",NA,"Spreadsheet1",1,"Task Instructions","Screen 13","q9vwda",5,"continue","",11448.1,11441.2,11448.1,11448.1,11441.2,11448.1,1,11448.1,0,0,NA,"Click To Continue","Continue Button",2,"object-2989","Task Instructions",NA,"SUPPRF11788"
"7",1707944239934,"14/02/2024 20:57:19",1707944239934,0,"14/02/2024 20:57:19",165975,4,"task-v7r7",NA,35158614,10389500,NA,"complete",NA,"65cd24fb55260acb6c71c388","computer","Desktop or Laptop","Chromium OS 14541.0.0","Chrome 121.0.0.0","1536x864","1536x695",NA,NA,0,"Task Introduction and Instructions (re-introduce video and audio) (Clone)",3,"IJHAGBFCED","Passed AC2",NA,"Spreadsheet1",1,"Task Instructions","Screen 11","oyulb7",6,"continue","",2521.00000000148,2516.5,2521.00000000148,2521.00000000148,2516.5,2521.00000000148,1,2521.00000000148,0,0,NA,"Click To Continue","Continue Button",2,"object-52","Task Instructions",NA,"SUPPRF11788"
"8",1707944242438,"14/02/2024 20:57:22",1707944242438,0,"14/02/2024 20:57:22",165975,4,"task-v7r7",NA,35158614,10389500,NA,"complete",NA,"65cd24fb55260acb6c71c388","computer","Desktop or Laptop","Chromium OS 14541.0.0","Chrome 121.0.0.0","1536x864","1536x695",NA,NA,0,"Task Introduction and Instructions (re-introduce video and audio) (Clone)",3,"IJHAGBFCED","Passed AC2",NA,"Spreadsheet1",1,"Task Instructions","Screen 4","spepx9",7,"continue","",2508.29999999999,2491.59999999999,2508.29999999999,2508.29999999999,2491.59999999999,2508.29999999999,1,2508.29999999999,0,0,NA,"Click To Continue","Continue Button",2,"object-9","Task Instructions",NA,"SUPPRF11788"
"9",1707944244932,"14/02/2024 20:57:24",1707944244932,0,"14/02/2024 20:57:24",165975,4,"task-v7r7",NA,35158614,10389500,NA,"complete",NA,"65cd24fb55260acb6c71c388","computer","Desktop or Laptop","Chromium OS 14541.0.0","Chrome 121.0.0.0","1536x864","1536x695",NA,NA,0,"Task Introduction and Instructions (re-introduce video and audio) (Clone)",3,"IJHAGBFCED","Passed AC2",NA,"Spreadsheet1",1,"Task Instructions","Screen 5","8nvnao",8,"continue","",2510.40000000149,2508.3,2510.40000000149,2510.40000000149,2508.3,2510.40000000149,1,2510.40000000149,0,0,NA,"Click To Continue","Continue Button",2,"object-44","Task Instructions",NA,"SUPPRF11788"
"10",1707944244935,"14/02/2024 20:57:24",1707944244935,0,"14/02/2024 20:57:24",165975,4,"task-v7r7",NA,35158614,10389500,NA,"complete",NA,"65cd24fb55260acb6c71c388","computer","Desktop or Laptop","Chromium OS 14541.0.0","Chrome 121.0.0.0","1536x864","1536x695",NA,NA,0,"Task Introduction and Instructions (re-introduce video and audio) (Clone)",3,"IJHAGBFCED","Passed AC2",NA,"Spreadsheet1",NA,"","","",NA,"5","END",NA,NA,NA,NA,NA,NA,0,NA,NA,NA,NA,"","",NA,"","",NA,"SUPPRF11788"
"1",1707944959267,"14/02/2024 21:09:19",1707944959267,0,"14/02/2024 21:09:19",165975,4,"task-v7r7",NA,35158929,10389652,NA,"complete",NA,"65cd2902abeaa111a2fc9de2","computer","Desktop or Laptop","Windows 10","Chrome 121.0.0.0","1536x864","1536x695",NA,NA,0,"Task Introduction and Instructions (re-introduce video and audio) (Clone)",3,"JAIBHCGDFE","Passed AC2",NA,"Spreadsheet1",NA,"","","",NA,"5","BEGIN",NA,NA,NA,NA,NA,NA,0,NA,NA,NA,NA,"","",NA,"","",NA,"SUPPRF92611"
"2",1707944963495,"14/02/2024 21:09:23",1707944963495,0,"14/02/2024 21:09:23",165975,4,"task-v7r7",NA,35158929,10389652,NA,"complete",NA,"65cd2902abeaa111a2fc9de2","computer","Desktop or Laptop","Windows 10","Chrome 121.0.0.0","1536x864","1536x695",NA,NA,0,"Task Introduction and Instructions (re-introduce video and audio) (Clone)",3,"JAIBHCGDFE","Passed AC2",NA,"Spreadsheet1",1,"Task Instructions","Screen 1","anr7sn",1,"continue","",3882.79999990463,3879,3882.79999990463,3882.79999990463,3879,3882.79999990463,1,3882.79999990463,0,0,NA,"Click To Continue","Continue Button",3,"object-60","Task Instructions",NA,"SUPPRF92611"
"3",1707944985769,"14/02/2024 21:09:45",1707944985769,0,"14/02/2024 21:09:45",165975,4,"task-v7r7",NA,35158929,10389652,NA,"complete",NA,"65cd2902abeaa111a2fc9de2","computer","Desktop or Laptop","Windows 10","Chrome 121.0.0.0","1536x864","1536x695",NA,NA,0,"Task Introduction and Instructions (re-introduce video and audio) (Clone)",3,"JAIBHCGDFE","Passed AC2",NA,"Spreadsheet1",1,"Task Instructions","Screen 2","ce2tc8",2,"continue","",22278.0999998569,22275.7,22278.0999998569,22278.0999998569,22275.7,22278.0999998569,1,22278.0999998569,0,0,NA,"Click To Continue","Continue Button",3,"object-59","Task Instructions",NA,"SUPPRF92611"
"4",1707944992012,"14/02/2024 21:09:52",1707944992012,0,"14/02/2024 21:09:52",165975,4,"task-v7r7",NA,35158929,10389652,NA,"complete",NA,"65cd2902abeaa111a2fc9de2","computer","Desktop or Laptop","Windows 10","Chrome 121.0.0.0","1536x864","1536x695",NA,NA,0,"Task Introduction and Instructions (re-introduce video and audio) (Clone)",3,"JAIBHCGDFE","Passed AC2",NA,"Spreadsheet1",1,"Task Instructions","Screen 3","1qtc8v",3,"continue","",6245.89999985695,6243,6245.89999985695,6245.89999985695,6243,6245.89999985695,1,6245.89999985695,0,0,NA,"Click To Continue","Continue Button",2,"object-2983","Task Instructions",NA,"SUPPRF92611"
"5",1707945012236,"14/02/2024 21:10:12",1707945012236,0,"14/02/2024 21:10:12",165975,4,"task-v7r7",NA,35158929,10389652,NA,"complete",NA,"65cd2902abeaa111a2fc9de2","computer","Desktop or Laptop","Windows 10","Chrome 121.0.0.0","1536x864","1536x695",NA,NA,0,"Task Introduction and Instructions (re-introduce video and audio) (Clone)",3,"JAIBHCGDFE","Passed AC2",NA,"Spreadsheet1",1,"Task Instructions","Screen 12","1a4vu2",4,"continue","",20226.0999999046,20211.1,20226.0999999046,20226.0999999046,20211.1,20226.0999999046,1,20226.0999999046,0,0,NA,"Click To Continue","Continue Button",2,"object-2466","Task Instructions",NA,"SUPPRF92611"
"6",1707945020936,"14/02/2024 21:10:20",1707945020936,0,"14/02/2024 21:10:20",165975,4,"task-v7r7",NA,35158929,10389652,NA,"complete",NA,"65cd2902abeaa111a2fc9de2","computer","Desktop or Laptop","Windows 10","Chrome 121.0.0.0","1536x864","1536x695",NA,NA,0,"Task Introduction and Instructions (re-introduce video and audio) (Clone)",3,"JAIBHCGDFE","Passed AC2",NA,"Spreadsheet1",1,"Task Instructions","Screen 13","q9vwda",5,"continue","",8715.19999995232,8707.1,8715.19999995232,8715.19999995232,8707.1,8715.19999995232,1,8715.19999995232,0,0,NA,"Click To Continue","Continue Button",2,"object-2989","Task Instructions",NA,"SUPPRF92611"
"7",1707945024482,"14/02/2024 21:10:24",1707945024482,0,"14/02/2024 21:10:24",165975,4,"task-v7r7",NA,35158929,10389652,NA,"complete",NA,"65cd2902abeaa111a2fc9de2","computer","Desktop or Laptop","Windows 10","Chrome 121.0.0.0","1536x864","1536x695",NA,NA,0,"Task Introduction and Instructions (re-introduce video and audio) (Clone)",3,"JAIBHCGDFE","Passed AC2",NA,"Spreadsheet1",1,"Task Instructions","Screen 11","oyulb7",6,"continue","",3554.09999995232,3546.10000000001,3554.09999995232,3554.09999995232,3546.10000000001,3554.09999995232,1,3554.09999995232,0,0,NA,"Click To Continue","Continue Button",2,"object-52","Task Instructions",NA,"SUPPRF92611"
"8",1707945027879,"14/02/2024 21:10:27",1707945027879,0,"14/02/2024 21:10:27",165975,4,"task-v7r7",NA,35158929,10389652,NA,"complete",NA,"65cd2902abeaa111a2fc9de2","computer","Desktop or Laptop","Windows 10","Chrome 121.0.0.0","1536x864","1536x695",NA,NA,0,"Task Introduction and Instructions (re-introduce video and audio) (Clone)",3,"JAIBHCGDFE","Passed AC2",NA,"Spreadsheet1",1,"Task Instructions","Screen 4","spepx9",7,"continue","",3404.29999990463,3396.2,3404.29999990463,3404.29999990463,3396.2,3404.29999990463,1,3404.29999990463,0,0,NA,"Click To Continue","Continue Button",2,"object-9","Task Instructions",NA,"SUPPRF92611"
"9",1707945031369,"14/02/2024 21:10:31",1707945031369,0,"14/02/2024 21:10:31",165975,4,"task-v7r7",NA,35158929,10389652,NA,"complete",NA,"65cd2902abeaa111a2fc9de2","computer","Desktop or Laptop","Windows 10","Chrome 121.0.0.0","1536x864","1536x695",NA,NA,0,"Task Introduction and Instructions (re-introduce video and audio) (Clone)",3,"JAIBHCGDFE","Passed AC2",NA,"Spreadsheet1",1,"Task Instructions","Screen 5","8nvnao",8,"continue","",3498,3496.60000000001,3498,3498,3496.60000000001,3498,1,3498,0,0,NA,"Click To Continue","Continue Button",2,"object-44","Task Instructions",NA,"SUPPRF92611"
"10",1707945031370,"14/02/2024 21:10:31",1707945031370,0,"14/02/2024 21:10:31",165975,4,"task-v7r7",NA,35158929,10389652,NA,"complete",NA,"65cd2902abeaa111a2fc9de2","computer","Desktop or Laptop","Windows 10","Chrome 121.0.0.0","1536x864","1536x695",NA,NA,0,"Task Introduction and Instructions (re-introduce video and audio) (Clone)",3,"JAIBHCGDFE","Passed AC2",NA,"Spreadsheet1",NA,"","","",NA,"5","END",NA,NA,NA,NA,NA,NA,0,NA,NA,NA,NA,"","",NA,"","",NA,"SUPPRF92611"
"1",1707945127601,"14/02/2024 21:12:07",1707945127601,0,"14/02/2024 21:12:07",165975,4,"task-v7r7",NA,35158981,10389709,NA,"complete",NA,"65cd2ae8ae300aebd05b7b20","computer","Desktop or Laptop","Mac OS 10.15.7","Chrome 121.0.0.0","1440x900","1440x676",NA,NA,0,"Task Introduction and Instructions (re-introduce video and audio) (Clone)",3,"ABJCIDHEGF","Passed AC2",NA,"Spreadsheet1",NA,"","","",NA,"5","BEGIN",NA,NA,NA,NA,NA,NA,0,NA,NA,NA,NA,"","",NA,"","",NA,"SUPPRF40465"
"2",1707945131115,"14/02/2024 21:12:11",1707945131115,0,"14/02/2024 21:12:11",165975,4,"task-v7r7",NA,35158981,10389709,NA,"complete",NA,"65cd2ae8ae300aebd05b7b20","computer","Desktop or Laptop","Mac OS 10.15.7","Chrome 121.0.0.0","1440x900","1440x676",NA,NA,0,"Task Introduction and Instructions (re-introduce video and audio) (Clone)",3,"ABJCIDHEGF","Passed AC2",NA,"Spreadsheet1",1,"Task Instructions","Screen 1","anr7sn",1,"continue","",3486.80000002384,3483.1,3486.80000002384,3486.80000002384,3483.1,3486.80000002384,1,3486.80000002384,0,0,NA,"Click To Continue","Continue Button",3,"object-60","Task Instructions",NA,"SUPPRF40465"
"3",1707945138394,"14/02/2024 21:12:18",1707945138394,0,"14/02/2024 21:12:18",165975,4,"task-v7r7",NA,35158981,10389709,NA,"complete",NA,"65cd2ae8ae300aebd05b7b20","computer","Desktop or Laptop","Mac OS 10.15.7","Chrome 121.0.0.0","1440x900","1440x676",NA,NA,0,"Task Introduction and Instructions (re-introduce video and audio) (Clone)",3,"ABJCIDHEGF","Passed AC2",NA,"Spreadsheet1",1,"Task Instructions","Screen 2","ce2tc8",2,"continue","",7282.30000004768,7267.5,7282.30000004768,7282.30000004768,7267.5,7282.30000004768,1,7282.30000004768,0,0,NA,"Click To Continue","Continue Button",3,"object-59","Task Instructions",NA,"SUPPRF40465"
"4",1707945142362,"14/02/2024 21:12:22",1707945142362,0,"14/02/2024 21:12:22",165975,4,"task-v7r7",NA,35158981,10389709,NA,"complete",NA,"65cd2ae8ae300aebd05b7b20","computer","Desktop or Laptop","Mac OS 10.15.7","Chrome 121.0.0.0","1440x900","1440x676",NA,NA,0,"Task Introduction and Instructions (re-introduce video and audio) (Clone)",3,"ABJCIDHEGF","Passed AC2",NA,"Spreadsheet1",1,"Task Instructions","Screen 3","1qtc8v",3,"continue","",3982.90000007153,3967.1,3982.90000007153,3982.90000007153,3967.1,3982.90000007153,1,3982.90000007153,0,0,NA,"Click To Continue","Continue Button",2,"object-2983","Task Instructions",NA,"SUPPRF40465"
"5",1707945150064,"14/02/2024 21:12:30",1707945150064,0,"14/02/2024 21:12:30",165975,4,"task-v7r7",NA,35158981,10389709,NA,"complete",NA,"65cd2ae8ae300aebd05b7b20","computer","Desktop or Laptop","Mac OS 10.15.7","Chrome 121.0.0.0","1440x900","1440x676",NA,NA,0,"Task Introduction and Instructions (re-introduce video and audio) (Clone)",3,"ABJCIDHEGF","Passed AC2",NA,"Spreadsheet1",1,"Task Instructions","Screen 12","1a4vu2",4,"continue","",7718.10000002384,7716.1,7718.10000002384,7718.10000002384,7716.1,7718.10000002384,1,7718.10000002384,0,0,NA,"Click To Continue","Continue Button",2,"object-2466","Task Instructions",NA,"SUPPRF40465"
"6",1707945154961,"14/02/2024 21:12:34",1707945154961,0,"14/02/2024 21:12:34",165975,4,"task-v7r7",NA,35158981,10389709,NA,"complete",NA,"65cd2ae8ae300aebd05b7b20","computer","Desktop or Laptop","Mac OS 10.15.7","Chrome 121.0.0.0","1440x900","1440x676",NA,NA,0,"Task Introduction and Instructions (re-introduce video and audio) (Clone)",3,"ABJCIDHEGF","Passed AC2",NA,"Spreadsheet1",1,"Task Instructions","Screen 13","q9vwda",5,"continue","",4899.60000004769,4884,4899.60000004769,4899.60000004769,4884,4899.60000004769,1,4899.60000004769,0,0,NA,"Click To Continue","Continue Button",2,"object-2989","Task Instructions",NA,"SUPPRF40465"
"7",1707945157844,"14/02/2024 21:12:37",1707945157844,0,"14/02/2024 21:12:37",165975,4,"task-v7r7",NA,35158981,10389709,NA,"complete",NA,"65cd2ae8ae300aebd05b7b20","computer","Desktop or Laptop","Mac OS 10.15.7","Chrome 121.0.0.0","1440x900","1440x676",NA,NA,0,"Task Introduction and Instructions (re-introduce video and audio) (Clone)",3,"ABJCIDHEGF","Passed AC2",NA,"Spreadsheet1",1,"Task Instructions","Screen 11","oyulb7",6,"continue","",2898.50000002384,2883.5,2898.50000002384,2898.50000002384,2883.5,2898.50000002384,1,2898.50000002384,0,0,NA,"Click To Continue","Continue Button",2,"object-52","Task Instructions",NA,"SUPPRF40465"
"8",1707945160561,"14/02/2024 21:12:40",1707945160561,0,"14/02/2024 21:12:40",165975,4,"task-v7r7",NA,35158981,10389709,NA,"complete",NA,"65cd2ae8ae300aebd05b7b20","computer","Desktop or Laptop","Mac OS 10.15.7","Chrome 121.0.0.0","1440x900","1440x676",NA,NA,0,"Task Introduction and Instructions (re-introduce video and audio) (Clone)",3,"ABJCIDHEGF","Passed AC2",NA,"Spreadsheet1",1,"Task Instructions","Screen 4","spepx9",7,"continue","",2732.10000004769,2716.7,2732.10000004769,2732.10000004769,2716.7,2732.10000004769,1,2732.10000004769,0,0,NA,"Click To Continue","Continue Button",2,"object-9","Task Instructions",NA,"SUPPRF40465"
"9",1707945176132,"14/02/2024 21:12:56",1707945176132,0,"14/02/2024 21:12:56",165975,4,"task-v7r7",NA,35158981,10389709,NA,"complete",NA,"65cd2ae8ae300aebd05b7b20","computer","Desktop or Laptop","Mac OS 10.15.7","Chrome 121.0.0.0","1440x900","1440x676",NA,NA,0,"Task Introduction and Instructions (re-introduce video and audio) (Clone)",3,"ABJCIDHEGF","Passed AC2",NA,"Spreadsheet1",1,"Task Instructions","Screen 5","8nvnao",8,"continue","",15586.7,15583.5,15586.7,15586.7,15583.5,15586.7,1,15586.7,0,0,NA,"Click To Continue","Continue Button",2,"object-44","Task Instructions",NA,"SUPPRF40465"
"10",1707945176139,"14/02/2024 21:12:56",1707945176139,0,"14/02/2024 21:12:56",165975,4,"task-v7r7",NA,35158981,10389709,NA,"complete",NA,"65cd2ae8ae300aebd05b7b20","computer","Desktop or Laptop","Mac OS 10.15.7","Chrome 121.0.0.0","1440x900","1440x676",NA,NA,0,"Task Introduction and Instructions (re-introduce video and audio) (Clone)",3,"ABJCIDHEGF","Passed AC2",NA,"Spreadsheet1",NA,"","","",NA,"5","END",NA,NA,NA,NA,NA,NA,0,NA,NA,NA,NA,"","",NA,"","",NA,"SUPPRF40465"
"1",1707947483477,"14/02/2024 21:51:23",1707947483477,0,"14/02/2024 21:51:23",165975,4,"task-v7r7",NA,35159825,10389752,NA,"complete",NA,"65cd2bd69dae843a0d0fa55a","computer","Desktop or Laptop","Windows 10","Chrome 121.0.0.0","1280x720","1280x632",NA,NA,0,"Task Introduction and Instructions (re-introduce video and audio) (Clone)",3,"BCADJEIFHG","Passed AC2",NA,"Spreadsheet1",NA,"","","",NA,"5","BEGIN",NA,NA,NA,NA,NA,NA,0,NA,NA,NA,NA,"","",NA,"","",NA,"SUPPRF16777"
"2",1707947490715,"14/02/2024 21:51:30",1707947490715,0,"14/02/2024 21:51:30",165975,4,"task-v7r7",NA,35159825,10389752,NA,"complete",NA,"65cd2bd69dae843a0d0fa55a","computer","Desktop or Laptop","Windows 10","Chrome 121.0.0.0","1280x720","1280x632",NA,NA,0,"Task Introduction and Instructions (re-introduce video and audio) (Clone)",3,"BCADJEIFHG","Passed AC2",NA,"Spreadsheet1",1,"Task Instructions","Screen 1","anr7sn",1,"continue","",6118.2,6101.5,6118.2,6118.2,6101.5,6118.2,1,6118.2,0,0,NA,"Click To Continue","Continue Button",3,"object-60","Task Instructions",NA,"SUPPRF16777"
"3",1707947501845,"14/02/2024 21:51:41",1707947501845,0,"14/02/2024 21:51:41",165975,4,"task-v7r7",NA,35159825,10389752,NA,"complete",NA,"65cd2bd69dae843a0d0fa55a","computer","Desktop or Laptop","Windows 10","Chrome 121.0.0.0","1280x720","1280x632",NA,NA,0,"Task Introduction and Instructions (re-introduce video and audio) (Clone)",3,"BCADJEIFHG","Passed AC2",NA,"Spreadsheet1",1,"Task Instructions","Screen 2","ce2tc8",2,"continue","",11150.3999999762,11135.4,11150.3999999762,11150.3999999762,11135.4,11150.3999999762,1,11150.3999999762,0,0,NA,"Click To Continue","Continue Button",3,"object-59","Task Instructions",NA,"SUPPRF16777"
"4",1707947509813,"14/02/2024 21:51:49",1707947509813,0,"14/02/2024 21:51:49",165975,4,"task-v7r7",NA,35159825,10389752,NA,"complete",NA,"65cd2bd69dae843a0d0fa55a","computer","Desktop or Laptop","Windows 10","Chrome 121.0.0.0","1280x720","1280x632",NA,NA,0,"Task Introduction and Instructions (re-introduce video and audio) (Clone)",3,"BCADJEIFHG","Passed AC2",NA,"Spreadsheet1",1,"Task Instructions","Screen 3","1qtc8v",3,"continue","",7983.20000002384,7968.3,7983.20000002384,7983.20000002384,7968.3,7983.20000002384,1,7983.20000002384,0,0,NA,"Click To Continue","Continue Button",2,"object-2983","Task Instructions",NA,"SUPPRF16777"
"5",1707947520501,"14/02/2024 21:52:00",1707947520501,0,"14/02/2024 21:52:00",165975,4,"task-v7r7",NA,35159825,10389752,NA,"complete",NA,"65cd2bd69dae843a0d0fa55a","computer","Desktop or Laptop","Windows 10","Chrome 121.0.0.0","1280x720","1280x632",NA,NA,0,"Task Introduction and Instructions (re-introduce video and audio) (Clone)",3,"BCADJEIFHG","Passed AC2",NA,"Spreadsheet1",1,"Task Instructions","Screen 12","1a4vu2",4,"continue","",10702.1,10685.5,10702.1,10702.1,10685.5,10702.1,1,10702.1,0,0,NA,"Click To Continue","Continue Button",2,"object-2466","Task Instructions",NA,"SUPPRF16777"
"6",1707947527805,"14/02/2024 21:52:07",1707947527805,0,"14/02/2024 21:52:07",165975,4,"task-v7r7",NA,35159825,10389752,NA,"complete",NA,"65cd2bd69dae843a0d0fa55a","computer","Desktop or Laptop","Windows 10","Chrome 121.0.0.0","1280x720","1280x632",NA,NA,0,"Task Introduction and Instructions (re-introduce video and audio) (Clone)",3,"BCADJEIFHG","Passed AC2",NA,"Spreadsheet1",1,"Task Instructions","Screen 13","q9vwda",5,"continue","",7320.90000002384,7318.3,7320.90000002384,7320.90000002384,7318.3,7320.90000002384,1,7320.90000002384,0,0,NA,"Click To Continue","Continue Button",2,"object-2989","Task Instructions",NA,"SUPPRF16777"
"7",1707947531997,"14/02/2024 21:52:11",1707947531997,0,"14/02/2024 21:52:11",165975,4,"task-v7r7",NA,35159825,10389752,NA,"complete",NA,"65cd2bd69dae843a0d0fa55a","computer","Desktop or Laptop","Windows 10","Chrome 121.0.0.0","1280x720","1280x632",NA,NA,0,"Task Introduction and Instructions (re-introduce video and audio) (Clone)",3,"BCADJEIFHG","Passed AC2",NA,"Spreadsheet1",1,"Task Instructions","Screen 11","oyulb7",6,"continue","",4195.20000004768,4184.3,4195.20000004768,4195.20000004768,4184.3,4195.20000004768,1,4195.20000004768,0,0,NA,"Click To Continue","Continue Button",2,"object-52","Task Instructions",NA,"SUPPRF16777"
"8",1707947590054,"14/02/2024 21:53:10",1707947590054,0,"14/02/2024 21:53:10",165975,4,"task-v7r7",NA,35159825,10389752,NA,"complete",NA,"65cd2bd69dae843a0d0fa55a","computer","Desktop or Laptop","Windows 10","Chrome 121.0.0.0","1280x720","1280x632",NA,NA,0,"Task Introduction and Instructions (re-introduce video and audio) (Clone)",3,"BCADJEIFHG","Passed AC2",NA,"Spreadsheet1",1,"Task Instructions","Screen 4","spepx9",7,"continue","",58066.9999999523,58061.5,58066.9999999523,58066.9999999523,58061.5,58066.9999999523,1,58066.9999999523,0,0,NA,"Click To Continue","Continue Button",2,"object-9","Task Instructions",NA,"SUPPRF16777"
"9",1707947593709,"14/02/2024 21:53:13",1707947593709,0,"14/02/2024 21:53:13",165975,4,"task-v7r7",NA,35159825,10389752,NA,"complete",NA,"65cd2bd69dae843a0d0fa55a","computer","Desktop or Laptop","Windows 10","Chrome 121.0.0.0","1280x720","1280x632",NA,NA,0,"Task Introduction and Instructions (re-introduce video and audio) (Clone)",3,"BCADJEIFHG","Passed AC2",NA,"Spreadsheet1",1,"Task Instructions","Screen 5","8nvnao",8,"continue","",3660.99999995231,3651.59999999999,3660.99999995231,3660.99999995231,3651.59999999999,3660.99999995231,1,3660.99999995231,0,0,NA,"Click To Continue","Continue Button",2,"object-44","Task Instructions",NA,"SUPPRF16777"
"10",1707947593712,"14/02/2024 21:53:13",1707947593712,0,"14/02/2024 21:53:13",165975,4,"task-v7r7",NA,35159825,10389752,NA,"complete",NA,"65cd2bd69dae843a0d0fa55a","computer","Desktop or Laptop","Windows 10","Chrome 121.0.0.0","1280x720","1280x632",NA,NA,0,"Task Introduction and Instructions (re-introduce video and audio) (Clone)",3,"BCADJEIFHG","Passed AC2",NA,"Spreadsheet1",NA,"","","",NA,"5","END",NA,NA,NA,NA,NA,NA,0,NA,NA,NA,NA,"","",NA,"","",NA,"SUPPRF16777"
"1",1707947315564,"14/02/2024 21:48:35",1707929315564,-5,"14/02/2024 11:48:35",165975,4,"task-v7r7",NA,35159750,10389987,NA,"complete",NA,"65cd33dfef34c8f5a60aecef","computer","Desktop or Laptop","Windows 10","Chrome 120.0.0.0","1920x1080","1920x919",NA,NA,0,"Task Introduction and Instructions (re-introduce video and audio) (Clone)",3,"EFDGCHBIAJ","Passed AC2",NA,"Spreadsheet1",NA,"","","",NA,"5","BEGIN",NA,NA,NA,NA,NA,NA,0,NA,NA,NA,NA,"","",NA,"","",NA,"SUPPRF86890"
"2",1707947318866,"14/02/2024 21:48:38",1707929318866,-5,"14/02/2024 11:48:38",165975,4,"task-v7r7",NA,35159750,10389987,NA,"complete",NA,"65cd33dfef34c8f5a60aecef","computer","Desktop or Laptop","Windows 10","Chrome 120.0.0.0","1920x1080","1920x919",NA,NA,0,"Task Introduction and Instructions (re-introduce video and audio) (Clone)",3,"EFDGCHBIAJ","Passed AC2",NA,"Spreadsheet1",1,"Task Instructions","Screen 1","anr7sn",1,"continue","",3246.49999998808,3230.7,3246.49999998808,3246.49999998808,3230.7,3246.49999998808,1,3246.49999998808,0,0,NA,"Click To Continue","Continue Button",3,"object-60","Task Instructions",NA,"SUPPRF86890"
"3",1707947322641,"14/02/2024 21:48:42",1707929322641,-5,"14/02/2024 11:48:42",165975,4,"task-v7r7",NA,35159750,10389987,NA,"complete",NA,"65cd33dfef34c8f5a60aecef","computer","Desktop or Laptop","Windows 10","Chrome 120.0.0.0","1920x1080","1920x919",NA,NA,0,"Task Introduction and Instructions (re-introduce video and audio) (Clone)",3,"EFDGCHBIAJ","Passed AC2",NA,"Spreadsheet1",1,"Task Instructions","Screen 2","ce2tc8",2,"continue","",3791.1,3780.2,3791.1,3791.1,3780.2,3791.1,1,3791.1,0,0,NA,"Click To Continue","Continue Button",3,"object-59","Task Instructions",NA,"SUPPRF86890"
"4",1707947326909,"14/02/2024 21:48:46",1707929326909,-5,"14/02/2024 11:48:46",165975,4,"task-v7r7",NA,35159750,10389987,NA,"complete",NA,"65cd33dfef34c8f5a60aecef","computer","Desktop or Laptop","Windows 10","Chrome 120.0.0.0","1920x1080","1920x919",NA,NA,0,"Task Introduction and Instructions (re-introduce video and audio) (Clone)",3,"EFDGCHBIAJ","Passed AC2",NA,"Spreadsheet1",1,"Task Instructions","Screen 3","1qtc8v",3,"continue","",4279.09999998808,4263.3,4279.09999998808,4279.09999998808,4263.3,4279.09999998808,1,4279.09999998808,0,0,NA,"Click To Continue","Continue Button",2,"object-2983","Task Instructions",NA,"SUPPRF86890"
"5",1707947330673,"14/02/2024 21:48:50",1707929330673,-5,"14/02/2024 11:48:50",165975,4,"task-v7r7",NA,35159750,10389987,NA,"complete",NA,"65cd33dfef34c8f5a60aecef","computer","Desktop or Laptop","Windows 10","Chrome 120.0.0.0","1920x1080","1920x919",NA,NA,0,"Task Introduction and Instructions (re-introduce video and audio) (Clone)",3,"EFDGCHBIAJ","Passed AC2",NA,"Spreadsheet1",1,"Task Instructions","Screen 12","1a4vu2",4,"continue","",3779.89999995232,3763.5,3779.89999995232,3779.89999995232,3763.5,3779.89999995232,1,3779.89999995232,0,0,NA,"Click To Continue","Continue Button",2,"object-2466","Task Instructions",NA,"SUPPRF86890"
"6",1707947340651,"14/02/2024 21:49:00",1707929340651,-5,"14/02/2024 11:49:00",165975,4,"task-v7r7",NA,35159750,10389987,NA,"complete",NA,"65cd33dfef34c8f5a60aecef","computer","Desktop or Laptop","Windows 10","Chrome 120.0.0.0","1920x1080","1920x919",NA,NA,0,"Task Introduction and Instructions (re-introduce video and audio) (Clone)",3,"EFDGCHBIAJ","Passed AC2",NA,"Spreadsheet1",1,"Task Instructions","Screen 13","q9vwda",5,"continue","",9994.29999998808,9991.9,9994.29999998808,9994.29999998808,9991.9,9994.29999998808,1,9994.29999998808,0,0,NA,"Click To Continue","Continue Button",2,"object-2989","Task Instructions",NA,"SUPPRF86890"
"7",1707947344077,"14/02/2024 21:49:04",1707929344077,-5,"14/02/2024 11:49:04",165975,4,"task-v7r7",NA,35159750,10389987,NA,"complete",NA,"65cd33dfef34c8f5a60aecef","computer","Desktop or Laptop","Windows 10","Chrome 120.0.0.0","1920x1080","1920x919",NA,NA,0,"Task Introduction and Instructions (re-introduce video and audio) (Clone)",3,"EFDGCHBIAJ","Passed AC2",NA,"Spreadsheet1",1,"Task Instructions","Screen 11","oyulb7",6,"continue","",3428.2,3413.8,3428.2,3428.2,3413.8,3428.2,1,3428.2,0,0,NA,"Click To Continue","Continue Button",2,"object-52","Task Instructions",NA,"SUPPRF86890"
"8",1707947347249,"14/02/2024 21:49:07",1707929347249,-5,"14/02/2024 11:49:07",165975,4,"task-v7r7",NA,35159750,10389987,NA,"complete",NA,"65cd33dfef34c8f5a60aecef","computer","Desktop or Laptop","Windows 10","Chrome 120.0.0.0","1920x1080","1920x919",NA,NA,0,"Task Introduction and Instructions (re-introduce video and audio) (Clone)",3,"EFDGCHBIAJ","Passed AC2",NA,"Spreadsheet1",1,"Task Instructions","Screen 4","spepx9",7,"continue","",3186.59999998808,3180.8,3186.59999998808,3186.59999998808,3180.8,3186.59999998808,1,3186.59999998808,0,0,NA,"Click To Continue","Continue Button",2,"object-9","Task Instructions",NA,"SUPPRF86890"
"9",1707947349945,"14/02/2024 21:49:09",1707929349945,-5,"14/02/2024 11:49:09",165975,4,"task-v7r7",NA,35159750,10389987,NA,"complete",NA,"65cd33dfef34c8f5a60aecef","computer","Desktop or Laptop","Windows 10","Chrome 120.0.0.0","1920x1080","1920x919",NA,NA,0,"Task Introduction and Instructions (re-introduce video and audio) (Clone)",3,"EFDGCHBIAJ","Passed AC2",NA,"Spreadsheet1",1,"Task Instructions","Screen 5","8nvnao",8,"continue","",2701.69999996424,2697.8,2701.69999996424,2701.69999996424,2697.8,2701.69999996424,1,2701.69999996424,0,0,NA,"Click To Continue","Continue Button",2,"object-44","Task Instructions",NA,"SUPPRF86890"
"10",1707947349947,"14/02/2024 21:49:09",1707929349947,-5,"14/02/2024 11:49:09",165975,4,"task-v7r7",NA,35159750,10389987,NA,"complete",NA,"65cd33dfef34c8f5a60aecef","computer","Desktop or Laptop","Windows 10","Chrome 120.0.0.0","1920x1080","1920x919",NA,NA,0,"Task Introduction and Instructions (re-introduce video and audio) (Clone)",3,"EFDGCHBIAJ","Passed AC2",NA,"Spreadsheet1",NA,"","","",NA,"5","END",NA,NA,NA,NA,NA,NA,0,NA,NA,NA,NA,"","",NA,"","",NA,"SUPPRF86890"
"1",1707948242866,"14/02/2024 22:04:02",1707930242866,-5,"14/02/2024 12:04:02",165975,4,"task-v7r7",NA,35160096,10389981,NA,"complete",NA,"65cd338a0239a19d29ad36c2","computer","Desktop or Laptop","Mac OS 10.15.7","Chrome 121.0.0.0","1440x900","1440x779",NA,NA,0,"Task Introduction and Instructions (re-introduce video and audio) (Clone)",3,"FGEHDICJBA","Passed AC2",NA,"Spreadsheet1",NA,"","","",NA,"5","BEGIN",NA,NA,NA,NA,NA,NA,0,NA,NA,NA,NA,"","",NA,"","",NA,"SUPPRF20506"
"2",1707948253368,"14/02/2024 22:04:13",1707930253368,-5,"14/02/2024 12:04:13",165975,4,"task-v7r7",NA,35160096,10389981,NA,"complete",NA,"65cd338a0239a19d29ad36c2","computer","Desktop or Laptop","Mac OS 10.15.7","Chrome 121.0.0.0","1440x900","1440x779",NA,NA,0,"Task Introduction and Instructions (re-introduce video and audio) (Clone)",3,"FGEHDICJBA","Passed AC2",NA,"Spreadsheet1",1,"Task Instructions","Screen 1","anr7sn",1,"continue","",10245.3999999999,10233.3,10245.3999999999,10245.3999999999,10233.3,10245.3999999999,1,10245.3999999999,0,0,NA,"Click To Continue","Continue Button",3,"object-60","Task Instructions",NA,"SUPPRF20506"
"3",1707948272449,"14/02/2024 22:04:32",1707930272449,-5,"14/02/2024 12:04:32",165975,4,"task-v7r7",NA,35160096,10389981,NA,"complete",NA,"65cd338a0239a19d29ad36c2","computer","Desktop or Laptop","Mac OS 10.15.7","Chrome 121.0.0.0","1440x900","1440x779",NA,NA,0,"Task Introduction and Instructions (re-introduce video and audio) (Clone)",3,"FGEHDICJBA","Passed AC2",NA,"Spreadsheet1",1,"Task Instructions","Screen 2","ce2tc8",2,"continue","",19093.3000000001,19082.7,19093.3000000001,19093.3000000001,19082.7,19093.3000000001,1,19093.3000000001,0,0,NA,"Click To Continue","Continue Button",3,"object-59","Task Instructions",NA,"SUPPRF20506"
"4",1707948283656,"14/02/2024 22:04:43",1707930283656,-5,"14/02/2024 12:04:43",165975,4,"task-v7r7",NA,35160096,10389981,NA,"complete",NA,"65cd338a0239a19d29ad36c2","computer","Desktop or Laptop","Mac OS 10.15.7","Chrome 121.0.0.0","1440x900","1440x779",NA,NA,0,"Task Introduction and Instructions (re-introduce video and audio) (Clone)",3,"FGEHDICJBA","Passed AC2",NA,"Spreadsheet1",1,"Task Instructions","Screen 3","1qtc8v",3,"continue","",11217,11200.4,11217,11217,11200.4,11217,1,11217,0,0,NA,"Click To Continue","Continue Button",2,"object-2983","Task Instructions",NA,"SUPPRF20506"
"5",1707948304850,"14/02/2024 22:05:04",1707930304850,-5,"14/02/2024 12:05:04",165975,4,"task-v7r7",NA,35160096,10389981,NA,"complete",NA,"65cd338a0239a19d29ad36c2","computer","Desktop or Laptop","Mac OS 10.15.7","Chrome 121.0.0.0","1440x900","1440x779",NA,NA,0,"Task Introduction and Instructions (re-introduce video and audio) (Clone)",3,"FGEHDICJBA","Passed AC2",NA,"Spreadsheet1",1,"Task Instructions","Screen 12","1a4vu2",4,"continue","",21210.4999999999,21199.6,21210.4999999999,21210.4999999999,21199.6,21210.4999999999,1,21210.4999999999,0,0,NA,"Click To Continue","Continue Button",2,"object-2466","Task Instructions",NA,"SUPPRF20506"
"6",1707948318983,"14/02/2024 22:05:18",1707930318983,-5,"14/02/2024 12:05:18",165975,4,"task-v7r7",NA,35160096,10389981,NA,"complete",NA,"65cd338a0239a19d29ad36c2","computer","Desktop or Laptop","Mac OS 10.15.7","Chrome 121.0.0.0","1440x900","1440x779",NA,NA,0,"Task Introduction and Instructions (re-introduce video and audio) (Clone)",3,"FGEHDICJBA","Passed AC2",NA,"Spreadsheet1",1,"Task Instructions","Screen 13","q9vwda",5,"continue","",14143.3999999999,14133.5,14143.3999999999,14143.3999999999,14133.5,14143.3999999999,1,14143.3999999999,0,0,NA,"Click To Continue","Continue Button",2,"object-2989","Task Instructions",NA,"SUPPRF20506"
"7",1707948325066,"14/02/2024 22:05:25",1707930325066,-5,"14/02/2024 12:05:25",165975,4,"task-v7r7",NA,35160096,10389981,NA,"complete",NA,"65cd338a0239a19d29ad36c2","computer","Desktop or Laptop","Mac OS 10.15.7","Chrome 121.0.0.0","1440x900","1440x779",NA,NA,0,"Task Introduction and Instructions (re-introduce video and audio) (Clone)",3,"FGEHDICJBA","Passed AC2",NA,"Spreadsheet1",1,"Task Instructions","Screen 11","oyulb7",6,"continue","",6092.70000000019,6083,6092.70000000019,6092.70000000019,6083,6092.70000000019,1,6092.70000000019,0,0,NA,"Click To Continue","Continue Button",2,"object-52","Task Instructions",NA,"SUPPRF20506"
"8",1707948329383,"14/02/2024 22:05:29",1707930329383,-5,"14/02/2024 12:05:29",165975,4,"task-v7r7",NA,35160096,10389981,NA,"complete",NA,"65cd338a0239a19d29ad36c2","computer","Desktop or Laptop","Mac OS 10.15.7","Chrome 121.0.0.0","1440x900","1440x779",NA,NA,0,"Task Introduction and Instructions (re-introduce video and audio) (Clone)",3,"FGEHDICJBA","Passed AC2",NA,"Spreadsheet1",1,"Task Instructions","Screen 4","spepx9",7,"continue","",4327.10000000009,4315.89999999999,4327.10000000009,4327.10000000009,4315.89999999999,4327.10000000009,1,4327.10000000009,0,0,NA,"Click To Continue","Continue Button",2,"object-9","Task Instructions",NA,"SUPPRF20506"
"9",1707948333351,"14/02/2024 22:05:33",1707930333351,-5,"14/02/2024 12:05:33",165975,4,"task-v7r7",NA,35160096,10389981,NA,"complete",NA,"65cd338a0239a19d29ad36c2","computer","Desktop or Laptop","Mac OS 10.15.7","Chrome 121.0.0.0","1440x900","1440x779",NA,NA,0,"Task Introduction and Instructions (re-introduce video and audio) (Clone)",3,"FGEHDICJBA","Passed AC2",NA,"Spreadsheet1",1,"Task Instructions","Screen 5","8nvnao",8,"continue","",3978.7000000001,3966.70000000001,3978.7000000001,3978.7000000001,3966.70000000001,3978.7000000001,1,3978.7000000001,0,0,NA,"Click To Continue","Continue Button",2,"object-44","Task Instructions",NA,"SUPPRF20506"
"10",1707948333354,"14/02/2024 22:05:33",1707930333354,-5,"14/02/2024 12:05:33",165975,4,"task-v7r7",NA,35160096,10389981,NA,"complete",NA,"65cd338a0239a19d29ad36c2","computer","Desktop or Laptop","Mac OS 10.15.7","Chrome 121.0.0.0","1440x900","1440x779",NA,NA,0,"Task Introduction and Instructions (re-introduce video and audio) (Clone)",3,"FGEHDICJBA","Passed AC2",NA,"Spreadsheet1",NA,"","","",NA,"5","END",NA,NA,NA,NA,NA,NA,0,NA,NA,NA,NA,"","",NA,"","",NA,"SUPPRF20506"
"1",1707950457836,"14/02/2024 22:40:57",1707954057836,1,"15/02/2024 00:40:57",165975,4,"task-v7r7",NA,35161009,10390088,NA,"complete",NA,"65cd38310bb5765ca0640f9b","computer","Desktop or Laptop","Windows 10","Chrome 121.0.0.0","1366x768","1366x641",NA,NA,0,"Task Introduction and Instructions (re-introduce video and audio) (Clone)",3,"JAIBHCGDFE","Passed AC2",NA,"Spreadsheet1",NA,"","","",NA,"5","BEGIN",NA,NA,NA,NA,NA,NA,0,NA,NA,NA,NA,"","",NA,"","",NA,"SUPPRF75152"
"2",1707950463434,"14/02/2024 22:41:03",1707954063434,1,"15/02/2024 00:41:03",165975,4,"task-v7r7",NA,35161009,10390088,NA,"complete",NA,"65cd38310bb5765ca0640f9b","computer","Desktop or Laptop","Windows 10","Chrome 121.0.0.0","1366x768","1366x641",NA,NA,0,"Task Introduction and Instructions (re-introduce video and audio) (Clone)",3,"JAIBHCGDFE","Passed AC2",NA,"Spreadsheet1",1,"Task Instructions","Screen 1","anr7sn",1,"continue","",5052.80000000149,5035.1,5052.80000000149,5052.80000000149,5035.1,5052.80000000149,1,5052.80000000149,0,0,NA,"Click To Continue","Continue Button",3,"object-60","Task Instructions",NA,"SUPPRF75152"
"3",1707950484769,"14/02/2024 22:41:24",1707954084769,1,"15/02/2024 00:41:24",165975,4,"task-v7r7",NA,35161009,10390088,NA,"complete",NA,"65cd38310bb5765ca0640f9b","computer","Desktop or Laptop","Windows 10","Chrome 121.0.0.0","1366x768","1366x641",NA,NA,0,"Task Introduction and Instructions (re-introduce video and audio) (Clone)",3,"JAIBHCGDFE","Passed AC2",NA,"Spreadsheet1",1,"Task Instructions","Screen 2","ce2tc8",2,"continue","",21353.1,21343.7,21353.1,21353.1,21343.7,21353.1,1,21353.1,0,0,NA,"Click To Continue","Continue Button",3,"object-59","Task Instructions",NA,"SUPPRF75152"
"4",1707950528724,"14/02/2024 22:42:08",1707954128724,1,"15/02/2024 00:42:08",165975,4,"task-v7r7",NA,35161009,10390088,NA,"complete",NA,"65cd38310bb5765ca0640f9b","computer","Desktop or Laptop","Windows 10","Chrome 121.0.0.0","1366x768","1366x641",NA,NA,0,"Task Introduction and Instructions (re-introduce video and audio) (Clone)",3,"JAIBHCGDFE","Passed AC2",NA,"Spreadsheet1",1,"Task Instructions","Screen 3","1qtc8v",3,"continue","",43965,43939.8,43965,43965,43939.8,43965,1,43965,0,0,NA,"Click To Continue","Continue Button",2,"object-2983","Task Instructions",NA,"SUPPRF75152"
"5",1707950587835,"14/02/2024 22:43:07",1707954187835,1,"15/02/2024 00:43:07",165975,4,"task-v7r7",NA,35161009,10390088,NA,"complete",NA,"65cd38310bb5765ca0640f9b","computer","Desktop or Laptop","Windows 10","Chrome 121.0.0.0","1366x768","1366x641",NA,NA,0,"Task Introduction and Instructions (re-introduce video and audio) (Clone)",3,"JAIBHCGDFE","Passed AC2",NA,"Spreadsheet1",1,"Task Instructions","Screen 12","1a4vu2",4,"continue","",59136.0000000004,59120.8,59136.0000000004,59136.0000000004,59120.8,59136.0000000004,1,59136.0000000004,0,0,NA,"Click To Continue","Continue Button",2,"object-2466","Task Instructions",NA,"SUPPRF75152"
"6",1707950625313,"14/02/2024 22:43:45",1707954225313,1,"15/02/2024 00:43:45",165975,4,"task-v7r7",NA,35161009,10390088,NA,"complete",NA,"65cd38310bb5765ca0640f9b","computer","Desktop or Laptop","Windows 10","Chrome 121.0.0.0","1366x768","1366x641",NA,NA,0,"Task Introduction and Instructions (re-introduce video and audio) (Clone)",3,"JAIBHCGDFE","Passed AC2",NA,"Spreadsheet1",1,"Task Instructions","Screen 13","q9vwda",5,"continue","",37493.1000000007,37476.3,37493.1000000007,37493.1000000007,37476.3,37493.1000000007,1,37493.1000000007,0,0,NA,"Click To Continue","Continue Button",2,"object-2989","Task Instructions",NA,"SUPPRF75152"
"7",1707950654730,"14/02/2024 22:44:14",1707954254730,1,"15/02/2024 00:44:14",165975,4,"task-v7r7",NA,35161009,10390088,NA,"complete",NA,"65cd38310bb5765ca0640f9b","computer","Desktop or Laptop","Windows 10","Chrome 121.0.0.0","1366x768","1366x641",NA,NA,0,"Task Introduction and Instructions (re-introduce video and audio) (Clone)",3,"JAIBHCGDFE","Passed AC2",NA,"Spreadsheet1",1,"Task Instructions","Screen 11","oyulb7",6,"continue","",29433.2000000011,29409.8,29433.2000000011,29433.2000000011,29409.8,29433.2000000011,1,29433.2000000011,0,0,NA,"Click To Continue","Continue Button",2,"object-52","Task Instructions",NA,"SUPPRF75152"
"8",1707950667928,"14/02/2024 22:44:27",1707954267928,1,"15/02/2024 00:44:27",165975,4,"task-v7r7",NA,35161009,10390088,NA,"complete",NA,"65cd38310bb5765ca0640f9b","computer","Desktop or Laptop","Windows 10","Chrome 121.0.0.0","1366x768","1366x641",NA,NA,0,"Task Introduction and Instructions (re-introduce video and audio) (Clone)",3,"JAIBHCGDFE","Passed AC2",NA,"Spreadsheet1",1,"Task Instructions","Screen 4","spepx9",7,"continue","",13221.4000000011,13202.2,13221.4000000011,13221.4000000011,13202.2,13221.4000000011,1,13221.4000000011,0,0,NA,"Click To Continue","Continue Button",2,"object-9","Task Instructions",NA,"SUPPRF75152"
"9",1707950671021,"14/02/2024 22:44:31",1707954271021,1,"15/02/2024 00:44:31",165975,4,"task-v7r7",NA,35161009,10390088,NA,"complete",NA,"65cd38310bb5765ca0640f9b","computer","Desktop or Laptop","Windows 10","Chrome 121.0.0.0","1366x768","1366x641",NA,NA,0,"Task Introduction and Instructions (re-introduce video and audio) (Clone)",3,"JAIBHCGDFE","Passed AC2",NA,"Spreadsheet1",1,"Task Instructions","Screen 5","8nvnao",8,"continue","",3112.90000000037,3106.20000000001,3112.90000000037,3112.90000000037,3106.20000000001,3112.90000000037,1,3112.90000000037,0,0,NA,"Click To Continue","Continue Button",2,"object-44","Task Instructions",NA,"SUPPRF75152"
"10",1707950671026,"14/02/2024 22:44:31",1707954271026,1,"15/02/2024 00:44:31",165975,4,"task-v7r7",NA,35161009,10390088,NA,"complete",NA,"65cd38310bb5765ca0640f9b","computer","Desktop or Laptop","Windows 10","Chrome 121.0.0.0","1366x768","1366x641",NA,NA,0,"Task Introduction and Instructions (re-introduce video and audio) (Clone)",3,"JAIBHCGDFE","Passed AC2",NA,"Spreadsheet1",NA,"","","",NA,"5","END",NA,NA,NA,NA,NA,NA,0,NA,NA,NA,NA,"","",NA,"","",NA,"SUPPRF75152"
"1",1707949646826,"14/02/2024 22:27:26",1707928046826,-6,"14/02/2024 10:27:26",165975,4,"task-v7r7",NA,35160677,10390104,NA,"complete",NA,"65cd38aa94405b34e6d1f3c9","computer","Desktop or Laptop","Windows 10","Chrome 121.0.0.0","1280x720","1280x593",NA,NA,0,"Task Introduction and Instructions (re-introduce video and audio) (Clone)",3,"IJHAGBFCED","Passed AC2",NA,"Spreadsheet1",NA,"","","",NA,"5","BEGIN",NA,NA,NA,NA,NA,NA,0,NA,NA,NA,NA,"","",NA,"","",NA,"SUPPRF64920"
"2",1707949650418,"14/02/2024 22:27:30",1707928050418,-6,"14/02/2024 10:27:30",165975,4,"task-v7r7",NA,35160677,10390104,NA,"complete",NA,"65cd38aa94405b34e6d1f3c9","computer","Desktop or Laptop","Windows 10","Chrome 121.0.0.0","1280x720","1280x593",NA,NA,0,"Task Introduction and Instructions (re-introduce video and audio) (Clone)",3,"IJHAGBFCED","Passed AC2",NA,"Spreadsheet1",1,"Task Instructions","Screen 1","anr7sn",1,"continue","",3487.90000000298,3480,3487.90000000298,3487.90000000298,3480,3487.90000000298,1,3487.90000000298,0,0,NA,"Click To Continue","Continue Button",3,"object-60","Task Instructions",NA,"SUPPRF64920"
"3",1707949657381,"14/02/2024 22:27:37",1707928057381,-6,"14/02/2024 10:27:37",165975,4,"task-v7r7",NA,35160677,10390104,NA,"complete",NA,"65cd38aa94405b34e6d1f3c9","computer","Desktop or Laptop","Windows 10","Chrome 121.0.0.0","1280x720","1280x593",NA,NA,0,"Task Introduction and Instructions (re-introduce video and audio) (Clone)",3,"IJHAGBFCED","Passed AC2",NA,"Spreadsheet1",1,"Task Instructions","Screen 2","ce2tc8",2,"continue","",6971.80000000149,6960.8,6971.80000000149,6971.80000000149,6960.8,6971.80000000149,1,6971.80000000149,0,0,NA,"Click To Continue","Continue Button",3,"object-59","Task Instructions",NA,"SUPPRF64920"
"4",1707949665245,"14/02/2024 22:27:45",1707928065245,-6,"14/02/2024 10:27:45",165975,4,"task-v7r7",NA,35160677,10390104,NA,"complete",NA,"65cd38aa94405b34e6d1f3c9","computer","Desktop or Laptop","Windows 10","Chrome 121.0.0.0","1280x720","1280x593",NA,NA,0,"Task Introduction and Instructions (re-introduce video and audio) (Clone)",3,"IJHAGBFCED","Passed AC2",NA,"Spreadsheet1",1,"Task Instructions","Screen 3","1qtc8v",3,"continue","",7874.29999999851,7858.5,7874.29999999851,7874.29999999851,7858.5,7874.29999999851,1,7874.29999999851,0,0,NA,"Click To Continue","Continue Button",2,"object-2983","Task Instructions",NA,"SUPPRF64920"
"5",1707949670968,"14/02/2024 22:27:50",1707928070968,-6,"14/02/2024 10:27:50",165975,4,"task-v7r7",NA,35160677,10390104,NA,"complete",NA,"65cd38aa94405b34e6d1f3c9","computer","Desktop or Laptop","Windows 10","Chrome 121.0.0.0","1280x720","1280x593",NA,NA,0,"Task Introduction and Instructions (re-introduce video and audio) (Clone)",3,"IJHAGBFCED","Passed AC2",NA,"Spreadsheet1",1,"Task Instructions","Screen 12","1a4vu2",4,"continue","",5738.60000000298,5727.9,5738.60000000298,5738.60000000298,5727.9,5738.60000000298,1,5738.60000000298,0,0,NA,"Click To Continue","Continue Button",2,"object-2466","Task Instructions",NA,"SUPPRF64920"
"6",1707949679735,"14/02/2024 22:27:59",1707928079735,-6,"14/02/2024 10:27:59",165975,4,"task-v7r7",NA,35160677,10390104,NA,"complete",NA,"65cd38aa94405b34e6d1f3c9","computer","Desktop or Laptop","Windows 10","Chrome 121.0.0.0","1280x720","1280x593",NA,NA,0,"Task Introduction and Instructions (re-introduce video and audio) (Clone)",3,"IJHAGBFCED","Passed AC2",NA,"Spreadsheet1",1,"Task Instructions","Screen 13","q9vwda",5,"continue","",8778.60000000149,8775,8778.60000000149,8778.60000000149,8775,8778.60000000149,1,8778.60000000149,0,0,NA,"Click To Continue","Continue Button",2,"object-2989","Task Instructions",NA,"SUPPRF64920"
"7",1707949687467,"14/02/2024 22:28:07",1707928087467,-6,"14/02/2024 10:28:07",165975,4,"task-v7r7",NA,35160677,10390104,NA,"complete",NA,"65cd38aa94405b34e6d1f3c9","computer","Desktop or Laptop","Windows 10","Chrome 121.0.0.0","1280x720","1280x593",NA,NA,0,"Task Introduction and Instructions (re-introduce video and audio) (Clone)",3,"IJHAGBFCED","Passed AC2",NA,"Spreadsheet1",1,"Task Instructions","Screen 11","oyulb7",6,"continue","",7734.89999999851,7726,7734.89999999851,7734.89999999851,7726,7734.89999999851,1,7734.89999999851,0,0,NA,"Click To Continue","Continue Button",2,"object-52","Task Instructions",NA,"SUPPRF64920"
"8",1707949690436,"14/02/2024 22:28:10",1707928090436,-6,"14/02/2024 10:28:10",165975,4,"task-v7r7",NA,35160677,10390104,NA,"complete",NA,"65cd38aa94405b34e6d1f3c9","computer","Desktop or Laptop","Windows 10","Chrome 121.0.0.0","1280x720","1280x593",NA,NA,0,"Task Introduction and Instructions (re-introduce video and audio) (Clone)",3,"IJHAGBFCED","Passed AC2",NA,"Spreadsheet1",1,"Task Instructions","Screen 4","spepx9",7,"continue","",2977.89999999851,2963.9,2977.89999999851,2977.89999999851,2963.9,2977.89999999851,1,2977.89999999851,0,0,NA,"Click To Continue","Continue Button",2,"object-9","Task Instructions",NA,"SUPPRF64920"
"9",1707949693189,"14/02/2024 22:28:13",1707928093189,-6,"14/02/2024 10:28:13",165975,4,"task-v7r7",NA,35160677,10390104,NA,"complete",NA,"65cd38aa94405b34e6d1f3c9","computer","Desktop or Laptop","Windows 10","Chrome 121.0.0.0","1280x720","1280x593",NA,NA,0,"Task Introduction and Instructions (re-introduce video and audio) (Clone)",3,"IJHAGBFCED","Passed AC2",NA,"Spreadsheet1",1,"Task Instructions","Screen 5","8nvnao",8,"continue","",2767.1,2764.4,2767.1,2767.1,2764.4,2767.1,1,2767.1,0,0,NA,"Click To Continue","Continue Button",2,"object-44","Task Instructions",NA,"SUPPRF64920"
"10",1707949693191,"14/02/2024 22:28:13",1707928093191,-6,"14/02/2024 10:28:13",165975,4,"task-v7r7",NA,35160677,10390104,NA,"complete",NA,"65cd38aa94405b34e6d1f3c9","computer","Desktop or Laptop","Windows 10","Chrome 121.0.0.0","1280x720","1280x593",NA,NA,0,"Task Introduction and Instructions (re-introduce video and audio) (Clone)",3,"IJHAGBFCED","Passed AC2",NA,"Spreadsheet1",NA,"","","",NA,"5","END",NA,NA,NA,NA,NA,NA,0,NA,NA,NA,NA,"","",NA,"","",NA,"SUPPRF64920"
"1",1707949380669,"14/02/2024 22:23:00",1707931380669,-5,"14/02/2024 12:23:00",165975,4,"task-v7r7",NA,35160599,10390107,NA,"complete",NA,"65cd38c5ef6e6cca3a77babf","computer","Desktop or Laptop","Windows 10","Chrome 121.0.0.0","1536x864","1536x695",NA,NA,0,"Task Introduction and Instructions (re-introduce video and audio) (Clone)",3,"HIGJFAEBDC","Passed AC2",NA,"Spreadsheet1",NA,"","","",NA,"5","BEGIN",NA,NA,NA,NA,NA,NA,0,NA,NA,NA,NA,"","",NA,"","",NA,"SUPPRF87945"
"2",1707949387390,"14/02/2024 22:23:07",1707931387390,-5,"14/02/2024 12:23:07",165975,4,"task-v7r7",NA,35160599,10390107,NA,"complete",NA,"65cd38c5ef6e6cca3a77babf","computer","Desktop or Laptop","Windows 10","Chrome 121.0.0.0","1536x864","1536x695",NA,NA,0,"Task Introduction and Instructions (re-introduce video and audio) (Clone)",3,"HIGJFAEBDC","Passed AC2",NA,"Spreadsheet1",1,"Task Instructions","Screen 1","anr7sn",1,"continue","",6052.69999999702,6044.5,6052.69999999702,6052.69999999702,6044.5,6052.69999999702,1,6052.69999999702,0,0,NA,"Click To Continue","Continue Button",3,"object-60","Task Instructions",NA,"SUPPRF87945"
"3",1707949402125,"14/02/2024 22:23:22",1707931402125,-5,"14/02/2024 12:23:22",165975,4,"task-v7r7",NA,35160599,10390107,NA,"complete",NA,"65cd38c5ef6e6cca3a77babf","computer","Desktop or Laptop","Windows 10","Chrome 121.0.0.0","1536x864","1536x695",NA,NA,0,"Task Introduction and Instructions (re-introduce video and audio) (Clone)",3,"HIGJFAEBDC","Passed AC2",NA,"Spreadsheet1",1,"Task Instructions","Screen 2","ce2tc8",2,"continue","",14743.5000000015,14736.3,14743.5000000015,14743.5000000015,14736.3,14743.5000000015,1,14743.5000000015,0,0,NA,"Click To Continue","Continue Button",3,"object-59","Task Instructions",NA,"SUPPRF87945"
"4",1707949410461,"14/02/2024 22:23:30",1707931410461,-5,"14/02/2024 12:23:30",165975,4,"task-v7r7",NA,35160599,10390107,NA,"complete",NA,"65cd38c5ef6e6cca3a77babf","computer","Desktop or Laptop","Windows 10","Chrome 121.0.0.0","1536x864","1536x695",NA,NA,0,"Task Introduction and Instructions (re-introduce video and audio) (Clone)",3,"HIGJFAEBDC","Passed AC2",NA,"Spreadsheet1",1,"Task Instructions","Screen 3","1qtc8v",3,"continue","",8341.9,8325.4,8341.9,8341.9,8325.4,8341.9,1,8341.9,0,0,NA,"Click To Continue","Continue Button",2,"object-2983","Task Instructions",NA,"SUPPRF87945"
"5",1707949423677,"14/02/2024 22:23:43",1707931423677,-5,"14/02/2024 12:23:43",165975,4,"task-v7r7",NA,35160599,10390107,NA,"complete",NA,"65cd38c5ef6e6cca3a77babf","computer","Desktop or Laptop","Windows 10","Chrome 121.0.0.0","1536x864","1536x695",NA,NA,0,"Task Introduction and Instructions (re-introduce video and audio) (Clone)",3,"HIGJFAEBDC","Passed AC2",NA,"Spreadsheet1",1,"Task Instructions","Screen 12","1a4vu2",4,"continue","",13234.3000000015,13221.3,13234.3000000015,13234.3000000015,13221.3,13234.3000000015,1,13234.3000000015,0,0,NA,"Click To Continue","Continue Button",2,"object-2466","Task Instructions",NA,"SUPPRF87945"
"6",1707949430637,"14/02/2024 22:23:50",1707931430637,-5,"14/02/2024 12:23:50",165975,4,"task-v7r7",NA,35160599,10390107,NA,"complete",NA,"65cd38c5ef6e6cca3a77babf","computer","Desktop or Laptop","Windows 10","Chrome 121.0.0.0","1536x864","1536x695",NA,NA,0,"Task Introduction and Instructions (re-introduce video and audio) (Clone)",3,"HIGJFAEBDC","Passed AC2",NA,"Spreadsheet1",1,"Task Instructions","Screen 13","q9vwda",5,"continue","",6972.60000000298,6960,6972.60000000298,6972.60000000298,6960,6972.60000000298,1,6972.60000000298,0,0,NA,"Click To Continue","Continue Button",2,"object-2989","Task Instructions",NA,"SUPPRF87945"
"7",1707949434829,"14/02/2024 22:23:54",1707931434829,-5,"14/02/2024 12:23:54",165975,4,"task-v7r7",NA,35160599,10390107,NA,"complete",NA,"65cd38c5ef6e6cca3a77babf","computer","Desktop or Laptop","Windows 10","Chrome 121.0.0.0","1536x864","1536x695",NA,NA,0,"Task Introduction and Instructions (re-introduce video and audio) (Clone)",3,"HIGJFAEBDC","Passed AC2",NA,"Spreadsheet1",1,"Task Instructions","Screen 11","oyulb7",6,"continue","",4204.79999999851,4196.2,4204.79999999851,4204.79999999851,4196.2,4204.79999999851,1,4204.79999999851,0,0,NA,"Click To Continue","Continue Button",2,"object-52","Task Instructions",NA,"SUPPRF87945"
"8",1707949437617,"14/02/2024 22:23:57",1707931437617,-5,"14/02/2024 12:23:57",165975,4,"task-v7r7",NA,35160599,10390107,NA,"complete",NA,"65cd38c5ef6e6cca3a77babf","computer","Desktop or Laptop","Windows 10","Chrome 121.0.0.0","1536x864","1536x695",NA,NA,0,"Task Introduction and Instructions (re-introduce video and audio) (Clone)",3,"HIGJFAEBDC","Passed AC2",NA,"Spreadsheet1",1,"Task Instructions","Screen 4","spepx9",7,"continue","",2796.30000000149,2780.6,2796.30000000149,2796.30000000149,2780.6,2796.30000000149,1,2796.30000000149,0,0,NA,"Click To Continue","Continue Button",2,"object-9","Task Instructions",NA,"SUPPRF87945"
"9",1707949440573,"14/02/2024 22:24:00",1707931440573,-5,"14/02/2024 12:24:00",165975,4,"task-v7r7",NA,35160599,10390107,NA,"complete",NA,"65cd38c5ef6e6cca3a77babf","computer","Desktop or Laptop","Windows 10","Chrome 121.0.0.0","1536x864","1536x695",NA,NA,0,"Task Introduction and Instructions (re-introduce video and audio) (Clone)",3,"HIGJFAEBDC","Passed AC2",NA,"Spreadsheet1",1,"Task Instructions","Screen 5","8nvnao",8,"continue","",2971.80000000298,2963.7,2971.80000000298,2971.80000000298,2963.7,2971.80000000298,1,2971.80000000298,0,0,NA,"Click To Continue","Continue Button",2,"object-44","Task Instructions",NA,"SUPPRF87945"
"10",1707949440575,"14/02/2024 22:24:00",1707931440575,-5,"14/02/2024 12:24:00",165975,4,"task-v7r7",NA,35160599,10390107,NA,"complete",NA,"65cd38c5ef6e6cca3a77babf","computer","Desktop or Laptop","Windows 10","Chrome 121.0.0.0","1536x864","1536x695",NA,NA,0,"Task Introduction and Instructions (re-introduce video and audio) (Clone)",3,"HIGJFAEBDC","Passed AC2",NA,"Spreadsheet1",NA,"","","",NA,"5","END",NA,NA,NA,NA,NA,NA,0,NA,NA,NA,NA,"","",NA,"","",NA,"SUPPRF87945"
"1",1707948834154,"14/02/2024 22:13:54",1707948834154,0,"14/02/2024 22:13:54",165975,4,"task-v7r7",NA,35160366,10390114,NA,"complete",NA,"65cd3873c06aada397cbf2e2","computer","Desktop or Laptop","Windows 10","Chrome 121.0.0.0","1920x1080","1920x911",NA,NA,0,"Task Introduction and Instructions (re-introduce video and audio) (Clone)",3,"GHFIEJDACB","Passed AC2",NA,"Spreadsheet1",NA,"","","",NA,"5","BEGIN",NA,NA,NA,NA,NA,NA,0,NA,NA,NA,NA,"","",NA,"","",NA,"SUPPRF73279"
"2",1707948838470,"14/02/2024 22:13:58",1707948838470,0,"14/02/2024 22:13:58",165975,4,"task-v7r7",NA,35160366,10390114,NA,"complete",NA,"65cd3873c06aada397cbf2e2","computer","Desktop or Laptop","Windows 10","Chrome 121.0.0.0","1920x1080","1920x911",NA,NA,0,"Task Introduction and Instructions (re-introduce video and audio) (Clone)",3,"GHFIEJDACB","Passed AC2",NA,"Spreadsheet1",1,"Task Instructions","Screen 1","anr7sn",1,"continue","",4283.20000000894,4266.9,4283.20000000894,4283.20000000894,4266.9,4283.20000000894,1,4283.20000000894,0,0,NA,"Click To Continue","Continue Button",3,"object-60","Task Instructions",NA,"SUPPRF73279"
"3",1707948848941,"14/02/2024 22:14:08",1707948848941,0,"14/02/2024 22:14:08",165975,4,"task-v7r7",NA,35160366,10390114,NA,"complete",NA,"65cd3873c06aada397cbf2e2","computer","Desktop or Laptop","Windows 10","Chrome 121.0.0.0","1920x1080","1920x911",NA,NA,0,"Task Introduction and Instructions (re-introduce video and audio) (Clone)",3,"GHFIEJDACB","Passed AC2",NA,"Spreadsheet1",1,"Task Instructions","Screen 2","ce2tc8",2,"continue","",10488.0000000119,10483.7,10488.0000000119,10488.0000000119,10483.7,10488.0000000119,1,10488.0000000119,0,0,NA,"Click To Continue","Continue Button",3,"object-59","Task Instructions",NA,"SUPPRF73279"
"4",1707948858940,"14/02/2024 22:14:18",1707948858940,0,"14/02/2024 22:14:18",165975,4,"task-v7r7",NA,35160366,10390114,NA,"complete",NA,"65cd3873c06aada397cbf2e2","computer","Desktop or Laptop","Windows 10","Chrome 121.0.0.0","1920x1080","1920x911",NA,NA,0,"Task Introduction and Instructions (re-introduce video and audio) (Clone)",3,"GHFIEJDACB","Passed AC2",NA,"Spreadsheet1",1,"Task Instructions","Screen 3","1qtc8v",3,"continue","",10003.8000000119,10000.5,10003.8000000119,10003.8000000119,10000.5,10003.8000000119,1,10003.8000000119,0,0,NA,"Click To Continue","Continue Button",2,"object-2983","Task Instructions",NA,"SUPPRF73279"
"5",1707948866277,"14/02/2024 22:14:26",1707948866277,0,"14/02/2024 22:14:26",165975,4,"task-v7r7",NA,35160366,10390114,NA,"complete",NA,"65cd3873c06aada397cbf2e2","computer","Desktop or Laptop","Windows 10","Chrome 121.0.0.0","1920x1080","1920x911",NA,NA,0,"Task Introduction and Instructions (re-introduce video and audio) (Clone)",3,"GHFIEJDACB","Passed AC2",NA,"Spreadsheet1",1,"Task Instructions","Screen 12","1a4vu2",4,"continue","",7340,7333.7,7340,7340,7333.7,7340,1,7340,0,0,NA,"Click To Continue","Continue Button",2,"object-2466","Task Instructions",NA,"SUPPRF73279"
