"Event.Index","UTC.Timestamp","UTC.Date.and.Time","Local.Timestamp","Local.Timezone","Local.Date.and.Time","Experiment.ID","Experiment.Version","Tree.Node.Key","Repeat.Key","Schedule.ID","Participant.Private.ID","Participant.Starting.Group","Participant.Status","Participant.Completion.Code","Participant.External.Session.ID","Participant.Device.Type","Participant.Device","Participant.OS","Participant.Browser","Participant.Monitor.Size","Participant.Viewport.Size","Checkpoint","Room.ID","Room.Order","Task.Name","Task.Version","order.ot79","branch.g31k","branch.5gtn","Spreadsheet","Trial.Number","Display","Screen","Screen.ID","Screen.Counter","Response.Type","Response","Onset.Time","Clock.Time","Reaction.Time","Absolute.Onset.Time","Absolute.Clock.Time","Absolute.Reaction.Time","Correct","Response.Onset","Response.Duration","Proportion","Tag","Component.Name","Object.Name","Object.Number","Object.ID","Spreadsheet..display","Manipulation..Spreadsheet","Random_ID"
"1",1707940347108,"14/02/2024 19:52:27",1707940347108,0,"14/02/2024 19:52:27",165975,4,"task-gjqt",NA,35156861,10389048,NA,"complete",NA,"65cd1867a8c70a340c80a8be","computer","Desktop or Laptop","Windows 10","Chrome 121.0.0.0","1920x1080","1920x911",NA,NA,0,"BIQ (Charlotte)",3,"ABJCIDHEGF","Passed AC2",NA,"Spreadsheet1",NA,"","","",NA,"5","BEGIN",NA,NA,NA,NA,NA,NA,0,NA,NA,NA,NA,"","",NA,"","",NA,NA
"2",1707940370964,"14/02/2024 19:52:50",1707940370964,0,"14/02/2024 19:52:50",165975,4,"task-gjqt",NA,35156861,10389048,NA,"complete",NA,"65cd1867a8c70a340c80a8be","computer","Desktop or Laptop","Windows 10","Chrome 121.0.0.0","1920x1080","1920x911",NA,NA,0,"BIQ (Charlotte)",3,"ABJCIDHEGF","Passed AC2",NA,"Spreadsheet1",1,"BIQ","Screen 1","9dh6eq",1,"continue","",23864.7000000477,23860.9,23864.7000000477,23864.7000000477,23860.9,23864.7000000477,1,23864.7000000477,0,0,NA,"Click To Continue","Continue Button",23,"object-48","BIQ",NA,NA
"3",1707940370965,"14/02/2024 19:52:50",1707940370965,0,"14/02/2024 19:52:50",165975,4,"task-gjqt",NA,35156861,10389048,NA,"complete",NA,"65cd1867a8c70a340c80a8be","computer","Desktop or Laptop","Windows 10","Chrome 121.0.0.0","1920x1080","1920x911",NA,NA,0,"BIQ (Charlotte)",3,"ABJCIDHEGF","Passed AC2",NA,"Spreadsheet1",1,"BIQ","Screen 1","9dh6eq",1,"response","7",8201.3,23860.9,23866,8201.3,23860.9,23866,1,8201.3,15664.7,0,NA,"Rating Scale","Rating Scale",3,"object-5","BIQ",NA,NA
"4",1707940370965,"14/02/2024 19:52:50",1707940370965,0,"14/02/2024 19:52:50",165975,4,"task-gjqt",NA,35156861,10389048,NA,"complete",NA,"65cd1867a8c70a340c80a8be","computer","Desktop or Laptop","Windows 10","Chrome 121.0.0.0","1920x1080","1920x911",NA,NA,0,"BIQ (Charlotte)",3,"ABJCIDHEGF","Passed AC2",NA,"Spreadsheet1",1,"BIQ","Screen 1","9dh6eq",1,"response","5",10889.2,23860.9,23866.1000000238,10889.2,23860.9,23866.1000000238,1,10889.2,12976.9000000238,0,NA,"Rating Scale","Rating Scale",10,"object-18","BIQ",NA,NA
"5",1707940370965,"14/02/2024 19:52:50",1707940370965,0,"14/02/2024 19:52:50",165975,4,"task-gjqt",NA,35156861,10389048,NA,"complete",NA,"65cd1867a8c70a340c80a8be","computer","Desktop or Laptop","Windows 10","Chrome 121.0.0.0","1920x1080","1920x911",NA,NA,0,"BIQ (Charlotte)",3,"ABJCIDHEGF","Passed AC2",NA,"Spreadsheet1",1,"BIQ","Screen 1","9dh6eq",1,"response","2",11659.6,23860.9,23866.2000000477,11659.6,23860.9,23866.2000000477,1,11659.6,12206.6000000477,0,NA,"Rating Scale","Rating Scale",17,"object-80","BIQ",NA,NA
"6",1707940388650,"14/02/2024 19:53:08",1707940388650,0,"14/02/2024 19:53:08",165975,4,"task-gjqt",NA,35156861,10389048,NA,"complete",NA,"65cd1867a8c70a340c80a8be","computer","Desktop or Laptop","Windows 10","Chrome 121.0.0.0","1920x1080","1920x911",NA,NA,0,"BIQ (Charlotte)",3,"ABJCIDHEGF","Passed AC2",NA,"Spreadsheet1",1,"BIQ","Screen 2","o21mwi",2,"continue","",17690.6,17687.4,17690.6,17690.6,17687.4,17690.6,1,17690.6,0,0,NA,"Click To Continue","Continue Button",22,"object-50","BIQ",NA,NA
"7",1707940388652,"14/02/2024 19:53:08",1707940388652,0,"14/02/2024 19:53:08",165975,4,"task-gjqt",NA,35156861,10389048,NA,"complete",NA,"65cd1867a8c70a340c80a8be","computer","Desktop or Laptop","Windows 10","Chrome 121.0.0.0","1920x1080","1920x911",NA,NA,0,"BIQ (Charlotte)",3,"ABJCIDHEGF","Passed AC2",NA,"Spreadsheet1",1,"BIQ","Screen 2","o21mwi",2,"response","8",6868,17687.4,17691.8000000477,6868,17687.4,17691.8000000477,1,6868,10823.8000000477,0,NA,"Rating Scale","Rating Scale",2,"object-259","BIQ",NA,NA
"8",1707940388652,"14/02/2024 19:53:08",1707940388652,0,"14/02/2024 19:53:08",165975,4,"task-gjqt",NA,35156861,10389048,NA,"complete",NA,"65cd1867a8c70a340c80a8be","computer","Desktop or Laptop","Windows 10","Chrome 121.0.0.0","1920x1080","1920x911",NA,NA,0,"BIQ (Charlotte)",3,"ABJCIDHEGF","Passed AC2",NA,"Spreadsheet1",1,"BIQ","Screen 2","o21mwi",2,"response","0",12402.6,17687.4,17692.0000000954,12402.6,17687.4,17692.0000000954,1,12402.6,5289.40000009537,0,NA,"Rating Scale","Rating Scale",9,"object-36","BIQ",NA,NA
"9",1707940388652,"14/02/2024 19:53:08",1707940388652,0,"14/02/2024 19:53:08",165975,4,"task-gjqt",NA,35156861,10389048,NA,"complete",NA,"65cd1867a8c70a340c80a8be","computer","Desktop or Laptop","Windows 10","Chrome 121.0.0.0","1920x1080","1920x911",NA,NA,0,"BIQ (Charlotte)",3,"ABJCIDHEGF","Passed AC2",NA,"Spreadsheet1",1,"BIQ","Screen 2","o21mwi",2,"response","0",15791.6,17687.4,17692.1,15791.6,17687.4,17692.1,1,15791.6,1900.5,0,NA,"Rating Scale","Rating Scale",16,"object-86","BIQ",NA,NA
"10",1707940400138,"14/02/2024 19:53:20",1707940400138,0,"14/02/2024 19:53:20",165975,4,"task-gjqt",NA,35156861,10389048,NA,"complete",NA,"65cd1867a8c70a340c80a8be","computer","Desktop or Laptop","Windows 10","Chrome 121.0.0.0","1920x1080","1920x911",NA,NA,0,"BIQ (Charlotte)",3,"ABJCIDHEGF","Passed AC2",NA,"Spreadsheet1",1,"BIQ","Screen 3","iz3the",3,"continue","",11491.1000000954,11485.9,11491.1000000954,11491.1000000954,11485.9,11491.1000000954,1,11491.1000000954,0,0,NA,"Click To Continue","Continue Button",22,"object-73","BIQ",NA,NA
"11",1707940400139,"14/02/2024 19:53:20",1707940400139,0,"14/02/2024 19:53:20",165975,4,"task-gjqt",NA,35156861,10389048,NA,"complete",NA,"65cd1867a8c70a340c80a8be","computer","Desktop or Laptop","Windows 10","Chrome 121.0.0.0","1920x1080","1920x911",NA,NA,0,"BIQ (Charlotte)",3,"ABJCIDHEGF","Passed AC2",NA,"Spreadsheet1",1,"BIQ","Screen 3","iz3the",3,"response","0",7166.6,11485.9,11492.2,7166.6,11485.9,11492.2,1,7166.6,4325.6,0,NA,"Rating Scale","Rating Scale",2,"object-53","BIQ",NA,NA
"12",1707940400139,"14/02/2024 19:53:20",1707940400139,0,"14/02/2024 19:53:20",165975,4,"task-gjqt",NA,35156861,10389048,NA,"complete",NA,"65cd1867a8c70a340c80a8be","computer","Desktop or Laptop","Windows 10","Chrome 121.0.0.0","1920x1080","1920x911",NA,NA,0,"BIQ (Charlotte)",3,"ABJCIDHEGF","Passed AC2",NA,"Spreadsheet1",1,"BIQ","Screen 3","iz3the",3,"response","0",8583.2,11485.9,11492.3000000238,8583.2,11485.9,11492.3000000238,1,8583.2,2909.10000002384,0,NA,"Rating Scale","Rating Scale",9,"object-60","BIQ",NA,NA
"13",1707940400140,"14/02/2024 19:53:20",1707940400140,0,"14/02/2024 19:53:20",165975,4,"task-gjqt",NA,35156861,10389048,NA,"complete",NA,"65cd1867a8c70a340c80a8be","computer","Desktop or Laptop","Windows 10","Chrome 121.0.0.0","1920x1080","1920x911",NA,NA,0,"BIQ (Charlotte)",3,"ABJCIDHEGF","Passed AC2",NA,"Spreadsheet1",1,"BIQ","Screen 3","iz3the",3,"response","0",10069.4,11485.9,11492.6000000954,10069.4,11485.9,11492.6000000954,1,10069.4,1423.20000009537,0,NA,"Rating Scale","Rating Scale",16,"object-67","BIQ",NA,NA
"14",1707940400142,"14/02/2024 19:53:20",1707940400142,0,"14/02/2024 19:53:20",165975,4,"task-gjqt",NA,35156861,10389048,NA,"complete",NA,"65cd1867a8c70a340c80a8be","computer","Desktop or Laptop","Windows 10","Chrome 121.0.0.0","1920x1080","1920x911",NA,NA,0,"BIQ (Charlotte)",3,"ABJCIDHEGF","Passed AC2",NA,"Spreadsheet1",NA,"","","",NA,"5","END",NA,NA,NA,NA,NA,NA,0,NA,NA,NA,NA,"","",NA,"","",NA,NA
"1",1707940564779,"14/02/2024 19:56:04",1707922564779,-5,"14/02/2024 09:56:04",165975,4,"task-gjqt",NA,35156972,10389073,NA,"complete",NA,"65cd193ab210334c78dff783","computer","Desktop or Laptop","Mac OS 10.15.7","Chrome 120.0.0.0","1440x900","1440x684",NA,NA,0,"BIQ (Charlotte)",3,"BCADJEIFHG","Passed AC2",NA,"Spreadsheet1",NA,"","","",NA,"5","BEGIN",NA,NA,NA,NA,NA,NA,0,NA,NA,NA,NA,"","",NA,"","",NA,"SUPPRF73357"
"2",1707940589677,"14/02/2024 19:56:29",1707922589677,-5,"14/02/2024 09:56:29",165975,4,"task-gjqt",NA,35156972,10389073,NA,"complete",NA,"65cd193ab210334c78dff783","computer","Desktop or Laptop","Mac OS 10.15.7","Chrome 120.0.0.0","1440x900","1440x684",NA,NA,0,"BIQ (Charlotte)",3,"BCADJEIFHG","Passed AC2",NA,"Spreadsheet1",1,"BIQ","Screen 1","9dh6eq",1,"continue","",24911.7,24899.8,24911.7,24911.7,24899.8,24911.7,1,24911.7,0,0,NA,"Click To Continue","Continue Button",23,"object-48","BIQ",NA,"SUPPRF73357"
"3",1707940589680,"14/02/2024 19:56:29",1707922589680,-5,"14/02/2024 09:56:29",165975,4,"task-gjqt",NA,35156972,10389073,NA,"complete",NA,"65cd193ab210334c78dff783","computer","Desktop or Laptop","Mac OS 10.15.7","Chrome 120.0.0.0","1440x900","1440x684",NA,NA,0,"BIQ (Charlotte)",3,"BCADJEIFHG","Passed AC2",NA,"Spreadsheet1",1,"BIQ","Screen 1","9dh6eq",1,"response","6",12833.3,24899.8,24914.5999999762,12833.3,24899.8,24914.5999999762,1,12833.3,12081.2999999762,0,NA,"Rating Scale","Rating Scale",3,"object-5","BIQ",NA,"SUPPRF73357"
"4",1707940589680,"14/02/2024 19:56:29",1707922589680,-5,"14/02/2024 09:56:29",165975,4,"task-gjqt",NA,35156972,10389073,NA,"complete",NA,"65cd193ab210334c78dff783","computer","Desktop or Laptop","Mac OS 10.15.7","Chrome 120.0.0.0","1440x900","1440x684",NA,NA,0,"BIQ (Charlotte)",3,"BCADJEIFHG","Passed AC2",NA,"Spreadsheet1",1,"BIQ","Screen 1","9dh6eq",1,"response","8",17483.1,24899.8,24914.9999999523,17483.1,24899.8,24914.9999999523,1,17483.1,7431.89999995231,0,NA,"Rating Scale","Rating Scale",10,"object-18","BIQ",NA,"SUPPRF73357"
"5",1707940589680,"14/02/2024 19:56:29",1707922589680,-5,"14/02/2024 09:56:29",165975,4,"task-gjqt",NA,35156972,10389073,NA,"complete",NA,"65cd193ab210334c78dff783","computer","Desktop or Laptop","Mac OS 10.15.7","Chrome 120.0.0.0","1440x900","1440x684",NA,NA,0,"BIQ (Charlotte)",3,"BCADJEIFHG","Passed AC2",NA,"Spreadsheet1",1,"BIQ","Screen 1","9dh6eq",1,"response","0",19599.7,24899.8,24915.4999999523,19599.7,24899.8,24915.4999999523,1,19599.7,5315.79999995232,0,NA,"Rating Scale","Rating Scale",17,"object-80","BIQ",NA,"SUPPRF73357"
"6",1707940600604,"14/02/2024 19:56:40",1707922600604,-5,"14/02/2024 09:56:40",165975,4,"task-gjqt",NA,35156972,10389073,NA,"complete",NA,"65cd193ab210334c78dff783","computer","Desktop or Laptop","Mac OS 10.15.7","Chrome 120.0.0.0","1440x900","1440x684",NA,NA,0,"BIQ (Charlotte)",3,"BCADJEIFHG","Passed AC2",NA,"Spreadsheet1",1,"BIQ","Screen 2","o21mwi",2,"continue","",10938.7999999762,10933.1,10938.7999999762,10938.7999999762,10933.1,10938.7999999762,1,10938.7999999762,0,0,NA,"Click To Continue","Continue Button",22,"object-50","BIQ",NA,"SUPPRF73357"
"7",1707940600607,"14/02/2024 19:56:40",1707922600607,-5,"14/02/2024 09:56:40",165975,4,"task-gjqt",NA,35156972,10389073,NA,"complete",NA,"65cd193ab210334c78dff783","computer","Desktop or Laptop","Mac OS 10.15.7","Chrome 120.0.0.0","1440x900","1440x684",NA,NA,0,"BIQ (Charlotte)",3,"BCADJEIFHG","Passed AC2",NA,"Spreadsheet1",1,"BIQ","Screen 2","o21mwi",2,"response","8",6850,10933.1,10942.2999999762,6850,10933.1,10942.2999999762,1,6850,4092.29999997616,0,NA,"Rating Scale","Rating Scale",2,"object-259","BIQ",NA,"SUPPRF73357"
"8",1707940600608,"14/02/2024 19:56:40",1707922600608,-5,"14/02/2024 09:56:40",165975,4,"task-gjqt",NA,35156972,10389073,NA,"complete",NA,"65cd193ab210334c78dff783","computer","Desktop or Laptop","Mac OS 10.15.7","Chrome 120.0.0.0","1440x900","1440x684",NA,NA,0,"BIQ (Charlotte)",3,"BCADJEIFHG","Passed AC2",NA,"Spreadsheet1",1,"BIQ","Screen 2","o21mwi",2,"response","0",9183.2,10933.1,10942.7999999762,9183.2,10933.1,10942.7999999762,1,9183.2,1759.59999997616,0,NA,"Rating Scale","Rating Scale",9,"object-36","BIQ",NA,"SUPPRF73357"
"9",1707940600608,"14/02/2024 19:56:40",1707922600608,-5,"14/02/2024 09:56:40",165975,4,"task-gjqt",NA,35156972,10389073,NA,"complete",NA,"65cd193ab210334c78dff783","computer","Desktop or Laptop","Mac OS 10.15.7","Chrome 120.0.0.0","1440x900","1440x684",NA,NA,0,"BIQ (Charlotte)",3,"BCADJEIFHG","Passed AC2",NA,"Spreadsheet1",1,"BIQ","Screen 2","o21mwi",2,"response","0",10099.8,10933.1,10943.4,10099.8,10933.1,10943.4,1,10099.8,843.599999999999,0,NA,"Rating Scale","Rating Scale",16,"object-86","BIQ",NA,"SUPPRF73357"
"10",1707940611308,"14/02/2024 19:56:51",1707922611308,-5,"14/02/2024 09:56:51",165975,4,"task-gjqt",NA,35156972,10389073,NA,"complete",NA,"65cd193ab210334c78dff783","computer","Desktop or Laptop","Mac OS 10.15.7","Chrome 120.0.0.0","1440x900","1440x684",NA,NA,0,"BIQ (Charlotte)",3,"BCADJEIFHG","Passed AC2",NA,"Spreadsheet1",1,"BIQ","Screen 3","iz3the",3,"continue","",10709.3,10699.9,10709.3,10709.3,10699.9,10709.3,1,10709.3,0,0,NA,"Click To Continue","Continue Button",22,"object-73","BIQ",NA,"SUPPRF73357"
"11",1707940611311,"14/02/2024 19:56:51",1707922611311,-5,"14/02/2024 09:56:51",165975,4,"task-gjqt",NA,35156972,10389073,NA,"complete",NA,"65cd193ab210334c78dff783","computer","Desktop or Laptop","Mac OS 10.15.7","Chrome 120.0.0.0","1440x900","1440x684",NA,NA,0,"BIQ (Charlotte)",3,"BCADJEIFHG","Passed AC2",NA,"Spreadsheet1",1,"BIQ","Screen 3","iz3the",3,"response","0",4816.5,10699.9,10712.1999999762,4816.5,10699.9,10712.1999999762,1,4816.5,5895.69999997616,0,NA,"Rating Scale","Rating Scale",2,"object-53","BIQ",NA,"SUPPRF73357"
"12",1707940611311,"14/02/2024 19:56:51",1707922611311,-5,"14/02/2024 09:56:51",165975,4,"task-gjqt",NA,35156972,10389073,NA,"complete",NA,"65cd193ab210334c78dff783","computer","Desktop or Laptop","Mac OS 10.15.7","Chrome 120.0.0.0","1440x900","1440x684",NA,NA,0,"BIQ (Charlotte)",3,"BCADJEIFHG","Passed AC2",NA,"Spreadsheet1",1,"BIQ","Screen 3","iz3the",3,"response","0",6033.4,10699.9,10712.6999999762,6033.4,10699.9,10712.6999999762,1,6033.4,4679.29999997616,0,NA,"Rating Scale","Rating Scale",9,"object-60","BIQ",NA,"SUPPRF73357"
"13",1707940611312,"14/02/2024 19:56:51",1707922611312,-5,"14/02/2024 09:56:51",165975,4,"task-gjqt",NA,35156972,10389073,NA,"complete",NA,"65cd193ab210334c78dff783","computer","Desktop or Laptop","Mac OS 10.15.7","Chrome 120.0.0.0","1440x900","1440x684",NA,NA,0,"BIQ (Charlotte)",3,"BCADJEIFHG","Passed AC2",NA,"Spreadsheet1",1,"BIQ","Screen 3","iz3the",3,"response","1",6733.3,10699.9,10713.1999999762,6733.3,10699.9,10713.1999999762,1,6733.3,3979.89999997616,0,NA,"Rating Scale","Rating Scale",16,"object-67","BIQ",NA,"SUPPRF73357"
"14",1707940611317,"14/02/2024 19:56:51",1707922611317,-5,"14/02/2024 09:56:51",165975,4,"task-gjqt",NA,35156972,10389073,NA,"complete",NA,"65cd193ab210334c78dff783","computer","Desktop or Laptop","Mac OS 10.15.7","Chrome 120.0.0.0","1440x900","1440x684",NA,NA,0,"BIQ (Charlotte)",3,"BCADJEIFHG","Passed AC2",NA,"Spreadsheet1",NA,"","","",NA,"5","END",NA,NA,NA,NA,NA,NA,0,NA,NA,NA,NA,"","",NA,"","",NA,"SUPPRF73357"
"1",1707942314574,"14/02/2024 20:25:14",1707942314574,0,"14/02/2024 20:25:14",165975,4,"task-gjqt",NA,35157859,10389205,NA,"complete",NA,"65cd1c256f7be3af7ebb1a2d","computer","Desktop or Laptop","Mac OS 10.15.7","Chrome 121.0.0.0","1440x900","1420x707",NA,NA,0,"BIQ (Charlotte)",3,"EFDGCHBIAJ","Passed AC2",NA,"Spreadsheet1",NA,"","","",NA,"5","BEGIN",NA,NA,NA,NA,NA,NA,0,NA,NA,NA,NA,"","",NA,"","",NA,"SUPPRF82095"
"2",1707942382062,"14/02/2024 20:26:22",1707942382062,0,"14/02/2024 20:26:22",165975,4,"task-gjqt",NA,35157859,10389205,NA,"complete",NA,"65cd1c256f7be3af7ebb1a2d","computer","Desktop or Laptop","Mac OS 10.15.7","Chrome 121.0.0.0","1440x900","1420x707",NA,NA,0,"BIQ (Charlotte)",3,"EFDGCHBIAJ","Passed AC2",NA,"Spreadsheet1",1,"BIQ","Screen 1","9dh6eq",1,"continue","",67502.2,67485.5,67502.2,67502.2,67485.5,67502.2,1,67502.2,0,0,NA,"Click To Continue","Continue Button",23,"object-48","BIQ",NA,"SUPPRF82095"
"3",1707942382065,"14/02/2024 20:26:22",1707942382065,0,"14/02/2024 20:26:22",165975,4,"task-gjqt",NA,35157859,10389205,NA,"complete",NA,"65cd1c256f7be3af7ebb1a2d","computer","Desktop or Laptop","Mac OS 10.15.7","Chrome 121.0.0.0","1440x900","1420x707",NA,NA,0,"BIQ (Charlotte)",3,"EFDGCHBIAJ","Passed AC2",NA,"Spreadsheet1",1,"BIQ","Screen 1","9dh6eq",1,"response","6",34134.5,67485.5,67502.2,34134.5,67485.5,67502.2,1,34134.5,33367.7,0,NA,"Rating Scale","Rating Scale",3,"object-5","BIQ",NA,"SUPPRF82095"
"4",1707942382066,"14/02/2024 20:26:22",1707942382066,0,"14/02/2024 20:26:22",165975,4,"task-gjqt",NA,35157859,10389205,NA,"complete",NA,"65cd1c256f7be3af7ebb1a2d","computer","Desktop or Laptop","Mac OS 10.15.7","Chrome 121.0.0.0","1440x900","1420x707",NA,NA,0,"BIQ (Charlotte)",3,"EFDGCHBIAJ","Passed AC2",NA,"Spreadsheet1",1,"BIQ","Screen 1","9dh6eq",1,"response","8",46234.9,67485.5,67502.2,46234.9,67485.5,67502.2,1,46234.9,21267.3,0,NA,"Rating Scale","Rating Scale",10,"object-18","BIQ",NA,"SUPPRF82095"
"5",1707942382066,"14/02/2024 20:26:22",1707942382066,0,"14/02/2024 20:26:22",165975,4,"task-gjqt",NA,35157859,10389205,NA,"complete",NA,"65cd1c256f7be3af7ebb1a2d","computer","Desktop or Laptop","Mac OS 10.15.7","Chrome 121.0.0.0","1440x900","1420x707",NA,NA,0,"BIQ (Charlotte)",3,"EFDGCHBIAJ","Passed AC2",NA,"Spreadsheet1",1,"BIQ","Screen 1","9dh6eq",1,"response","0",65768.8,67485.5,67502.2,65768.8,67485.5,67502.2,1,65768.8,1733.39999999999,0,NA,"Rating Scale","Rating Scale",17,"object-80","BIQ",NA,"SUPPRF82095"
"6",1707942428741,"14/02/2024 20:27:08",1707942428741,0,"14/02/2024 20:27:08",165975,4,"task-gjqt",NA,35157859,10389205,NA,"complete",NA,"65cd1c256f7be3af7ebb1a2d","computer","Desktop or Laptop","Mac OS 10.15.7","Chrome 121.0.0.0","1440x900","1420x707",NA,NA,0,"BIQ (Charlotte)",3,"EFDGCHBIAJ","Passed AC2",NA,"Spreadsheet1",1,"BIQ","Screen 2","o21mwi",2,"continue","",46699.6999999996,46684.8,46699.6999999996,46699.6999999996,46684.8,46699.6999999996,1,46699.6999999996,0,0,NA,"Click To Continue","Continue Button",22,"object-50","BIQ",NA,"SUPPRF82095"
"7",1707942428743,"14/02/2024 20:27:08",1707942428743,0,"14/02/2024 20:27:08",165975,4,"task-gjqt",NA,35157859,10389205,NA,"complete",NA,"65cd1c256f7be3af7ebb1a2d","computer","Desktop or Laptop","Mac OS 10.15.7","Chrome 121.0.0.0","1440x900","1420x707",NA,NA,0,"BIQ (Charlotte)",3,"EFDGCHBIAJ","Passed AC2",NA,"Spreadsheet1",1,"BIQ","Screen 2","o21mwi",2,"response","8",7616.90000000001,46684.8,46701.6,7616.90000000001,46684.8,46701.6,1,7616.90000000001,39084.7,0,NA,"Rating Scale","Rating Scale",2,"object-259","BIQ",NA,"SUPPRF82095"
"8",1707942428744,"14/02/2024 20:27:08",1707942428744,0,"14/02/2024 20:27:08",165975,4,"task-gjqt",NA,35157859,10389205,NA,"complete",NA,"65cd1c256f7be3af7ebb1a2d","computer","Desktop or Laptop","Mac OS 10.15.7","Chrome 121.0.0.0","1440x900","1420x707",NA,NA,0,"BIQ (Charlotte)",3,"EFDGCHBIAJ","Passed AC2",NA,"Spreadsheet1",1,"BIQ","Screen 2","o21mwi",2,"response","0",21883.2,46684.8,46701.6,21883.2,46684.8,46701.6,1,21883.2,24818.4,0,NA,"Rating Scale","Rating Scale",9,"object-36","BIQ",NA,"SUPPRF82095"
"9",1707942428744,"14/02/2024 20:27:08",1707942428744,0,"14/02/2024 20:27:08",165975,4,"task-gjqt",NA,35157859,10389205,NA,"complete",NA,"65cd1c256f7be3af7ebb1a2d","computer","Desktop or Laptop","Mac OS 10.15.7","Chrome 121.0.0.0","1440x900","1420x707",NA,NA,0,"BIQ (Charlotte)",3,"EFDGCHBIAJ","Passed AC2",NA,"Spreadsheet1",1,"BIQ","Screen 2","o21mwi",2,"response","0",44300.4,46684.8,46701.6,44300.4,46684.8,46701.6,1,44300.4,2401.2,0,NA,"Rating Scale","Rating Scale",16,"object-86","BIQ",NA,"SUPPRF82095"
"10",1707942476041,"14/02/2024 20:27:56",1707942476041,0,"14/02/2024 20:27:56",165975,4,"task-gjqt",NA,35157859,10389205,NA,"complete",NA,"65cd1c256f7be3af7ebb1a2d","computer","Desktop or Laptop","Mac OS 10.15.7","Chrome 121.0.0.0","1440x900","1420x707",NA,NA,0,"BIQ (Charlotte)",3,"EFDGCHBIAJ","Passed AC2",NA,"Spreadsheet1",1,"BIQ","Screen 3","iz3the",3,"continue","",47316.0999999989,47301.3,47316.0999999989,47316.0999999989,47301.3,47316.0999999989,1,47316.0999999989,0,0,NA,"Click To Continue","Continue Button",22,"object-73","BIQ",NA,"SUPPRF82095"
"11",1707942476044,"14/02/2024 20:27:56",1707942476044,0,"14/02/2024 20:27:56",165975,4,"task-gjqt",NA,35157859,10389205,NA,"complete",NA,"65cd1c256f7be3af7ebb1a2d","computer","Desktop or Laptop","Mac OS 10.15.7","Chrome 121.0.0.0","1440x900","1420x707",NA,NA,0,"BIQ (Charlotte)",3,"EFDGCHBIAJ","Passed AC2",NA,"Spreadsheet1",1,"BIQ","Screen 3","iz3the",3,"response","0",19883.9,47301.3,47317.9,19883.9,47301.3,47317.9,1,19883.9,27434,0,NA,"Rating Scale","Rating Scale",2,"object-53","BIQ",NA,"SUPPRF82095"
"12",1707942476045,"14/02/2024 20:27:56",1707942476045,0,"14/02/2024 20:27:56",165975,4,"task-gjqt",NA,35157859,10389205,NA,"complete",NA,"65cd1c256f7be3af7ebb1a2d","computer","Desktop or Laptop","Mac OS 10.15.7","Chrome 121.0.0.0","1440x900","1420x707",NA,NA,0,"BIQ (Charlotte)",3,"EFDGCHBIAJ","Passed AC2",NA,"Spreadsheet1",1,"BIQ","Screen 3","iz3the",3,"response","0",27000.7,47301.3,47317.9,27000.7,47301.3,47317.9,1,27000.7,20317.2,0,NA,"Rating Scale","Rating Scale",9,"object-60","BIQ",NA,"SUPPRF82095"
"13",1707942476046,"14/02/2024 20:27:56",1707942476046,0,"14/02/2024 20:27:56",165975,4,"task-gjqt",NA,35157859,10389205,NA,"complete",NA,"65cd1c256f7be3af7ebb1a2d","computer","Desktop or Laptop","Mac OS 10.15.7","Chrome 121.0.0.0","1440x900","1420x707",NA,NA,0,"BIQ (Charlotte)",3,"EFDGCHBIAJ","Passed AC2",NA,"Spreadsheet1",1,"BIQ","Screen 3","iz3the",3,"response","2",42934.5,47301.3,47317.9,42934.5,47301.3,47317.9,1,42934.5,4383.39999999999,0,NA,"Rating Scale","Rating Scale",16,"object-67","BIQ",NA,"SUPPRF82095"
"14",1707942476052,"14/02/2024 20:27:56",1707942476052,0,"14/02/2024 20:27:56",165975,4,"task-gjqt",NA,35157859,10389205,NA,"complete",NA,"65cd1c256f7be3af7ebb1a2d","computer","Desktop or Laptop","Mac OS 10.15.7","Chrome 121.0.0.0","1440x900","1420x707",NA,NA,0,"BIQ (Charlotte)",3,"EFDGCHBIAJ","Passed AC2",NA,"Spreadsheet1",NA,"","","",NA,"5","END",NA,NA,NA,NA,NA,NA,0,NA,NA,NA,NA,"","",NA,"","",NA,"SUPPRF82095"
"1",1707941801366,"14/02/2024 20:16:41",1707920201366,-6,"14/02/2024 08:16:41",165975,4,"task-gjqt",NA,35157634,10389250,NA,"complete",NA,"65cd1e48f963d201475b76d4","computer","Desktop or Laptop","Windows 10","Chrome 121.0.0.0","1920x1080","1920x953",NA,NA,0,"BIQ (Charlotte)",3,"DECFBGAHJI","Passed AC2",NA,"Spreadsheet1",NA,"","","",NA,"5","BEGIN",NA,NA,NA,NA,NA,NA,0,NA,NA,NA,NA,"","",NA,"","",NA,"SUPPRF29203"
"2",1707941825878,"14/02/2024 20:17:05",1707920225878,-6,"14/02/2024 08:17:05",165975,4,"task-gjqt",NA,35157634,10389250,NA,"complete",NA,"65cd1e48f963d201475b76d4","computer","Desktop or Laptop","Windows 10","Chrome 121.0.0.0","1920x1080","1920x953",NA,NA,0,"BIQ (Charlotte)",3,"DECFBGAHJI","Passed AC2",NA,"Spreadsheet1",1,"BIQ","Screen 1","9dh6eq",1,"continue","",24518.3,24513.8,24518.3,24518.3,24513.8,24518.3,1,24518.3,0,0,NA,"Click To Continue","Continue Button",23,"object-48","BIQ",NA,"SUPPRF29203"
"3",1707941825879,"14/02/2024 20:17:05",1707920225879,-6,"14/02/2024 08:17:05",165975,4,"task-gjqt",NA,35157634,10389250,NA,"complete",NA,"65cd1e48f963d201475b76d4","computer","Desktop or Laptop","Windows 10","Chrome 121.0.0.0","1920x1080","1920x953",NA,NA,0,"BIQ (Charlotte)",3,"DECFBGAHJI","Passed AC2",NA,"Spreadsheet1",1,"BIQ","Screen 1","9dh6eq",1,"response","6",12347.2,24513.8,24519.8,12347.2,24513.8,24519.8,1,12347.2,12172.6,0,NA,"Rating Scale","Rating Scale",3,"object-5","BIQ",NA,"SUPPRF29203"
"4",1707941825880,"14/02/2024 20:17:05",1707920225880,-6,"14/02/2024 08:17:05",165975,4,"task-gjqt",NA,35157634,10389250,NA,"complete",NA,"65cd1e48f963d201475b76d4","computer","Desktop or Laptop","Windows 10","Chrome 121.0.0.0","1920x1080","1920x953",NA,NA,0,"BIQ (Charlotte)",3,"DECFBGAHJI","Passed AC2",NA,"Spreadsheet1",1,"BIQ","Screen 1","9dh6eq",1,"response","1",17340.3,24513.8,24520.0999999523,17340.3,24513.8,24520.0999999523,1,17340.3,7179.79999995232,0,NA,"Rating Scale","Rating Scale",10,"object-18","BIQ",NA,"SUPPRF29203"
"5",1707941825880,"14/02/2024 20:17:05",1707920225880,-6,"14/02/2024 08:17:05",165975,4,"task-gjqt",NA,35157634,10389250,NA,"complete",NA,"65cd1e48f963d201475b76d4","computer","Desktop or Laptop","Windows 10","Chrome 121.0.0.0","1920x1080","1920x953",NA,NA,0,"BIQ (Charlotte)",3,"DECFBGAHJI","Passed AC2",NA,"Spreadsheet1",1,"BIQ","Screen 1","9dh6eq",1,"response","7",21666.6,24513.8,24520.1999999762,21666.6,24513.8,24520.1999999762,1,21666.6,2853.59999997616,0,NA,"Rating Scale","Rating Scale",17,"object-80","BIQ",NA,"SUPPRF29203"
"6",1707941844770,"14/02/2024 20:17:24",1707920244770,-6,"14/02/2024 08:17:24",165975,4,"task-gjqt",NA,35157634,10389250,NA,"complete",NA,"65cd1e48f963d201475b76d4","computer","Desktop or Laptop","Windows 10","Chrome 121.0.0.0","1920x1080","1920x953",NA,NA,0,"BIQ (Charlotte)",3,"DECFBGAHJI","Passed AC2",NA,"Spreadsheet1",1,"BIQ","Screen 2","o21mwi",2,"continue","",18895.7,18888.8,18895.7,18895.7,18888.8,18895.7,1,18895.7,0,0,NA,"Click To Continue","Continue Button",22,"object-50","BIQ",NA,"SUPPRF29203"
"7",1707941844772,"14/02/2024 20:17:24",1707920244772,-6,"14/02/2024 08:17:24",165975,4,"task-gjqt",NA,35157634,10389250,NA,"complete",NA,"65cd1e48f963d201475b76d4","computer","Desktop or Laptop","Windows 10","Chrome 121.0.0.0","1920x1080","1920x953",NA,NA,0,"BIQ (Charlotte)",3,"DECFBGAHJI","Passed AC2",NA,"Spreadsheet1",1,"BIQ","Screen 2","o21mwi",2,"response","7",5020.8,18888.8,18895.7,5020.8,18888.8,18895.7,1,5020.8,13874.9,0,NA,"Rating Scale","Rating Scale",2,"object-259","BIQ",NA,"SUPPRF29203"
"8",1707941844772,"14/02/2024 20:17:24",1707920244772,-6,"14/02/2024 08:17:24",165975,4,"task-gjqt",NA,35157634,10389250,NA,"complete",NA,"65cd1e48f963d201475b76d4","computer","Desktop or Laptop","Windows 10","Chrome 121.0.0.0","1920x1080","1920x953",NA,NA,0,"BIQ (Charlotte)",3,"DECFBGAHJI","Passed AC2",NA,"Spreadsheet1",1,"BIQ","Screen 2","o21mwi",2,"response","3",9798.6,18888.8,18895.7,9798.6,18888.8,18895.7,1,9798.6,9097.10000000001,0,NA,"Rating Scale","Rating Scale",9,"object-36","BIQ",NA,"SUPPRF29203"
"9",1707941844772,"14/02/2024 20:17:24",1707920244772,-6,"14/02/2024 08:17:24",165975,4,"task-gjqt",NA,35157634,10389250,NA,"complete",NA,"65cd1e48f963d201475b76d4","computer","Desktop or Laptop","Windows 10","Chrome 121.0.0.0","1920x1080","1920x953",NA,NA,0,"BIQ (Charlotte)",3,"DECFBGAHJI","Passed AC2",NA,"Spreadsheet1",1,"BIQ","Screen 2","o21mwi",2,"response","1",18340.2,18888.8,18895.7,18340.2,18888.8,18895.7,1,18340.2,555.500000000007,0,NA,"Rating Scale","Rating Scale",16,"object-86","BIQ",NA,"SUPPRF29203"
"10",1707941855187,"14/02/2024 20:17:35",1707920255187,-6,"14/02/2024 08:17:35",165975,4,"task-gjqt",NA,35157634,10389250,NA,"complete",NA,"65cd1e48f963d201475b76d4","computer","Desktop or Laptop","Windows 10","Chrome 121.0.0.0","1920x1080","1920x953",NA,NA,0,"BIQ (Charlotte)",3,"DECFBGAHJI","Passed AC2",NA,"Spreadsheet1",1,"BIQ","Screen 3","iz3the",3,"continue","",10425.0999999762,10423.7,10425.0999999762,10425.0999999762,10423.7,10425.0999999762,1,10425.0999999762,0,0,NA,"Click To Continue","Continue Button",22,"object-73","BIQ",NA,"SUPPRF29203"
"11",1707941855189,"14/02/2024 20:17:35",1707920255189,-6,"14/02/2024 08:17:35",165975,4,"task-gjqt",NA,35157634,10389250,NA,"complete",NA,"65cd1e48f963d201475b76d4","computer","Desktop or Laptop","Windows 10","Chrome 121.0.0.0","1920x1080","1920x953",NA,NA,0,"BIQ (Charlotte)",3,"DECFBGAHJI","Passed AC2",NA,"Spreadsheet1",1,"BIQ","Screen 3","iz3the",3,"response","1",4729.1,10423.7,10426.7,4729.1,10423.7,10426.7,1,4729.1,5697.6,0,NA,"Rating Scale","Rating Scale",2,"object-53","BIQ",NA,"SUPPRF29203"
"12",1707941855189,"14/02/2024 20:17:35",1707920255189,-6,"14/02/2024 08:17:35",165975,4,"task-gjqt",NA,35157634,10389250,NA,"complete",NA,"65cd1e48f963d201475b76d4","computer","Desktop or Laptop","Windows 10","Chrome 121.0.0.0","1920x1080","1920x953",NA,NA,0,"BIQ (Charlotte)",3,"DECFBGAHJI","Passed AC2",NA,"Spreadsheet1",1,"BIQ","Screen 3","iz3the",3,"response","1",6694.5,10423.7,10426.9999999523,6694.5,10423.7,10426.9999999523,1,6694.5,3732.49999995231,0,NA,"Rating Scale","Rating Scale",9,"object-60","BIQ",NA,"SUPPRF29203"
"13",1707941855189,"14/02/2024 20:17:35",1707920255189,-6,"14/02/2024 08:17:35",165975,4,"task-gjqt",NA,35157634,10389250,NA,"complete",NA,"65cd1e48f963d201475b76d4","computer","Desktop or Laptop","Windows 10","Chrome 121.0.0.0","1920x1080","1920x953",NA,NA,0,"BIQ (Charlotte)",3,"DECFBGAHJI","Passed AC2",NA,"Spreadsheet1",1,"BIQ","Screen 3","iz3the",3,"response","2",9638.8,10423.7,10427.2,9638.8,10423.7,10427.2,1,9638.8,788.400000000001,0,NA,"Rating Scale","Rating Scale",16,"object-67","BIQ",NA,"SUPPRF29203"
"14",1707941855192,"14/02/2024 20:17:35",1707920255192,-6,"14/02/2024 08:17:35",165975,4,"task-gjqt",NA,35157634,10389250,NA,"complete",NA,"65cd1e48f963d201475b76d4","computer","Desktop or Laptop","Windows 10","Chrome 121.0.0.0","1920x1080","1920x953",NA,NA,0,"BIQ (Charlotte)",3,"DECFBGAHJI","Passed AC2",NA,"Spreadsheet1",NA,"","","",NA,"5","END",NA,NA,NA,NA,NA,NA,0,NA,NA,NA,NA,"","",NA,"","",NA,"SUPPRF29203"
"1",1707941826307,"14/02/2024 20:17:06",1707941826307,0,"14/02/2024 20:17:06",165975,4,"task-gjqt",NA,35157651,10389285,NA,"complete",NA,"65cd1f657ceb9cd7d4dfacc3","computer","Desktop or Laptop","Mac OS 10.15.7","Chrome 95.0.4638.54","1440x900","1440x821",NA,NA,0,"BIQ (Charlotte)",3,"FGEHDICJBA","Passed AC2",NA,"Spreadsheet1",NA,"","","",NA,"5","BEGIN",NA,NA,NA,NA,NA,NA,0,NA,NA,NA,NA,"","",NA,"","",NA,"SUPPRF29384"
"2",1707941844007,"14/02/2024 20:17:24",1707941844007,0,"14/02/2024 20:17:24",165975,4,"task-gjqt",NA,35157651,10389285,NA,"complete",NA,"65cd1f657ceb9cd7d4dfacc3","computer","Desktop or Laptop","Mac OS 10.15.7","Chrome 95.0.4638.54","1440x900","1440x821",NA,NA,0,"BIQ (Charlotte)",3,"FGEHDICJBA","Passed AC2",NA,"Spreadsheet1",1,"BIQ","Screen 1","9dh6eq",1,"continue","",17715.040000006,17701.477,17715.040000006,17715.040000006,17701.477,17715.040000006,1,17715.040000006,0,0,NA,"Click To Continue","Continue Button",23,"object-48","BIQ",NA,"SUPPRF29384"
"3",1707941844010,"14/02/2024 20:17:24",1707941844010,0,"14/02/2024 20:17:24",165975,4,"task-gjqt",NA,35157651,10389285,NA,"complete",NA,"65cd1f657ceb9cd7d4dfacc3","computer","Desktop or Laptop","Mac OS 10.15.7","Chrome 95.0.4638.54","1440x900","1440x821",NA,NA,0,"BIQ (Charlotte)",3,"FGEHDICJBA","Passed AC2",NA,"Spreadsheet1",1,"BIQ","Screen 1","9dh6eq",1,"response","2",7084.083,17701.477,17718.144,7084.083,17701.477,17718.144,1,7084.083,10634.061,0,NA,"Rating Scale","Rating Scale",3,"object-5","BIQ",NA,"SUPPRF29384"
"4",1707941844011,"14/02/2024 20:17:24",1707941844011,0,"14/02/2024 20:17:24",165975,4,"task-gjqt",NA,35157651,10389285,NA,"complete",NA,"65cd1f657ceb9cd7d4dfacc3","computer","Desktop or Laptop","Mac OS 10.15.7","Chrome 95.0.4638.54","1440x900","1440x821",NA,NA,0,"BIQ (Charlotte)",3,"FGEHDICJBA","Passed AC2",NA,"Spreadsheet1",1,"BIQ","Screen 1","9dh6eq",1,"response","7",12767.53,17701.477,17718.144,12767.53,17701.477,17718.144,1,12767.53,4950.614,0,NA,"Rating Scale","Rating Scale",10,"object-18","BIQ",NA,"SUPPRF29384"
"5",1707941844011,"14/02/2024 20:17:24",1707941844011,0,"14/02/2024 20:17:24",165975,4,"task-gjqt",NA,35157651,10389285,NA,"complete",NA,"65cd1f657ceb9cd7d4dfacc3","computer","Desktop or Laptop","Mac OS 10.15.7","Chrome 95.0.4638.54","1440x900","1440x821",NA,NA,0,"BIQ (Charlotte)",3,"FGEHDICJBA","Passed AC2",NA,"Spreadsheet1",1,"BIQ","Screen 1","9dh6eq",1,"response","6",17018.13,17701.477,17718.144,17018.13,17701.477,17718.144,1,17018.13,700.013999999999,0,NA,"Rating Scale","Rating Scale",17,"object-80","BIQ",NA,"SUPPRF29384"
"6",1707941858863,"14/02/2024 20:17:38",1707941858863,0,"14/02/2024 20:17:38",165975,4,"task-gjqt",NA,35157651,10389285,NA,"complete",NA,"65cd1f657ceb9cd7d4dfacc3","computer","Desktop or Laptop","Mac OS 10.15.7","Chrome 95.0.4638.54","1440x900","1440x821",NA,NA,0,"BIQ (Charlotte)",3,"FGEHDICJBA","Passed AC2",NA,"Spreadsheet1",1,"BIQ","Screen 2","o21mwi",2,"continue","",14867.475,14850.808,14867.475,14867.475,14850.808,14867.475,1,14867.475,0,0,NA,"Click To Continue","Continue Button",22,"object-50","BIQ",NA,"SUPPRF29384"
"7",1707941858869,"14/02/2024 20:17:38",1707941858869,0,"14/02/2024 20:17:38",165975,4,"task-gjqt",NA,35157651,10389285,NA,"complete",NA,"65cd1f657ceb9cd7d4dfacc3","computer","Desktop or Laptop","Mac OS 10.15.7","Chrome 95.0.4638.54","1440x900","1440x821",NA,NA,0,"BIQ (Charlotte)",3,"FGEHDICJBA","Passed AC2",NA,"Spreadsheet1",1,"BIQ","Screen 2","o21mwi",2,"response","2",6866.804,14850.808,14867.475,6866.804,14850.808,14867.475,1,6866.804,8000.67099999999,0,NA,"Rating Scale","Rating Scale",2,"object-259","BIQ",NA,"SUPPRF29384"
"8",1707941858869,"14/02/2024 20:17:38",1707941858869,0,"14/02/2024 20:17:38",165975,4,"task-gjqt",NA,35157651,10389285,NA,"complete",NA,"65cd1f657ceb9cd7d4dfacc3","computer","Desktop or Laptop","Mac OS 10.15.7","Chrome 95.0.4638.54","1440x900","1440x821",NA,NA,0,"BIQ (Charlotte)",3,"FGEHDICJBA","Passed AC2",NA,"Spreadsheet1",1,"BIQ","Screen 2","o21mwi",2,"response","8",11000.731,14850.808,14867.475,11000.731,14850.808,14867.475,1,11000.731,3866.74399999999,0,NA,"Rating Scale","Rating Scale",9,"object-36","BIQ",NA,"SUPPRF29384"
"9",1707941858870,"14/02/2024 20:17:38",1707941858870,0,"14/02/2024 20:17:38",165975,4,"task-gjqt",NA,35157651,10389285,NA,"complete",NA,"65cd1f657ceb9cd7d4dfacc3","computer","Desktop or Laptop","Mac OS 10.15.7","Chrome 95.0.4638.54","1440x900","1440x821",NA,NA,0,"BIQ (Charlotte)",3,"FGEHDICJBA","Passed AC2",NA,"Spreadsheet1",1,"BIQ","Screen 2","o21mwi",2,"response","4",14184.128,14850.808,14867.475,14184.128,14850.808,14867.475,1,14184.128,683.346999999994,0,NA,"Rating Scale","Rating Scale",16,"object-86","BIQ",NA,"SUPPRF29384"
"10",1707941871065,"14/02/2024 20:17:51",1707941871065,0,"14/02/2024 20:17:51",165975,4,"task-gjqt",NA,35157651,10389285,NA,"complete",NA,"65cd1f657ceb9cd7d4dfacc3","computer","Desktop or Laptop","Mac OS 10.15.7","Chrome 95.0.4638.54","1440x900","1440x821",NA,NA,0,"BIQ (Charlotte)",3,"FGEHDICJBA","Passed AC2",NA,"Spreadsheet1",1,"BIQ","Screen 3","iz3the",3,"continue","",12220.954999994,12217.372,12220.954999994,12220.954999994,12217.372,12220.954999994,1,12220.954999994,0,0,NA,"Click To Continue","Continue Button",22,"object-73","BIQ",NA,"SUPPRF29384"
"11",1707941871070,"14/02/2024 20:17:51",1707941871070,0,"14/02/2024 20:17:51",165975,4,"task-gjqt",NA,35157651,10389285,NA,"complete",NA,"65cd1f657ceb9cd7d4dfacc3","computer","Desktop or Laptop","Mac OS 10.15.7","Chrome 95.0.4638.54","1440x900","1440x821",NA,NA,0,"BIQ (Charlotte)",3,"FGEHDICJBA","Passed AC2",NA,"Spreadsheet1",1,"BIQ","Screen 3","iz3the",3,"response","5",4616.75900000001,12217.372,12226.755000006,4616.75900000001,12217.372,12226.755000006,1,4616.75900000001,7609.99600000596,0,NA,"Rating Scale","Rating Scale",2,"object-53","BIQ",NA,"SUPPRF29384"
"12",1707941871071,"14/02/2024 20:17:51",1707941871071,0,"14/02/2024 20:17:51",165975,4,"task-gjqt",NA,35157651,10389285,NA,"complete",NA,"65cd1f657ceb9cd7d4dfacc3","computer","Desktop or Laptop","Mac OS 10.15.7","Chrome 95.0.4638.54","1440x900","1440x821",NA,NA,0,"BIQ (Charlotte)",3,"FGEHDICJBA","Passed AC2",NA,"Spreadsheet1",1,"BIQ","Screen 3","iz3the",3,"response","5",8833.97100000001,12217.372,12227.6549999821,8833.97100000001,12217.372,12227.6549999821,1,8833.97100000001,3393.68399998212,0,NA,"Rating Scale","Rating Scale",9,"object-60","BIQ",NA,"SUPPRF29384"
"13",1707941871072,"14/02/2024 20:17:51",1707941871072,0,"14/02/2024 20:17:51",165975,4,"task-gjqt",NA,35157651,10389285,NA,"complete",NA,"65cd1f657ceb9cd7d4dfacc3","computer","Desktop or Laptop","Mac OS 10.15.7","Chrome 95.0.4638.54","1440x900","1440x821",NA,NA,0,"BIQ (Charlotte)",3,"FGEHDICJBA","Passed AC2",NA,"Spreadsheet1",1,"BIQ","Screen 3","iz3the",3,"response","8",11500.691,12217.372,12228.255000006,11500.691,12217.372,12228.255000006,1,11500.691,727.564000005957,0,NA,"Rating Scale","Rating Scale",16,"object-67","BIQ",NA,"SUPPRF29384"
"14",1707941871078,"14/02/2024 20:17:51",1707941871078,0,"14/02/2024 20:17:51",165975,4,"task-gjqt",NA,35157651,10389285,NA,"complete",NA,"65cd1f657ceb9cd7d4dfacc3","computer","Desktop or Laptop","Mac OS 10.15.7","Chrome 95.0.4638.54","1440x900","1440x821",NA,NA,0,"BIQ (Charlotte)",3,"FGEHDICJBA","Passed AC2",NA,"Spreadsheet1",NA,"","","",NA,"5","END",NA,NA,NA,NA,NA,NA,0,NA,NA,NA,NA,"","",NA,"","",NA,"SUPPRF29384"
"1",1707943792656,"14/02/2024 20:49:52",1707947392656,1,"14/02/2024 22:49:52",165975,4,"task-gjqt",NA,35158452,10389435,NA,"complete",NA,"65cd2321df8f04f73b0873bb","computer","Desktop or Laptop","Windows 10","Chrome 107.0.0.0","1536x864","967x730",NA,NA,0,"BIQ (Charlotte)",3,"GHFIEJDACB","Passed AC2",NA,"Spreadsheet1",NA,"","","",NA,"5","BEGIN",NA,NA,NA,NA,NA,NA,0,NA,NA,NA,NA,"","",NA,"","",NA,"SUPPRF74532"
"2",1707943968953,"14/02/2024 20:52:48",1707947568953,1,"14/02/2024 22:52:48",165975,4,"task-gjqt",NA,35158452,10389435,NA,"complete",NA,"65cd2321df8f04f73b0873bb","computer","Desktop or Laptop","Windows 10","Chrome 107.0.0.0","1536x864","967x730",NA,NA,0,"BIQ (Charlotte)",3,"GHFIEJDACB","Passed AC2",NA,"Spreadsheet1",1,"BIQ","Screen 1","9dh6eq",1,"continue","",176301.467999928,176289.568,176301.467999928,176301.467999928,176289.568,176301.467999928,1,176301.467999928,0,0,NA,"Click To Continue","Continue Button",23,"object-48","BIQ",NA,"SUPPRF74532"
"3",1707943968955,"14/02/2024 20:52:48",1707947568955,1,"14/02/2024 22:52:48",165975,4,"task-gjqt",NA,35158452,10389435,NA,"complete",NA,"65cd2321df8f04f73b0873bb","computer","Desktop or Laptop","Windows 10","Chrome 107.0.0.0","1536x864","967x730",NA,NA,0,"BIQ (Charlotte)",3,"GHFIEJDACB","Passed AC2",NA,"Spreadsheet1",1,"BIQ","Screen 1","9dh6eq",1,"response","6",146740.768,176289.568,176306.867999905,146740.768,176289.568,176306.867999905,1,146740.768,29566.0999999046,0,NA,"Rating Scale","Rating Scale",3,"object-5","BIQ",NA,"SUPPRF74532"
"4",1707943968956,"14/02/2024 20:52:48",1707947568956,1,"14/02/2024 22:52:48",165975,4,"task-gjqt",NA,35158452,10389435,NA,"complete",NA,"65cd2321df8f04f73b0873bb","computer","Desktop or Laptop","Windows 10","Chrome 107.0.0.0","1536x864","967x730",NA,NA,0,"BIQ (Charlotte)",3,"GHFIEJDACB","Passed AC2",NA,"Spreadsheet1",1,"BIQ","Screen 1","9dh6eq",1,"response","6",150740.468,176289.568,176306.868,150740.468,176289.568,176306.868,1,150740.468,25566.4,0,NA,"Rating Scale","Rating Scale",10,"object-18","BIQ",NA,"SUPPRF74532"
"5",1707943968956,"14/02/2024 20:52:48",1707947568956,1,"14/02/2024 22:52:48",165975,4,"task-gjqt",NA,35158452,10389435,NA,"complete",NA,"65cd2321df8f04f73b0873bb","computer","Desktop or Laptop","Windows 10","Chrome 107.0.0.0","1536x864","967x730",NA,NA,0,"BIQ (Charlotte)",3,"GHFIEJDACB","Passed AC2",NA,"Spreadsheet1",1,"BIQ","Screen 1","9dh6eq",1,"response","1",163340.268,176289.568,176306.868,163340.268,176289.568,176306.868,1,163340.268,12966.6,0,NA,"Rating Scale","Rating Scale",17,"object-80","BIQ",NA,"SUPPRF74532"
"6",1707944005249,"14/02/2024 20:53:25",1707947605249,1,"14/02/2024 22:53:25",165975,4,"task-gjqt",NA,35158452,10389435,NA,"complete",NA,"65cd2321df8f04f73b0873bb","computer","Desktop or Laptop","Windows 10","Chrome 107.0.0.0","1536x864","967x730",NA,NA,0,"BIQ (Charlotte)",3,"GHFIEJDACB","Passed AC2",NA,"Spreadsheet1",1,"BIQ","Screen 2","o21mwi",2,"continue","",36311.4999999523,36297.1,36311.4999999523,36311.4999999523,36297.1,36311.4999999523,1,36311.4999999523,0,0,NA,"Click To Continue","Continue Button",22,"object-50","BIQ",NA,"SUPPRF74532"
"7",1707944005252,"14/02/2024 20:53:25",1707947605252,1,"14/02/2024 22:53:25",165975,4,"task-gjqt",NA,35158452,10389435,NA,"complete",NA,"65cd2321df8f04f73b0873bb","computer","Desktop or Laptop","Windows 10","Chrome 107.0.0.0","1536x864","967x730",NA,NA,0,"BIQ (Charlotte)",3,"GHFIEJDACB","Passed AC2",NA,"Spreadsheet1",1,"BIQ","Screen 2","o21mwi",2,"response","3",7282.20000000001,36297.1,36313.7,7282.20000000001,36297.1,36313.7,1,7282.20000000001,29031.5,0,NA,"Rating Scale","Rating Scale",2,"object-259","BIQ",NA,"SUPPRF74532"
"8",1707944005252,"14/02/2024 20:53:25",1707947605252,1,"14/02/2024 22:53:25",165975,4,"task-gjqt",NA,35158452,10389435,NA,"complete",NA,"65cd2321df8f04f73b0873bb","computer","Desktop or Laptop","Windows 10","Chrome 107.0.0.0","1536x864","967x730",NA,NA,0,"BIQ (Charlotte)",3,"GHFIEJDACB","Passed AC2",NA,"Spreadsheet1",1,"BIQ","Screen 2","o21mwi",2,"response","2",11382.4,36297.1,36313.7,11382.4,36297.1,36313.7,1,11382.4,24931.3,0,NA,"Rating Scale","Rating Scale",9,"object-36","BIQ",NA,"SUPPRF74532"
"9",1707944005253,"14/02/2024 20:53:25",1707947605253,1,"14/02/2024 22:53:25",165975,4,"task-gjqt",NA,35158452,10389435,NA,"complete",NA,"65cd2321df8f04f73b0873bb","computer","Desktop or Laptop","Windows 10","Chrome 107.0.0.0","1536x864","967x730",NA,NA,0,"BIQ (Charlotte)",3,"GHFIEJDACB","Passed AC2",NA,"Spreadsheet1",1,"BIQ","Screen 2","o21mwi",2,"response","0",33897.3,36297.1,36313.7,33897.3,36297.1,36313.7,1,33897.3,2416.39999999999,0,NA,"Rating Scale","Rating Scale",16,"object-86","BIQ",NA,"SUPPRF74532"
"10",1707944066094,"14/02/2024 20:54:26",1707947666094,1,"14/02/2024 22:54:26",165975,4,"task-gjqt",NA,35158452,10389435,NA,"complete",NA,"65cd2321df8f04f73b0873bb","computer","Desktop or Laptop","Windows 10","Chrome 107.0.0.0","1536x864","967x730",NA,NA,0,"BIQ (Charlotte)",3,"GHFIEJDACB","Passed AC2",NA,"Spreadsheet1",1,"BIQ","Screen 3","iz3the",3,"continue","",60859.4999999762,60846.4,60859.4999999762,60859.4999999762,60846.4,60859.4999999762,1,60859.4999999762,0,0,NA,"Click To Continue","Continue Button",22,"object-73","BIQ",NA,"SUPPRF74532"
"11",1707944066097,"14/02/2024 20:54:26",1707947666097,1,"14/02/2024 22:54:26",165975,4,"task-gjqt",NA,35158452,10389435,NA,"complete",NA,"65cd2321df8f04f73b0873bb","computer","Desktop or Laptop","Windows 10","Chrome 107.0.0.0","1536x864","967x730",NA,NA,0,"BIQ (Charlotte)",3,"GHFIEJDACB","Passed AC2",NA,"Spreadsheet1",1,"BIQ","Screen 3","iz3the",3,"response","0",55263.8,60846.4,60861.6999999046,55263.8,60846.4,60861.6999999046,1,55263.8,5597.89999990462,0,NA,"Rating Scale","Rating Scale",2,"object-53","BIQ",NA,"SUPPRF74532"
"12",1707944066097,"14/02/2024 20:54:26",1707947666097,1,"14/02/2024 22:54:26",165975,4,"task-gjqt",NA,35158452,10389435,NA,"complete",NA,"65cd2321df8f04f73b0873bb","computer","Desktop or Laptop","Windows 10","Chrome 107.0.0.0","1536x864","967x730",NA,NA,0,"BIQ (Charlotte)",3,"GHFIEJDACB","Passed AC2",NA,"Spreadsheet1",1,"BIQ","Screen 3","iz3the",3,"response","0",57697,60846.4,60861.9999999762,57697,60846.4,60861.9999999762,1,57697,3164.99999997613,0,NA,"Rating Scale","Rating Scale",9,"object-60","BIQ",NA,"SUPPRF74532"
"13",1707944066097,"14/02/2024 20:54:26",1707947666097,1,"14/02/2024 22:54:26",165975,4,"task-gjqt",NA,35158452,10389435,NA,"complete",NA,"65cd2321df8f04f73b0873bb","computer","Desktop or Laptop","Windows 10","Chrome 107.0.0.0","1536x864","967x730",NA,NA,0,"BIQ (Charlotte)",3,"GHFIEJDACB","Passed AC2",NA,"Spreadsheet1",1,"BIQ","Screen 3","iz3the",3,"response","0",59629.7,60846.4,60862.3999999523,59629.7,60846.4,60862.3999999523,1,59629.7,1232.69999995234,0,NA,"Rating Scale","Rating Scale",16,"object-67","BIQ",NA,"SUPPRF74532"
"14",1707944066101,"14/02/2024 20:54:26",1707947666101,1,"14/02/2024 22:54:26",165975,4,"task-gjqt",NA,35158452,10389435,NA,"complete",NA,"65cd2321df8f04f73b0873bb","computer","Desktop or Laptop","Windows 10","Chrome 107.0.0.0","1536x864","967x730",NA,NA,0,"BIQ (Charlotte)",3,"GHFIEJDACB","Passed AC2",NA,"Spreadsheet1",NA,"","","",NA,"5","END",NA,NA,NA,NA,NA,NA,0,NA,NA,NA,NA,"","",NA,"","",NA,"SUPPRF74532"
"1",1707943639549,"14/02/2024 20:47:19",1707947239549,1,"14/02/2024 22:47:19",165975,4,"task-gjqt",NA,35158394,10389452,NA,"complete",NA,"65cd240b9901cef693c9dee4","computer","Desktop or Laptop","Windows 10","Chrome 121.0.0.0","1920x1080","1920x991",NA,NA,0,"BIQ (Charlotte)",3,"HIGJFAEBDC","Passed AC2",NA,"Spreadsheet1",NA,"","","",NA,"5","BEGIN",NA,NA,NA,NA,NA,NA,0,NA,NA,NA,NA,"","",NA,"","",NA,"SUPPRF79953"
"2",1707943669545,"14/02/2024 20:47:49",1707947269545,1,"14/02/2024 22:47:49",165975,4,"task-gjqt",NA,35158394,10389452,NA,"complete",NA,"65cd240b9901cef693c9dee4","computer","Desktop or Laptop","Windows 10","Chrome 121.0.0.0","1920x1080","1920x991",NA,NA,0,"BIQ (Charlotte)",3,"HIGJFAEBDC","Passed AC2",NA,"Spreadsheet1",1,"BIQ","Screen 1","9dh6eq",1,"continue","",30011.936,29995.436,30011.936,30011.936,29995.436,30011.936,1,30011.936,0,0,NA,"Click To Continue","Continue Button",23,"object-48","BIQ",NA,"SUPPRF79953"
"3",1707943669547,"14/02/2024 20:47:49",1707947269547,1,"14/02/2024 22:47:49",165975,4,"task-gjqt",NA,35158394,10389452,NA,"complete",NA,"65cd240b9901cef693c9dee4","computer","Desktop or Laptop","Windows 10","Chrome 121.0.0.0","1920x1080","1920x991",NA,NA,0,"BIQ (Charlotte)",3,"HIGJFAEBDC","Passed AC2",NA,"Spreadsheet1",1,"BIQ","Screen 1","9dh6eq",1,"response","4",12231.336,29995.436,30011.936,12231.336,29995.436,30011.936,1,12231.336,17780.6,0,NA,"Rating Scale","Rating Scale",3,"object-5","BIQ",NA,"SUPPRF79953"
"4",1707943669548,"14/02/2024 20:47:49",1707947269548,1,"14/02/2024 22:47:49",165975,4,"task-gjqt",NA,35158394,10389452,NA,"complete",NA,"65cd240b9901cef693c9dee4","computer","Desktop or Laptop","Windows 10","Chrome 121.0.0.0","1920x1080","1920x991",NA,NA,0,"BIQ (Charlotte)",3,"HIGJFAEBDC","Passed AC2",NA,"Spreadsheet1",1,"BIQ","Screen 1","9dh6eq",1,"response","7",24046.336,29995.436,30011.936,24046.336,29995.436,30011.936,1,24046.336,5965.60000000001,0,NA,"Rating Scale","Rating Scale",10,"object-18","BIQ",NA,"SUPPRF79953"
"5",1707943669548,"14/02/2024 20:47:49",1707947269548,1,"14/02/2024 22:47:49",165975,4,"task-gjqt",NA,35158394,10389452,NA,"complete",NA,"65cd240b9901cef693c9dee4","computer","Desktop or Laptop","Windows 10","Chrome 121.0.0.0","1920x1080","1920x991",NA,NA,0,"BIQ (Charlotte)",3,"HIGJFAEBDC","Passed AC2",NA,"Spreadsheet1",1,"BIQ","Screen 1","9dh6eq",1,"response","1",28879.036,29995.436,30011.936,28879.036,29995.436,30011.936,1,28879.036,1132.9,0,NA,"Rating Scale","Rating Scale",17,"object-80","BIQ",NA,"SUPPRF79953"
"6",1707943702238,"14/02/2024 20:48:22",1707947302238,1,"14/02/2024 22:48:22",165975,4,"task-gjqt",NA,35158394,10389452,NA,"complete",NA,"65cd240b9901cef693c9dee4","computer","Desktop or Laptop","Windows 10","Chrome 121.0.0.0","1920x1080","1920x991",NA,NA,0,"BIQ (Charlotte)",3,"HIGJFAEBDC","Passed AC2",NA,"Spreadsheet1",1,"BIQ","Screen 2","o21mwi",2,"continue","",32717.2,32713.5,32717.2,32717.2,32713.5,32717.2,1,32717.2,0,0,NA,"Click To Continue","Continue Button",22,"object-50","BIQ",NA,"SUPPRF79953"
"7",1707943702244,"14/02/2024 20:48:22",1707947302244,1,"14/02/2024 22:48:22",165975,4,"task-gjqt",NA,35158394,10389452,NA,"complete",NA,"65cd240b9901cef693c9dee4","computer","Desktop or Laptop","Windows 10","Chrome 121.0.0.0","1920x1080","1920x991",NA,NA,0,"BIQ (Charlotte)",3,"HIGJFAEBDC","Passed AC2",NA,"Spreadsheet1",1,"BIQ","Screen 2","o21mwi",2,"response","4",5049.7,32713.5,32723.5000000045,5049.7,32713.5,32723.5000000045,1,5049.7,27673.8000000045,0,NA,"Rating Scale","Rating Scale",2,"object-259","BIQ",NA,"SUPPRF79953"
"8",1707943702245,"14/02/2024 20:48:22",1707947302245,1,"14/02/2024 22:48:22",165975,4,"task-gjqt",NA,35158394,10389452,NA,"complete",NA,"65cd240b9901cef693c9dee4","computer","Desktop or Laptop","Windows 10","Chrome 121.0.0.0","1920x1080","1920x991",NA,NA,0,"BIQ (Charlotte)",3,"HIGJFAEBDC","Passed AC2",NA,"Spreadsheet1",1,"BIQ","Screen 2","o21mwi",2,"response","1",9232.7,32713.5,32724.900000003,9232.7,32713.5,32724.900000003,1,9232.7,23492.200000003,0,NA,"Rating Scale","Rating Scale",9,"object-36","BIQ",NA,"SUPPRF79953"
"9",1707943702247,"14/02/2024 20:48:22",1707947302247,1,"14/02/2024 22:48:22",165975,4,"task-gjqt",NA,35158394,10389452,NA,"complete",NA,"65cd240b9901cef693c9dee4","computer","Desktop or Laptop","Windows 10","Chrome 121.0.0.0","1920x1080","1920x991",NA,NA,0,"BIQ (Charlotte)",3,"HIGJFAEBDC","Passed AC2",NA,"Spreadsheet1",1,"BIQ","Screen 2","o21mwi",2,"response","2",23797.1,32713.5,32726.3000000015,23797.1,32713.5,32726.3000000015,1,23797.1,8929.2000000015,0,NA,"Rating Scale","Rating Scale",16,"object-86","BIQ",NA,"SUPPRF79953"
"10",1707943719432,"14/02/2024 20:48:39",1707947319432,1,"14/02/2024 22:48:39",165975,4,"task-gjqt",NA,35158394,10389452,NA,"complete",NA,"65cd240b9901cef693c9dee4","computer","Desktop or Laptop","Windows 10","Chrome 121.0.0.0","1920x1080","1920x991",NA,NA,0,"BIQ (Charlotte)",3,"HIGJFAEBDC","Passed AC2",NA,"Spreadsheet1",1,"BIQ","Screen 3","iz3the",3,"continue","",17196.5,17180.3,17196.5,17196.5,17180.3,17196.5,1,17196.5,0,0,NA,"Click To Continue","Continue Button",22,"object-73","BIQ",NA,"SUPPRF79953"
"11",1707943719437,"14/02/2024 20:48:39",1707947319437,1,"14/02/2024 22:48:39",165975,4,"task-gjqt",NA,35158394,10389452,NA,"complete",NA,"65cd240b9901cef693c9dee4","computer","Desktop or Laptop","Windows 10","Chrome 121.0.0.0","1920x1080","1920x991",NA,NA,0,"BIQ (Charlotte)",3,"HIGJFAEBDC","Passed AC2",NA,"Spreadsheet1",1,"BIQ","Screen 3","iz3the",3,"response","1",5465.09999999999,17180.3,17196.5,5465.09999999999,17180.3,17196.5,1,5465.09999999999,11731.4,0,NA,"Rating Scale","Rating Scale",2,"object-53","BIQ",NA,"SUPPRF79953"
"12",1707943719438,"14/02/2024 20:48:39",1707947319438,1,"14/02/2024 22:48:39",165975,4,"task-gjqt",NA,35158394,10389452,NA,"complete",NA,"65cd240b9901cef693c9dee4","computer","Desktop or Laptop","Windows 10","Chrome 121.0.0.0","1920x1080","1920x991",NA,NA,0,"BIQ (Charlotte)",3,"HIGJFAEBDC","Passed AC2",NA,"Spreadsheet1",1,"BIQ","Screen 3","iz3the",3,"response","2",11864.3,17180.3,17196.5,11864.3,17180.3,17196.5,1,11864.3,5332.20000000001,0,NA,"Rating Scale","Rating Scale",9,"object-60","BIQ",NA,"SUPPRF79953"
"13",1707943719439,"14/02/2024 20:48:39",1707947319439,1,"14/02/2024 22:48:39",165975,4,"task-gjqt",NA,35158394,10389452,NA,"complete",NA,"65cd240b9901cef693c9dee4","computer","Desktop or Laptop","Windows 10","Chrome 121.0.0.0","1920x1080","1920x991",NA,NA,0,"BIQ (Charlotte)",3,"HIGJFAEBDC","Passed AC2",NA,"Spreadsheet1",1,"BIQ","Screen 3","iz3the",3,"response","5",14797.2,17180.3,17196.5,14797.2,17180.3,17196.5,1,14797.2,2399.30000000002,0,NA,"Rating Scale","Rating Scale",16,"object-67","BIQ",NA,"SUPPRF79953"
"14",1707943719446,"14/02/2024 20:48:39",1707947319446,1,"14/02/2024 22:48:39",165975,4,"task-gjqt",NA,35158394,10389452,NA,"complete",NA,"65cd240b9901cef693c9dee4","computer","Desktop or Laptop","Windows 10","Chrome 121.0.0.0","1920x1080","1920x991",NA,NA,0,"BIQ (Charlotte)",3,"HIGJFAEBDC","Passed AC2",NA,"Spreadsheet1",NA,"","","",NA,"5","END",NA,NA,NA,NA,NA,NA,0,NA,NA,NA,NA,"","",NA,"","",NA,"SUPPRF79953"
"1",1707943738936,"14/02/2024 20:48:58",1707943738936,0,"14/02/2024 20:48:58",165975,4,"task-gjqt",NA,35158439,10389500,NA,"complete",NA,"65cd24fb55260acb6c71c388","computer","Desktop or Laptop","Chromium OS 14541.0.0","Chrome 121.0.0.0","1536x864","1536x695",NA,NA,0,"BIQ (Charlotte)",3,"IJHAGBFCED","Passed AC2",NA,"Spreadsheet1",NA,"","","",NA,"5","BEGIN",NA,NA,NA,NA,NA,NA,0,NA,NA,NA,NA,"","",NA,"","",NA,"SUPPRF11788"
"2",1707943784127,"14/02/2024 20:49:44",1707943784127,0,"14/02/2024 20:49:44",165975,4,"task-gjqt",NA,35158439,10389500,NA,"complete",NA,"65cd24fb55260acb6c71c388","computer","Desktop or Laptop","Chromium OS 14541.0.0","Chrome 121.0.0.0","1536x864","1536x695",NA,NA,0,"BIQ (Charlotte)",3,"IJHAGBFCED","Passed AC2",NA,"Spreadsheet1",1,"BIQ","Screen 1","9dh6eq",1,"continue","",45204.6739999985,45190.174,45204.6739999985,45204.6739999985,45190.174,45204.6739999985,1,45204.6739999985,0,0,NA,"Click To Continue","Continue Button",23,"object-48","BIQ",NA,"SUPPRF11788"
"3",1707943784131,"14/02/2024 20:49:44",1707943784131,0,"14/02/2024 20:49:44",165975,4,"task-gjqt",NA,35158439,10389500,NA,"complete",NA,"65cd24fb55260acb6c71c388","computer","Desktop or Laptop","Chromium OS 14541.0.0","Chrome 121.0.0.0","1536x864","1536x695",NA,NA,0,"BIQ (Charlotte)",3,"IJHAGBFCED","Passed AC2",NA,"Spreadsheet1",1,"BIQ","Screen 1","9dh6eq",1,"response","0",5616.474,45190.174,45206.774,5616.474,45190.174,45206.774,1,5616.474,39590.3,0,NA,"Rating Scale","Rating Scale",3,"object-5","BIQ",NA,"SUPPRF11788"
"4",1707943784131,"14/02/2024 20:49:44",1707943784131,0,"14/02/2024 20:49:44",165975,4,"task-gjqt",NA,35158439,10389500,NA,"complete",NA,"65cd24fb55260acb6c71c388","computer","Desktop or Laptop","Chromium OS 14541.0.0","Chrome 121.0.0.0","1536x864","1536x695",NA,NA,0,"BIQ (Charlotte)",3,"IJHAGBFCED","Passed AC2",NA,"Spreadsheet1",1,"BIQ","Screen 1","9dh6eq",1,"response","6",25465.774,45190.174,45206.774,25465.774,45190.174,45206.774,1,25465.774,19741,0,NA,"Rating Scale","Rating Scale",10,"object-18","BIQ",NA,"SUPPRF11788"
"5",1707943784132,"14/02/2024 20:49:44",1707943784132,0,"14/02/2024 20:49:44",165975,4,"task-gjqt",NA,35158439,10389500,NA,"complete",NA,"65cd24fb55260acb6c71c388","computer","Desktop or Laptop","Chromium OS 14541.0.0","Chrome 121.0.0.0","1536x864","1536x695",NA,NA,0,"BIQ (Charlotte)",3,"IJHAGBFCED","Passed AC2",NA,"Spreadsheet1",1,"BIQ","Screen 1","9dh6eq",1,"response","6",39407.074,45190.174,45206.774,39407.074,45190.174,45206.774,1,39407.074,5799.7,0,NA,"Rating Scale","Rating Scale",17,"object-80","BIQ",NA,"SUPPRF11788"
"6",1707943808860,"14/02/2024 20:50:08",1707943808860,0,"14/02/2024 20:50:08",165975,4,"task-gjqt",NA,35158439,10389500,NA,"complete",NA,"65cd24fb55260acb6c71c388","computer","Desktop or Laptop","Chromium OS 14541.0.0","Chrome 121.0.0.0","1536x864","1536x695",NA,NA,0,"BIQ (Charlotte)",3,"IJHAGBFCED","Passed AC2",NA,"Spreadsheet1",1,"BIQ","Screen 2","o21mwi",2,"continue","",24747.4999999985,24732.5,24747.4999999985,24747.4999999985,24732.5,24747.4999999985,1,24747.4999999985,0,0,NA,"Click To Continue","Continue Button",22,"object-50","BIQ",NA,"SUPPRF11788"
"7",1707943808864,"14/02/2024 20:50:08",1707943808864,0,"14/02/2024 20:50:08",165975,4,"task-gjqt",NA,35158439,10389500,NA,"complete",NA,"65cd24fb55260acb6c71c388","computer","Desktop or Laptop","Chromium OS 14541.0.0","Chrome 121.0.0.0","1536x864","1536x695",NA,NA,0,"BIQ (Charlotte)",3,"IJHAGBFCED","Passed AC2",NA,"Spreadsheet1",1,"BIQ","Screen 2","o21mwi",2,"response","7",4033.2,24732.5,24749.2,4033.2,24732.5,24749.2,1,4033.2,20716,0,NA,"Rating Scale","Rating Scale",2,"object-259","BIQ",NA,"SUPPRF11788"
"8",1707943808865,"14/02/2024 20:50:08",1707943808865,0,"14/02/2024 20:50:08",165975,4,"task-gjqt",NA,35158439,10389500,NA,"complete",NA,"65cd24fb55260acb6c71c388","computer","Desktop or Laptop","Chromium OS 14541.0.0","Chrome 121.0.0.0","1536x864","1536x695",NA,NA,0,"BIQ (Charlotte)",3,"IJHAGBFCED","Passed AC2",NA,"Spreadsheet1",1,"BIQ","Screen 2","o21mwi",2,"response","7",14132.8,24732.5,24749.2,14132.8,24732.5,24749.2,1,14132.8,10616.4,0,NA,"Rating Scale","Rating Scale",9,"object-36","BIQ",NA,"SUPPRF11788"
"9",1707943808865,"14/02/2024 20:50:08",1707943808865,0,"14/02/2024 20:50:08",165975,4,"task-gjqt",NA,35158439,10389500,NA,"complete",NA,"65cd24fb55260acb6c71c388","computer","Desktop or Laptop","Chromium OS 14541.0.0","Chrome 121.0.0.0","1536x864","1536x695",NA,NA,0,"BIQ (Charlotte)",3,"IJHAGBFCED","Passed AC2",NA,"Spreadsheet1",1,"BIQ","Screen 2","o21mwi",2,"response","2",23815.9,24732.5,24749.2,23815.9,24732.5,24749.2,1,23815.9,933.299999999988,0,NA,"Rating Scale","Rating Scale",16,"object-86","BIQ",NA,"SUPPRF11788"
"10",1707943837169,"14/02/2024 20:50:37",1707943837169,0,"14/02/2024 20:50:37",165975,4,"task-gjqt",NA,35158439,10389500,NA,"complete",NA,"65cd24fb55260acb6c71c388","computer","Desktop or Laptop","Chromium OS 14541.0.0","Chrome 121.0.0.0","1536x864","1536x695",NA,NA,0,"BIQ (Charlotte)",3,"IJHAGBFCED","Passed AC2",NA,"Spreadsheet1",1,"BIQ","Screen 3","iz3the",3,"continue","",28324.9999999985,28315.8,28324.9999999985,28324.9999999985,28315.8,28324.9999999985,1,28324.9999999985,0,0,NA,"Click To Continue","Continue Button",22,"object-73","BIQ",NA,"SUPPRF11788"
"11",1707943837173,"14/02/2024 20:50:37",1707943837173,0,"14/02/2024 20:50:37",165975,4,"task-gjqt",NA,35158439,10389500,NA,"complete",NA,"65cd24fb55260acb6c71c388","computer","Desktop or Laptop","Chromium OS 14541.0.0","Chrome 121.0.0.0","1536x864","1536x695",NA,NA,0,"BIQ (Charlotte)",3,"IJHAGBFCED","Passed AC2",NA,"Spreadsheet1",1,"BIQ","Screen 3","iz3the",3,"response","1",12199.7,28315.8,28328.7000000015,12199.7,28315.8,28328.7000000015,1,12199.7,16129.0000000015,0,NA,"Rating Scale","Rating Scale",2,"object-53","BIQ",NA,"SUPPRF11788"
"12",1707943837173,"14/02/2024 20:50:37",1707943837173,0,"14/02/2024 20:50:37",165975,4,"task-gjqt",NA,35158439,10389500,NA,"complete",NA,"65cd24fb55260acb6c71c388","computer","Desktop or Laptop","Chromium OS 14541.0.0","Chrome 121.0.0.0","1536x864","1536x695",NA,NA,0,"BIQ (Charlotte)",3,"IJHAGBFCED","Passed AC2",NA,"Spreadsheet1",1,"BIQ","Screen 3","iz3the",3,"response","0",16766.2,28315.8,28329.2999999993,16766.2,28315.8,28329.2999999993,1,16766.2,11563.0999999992,0,NA,"Rating Scale","Rating Scale",9,"object-60","BIQ",NA,"SUPPRF11788"
"13",1707943837174,"14/02/2024 20:50:37",1707943837174,0,"14/02/2024 20:50:37",165975,4,"task-gjqt",NA,35158439,10389500,NA,"complete",NA,"65cd24fb55260acb6c71c388","computer","Desktop or Laptop","Chromium OS 14541.0.0","Chrome 121.0.0.0","1536x864","1536x695",NA,NA,0,"BIQ (Charlotte)",3,"IJHAGBFCED","Passed AC2",NA,"Spreadsheet1",1,"BIQ","Screen 3","iz3the",3,"response","3",21199.4,28315.8,28329.9999999985,21199.4,28315.8,28329.9999999985,1,21199.4,7130.59999999851,0,NA,"Rating Scale","Rating Scale",16,"object-67","BIQ",NA,"SUPPRF11788"
"14",1707943837179,"14/02/2024 20:50:37",1707943837179,0,"14/02/2024 20:50:37",165975,4,"task-gjqt",NA,35158439,10389500,NA,"complete",NA,"65cd24fb55260acb6c71c388","computer","Desktop or Laptop","Chromium OS 14541.0.0","Chrome 121.0.0.0","1536x864","1536x695",NA,NA,0,"BIQ (Charlotte)",3,"IJHAGBFCED","Passed AC2",NA,"Spreadsheet1",NA,"","","",NA,"5","END",NA,NA,NA,NA,NA,NA,0,NA,NA,NA,NA,"","",NA,"","",NA,"SUPPRF11788"
"1",1707944813711,"14/02/2024 21:06:53",1707944813711,0,"14/02/2024 21:06:53",165975,4,"task-gjqt",NA,35158884,10389652,NA,"complete",NA,"65cd2902abeaa111a2fc9de2","computer","Desktop or Laptop","Windows 10","Chrome 121.0.0.0","1536x864","1536x695",NA,NA,0,"BIQ (Charlotte)",3,"JAIBHCGDFE","Passed AC2",NA,"Spreadsheet1",NA,"","","",NA,"5","BEGIN",NA,NA,NA,NA,NA,NA,0,NA,NA,NA,NA,"","",NA,"","",NA,"SUPPRF92611"
"2",1707944839237,"14/02/2024 21:07:19",1707944839237,0,"14/02/2024 21:07:19",165975,4,"task-gjqt",NA,35158884,10389652,NA,"complete",NA,"65cd2902abeaa111a2fc9de2","computer","Desktop or Laptop","Windows 10","Chrome 121.0.0.0","1536x864","1536x695",NA,NA,0,"BIQ (Charlotte)",3,"JAIBHCGDFE","Passed AC2",NA,"Spreadsheet1",1,"BIQ","Screen 1","9dh6eq",1,"continue","",25537.656,25521.256,25537.656,25537.656,25521.256,25537.656,1,25537.656,0,0,NA,"Click To Continue","Continue Button",23,"object-48","BIQ",NA,"SUPPRF92611"
"3",1707944839241,"14/02/2024 21:07:19",1707944839241,0,"14/02/2024 21:07:19",165975,4,"task-gjqt",NA,35158884,10389652,NA,"complete",NA,"65cd2902abeaa111a2fc9de2","computer","Desktop or Laptop","Windows 10","Chrome 121.0.0.0","1536x864","1536x695",NA,NA,0,"BIQ (Charlotte)",3,"JAIBHCGDFE","Passed AC2",NA,"Spreadsheet1",1,"BIQ","Screen 1","9dh6eq",1,"response","6",13301.456,25521.256,25537.656,13301.456,25521.256,25537.656,1,13301.456,12236.2,0,NA,"Rating Scale","Rating Scale",3,"object-5","BIQ",NA,"SUPPRF92611"
"4",1707944839241,"14/02/2024 21:07:19",1707944839241,0,"14/02/2024 21:07:19",165975,4,"task-gjqt",NA,35158884,10389652,NA,"complete",NA,"65cd2902abeaa111a2fc9de2","computer","Desktop or Laptop","Windows 10","Chrome 121.0.0.0","1536x864","1536x695",NA,NA,0,"BIQ (Charlotte)",3,"JAIBHCGDFE","Passed AC2",NA,"Spreadsheet1",1,"BIQ","Screen 1","9dh6eq",1,"response","6",20676.556,25521.256,25537.656,20676.556,25521.256,25537.656,1,20676.556,4861.09999999999,0,NA,"Rating Scale","Rating Scale",10,"object-18","BIQ",NA,"SUPPRF92611"
"5",1707944839242,"14/02/2024 21:07:19",1707944839242,0,"14/02/2024 21:07:19",165975,4,"task-gjqt",NA,35158884,10389652,NA,"complete",NA,"65cd2902abeaa111a2fc9de2","computer","Desktop or Laptop","Windows 10","Chrome 121.0.0.0","1536x864","1536x695",NA,NA,0,"BIQ (Charlotte)",3,"JAIBHCGDFE","Passed AC2",NA,"Spreadsheet1",1,"BIQ","Screen 1","9dh6eq",1,"response","2",24755.256,25521.256,25537.656,24755.256,25521.256,25537.656,1,24755.256,782.399999999998,0,NA,"Rating Scale","Rating Scale",17,"object-80","BIQ",NA,"SUPPRF92611"
"6",1707944859873,"14/02/2024 21:07:39",1707944859873,0,"14/02/2024 21:07:39",165975,4,"task-gjqt",NA,35158884,10389652,NA,"complete",NA,"65cd2902abeaa111a2fc9de2","computer","Desktop or Laptop","Windows 10","Chrome 121.0.0.0","1536x864","1536x695",NA,NA,0,"BIQ (Charlotte)",3,"JAIBHCGDFE","Passed AC2",NA,"Spreadsheet1",1,"BIQ","Screen 2","o21mwi",2,"continue","",20660.6,20644.1,20660.6,20660.6,20644.1,20660.6,1,20660.6,0,0,NA,"Click To Continue","Continue Button",22,"object-50","BIQ",NA,"SUPPRF92611"
"7",1707944859879,"14/02/2024 21:07:39",1707944859879,0,"14/02/2024 21:07:39",165975,4,"task-gjqt",NA,35158884,10389652,NA,"complete",NA,"65cd2902abeaa111a2fc9de2","computer","Desktop or Laptop","Windows 10","Chrome 121.0.0.0","1536x864","1536x695",NA,NA,0,"BIQ (Charlotte)",3,"JAIBHCGDFE","Passed AC2",NA,"Spreadsheet1",1,"BIQ","Screen 2","o21mwi",2,"response","7",7907.9,20644.1,20660.6,7907.9,20644.1,20660.6,1,7907.9,12752.7,0,NA,"Rating Scale","Rating Scale",2,"object-259","BIQ",NA,"SUPPRF92611"
"8",1707944859880,"14/02/2024 21:07:39",1707944859880,0,"14/02/2024 21:07:39",165975,4,"task-gjqt",NA,35158884,10389652,NA,"complete",NA,"65cd2902abeaa111a2fc9de2","computer","Desktop or Laptop","Windows 10","Chrome 121.0.0.0","1536x864","1536x695",NA,NA,0,"BIQ (Charlotte)",3,"JAIBHCGDFE","Passed AC2",NA,"Spreadsheet1",1,"BIQ","Screen 2","o21mwi",2,"response","1",11886.8,20644.1,20660.6,11886.8,20644.1,20660.6,1,11886.8,8773.8,0,NA,"Rating Scale","Rating Scale",9,"object-36","BIQ",NA,"SUPPRF92611"
"9",1707944859882,"14/02/2024 21:07:39",1707944859882,0,"14/02/2024 21:07:39",165975,4,"task-gjqt",NA,35158884,10389652,NA,"complete",NA,"65cd2902abeaa111a2fc9de2","computer","Desktop or Laptop","Windows 10","Chrome 121.0.0.0","1536x864","1536x695",NA,NA,0,"BIQ (Charlotte)",3,"JAIBHCGDFE","Passed AC2",NA,"Spreadsheet1",1,"BIQ","Screen 2","o21mwi",2,"response","0",19711.8,20644.1,20660.6,19711.8,20644.1,20660.6,1,19711.8,948.799999999996,0,NA,"Rating Scale","Rating Scale",16,"object-86","BIQ",NA,"SUPPRF92611"
"10",1707944877957,"14/02/2024 21:07:57",1707944877957,0,"14/02/2024 21:07:57",165975,4,"task-gjqt",NA,35158884,10389652,NA,"complete",NA,"65cd2902abeaa111a2fc9de2","computer","Desktop or Laptop","Windows 10","Chrome 121.0.0.0","1536x864","1536x695",NA,NA,0,"BIQ (Charlotte)",3,"JAIBHCGDFE","Passed AC2",NA,"Spreadsheet1",1,"BIQ","Screen 3","iz3the",3,"continue","",18100.8,18096.7,18100.8,18100.8,18096.7,18100.8,1,18100.8,0,0,NA,"Click To Continue","Continue Button",22,"object-73","BIQ",NA,"SUPPRF92611"
"11",1707944877962,"14/02/2024 21:07:57",1707944877962,0,"14/02/2024 21:07:57",165975,4,"task-gjqt",NA,35158884,10389652,NA,"complete",NA,"65cd2902abeaa111a2fc9de2","computer","Desktop or Laptop","Windows 10","Chrome 121.0.0.0","1536x864","1536x695",NA,NA,0,"BIQ (Charlotte)",3,"JAIBHCGDFE","Passed AC2",NA,"Spreadsheet1",1,"BIQ","Screen 3","iz3the",3,"response","0",4412,18096.7,18106.3,4412,18096.7,18106.3,1,4412,13694.3,0,NA,"Rating Scale","Rating Scale",2,"object-53","BIQ",NA,"SUPPRF92611"
"12",1707944877963,"14/02/2024 21:07:57",1707944877963,0,"14/02/2024 21:07:57",165975,4,"task-gjqt",NA,35158884,10389652,NA,"complete",NA,"65cd2902abeaa111a2fc9de2","computer","Desktop or Laptop","Windows 10","Chrome 121.0.0.0","1536x864","1536x695",NA,NA,0,"BIQ (Charlotte)",3,"JAIBHCGDFE","Passed AC2",NA,"Spreadsheet1",1,"BIQ","Screen 3","iz3the",3,"response","1",9622.5,18096.7,18107.2000000954,9622.5,18096.7,18107.2000000954,1,9622.5,8484.70000009537,0,NA,"Rating Scale","Rating Scale",9,"object-60","BIQ",NA,"SUPPRF92611"
"13",1707944877964,"14/02/2024 21:07:57",1707944877964,0,"14/02/2024 21:07:57",165975,4,"task-gjqt",NA,35158884,10389652,NA,"complete",NA,"65cd2902abeaa111a2fc9de2","computer","Desktop or Laptop","Windows 10","Chrome 121.0.0.0","1536x864","1536x695",NA,NA,0,"BIQ (Charlotte)",3,"JAIBHCGDFE","Passed AC2",NA,"Spreadsheet1",1,"BIQ","Screen 3","iz3the",3,"response","4",15300,18096.7,18108.3,15300,18096.7,18108.3,1,15300,2808.3,0,NA,"Rating Scale","Rating Scale",16,"object-67","BIQ",NA,"SUPPRF92611"
"14",1707944877974,"14/02/2024 21:07:57",1707944877974,0,"14/02/2024 21:07:57",165975,4,"task-gjqt",NA,35158884,10389652,NA,"complete",NA,"65cd2902abeaa111a2fc9de2","computer","Desktop or Laptop","Windows 10","Chrome 121.0.0.0","1536x864","1536x695",NA,NA,0,"BIQ (Charlotte)",3,"JAIBHCGDFE","Passed AC2",NA,"Spreadsheet1",NA,"","","",NA,"5","END",NA,NA,NA,NA,NA,NA,0,NA,NA,NA,NA,"","",NA,"","",NA,"SUPPRF92611"
"1",1707945049021,"14/02/2024 21:10:49",1707945049021,0,"14/02/2024 21:10:49",165975,4,"task-gjqt",NA,35158954,10389709,NA,"complete",NA,"65cd2ae8ae300aebd05b7b20","computer","Desktop or Laptop","Mac OS 10.15.7","Chrome 121.0.0.0","1440x900","1440x676",NA,NA,0,"BIQ (Charlotte)",3,"ABJCIDHEGF","Passed AC2",NA,"Spreadsheet1",NA,"","","",NA,"5","BEGIN",NA,NA,NA,NA,NA,NA,0,NA,NA,NA,NA,"","",NA,"","",NA,"SUPPRF40465"
"2",1707945079383,"14/02/2024 21:11:19",1707945079383,0,"14/02/2024 21:11:19",165975,4,"task-gjqt",NA,35158954,10389709,NA,"complete",NA,"65cd2ae8ae300aebd05b7b20","computer","Desktop or Laptop","Mac OS 10.15.7","Chrome 121.0.0.0","1440x900","1440x676",NA,NA,0,"BIQ (Charlotte)",3,"ABJCIDHEGF","Passed AC2",NA,"Spreadsheet1",1,"BIQ","Screen 1","9dh6eq",1,"continue","",30367.2,30350.5,30367.2,30367.2,30350.5,30367.2,1,30367.2,0,0,NA,"Click To Continue","Continue Button",23,"object-48","BIQ",NA,"SUPPRF40465"
"3",1707945079386,"14/02/2024 21:11:19",1707945079386,0,"14/02/2024 21:11:19",165975,4,"task-gjqt",NA,35158954,10389709,NA,"complete",NA,"65cd2ae8ae300aebd05b7b20","computer","Desktop or Laptop","Mac OS 10.15.7","Chrome 121.0.0.0","1440x900","1440x676",NA,NA,0,"BIQ (Charlotte)",3,"ABJCIDHEGF","Passed AC2",NA,"Spreadsheet1",1,"BIQ","Screen 1","9dh6eq",1,"response","5",18267,30350.5,30367.2,18267,30350.5,30367.2,1,18267,12100.2,0,NA,"Rating Scale","Rating Scale",3,"object-5","BIQ",NA,"SUPPRF40465"
"4",1707945079386,"14/02/2024 21:11:19",1707945079386,0,"14/02/2024 21:11:19",165975,4,"task-gjqt",NA,35158954,10389709,NA,"complete",NA,"65cd2ae8ae300aebd05b7b20","computer","Desktop or Laptop","Mac OS 10.15.7","Chrome 121.0.0.0","1440x900","1440x676",NA,NA,0,"BIQ (Charlotte)",3,"ABJCIDHEGF","Passed AC2",NA,"Spreadsheet1",1,"BIQ","Screen 1","9dh6eq",1,"response","1",24866.6,30350.5,30367.2,24866.6,30350.5,30367.2,1,24866.6,5500.6,0,NA,"Rating Scale","Rating Scale",10,"object-18","BIQ",NA,"SUPPRF40465"
"5",1707945079386,"14/02/2024 21:11:19",1707945079386,0,"14/02/2024 21:11:19",165975,4,"task-gjqt",NA,35158954,10389709,NA,"complete",NA,"65cd2ae8ae300aebd05b7b20","computer","Desktop or Laptop","Mac OS 10.15.7","Chrome 121.0.0.0","1440x900","1440x676",NA,NA,0,"BIQ (Charlotte)",3,"ABJCIDHEGF","Passed AC2",NA,"Spreadsheet1",1,"BIQ","Screen 1","9dh6eq",1,"response","6",29600.5,30350.5,30367.2,29600.5,30350.5,30367.2,1,29600.5,766.700000000001,0,NA,"Rating Scale","Rating Scale",17,"object-80","BIQ",NA,"SUPPRF40465"
"6",1707945098311,"14/02/2024 21:11:38",1707945098311,0,"14/02/2024 21:11:38",165975,4,"task-gjqt",NA,35158954,10389709,NA,"complete",NA,"65cd2ae8ae300aebd05b7b20","computer","Desktop or Laptop","Mac OS 10.15.7","Chrome 121.0.0.0","1440x900","1440x676",NA,NA,0,"BIQ (Charlotte)",3,"ABJCIDHEGF","Passed AC2",NA,"Spreadsheet1",1,"BIQ","Screen 2","o21mwi",2,"continue","",18948.3,18933.7,18948.3,18948.3,18933.7,18948.3,1,18948.3,0,0,NA,"Click To Continue","Continue Button",22,"object-50","BIQ",NA,"SUPPRF40465"
"7",1707945098313,"14/02/2024 21:11:38",1707945098313,0,"14/02/2024 21:11:38",165975,4,"task-gjqt",NA,35158954,10389709,NA,"complete",NA,"65cd2ae8ae300aebd05b7b20","computer","Desktop or Laptop","Mac OS 10.15.7","Chrome 121.0.0.0","1440x900","1440x676",NA,NA,0,"BIQ (Charlotte)",3,"ABJCIDHEGF","Passed AC2",NA,"Spreadsheet1",1,"BIQ","Screen 2","o21mwi",2,"response","2",5083.4,18933.7,18950.4,5083.4,18933.7,18950.4,1,5083.4,13867,0,NA,"Rating Scale","Rating Scale",2,"object-259","BIQ",NA,"SUPPRF40465"
"8",1707945098313,"14/02/2024 21:11:38",1707945098313,0,"14/02/2024 21:11:38",165975,4,"task-gjqt",NA,35158954,10389709,NA,"complete",NA,"65cd2ae8ae300aebd05b7b20","computer","Desktop or Laptop","Mac OS 10.15.7","Chrome 121.0.0.0","1440x900","1440x676",NA,NA,0,"BIQ (Charlotte)",3,"ABJCIDHEGF","Passed AC2",NA,"Spreadsheet1",1,"BIQ","Screen 2","o21mwi",2,"response","5",11300.2,18933.7,18950.4,11300.2,18933.7,18950.4,1,11300.2,7650.2,0,NA,"Rating Scale","Rating Scale",9,"object-36","BIQ",NA,"SUPPRF40465"
"9",1707945098314,"14/02/2024 21:11:38",1707945098314,0,"14/02/2024 21:11:38",165975,4,"task-gjqt",NA,35158954,10389709,NA,"complete",NA,"65cd2ae8ae300aebd05b7b20","computer","Desktop or Laptop","Mac OS 10.15.7","Chrome 121.0.0.0","1440x900","1440x676",NA,NA,0,"BIQ (Charlotte)",3,"ABJCIDHEGF","Passed AC2",NA,"Spreadsheet1",1,"BIQ","Screen 2","o21mwi",2,"response","6",18350.4,18933.7,18950.4,18350.4,18933.7,18950.4,1,18350.4,600.000000000007,0,NA,"Rating Scale","Rating Scale",16,"object-86","BIQ",NA,"SUPPRF40465"
"10",1707945117377,"14/02/2024 21:11:57",1707945117377,0,"14/02/2024 21:11:57",165975,4,"task-gjqt",NA,35158954,10389709,NA,"complete",NA,"65cd2ae8ae300aebd05b7b20","computer","Desktop or Laptop","Mac OS 10.15.7","Chrome 121.0.0.0","1440x900","1440x676",NA,NA,0,"BIQ (Charlotte)",3,"ABJCIDHEGF","Passed AC2",NA,"Spreadsheet1",1,"BIQ","Screen 3","iz3the",3,"continue","",19081.2999999285,19067,19081.2999999285,19081.2999999285,19067,19081.2999999285,1,19081.2999999285,0,0,NA,"Click To Continue","Continue Button",22,"object-73","BIQ",NA,"SUPPRF40465"
"11",1707945117379,"14/02/2024 21:11:57",1707945117379,0,"14/02/2024 21:11:57",165975,4,"task-gjqt",NA,35158954,10389709,NA,"complete",NA,"65cd2ae8ae300aebd05b7b20","computer","Desktop or Laptop","Mac OS 10.15.7","Chrome 121.0.0.0","1440x900","1440x676",NA,NA,0,"BIQ (Charlotte)",3,"ABJCIDHEGF","Passed AC2",NA,"Spreadsheet1",1,"BIQ","Screen 3","iz3the",3,"response","2",7650.1,19067,19083.6999999046,7650.1,19067,19083.6999999046,1,7650.1,11433.5999999046,0,NA,"Rating Scale","Rating Scale",2,"object-53","BIQ",NA,"SUPPRF40465"
"12",1707945117380,"14/02/2024 21:11:57",1707945117380,0,"14/02/2024 21:11:57",165975,4,"task-gjqt",NA,35158954,10389709,NA,"complete",NA,"65cd2ae8ae300aebd05b7b20","computer","Desktop or Laptop","Mac OS 10.15.7","Chrome 121.0.0.0","1440x900","1440x676",NA,NA,0,"BIQ (Charlotte)",3,"ABJCIDHEGF","Passed AC2",NA,"Spreadsheet1",1,"BIQ","Screen 3","iz3the",3,"response","6",14732.6,19067,19083.7,14732.6,19067,19083.7,1,14732.6,4351.09999999999,0,NA,"Rating Scale","Rating Scale",9,"object-60","BIQ",NA,"SUPPRF40465"
"13",1707945117380,"14/02/2024 21:11:57",1707945117380,0,"14/02/2024 21:11:57",165975,4,"task-gjqt",NA,35158954,10389709,NA,"complete",NA,"65cd2ae8ae300aebd05b7b20","computer","Desktop or Laptop","Mac OS 10.15.7","Chrome 121.0.0.0","1440x900","1440x676",NA,NA,0,"BIQ (Charlotte)",3,"ABJCIDHEGF","Passed AC2",NA,"Spreadsheet1",1,"BIQ","Screen 3","iz3the",3,"response","4",18516.2,19067,19083.7,18516.2,19067,19083.7,1,18516.2,567.499999999985,0,NA,"Rating Scale","Rating Scale",16,"object-67","BIQ",NA,"SUPPRF40465"
"14",1707945117386,"14/02/2024 21:11:57",1707945117386,0,"14/02/2024 21:11:57",165975,4,"task-gjqt",NA,35158954,10389709,NA,"complete",NA,"65cd2ae8ae300aebd05b7b20","computer","Desktop or Laptop","Mac OS 10.15.7","Chrome 121.0.0.0","1440x900","1440x676",NA,NA,0,"BIQ (Charlotte)",3,"ABJCIDHEGF","Passed AC2",NA,"Spreadsheet1",NA,"","","",NA,"5","END",NA,NA,NA,NA,NA,NA,0,NA,NA,NA,NA,"","",NA,"","",NA,"SUPPRF40465"
"1",1707946765523,"14/02/2024 21:39:25",1707946765523,0,"14/02/2024 21:39:25",165975,4,"task-gjqt",NA,35159503,10389752,NA,"complete",NA,"65cd2bd69dae843a0d0fa55a","computer","Desktop or Laptop","Windows 10","Chrome 121.0.0.0","1280x720","1280x632",NA,NA,0,"BIQ (Charlotte)",3,"BCADJEIFHG","Passed AC2",NA,"Spreadsheet1",NA,"","","",NA,"5","BEGIN",NA,NA,NA,NA,NA,NA,0,NA,NA,NA,NA,"","",NA,"","",NA,"SUPPRF16777"
"2",1707946917508,"14/02/2024 21:41:57",1707946917508,0,"14/02/2024 21:41:57",165975,4,"task-gjqt",NA,35159503,10389752,NA,"complete",NA,"65cd2bd69dae843a0d0fa55a","computer","Desktop or Laptop","Windows 10","Chrome 121.0.0.0","1280x720","1280x632",NA,NA,0,"BIQ (Charlotte)",3,"BCADJEIFHG","Passed AC2",NA,"Spreadsheet1",1,"BIQ","Screen 1","9dh6eq",1,"continue","",152001.8,151985.3,152001.8,152001.8,151985.3,152001.8,1,152001.8,0,0,NA,"Click To Continue","Continue Button",23,"object-48","BIQ",NA,"SUPPRF16777"
"3",1707946917511,"14/02/2024 21:41:57",1707946917511,0,"14/02/2024 21:41:57",165975,4,"task-gjqt",NA,35159503,10389752,NA,"complete",NA,"65cd2bd69dae843a0d0fa55a","computer","Desktop or Laptop","Windows 10","Chrome 121.0.0.0","1280x720","1280x632",NA,NA,0,"BIQ (Charlotte)",3,"BCADJEIFHG","Passed AC2",NA,"Spreadsheet1",1,"BIQ","Screen 1","9dh6eq",1,"response","1",78670.6,151985.3,152001.8,78670.6,151985.3,152001.8,1,78670.6,73331.2,0,NA,"Rating Scale","Rating Scale",3,"object-5","BIQ",NA,"SUPPRF16777"
"4",1707946917512,"14/02/2024 21:41:57",1707946917512,0,"14/02/2024 21:41:57",165975,4,"task-gjqt",NA,35159503,10389752,NA,"complete",NA,"65cd2bd69dae843a0d0fa55a","computer","Desktop or Laptop","Windows 10","Chrome 121.0.0.0","1280x720","1280x632",NA,NA,0,"BIQ (Charlotte)",3,"BCADJEIFHG","Passed AC2",NA,"Spreadsheet1",1,"BIQ","Screen 1","9dh6eq",1,"response","8",91906.6,151985.3,152001.8,91906.6,151985.3,152001.8,1,91906.6,60095.2,0,NA,"Rating Scale","Rating Scale",10,"object-18","BIQ",NA,"SUPPRF16777"
"5",1707946917512,"14/02/2024 21:41:57",1707946917512,0,"14/02/2024 21:41:57",165975,4,"task-gjqt",NA,35159503,10389752,NA,"complete",NA,"65cd2bd69dae843a0d0fa55a","computer","Desktop or Laptop","Windows 10","Chrome 121.0.0.0","1280x720","1280x632",NA,NA,0,"BIQ (Charlotte)",3,"BCADJEIFHG","Passed AC2",NA,"Spreadsheet1",1,"BIQ","Screen 1","9dh6eq",1,"response","0",148034.9,151985.3,152001.8,148034.9,151985.3,152001.8,1,148034.9,3966.89999999999,0,NA,"Rating Scale","Rating Scale",17,"object-80","BIQ",NA,"SUPPRF16777"
"6",1707946945877,"14/02/2024 21:42:25",1707946945877,0,"14/02/2024 21:42:25",165975,4,"task-gjqt",NA,35159503,10389752,NA,"complete",NA,"65cd2bd69dae843a0d0fa55a","computer","Desktop or Laptop","Windows 10","Chrome 121.0.0.0","1280x720","1280x632",NA,NA,0,"BIQ (Charlotte)",3,"BCADJEIFHG","Passed AC2",NA,"Spreadsheet1",1,"BIQ","Screen 2","o21mwi",2,"continue","",28395.8000000715,28389.5,28395.8000000715,28395.8000000715,28389.5,28395.8000000715,1,28395.8000000715,0,0,NA,"Click To Continue","Continue Button",22,"object-50","BIQ",NA,"SUPPRF16777"
"7",1707946945882,"14/02/2024 21:42:25",1707946945882,0,"14/02/2024 21:42:25",165975,4,"task-gjqt",NA,35159503,10389752,NA,"complete",NA,"65cd2bd69dae843a0d0fa55a","computer","Desktop or Laptop","Windows 10","Chrome 121.0.0.0","1280x720","1280x632",NA,NA,0,"BIQ (Charlotte)",3,"BCADJEIFHG","Passed AC2",NA,"Spreadsheet1",1,"BIQ","Screen 2","o21mwi",2,"response","8",10985.7,28389.5,28401.4000000954,10985.7,28389.5,28401.4000000954,1,10985.7,17415.7000000954,0,NA,"Rating Scale","Rating Scale",2,"object-259","BIQ",NA,"SUPPRF16777"
"8",1707946945883,"14/02/2024 21:42:25",1707946945883,0,"14/02/2024 21:42:25",165975,4,"task-gjqt",NA,35159503,10389752,NA,"complete",NA,"65cd2bd69dae843a0d0fa55a","computer","Desktop or Laptop","Windows 10","Chrome 121.0.0.0","1280x720","1280x632",NA,NA,0,"BIQ (Charlotte)",3,"BCADJEIFHG","Passed AC2",NA,"Spreadsheet1",1,"BIQ","Screen 2","o21mwi",2,"response","0",16553.4,28389.5,28402,16553.4,28389.5,28402,1,16553.4,11848.6,0,NA,"Rating Scale","Rating Scale",9,"object-36","BIQ",NA,"SUPPRF16777"
"9",1707946945883,"14/02/2024 21:42:25",1707946945883,0,"14/02/2024 21:42:25",165975,4,"task-gjqt",NA,35159503,10389752,NA,"complete",NA,"65cd2bd69dae843a0d0fa55a","computer","Desktop or Laptop","Windows 10","Chrome 121.0.0.0","1280x720","1280x632",NA,NA,0,"BIQ (Charlotte)",3,"BCADJEIFHG","Passed AC2",NA,"Spreadsheet1",1,"BIQ","Screen 2","o21mwi",2,"response","2",27555.9,28389.5,28402.7000000477,27555.9,28389.5,28402.7000000477,1,27555.9,846.80000004769,0,NA,"Rating Scale","Rating Scale",16,"object-86","BIQ",NA,"SUPPRF16777"
"10",1707946960253,"14/02/2024 21:42:40",1707946960253,0,"14/02/2024 21:42:40",165975,4,"task-gjqt",NA,35159503,10389752,NA,"complete",NA,"65cd2bd69dae843a0d0fa55a","computer","Desktop or Laptop","Windows 10","Chrome 121.0.0.0","1280x720","1280x632",NA,NA,0,"BIQ (Charlotte)",3,"BCADJEIFHG","Passed AC2",NA,"Spreadsheet1",1,"BIQ","Screen 3","iz3the",3,"continue","",14382,14369.5,14382,14382,14369.5,14382,1,14382,0,0,NA,"Click To Continue","Continue Button",22,"object-73","BIQ",NA,"SUPPRF16777"
"11",1707946960258,"14/02/2024 21:42:40",1707946960258,0,"14/02/2024 21:42:40",165975,4,"task-gjqt",NA,35159503,10389752,NA,"complete",NA,"65cd2bd69dae843a0d0fa55a","computer","Desktop or Laptop","Windows 10","Chrome 121.0.0.0","1280x720","1280x632",NA,NA,0,"BIQ (Charlotte)",3,"BCADJEIFHG","Passed AC2",NA,"Spreadsheet1",1,"BIQ","Screen 3","iz3the",3,"response","0",4600.60000000001,14369.5,14386.2,4600.60000000001,14369.5,14386.2,1,4600.60000000001,9785.60000000001,0,NA,"Rating Scale","Rating Scale",2,"object-53","BIQ",NA,"SUPPRF16777"
"12",1707946960259,"14/02/2024 21:42:40",1707946960259,0,"14/02/2024 21:42:40",165975,4,"task-gjqt",NA,35159503,10389752,NA,"complete",NA,"65cd2bd69dae843a0d0fa55a","computer","Desktop or Laptop","Windows 10","Chrome 121.0.0.0","1280x720","1280x632",NA,NA,0,"BIQ (Charlotte)",3,"BCADJEIFHG","Passed AC2",NA,"Spreadsheet1",1,"BIQ","Screen 3","iz3the",3,"response","0",8001.39999999999,14369.5,14386.2,8001.39999999999,14369.5,14386.2,1,8001.39999999999,6384.80000000002,0,NA,"Rating Scale","Rating Scale",9,"object-60","BIQ",NA,"SUPPRF16777"
"13",1707946960260,"14/02/2024 21:42:40",1707946960260,0,"14/02/2024 21:42:40",165975,4,"task-gjqt",NA,35159503,10389752,NA,"complete",NA,"65cd2bd69dae843a0d0fa55a","computer","Desktop or Laptop","Windows 10","Chrome 121.0.0.0","1280x720","1280x632",NA,NA,0,"BIQ (Charlotte)",3,"BCADJEIFHG","Passed AC2",NA,"Spreadsheet1",1,"BIQ","Screen 3","iz3the",3,"response","2",13602.6,14369.5,14386.2,13602.6,14369.5,14386.2,1,13602.6,783.600000000006,0,NA,"Rating Scale","Rating Scale",16,"object-67","BIQ",NA,"SUPPRF16777"
"14",1707946960268,"14/02/2024 21:42:40",1707946960268,0,"14/02/2024 21:42:40",165975,4,"task-gjqt",NA,35159503,10389752,NA,"complete",NA,"65cd2bd69dae843a0d0fa55a","computer","Desktop or Laptop","Windows 10","Chrome 121.0.0.0","1280x720","1280x632",NA,NA,0,"BIQ (Charlotte)",3,"BCADJEIFHG","Passed AC2",NA,"Spreadsheet1",NA,"","","",NA,"5","END",NA,NA,NA,NA,NA,NA,0,NA,NA,NA,NA,"","",NA,"","",NA,"SUPPRF16777"
"1",1707947148818,"14/02/2024 21:45:48",1707929148818,-5,"14/02/2024 11:45:48",165975,4,"task-gjqt",NA,35159664,10389981,NA,"complete",NA,"65cd338a0239a19d29ad36c2","computer","Desktop or Laptop","Mac OS 10.15.7","Chrome 121.0.0.0","1440x900","1440x779",NA,NA,0,"BIQ (Charlotte)",3,"FGEHDICJBA","Passed AC2",NA,"Spreadsheet1",NA,"","","",NA,"5","BEGIN",NA,NA,NA,NA,NA,NA,0,NA,NA,NA,NA,"","",NA,"","",NA,"SUPPRF20506"
"2",1707947284123,"14/02/2024 21:48:04",1707929284123,-5,"14/02/2024 11:48:04",165975,4,"task-gjqt",NA,35159664,10389981,NA,"complete",NA,"65cd338a0239a19d29ad36c2","computer","Desktop or Laptop","Mac OS 10.15.7","Chrome 121.0.0.0","1440x900","1440x779",NA,NA,0,"BIQ (Charlotte)",3,"FGEHDICJBA","Passed AC2",NA,"Spreadsheet1",1,"BIQ","Screen 1","9dh6eq",1,"continue","",137391.8,137376.1,137391.8,137391.8,137376.1,137391.8,1,137391.8,0,0,NA,"Click To Continue","Continue Button",23,"object-48","BIQ",NA,"SUPPRF20506"
"3",1707947284127,"14/02/2024 21:48:04",1707929284127,-5,"14/02/2024 11:48:04",165975,4,"task-gjqt",NA,35159664,10389981,NA,"complete",NA,"65cd338a0239a19d29ad36c2","computer","Desktop or Laptop","Mac OS 10.15.7","Chrome 121.0.0.0","1440x900","1440x779",NA,NA,0,"BIQ (Charlotte)",3,"FGEHDICJBA","Passed AC2",NA,"Spreadsheet1",1,"BIQ","Screen 1","9dh6eq",1,"response","7",124826.1,137376.1,137392.7,124826.1,137376.1,137392.7,1,124826.1,12566.6,0,NA,"Rating Scale","Rating Scale",3,"object-5","BIQ",NA,"SUPPRF20506"
"4",1707947284128,"14/02/2024 21:48:04",1707929284128,-5,"14/02/2024 11:48:04",165975,4,"task-gjqt",NA,35159664,10389981,NA,"complete",NA,"65cd338a0239a19d29ad36c2","computer","Desktop or Laptop","Mac OS 10.15.7","Chrome 121.0.0.0","1440x900","1440x779",NA,NA,0,"BIQ (Charlotte)",3,"FGEHDICJBA","Passed AC2",NA,"Spreadsheet1",1,"BIQ","Screen 1","9dh6eq",1,"response","0",129575.4,137376.1,137392.7,129575.4,137376.1,137392.7,1,129575.4,7817.30000000002,0,NA,"Rating Scale","Rating Scale",10,"object-18","BIQ",NA,"SUPPRF20506"
"5",1707947284128,"14/02/2024 21:48:04",1707929284128,-5,"14/02/2024 11:48:04",165975,4,"task-gjqt",NA,35159664,10389981,NA,"complete",NA,"65cd338a0239a19d29ad36c2","computer","Desktop or Laptop","Mac OS 10.15.7","Chrome 121.0.0.0","1440x900","1440x779",NA,NA,0,"BIQ (Charlotte)",3,"FGEHDICJBA","Passed AC2",NA,"Spreadsheet1",1,"BIQ","Screen 1","9dh6eq",1,"response","1",136192.2,137376.1,137392.7,136192.2,137376.1,137392.7,1,136192.2,1200.5,0,NA,"Rating Scale","Rating Scale",17,"object-80","BIQ",NA,"SUPPRF20506"
"6",1707947315464,"14/02/2024 21:48:35",1707929315464,-5,"14/02/2024 11:48:35",165975,4,"task-gjqt",NA,35159664,10389981,NA,"complete",NA,"65cd338a0239a19d29ad36c2","computer","Desktop or Laptop","Mac OS 10.15.7","Chrome 121.0.0.0","1440x900","1440x779",NA,NA,0,"BIQ (Charlotte)",3,"FGEHDICJBA","Passed AC2",NA,"Spreadsheet1",1,"BIQ","Screen 2","o21mwi",2,"continue","",31356.7,31349.9,31356.7,31356.7,31349.9,31356.7,1,31356.7,0,0,NA,"Click To Continue","Continue Button",22,"object-50","BIQ",NA,"SUPPRF20506"
"7",1707947315469,"14/02/2024 21:48:35",1707929315469,-5,"14/02/2024 11:48:35",165975,4,"task-gjqt",NA,35159664,10389981,NA,"complete",NA,"65cd338a0239a19d29ad36c2","computer","Desktop or Laptop","Mac OS 10.15.7","Chrome 121.0.0.0","1440x900","1440x779",NA,NA,0,"BIQ (Charlotte)",3,"FGEHDICJBA","Passed AC2",NA,"Spreadsheet1",1,"BIQ","Screen 2","o21mwi",2,"response","0",9149,31349.9,31361.4,9149,31349.9,31361.4,1,9149,22212.4,0,NA,"Rating Scale","Rating Scale",2,"object-259","BIQ",NA,"SUPPRF20506"
"8",1707947315470,"14/02/2024 21:48:35",1707929315470,-5,"14/02/2024 11:48:35",165975,4,"task-gjqt",NA,35159664,10389981,NA,"complete",NA,"65cd338a0239a19d29ad36c2","computer","Desktop or Laptop","Mac OS 10.15.7","Chrome 121.0.0.0","1440x900","1440x779",NA,NA,0,"BIQ (Charlotte)",3,"FGEHDICJBA","Passed AC2",NA,"Spreadsheet1",1,"BIQ","Screen 2","o21mwi",2,"response","0",16915.5,31349.9,31362.4,16915.5,31349.9,31362.4,1,16915.5,14446.9,0,NA,"Rating Scale","Rating Scale",9,"object-36","BIQ",NA,"SUPPRF20506"
"9",1707947315470,"14/02/2024 21:48:35",1707929315470,-5,"14/02/2024 11:48:35",165975,4,"task-gjqt",NA,35159664,10389981,NA,"complete",NA,"65cd338a0239a19d29ad36c2","computer","Desktop or Laptop","Mac OS 10.15.7","Chrome 121.0.0.0","1440x900","1440x779",NA,NA,0,"BIQ (Charlotte)",3,"FGEHDICJBA","Passed AC2",NA,"Spreadsheet1",1,"BIQ","Screen 2","o21mwi",2,"response","0",28498.7,31349.9,31362.9,28498.7,31349.9,31362.9,1,28498.7,2864.20000000001,0,NA,"Rating Scale","Rating Scale",16,"object-86","BIQ",NA,"SUPPRF20506"
"10",1707947337349,"14/02/2024 21:48:57",1707929337349,-5,"14/02/2024 11:48:57",165975,4,"task-gjqt",NA,35159664,10389981,NA,"complete",NA,"65cd338a0239a19d29ad36c2","computer","Desktop or Laptop","Mac OS 10.15.7","Chrome 121.0.0.0","1440x900","1440x779",NA,NA,0,"BIQ (Charlotte)",3,"FGEHDICJBA","Passed AC2",NA,"Spreadsheet1",1,"BIQ","Screen 3","iz3the",3,"continue","",21891.3,21882.3,21891.3,21891.3,21882.3,21891.3,1,21891.3,0,0,NA,"Click To Continue","Continue Button",22,"object-73","BIQ",NA,"SUPPRF20506"
"11",1707947337352,"14/02/2024 21:48:57",1707929337352,-5,"14/02/2024 11:48:57",165975,4,"task-gjqt",NA,35159664,10389981,NA,"complete",NA,"65cd338a0239a19d29ad36c2","computer","Desktop or Laptop","Mac OS 10.15.7","Chrome 121.0.0.0","1440x900","1440x779",NA,NA,0,"BIQ (Charlotte)",3,"FGEHDICJBA","Passed AC2",NA,"Spreadsheet1",1,"BIQ","Screen 3","iz3the",3,"response","0",7616.29999999999,21882.3,21893.8999999999,7616.29999999999,21882.3,21893.8999999999,1,7616.29999999999,14277.5999999999,0,NA,"Rating Scale","Rating Scale",2,"object-53","BIQ",NA,"SUPPRF20506"
"12",1707947337352,"14/02/2024 21:48:57",1707929337352,-5,"14/02/2024 11:48:57",165975,4,"task-gjqt",NA,35159664,10389981,NA,"complete",NA,"65cd338a0239a19d29ad36c2","computer","Desktop or Laptop","Mac OS 10.15.7","Chrome 121.0.0.0","1440x900","1440x779",NA,NA,0,"BIQ (Charlotte)",3,"FGEHDICJBA","Passed AC2",NA,"Spreadsheet1",1,"BIQ","Screen 3","iz3the",3,"response","0",17432.2,21882.3,21894.3999999999,17432.2,21882.3,21894.3999999999,1,17432.2,4462.1999999999,0,NA,"Rating Scale","Rating Scale",9,"object-60","BIQ",NA,"SUPPRF20506"
"13",1707947337353,"14/02/2024 21:48:57",1707929337353,-5,"14/02/2024 11:48:57",165975,4,"task-gjqt",NA,35159664,10389981,NA,"complete",NA,"65cd338a0239a19d29ad36c2","computer","Desktop or Laptop","Mac OS 10.15.7","Chrome 121.0.0.0","1440x900","1440x779",NA,NA,0,"BIQ (Charlotte)",3,"FGEHDICJBA","Passed AC2",NA,"Spreadsheet1",1,"BIQ","Screen 3","iz3the",3,"response","0",21082.8,21882.3,21894.8,21082.8,21882.3,21894.8,1,21082.8,812.000000000058,0,NA,"Rating Scale","Rating Scale",16,"object-67","BIQ",NA,"SUPPRF20506"
"14",1707947337358,"14/02/2024 21:48:57",1707929337358,-5,"14/02/2024 11:48:57",165975,4,"task-gjqt",NA,35159664,10389981,NA,"complete",NA,"65cd338a0239a19d29ad36c2","computer","Desktop or Laptop","Mac OS 10.15.7","Chrome 121.0.0.0","1440x900","1440x779",NA,NA,0,"BIQ (Charlotte)",3,"FGEHDICJBA","Passed AC2",NA,"Spreadsheet1",NA,"","","",NA,"5","END",NA,NA,NA,NA,NA,NA,0,NA,NA,NA,NA,"","",NA,"","",NA,"SUPPRF20506"
"1",1707947098315,"14/02/2024 21:44:58",1707929098315,-5,"14/02/2024 11:44:58",165975,4,"task-gjqt",NA,35159639,10389987,NA,"complete",NA,"65cd33dfef34c8f5a60aecef","computer","Desktop or Laptop","Windows 10","Chrome 120.0.0.0","1920x1080","1920x919",NA,NA,0,"BIQ (Charlotte)",3,"EFDGCHBIAJ","Passed AC2",NA,"Spreadsheet1",NA,"","","",NA,"5","BEGIN",NA,NA,NA,NA,NA,NA,0,NA,NA,NA,NA,"","",NA,"","",NA,"SUPPRF86890"
"2",1707947108188,"14/02/2024 21:45:08",1707929108188,-5,"14/02/2024 11:45:08",165975,4,"task-gjqt",NA,35159639,10389987,NA,"complete",NA,"65cd33dfef34c8f5a60aecef","computer","Desktop or Laptop","Windows 10","Chrome 120.0.0.0","1920x1080","1920x919",NA,NA,0,"BIQ (Charlotte)",3,"EFDGCHBIAJ","Passed AC2",NA,"Spreadsheet1",1,"BIQ","Screen 1","9dh6eq",1,"continue","",9890.8,9874.2,9890.8,9890.8,9874.2,9890.8,1,9890.8,0,0,NA,"Click To Continue","Continue Button",23,"object-48","BIQ",NA,"SUPPRF86890"
"3",1707947108189,"14/02/2024 21:45:08",1707929108189,-5,"14/02/2024 11:45:08",165975,4,"task-gjqt",NA,35159639,10389987,NA,"complete",NA,"65cd33dfef34c8f5a60aecef","computer","Desktop or Laptop","Windows 10","Chrome 120.0.0.0","1920x1080","1920x919",NA,NA,0,"BIQ (Charlotte)",3,"EFDGCHBIAJ","Passed AC2",NA,"Spreadsheet1",1,"BIQ","Screen 1","9dh6eq",1,"response","6",6776.8,9874.2,9890.9,6776.8,9874.2,9890.9,1,6776.8,3114.1,0,NA,"Rating Scale","Rating Scale",3,"object-5","BIQ",NA,"SUPPRF86890"
"4",1707947108189,"14/02/2024 21:45:08",1707929108189,-5,"14/02/2024 11:45:08",165975,4,"task-gjqt",NA,35159639,10389987,NA,"complete",NA,"65cd33dfef34c8f5a60aecef","computer","Desktop or Laptop","Windows 10","Chrome 120.0.0.0","1920x1080","1920x919",NA,NA,0,"BIQ (Charlotte)",3,"EFDGCHBIAJ","Passed AC2",NA,"Spreadsheet1",1,"BIQ","Screen 1","9dh6eq",1,"response","8",8558.6,9874.2,9890.9,8558.6,9874.2,9890.9,1,8558.6,1332.3,0,NA,"Rating Scale","Rating Scale",10,"object-18","BIQ",NA,"SUPPRF86890"
"5",1707947108189,"14/02/2024 21:45:08",1707929108189,-5,"14/02/2024 11:45:08",165975,4,"task-gjqt",NA,35159639,10389987,NA,"complete",NA,"65cd33dfef34c8f5a60aecef","computer","Desktop or Laptop","Windows 10","Chrome 120.0.0.0","1920x1080","1920x919",NA,NA,0,"BIQ (Charlotte)",3,"EFDGCHBIAJ","Passed AC2",NA,"Spreadsheet1",1,"BIQ","Screen 1","9dh6eq",1,"response","7",9091.6,9874.2,9890.9,9091.6,9874.2,9890.9,1,9091.6,799.300000000001,0,NA,"Rating Scale","Rating Scale",17,"object-80","BIQ",NA,"SUPPRF86890"
"6",1707947111583,"14/02/2024 21:45:11",1707929111583,-5,"14/02/2024 11:45:11",165975,4,"task-gjqt",NA,35159639,10389987,NA,"complete",NA,"65cd33dfef34c8f5a60aecef","computer","Desktop or Laptop","Windows 10","Chrome 120.0.0.0","1920x1080","1920x919",NA,NA,0,"BIQ (Charlotte)",3,"EFDGCHBIAJ","Passed AC2",NA,"Spreadsheet1",1,"BIQ","Screen 2","o21mwi",2,"continue","",3412.20000002384,3397.3,3412.20000002384,3412.20000002384,3397.3,3412.20000002384,1,3412.20000002384,0,0,NA,"Click To Continue","Continue Button",22,"object-50","BIQ",NA,"SUPPRF86890"
"7",1707947111586,"14/02/2024 21:45:11",1707929111586,-5,"14/02/2024 11:45:11",165975,4,"task-gjqt",NA,35159639,10389987,NA,"complete",NA,"65cd33dfef34c8f5a60aecef","computer","Desktop or Laptop","Windows 10","Chrome 120.0.0.0","1920x1080","1920x919",NA,NA,0,"BIQ (Charlotte)",3,"EFDGCHBIAJ","Passed AC2",NA,"Spreadsheet1",1,"BIQ","Screen 2","o21mwi",2,"response","7",1315.6,3397.3,3414,1315.6,3397.3,3414,1,1315.6,2098.4,0,NA,"Rating Scale","Rating Scale",2,"object-259","BIQ",NA,"SUPPRF86890"
"8",1707947111586,"14/02/2024 21:45:11",1707929111586,-5,"14/02/2024 11:45:11",165975,4,"task-gjqt",NA,35159639,10389987,NA,"complete",NA,"65cd33dfef34c8f5a60aecef","computer","Desktop or Laptop","Windows 10","Chrome 120.0.0.0","1920x1080","1920x919",NA,NA,0,"BIQ (Charlotte)",3,"EFDGCHBIAJ","Passed AC2",NA,"Spreadsheet1",1,"BIQ","Screen 2","o21mwi",2,"response","6",2115,3397.3,3414,2115,3397.3,3414,1,2115,1299,0,NA,"Rating Scale","Rating Scale",9,"object-36","BIQ",NA,"SUPPRF86890"
"9",1707947111586,"14/02/2024 21:45:11",1707929111586,-5,"14/02/2024 11:45:11",165975,4,"task-gjqt",NA,35159639,10389987,NA,"complete",NA,"65cd33dfef34c8f5a60aecef","computer","Desktop or Laptop","Windows 10","Chrome 120.0.0.0","1920x1080","1920x919",NA,NA,0,"BIQ (Charlotte)",3,"EFDGCHBIAJ","Passed AC2",NA,"Spreadsheet1",1,"BIQ","Screen 2","o21mwi",2,"response","7",2631.3,3397.3,3414,2631.3,3397.3,3414,1,2631.3,782.700000000001,0,NA,"Rating Scale","Rating Scale",16,"object-86","BIQ",NA,"SUPPRF86890"
"10",1707947118218,"14/02/2024 21:45:18",1707929118218,-5,"14/02/2024 11:45:18",165975,4,"task-gjqt",NA,35159639,10389987,NA,"complete",NA,"65cd33dfef34c8f5a60aecef","computer","Desktop or Laptop","Windows 10","Chrome 120.0.0.0","1920x1080","1920x919",NA,NA,0,"BIQ (Charlotte)",3,"EFDGCHBIAJ","Passed AC2",NA,"Spreadsheet1",1,"BIQ","Screen 3","iz3the",3,"continue","",6648.99999998808,6644.4,6648.99999998808,6648.99999998808,6644.4,6648.99999998808,1,6648.99999998808,0,0,NA,"Click To Continue","Continue Button",22,"object-73","BIQ",NA,"SUPPRF86890"
"11",1707947118218,"14/02/2024 21:45:18",1707929118218,-5,"14/02/2024 11:45:18",165975,4,"task-gjqt",NA,35159639,10389987,NA,"complete",NA,"65cd33dfef34c8f5a60aecef","computer","Desktop or Laptop","Windows 10","Chrome 120.0.0.0","1920x1080","1920x919",NA,NA,0,"BIQ (Charlotte)",3,"EFDGCHBIAJ","Passed AC2",NA,"Spreadsheet1",1,"BIQ","Screen 3","iz3the",3,"response","6",2348.1,6644.4,6649.60000001192,2348.1,6644.4,6649.60000001192,1,2348.1,4301.50000001192,0,NA,"Rating Scale","Rating Scale",2,"object-53","BIQ",NA,"SUPPRF86890"
"12",1707947118219,"14/02/2024 21:45:18",1707929118219,-5,"14/02/2024 11:45:18",165975,4,"task-gjqt",NA,35159639,10389987,NA,"complete",NA,"65cd33dfef34c8f5a60aecef","computer","Desktop or Laptop","Windows 10","Chrome 120.0.0.0","1920x1080","1920x919",NA,NA,0,"BIQ (Charlotte)",3,"EFDGCHBIAJ","Passed AC2",NA,"Spreadsheet1",1,"BIQ","Screen 3","iz3the",3,"response","7",2864.2,6644.4,6649.90000002384,2864.2,6644.4,6649.90000002384,1,2864.2,3785.70000002384,0,NA,"Rating Scale","Rating Scale",9,"object-60","BIQ",NA,"SUPPRF86890"
"13",1707947118219,"14/02/2024 21:45:18",1707929118219,-5,"14/02/2024 11:45:18",165975,4,"task-gjqt",NA,35159639,10389987,NA,"complete",NA,"65cd33dfef34c8f5a60aecef","computer","Desktop or Laptop","Windows 10","Chrome 120.0.0.0","1920x1080","1920x919",NA,NA,0,"BIQ (Charlotte)",3,"EFDGCHBIAJ","Passed AC2",NA,"Spreadsheet1",1,"BIQ","Screen 3","iz3the",3,"response","4",4529.6,6644.4,6650.40000002384,4529.6,6644.4,6650.40000002384,1,4529.6,2120.80000002384,0,NA,"Rating Scale","Rating Scale",16,"object-67","BIQ",NA,"SUPPRF86890"
"14",1707947118220,"14/02/2024 21:45:18",1707929118220,-5,"14/02/2024 11:45:18",165975,4,"task-gjqt",NA,35159639,10389987,NA,"complete",NA,"65cd33dfef34c8f5a60aecef","computer","Desktop or Laptop","Windows 10","Chrome 120.0.0.0","1920x1080","1920x919",NA,NA,0,"BIQ (Charlotte)",3,"EFDGCHBIAJ","Passed AC2",NA,"Spreadsheet1",NA,"","","",NA,"5","END",NA,NA,NA,NA,NA,NA,0,NA,NA,NA,NA,"","",NA,"","",NA,"SUPPRF86890"
"1",1707949990572,"14/02/2024 22:33:10",1707953590572,1,"15/02/2024 00:33:10",165975,4,"task-gjqt",NA,35160783,10390088,NA,"complete",NA,"65cd38310bb5765ca0640f9b","computer","Desktop or Laptop","Windows 10","Chrome 121.0.0.0","1366x768","1366x641",NA,NA,0,"BIQ (Charlotte)",3,"JAIBHCGDFE","Passed AC2",NA,"Spreadsheet1",NA,"","","",NA,"5","BEGIN",NA,NA,NA,NA,NA,NA,0,NA,NA,NA,NA,"","",NA,"","",NA,"SUPPRF75152"
"2",1707950163114,"14/02/2024 22:36:03",1707953763114,1,"15/02/2024 00:36:03",165975,4,"task-gjqt",NA,35160783,10390088,NA,"complete",NA,"65cd38310bb5765ca0640f9b","computer","Desktop or Laptop","Windows 10","Chrome 121.0.0.0","1366x768","1366x641",NA,NA,0,"BIQ (Charlotte)",3,"JAIBHCGDFE","Passed AC2",NA,"Spreadsheet1",1,"BIQ","Screen 1","9dh6eq",1,"continue","",172557.912,172532.812,172557.912,172557.912,172532.812,172557.912,1,172557.912,0,0,NA,"Click To Continue","Continue Button",23,"object-48","BIQ",NA,"SUPPRF75152"
"3",1707950163120,"14/02/2024 22:36:03",1707953763120,1,"15/02/2024 00:36:03",165975,4,"task-gjqt",NA,35160783,10390088,NA,"complete",NA,"65cd38310bb5765ca0640f9b","computer","Desktop or Laptop","Windows 10","Chrome 121.0.0.0","1366x768","1366x641",NA,NA,0,"BIQ (Charlotte)",3,"JAIBHCGDFE","Passed AC2",NA,"Spreadsheet1",1,"BIQ","Screen 1","9dh6eq",1,"response","7",150061.712,172532.812,172557.912,150061.712,172532.812,172557.912,1,150061.712,22496.2,0,NA,"Rating Scale","Rating Scale",3,"object-5","BIQ",NA,"SUPPRF75152"
"4",1707950163122,"14/02/2024 22:36:03",1707953763122,1,"15/02/2024 00:36:03",165975,4,"task-gjqt",NA,35160783,10390088,NA,"complete",NA,"65cd38310bb5765ca0640f9b","computer","Desktop or Laptop","Windows 10","Chrome 121.0.0.0","1366x768","1366x641",NA,NA,0,"BIQ (Charlotte)",3,"JAIBHCGDFE","Passed AC2",NA,"Spreadsheet1",1,"BIQ","Screen 1","9dh6eq",1,"response","6",161535.312,172532.812,172557.912,161535.312,172532.812,172557.912,1,161535.312,11022.6,0,NA,"Rating Scale","Rating Scale",10,"object-18","BIQ",NA,"SUPPRF75152"
"5",1707950163123,"14/02/2024 22:36:03",1707953763123,1,"15/02/2024 00:36:03",165975,4,"task-gjqt",NA,35160783,10390088,NA,"complete",NA,"65cd38310bb5765ca0640f9b","computer","Desktop or Laptop","Windows 10","Chrome 121.0.0.0","1366x768","1366x641",NA,NA,0,"BIQ (Charlotte)",3,"JAIBHCGDFE","Passed AC2",NA,"Spreadsheet1",1,"BIQ","Screen 1","9dh6eq",1,"response","7",171330.112,172532.812,172557.912,171330.112,172532.812,172557.912,1,171330.112,1227.80000000002,0,NA,"Rating Scale","Rating Scale",17,"object-80","BIQ",NA,"SUPPRF75152"
"6",1707950254632,"14/02/2024 22:37:34",1707953854632,1,"15/02/2024 00:37:34",165975,4,"task-gjqt",NA,35160783,10390088,NA,"complete",NA,"65cd38310bb5765ca0640f9b","computer","Desktop or Laptop","Windows 10","Chrome 121.0.0.0","1366x768","1366x641",NA,NA,0,"BIQ (Charlotte)",3,"JAIBHCGDFE","Passed AC2",NA,"Spreadsheet1",1,"BIQ","Screen 2","o21mwi",2,"continue","",91554.2000000004,91537,91554.2000000004,91554.2000000004,91537,91554.2000000004,1,91554.2000000004,0,0,NA,"Click To Continue","Continue Button",22,"object-50","BIQ",NA,"SUPPRF75152"
"7",1707950254641,"14/02/2024 22:37:34",1707953854641,1,"15/02/2024 00:37:34",165975,4,"task-gjqt",NA,35160783,10390088,NA,"complete",NA,"65cd38310bb5765ca0640f9b","computer","Desktop or Laptop","Windows 10","Chrome 121.0.0.0","1366x768","1366x641",NA,NA,0,"BIQ (Charlotte)",3,"JAIBHCGDFE","Passed AC2",NA,"Spreadsheet1",1,"BIQ","Screen 2","o21mwi",2,"response","7",6938.89999999999,91537,91562.0000000011,6938.89999999999,91537,91562.0000000011,1,6938.89999999999,84623.1000000011,0,NA,"Rating Scale","Rating Scale",2,"object-259","BIQ",NA,"SUPPRF75152"
"8",1707950254643,"14/02/2024 22:37:34",1707953854643,1,"15/02/2024 00:37:34",165975,4,"task-gjqt",NA,35160783,10390088,NA,"complete",NA,"65cd38310bb5765ca0640f9b","computer","Desktop or Laptop","Windows 10","Chrome 121.0.0.0","1366x768","1366x641",NA,NA,0,"BIQ (Charlotte)",3,"JAIBHCGDFE","Passed AC2",NA,"Spreadsheet1",1,"BIQ","Screen 2","o21mwi",2,"response","7",79011.6,91537,91562.1,79011.6,91537,91562.1,1,79011.6,12550.5000000001,0,NA,"Rating Scale","Rating Scale",9,"object-36","BIQ",NA,"SUPPRF75152"
"9",1707950254645,"14/02/2024 22:37:34",1707953854645,1,"15/02/2024 00:37:34",165975,4,"task-gjqt",NA,35160783,10390088,NA,"complete",NA,"65cd38310bb5765ca0640f9b","computer","Desktop or Laptop","Windows 10","Chrome 121.0.0.0","1366x768","1366x641",NA,NA,0,"BIQ (Charlotte)",3,"JAIBHCGDFE","Passed AC2",NA,"Spreadsheet1",1,"BIQ","Screen 2","o21mwi",2,"response","7",90334.3,91537,91562.1,90334.3,91537,91562.1,1,90334.3,1227.80000000005,0,NA,"Rating Scale","Rating Scale",16,"object-86","BIQ",NA,"SUPPRF75152"
"10",1707950315413,"14/02/2024 22:38:35",1707953915413,1,"15/02/2024 00:38:35",165975,4,"task-gjqt",NA,35160783,10390088,NA,"complete",NA,"65cd38310bb5765ca0640f9b","computer","Desktop or Laptop","Windows 10","Chrome 121.0.0.0","1366x768","1366x641",NA,NA,0,"BIQ (Charlotte)",3,"JAIBHCGDFE","Passed AC2",NA,"Spreadsheet1",1,"BIQ","Screen 3","iz3the",3,"continue","",60798.0000000011,60774.1,60798.0000000011,60798.0000000011,60774.1,60798.0000000011,1,60798.0000000011,0,0,NA,"Click To Continue","Continue Button",22,"object-73","BIQ",NA,"SUPPRF75152"
"11",1707950315420,"14/02/2024 22:38:35",1707953915420,1,"15/02/2024 00:38:35",165975,4,"task-gjqt",NA,35160783,10390088,NA,"complete",NA,"65cd38310bb5765ca0640f9b","computer","Desktop or Laptop","Windows 10","Chrome 121.0.0.0","1366x768","1366x641",NA,NA,0,"BIQ (Charlotte)",3,"JAIBHCGDFE","Passed AC2",NA,"Spreadsheet1",1,"BIQ","Screen 3","iz3the",3,"response","7",48590.3,60774.1,60799.2,48590.3,60774.1,60799.2,1,48590.3,12208.9,0,NA,"Rating Scale","Rating Scale",2,"object-53","BIQ",NA,"SUPPRF75152"
"12",1707950315423,"14/02/2024 22:38:35",1707953915423,1,"15/02/2024 00:38:35",165975,4,"task-gjqt",NA,35160783,10390088,NA,"complete",NA,"65cd38310bb5765ca0640f9b","computer","Desktop or Laptop","Windows 10","Chrome 121.0.0.0","1366x768","1366x641",NA,NA,0,"BIQ (Charlotte)",3,"JAIBHCGDFE","Passed AC2",NA,"Spreadsheet1",1,"BIQ","Screen 3","iz3the",3,"response","7",53233.5,60774.1,60799.2,53233.5,60774.1,60799.2,1,53233.5,7565.69999999995,0,NA,"Rating Scale","Rating Scale",9,"object-60","BIQ",NA,"SUPPRF75152"
