Event.Index,UTC.Timestamp,UTC.Date.and.Time,Local.Timestamp,Local.Timezone,Local.Date.and.Time,Experiment.ID,Experiment.Version,Tree.Node.Key,Repeat.Key,Schedule.ID,Participant.Private.ID,Participant.Starting.Group,Participant.Status,Participant.Completion.Code,Participant.External.Session.ID,Participant.Device.Type,Participant.Device,Participant.OS,Participant.Browser,Participant.Monitor.Size,Participant.Viewport.Size,Checkpoint,Room.ID,Room.Order,Task.Name,Task.Version,order.ot79,branch.g31k,branch.5gtn,Spreadsheet,Trial.Number,Display,Screen,Screen.ID,Screen.Counter,Response.Type,Response,Onset.Time,Clock.Time,Reaction.Time,Absolute.Onset.Time,Absolute.Clock.Time,Absolute.Reaction.Time,Correct,Response.Onset,Response.Duration,Proportion,Tag,Component.Name,Object.Name,Object.Number,Object.ID,Spreadsheet..display,Manipulation..Spreadsheet,Random_ID
1,1.70794E+12,14/02/2024 19:52,1.70794E+12,0,14/02/2024 19:52,165975,4,task-gjqt,NA,35156861,10389048,NA,complete,NA,65cd1867a8c70a340c80a8be,computer,Desktop or Laptop,Windows 10,Chrome 121.0.0.0,1920x1080,1920x911,NA,NA,0,BIQ (Charlotte),3,ABJCIDHEGF,Passed AC2,NA,Spreadsheet1,NA,,,,NA,5,BEGIN,NA,NA,NA,NA,NA,NA,0,NA,NA,NA,NA,,,NA,,,NA,SUPPRF64725
2,1.70794E+12,14/02/2024 19:52,1.70794E+12,0,14/02/2024 19:52,165975,4,task-gjqt,NA,35156861,10389048,NA,complete,NA,65cd1867a8c70a340c80a8be,computer,Desktop or Laptop,Windows 10,Chrome 121.0.0.0,1920x1080,1920x911,NA,NA,0,BIQ (Charlotte),3,ABJCIDHEGF,Passed AC2,NA,Spreadsheet1,1,BIQ,Screen 1,9dh6eq,1,continue,,23864.7,23860.9,23864.7,23864.7,23860.9,23864.7,1,23864.7,0,0,NA,Click To Continue,Continue Button,23,object-48,BIQ,NA,SUPPRF64725
3,1.70794E+12,14/02/2024 19:52,1.70794E+12,0,14/02/2024 19:52,165975,4,task-gjqt,NA,35156861,10389048,NA,complete,NA,65cd1867a8c70a340c80a8be,computer,Desktop or Laptop,Windows 10,Chrome 121.0.0.0,1920x1080,1920x911,NA,NA,0,BIQ (Charlotte),3,ABJCIDHEGF,Passed AC2,NA,Spreadsheet1,1,BIQ,Screen 1,9dh6eq,1,response,7,8201.3,23860.9,23866,8201.3,23860.9,23866,1,8201.3,15664.7,0,NA,Rating Scale,Rating Scale,3,object-5,BIQ,NA,SUPPRF64725
4,1.70794E+12,14/02/2024 19:52,1.70794E+12,0,14/02/2024 19:52,165975,4,task-gjqt,NA,35156861,10389048,NA,complete,NA,65cd1867a8c70a340c80a8be,computer,Desktop or Laptop,Windows 10,Chrome 121.0.0.0,1920x1080,1920x911,NA,NA,0,BIQ (Charlotte),3,ABJCIDHEGF,Passed AC2,NA,Spreadsheet1,1,BIQ,Screen 1,9dh6eq,1,response,5,10889.2,23860.9,23866.1,10889.2,23860.9,23866.1,1,10889.2,12976.9,0,NA,Rating Scale,Rating Scale,10,object-18,BIQ,NA,SUPPRF64725
5,1.70794E+12,14/02/2024 19:52,1.70794E+12,0,14/02/2024 19:52,165975,4,task-gjqt,NA,35156861,10389048,NA,complete,NA,65cd1867a8c70a340c80a8be,computer,Desktop or Laptop,Windows 10,Chrome 121.0.0.0,1920x1080,1920x911,NA,NA,0,BIQ (Charlotte),3,ABJCIDHEGF,Passed AC2,NA,Spreadsheet1,1,BIQ,Screen 1,9dh6eq,1,response,2,11659.6,23860.9,23866.2,11659.6,23860.9,23866.2,1,11659.6,12206.6,0,NA,Rating Scale,Rating Scale,17,object-80,BIQ,NA,SUPPRF64725
6,1.70794E+12,14/02/2024 19:53,1.70794E+12,0,14/02/2024 19:53,165975,4,task-gjqt,NA,35156861,10389048,NA,complete,NA,65cd1867a8c70a340c80a8be,computer,Desktop or Laptop,Windows 10,Chrome 121.0.0.0,1920x1080,1920x911,NA,NA,0,BIQ (Charlotte),3,ABJCIDHEGF,Passed AC2,NA,Spreadsheet1,1,BIQ,Screen 2,o21mwi,2,continue,,17690.6,17687.4,17690.6,17690.6,17687.4,17690.6,1,17690.6,0,0,NA,Click To Continue,Continue Button,22,object-50,BIQ,NA,SUPPRF64725
7,1.70794E+12,14/02/2024 19:53,1.70794E+12,0,14/02/2024 19:53,165975,4,task-gjqt,NA,35156861,10389048,NA,complete,NA,65cd1867a8c70a340c80a8be,computer,Desktop or Laptop,Windows 10,Chrome 121.0.0.0,1920x1080,1920x911,NA,NA,0,BIQ (Charlotte),3,ABJCIDHEGF,Passed AC2,NA,Spreadsheet1,1,BIQ,Screen 2,o21mwi,2,response,8,6868,17687.4,17691.8,6868,17687.4,17691.8,1,6868,10823.8,0,NA,Rating Scale,Rating Scale,2,object-259,BIQ,NA,SUPPRF64725
8,1.70794E+12,14/02/2024 19:53,1.70794E+12,0,14/02/2024 19:53,165975,4,task-gjqt,NA,35156861,10389048,NA,complete,NA,65cd1867a8c70a340c80a8be,computer,Desktop or Laptop,Windows 10,Chrome 121.0.0.0,1920x1080,1920x911,NA,NA,0,BIQ (Charlotte),3,ABJCIDHEGF,Passed AC2,NA,Spreadsheet1,1,BIQ,Screen 2,o21mwi,2,response,0,12402.6,17687.4,17692,12402.6,17687.4,17692,1,12402.6,5289.4,0,NA,Rating Scale,Rating Scale,9,object-36,BIQ,NA,SUPPRF64725
9,1.70794E+12,14/02/2024 19:53,1.70794E+12,0,14/02/2024 19:53,165975,4,task-gjqt,NA,35156861,10389048,NA,complete,NA,65cd1867a8c70a340c80a8be,computer,Desktop or Laptop,Windows 10,Chrome 121.0.0.0,1920x1080,1920x911,NA,NA,0,BIQ (Charlotte),3,ABJCIDHEGF,Passed AC2,NA,Spreadsheet1,1,BIQ,Screen 2,o21mwi,2,response,0,15791.6,17687.4,17692.1,15791.6,17687.4,17692.1,1,15791.6,1900.5,0,NA,Rating Scale,Rating Scale,16,object-86,BIQ,NA,SUPPRF64725
10,1.70794E+12,14/02/2024 19:53,1.70794E+12,0,14/02/2024 19:53,165975,4,task-gjqt,NA,35156861,10389048,NA,complete,NA,65cd1867a8c70a340c80a8be,computer,Desktop or Laptop,Windows 10,Chrome 121.0.0.0,1920x1080,1920x911,NA,NA,0,BIQ (Charlotte),3,ABJCIDHEGF,Passed AC2,NA,Spreadsheet1,1,BIQ,Screen 3,iz3the,3,continue,,11491.1,11485.9,11491.1,11491.1,11485.9,11491.1,1,11491.1,0,0,NA,Click To Continue,Continue Button,22,object-73,BIQ,NA,SUPPRF64725
11,1.70794E+12,14/02/2024 19:53,1.70794E+12,0,14/02/2024 19:53,165975,4,task-gjqt,NA,35156861,10389048,NA,complete,NA,65cd1867a8c70a340c80a8be,computer,Desktop or Laptop,Windows 10,Chrome 121.0.0.0,1920x1080,1920x911,NA,NA,0,BIQ (Charlotte),3,ABJCIDHEGF,Passed AC2,NA,Spreadsheet1,1,BIQ,Screen 3,iz3the,3,response,0,7166.6,11485.9,11492.2,7166.6,11485.9,11492.2,1,7166.6,4325.6,0,NA,Rating Scale,Rating Scale,2,object-53,BIQ,NA,SUPPRF64725
12,1.70794E+12,14/02/2024 19:53,1.70794E+12,0,14/02/2024 19:53,165975,4,task-gjqt,NA,35156861,10389048,NA,complete,NA,65cd1867a8c70a340c80a8be,computer,Desktop or Laptop,Windows 10,Chrome 121.0.0.0,1920x1080,1920x911,NA,NA,0,BIQ (Charlotte),3,ABJCIDHEGF,Passed AC2,NA,Spreadsheet1,1,BIQ,Screen 3,iz3the,3,response,0,8583.2,11485.9,11492.3,8583.2,11485.9,11492.3,1,8583.2,2909.1,0,NA,Rating Scale,Rating Scale,9,object-60,BIQ,NA,SUPPRF64725
13,1.70794E+12,14/02/2024 19:53,1.70794E+12,0,14/02/2024 19:53,165975,4,task-gjqt,NA,35156861,10389048,NA,complete,NA,65cd1867a8c70a340c80a8be,computer,Desktop or Laptop,Windows 10,Chrome 121.0.0.0,1920x1080,1920x911,NA,NA,0,BIQ (Charlotte),3,ABJCIDHEGF,Passed AC2,NA,Spreadsheet1,1,BIQ,Screen 3,iz3the,3,response,0,10069.4,11485.9,11492.6,10069.4,11485.9,11492.6,1,10069.4,1423.2,0,NA,Rating Scale,Rating Scale,16,object-67,BIQ,NA,SUPPRF64725
14,1.70794E+12,14/02/2024 19:53,1.70794E+12,0,14/02/2024 19:53,165975,4,task-gjqt,NA,35156861,10389048,NA,complete,NA,65cd1867a8c70a340c80a8be,computer,Desktop or Laptop,Windows 10,Chrome 121.0.0.0,1920x1080,1920x911,NA,NA,0,BIQ (Charlotte),3,ABJCIDHEGF,Passed AC2,NA,Spreadsheet1,NA,,,,NA,5,END,NA,NA,NA,NA,NA,NA,0,NA,NA,NA,NA,,,NA,,,NA,SUPPRF64725
1,1.70794E+12,14/02/2024 19:56,1.70792E+12,-5,14/02/2024 09:56,165975,4,task-gjqt,NA,35156972,10389073,NA,complete,NA,65cd193ab210334c78dff783,computer,Desktop or Laptop,Mac OS 10.15.7,Chrome 120.0.0.0,1440x900,1440x684,NA,NA,0,BIQ (Charlotte),3,BCADJEIFHG,Passed AC2,NA,Spreadsheet1,NA,,,,NA,5,BEGIN,NA,NA,NA,NA,NA,NA,0,NA,NA,NA,NA,,,NA,,,NA,SUPPRF73357
2,1.70794E+12,14/02/2024 19:56,1.70792E+12,-5,14/02/2024 09:56,165975,4,task-gjqt,NA,35156972,10389073,NA,complete,NA,65cd193ab210334c78dff783,computer,Desktop or Laptop,Mac OS 10.15.7,Chrome 120.0.0.0,1440x900,1440x684,NA,NA,0,BIQ (Charlotte),3,BCADJEIFHG,Passed AC2,NA,Spreadsheet1,1,BIQ,Screen 1,9dh6eq,1,continue,,24911.7,24899.8,24911.7,24911.7,24899.8,24911.7,1,24911.7,0,0,NA,Click To Continue,Continue Button,23,object-48,BIQ,NA,SUPPRF73357
3,1.70794E+12,14/02/2024 19:56,1.70792E+12,-5,14/02/2024 09:56,165975,4,task-gjqt,NA,35156972,10389073,NA,complete,NA,65cd193ab210334c78dff783,computer,Desktop or Laptop,Mac OS 10.15.7,Chrome 120.0.0.0,1440x900,1440x684,NA,NA,0,BIQ (Charlotte),3,BCADJEIFHG,Passed AC2,NA,Spreadsheet1,1,BIQ,Screen 1,9dh6eq,1,response,6,12833.3,24899.8,24914.6,12833.3,24899.8,24914.6,1,12833.3,12081.3,0,NA,Rating Scale,Rating Scale,3,object-5,BIQ,NA,SUPPRF73357
4,1.70794E+12,14/02/2024 19:56,1.70792E+12,-5,14/02/2024 09:56,165975,4,task-gjqt,NA,35156972,10389073,NA,complete,NA,65cd193ab210334c78dff783,computer,Desktop or Laptop,Mac OS 10.15.7,Chrome 120.0.0.0,1440x900,1440x684,NA,NA,0,BIQ (Charlotte),3,BCADJEIFHG,Passed AC2,NA,Spreadsheet1,1,BIQ,Screen 1,9dh6eq,1,response,8,17483.1,24899.8,24915,17483.1,24899.8,24915,1,17483.1,7431.9,0,NA,Rating Scale,Rating Scale,10,object-18,BIQ,NA,SUPPRF73357
5,1.70794E+12,14/02/2024 19:56,1.70792E+12,-5,14/02/2024 09:56,165975,4,task-gjqt,NA,35156972,10389073,NA,complete,NA,65cd193ab210334c78dff783,computer,Desktop or Laptop,Mac OS 10.15.7,Chrome 120.0.0.0,1440x900,1440x684,NA,NA,0,BIQ (Charlotte),3,BCADJEIFHG,Passed AC2,NA,Spreadsheet1,1,BIQ,Screen 1,9dh6eq,1,response,0,19599.7,24899.8,24915.5,19599.7,24899.8,24915.5,1,19599.7,5315.8,0,NA,Rating Scale,Rating Scale,17,object-80,BIQ,NA,SUPPRF73357
6,1.70794E+12,14/02/2024 19:56,1.70792E+12,-5,14/02/2024 09:56,165975,4,task-gjqt,NA,35156972,10389073,NA,complete,NA,65cd193ab210334c78dff783,computer,Desktop or Laptop,Mac OS 10.15.7,Chrome 120.0.0.0,1440x900,1440x684,NA,NA,0,BIQ (Charlotte),3,BCADJEIFHG,Passed AC2,NA,Spreadsheet1,1,BIQ,Screen 2,o21mwi,2,continue,,10938.8,10933.1,10938.8,10938.8,10933.1,10938.8,1,10938.8,0,0,NA,Click To Continue,Continue Button,22,object-50,BIQ,NA,SUPPRF73357
7,1.70794E+12,14/02/2024 19:56,1.70792E+12,-5,14/02/2024 09:56,165975,4,task-gjqt,NA,35156972,10389073,NA,complete,NA,65cd193ab210334c78dff783,computer,Desktop or Laptop,Mac OS 10.15.7,Chrome 120.0.0.0,1440x900,1440x684,NA,NA,0,BIQ (Charlotte),3,BCADJEIFHG,Passed AC2,NA,Spreadsheet1,1,BIQ,Screen 2,o21mwi,2,response,8,6850,10933.1,10942.3,6850,10933.1,10942.3,1,6850,4092.3,0,NA,Rating Scale,Rating Scale,2,object-259,BIQ,NA,SUPPRF73357
8,1.70794E+12,14/02/2024 19:56,1.70792E+12,-5,14/02/2024 09:56,165975,4,task-gjqt,NA,35156972,10389073,NA,complete,NA,65cd193ab210334c78dff783,computer,Desktop or Laptop,Mac OS 10.15.7,Chrome 120.0.0.0,1440x900,1440x684,NA,NA,0,BIQ (Charlotte),3,BCADJEIFHG,Passed AC2,NA,Spreadsheet1,1,BIQ,Screen 2,o21mwi,2,response,0,9183.2,10933.1,10942.8,9183.2,10933.1,10942.8,1,9183.2,1759.6,0,NA,Rating Scale,Rating Scale,9,object-36,BIQ,NA,SUPPRF73357
9,1.70794E+12,14/02/2024 19:56,1.70792E+12,-5,14/02/2024 09:56,165975,4,task-gjqt,NA,35156972,10389073,NA,complete,NA,65cd193ab210334c78dff783,computer,Desktop or Laptop,Mac OS 10.15.7,Chrome 120.0.0.0,1440x900,1440x684,NA,NA,0,BIQ (Charlotte),3,BCADJEIFHG,Passed AC2,NA,Spreadsheet1,1,BIQ,Screen 2,o21mwi,2,response,0,10099.8,10933.1,10943.4,10099.8,10933.1,10943.4,1,10099.8,843.6,0,NA,Rating Scale,Rating Scale,16,object-86,BIQ,NA,SUPPRF73357
10,1.70794E+12,14/02/2024 19:56,1.70792E+12,-5,14/02/2024 09:56,165975,4,task-gjqt,NA,35156972,10389073,NA,complete,NA,65cd193ab210334c78dff783,computer,Desktop or Laptop,Mac OS 10.15.7,Chrome 120.0.0.0,1440x900,1440x684,NA,NA,0,BIQ (Charlotte),3,BCADJEIFHG,Passed AC2,NA,Spreadsheet1,1,BIQ,Screen 3,iz3the,3,continue,,10709.3,10699.9,10709.3,10709.3,10699.9,10709.3,1,10709.3,0,0,NA,Click To Continue,Continue Button,22,object-73,BIQ,NA,SUPPRF73357
11,1.70794E+12,14/02/2024 19:56,1.70792E+12,-5,14/02/2024 09:56,165975,4,task-gjqt,NA,35156972,10389073,NA,complete,NA,65cd193ab210334c78dff783,computer,Desktop or Laptop,Mac OS 10.15.7,Chrome 120.0.0.0,1440x900,1440x684,NA,NA,0,BIQ (Charlotte),3,BCADJEIFHG,Passed AC2,NA,Spreadsheet1,1,BIQ,Screen 3,iz3the,3,response,0,4816.5,10699.9,10712.2,4816.5,10699.9,10712.2,1,4816.5,5895.7,0,NA,Rating Scale,Rating Scale,2,object-53,BIQ,NA,SUPPRF73357
12,1.70794E+12,14/02/2024 19:56,1.70792E+12,-5,14/02/2024 09:56,165975,4,task-gjqt,NA,35156972,10389073,NA,complete,NA,65cd193ab210334c78dff783,computer,Desktop or Laptop,Mac OS 10.15.7,Chrome 120.0.0.0,1440x900,1440x684,NA,NA,0,BIQ (Charlotte),3,BCADJEIFHG,Passed AC2,NA,Spreadsheet1,1,BIQ,Screen 3,iz3the,3,response,0,6033.4,10699.9,10712.7,6033.4,10699.9,10712.7,1,6033.4,4679.3,0,NA,Rating Scale,Rating Scale,9,object-60,BIQ,NA,SUPPRF73357
13,1.70794E+12,14/02/2024 19:56,1.70792E+12,-5,14/02/2024 09:56,165975,4,task-gjqt,NA,35156972,10389073,NA,complete,NA,65cd193ab210334c78dff783,computer,Desktop or Laptop,Mac OS 10.15.7,Chrome 120.0.0.0,1440x900,1440x684,NA,NA,0,BIQ (Charlotte),3,BCADJEIFHG,Passed AC2,NA,Spreadsheet1,1,BIQ,Screen 3,iz3the,3,response,1,6733.3,10699.9,10713.2,6733.3,10699.9,10713.2,1,6733.3,3979.9,0,NA,Rating Scale,Rating Scale,16,object-67,BIQ,NA,SUPPRF73357
14,1.70794E+12,14/02/2024 19:56,1.70792E+12,-5,14/02/2024 09:56,165975,4,task-gjqt,NA,35156972,10389073,NA,complete,NA,65cd193ab210334c78dff783,computer,Desktop or Laptop,Mac OS 10.15.7,Chrome 120.0.0.0,1440x900,1440x684,NA,NA,0,BIQ (Charlotte),3,BCADJEIFHG,Passed AC2,NA,Spreadsheet1,NA,,,,NA,5,END,NA,NA,NA,NA,NA,NA,0,NA,NA,NA,NA,,,NA,,,NA,SUPPRF73357
1,1.70794E+12,14/02/2024 20:25,1.70794E+12,0,14/02/2024 20:25,165975,4,task-gjqt,NA,35157859,10389205,NA,complete,NA,65cd1c256f7be3af7ebb1a2d,computer,Desktop or Laptop,Mac OS 10.15.7,Chrome 121.0.0.0,1440x900,1420x707,NA,NA,0,BIQ (Charlotte),3,EFDGCHBIAJ,Passed AC2,NA,Spreadsheet1,NA,,,,NA,5,BEGIN,NA,NA,NA,NA,NA,NA,0,NA,NA,NA,NA,,,NA,,,NA,SUPPRF82095
2,1.70794E+12,14/02/2024 20:26,1.70794E+12,0,14/02/2024 20:26,165975,4,task-gjqt,NA,35157859,10389205,NA,complete,NA,65cd1c256f7be3af7ebb1a2d,computer,Desktop or Laptop,Mac OS 10.15.7,Chrome 121.0.0.0,1440x900,1420x707,NA,NA,0,BIQ (Charlotte),3,EFDGCHBIAJ,Passed AC2,NA,Spreadsheet1,1,BIQ,Screen 1,9dh6eq,1,continue,,67502.2,67485.5,67502.2,67502.2,67485.5,67502.2,1,67502.2,0,0,NA,Click To Continue,Continue Button,23,object-48,BIQ,NA,SUPPRF82095
3,1.70794E+12,14/02/2024 20:26,1.70794E+12,0,14/02/2024 20:26,165975,4,task-gjqt,NA,35157859,10389205,NA,complete,NA,65cd1c256f7be3af7ebb1a2d,computer,Desktop or Laptop,Mac OS 10.15.7,Chrome 121.0.0.0,1440x900,1420x707,NA,NA,0,BIQ (Charlotte),3,EFDGCHBIAJ,Passed AC2,NA,Spreadsheet1,1,BIQ,Screen 1,9dh6eq,1,response,6,34134.5,67485.5,67502.2,34134.5,67485.5,67502.2,1,34134.5,33367.7,0,NA,Rating Scale,Rating Scale,3,object-5,BIQ,NA,SUPPRF82095
4,1.70794E+12,14/02/2024 20:26,1.70794E+12,0,14/02/2024 20:26,165975,4,task-gjqt,NA,35157859,10389205,NA,complete,NA,65cd1c256f7be3af7ebb1a2d,computer,Desktop or Laptop,Mac OS 10.15.7,Chrome 121.0.0.0,1440x900,1420x707,NA,NA,0,BIQ (Charlotte),3,EFDGCHBIAJ,Passed AC2,NA,Spreadsheet1,1,BIQ,Screen 1,9dh6eq,1,response,8,46234.9,67485.5,67502.2,46234.9,67485.5,67502.2,1,46234.9,21267.3,0,NA,Rating Scale,Rating Scale,10,object-18,BIQ,NA,SUPPRF82095
5,1.70794E+12,14/02/2024 20:26,1.70794E+12,0,14/02/2024 20:26,165975,4,task-gjqt,NA,35157859,10389205,NA,complete,NA,65cd1c256f7be3af7ebb1a2d,computer,Desktop or Laptop,Mac OS 10.15.7,Chrome 121.0.0.0,1440x900,1420x707,NA,NA,0,BIQ (Charlotte),3,EFDGCHBIAJ,Passed AC2,NA,Spreadsheet1,1,BIQ,Screen 1,9dh6eq,1,response,0,65768.8,67485.5,67502.2,65768.8,67485.5,67502.2,1,65768.8,1733.4,0,NA,Rating Scale,Rating Scale,17,object-80,BIQ,NA,SUPPRF82095
6,1.70794E+12,14/02/2024 20:27,1.70794E+12,0,14/02/2024 20:27,165975,4,task-gjqt,NA,35157859,10389205,NA,complete,NA,65cd1c256f7be3af7ebb1a2d,computer,Desktop or Laptop,Mac OS 10.15.7,Chrome 121.0.0.0,1440x900,1420x707,NA,NA,0,BIQ (Charlotte),3,EFDGCHBIAJ,Passed AC2,NA,Spreadsheet1,1,BIQ,Screen 2,o21mwi,2,continue,,46699.7,46684.8,46699.7,46699.7,46684.8,46699.7,1,46699.7,0,0,NA,Click To Continue,Continue Button,22,object-50,BIQ,NA,SUPPRF82095
7,1.70794E+12,14/02/2024 20:27,1.70794E+12,0,14/02/2024 20:27,165975,4,task-gjqt,NA,35157859,10389205,NA,complete,NA,65cd1c256f7be3af7ebb1a2d,computer,Desktop or Laptop,Mac OS 10.15.7,Chrome 121.0.0.0,1440x900,1420x707,NA,NA,0,BIQ (Charlotte),3,EFDGCHBIAJ,Passed AC2,NA,Spreadsheet1,1,BIQ,Screen 2,o21mwi,2,response,8,7616.9,46684.8,46701.6,7616.9,46684.8,46701.6,1,7616.9,39084.7,0,NA,Rating Scale,Rating Scale,2,object-259,BIQ,NA,SUPPRF82095
8,1.70794E+12,14/02/2024 20:27,1.70794E+12,0,14/02/2024 20:27,165975,4,task-gjqt,NA,35157859,10389205,NA,complete,NA,65cd1c256f7be3af7ebb1a2d,computer,Desktop or Laptop,Mac OS 10.15.7,Chrome 121.0.0.0,1440x900,1420x707,NA,NA,0,BIQ (Charlotte),3,EFDGCHBIAJ,Passed AC2,NA,Spreadsheet1,1,BIQ,Screen 2,o21mwi,2,response,0,21883.2,46684.8,46701.6,21883.2,46684.8,46701.6,1,21883.2,24818.4,0,NA,Rating Scale,Rating Scale,9,object-36,BIQ,NA,SUPPRF82095
9,1.70794E+12,14/02/2024 20:27,1.70794E+12,0,14/02/2024 20:27,165975,4,task-gjqt,NA,35157859,10389205,NA,complete,NA,65cd1c256f7be3af7ebb1a2d,computer,Desktop or Laptop,Mac OS 10.15.7,Chrome 121.0.0.0,1440x900,1420x707,NA,NA,0,BIQ (Charlotte),3,EFDGCHBIAJ,Passed AC2,NA,Spreadsheet1,1,BIQ,Screen 2,o21mwi,2,response,0,44300.4,46684.8,46701.6,44300.4,46684.8,46701.6,1,44300.4,2401.2,0,NA,Rating Scale,Rating Scale,16,object-86,BIQ,NA,SUPPRF82095
10,1.70794E+12,14/02/2024 20:27,1.70794E+12,0,14/02/2024 20:27,165975,4,task-gjqt,NA,35157859,10389205,NA,complete,NA,65cd1c256f7be3af7ebb1a2d,computer,Desktop or Laptop,Mac OS 10.15.7,Chrome 121.0.0.0,1440x900,1420x707,NA,NA,0,BIQ (Charlotte),3,EFDGCHBIAJ,Passed AC2,NA,Spreadsheet1,1,BIQ,Screen 3,iz3the,3,continue,,47316.1,47301.3,47316.1,47316.1,47301.3,47316.1,1,47316.1,0,0,NA,Click To Continue,Continue Button,22,object-73,BIQ,NA,SUPPRF82095
11,1.70794E+12,14/02/2024 20:27,1.70794E+12,0,14/02/2024 20:27,165975,4,task-gjqt,NA,35157859,10389205,NA,complete,NA,65cd1c256f7be3af7ebb1a2d,computer,Desktop or Laptop,Mac OS 10.15.7,Chrome 121.0.0.0,1440x900,1420x707,NA,NA,0,BIQ (Charlotte),3,EFDGCHBIAJ,Passed AC2,NA,Spreadsheet1,1,BIQ,Screen 3,iz3the,3,response,0,19883.9,47301.3,47317.9,19883.9,47301.3,47317.9,1,19883.9,27434,0,NA,Rating Scale,Rating Scale,2,object-53,BIQ,NA,SUPPRF82095
12,1.70794E+12,14/02/2024 20:27,1.70794E+12,0,14/02/2024 20:27,165975,4,task-gjqt,NA,35157859,10389205,NA,complete,NA,65cd1c256f7be3af7ebb1a2d,computer,Desktop or Laptop,Mac OS 10.15.7,Chrome 121.0.0.0,1440x900,1420x707,NA,NA,0,BIQ (Charlotte),3,EFDGCHBIAJ,Passed AC2,NA,Spreadsheet1,1,BIQ,Screen 3,iz3the,3,response,0,27000.7,47301.3,47317.9,27000.7,47301.3,47317.9,1,27000.7,20317.2,0,NA,Rating Scale,Rating Scale,9,object-60,BIQ,NA,SUPPRF82095
13,1.70794E+12,14/02/2024 20:27,1.70794E+12,0,14/02/2024 20:27,165975,4,task-gjqt,NA,35157859,10389205,NA,complete,NA,65cd1c256f7be3af7ebb1a2d,computer,Desktop or Laptop,Mac OS 10.15.7,Chrome 121.0.0.0,1440x900,1420x707,NA,NA,0,BIQ (Charlotte),3,EFDGCHBIAJ,Passed AC2,NA,Spreadsheet1,1,BIQ,Screen 3,iz3the,3,response,2,42934.5,47301.3,47317.9,42934.5,47301.3,47317.9,1,42934.5,4383.4,0,NA,Rating Scale,Rating Scale,16,object-67,BIQ,NA,SUPPRF82095
14,1.70794E+12,14/02/2024 20:27,1.70794E+12,0,14/02/2024 20:27,165975,4,task-gjqt,NA,35157859,10389205,NA,complete,NA,65cd1c256f7be3af7ebb1a2d,computer,Desktop or Laptop,Mac OS 10.15.7,Chrome 121.0.0.0,1440x900,1420x707,NA,NA,0,BIQ (Charlotte),3,EFDGCHBIAJ,Passed AC2,NA,Spreadsheet1,NA,,,,NA,5,END,NA,NA,NA,NA,NA,NA,0,NA,NA,NA,NA,,,NA,,,NA,SUPPRF82095
1,1.70794E+12,14/02/2024 20:16,1.70792E+12,-6,14/02/2024 08:16,165975,4,task-gjqt,NA,35157634,10389250,NA,complete,NA,65cd1e48f963d201475b76d4,computer,Desktop or Laptop,Windows 10,Chrome 121.0.0.0,1920x1080,1920x953,NA,NA,0,BIQ (Charlotte),3,DECFBGAHJI,Passed AC2,NA,Spreadsheet1,NA,,,,NA,5,BEGIN,NA,NA,NA,NA,NA,NA,0,NA,NA,NA,NA,,,NA,,,NA,SUPPRF29203
2,1.70794E+12,14/02/2024 20:17,1.70792E+12,-6,14/02/2024 08:17,165975,4,task-gjqt,NA,35157634,10389250,NA,complete,NA,65cd1e48f963d201475b76d4,computer,Desktop or Laptop,Windows 10,Chrome 121.0.0.0,1920x1080,1920x953,NA,NA,0,BIQ (Charlotte),3,DECFBGAHJI,Passed AC2,NA,Spreadsheet1,1,BIQ,Screen 1,9dh6eq,1,continue,,24518.3,24513.8,24518.3,24518.3,24513.8,24518.3,1,24518.3,0,0,NA,Click To Continue,Continue Button,23,object-48,BIQ,NA,SUPPRF29203
3,1.70794E+12,14/02/2024 20:17,1.70792E+12,-6,14/02/2024 08:17,165975,4,task-gjqt,NA,35157634,10389250,NA,complete,NA,65cd1e48f963d201475b76d4,computer,Desktop or Laptop,Windows 10,Chrome 121.0.0.0,1920x1080,1920x953,NA,NA,0,BIQ (Charlotte),3,DECFBGAHJI,Passed AC2,NA,Spreadsheet1,1,BIQ,Screen 1,9dh6eq,1,response,6,12347.2,24513.8,24519.8,12347.2,24513.8,24519.8,1,12347.2,12172.6,0,NA,Rating Scale,Rating Scale,3,object-5,BIQ,NA,SUPPRF29203
4,1.70794E+12,14/02/2024 20:17,1.70792E+12,-6,14/02/2024 08:17,165975,4,task-gjqt,NA,35157634,10389250,NA,complete,NA,65cd1e48f963d201475b76d4,computer,Desktop or Laptop,Windows 10,Chrome 121.0.0.0,1920x1080,1920x953,NA,NA,0,BIQ (Charlotte),3,DECFBGAHJI,Passed AC2,NA,Spreadsheet1,1,BIQ,Screen 1,9dh6eq,1,response,1,17340.3,24513.8,24520.1,17340.3,24513.8,24520.1,1,17340.3,7179.8,0,NA,Rating Scale,Rating Scale,10,object-18,BIQ,NA,SUPPRF29203
5,1.70794E+12,14/02/2024 20:17,1.70792E+12,-6,14/02/2024 08:17,165975,4,task-gjqt,NA,35157634,10389250,NA,complete,NA,65cd1e48f963d201475b76d4,computer,Desktop or Laptop,Windows 10,Chrome 121.0.0.0,1920x1080,1920x953,NA,NA,0,BIQ (Charlotte),3,DECFBGAHJI,Passed AC2,NA,Spreadsheet1,1,BIQ,Screen 1,9dh6eq,1,response,7,21666.6,24513.8,24520.2,21666.6,24513.8,24520.2,1,21666.6,2853.6,0,NA,Rating Scale,Rating Scale,17,object-80,BIQ,NA,SUPPRF29203
6,1.70794E+12,14/02/2024 20:17,1.70792E+12,-6,14/02/2024 08:17,165975,4,task-gjqt,NA,35157634,10389250,NA,complete,NA,65cd1e48f963d201475b76d4,computer,Desktop or Laptop,Windows 10,Chrome 121.0.0.0,1920x1080,1920x953,NA,NA,0,BIQ (Charlotte),3,DECFBGAHJI,Passed AC2,NA,Spreadsheet1,1,BIQ,Screen 2,o21mwi,2,continue,,18895.7,18888.8,18895.7,18895.7,18888.8,18895.7,1,18895.7,0,0,NA,Click To Continue,Continue Button,22,object-50,BIQ,NA,SUPPRF29203
7,1.70794E+12,14/02/2024 20:17,1.70792E+12,-6,14/02/2024 08:17,165975,4,task-gjqt,NA,35157634,10389250,NA,complete,NA,65cd1e48f963d201475b76d4,computer,Desktop or Laptop,Windows 10,Chrome 121.0.0.0,1920x1080,1920x953,NA,NA,0,BIQ (Charlotte),3,DECFBGAHJI,Passed AC2,NA,Spreadsheet1,1,BIQ,Screen 2,o21mwi,2,response,7,5020.8,18888.8,18895.7,5020.8,18888.8,18895.7,1,5020.8,13874.9,0,NA,Rating Scale,Rating Scale,2,object-259,BIQ,NA,SUPPRF29203
8,1.70794E+12,14/02/2024 20:17,1.70792E+12,-6,14/02/2024 08:17,165975,4,task-gjqt,NA,35157634,10389250,NA,complete,NA,65cd1e48f963d201475b76d4,computer,Desktop or Laptop,Windows 10,Chrome 121.0.0.0,1920x1080,1920x953,NA,NA,0,BIQ (Charlotte),3,DECFBGAHJI,Passed AC2,NA,Spreadsheet1,1,BIQ,Screen 2,o21mwi,2,response,3,9798.6,18888.8,18895.7,9798.6,18888.8,18895.7,1,9798.6,9097.1,0,NA,Rating Scale,Rating Scale,9,object-36,BIQ,NA,SUPPRF29203
9,1.70794E+12,14/02/2024 20:17,1.70792E+12,-6,14/02/2024 08:17,165975,4,task-gjqt,NA,35157634,10389250,NA,complete,NA,65cd1e48f963d201475b76d4,computer,Desktop or Laptop,Windows 10,Chrome 121.0.0.0,1920x1080,1920x953,NA,NA,0,BIQ (Charlotte),3,DECFBGAHJI,Passed AC2,NA,Spreadsheet1,1,BIQ,Screen 2,o21mwi,2,response,1,18340.2,18888.8,18895.7,18340.2,18888.8,18895.7,1,18340.2,555.5,0,NA,Rating Scale,Rating Scale,16,object-86,BIQ,NA,SUPPRF29203
10,1.70794E+12,14/02/2024 20:17,1.70792E+12,-6,14/02/2024 08:17,165975,4,task-gjqt,NA,35157634,10389250,NA,complete,NA,65cd1e48f963d201475b76d4,computer,Desktop or Laptop,Windows 10,Chrome 121.0.0.0,1920x1080,1920x953,NA,NA,0,BIQ (Charlotte),3,DECFBGAHJI,Passed AC2,NA,Spreadsheet1,1,BIQ,Screen 3,iz3the,3,continue,,10425.1,10423.7,10425.1,10425.1,10423.7,10425.1,1,10425.1,0,0,NA,Click To Continue,Continue Button,22,object-73,BIQ,NA,SUPPRF29203
11,1.70794E+12,14/02/2024 20:17,1.70792E+12,-6,14/02/2024 08:17,165975,4,task-gjqt,NA,35157634,10389250,NA,complete,NA,65cd1e48f963d201475b76d4,computer,Desktop or Laptop,Windows 10,Chrome 121.0.0.0,1920x1080,1920x953,NA,NA,0,BIQ (Charlotte),3,DECFBGAHJI,Passed AC2,NA,Spreadsheet1,1,BIQ,Screen 3,iz3the,3,response,1,4729.1,10423.7,10426.7,4729.1,10423.7,10426.7,1,4729.1,5697.6,0,NA,Rating Scale,Rating Scale,2,object-53,BIQ,NA,SUPPRF29203
12,1.70794E+12,14/02/2024 20:17,1.70792E+12,-6,14/02/2024 08:17,165975,4,task-gjqt,NA,35157634,10389250,NA,complete,NA,65cd1e48f963d201475b76d4,computer,Desktop or Laptop,Windows 10,Chrome 121.0.0.0,1920x1080,1920x953,NA,NA,0,BIQ (Charlotte),3,DECFBGAHJI,Passed AC2,NA,Spreadsheet1,1,BIQ,Screen 3,iz3the,3,response,1,6694.5,10423.7,10427,6694.5,10423.7,10427,1,6694.5,3732.5,0,NA,Rating Scale,Rating Scale,9,object-60,BIQ,NA,SUPPRF29203
13,1.70794E+12,14/02/2024 20:17,1.70792E+12,-6,14/02/2024 08:17,165975,4,task-gjqt,NA,35157634,10389250,NA,complete,NA,65cd1e48f963d201475b76d4,computer,Desktop or Laptop,Windows 10,Chrome 121.0.0.0,1920x1080,1920x953,NA,NA,0,BIQ (Charlotte),3,DECFBGAHJI,Passed AC2,NA,Spreadsheet1,1,BIQ,Screen 3,iz3the,3,response,2,9638.8,10423.7,10427.2,9638.8,10423.7,10427.2,1,9638.8,788.4,0,NA,Rating Scale,Rating Scale,16,object-67,BIQ,NA,SUPPRF29203
14,1.70794E+12,14/02/2024 20:17,1.70792E+12,-6,14/02/2024 08:17,165975,4,task-gjqt,NA,35157634,10389250,NA,complete,NA,65cd1e48f963d201475b76d4,computer,Desktop or Laptop,Windows 10,Chrome 121.0.0.0,1920x1080,1920x953,NA,NA,0,BIQ (Charlotte),3,DECFBGAHJI,Passed AC2,NA,Spreadsheet1,NA,,,,NA,5,END,NA,NA,NA,NA,NA,NA,0,NA,NA,NA,NA,,,NA,,,NA,SUPPRF29203
1,1.70794E+12,14/02/2024 20:17,1.70794E+12,0,14/02/2024 20:17,165975,4,task-gjqt,NA,35157651,10389285,NA,complete,NA,65cd1f657ceb9cd7d4dfacc3,computer,Desktop or Laptop,Mac OS 10.15.7,Chrome 95.0.4638.54,1440x900,1440x821,NA,NA,0,BIQ (Charlotte),3,FGEHDICJBA,Passed AC2,NA,Spreadsheet1,NA,,,,NA,5,BEGIN,NA,NA,NA,NA,NA,NA,0,NA,NA,NA,NA,,,NA,,,NA,SUPPRF29384
2,1.70794E+12,14/02/2024 20:17,1.70794E+12,0,14/02/2024 20:17,165975,4,task-gjqt,NA,35157651,10389285,NA,complete,NA,65cd1f657ceb9cd7d4dfacc3,computer,Desktop or Laptop,Mac OS 10.15.7,Chrome 95.0.4638.54,1440x900,1440x821,NA,NA,0,BIQ (Charlotte),3,FGEHDICJBA,Passed AC2,NA,Spreadsheet1,1,BIQ,Screen 1,9dh6eq,1,continue,,17715.04,17701.477,17715.04,17715.04,17701.477,17715.04,1,17715.04,0,0,NA,Click To Continue,Continue Button,23,object-48,BIQ,NA,SUPPRF29384
3,1.70794E+12,14/02/2024 20:17,1.70794E+12,0,14/02/2024 20:17,165975,4,task-gjqt,NA,35157651,10389285,NA,complete,NA,65cd1f657ceb9cd7d4dfacc3,computer,Desktop or Laptop,Mac OS 10.15.7,Chrome 95.0.4638.54,1440x900,1440x821,NA,NA,0,BIQ (Charlotte),3,FGEHDICJBA,Passed AC2,NA,Spreadsheet1,1,BIQ,Screen 1,9dh6eq,1,response,2,7084.083,17701.477,17718.144,7084.083,17701.477,17718.144,1,7084.083,10634.061,0,NA,Rating Scale,Rating Scale,3,object-5,BIQ,NA,SUPPRF29384
4,1.70794E+12,14/02/2024 20:17,1.70794E+12,0,14/02/2024 20:17,165975,4,task-gjqt,NA,35157651,10389285,NA,complete,NA,65cd1f657ceb9cd7d4dfacc3,computer,Desktop or Laptop,Mac OS 10.15.7,Chrome 95.0.4638.54,1440x900,1440x821,NA,NA,0,BIQ (Charlotte),3,FGEHDICJBA,Passed AC2,NA,Spreadsheet1,1,BIQ,Screen 1,9dh6eq,1,response,7,12767.53,17701.477,17718.144,12767.53,17701.477,17718.144,1,12767.53,4950.614,0,NA,Rating Scale,Rating Scale,10,object-18,BIQ,NA,SUPPRF29384
5,1.70794E+12,14/02/2024 20:17,1.70794E+12,0,14/02/2024 20:17,165975,4,task-gjqt,NA,35157651,10389285,NA,complete,NA,65cd1f657ceb9cd7d4dfacc3,computer,Desktop or Laptop,Mac OS 10.15.7,Chrome 95.0.4638.54,1440x900,1440x821,NA,NA,0,BIQ (Charlotte),3,FGEHDICJBA,Passed AC2,NA,Spreadsheet1,1,BIQ,Screen 1,9dh6eq,1,response,6,17018.13,17701.477,17718.144,17018.13,17701.477,17718.144,1,17018.13,700.014,0,NA,Rating Scale,Rating Scale,17,object-80,BIQ,NA,SUPPRF29384
6,1.70794E+12,14/02/2024 20:17,1.70794E+12,0,14/02/2024 20:17,165975,4,task-gjqt,NA,35157651,10389285,NA,complete,NA,65cd1f657ceb9cd7d4dfacc3,computer,Desktop or Laptop,Mac OS 10.15.7,Chrome 95.0.4638.54,1440x900,1440x821,NA,NA,0,BIQ (Charlotte),3,FGEHDICJBA,Passed AC2,NA,Spreadsheet1,1,BIQ,Screen 2,o21mwi,2,continue,,14867.475,14850.808,14867.475,14867.475,14850.808,14867.475,1,14867.475,0,0,NA,Click To Continue,Continue Button,22,object-50,BIQ,NA,SUPPRF29384
7,1.70794E+12,14/02/2024 20:17,1.70794E+12,0,14/02/2024 20:17,165975,4,task-gjqt,NA,35157651,10389285,NA,complete,NA,65cd1f657ceb9cd7d4dfacc3,computer,Desktop or Laptop,Mac OS 10.15.7,Chrome 95.0.4638.54,1440x900,1440x821,NA,NA,0,BIQ (Charlotte),3,FGEHDICJBA,Passed AC2,NA,Spreadsheet1,1,BIQ,Screen 2,o21mwi,2,response,2,6866.804,14850.808,14867.475,6866.804,14850.808,14867.475,1,6866.804,8000.671,0,NA,Rating Scale,Rating Scale,2,object-259,BIQ,NA,SUPPRF29384
8,1.70794E+12,14/02/2024 20:17,1.70794E+12,0,14/02/2024 20:17,165975,4,task-gjqt,NA,35157651,10389285,NA,complete,NA,65cd1f657ceb9cd7d4dfacc3,computer,Desktop or Laptop,Mac OS 10.15.7,Chrome 95.0.4638.54,1440x900,1440x821,NA,NA,0,BIQ (Charlotte),3,FGEHDICJBA,Passed AC2,NA,Spreadsheet1,1,BIQ,Screen 2,o21mwi,2,response,8,11000.731,14850.808,14867.475,11000.731,14850.808,14867.475,1,11000.731,3866.744,0,NA,Rating Scale,Rating Scale,9,object-36,BIQ,NA,SUPPRF29384
9,1.70794E+12,14/02/2024 20:17,1.70794E+12,0,14/02/2024 20:17,165975,4,task-gjqt,NA,35157651,10389285,NA,complete,NA,65cd1f657ceb9cd7d4dfacc3,computer,Desktop or Laptop,Mac OS 10.15.7,Chrome 95.0.4638.54,1440x900,1440x821,NA,NA,0,BIQ (Charlotte),3,FGEHDICJBA,Passed AC2,NA,Spreadsheet1,1,BIQ,Screen 2,o21mwi,2,response,4,14184.128,14850.808,14867.475,14184.128,14850.808,14867.475,1,14184.128,683.347,0,NA,Rating Scale,Rating Scale,16,object-86,BIQ,NA,SUPPRF29384
10,1.70794E+12,14/02/2024 20:17,1.70794E+12,0,14/02/2024 20:17,165975,4,task-gjqt,NA,35157651,10389285,NA,complete,NA,65cd1f657ceb9cd7d4dfacc3,computer,Desktop or Laptop,Mac OS 10.15.7,Chrome 95.0.4638.54,1440x900,1440x821,NA,NA,0,BIQ (Charlotte),3,FGEHDICJBA,Passed AC2,NA,Spreadsheet1,1,BIQ,Screen 3,iz3the,3,continue,,12220.955,12217.372,12220.955,12220.955,12217.372,12220.955,1,12220.955,0,0,NA,Click To Continue,Continue Button,22,object-73,BIQ,NA,SUPPRF29384
11,1.70794E+12,14/02/2024 20:17,1.70794E+12,0,14/02/2024 20:17,165975,4,task-gjqt,NA,35157651,10389285,NA,complete,NA,65cd1f657ceb9cd7d4dfacc3,computer,Desktop or Laptop,Mac OS 10.15.7,Chrome 95.0.4638.54,1440x900,1440x821,NA,NA,0,BIQ (Charlotte),3,FGEHDICJBA,Passed AC2,NA,Spreadsheet1,1,BIQ,Screen 3,iz3the,3,response,5,4616.759,12217.372,12226.755,4616.759,12217.372,12226.755,1,4616.759,7609.996,0,NA,Rating Scale,Rating Scale,2,object-53,BIQ,NA,SUPPRF29384
12,1.70794E+12,14/02/2024 20:17,1.70794E+12,0,14/02/2024 20:17,165975,4,task-gjqt,NA,35157651,10389285,NA,complete,NA,65cd1f657ceb9cd7d4dfacc3,computer,Desktop or Laptop,Mac OS 10.15.7,Chrome 95.0.4638.54,1440x900,1440x821,NA,NA,0,BIQ (Charlotte),3,FGEHDICJBA,Passed AC2,NA,Spreadsheet1,1,BIQ,Screen 3,iz3the,3,response,5,8833.971,12217.372,12227.655,8833.971,12217.372,12227.655,1,8833.971,3393.684,0,NA,Rating Scale,Rating Scale,9,object-60,BIQ,NA,SUPPRF29384
13,1.70794E+12,14/02/2024 20:17,1.70794E+12,0,14/02/2024 20:17,165975,4,task-gjqt,NA,35157651,10389285,NA,complete,NA,65cd1f657ceb9cd7d4dfacc3,computer,Desktop or Laptop,Mac OS 10.15.7,Chrome 95.0.4638.54,1440x900,1440x821,NA,NA,0,BIQ (Charlotte),3,FGEHDICJBA,Passed AC2,NA,Spreadsheet1,1,BIQ,Screen 3,iz3the,3,response,8,11500.691,12217.372,12228.255,11500.691,12217.372,12228.255,1,11500.691,727.564,0,NA,Rating Scale,Rating Scale,16,object-67,BIQ,NA,SUPPRF29384
14,1.70794E+12,14/02/2024 20:17,1.70794E+12,0,14/02/2024 20:17,165975,4,task-gjqt,NA,35157651,10389285,NA,complete,NA,65cd1f657ceb9cd7d4dfacc3,computer,Desktop or Laptop,Mac OS 10.15.7,Chrome 95.0.4638.54,1440x900,1440x821,NA,NA,0,BIQ (Charlotte),3,FGEHDICJBA,Passed AC2,NA,Spreadsheet1,NA,,,,NA,5,END,NA,NA,NA,NA,NA,NA,0,NA,NA,NA,NA,,,NA,,,NA,SUPPRF29384
1,1.70794E+12,14/02/2024 20:49,1.70795E+12,1,14/02/2024 22:49,165975,4,task-gjqt,NA,35158452,10389435,NA,complete,NA,65cd2321df8f04f73b0873bb,computer,Desktop or Laptop,Windows 10,Chrome 107.0.0.0,1536x864,967x730,NA,NA,0,BIQ (Charlotte),3,GHFIEJDACB,Passed AC2,NA,Spreadsheet1,NA,,,,NA,5,BEGIN,NA,NA,NA,NA,NA,NA,0,NA,NA,NA,NA,,,NA,,,NA,SUPPRF74532
2,1.70794E+12,14/02/2024 20:52,1.70795E+12,1,14/02/2024 22:52,165975,4,task-gjqt,NA,35158452,10389435,NA,complete,NA,65cd2321df8f04f73b0873bb,computer,Desktop or Laptop,Windows 10,Chrome 107.0.0.0,1536x864,967x730,NA,NA,0,BIQ (Charlotte),3,GHFIEJDACB,Passed AC2,NA,Spreadsheet1,1,BIQ,Screen 1,9dh6eq,1,continue,,176301.468,176289.568,176301.468,176301.468,176289.568,176301.468,1,176301.468,0,0,NA,Click To Continue,Continue Button,23,object-48,BIQ,NA,SUPPRF74532
3,1.70794E+12,14/02/2024 20:52,1.70795E+12,1,14/02/2024 22:52,165975,4,task-gjqt,NA,35158452,10389435,NA,complete,NA,65cd2321df8f04f73b0873bb,computer,Desktop or Laptop,Windows 10,Chrome 107.0.0.0,1536x864,967x730,NA,NA,0,BIQ (Charlotte),3,GHFIEJDACB,Passed AC2,NA,Spreadsheet1,1,BIQ,Screen 1,9dh6eq,1,response,6,146740.768,176289.568,176306.868,146740.768,176289.568,176306.868,1,146740.768,29566.1,0,NA,Rating Scale,Rating Scale,3,object-5,BIQ,NA,SUPPRF74532
4,1.70794E+12,14/02/2024 20:52,1.70795E+12,1,14/02/2024 22:52,165975,4,task-gjqt,NA,35158452,10389435,NA,complete,NA,65cd2321df8f04f73b0873bb,computer,Desktop or Laptop,Windows 10,Chrome 107.0.0.0,1536x864,967x730,NA,NA,0,BIQ (Charlotte),3,GHFIEJDACB,Passed AC2,NA,Spreadsheet1,1,BIQ,Screen 1,9dh6eq,1,response,6,150740.468,176289.568,176306.868,150740.468,176289.568,176306.868,1,150740.468,25566.4,0,NA,Rating Scale,Rating Scale,10,object-18,BIQ,NA,SUPPRF74532
5,1.70794E+12,14/02/2024 20:52,1.70795E+12,1,14/02/2024 22:52,165975,4,task-gjqt,NA,35158452,10389435,NA,complete,NA,65cd2321df8f04f73b0873bb,computer,Desktop or Laptop,Windows 10,Chrome 107.0.0.0,1536x864,967x730,NA,NA,0,BIQ (Charlotte),3,GHFIEJDACB,Passed AC2,NA,Spreadsheet1,1,BIQ,Screen 1,9dh6eq,1,response,1,163340.268,176289.568,176306.868,163340.268,176289.568,176306.868,1,163340.268,12966.6,0,NA,Rating Scale,Rating Scale,17,object-80,BIQ,NA,SUPPRF74532
6,1.70794E+12,14/02/2024 20:53,1.70795E+12,1,14/02/2024 22:53,165975,4,task-gjqt,NA,35158452,10389435,NA,complete,NA,65cd2321df8f04f73b0873bb,computer,Desktop or Laptop,Windows 10,Chrome 107.0.0.0,1536x864,967x730,NA,NA,0,BIQ (Charlotte),3,GHFIEJDACB,Passed AC2,NA,Spreadsheet1,1,BIQ,Screen 2,o21mwi,2,continue,,36311.5,36297.1,36311.5,36311.5,36297.1,36311.5,1,36311.5,0,0,NA,Click To Continue,Continue Button,22,object-50,BIQ,NA,SUPPRF74532
7,1.70794E+12,14/02/2024 20:53,1.70795E+12,1,14/02/2024 22:53,165975,4,task-gjqt,NA,35158452,10389435,NA,complete,NA,65cd2321df8f04f73b0873bb,computer,Desktop or Laptop,Windows 10,Chrome 107.0.0.0,1536x864,967x730,NA,NA,0,BIQ (Charlotte),3,GHFIEJDACB,Passed AC2,NA,Spreadsheet1,1,BIQ,Screen 2,o21mwi,2,response,3,7282.2,36297.1,36313.7,7282.2,36297.1,36313.7,1,7282.2,29031.5,0,NA,Rating Scale,Rating Scale,2,object-259,BIQ,NA,SUPPRF74532
8,1.70794E+12,14/02/2024 20:53,1.70795E+12,1,14/02/2024 22:53,165975,4,task-gjqt,NA,35158452,10389435,NA,complete,NA,65cd2321df8f04f73b0873bb,computer,Desktop or Laptop,Windows 10,Chrome 107.0.0.0,1536x864,967x730,NA,NA,0,BIQ (Charlotte),3,GHFIEJDACB,Passed AC2,NA,Spreadsheet1,1,BIQ,Screen 2,o21mwi,2,response,2,11382.4,36297.1,36313.7,11382.4,36297.1,36313.7,1,11382.4,24931.3,0,NA,Rating Scale,Rating Scale,9,object-36,BIQ,NA,SUPPRF74532
9,1.70794E+12,14/02/2024 20:53,1.70795E+12,1,14/02/2024 22:53,165975,4,task-gjqt,NA,35158452,10389435,NA,complete,NA,65cd2321df8f04f73b0873bb,computer,Desktop or Laptop,Windows 10,Chrome 107.0.0.0,1536x864,967x730,NA,NA,0,BIQ (Charlotte),3,GHFIEJDACB,Passed AC2,NA,Spreadsheet1,1,BIQ,Screen 2,o21mwi,2,response,0,33897.3,36297.1,36313.7,33897.3,36297.1,36313.7,1,33897.3,2416.4,0,NA,Rating Scale,Rating Scale,16,object-86,BIQ,NA,SUPPRF74532
10,1.70794E+12,14/02/2024 20:54,1.70795E+12,1,14/02/2024 22:54,165975,4,task-gjqt,NA,35158452,10389435,NA,complete,NA,65cd2321df8f04f73b0873bb,computer,Desktop or Laptop,Windows 10,Chrome 107.0.0.0,1536x864,967x730,NA,NA,0,BIQ (Charlotte),3,GHFIEJDACB,Passed AC2,NA,Spreadsheet1,1,BIQ,Screen 3,iz3the,3,continue,,60859.5,60846.4,60859.5,60859.5,60846.4,60859.5,1,60859.5,0,0,NA,Click To Continue,Continue Button,22,object-73,BIQ,NA,SUPPRF74532
11,1.70794E+12,14/02/2024 20:54,1.70795E+12,1,14/02/2024 22:54,165975,4,task-gjqt,NA,35158452,10389435,NA,complete,NA,65cd2321df8f04f73b0873bb,computer,Desktop or Laptop,Windows 10,Chrome 107.0.0.0,1536x864,967x730,NA,NA,0,BIQ (Charlotte),3,GHFIEJDACB,Passed AC2,NA,Spreadsheet1,1,BIQ,Screen 3,iz3the,3,response,0,55263.8,60846.4,60861.7,55263.8,60846.4,60861.7,1,55263.8,5597.9,0,NA,Rating Scale,Rating Scale,2,object-53,BIQ,NA,SUPPRF74532
12,1.70794E+12,14/02/2024 20:54,1.70795E+12,1,14/02/2024 22:54,165975,4,task-gjqt,NA,35158452,10389435,NA,complete,NA,65cd2321df8f04f73b0873bb,computer,Desktop or Laptop,Windows 10,Chrome 107.0.0.0,1536x864,967x730,NA,NA,0,BIQ (Charlotte),3,GHFIEJDACB,Passed AC2,NA,Spreadsheet1,1,BIQ,Screen 3,iz3the,3,response,0,57697,60846.4,60862,57697,60846.4,60862,1,57697,3165,0,NA,Rating Scale,Rating Scale,9,object-60,BIQ,NA,SUPPRF74532
13,1.70794E+12,14/02/2024 20:54,1.70795E+12,1,14/02/2024 22:54,165975,4,task-gjqt,NA,35158452,10389435,NA,complete,NA,65cd2321df8f04f73b0873bb,computer,Desktop or Laptop,Windows 10,Chrome 107.0.0.0,1536x864,967x730,NA,NA,0,BIQ (Charlotte),3,GHFIEJDACB,Passed AC2,NA,Spreadsheet1,1,BIQ,Screen 3,iz3the,3,response,0,59629.7,60846.4,60862.4,59629.7,60846.4,60862.4,1,59629.7,1232.7,0,NA,Rating Scale,Rating Scale,16,object-67,BIQ,NA,SUPPRF74532
14,1.70794E+12,14/02/2024 20:54,1.70795E+12,1,14/02/2024 22:54,165975,4,task-gjqt,NA,35158452,10389435,NA,complete,NA,65cd2321df8f04f73b0873bb,computer,Desktop or Laptop,Windows 10,Chrome 107.0.0.0,1536x864,967x730,NA,NA,0,BIQ (Charlotte),3,GHFIEJDACB,Passed AC2,NA,Spreadsheet1,NA,,,,NA,5,END,NA,NA,NA,NA,NA,NA,0,NA,NA,NA,NA,,,NA,,,NA,SUPPRF74532
1,1.70794E+12,14/02/2024 20:47,1.70795E+12,1,14/02/2024 22:47,165975,4,task-gjqt,NA,35158394,10389452,NA,complete,NA,65cd240b9901cef693c9dee4,computer,Desktop or Laptop,Windows 10,Chrome 121.0.0.0,1920x1080,1920x991,NA,NA,0,BIQ (Charlotte),3,HIGJFAEBDC,Passed AC2,NA,Spreadsheet1,NA,,,,NA,5,BEGIN,NA,NA,NA,NA,NA,NA,0,NA,NA,NA,NA,,,NA,,,NA,SUPPRF79953
2,1.70794E+12,14/02/2024 20:47,1.70795E+12,1,14/02/2024 22:47,165975,4,task-gjqt,NA,35158394,10389452,NA,complete,NA,65cd240b9901cef693c9dee4,computer,Desktop or Laptop,Windows 10,Chrome 121.0.0.0,1920x1080,1920x991,NA,NA,0,BIQ (Charlotte),3,HIGJFAEBDC,Passed AC2,NA,Spreadsheet1,1,BIQ,Screen 1,9dh6eq,1,continue,,30011.936,29995.436,30011.936,30011.936,29995.436,30011.936,1,30011.936,0,0,NA,Click To Continue,Continue Button,23,object-48,BIQ,NA,SUPPRF79953
3,1.70794E+12,14/02/2024 20:47,1.70795E+12,1,14/02/2024 22:47,165975,4,task-gjqt,NA,35158394,10389452,NA,complete,NA,65cd240b9901cef693c9dee4,computer,Desktop or Laptop,Windows 10,Chrome 121.0.0.0,1920x1080,1920x991,NA,NA,0,BIQ (Charlotte),3,HIGJFAEBDC,Passed AC2,NA,Spreadsheet1,1,BIQ,Screen 1,9dh6eq,1,response,4,12231.336,29995.436,30011.936,12231.336,29995.436,30011.936,1,12231.336,17780.6,0,NA,Rating Scale,Rating Scale,3,object-5,BIQ,NA,SUPPRF79953
4,1.70794E+12,14/02/2024 20:47,1.70795E+12,1,14/02/2024 22:47,165975,4,task-gjqt,NA,35158394,10389452,NA,complete,NA,65cd240b9901cef693c9dee4,computer,Desktop or Laptop,Windows 10,Chrome 121.0.0.0,1920x1080,1920x991,NA,NA,0,BIQ (Charlotte),3,HIGJFAEBDC,Passed AC2,NA,Spreadsheet1,1,BIQ,Screen 1,9dh6eq,1,response,7,24046.336,29995.436,30011.936,24046.336,29995.436,30011.936,1,24046.336,5965.6,0,NA,Rating Scale,Rating Scale,10,object-18,BIQ,NA,SUPPRF79953
5,1.70794E+12,14/02/2024 20:47,1.70795E+12,1,14/02/2024 22:47,165975,4,task-gjqt,NA,35158394,10389452,NA,complete,NA,65cd240b9901cef693c9dee4,computer,Desktop or Laptop,Windows 10,Chrome 121.0.0.0,1920x1080,1920x991,NA,NA,0,BIQ (Charlotte),3,HIGJFAEBDC,Passed AC2,NA,Spreadsheet1,1,BIQ,Screen 1,9dh6eq,1,response,1,28879.036,29995.436,30011.936,28879.036,29995.436,30011.936,1,28879.036,1132.9,0,NA,Rating Scale,Rating Scale,17,object-80,BIQ,NA,SUPPRF79953
6,1.70794E+12,14/02/2024 20:48,1.70795E+12,1,14/02/2024 22:48,165975,4,task-gjqt,NA,35158394,10389452,NA,complete,NA,65cd240b9901cef693c9dee4,computer,Desktop or Laptop,Windows 10,Chrome 121.0.0.0,1920x1080,1920x991,NA,NA,0,BIQ (Charlotte),3,HIGJFAEBDC,Passed AC2,NA,Spreadsheet1,1,BIQ,Screen 2,o21mwi,2,continue,,32717.2,32713.5,32717.2,32717.2,32713.5,32717.2,1,32717.2,0,0,NA,Click To Continue,Continue Button,22,object-50,BIQ,NA,SUPPRF79953
7,1.70794E+12,14/02/2024 20:48,1.70795E+12,1,14/02/2024 22:48,165975,4,task-gjqt,NA,35158394,10389452,NA,complete,NA,65cd240b9901cef693c9dee4,computer,Desktop or Laptop,Windows 10,Chrome 121.0.0.0,1920x1080,1920x991,NA,NA,0,BIQ (Charlotte),3,HIGJFAEBDC,Passed AC2,NA,Spreadsheet1,1,BIQ,Screen 2,o21mwi,2,response,4,5049.7,32713.5,32723.5,5049.7,32713.5,32723.5,1,5049.7,27673.8,0,NA,Rating Scale,Rating Scale,2,object-259,BIQ,NA,SUPPRF79953
8,1.70794E+12,14/02/2024 20:48,1.70795E+12,1,14/02/2024 22:48,165975,4,task-gjqt,NA,35158394,10389452,NA,complete,NA,65cd240b9901cef693c9dee4,computer,Desktop or Laptop,Windows 10,Chrome 121.0.0.0,1920x1080,1920x991,NA,NA,0,BIQ (Charlotte),3,HIGJFAEBDC,Passed AC2,NA,Spreadsheet1,1,BIQ,Screen 2,o21mwi,2,response,1,9232.7,32713.5,32724.9,9232.7,32713.5,32724.9,1,9232.7,23492.2,0,NA,Rating Scale,Rating Scale,9,object-36,BIQ,NA,SUPPRF79953
9,1.70794E+12,14/02/2024 20:48,1.70795E+12,1,14/02/2024 22:48,165975,4,task-gjqt,NA,35158394,10389452,NA,complete,NA,65cd240b9901cef693c9dee4,computer,Desktop or Laptop,Windows 10,Chrome 121.0.0.0,1920x1080,1920x991,NA,NA,0,BIQ (Charlotte),3,HIGJFAEBDC,Passed AC2,NA,Spreadsheet1,1,BIQ,Screen 2,o21mwi,2,response,2,23797.1,32713.5,32726.3,23797.1,32713.5,32726.3,1,23797.1,8929.2,0,NA,Rating Scale,Rating Scale,16,object-86,BIQ,NA,SUPPRF79953
10,1.70794E+12,14/02/2024 20:48,1.70795E+12,1,14/02/2024 22:48,165975,4,task-gjqt,NA,35158394,10389452,NA,complete,NA,65cd240b9901cef693c9dee4,computer,Desktop or Laptop,Windows 10,Chrome 121.0.0.0,1920x1080,1920x991,NA,NA,0,BIQ (Charlotte),3,HIGJFAEBDC,Passed AC2,NA,Spreadsheet1,1,BIQ,Screen 3,iz3the,3,continue,,17196.5,17180.3,17196.5,17196.5,17180.3,17196.5,1,17196.5,0,0,NA,Click To Continue,Continue Button,22,object-73,BIQ,NA,SUPPRF79953
11,1.70794E+12,14/02/2024 20:48,1.70795E+12,1,14/02/2024 22:48,165975,4,task-gjqt,NA,35158394,10389452,NA,complete,NA,65cd240b9901cef693c9dee4,computer,Desktop or Laptop,Windows 10,Chrome 121.0.0.0,1920x1080,1920x991,NA,NA,0,BIQ (Charlotte),3,HIGJFAEBDC,Passed AC2,NA,Spreadsheet1,1,BIQ,Screen 3,iz3the,3,response,1,5465.1,17180.3,17196.5,5465.1,17180.3,17196.5,1,5465.1,11731.4,0,NA,Rating Scale,Rating Scale,2,object-53,BIQ,NA,SUPPRF79953
12,1.70794E+12,14/02/2024 20:48,1.70795E+12,1,14/02/2024 22:48,165975,4,task-gjqt,NA,35158394,10389452,NA,complete,NA,65cd240b9901cef693c9dee4,computer,Desktop or Laptop,Windows 10,Chrome 121.0.0.0,1920x1080,1920x991,NA,NA,0,BIQ (Charlotte),3,HIGJFAEBDC,Passed AC2,NA,Spreadsheet1,1,BIQ,Screen 3,iz3the,3,response,2,11864.3,17180.3,17196.5,11864.3,17180.3,17196.5,1,11864.3,5332.2,0,NA,Rating Scale,Rating Scale,9,object-60,BIQ,NA,SUPPRF79953
13,1.70794E+12,14/02/2024 20:48,1.70795E+12,1,14/02/2024 22:48,165975,4,task-gjqt,NA,35158394,10389452,NA,complete,NA,65cd240b9901cef693c9dee4,computer,Desktop or Laptop,Windows 10,Chrome 121.0.0.0,1920x1080,1920x991,NA,NA,0,BIQ (Charlotte),3,HIGJFAEBDC,Passed AC2,NA,Spreadsheet1,1,BIQ,Screen 3,iz3the,3,response,5,14797.2,17180.3,17196.5,14797.2,17180.3,17196.5,1,14797.2,2399.3,0,NA,Rating Scale,Rating Scale,16,object-67,BIQ,NA,SUPPRF79953
14,1.70794E+12,14/02/2024 20:48,1.70795E+12,1,14/02/2024 22:48,165975,4,task-gjqt,NA,35158394,10389452,NA,complete,NA,65cd240b9901cef693c9dee4,computer,Desktop or Laptop,Windows 10,Chrome 121.0.0.0,1920x1080,1920x991,NA,NA,0,BIQ (Charlotte),3,HIGJFAEBDC,Passed AC2,NA,Spreadsheet1,NA,,,,NA,5,END,NA,NA,NA,NA,NA,NA,0,NA,NA,NA,NA,,,NA,,,NA,SUPPRF79953
1,1.70794E+12,14/02/2024 20:48,1.70794E+12,0,14/02/2024 20:48,165975,4,task-gjqt,NA,35158439,10389500,NA,complete,NA,65cd24fb55260acb6c71c388,computer,Desktop or Laptop,Chromium OS 14541.0.0,Chrome 121.0.0.0,1536x864,1536x695,NA,NA,0,BIQ (Charlotte),3,IJHAGBFCED,Passed AC2,NA,Spreadsheet1,NA,,,,NA,5,BEGIN,NA,NA,NA,NA,NA,NA,0,NA,NA,NA,NA,,,NA,,,NA,SUPPRF11788
2,1.70794E+12,14/02/2024 20:49,1.70794E+12,0,14/02/2024 20:49,165975,4,task-gjqt,NA,35158439,10389500,NA,complete,NA,65cd24fb55260acb6c71c388,computer,Desktop or Laptop,Chromium OS 14541.0.0,Chrome 121.0.0.0,1536x864,1536x695,NA,NA,0,BIQ (Charlotte),3,IJHAGBFCED,Passed AC2,NA,Spreadsheet1,1,BIQ,Screen 1,9dh6eq,1,continue,,45204.674,45190.174,45204.674,45204.674,45190.174,45204.674,1,45204.674,0,0,NA,Click To Continue,Continue Button,23,object-48,BIQ,NA,SUPPRF11788
3,1.70794E+12,14/02/2024 20:49,1.70794E+12,0,14/02/2024 20:49,165975,4,task-gjqt,NA,35158439,10389500,NA,complete,NA,65cd24fb55260acb6c71c388,computer,Desktop or Laptop,Chromium OS 14541.0.0,Chrome 121.0.0.0,1536x864,1536x695,NA,NA,0,BIQ (Charlotte),3,IJHAGBFCED,Passed AC2,NA,Spreadsheet1,1,BIQ,Screen 1,9dh6eq,1,response,0,5616.474,45190.174,45206.774,5616.474,45190.174,45206.774,1,5616.474,39590.3,0,NA,Rating Scale,Rating Scale,3,object-5,BIQ,NA,SUPPRF11788
4,1.70794E+12,14/02/2024 20:49,1.70794E+12,0,14/02/2024 20:49,165975,4,task-gjqt,NA,35158439,10389500,NA,complete,NA,65cd24fb55260acb6c71c388,computer,Desktop or Laptop,Chromium OS 14541.0.0,Chrome 121.0.0.0,1536x864,1536x695,NA,NA,0,BIQ (Charlotte),3,IJHAGBFCED,Passed AC2,NA,Spreadsheet1,1,BIQ,Screen 1,9dh6eq,1,response,6,25465.774,45190.174,45206.774,25465.774,45190.174,45206.774,1,25465.774,19741,0,NA,Rating Scale,Rating Scale,10,object-18,BIQ,NA,SUPPRF11788
5,1.70794E+12,14/02/2024 20:49,1.70794E+12,0,14/02/2024 20:49,165975,4,task-gjqt,NA,35158439,10389500,NA,complete,NA,65cd24fb55260acb6c71c388,computer,Desktop or Laptop,Chromium OS 14541.0.0,Chrome 121.0.0.0,1536x864,1536x695,NA,NA,0,BIQ (Charlotte),3,IJHAGBFCED,Passed AC2,NA,Spreadsheet1,1,BIQ,Screen 1,9dh6eq,1,response,6,39407.074,45190.174,45206.774,39407.074,45190.174,45206.774,1,39407.074,5799.7,0,NA,Rating Scale,Rating Scale,17,object-80,BIQ,NA,SUPPRF11788
6,1.70794E+12,14/02/2024 20:50,1.70794E+12,0,14/02/2024 20:50,165975,4,task-gjqt,NA,35158439,10389500,NA,complete,NA,65cd24fb55260acb6c71c388,computer,Desktop or Laptop,Chromium OS 14541.0.0,Chrome 121.0.0.0,1536x864,1536x695,NA,NA,0,BIQ (Charlotte),3,IJHAGBFCED,Passed AC2,NA,Spreadsheet1,1,BIQ,Screen 2,o21mwi,2,continue,,24747.5,24732.5,24747.5,24747.5,24732.5,24747.5,1,24747.5,0,0,NA,Click To Continue,Continue Button,22,object-50,BIQ,NA,SUPPRF11788
7,1.70794E+12,14/02/2024 20:50,1.70794E+12,0,14/02/2024 20:50,165975,4,task-gjqt,NA,35158439,10389500,NA,complete,NA,65cd24fb55260acb6c71c388,computer,Desktop or Laptop,Chromium OS 14541.0.0,Chrome 121.0.0.0,1536x864,1536x695,NA,NA,0,BIQ (Charlotte),3,IJHAGBFCED,Passed AC2,NA,Spreadsheet1,1,BIQ,Screen 2,o21mwi,2,response,7,4033.2,24732.5,24749.2,4033.2,24732.5,24749.2,1,4033.2,20716,0,NA,Rating Scale,Rating Scale,2,object-259,BIQ,NA,SUPPRF11788
8,1.70794E+12,14/02/2024 20:50,1.70794E+12,0,14/02/2024 20:50,165975,4,task-gjqt,NA,35158439,10389500,NA,complete,NA,65cd24fb55260acb6c71c388,computer,Desktop or Laptop,Chromium OS 14541.0.0,Chrome 121.0.0.0,1536x864,1536x695,NA,NA,0,BIQ (Charlotte),3,IJHAGBFCED,Passed AC2,NA,Spreadsheet1,1,BIQ,Screen 2,o21mwi,2,response,7,14132.8,24732.5,24749.2,14132.8,24732.5,24749.2,1,14132.8,10616.4,0,NA,Rating Scale,Rating Scale,9,object-36,BIQ,NA,SUPPRF11788
9,1.70794E+12,14/02/2024 20:50,1.70794E+12,0,14/02/2024 20:50,165975,4,task-gjqt,NA,35158439,10389500,NA,complete,NA,65cd24fb55260acb6c71c388,computer,Desktop or Laptop,Chromium OS 14541.0.0,Chrome 121.0.0.0,1536x864,1536x695,NA,NA,0,BIQ (Charlotte),3,IJHAGBFCED,Passed AC2,NA,Spreadsheet1,1,BIQ,Screen 2,o21mwi,2,response,2,23815.9,24732.5,24749.2,23815.9,24732.5,24749.2,1,23815.9,933.3,0,NA,Rating Scale,Rating Scale,16,object-86,BIQ,NA,SUPPRF11788
10,1.70794E+12,14/02/2024 20:50,1.70794E+12,0,14/02/2024 20:50,165975,4,task-gjqt,NA,35158439,10389500,NA,complete,NA,65cd24fb55260acb6c71c388,computer,Desktop or Laptop,Chromium OS 14541.0.0,Chrome 121.0.0.0,1536x864,1536x695,NA,NA,0,BIQ (Charlotte),3,IJHAGBFCED,Passed AC2,NA,Spreadsheet1,1,BIQ,Screen 3,iz3the,3,continue,,28325,28315.8,28325,28325,28315.8,28325,1,28325,0,0,NA,Click To Continue,Continue Button,22,object-73,BIQ,NA,SUPPRF11788
11,1.70794E+12,14/02/2024 20:50,1.70794E+12,0,14/02/2024 20:50,165975,4,task-gjqt,NA,35158439,10389500,NA,complete,NA,65cd24fb55260acb6c71c388,computer,Desktop or Laptop,Chromium OS 14541.0.0,Chrome 121.0.0.0,1536x864,1536x695,NA,NA,0,BIQ (Charlotte),3,IJHAGBFCED,Passed AC2,NA,Spreadsheet1,1,BIQ,Screen 3,iz3the,3,response,1,12199.7,28315.8,28328.7,12199.7,28315.8,28328.7,1,12199.7,16129,0,NA,Rating Scale,Rating Scale,2,object-53,BIQ,NA,SUPPRF11788
12,1.70794E+12,14/02/2024 20:50,1.70794E+12,0,14/02/2024 20:50,165975,4,task-gjqt,NA,35158439,10389500,NA,complete,NA,65cd24fb55260acb6c71c388,computer,Desktop or Laptop,Chromium OS 14541.0.0,Chrome 121.0.0.0,1536x864,1536x695,NA,NA,0,BIQ (Charlotte),3,IJHAGBFCED,Passed AC2,NA,Spreadsheet1,1,BIQ,Screen 3,iz3the,3,response,0,16766.2,28315.8,28329.3,16766.2,28315.8,28329.3,1,16766.2,11563.1,0,NA,Rating Scale,Rating Scale,9,object-60,BIQ,NA,SUPPRF11788
13,1.70794E+12,14/02/2024 20:50,1.70794E+12,0,14/02/2024 20:50,165975,4,task-gjqt,NA,35158439,10389500,NA,complete,NA,65cd24fb55260acb6c71c388,computer,Desktop or Laptop,Chromium OS 14541.0.0,Chrome 121.0.0.0,1536x864,1536x695,NA,NA,0,BIQ (Charlotte),3,IJHAGBFCED,Passed AC2,NA,Spreadsheet1,1,BIQ,Screen 3,iz3the,3,response,3,21199.4,28315.8,28330,21199.4,28315.8,28330,1,21199.4,7130.6,0,NA,Rating Scale,Rating Scale,16,object-67,BIQ,NA,SUPPRF11788
14,1.70794E+12,14/02/2024 20:50,1.70794E+12,0,14/02/2024 20:50,165975,4,task-gjqt,NA,35158439,10389500,NA,complete,NA,65cd24fb55260acb6c71c388,computer,Desktop or Laptop,Chromium OS 14541.0.0,Chrome 121.0.0.0,1536x864,1536x695,NA,NA,0,BIQ (Charlotte),3,IJHAGBFCED,Passed AC2,NA,Spreadsheet1,NA,,,,NA,5,END,NA,NA,NA,NA,NA,NA,0,NA,NA,NA,NA,,,NA,,,NA,SUPPRF11788
1,1.70794E+12,14/02/2024 21:06,1.70794E+12,0,14/02/2024 21:06,165975,4,task-gjqt,NA,35158884,10389652,NA,complete,NA,65cd2902abeaa111a2fc9de2,computer,Desktop or Laptop,Windows 10,Chrome 121.0.0.0,1536x864,1536x695,NA,NA,0,BIQ (Charlotte),3,JAIBHCGDFE,Passed AC2,NA,Spreadsheet1,NA,,,,NA,5,BEGIN,NA,NA,NA,NA,NA,NA,0,NA,NA,NA,NA,,,NA,,,NA,SUPPRF92611
2,1.70794E+12,14/02/2024 21:07,1.70794E+12,0,14/02/2024 21:07,165975,4,task-gjqt,NA,35158884,10389652,NA,complete,NA,65cd2902abeaa111a2fc9de2,computer,Desktop or Laptop,Windows 10,Chrome 121.0.0.0,1536x864,1536x695,NA,NA,0,BIQ (Charlotte),3,JAIBHCGDFE,Passed AC2,NA,Spreadsheet1,1,BIQ,Screen 1,9dh6eq,1,continue,,25537.656,25521.256,25537.656,25537.656,25521.256,25537.656,1,25537.656,0,0,NA,Click To Continue,Continue Button,23,object-48,BIQ,NA,SUPPRF92611
3,1.70794E+12,14/02/2024 21:07,1.70794E+12,0,14/02/2024 21:07,165975,4,task-gjqt,NA,35158884,10389652,NA,complete,NA,65cd2902abeaa111a2fc9de2,computer,Desktop or Laptop,Windows 10,Chrome 121.0.0.0,1536x864,1536x695,NA,NA,0,BIQ (Charlotte),3,JAIBHCGDFE,Passed AC2,NA,Spreadsheet1,1,BIQ,Screen 1,9dh6eq,1,response,6,13301.456,25521.256,25537.656,13301.456,25521.256,25537.656,1,13301.456,12236.2,0,NA,Rating Scale,Rating Scale,3,object-5,BIQ,NA,SUPPRF92611
4,1.70794E+12,14/02/2024 21:07,1.70794E+12,0,14/02/2024 21:07,165975,4,task-gjqt,NA,35158884,10389652,NA,complete,NA,65cd2902abeaa111a2fc9de2,computer,Desktop or Laptop,Windows 10,Chrome 121.0.0.0,1536x864,1536x695,NA,NA,0,BIQ (Charlotte),3,JAIBHCGDFE,Passed AC2,NA,Spreadsheet1,1,BIQ,Screen 1,9dh6eq,1,response,6,20676.556,25521.256,25537.656,20676.556,25521.256,25537.656,1,20676.556,4861.1,0,NA,Rating Scale,Rating Scale,10,object-18,BIQ,NA,SUPPRF92611
5,1.70794E+12,14/02/2024 21:07,1.70794E+12,0,14/02/2024 21:07,165975,4,task-gjqt,NA,35158884,10389652,NA,complete,NA,65cd2902abeaa111a2fc9de2,computer,Desktop or Laptop,Windows 10,Chrome 121.0.0.0,1536x864,1536x695,NA,NA,0,BIQ (Charlotte),3,JAIBHCGDFE,Passed AC2,NA,Spreadsheet1,1,BIQ,Screen 1,9dh6eq,1,response,2,24755.256,25521.256,25537.656,24755.256,25521.256,25537.656,1,24755.256,782.4,0,NA,Rating Scale,Rating Scale,17,object-80,BIQ,NA,SUPPRF92611
6,1.70794E+12,14/02/2024 21:07,1.70794E+12,0,14/02/2024 21:07,165975,4,task-gjqt,NA,35158884,10389652,NA,complete,NA,65cd2902abeaa111a2fc9de2,computer,Desktop or Laptop,Windows 10,Chrome 121.0.0.0,1536x864,1536x695,NA,NA,0,BIQ (Charlotte),3,JAIBHCGDFE,Passed AC2,NA,Spreadsheet1,1,BIQ,Screen 2,o21mwi,2,continue,,20660.6,20644.1,20660.6,20660.6,20644.1,20660.6,1,20660.6,0,0,NA,Click To Continue,Continue Button,22,object-50,BIQ,NA,SUPPRF92611
7,1.70794E+12,14/02/2024 21:07,1.70794E+12,0,14/02/2024 21:07,165975,4,task-gjqt,NA,35158884,10389652,NA,complete,NA,65cd2902abeaa111a2fc9de2,computer,Desktop or Laptop,Windows 10,Chrome 121.0.0.0,1536x864,1536x695,NA,NA,0,BIQ (Charlotte),3,JAIBHCGDFE,Passed AC2,NA,Spreadsheet1,1,BIQ,Screen 2,o21mwi,2,response,7,7907.9,20644.1,20660.6,7907.9,20644.1,20660.6,1,7907.9,12752.7,0,NA,Rating Scale,Rating Scale,2,object-259,BIQ,NA,SUPPRF92611
8,1.70794E+12,14/02/2024 21:07,1.70794E+12,0,14/02/2024 21:07,165975,4,task-gjqt,NA,35158884,10389652,NA,complete,NA,65cd2902abeaa111a2fc9de2,computer,Desktop or Laptop,Windows 10,Chrome 121.0.0.0,1536x864,1536x695,NA,NA,0,BIQ (Charlotte),3,JAIBHCGDFE,Passed AC2,NA,Spreadsheet1,1,BIQ,Screen 2,o21mwi,2,response,1,11886.8,20644.1,20660.6,11886.8,20644.1,20660.6,1,11886.8,8773.8,0,NA,Rating Scale,Rating Scale,9,object-36,BIQ,NA,SUPPRF92611
9,1.70794E+12,14/02/2024 21:07,1.70794E+12,0,14/02/2024 21:07,165975,4,task-gjqt,NA,35158884,10389652,NA,complete,NA,65cd2902abeaa111a2fc9de2,computer,Desktop or Laptop,Windows 10,Chrome 121.0.0.0,1536x864,1536x695,NA,NA,0,BIQ (Charlotte),3,JAIBHCGDFE,Passed AC2,NA,Spreadsheet1,1,BIQ,Screen 2,o21mwi,2,response,0,19711.8,20644.1,20660.6,19711.8,20644.1,20660.6,1,19711.8,948.8,0,NA,Rating Scale,Rating Scale,16,object-86,BIQ,NA,SUPPRF92611
10,1.70794E+12,14/02/2024 21:07,1.70794E+12,0,14/02/2024 21:07,165975,4,task-gjqt,NA,35158884,10389652,NA,complete,NA,65cd2902abeaa111a2fc9de2,computer,Desktop or Laptop,Windows 10,Chrome 121.0.0.0,1536x864,1536x695,NA,NA,0,BIQ (Charlotte),3,JAIBHCGDFE,Passed AC2,NA,Spreadsheet1,1,BIQ,Screen 3,iz3the,3,continue,,18100.8,18096.7,18100.8,18100.8,18096.7,18100.8,1,18100.8,0,0,NA,Click To Continue,Continue Button,22,object-73,BIQ,NA,SUPPRF92611
11,1.70794E+12,14/02/2024 21:07,1.70794E+12,0,14/02/2024 21:07,165975,4,task-gjqt,NA,35158884,10389652,NA,complete,NA,65cd2902abeaa111a2fc9de2,computer,Desktop or Laptop,Windows 10,Chrome 121.0.0.0,1536x864,1536x695,NA,NA,0,BIQ (Charlotte),3,JAIBHCGDFE,Passed AC2,NA,Spreadsheet1,1,BIQ,Screen 3,iz3the,3,response,0,4412,18096.7,18106.3,4412,18096.7,18106.3,1,4412,13694.3,0,NA,Rating Scale,Rating Scale,2,object-53,BIQ,NA,SUPPRF92611
12,1.70794E+12,14/02/2024 21:07,1.70794E+12,0,14/02/2024 21:07,165975,4,task-gjqt,NA,35158884,10389652,NA,complete,NA,65cd2902abeaa111a2fc9de2,computer,Desktop or Laptop,Windows 10,Chrome 121.0.0.0,1536x864,1536x695,NA,NA,0,BIQ (Charlotte),3,JAIBHCGDFE,Passed AC2,NA,Spreadsheet1,1,BIQ,Screen 3,iz3the,3,response,1,9622.5,18096.7,18107.2,9622.5,18096.7,18107.2,1,9622.5,8484.7,0,NA,Rating Scale,Rating Scale,9,object-60,BIQ,NA,SUPPRF92611
13,1.70794E+12,14/02/2024 21:07,1.70794E+12,0,14/02/2024 21:07,165975,4,task-gjqt,NA,35158884,10389652,NA,complete,NA,65cd2902abeaa111a2fc9de2,computer,Desktop or Laptop,Windows 10,Chrome 121.0.0.0,1536x864,1536x695,NA,NA,0,BIQ (Charlotte),3,JAIBHCGDFE,Passed AC2,NA,Spreadsheet1,1,BIQ,Screen 3,iz3the,3,response,4,15300,18096.7,18108.3,15300,18096.7,18108.3,1,15300,2808.3,0,NA,Rating Scale,Rating Scale,16,object-67,BIQ,NA,SUPPRF92611
14,1.70794E+12,14/02/2024 21:07,1.70794E+12,0,14/02/2024 21:07,165975,4,task-gjqt,NA,35158884,10389652,NA,complete,NA,65cd2902abeaa111a2fc9de2,computer,Desktop or Laptop,Windows 10,Chrome 121.0.0.0,1536x864,1536x695,NA,NA,0,BIQ (Charlotte),3,JAIBHCGDFE,Passed AC2,NA,Spreadsheet1,NA,,,,NA,5,END,NA,NA,NA,NA,NA,NA,0,NA,NA,NA,NA,,,NA,,,NA,SUPPRF92611
1,1.70795E+12,14/02/2024 21:10,1.70795E+12,0,14/02/2024 21:10,165975,4,task-gjqt,NA,35158954,10389709,NA,complete,NA,65cd2ae8ae300aebd05b7b20,computer,Desktop or Laptop,Mac OS 10.15.7,Chrome 121.0.0.0,1440x900,1440x676,NA,NA,0,BIQ (Charlotte),3,ABJCIDHEGF,Passed AC2,NA,Spreadsheet1,NA,,,,NA,5,BEGIN,NA,NA,NA,NA,NA,NA,0,NA,NA,NA,NA,,,NA,,,NA,SUPPRF40465
2,1.70795E+12,14/02/2024 21:11,1.70795E+12,0,14/02/2024 21:11,165975,4,task-gjqt,NA,35158954,10389709,NA,complete,NA,65cd2ae8ae300aebd05b7b20,computer,Desktop or Laptop,Mac OS 10.15.7,Chrome 121.0.0.0,1440x900,1440x676,NA,NA,0,BIQ (Charlotte),3,ABJCIDHEGF,Passed AC2,NA,Spreadsheet1,1,BIQ,Screen 1,9dh6eq,1,continue,,30367.2,30350.5,30367.2,30367.2,30350.5,30367.2,1,30367.2,0,0,NA,Click To Continue,Continue Button,23,object-48,BIQ,NA,SUPPRF40465
3,1.70795E+12,14/02/2024 21:11,1.70795E+12,0,14/02/2024 21:11,165975,4,task-gjqt,NA,35158954,10389709,NA,complete,NA,65cd2ae8ae300aebd05b7b20,computer,Desktop or Laptop,Mac OS 10.15.7,Chrome 121.0.0.0,1440x900,1440x676,NA,NA,0,BIQ (Charlotte),3,ABJCIDHEGF,Passed AC2,NA,Spreadsheet1,1,BIQ,Screen 1,9dh6eq,1,response,5,18267,30350.5,30367.2,18267,30350.5,30367.2,1,18267,12100.2,0,NA,Rating Scale,Rating Scale,3,object-5,BIQ,NA,SUPPRF40465
4,1.70795E+12,14/02/2024 21:11,1.70795E+12,0,14/02/2024 21:11,165975,4,task-gjqt,NA,35158954,10389709,NA,complete,NA,65cd2ae8ae300aebd05b7b20,computer,Desktop or Laptop,Mac OS 10.15.7,Chrome 121.0.0.0,1440x900,1440x676,NA,NA,0,BIQ (Charlotte),3,ABJCIDHEGF,Passed AC2,NA,Spreadsheet1,1,BIQ,Screen 1,9dh6eq,1,response,1,24866.6,30350.5,30367.2,24866.6,30350.5,30367.2,1,24866.6,5500.6,0,NA,Rating Scale,Rating Scale,10,object-18,BIQ,NA,SUPPRF40465
5,1.70795E+12,14/02/2024 21:11,1.70795E+12,0,14/02/2024 21:11,165975,4,task-gjqt,NA,35158954,10389709,NA,complete,NA,65cd2ae8ae300aebd05b7b20,computer,Desktop or Laptop,Mac OS 10.15.7,Chrome 121.0.0.0,1440x900,1440x676,NA,NA,0,BIQ (Charlotte),3,ABJCIDHEGF,Passed AC2,NA,Spreadsheet1,1,BIQ,Screen 1,9dh6eq,1,response,6,29600.5,30350.5,30367.2,29600.5,30350.5,30367.2,1,29600.5,766.7,0,NA,Rating Scale,Rating Scale,17,object-80,BIQ,NA,SUPPRF40465
6,1.70795E+12,14/02/2024 21:11,1.70795E+12,0,14/02/2024 21:11,165975,4,task-gjqt,NA,35158954,10389709,NA,complete,NA,65cd2ae8ae300aebd05b7b20,computer,Desktop or Laptop,Mac OS 10.15.7,Chrome 121.0.0.0,1440x900,1440x676,NA,NA,0,BIQ (Charlotte),3,ABJCIDHEGF,Passed AC2,NA,Spreadsheet1,1,BIQ,Screen 2,o21mwi,2,continue,,18948.3,18933.7,18948.3,18948.3,18933.7,18948.3,1,18948.3,0,0,NA,Click To Continue,Continue Button,22,object-50,BIQ,NA,SUPPRF40465
7,1.70795E+12,14/02/2024 21:11,1.70795E+12,0,14/02/2024 21:11,165975,4,task-gjqt,NA,35158954,10389709,NA,complete,NA,65cd2ae8ae300aebd05b7b20,computer,Desktop or Laptop,Mac OS 10.15.7,Chrome 121.0.0.0,1440x900,1440x676,NA,NA,0,BIQ (Charlotte),3,ABJCIDHEGF,Passed AC2,NA,Spreadsheet1,1,BIQ,Screen 2,o21mwi,2,response,2,5083.4,18933.7,18950.4,5083.4,18933.7,18950.4,1,5083.4,13867,0,NA,Rating Scale,Rating Scale,2,object-259,BIQ,NA,SUPPRF40465
8,1.70795E+12,14/02/2024 21:11,1.70795E+12,0,14/02/2024 21:11,165975,4,task-gjqt,NA,35158954,10389709,NA,complete,NA,65cd2ae8ae300aebd05b7b20,computer,Desktop or Laptop,Mac OS 10.15.7,Chrome 121.0.0.0,1440x900,1440x676,NA,NA,0,BIQ (Charlotte),3,ABJCIDHEGF,Passed AC2,NA,Spreadsheet1,1,BIQ,Screen 2,o21mwi,2,response,5,11300.2,18933.7,18950.4,11300.2,18933.7,18950.4,1,11300.2,7650.2,0,NA,Rating Scale,Rating Scale,9,object-36,BIQ,NA,SUPPRF40465
9,1.70795E+12,14/02/2024 21:11,1.70795E+12,0,14/02/2024 21:11,165975,4,task-gjqt,NA,35158954,10389709,NA,complete,NA,65cd2ae8ae300aebd05b7b20,computer,Desktop or Laptop,Mac OS 10.15.7,Chrome 121.0.0.0,1440x900,1440x676,NA,NA,0,BIQ (Charlotte),3,ABJCIDHEGF,Passed AC2,NA,Spreadsheet1,1,BIQ,Screen 2,o21mwi,2,response,6,18350.4,18933.7,18950.4,18350.4,18933.7,18950.4,1,18350.4,600,0,NA,Rating Scale,Rating Scale,16,object-86,BIQ,NA,SUPPRF40465
10,1.70795E+12,14/02/2024 21:11,1.70795E+12,0,14/02/2024 21:11,165975,4,task-gjqt,NA,35158954,10389709,NA,complete,NA,65cd2ae8ae300aebd05b7b20,computer,Desktop or Laptop,Mac OS 10.15.7,Chrome 121.0.0.0,1440x900,1440x676,NA,NA,0,BIQ (Charlotte),3,ABJCIDHEGF,Passed AC2,NA,Spreadsheet1,1,BIQ,Screen 3,iz3the,3,continue,,19081.3,19067,19081.3,19081.3,19067,19081.3,1,19081.3,0,0,NA,Click To Continue,Continue Button,22,object-73,BIQ,NA,SUPPRF40465
11,1.70795E+12,14/02/2024 21:11,1.70795E+12,0,14/02/2024 21:11,165975,4,task-gjqt,NA,35158954,10389709,NA,complete,NA,65cd2ae8ae300aebd05b7b20,computer,Desktop or Laptop,Mac OS 10.15.7,Chrome 121.0.0.0,1440x900,1440x676,NA,NA,0,BIQ (Charlotte),3,ABJCIDHEGF,Passed AC2,NA,Spreadsheet1,1,BIQ,Screen 3,iz3the,3,response,2,7650.1,19067,19083.7,7650.1,19067,19083.7,1,7650.1,11433.6,0,NA,Rating Scale,Rating Scale,2,object-53,BIQ,NA,SUPPRF40465
12,1.70795E+12,14/02/2024 21:11,1.70795E+12,0,14/02/2024 21:11,165975,4,task-gjqt,NA,35158954,10389709,NA,complete,NA,65cd2ae8ae300aebd05b7b20,computer,Desktop or Laptop,Mac OS 10.15.7,Chrome 121.0.0.0,1440x900,1440x676,NA,NA,0,BIQ (Charlotte),3,ABJCIDHEGF,Passed AC2,NA,Spreadsheet1,1,BIQ,Screen 3,iz3the,3,response,6,14732.6,19067,19083.7,14732.6,19067,19083.7,1,14732.6,4351.1,0,NA,Rating Scale,Rating Scale,9,object-60,BIQ,NA,SUPPRF40465
13,1.70795E+12,14/02/2024 21:11,1.70795E+12,0,14/02/2024 21:11,165975,4,task-gjqt,NA,35158954,10389709,NA,complete,NA,65cd2ae8ae300aebd05b7b20,computer,Desktop or Laptop,Mac OS 10.15.7,Chrome 121.0.0.0,1440x900,1440x676,NA,NA,0,BIQ (Charlotte),3,ABJCIDHEGF,Passed AC2,NA,Spreadsheet1,1,BIQ,Screen 3,iz3the,3,response,4,18516.2,19067,19083.7,18516.2,19067,19083.7,1,18516.2,567.5,0,NA,Rating Scale,Rating Scale,16,object-67,BIQ,NA,SUPPRF40465
14,1.70795E+12,14/02/2024 21:11,1.70795E+12,0,14/02/2024 21:11,165975,4,task-gjqt,NA,35158954,10389709,NA,complete,NA,65cd2ae8ae300aebd05b7b20,computer,Desktop or Laptop,Mac OS 10.15.7,Chrome 121.0.0.0,1440x900,1440x676,NA,NA,0,BIQ (Charlotte),3,ABJCIDHEGF,Passed AC2,NA,Spreadsheet1,NA,,,,NA,5,END,NA,NA,NA,NA,NA,NA,0,NA,NA,NA,NA,,,NA,,,NA,SUPPRF40465
1,1.70795E+12,14/02/2024 21:39,1.70795E+12,0,14/02/2024 21:39,165975,4,task-gjqt,NA,35159503,10389752,NA,complete,NA,65cd2bd69dae843a0d0fa55a,computer,Desktop or Laptop,Windows 10,Chrome 121.0.0.0,1280x720,1280x632,NA,NA,0,BIQ (Charlotte),3,BCADJEIFHG,Passed AC2,NA,Spreadsheet1,NA,,,,NA,5,BEGIN,NA,NA,NA,NA,NA,NA,0,NA,NA,NA,NA,,,NA,,,NA,SUPPRF16777
2,1.70795E+12,14/02/2024 21:41,1.70795E+12,0,14/02/2024 21:41,165975,4,task-gjqt,NA,35159503,10389752,NA,complete,NA,65cd2bd69dae843a0d0fa55a,computer,Desktop or Laptop,Windows 10,Chrome 121.0.0.0,1280x720,1280x632,NA,NA,0,BIQ (Charlotte),3,BCADJEIFHG,Passed AC2,NA,Spreadsheet1,1,BIQ,Screen 1,9dh6eq,1,continue,,152001.8,151985.3,152001.8,152001.8,151985.3,152001.8,1,152001.8,0,0,NA,Click To Continue,Continue Button,23,object-48,BIQ,NA,SUPPRF16777
3,1.70795E+12,14/02/2024 21:41,1.70795E+12,0,14/02/2024 21:41,165975,4,task-gjqt,NA,35159503,10389752,NA,complete,NA,65cd2bd69dae843a0d0fa55a,computer,Desktop or Laptop,Windows 10,Chrome 121.0.0.0,1280x720,1280x632,NA,NA,0,BIQ (Charlotte),3,BCADJEIFHG,Passed AC2,NA,Spreadsheet1,1,BIQ,Screen 1,9dh6eq,1,response,1,78670.6,151985.3,152001.8,78670.6,151985.3,152001.8,1,78670.6,73331.2,0,NA,Rating Scale,Rating Scale,3,object-5,BIQ,NA,SUPPRF16777
4,1.70795E+12,14/02/2024 21:41,1.70795E+12,0,14/02/2024 21:41,165975,4,task-gjqt,NA,35159503,10389752,NA,complete,NA,65cd2bd69dae843a0d0fa55a,computer,Desktop or Laptop,Windows 10,Chrome 121.0.0.0,1280x720,1280x632,NA,NA,0,BIQ (Charlotte),3,BCADJEIFHG,Passed AC2,NA,Spreadsheet1,1,BIQ,Screen 1,9dh6eq,1,response,8,91906.6,151985.3,152001.8,91906.6,151985.3,152001.8,1,91906.6,60095.2,0,NA,Rating Scale,Rating Scale,10,object-18,BIQ,NA,SUPPRF16777
5,1.70795E+12,14/02/2024 21:41,1.70795E+12,0,14/02/2024 21:41,165975,4,task-gjqt,NA,35159503,10389752,NA,complete,NA,65cd2bd69dae843a0d0fa55a,computer,Desktop or Laptop,Windows 10,Chrome 121.0.0.0,1280x720,1280x632,NA,NA,0,BIQ (Charlotte),3,BCADJEIFHG,Passed AC2,NA,Spreadsheet1,1,BIQ,Screen 1,9dh6eq,1,response,0,148034.9,151985.3,152001.8,148034.9,151985.3,152001.8,1,148034.9,3966.9,0,NA,Rating Scale,Rating Scale,17,object-80,BIQ,NA,SUPPRF16777
6,1.70795E+12,14/02/2024 21:42,1.70795E+12,0,14/02/2024 21:42,165975,4,task-gjqt,NA,35159503,10389752,NA,complete,NA,65cd2bd69dae843a0d0fa55a,computer,Desktop or Laptop,Windows 10,Chrome 121.0.0.0,1280x720,1280x632,NA,NA,0,BIQ (Charlotte),3,BCADJEIFHG,Passed AC2,NA,Spreadsheet1,1,BIQ,Screen 2,o21mwi,2,continue,,28395.8,28389.5,28395.8,28395.8,28389.5,28395.8,1,28395.8,0,0,NA,Click To Continue,Continue Button,22,object-50,BIQ,NA,SUPPRF16777
7,1.70795E+12,14/02/2024 21:42,1.70795E+12,0,14/02/2024 21:42,165975,4,task-gjqt,NA,35159503,10389752,NA,complete,NA,65cd2bd69dae843a0d0fa55a,computer,Desktop or Laptop,Windows 10,Chrome 121.0.0.0,1280x720,1280x632,NA,NA,0,BIQ (Charlotte),3,BCADJEIFHG,Passed AC2,NA,Spreadsheet1,1,BIQ,Screen 2,o21mwi,2,response,8,10985.7,28389.5,28401.4,10985.7,28389.5,28401.4,1,10985.7,17415.7,0,NA,Rating Scale,Rating Scale,2,object-259,BIQ,NA,SUPPRF16777
8,1.70795E+12,14/02/2024 21:42,1.70795E+12,0,14/02/2024 21:42,165975,4,task-gjqt,NA,35159503,10389752,NA,complete,NA,65cd2bd69dae843a0d0fa55a,computer,Desktop or Laptop,Windows 10,Chrome 121.0.0.0,1280x720,1280x632,NA,NA,0,BIQ (Charlotte),3,BCADJEIFHG,Passed AC2,NA,Spreadsheet1,1,BIQ,Screen 2,o21mwi,2,response,0,16553.4,28389.5,28402,16553.4,28389.5,28402,1,16553.4,11848.6,0,NA,Rating Scale,Rating Scale,9,object-36,BIQ,NA,SUPPRF16777
9,1.70795E+12,14/02/2024 21:42,1.70795E+12,0,14/02/2024 21:42,165975,4,task-gjqt,NA,35159503,10389752,NA,complete,NA,65cd2bd69dae843a0d0fa55a,computer,Desktop or Laptop,Windows 10,Chrome 121.0.0.0,1280x720,1280x632,NA,NA,0,BIQ (Charlotte),3,BCADJEIFHG,Passed AC2,NA,Spreadsheet1,1,BIQ,Screen 2,o21mwi,2,response,2,27555.9,28389.5,28402.7,27555.9,28389.5,28402.7,1,27555.9,846.8,0,NA,Rating Scale,Rating Scale,16,object-86,BIQ,NA,SUPPRF16777
10,1.70795E+12,14/02/2024 21:42,1.70795E+12,0,14/02/2024 21:42,165975,4,task-gjqt,NA,35159503,10389752,NA,complete,NA,65cd2bd69dae843a0d0fa55a,computer,Desktop or Laptop,Windows 10,Chrome 121.0.0.0,1280x720,1280x632,NA,NA,0,BIQ (Charlotte),3,BCADJEIFHG,Passed AC2,NA,Spreadsheet1,1,BIQ,Screen 3,iz3the,3,continue,,14382,14369.5,14382,14382,14369.5,14382,1,14382,0,0,NA,Click To Continue,Continue Button,22,object-73,BIQ,NA,SUPPRF16777
11,1.70795E+12,14/02/2024 21:42,1.70795E+12,0,14/02/2024 21:42,165975,4,task-gjqt,NA,35159503,10389752,NA,complete,NA,65cd2bd69dae843a0d0fa55a,computer,Desktop or Laptop,Windows 10,Chrome 121.0.0.0,1280x720,1280x632,NA,NA,0,BIQ (Charlotte),3,BCADJEIFHG,Passed AC2,NA,Spreadsheet1,1,BIQ,Screen 3,iz3the,3,response,0,4600.6,14369.5,14386.2,4600.6,14369.5,14386.2,1,4600.6,9785.6,0,NA,Rating Scale,Rating Scale,2,object-53,BIQ,NA,SUPPRF16777
12,1.70795E+12,14/02/2024 21:42,1.70795E+12,0,14/02/2024 21:42,165975,4,task-gjqt,NA,35159503,10389752,NA,complete,NA,65cd2bd69dae843a0d0fa55a,computer,Desktop or Laptop,Windows 10,Chrome 121.0.0.0,1280x720,1280x632,NA,NA,0,BIQ (Charlotte),3,BCADJEIFHG,Passed AC2,NA,Spreadsheet1,1,BIQ,Screen 3,iz3the,3,response,0,8001.4,14369.5,14386.2,8001.4,14369.5,14386.2,1,8001.4,6384.8,0,NA,Rating Scale,Rating Scale,9,object-60,BIQ,NA,SUPPRF16777
13,1.70795E+12,14/02/2024 21:42,1.70795E+12,0,14/02/2024 21:42,165975,4,task-gjqt,NA,35159503,10389752,NA,complete,NA,65cd2bd69dae843a0d0fa55a,computer,Desktop or Laptop,Windows 10,Chrome 121.0.0.0,1280x720,1280x632,NA,NA,0,BIQ (Charlotte),3,BCADJEIFHG,Passed AC2,NA,Spreadsheet1,1,BIQ,Screen 3,iz3the,3,response,2,13602.6,14369.5,14386.2,13602.6,14369.5,14386.2,1,13602.6,783.6,0,NA,Rating Scale,Rating Scale,16,object-67,BIQ,NA,SUPPRF16777
14,1.70795E+12,14/02/2024 21:42,1.70795E+12,0,14/02/2024 21:42,165975,4,task-gjqt,NA,35159503,10389752,NA,complete,NA,65cd2bd69dae843a0d0fa55a,computer,Desktop or Laptop,Windows 10,Chrome 121.0.0.0,1280x720,1280x632,NA,NA,0,BIQ (Charlotte),3,BCADJEIFHG,Passed AC2,NA,Spreadsheet1,NA,,,,NA,5,END,NA,NA,NA,NA,NA,NA,0,NA,NA,NA,NA,,,NA,,,NA,SUPPRF16777
1,1.70795E+12,14/02/2024 21:45,1.70793E+12,-5,14/02/2024 11:45,165975,4,task-gjqt,NA,35159664,10389981,NA,complete,NA,65cd338a0239a19d29ad36c2,computer,Desktop or Laptop,Mac OS 10.15.7,Chrome 121.0.0.0,1440x900,1440x779,NA,NA,0,BIQ (Charlotte),3,FGEHDICJBA,Passed AC2,NA,Spreadsheet1,NA,,,,NA,5,BEGIN,NA,NA,NA,NA,NA,NA,0,NA,NA,NA,NA,,,NA,,,NA,SUPPRF20506
2,1.70795E+12,14/02/2024 21:48,1.70793E+12,-5,14/02/2024 11:48,165975,4,task-gjqt,NA,35159664,10389981,NA,complete,NA,65cd338a0239a19d29ad36c2,computer,Desktop or Laptop,Mac OS 10.15.7,Chrome 121.0.0.0,1440x900,1440x779,NA,NA,0,BIQ (Charlotte),3,FGEHDICJBA,Passed AC2,NA,Spreadsheet1,1,BIQ,Screen 1,9dh6eq,1,continue,,137391.8,137376.1,137391.8,137391.8,137376.1,137391.8,1,137391.8,0,0,NA,Click To Continue,Continue Button,23,object-48,BIQ,NA,SUPPRF20506
3,1.70795E+12,14/02/2024 21:48,1.70793E+12,-5,14/02/2024 11:48,165975,4,task-gjqt,NA,35159664,10389981,NA,complete,NA,65cd338a0239a19d29ad36c2,computer,Desktop or Laptop,Mac OS 10.15.7,Chrome 121.0.0.0,1440x900,1440x779,NA,NA,0,BIQ (Charlotte),3,FGEHDICJBA,Passed AC2,NA,Spreadsheet1,1,BIQ,Screen 1,9dh6eq,1,response,7,124826.1,137376.1,137392.7,124826.1,137376.1,137392.7,1,124826.1,12566.6,0,NA,Rating Scale,Rating Scale,3,object-5,BIQ,NA,SUPPRF20506
4,1.70795E+12,14/02/2024 21:48,1.70793E+12,-5,14/02/2024 11:48,165975,4,task-gjqt,NA,35159664,10389981,NA,complete,NA,65cd338a0239a19d29ad36c2,computer,Desktop or Laptop,Mac OS 10.15.7,Chrome 121.0.0.0,1440x900,1440x779,NA,NA,0,BIQ (Charlotte),3,FGEHDICJBA,Passed AC2,NA,Spreadsheet1,1,BIQ,Screen 1,9dh6eq,1,response,0,129575.4,137376.1,137392.7,129575.4,137376.1,137392.7,1,129575.4,7817.3,0,NA,Rating Scale,Rating Scale,10,object-18,BIQ,NA,SUPPRF20506
5,1.70795E+12,14/02/2024 21:48,1.70793E+12,-5,14/02/2024 11:48,165975,4,task-gjqt,NA,35159664,10389981,NA,complete,NA,65cd338a0239a19d29ad36c2,computer,Desktop or Laptop,Mac OS 10.15.7,Chrome 121.0.0.0,1440x900,1440x779,NA,NA,0,BIQ (Charlotte),3,FGEHDICJBA,Passed AC2,NA,Spreadsheet1,1,BIQ,Screen 1,9dh6eq,1,response,1,136192.2,137376.1,137392.7,136192.2,137376.1,137392.7,1,136192.2,1200.5,0,NA,Rating Scale,Rating Scale,17,object-80,BIQ,NA,SUPPRF20506
6,1.70795E+12,14/02/2024 21:48,1.70793E+12,-5,14/02/2024 11:48,165975,4,task-gjqt,NA,35159664,10389981,NA,complete,NA,65cd338a0239a19d29ad36c2,computer,Desktop or Laptop,Mac OS 10.15.7,Chrome 121.0.0.0,1440x900,1440x779,NA,NA,0,BIQ (Charlotte),3,FGEHDICJBA,Passed AC2,NA,Spreadsheet1,1,BIQ,Screen 2,o21mwi,2,continue,,31356.7,31349.9,31356.7,31356.7,31349.9,31356.7,1,31356.7,0,0,NA,Click To Continue,Continue Button,22,object-50,BIQ,NA,SUPPRF20506
7,1.70795E+12,14/02/2024 21:48,1.70793E+12,-5,14/02/2024 11:48,165975,4,task-gjqt,NA,35159664,10389981,NA,complete,NA,65cd338a0239a19d29ad36c2,computer,Desktop or Laptop,Mac OS 10.15.7,Chrome 121.0.0.0,1440x900,1440x779,NA,NA,0,BIQ (Charlotte),3,FGEHDICJBA,Passed AC2,NA,Spreadsheet1,1,BIQ,Screen 2,o21mwi,2,response,0,9149,31349.9,31361.4,9149,31349.9,31361.4,1,9149,22212.4,0,NA,Rating Scale,Rating Scale,2,object-259,BIQ,NA,SUPPRF20506
8,1.70795E+12,14/02/2024 21:48,1.70793E+12,-5,14/02/2024 11:48,165975,4,task-gjqt,NA,35159664,10389981,NA,complete,NA,65cd338a0239a19d29ad36c2,computer,Desktop or Laptop,Mac OS 10.15.7,Chrome 121.0.0.0,1440x900,1440x779,NA,NA,0,BIQ (Charlotte),3,FGEHDICJBA,Passed AC2,NA,Spreadsheet1,1,BIQ,Screen 2,o21mwi,2,response,0,16915.5,31349.9,31362.4,16915.5,31349.9,31362.4,1,16915.5,14446.9,0,NA,Rating Scale,Rating Scale,9,object-36,BIQ,NA,SUPPRF20506
9,1.70795E+12,14/02/2024 21:48,1.70793E+12,-5,14/02/2024 11:48,165975,4,task-gjqt,NA,35159664,10389981,NA,complete,NA,65cd338a0239a19d29ad36c2,computer,Desktop or Laptop,Mac OS 10.15.7,Chrome 121.0.0.0,1440x900,1440x779,NA,NA,0,BIQ (Charlotte),3,FGEHDICJBA,Passed AC2,NA,Spreadsheet1,1,BIQ,Screen 2,o21mwi,2,response,0,28498.7,31349.9,31362.9,28498.7,31349.9,31362.9,1,28498.7,2864.2,0,NA,Rating Scale,Rating Scale,16,object-86,BIQ,NA,SUPPRF20506
10,1.70795E+12,14/02/2024 21:48,1.70793E+12,-5,14/02/2024 11:48,165975,4,task-gjqt,NA,35159664,10389981,NA,complete,NA,65cd338a0239a19d29ad36c2,computer,Desktop or Laptop,Mac OS 10.15.7,Chrome 121.0.0.0,1440x900,1440x779,NA,NA,0,BIQ (Charlotte),3,FGEHDICJBA,Passed AC2,NA,Spreadsheet1,1,BIQ,Screen 3,iz3the,3,continue,,21891.3,21882.3,21891.3,21891.3,21882.3,21891.3,1,21891.3,0,0,NA,Click To Continue,Continue Button,22,object-73,BIQ,NA,SUPPRF20506
11,1.70795E+12,14/02/2024 21:48,1.70793E+12,-5,14/02/2024 11:48,165975,4,task-gjqt,NA,35159664,10389981,NA,complete,NA,65cd338a0239a19d29ad36c2,computer,Desktop or Laptop,Mac OS 10.15.7,Chrome 121.0.0.0,1440x900,1440x779,NA,NA,0,BIQ (Charlotte),3,FGEHDICJBA,Passed AC2,NA,Spreadsheet1,1,BIQ,Screen 3,iz3the,3,response,0,7616.3,21882.3,21893.9,7616.3,21882.3,21893.9,1,7616.3,14277.6,0,NA,Rating Scale,Rating Scale,2,object-53,BIQ,NA,SUPPRF20506
12,1.70795E+12,14/02/2024 21:48,1.70793E+12,-5,14/02/2024 11:48,165975,4,task-gjqt,NA,35159664,10389981,NA,complete,NA,65cd338a0239a19d29ad36c2,computer,Desktop or Laptop,Mac OS 10.15.7,Chrome 121.0.0.0,1440x900,1440x779,NA,NA,0,BIQ (Charlotte),3,FGEHDICJBA,Passed AC2,NA,Spreadsheet1,1,BIQ,Screen 3,iz3the,3,response,0,17432.2,21882.3,21894.4,17432.2,21882.3,21894.4,1,17432.2,4462.2,0,NA,Rating Scale,Rating Scale,9,object-60,BIQ,NA,SUPPRF20506
13,1.70795E+12,14/02/2024 21:48,1.70793E+12,-5,14/02/2024 11:48,165975,4,task-gjqt,NA,35159664,10389981,NA,complete,NA,65cd338a0239a19d29ad36c2,computer,Desktop or Laptop,Mac OS 10.15.7,Chrome 121.0.0.0,1440x900,1440x779,NA,NA,0,BIQ (Charlotte),3,FGEHDICJBA,Passed AC2,NA,Spreadsheet1,1,BIQ,Screen 3,iz3the,3,response,0,21082.8,21882.3,21894.8,21082.8,21882.3,21894.8,1,21082.8,812,0,NA,Rating Scale,Rating Scale,16,object-67,BIQ,NA,SUPPRF20506
14,1.70795E+12,14/02/2024 21:48,1.70793E+12,-5,14/02/2024 11:48,165975,4,task-gjqt,NA,35159664,10389981,NA,complete,NA,65cd338a0239a19d29ad36c2,computer,Desktop or Laptop,Mac OS 10.15.7,Chrome 121.0.0.0,1440x900,1440x779,NA,NA,0,BIQ (Charlotte),3,FGEHDICJBA,Passed AC2,NA,Spreadsheet1,NA,,,,NA,5,END,NA,NA,NA,NA,NA,NA,0,NA,NA,NA,NA,,,NA,,,NA,SUPPRF20506
1,1.70795E+12,14/02/2024 21:44,1.70793E+12,-5,14/02/2024 11:44,165975,4,task-gjqt,NA,35159639,10389987,NA,complete,NA,65cd33dfef34c8f5a60aecef,computer,Desktop or Laptop,Windows 10,Chrome 120.0.0.0,1920x1080,1920x919,NA,NA,0,BIQ (Charlotte),3,EFDGCHBIAJ,Passed AC2,NA,Spreadsheet1,NA,,,,NA,5,BEGIN,NA,NA,NA,NA,NA,NA,0,NA,NA,NA,NA,,,NA,,,NA,SUPPRF86890
2,1.70795E+12,14/02/2024 21:45,1.70793E+12,-5,14/02/2024 11:45,165975,4,task-gjqt,NA,35159639,10389987,NA,complete,NA,65cd33dfef34c8f5a60aecef,computer,Desktop or Laptop,Windows 10,Chrome 120.0.0.0,1920x1080,1920x919,NA,NA,0,BIQ (Charlotte),3,EFDGCHBIAJ,Passed AC2,NA,Spreadsheet1,1,BIQ,Screen 1,9dh6eq,1,continue,,9890.8,9874.2,9890.8,9890.8,9874.2,9890.8,1,9890.8,0,0,NA,Click To Continue,Continue Button,23,object-48,BIQ,NA,SUPPRF86890
3,1.70795E+12,14/02/2024 21:45,1.70793E+12,-5,14/02/2024 11:45,165975,4,task-gjqt,NA,35159639,10389987,NA,complete,NA,65cd33dfef34c8f5a60aecef,computer,Desktop or Laptop,Windows 10,Chrome 120.0.0.0,1920x1080,1920x919,NA,NA,0,BIQ (Charlotte),3,EFDGCHBIAJ,Passed AC2,NA,Spreadsheet1,1,BIQ,Screen 1,9dh6eq,1,response,6,6776.8,9874.2,9890.9,6776.8,9874.2,9890.9,1,6776.8,3114.1,0,NA,Rating Scale,Rating Scale,3,object-5,BIQ,NA,SUPPRF86890
4,1.70795E+12,14/02/2024 21:45,1.70793E+12,-5,14/02/2024 11:45,165975,4,task-gjqt,NA,35159639,10389987,NA,complete,NA,65cd33dfef34c8f5a60aecef,computer,Desktop or Laptop,Windows 10,Chrome 120.0.0.0,1920x1080,1920x919,NA,NA,0,BIQ (Charlotte),3,EFDGCHBIAJ,Passed AC2,NA,Spreadsheet1,1,BIQ,Screen 1,9dh6eq,1,response,8,8558.6,9874.2,9890.9,8558.6,9874.2,9890.9,1,8558.6,1332.3,0,NA,Rating Scale,Rating Scale,10,object-18,BIQ,NA,SUPPRF86890
5,1.70795E+12,14/02/2024 21:45,1.70793E+12,-5,14/02/2024 11:45,165975,4,task-gjqt,NA,35159639,10389987,NA,complete,NA,65cd33dfef34c8f5a60aecef,computer,Desktop or Laptop,Windows 10,Chrome 120.0.0.0,1920x1080,1920x919,NA,NA,0,BIQ (Charlotte),3,EFDGCHBIAJ,Passed AC2,NA,Spreadsheet1,1,BIQ,Screen 1,9dh6eq,1,response,7,9091.6,9874.2,9890.9,9091.6,9874.2,9890.9,1,9091.6,799.3,0,NA,Rating Scale,Rating Scale,17,object-80,BIQ,NA,SUPPRF86890
6,1.70795E+12,14/02/2024 21:45,1.70793E+12,-5,14/02/2024 11:45,165975,4,task-gjqt,NA,35159639,10389987,NA,complete,NA,65cd33dfef34c8f5a60aecef,computer,Desktop or Laptop,Windows 10,Chrome 120.0.0.0,1920x1080,1920x919,NA,NA,0,BIQ (Charlotte),3,EFDGCHBIAJ,Passed AC2,NA,Spreadsheet1,1,BIQ,Screen 2,o21mwi,2,continue,,3412.2,3397.3,3412.2,3412.2,3397.3,3412.2,1,3412.2,0,0,NA,Click To Continue,Continue Button,22,object-50,BIQ,NA,SUPPRF86890
7,1.70795E+12,14/02/2024 21:45,1.70793E+12,-5,14/02/2024 11:45,165975,4,task-gjqt,NA,35159639,10389987,NA,complete,NA,65cd33dfef34c8f5a60aecef,computer,Desktop or Laptop,Windows 10,Chrome 120.0.0.0,1920x1080,1920x919,NA,NA,0,BIQ (Charlotte),3,EFDGCHBIAJ,Passed AC2,NA,Spreadsheet1,1,BIQ,Screen 2,o21mwi,2,response,7,1315.6,3397.3,3414,1315.6,3397.3,3414,1,1315.6,2098.4,0,NA,Rating Scale,Rating Scale,2,object-259,BIQ,NA,SUPPRF86890
8,1.70795E+12,14/02/2024 21:45,1.70793E+12,-5,14/02/2024 11:45,165975,4,task-gjqt,NA,35159639,10389987,NA,complete,NA,65cd33dfef34c8f5a60aecef,computer,Desktop or Laptop,Windows 10,Chrome 120.0.0.0,1920x1080,1920x919,NA,NA,0,BIQ (Charlotte),3,EFDGCHBIAJ,Passed AC2,NA,Spreadsheet1,1,BIQ,Screen 2,o21mwi,2,response,6,2115,3397.3,3414,2115,3397.3,3414,1,2115,1299,0,NA,Rating Scale,Rating Scale,9,object-36,BIQ,NA,SUPPRF86890
9,1.70795E+12,14/02/2024 21:45,1.70793E+12,-5,14/02/2024 11:45,165975,4,task-gjqt,NA,35159639,10389987,NA,complete,NA,65cd33dfef34c8f5a60aecef,computer,Desktop or Laptop,Windows 10,Chrome 120.0.0.0,1920x1080,1920x919,NA,NA,0,BIQ (Charlotte),3,EFDGCHBIAJ,Passed AC2,NA,Spreadsheet1,1,BIQ,Screen 2,o21mwi,2,response,7,2631.3,3397.3,3414,2631.3,3397.3,3414,1,2631.3,782.7,0,NA,Rating Scale,Rating Scale,16,object-86,BIQ,NA,SUPPRF86890
10,1.70795E+12,14/02/2024 21:45,1.70793E+12,-5,14/02/2024 11:45,165975,4,task-gjqt,NA,35159639,10389987,NA,complete,NA,65cd33dfef34c8f5a60aecef,computer,Desktop or Laptop,Windows 10,Chrome 120.0.0.0,1920x1080,1920x919,NA,NA,0,BIQ (Charlotte),3,EFDGCHBIAJ,Passed AC2,NA,Spreadsheet1,1,BIQ,Screen 3,iz3the,3,continue,,6649,6644.4,6649,6649,6644.4,6649,1,6649,0,0,NA,Click To Continue,Continue Button,22,object-73,BIQ,NA,SUPPRF86890
11,1.70795E+12,14/02/2024 21:45,1.70793E+12,-5,14/02/2024 11:45,165975,4,task-gjqt,NA,35159639,10389987,NA,complete,NA,65cd33dfef34c8f5a60aecef,computer,Desktop or Laptop,Windows 10,Chrome 120.0.0.0,1920x1080,1920x919,NA,NA,0,BIQ (Charlotte),3,EFDGCHBIAJ,Passed AC2,NA,Spreadsheet1,1,BIQ,Screen 3,iz3the,3,response,6,2348.1,6644.4,6649.6,2348.1,6644.4,6649.6,1,2348.1,4301.5,0,NA,Rating Scale,Rating Scale,2,object-53,BIQ,NA,SUPPRF86890
12,1.70795E+12,14/02/2024 21:45,1.70793E+12,-5,14/02/2024 11:45,165975,4,task-gjqt,NA,35159639,10389987,NA,complete,NA,65cd33dfef34c8f5a60aecef,computer,Desktop or Laptop,Windows 10,Chrome 120.0.0.0,1920x1080,1920x919,NA,NA,0,BIQ (Charlotte),3,EFDGCHBIAJ,Passed AC2,NA,Spreadsheet1,1,BIQ,Screen 3,iz3the,3,response,7,2864.2,6644.4,6649.9,2864.2,6644.4,6649.9,1,2864.2,3785.7,0,NA,Rating Scale,Rating Scale,9,object-60,BIQ,NA,SUPPRF86890
13,1.70795E+12,14/02/2024 21:45,1.70793E+12,-5,14/02/2024 11:45,165975,4,task-gjqt,NA,35159639,10389987,NA,complete,NA,65cd33dfef34c8f5a60aecef,computer,Desktop or Laptop,Windows 10,Chrome 120.0.0.0,1920x1080,1920x919,NA,NA,0,BIQ (Charlotte),3,EFDGCHBIAJ,Passed AC2,NA,Spreadsheet1,1,BIQ,Screen 3,iz3the,3,response,4,4529.6,6644.4,6650.4,4529.6,6644.4,6650.4,1,4529.6,2120.8,0,NA,Rating Scale,Rating Scale,16,object-67,BIQ,NA,SUPPRF86890
14,1.70795E+12,14/02/2024 21:45,1.70793E+12,-5,14/02/2024 11:45,165975,4,task-gjqt,NA,35159639,10389987,NA,complete,NA,65cd33dfef34c8f5a60aecef,computer,Desktop or Laptop,Windows 10,Chrome 120.0.0.0,1920x1080,1920x919,NA,NA,0,BIQ (Charlotte),3,EFDGCHBIAJ,Passed AC2,NA,Spreadsheet1,NA,,,,NA,5,END,NA,NA,NA,NA,NA,NA,0,NA,NA,NA,NA,,,NA,,,NA,SUPPRF86890
1,1.70795E+12,14/02/2024 22:33,1.70795E+12,1,15/02/2024 00:33,165975,4,task-gjqt,NA,35160783,10390088,NA,complete,NA,65cd38310bb5765ca0640f9b,computer,Desktop or Laptop,Windows 10,Chrome 121.0.0.0,1366x768,1366x641,NA,NA,0,BIQ (Charlotte),3,JAIBHCGDFE,Passed AC2,NA,Spreadsheet1,NA,,,,NA,5,BEGIN,NA,NA,NA,NA,NA,NA,0,NA,NA,NA,NA,,,NA,,,NA,SUPPRF75152
2,1.70795E+12,14/02/2024 22:36,1.70795E+12,1,15/02/2024 00:36,165975,4,task-gjqt,NA,35160783,10390088,NA,complete,NA,65cd38310bb5765ca0640f9b,computer,Desktop or Laptop,Windows 10,Chrome 121.0.0.0,1366x768,1366x641,NA,NA,0,BIQ (Charlotte),3,JAIBHCGDFE,Passed AC2,NA,Spreadsheet1,1,BIQ,Screen 1,9dh6eq,1,continue,,172557.912,172532.812,172557.912,172557.912,172532.812,172557.912,1,172557.912,0,0,NA,Click To Continue,Continue Button,23,object-48,BIQ,NA,SUPPRF75152
3,1.70795E+12,14/02/2024 22:36,1.70795E+12,1,15/02/2024 00:36,165975,4,task-gjqt,NA,35160783,10390088,NA,complete,NA,65cd38310bb5765ca0640f9b,computer,Desktop or Laptop,Windows 10,Chrome 121.0.0.0,1366x768,1366x641,NA,NA,0,BIQ (Charlotte),3,JAIBHCGDFE,Passed AC2,NA,Spreadsheet1,1,BIQ,Screen 1,9dh6eq,1,response,7,150061.712,172532.812,172557.912,150061.712,172532.812,172557.912,1,150061.712,22496.2,0,NA,Rating Scale,Rating Scale,3,object-5,BIQ,NA,SUPPRF75152
4,1.70795E+12,14/02/2024 22:36,1.70795E+12,1,15/02/2024 00:36,165975,4,task-gjqt,NA,35160783,10390088,NA,complete,NA,65cd38310bb5765ca0640f9b,computer,Desktop or Laptop,Windows 10,Chrome 121.0.0.0,1366x768,1366x641,NA,NA,0,BIQ (Charlotte),3,JAIBHCGDFE,Passed AC2,NA,Spreadsheet1,1,BIQ,Screen 1,9dh6eq,1,response,6,161535.312,172532.812,172557.912,161535.312,172532.812,172557.912,1,161535.312,11022.6,0,NA,Rating Scale,Rating Scale,10,object-18,BIQ,NA,SUPPRF75152
5,1.70795E+12,14/02/2024 22:36,1.70795E+12,1,15/02/2024 00:36,165975,4,task-gjqt,NA,35160783,10390088,NA,complete,NA,65cd38310bb5765ca0640f9b,computer,Desktop or Laptop,Windows 10,Chrome 121.0.0.0,1366x768,1366x641,NA,NA,0,BIQ (Charlotte),3,JAIBHCGDFE,Passed AC2,NA,Spreadsheet1,1,BIQ,Screen 1,9dh6eq,1,response,7,171330.112,172532.812,172557.912,171330.112,172532.812,172557.912,1,171330.112,1227.8,0,NA,Rating Scale,Rating Scale,17,object-80,BIQ,NA,SUPPRF75152
6,1.70795E+12,14/02/2024 22:37,1.70795E+12,1,15/02/2024 00:37,165975,4,task-gjqt,NA,35160783,10390088,NA,complete,NA,65cd38310bb5765ca0640f9b,computer,Desktop or Laptop,Windows 10,Chrome 121.0.0.0,1366x768,1366x641,NA,NA,0,BIQ (Charlotte),3,JAIBHCGDFE,Passed AC2,NA,Spreadsheet1,1,BIQ,Screen 2,o21mwi,2,continue,,91554.2,91537,91554.2,91554.2,91537,91554.2,1,91554.2,0,0,NA,Click To Continue,Continue Button,22,object-50,BIQ,NA,SUPPRF75152
7,1.70795E+12,14/02/2024 22:37,1.70795E+12,1,15/02/2024 00:37,165975,4,task-gjqt,NA,35160783,10390088,NA,complete,NA,65cd38310bb5765ca0640f9b,computer,Desktop or Laptop,Windows 10,Chrome 121.0.0.0,1366x768,1366x641,NA,NA,0,BIQ (Charlotte),3,JAIBHCGDFE,Passed AC2,NA,Spreadsheet1,1,BIQ,Screen 2,o21mwi,2,response,7,6938.9,91537,91562,6938.9,91537,91562,1,6938.9,84623.1,0,NA,Rating Scale,Rating Scale,2,object-259,BIQ,NA,SUPPRF75152
8,1.70795E+12,14/02/2024 22:37,1.70795E+12,1,15/02/2024 00:37,165975,4,task-gjqt,NA,35160783,10390088,NA,complete,NA,65cd38310bb5765ca0640f9b,computer,Desktop or Laptop,Windows 10,Chrome 121.0.0.0,1366x768,1366x641,NA,NA,0,BIQ (Charlotte),3,JAIBHCGDFE,Passed AC2,NA,Spreadsheet1,1,BIQ,Screen 2,o21mwi,2,response,7,79011.6,91537,91562.1,79011.6,91537,91562.1,1,79011.6,12550.5,0,NA,Rating Scale,Rating Scale,9,object-36,BIQ,NA,SUPPRF75152
9,1.70795E+12,14/02/2024 22:37,1.70795E+12,1,15/02/2024 00:37,165975,4,task-gjqt,NA,35160783,10390088,NA,complete,NA,65cd38310bb5765ca0640f9b,computer,Desktop or Laptop,Windows 10,Chrome 121.0.0.0,1366x768,1366x641,NA,NA,0,BIQ (Charlotte),3,JAIBHCGDFE,Passed AC2,NA,Spreadsheet1,1,BIQ,Screen 2,o21mwi,2,response,7,90334.3,91537,91562.1,90334.3,91537,91562.1,1,90334.3,1227.8,0,NA,Rating Scale,Rating Scale,16,object-86,BIQ,NA,SUPPRF75152
10,1.70795E+12,14/02/2024 22:38,1.70795E+12,1,15/02/2024 00:38,165975,4,task-gjqt,NA,35160783,10390088,NA,complete,NA,65cd38310bb5765ca0640f9b,computer,Desktop or Laptop,Windows 10,Chrome 121.0.0.0,1366x768,1366x641,NA,NA,0,BIQ (Charlotte),3,JAIBHCGDFE,Passed AC2,NA,Spreadsheet1,1,BIQ,Screen 3,iz3the,3,continue,,60798,60774.1,60798,60798,60774.1,60798,1,60798,0,0,NA,Click To Continue,Continue Button,22,object-73,BIQ,NA,SUPPRF75152
11,1.70795E+12,14/02/2024 22:38,1.70795E+12,1,15/02/2024 00:38,165975,4,task-gjqt,NA,35160783,10390088,NA,complete,NA,65cd38310bb5765ca0640f9b,computer,Desktop or Laptop,Windows 10,Chrome 121.0.0.0,1366x768,1366x641,NA,NA,0,BIQ (Charlotte),3,JAIBHCGDFE,Passed AC2,NA,Spreadsheet1,1,BIQ,Screen 3,iz3the,3,response,7,48590.3,60774.1,60799.2,48590.3,60774.1,60799.2,1,48590.3,12208.9,0,NA,Rating Scale,Rating Scale,2,object-53,BIQ,NA,SUPPRF75152
12,1.70795E+12,14/02/2024 22:38,1.70795E+12,1,15/02/2024 00:38,165975,4,task-gjqt,NA,35160783,10390088,NA,complete,NA,65cd38310bb5765ca0640f9b,computer,Desktop or Laptop,Windows 10,Chrome 121.0.0.0,1366x768,1366x641,NA,NA,0,BIQ (Charlotte),3,JAIBHCGDFE,Passed AC2,NA,Spreadsheet1,1,BIQ,Screen 3,iz3the,3,response,7,53233.5,60774.1,60799.2,53233.5,60774.1,60799.2,1,53233.5,7565.7,0,NA,Rating Scale,Rating Scale,9,object-60,BIQ,NA,SUPPRF75152
13,1.70795E+12,14/02/2024 22:38,1.70795E+12,1,15/02/2024 00:38,165975,4,task-gjqt,NA,35160783,10390088,NA,complete,NA,65cd38310bb5765ca0640f9b,computer,Desktop or Laptop,Windows 10,Chrome 121.0.0.0,1366x768,1366x641,NA,NA,0,BIQ (Charlotte),3,JAIBHCGDFE,Passed AC2,NA,Spreadsheet1,1,BIQ,Screen 3,iz3the,3,response,7,59446.4,60774.1,60799.2,59446.4,60774.1,60799.2,1,59446.4,1352.8,0,NA,Rating Scale,Rating Scale,16,object-67,BIQ,NA,SUPPRF75152
14,1.70795E+12,14/02/2024 22:38,1.70795E+12,1,15/02/2024 00:38,165975,4,task-gjqt,NA,35160783,10390088,NA,complete,NA,65cd38310bb5765ca0640f9b,computer,Desktop or Laptop,Windows 10,Chrome 121.0.0.0,1366x768,1366x641,NA,NA,0,BIQ (Charlotte),3,JAIBHCGDFE,Passed AC2,NA,Spreadsheet1,NA,,,,NA,5,END,NA,NA,NA,NA,NA,NA,0,NA,NA,NA,NA,,,NA,,,NA,SUPPRF75152
1,1.70795E+12,14/02/2024 22:16,1.70793E+12,-6,14/02/2024 10:16,165975,4,task-gjqt,NA,35160458,10390104,NA,complete,NA,65cd38aa94405b34e6d1f3c9,computer,Desktop or Laptop,Windows 10,Chrome 121.0.0.0,1280x720,1280x593,NA,NA,0,BIQ (Charlotte),3,IJHAGBFCED,Passed AC2,NA,Spreadsheet1,NA,,,,NA,5,BEGIN,NA,NA,NA,NA,NA,NA,0,NA,NA,NA,NA,,,NA,,,NA,SUPPRF64920
2,1.70795E+12,14/02/2024 22:17,1.70793E+12,-6,14/02/2024 10:17,165975,4,task-gjqt,NA,35160458,10390104,NA,complete,NA,65cd38aa94405b34e6d1f3c9,computer,Desktop or Laptop,Windows 10,Chrome 121.0.0.0,1280x720,1280x593,NA,NA,0,BIQ (Charlotte),3,IJHAGBFCED,Passed AC2,NA,Spreadsheet1,1,BIQ,Screen 1,9dh6eq,1,continue,,56083.528,56078.828,56083.528,56083.528,56078.828,56083.528,1,56083.528,0,0,NA,Click To Continue,Continue Button,23,object-48,BIQ,NA,SUPPRF64920
3,1.70795E+12,14/02/2024 22:17,1.70793E+12,-6,14/02/2024 10:17,165975,4,task-gjqt,NA,35160458,10390104,NA,complete,NA,65cd38aa94405b34e6d1f3c9,computer,Desktop or Laptop,Windows 10,Chrome 121.0.0.0,1280x720,1280x593,NA,NA,0,BIQ (Charlotte),3,IJHAGBFCED,Passed AC2,NA,Spreadsheet1,1,BIQ,Screen 1,9dh6eq,1,response,7,28604.928,56078.828,56086.628,28604.928,56078.828,56086.628,1,28604.928,27481.7,0,NA,Rating Scale,Rating Scale,3,object-5,BIQ,NA,SUPPRF64920
4,1.70795E+12,14/02/2024 22:17,1.70793E+12,-6,14/02/2024 10:17,165975,4,task-gjqt,NA,35160458,10390104,NA,complete,NA,65cd38aa94405b34e6d1f3c9,computer,Desktop or Laptop,Windows 10,Chrome 121.0.0.0,1280x720,1280x593,NA,NA,0,BIQ (Charlotte),3,IJHAGBFCED,Passed AC2,NA,Spreadsheet1,1,BIQ,Screen 1,9dh6eq,1,response,1,55313.028,56078.828,56087.128,55313.028,56078.828,56087.128,1,55313.028,774.1,0,NA,Rating Scale,Rating Scale,10,object-18,BIQ,NA,SUPPRF64920
5,1.70795E+12,14/02/2024 22:17,1.70793E+12,-6,14/02/2024 10:17,165975,4,task-gjqt,NA,35160458,10390104,NA,complete,NA,65cd38aa94405b34e6d1f3c9,computer,Desktop or Laptop,Windows 10,Chrome 121.0.0.0,1280x720,1280x593,NA,NA,0,BIQ (Charlotte),3,IJHAGBFCED,Passed AC2,NA,Spreadsheet1,1,BIQ,Screen 1,9dh6eq,1,response,7,52249.228,56078.828,56087.528,52249.228,56078.828,56087.528,1,52249.228,3838.3,0,NA,Rating Scale,Rating Scale,17,object-80,BIQ,NA,SUPPRF64920
6,1.70795E+12,14/02/2024 22:18,1.70793E+12,-6,14/02/2024 10:18,165975,4,task-gjqt,NA,35160458,10390104,NA,complete,NA,65cd38aa94405b34e6d1f3c9,computer,Desktop or Laptop,Windows 10,Chrome 121.0.0.0,1280x720,1280x593,NA,NA,0,BIQ (Charlotte),3,IJHAGBFCED,Passed AC2,NA,Spreadsheet1,1,BIQ,Screen 2,o21mwi,2,continue,,53393.4,53383.1,53393.4,53393.4,53383.1,53393.4,1,53393.4,0,0,NA,Click To Continue,Continue Button,22,object-50,BIQ,NA,SUPPRF64920
7,1.70795E+12,14/02/2024 22:18,1.70793E+12,-6,14/02/2024 10:18,165975,4,task-gjqt,NA,35160458,10390104,NA,complete,NA,65cd38aa94405b34e6d1f3c9,computer,Desktop or Laptop,Windows 10,Chrome 121.0.0.0,1280x720,1280x593,NA,NA,0,BIQ (Charlotte),3,IJHAGBFCED,Passed AC2,NA,Spreadsheet1,1,BIQ,Screen 2,o21mwi,2,response,2,3530.4,53383.1,53395.9,3530.4,53383.1,53395.9,1,3530.4,49865.5,0,NA,Rating Scale,Rating Scale,2,object-259,BIQ,NA,SUPPRF64920
8,1.70795E+12,14/02/2024 22:18,1.70793E+12,-6,14/02/2024 10:18,165975,4,task-gjqt,NA,35160458,10390104,NA,complete,NA,65cd38aa94405b34e6d1f3c9,computer,Desktop or Laptop,Windows 10,Chrome 121.0.0.0,1280x720,1280x593,NA,NA,0,BIQ (Charlotte),3,IJHAGBFCED,Passed AC2,NA,Spreadsheet1,1,BIQ,Screen 2,o21mwi,2,response,5,38963.4,53383.1,53396.5,38963.4,53383.1,53396.5,1,38963.4,14433.1,0,NA,Rating Scale,Rating Scale,9,object-36,BIQ,NA,SUPPRF64920
9,1.70795E+12,14/02/2024 22:18,1.70793E+12,-6,14/02/2024 10:18,165975,4,task-gjqt,NA,35160458,10390104,NA,complete,NA,65cd38aa94405b34e6d1f3c9,computer,Desktop or Laptop,Windows 10,Chrome 121.0.0.0,1280x720,1280x593,NA,NA,0,BIQ (Charlotte),3,IJHAGBFCED,Passed AC2,NA,Spreadsheet1,1,BIQ,Screen 2,o21mwi,2,response,8,50935.1,53383.1,53397,50935.1,53383.1,53397,1,50935.1,2461.9,0,NA,Rating Scale,Rating Scale,16,object-86,BIQ,NA,SUPPRF64920
10,1.70795E+12,14/02/2024 22:19,1.70793E+12,-6,14/02/2024 10:19,165975,4,task-gjqt,NA,35160458,10390104,NA,complete,NA,65cd38aa94405b34e6d1f3c9,computer,Desktop or Laptop,Windows 10,Chrome 121.0.0.0,1280x720,1280x593,NA,NA,0,BIQ (Charlotte),3,IJHAGBFCED,Passed AC2,NA,Spreadsheet1,1,BIQ,Screen 3,iz3the,3,continue,,31130.3,31120.4,31130.3,31130.3,31120.4,31130.3,1,31130.3,0,0,NA,Click To Continue,Continue Button,22,object-73,BIQ,NA,SUPPRF64920
11,1.70795E+12,14/02/2024 22:19,1.70793E+12,-6,14/02/2024 10:19,165975,4,task-gjqt,NA,35160458,10390104,NA,complete,NA,65cd38aa94405b34e6d1f3c9,computer,Desktop or Laptop,Windows 10,Chrome 121.0.0.0,1280x720,1280x593,NA,NA,0,BIQ (Charlotte),3,IJHAGBFCED,Passed AC2,NA,Spreadsheet1,1,BIQ,Screen 3,iz3the,3,response,5,6976.7,31120.4,31132.5,6976.7,31120.4,31132.5,1,6976.7,24155.8,0,NA,Rating Scale,Rating Scale,2,object-53,BIQ,NA,SUPPRF64920
12,1.70795E+12,14/02/2024 22:19,1.70793E+12,-6,14/02/2024 10:19,165975,4,task-gjqt,NA,35160458,10390104,NA,complete,NA,65cd38aa94405b34e6d1f3c9,computer,Desktop or Laptop,Windows 10,Chrome 121.0.0.0,1280x720,1280x593,NA,NA,0,BIQ (Charlotte),3,IJHAGBFCED,Passed AC2,NA,Spreadsheet1,1,BIQ,Screen 3,iz3the,3,response,7,19814.9,31120.4,31133,19814.9,31120.4,31133,1,19814.9,11318.1,0,NA,Rating Scale,Rating Scale,9,object-60,BIQ,NA,SUPPRF64920
13,1.70795E+12,14/02/2024 22:19,1.70793E+12,-6,14/02/2024 10:19,165975,4,task-gjqt,NA,35160458,10390104,NA,complete,NA,65cd38aa94405b34e6d1f3c9,computer,Desktop or Laptop,Windows 10,Chrome 121.0.0.0,1280x720,1280x593,NA,NA,0,BIQ (Charlotte),3,IJHAGBFCED,Passed AC2,NA,Spreadsheet1,1,BIQ,Screen 3,iz3the,3,response,8,23877.3,31120.4,31133.6,23877.3,31120.4,31133.6,1,23877.3,7256.3,0,NA,Rating Scale,Rating Scale,16,object-67,BIQ,NA,SUPPRF64920
14,1.70795E+12,14/02/2024 22:19,1.70793E+12,-6,14/02/2024 10:19,165975,4,task-gjqt,NA,35160458,10390104,NA,complete,NA,65cd38aa94405b34e6d1f3c9,computer,Desktop or Laptop,Windows 10,Chrome 121.0.0.0,1280x720,1280x593,NA,NA,0,BIQ (Charlotte),3,IJHAGBFCED,Passed AC2,NA,Spreadsheet1,NA,,,,NA,5,END,NA,NA,NA,NA,NA,NA,0,NA,NA,NA,NA,,,NA,,,NA,SUPPRF64920
1,1.70795E+12,14/02/2024 22:10,1.70793E+12,-5,14/02/2024 12:10,165975,4,task-gjqt,NA,35160268,10390107,NA,complete,NA,65cd38c5ef6e6cca3a77babf,computer,Desktop or Laptop,Windows 10,Chrome 121.0.0.0,1536x864,1536x695,NA,NA,0,BIQ (Charlotte),3,HIGJFAEBDC,Passed AC2,NA,Spreadsheet1,NA,,,,NA,5,BEGIN,NA,NA,NA,NA,NA,NA,0,NA,NA,NA,NA,,,NA,,,NA,SUPPRF87945
2,1.70795E+12,14/02/2024 22:11,1.70793E+12,-5,14/02/2024 12:11,165975,4,task-gjqt,NA,35160268,10390107,NA,complete,NA,65cd38c5ef6e6cca3a77babf,computer,Desktop or Laptop,Windows 10,Chrome 121.0.0.0,1536x864,1536x695,NA,NA,0,BIQ (Charlotte),3,HIGJFAEBDC,Passed AC2,NA,Spreadsheet1,1,BIQ,Screen 1,9dh6eq,1,continue,,39905.8,39896.6,39905.8,39905.8,39896.6,39905.8,1,39905.8,0,0,NA,Click To Continue,Continue Button,23,object-48,BIQ,NA,SUPPRF87945
3,1.70795E+12,14/02/2024 22:11,1.70793E+12,-5,14/02/2024 12:11,165975,4,task-gjqt,NA,35160268,10390107,NA,complete,NA,65cd38c5ef6e6cca3a77babf,computer,Desktop or Laptop,Windows 10,Chrome 121.0.0.0,1536x864,1536x695,NA,NA,0,BIQ (Charlotte),3,HIGJFAEBDC,Passed AC2,NA,Spreadsheet1,1,BIQ,Screen 1,9dh6eq,1,response,5,19349.2,39896.6,39910.8,19349.2,39896.6,39910.8,1,19349.2,20561.6,0,NA,Rating Scale,Rating Scale,3,object-5,BIQ,NA,SUPPRF87945
4,1.70795E+12,14/02/2024 22:11,1.70793E+12,-5,14/02/2024 12:11,165975,4,task-gjqt,NA,35160268,10390107,NA,complete,NA,65cd38c5ef6e6cca3a77babf,computer,Desktop or Laptop,Windows 10,Chrome 121.0.0.0,1536x864,1536x695,NA,NA,0,BIQ (Charlotte),3,HIGJFAEBDC,Passed AC2,NA,Spreadsheet1,1,BIQ,Screen 1,9dh6eq,1,response,3,29756.3,39896.6,39911.4,29756.3,39896.6,39911.4,1,29756.3,10155.1,0,NA,Rating Scale,Rating Scale,10,object-18,BIQ,NA,SUPPRF87945
5,1.70795E+12,14/02/2024 22:11,1.70793E+12,-5,14/02/2024 12:11,165975,4,task-gjqt,NA,35160268,10390107,NA,complete,NA,65cd38c5ef6e6cca3a77babf,computer,Desktop or Laptop,Windows 10,Chrome 121.0.0.0,1536x864,1536x695,NA,NA,0,BIQ (Charlotte),3,HIGJFAEBDC,Passed AC2,NA,Spreadsheet1,1,BIQ,Screen 1,9dh6eq,1,response,4,39164.2,39896.6,39911.9,39164.2,39896.6,39911.9,1,39164.2,747.7,0,NA,Rating Scale,Rating Scale,17,object-80,BIQ,NA,SUPPRF87945
6,1.70795E+12,14/02/2024 22:12,1.70793E+12,-5,14/02/2024 12:12,165975,4,task-gjqt,NA,35160268,10390107,NA,complete,NA,65cd38c5ef6e6cca3a77babf,computer,Desktop or Laptop,Windows 10,Chrome 121.0.0.0,1536x864,1536x695,NA,NA,0,BIQ (Charlotte),3,HIGJFAEBDC,Passed AC2,NA,Spreadsheet1,1,BIQ,Screen 2,o21mwi,2,continue,,31218.3,31204.4,31218.3,31218.3,31204.4,31218.3,1,31218.3,0,0,NA,Click To Continue,Continue Button,22,object-50,BIQ,NA,SUPPRF87945
7,1.70795E+12,14/02/2024 22:12,1.70793E+12,-5,14/02/2024 12:12,165975,4,task-gjqt,NA,35160268,10390107,NA,complete,NA,65cd38c5ef6e6cca3a77babf,computer,Desktop or Laptop,Windows 10,Chrome 121.0.0.0,1536x864,1536x695,NA,NA,0,BIQ (Charlotte),3,HIGJFAEBDC,Passed AC2,NA,Spreadsheet1,1,BIQ,Screen 2,o21mwi,2,response,5,6993.6,31204.4,31221,6993.6,31204.4,31221,1,6993.6,24227.4,0,NA,Rating Scale,Rating Scale,2,object-259,BIQ,NA,SUPPRF87945
8,1.70795E+12,14/02/2024 22:12,1.70793E+12,-5,14/02/2024 12:12,165975,4,task-gjqt,NA,35160268,10390107,NA,complete,NA,65cd38c5ef6e6cca3a77babf,computer,Desktop or Laptop,Windows 10,Chrome 121.0.0.0,1536x864,1536x695,NA,NA,0,BIQ (Charlotte),3,HIGJFAEBDC,Passed AC2,NA,Spreadsheet1,1,BIQ,Screen 2,o21mwi,2,response,2,18832.7,31204.4,31221,18832.7,31204.4,31221,1,18832.7,12388.3,0,NA,Rating Scale,Rating Scale,9,object-36,BIQ,NA,SUPPRF87945
9,1.70795E+12,14/02/2024 22:12,1.70793E+12,-5,14/02/2024 12:12,165975,4,task-gjqt,NA,35160268,10390107,NA,complete,NA,65cd38c5ef6e6cca3a77babf,computer,Desktop or Laptop,Windows 10,Chrome 121.0.0.0,1536x864,1536x695,NA,NA,0,BIQ (Charlotte),3,HIGJFAEBDC,Passed AC2,NA,Spreadsheet1,1,BIQ,Screen 2,o21mwi,2,response,2,30372,31204.4,31221,30372,31204.4,31221,1,30372,849,0,NA,Rating Scale,Rating Scale,16,object-86,BIQ,NA,SUPPRF87945
10,1.70795E+12,14/02/2024 22:12,1.70793E+12,-5,14/02/2024 12:12,165975,4,task-gjqt,NA,35160268,10390107,NA,complete,NA,65cd38c5ef6e6cca3a77babf,computer,Desktop or Laptop,Windows 10,Chrome 121.0.0.0,1536x864,1536x695,NA,NA,0,BIQ (Charlotte),3,HIGJFAEBDC,Passed AC2,NA,Spreadsheet1,1,BIQ,Screen 3,iz3the,3,continue,,31209.4,31204,31209.4,31209.4,31204,31209.4,1,31209.4,0,0,NA,Click To Continue,Continue Button,22,object-73,BIQ,NA,SUPPRF87945
11,1.70795E+12,14/02/2024 22:12,1.70793E+12,-5,14/02/2024 12:12,165975,4,task-gjqt,NA,35160268,10390107,NA,complete,NA,65cd38c5ef6e6cca3a77babf,computer,Desktop or Laptop,Windows 10,Chrome 121.0.0.0,1536x864,1536x695,NA,NA,0,BIQ (Charlotte),3,HIGJFAEBDC,Passed AC2,NA,Spreadsheet1,1,BIQ,Screen 3,iz3the,3,response,1,17650.1,31204,31214.2,17650.1,31204,31214.2,1,17650.1,13564.1,0,NA,Rating Scale,Rating Scale,2,object-53,BIQ,NA,SUPPRF87945
12,1.70795E+12,14/02/2024 22:12,1.70793E+12,-5,14/02/2024 12:12,165975,4,task-gjqt,NA,35160268,10390107,NA,complete,NA,65cd38c5ef6e6cca3a77babf,computer,Desktop or Laptop,Windows 10,Chrome 121.0.0.0,1536x864,1536x695,NA,NA,0,BIQ (Charlotte),3,HIGJFAEBDC,Passed AC2,NA,Spreadsheet1,1,BIQ,Screen 3,iz3the,3,response,1,21363.5,31204,31214.9,21363.5,31204,31214.9,1,21363.5,9851.4,0,NA,Rating Scale,Rating Scale,9,object-60,BIQ,NA,SUPPRF87945
13,1.70795E+12,14/02/2024 22:12,1.70793E+12,-5,14/02/2024 12:12,165975,4,task-gjqt,NA,35160268,10390107,NA,complete,NA,65cd38c5ef6e6cca3a77babf,computer,Desktop or Laptop,Windows 10,Chrome 121.0.0.0,1536x864,1536x695,NA,NA,0,BIQ (Charlotte),3,HIGJFAEBDC,Passed AC2,NA,Spreadsheet1,1,BIQ,Screen 3,iz3the,3,response,3,30022,31204,31215.7,30022,31204,31215.7,1,30022,1193.7,0,NA,Rating Scale,Rating Scale,16,object-67,BIQ,NA,SUPPRF87945
14,1.70795E+12,14/02/2024 22:12,1.70793E+12,-5,14/02/2024 12:12,165975,4,task-gjqt,NA,35160268,10390107,NA,complete,NA,65cd38c5ef6e6cca3a77babf,computer,Desktop or Laptop,Windows 10,Chrome 121.0.0.0,1536x864,1536x695,NA,NA,0,BIQ (Charlotte),3,HIGJFAEBDC,Passed AC2,NA,Spreadsheet1,NA,,,,NA,5,END,NA,NA,NA,NA,NA,NA,0,NA,NA,NA,NA,,,NA,,,NA,SUPPRF87945
1,1.70795E+12,14/02/2024 22:07,1.70795E+12,0,14/02/2024 22:07,165975,4,task-gjqt,NA,35160176,10390114,NA,complete,NA,65cd3873c06aada397cbf2e2,computer,Desktop or Laptop,Windows 10,Chrome 121.0.0.0,1920x1080,1920x911,NA,NA,0,BIQ (Charlotte),3,GHFIEJDACB,Passed AC2,NA,Spreadsheet1,NA,,,,NA,5,BEGIN,NA,NA,NA,NA,NA,NA,0,NA,NA,NA,NA,,,NA,,,NA,SUPPRF73279
2,1.70795E+12,14/02/2024 22:07,1.70795E+12,0,14/02/2024 22:07,165975,4,task-gjqt,NA,35160176,10390114,NA,complete,NA,65cd3873c06aada397cbf2e2,computer,Desktop or Laptop,Windows 10,Chrome 121.0.0.0,1920x1080,1920x911,NA,NA,0,BIQ (Charlotte),3,GHFIEJDACB,Passed AC2,NA,Spreadsheet1,1,BIQ,Screen 1,9dh6eq,1,continue,,30998.4,30981.7,30998.4,30998.4,30981.7,30998.4,1,30998.4,0,0,NA,Click To Continue,Continue Button,23,object-48,BIQ,NA,SUPPRF73279
3,1.70795E+12,14/02/2024 22:07,1.70795E+12,0,14/02/2024 22:07,165975,4,task-gjqt,NA,35160176,10390114,NA,complete,NA,65cd3873c06aada397cbf2e2,computer,Desktop or Laptop,Windows 10,Chrome 121.0.0.0,1920x1080,1920x911,NA,NA,0,BIQ (Charlotte),3,GHFIEJDACB,Passed AC2,NA,Spreadsheet1,1,BIQ,Screen 1,9dh6eq,1,response,7,9064.1,30981.7,30998.4,9064.1,30981.7,30998.4,1,9064.1,21934.3,0,NA,Rating Scale,Rating Scale,3,object-5,BIQ,NA,SUPPRF73279
4,1.70795E+12,14/02/2024 22:07,1.70795E+12,0,14/02/2024 22:07,165975,4,task-gjqt,NA,35160176,10390114,NA,complete,NA,65cd3873c06aada397cbf2e2,computer,Desktop or Laptop,Windows 10,Chrome 121.0.0.0,1920x1080,1920x911,NA,NA,0,BIQ (Charlotte),3,GHFIEJDACB,Passed AC2,NA,Spreadsheet1,1,BIQ,Screen 1,9dh6eq,1,response,6,24648.1,30981.7,30998.4,24648.1,30981.7,30998.4,1,24648.1,6350.3,0,NA,Rating Scale,Rating Scale,10,object-18,BIQ,NA,SUPPRF73279
5,1.70795E+12,14/02/2024 22:07,1.70795E+12,0,14/02/2024 22:07,165975,4,task-gjqt,NA,35160176,10390114,NA,complete,NA,65cd3873c06aada397cbf2e2,computer,Desktop or Laptop,Windows 10,Chrome 121.0.0.0,1920x1080,1920x911,NA,NA,0,BIQ (Charlotte),3,GHFIEJDACB,Passed AC2,NA,Spreadsheet1,1,BIQ,Screen 1,9dh6eq,1,response,1,30048.3,30981.7,30998.4,30048.3,30981.7,30998.4,1,30048.3,950.1,0,NA,Rating Scale,Rating Scale,17,object-80,BIQ,NA,SUPPRF73279
