Event.Index,UTC.Timestamp,UTC.Date.and.Time,Local.Timestamp,Local.Timezone,Local.Date.and.Time,Experiment.ID,Experiment.Version,Tree.Node.Key,Repeat.Key,Schedule.ID,Participant.Private.ID,Participant.Starting.Group,Participant.Status,Participant.Completion.Code,Participant.External.Session.ID,Participant.Device.Type,Participant.Device,Participant.OS,Participant.Browser,Participant.Monitor.Size,Participant.Viewport.Size,Checkpoint,Room.ID,Room.Order,Task.Name,Task.Version,order.ot79,branch.g31k,branch.5gtn,Spreadsheet,Trial.Number,Display,Screen,Screen.ID,Screen.Counter,Response.Type,Response,Onset.Time,Clock.Time,Reaction.Time,Absolute.Onset.Time,Absolute.Clock.Time,Absolute.Reaction.Time,Correct,Response.Onset,Response.Duration,Proportion,Tag,Component.Name,Object.Name,Object.Number,Object.ID,Spreadsheet..display,Manipulation..Spreadsheet,Random_ID
1,1.70794E+12,14/02/2024 19:53,1.70794E+12,0,14/02/2024 19:53,165975,4,task-v7r7,NA,35156900,10389048,NA,complete,NA,65cd1867a8c70a340c80a8be,computer,Desktop or Laptop,Windows 10,Chrome 121.0.0.0,1920x1080,1920x911,NA,NA,0,Task Introduction and Instructions (re-introduce video and audio) (Clone),3,ABJCIDHEGF,Passed AC2,NA,Spreadsheet1,NA,,,,NA,5,BEGIN,NA,NA,NA,NA,NA,NA,0,NA,NA,NA,NA,,,NA,,,NA,SUPPRF64725
2,1.70794E+12,14/02/2024 19:53,1.70794E+12,0,14/02/2024 19:53,165975,4,task-v7r7,NA,35156900,10389048,NA,complete,NA,65cd1867a8c70a340c80a8be,computer,Desktop or Laptop,Windows 10,Chrome 121.0.0.0,1920x1080,1920x911,NA,NA,0,Task Introduction and Instructions (re-introduce video and audio) (Clone),3,ABJCIDHEGF,Passed AC2,NA,Spreadsheet1,1,Task Instructions,Screen 1,anr7sn,1,continue,,3300.6,3298.6,3300.6,3300.6,3298.6,3300.6,1,3300.6,0,0,NA,Click To Continue,Continue Button,3,object-60,Task Instructions,NA,SUPPRF64725
3,1.70794E+12,14/02/2024 19:53,1.70794E+12,0,14/02/2024 19:53,165975,4,task-v7r7,NA,35156900,10389048,NA,complete,NA,65cd1867a8c70a340c80a8be,computer,Desktop or Laptop,Windows 10,Chrome 121.0.0.0,1920x1080,1920x911,NA,NA,0,Task Introduction and Instructions (re-introduce video and audio) (Clone),3,ABJCIDHEGF,Passed AC2,NA,Spreadsheet1,1,Task Instructions,Screen 2,ce2tc8,2,continue,,11682.1,11680.5,11682.1,11682.1,11680.5,11682.1,1,11682.1,0,0,NA,Click To Continue,Continue Button,3,object-59,Task Instructions,NA,SUPPRF64725
4,1.70794E+12,14/02/2024 19:53,1.70794E+12,0,14/02/2024 19:53,165975,4,task-v7r7,NA,35156900,10389048,NA,complete,NA,65cd1867a8c70a340c80a8be,computer,Desktop or Laptop,Windows 10,Chrome 121.0.0.0,1920x1080,1920x911,NA,NA,0,Task Introduction and Instructions (re-introduce video and audio) (Clone),3,ABJCIDHEGF,Passed AC2,NA,Spreadsheet1,1,Task Instructions,Screen 3,1qtc8v,3,continue,,4689.6,4687.4,4689.6,4689.6,4687.4,4689.6,1,4689.6,0,0,NA,Click To Continue,Continue Button,2,object-2983,Task Instructions,NA,SUPPRF64725
5,1.70794E+12,14/02/2024 19:54,1.70794E+12,0,14/02/2024 19:54,165975,4,task-v7r7,NA,35156900,10389048,NA,complete,NA,65cd1867a8c70a340c80a8be,computer,Desktop or Laptop,Windows 10,Chrome 121.0.0.0,1920x1080,1920x911,NA,NA,0,Task Introduction and Instructions (re-introduce video and audio) (Clone),3,ABJCIDHEGF,Passed AC2,NA,Spreadsheet1,1,Task Instructions,Screen 12,1a4vu2,4,continue,,12498.4,12493,12498.4,12498.4,12493,12498.4,1,12498.4,0,0,NA,Click To Continue,Continue Button,2,object-2466,Task Instructions,NA,SUPPRF64725
6,1.70794E+12,14/02/2024 19:54,1.70794E+12,0,14/02/2024 19:54,165975,4,task-v7r7,NA,35156900,10389048,NA,complete,NA,65cd1867a8c70a340c80a8be,computer,Desktop or Laptop,Windows 10,Chrome 121.0.0.0,1920x1080,1920x911,NA,NA,0,Task Introduction and Instructions (re-introduce video and audio) (Clone),3,ABJCIDHEGF,Passed AC2,NA,Spreadsheet1,1,Task Instructions,Screen 13,q9vwda,5,continue,,5765.2,5763.8,5765.2,5765.2,5763.8,5765.2,1,5765.2,0,0,NA,Click To Continue,Continue Button,2,object-2989,Task Instructions,NA,SUPPRF64725
7,1.70794E+12,14/02/2024 19:54,1.70794E+12,0,14/02/2024 19:54,165975,4,task-v7r7,NA,35156900,10389048,NA,complete,NA,65cd1867a8c70a340c80a8be,computer,Desktop or Laptop,Windows 10,Chrome 121.0.0.0,1920x1080,1920x911,NA,NA,0,Task Introduction and Instructions (re-introduce video and audio) (Clone),3,ABJCIDHEGF,Passed AC2,NA,Spreadsheet1,1,Task Instructions,Screen 11,oyulb7,6,continue,,2585.4,2583.4,2585.4,2585.4,2583.4,2585.4,1,2585.4,0,0,NA,Click To Continue,Continue Button,2,object-52,Task Instructions,NA,SUPPRF64725
8,1.70794E+12,14/02/2024 19:54,1.70794E+12,0,14/02/2024 19:54,165975,4,task-v7r7,NA,35156900,10389048,NA,complete,NA,65cd1867a8c70a340c80a8be,computer,Desktop or Laptop,Windows 10,Chrome 121.0.0.0,1920x1080,1920x911,NA,NA,0,Task Introduction and Instructions (re-introduce video and audio) (Clone),3,ABJCIDHEGF,Passed AC2,NA,Spreadsheet1,1,Task Instructions,Screen 4,spepx9,7,continue,,3314.1,3312.3,3314.1,3314.1,3312.3,3314.1,1,3314.1,0,0,NA,Click To Continue,Continue Button,2,object-9,Task Instructions,NA,SUPPRF64725
9,1.70794E+12,14/02/2024 19:54,1.70794E+12,0,14/02/2024 19:54,165975,4,task-v7r7,NA,35156900,10389048,NA,complete,NA,65cd1867a8c70a340c80a8be,computer,Desktop or Laptop,Windows 10,Chrome 121.0.0.0,1920x1080,1920x911,NA,NA,0,Task Introduction and Instructions (re-introduce video and audio) (Clone),3,ABJCIDHEGF,Passed AC2,NA,Spreadsheet1,1,Task Instructions,Screen 5,8nvnao,8,continue,,2793.7,2791.7,2793.7,2793.7,2791.7,2793.7,1,2793.7,0,0,NA,Click To Continue,Continue Button,2,object-44,Task Instructions,NA,SUPPRF64725
10,1.70794E+12,14/02/2024 19:54,1.70794E+12,0,14/02/2024 19:54,165975,4,task-v7r7,NA,35156900,10389048,NA,complete,NA,65cd1867a8c70a340c80a8be,computer,Desktop or Laptop,Windows 10,Chrome 121.0.0.0,1920x1080,1920x911,NA,NA,0,Task Introduction and Instructions (re-introduce video and audio) (Clone),3,ABJCIDHEGF,Passed AC2,NA,Spreadsheet1,NA,,,,NA,5,END,NA,NA,NA,NA,NA,NA,0,NA,NA,NA,NA,,,NA,,,NA,SUPPRF64725
1,1.70794E+12,14/02/2024 19:58,1.70792E+12,-5,14/02/2024 09:58,165975,4,task-v7r7,NA,35157057,10389073,NA,complete,NA,65cd193ab210334c78dff783,computer,Desktop or Laptop,Mac OS 10.15.7,Chrome 120.0.0.0,1440x900,1440x684,NA,NA,0,Task Introduction and Instructions (re-introduce video and audio) (Clone),3,BCADJEIFHG,Passed AC2,NA,Spreadsheet1,NA,,,,NA,5,BEGIN,NA,NA,NA,NA,NA,NA,0,NA,NA,NA,NA,,,NA,,,NA,SUPPRF73357
2,1.70794E+12,14/02/2024 19:58,1.70792E+12,-5,14/02/2024 09:58,165975,4,task-v7r7,NA,35157057,10389073,NA,complete,NA,65cd193ab210334c78dff783,computer,Desktop or Laptop,Mac OS 10.15.7,Chrome 120.0.0.0,1440x900,1440x684,NA,NA,0,Task Introduction and Instructions (re-introduce video and audio) (Clone),3,BCADJEIFHG,Passed AC2,NA,Spreadsheet1,1,Task Instructions,Screen 1,anr7sn,1,continue,,3591.3,3583.3,3591.3,3591.3,3583.3,3591.3,1,3591.3,0,0,NA,Click To Continue,Continue Button,3,object-60,Task Instructions,NA,SUPPRF73357
3,1.70794E+12,14/02/2024 19:58,1.70792E+12,-5,14/02/2024 09:58,165975,4,task-v7r7,NA,35157057,10389073,NA,complete,NA,65cd193ab210334c78dff783,computer,Desktop or Laptop,Mac OS 10.15.7,Chrome 120.0.0.0,1440x900,1440x684,NA,NA,0,Task Introduction and Instructions (re-introduce video and audio) (Clone),3,BCADJEIFHG,Passed AC2,NA,Spreadsheet1,1,Task Instructions,Screen 2,ce2tc8,2,continue,,5181.5,5166.6,5181.5,5181.5,5166.6,5181.5,1,5181.5,0,0,NA,Click To Continue,Continue Button,3,object-59,Task Instructions,NA,SUPPRF73357
4,1.70794E+12,14/02/2024 19:58,1.70792E+12,-5,14/02/2024 09:58,165975,4,task-v7r7,NA,35157057,10389073,NA,complete,NA,65cd193ab210334c78dff783,computer,Desktop or Laptop,Mac OS 10.15.7,Chrome 120.0.0.0,1440x900,1440x684,NA,NA,0,Task Introduction and Instructions (re-introduce video and audio) (Clone),3,BCADJEIFHG,Passed AC2,NA,Spreadsheet1,1,Task Instructions,Screen 3,1qtc8v,3,continue,,4777.4,4766.5,4777.4,4777.4,4766.5,4777.4,1,4777.4,0,0,NA,Click To Continue,Continue Button,2,object-2983,Task Instructions,NA,SUPPRF73357
5,1.70794E+12,14/02/2024 19:58,1.70792E+12,-5,14/02/2024 09:58,165975,4,task-v7r7,NA,35157057,10389073,NA,complete,NA,65cd193ab210334c78dff783,computer,Desktop or Laptop,Mac OS 10.15.7,Chrome 120.0.0.0,1440x900,1440x684,NA,NA,0,Task Introduction and Instructions (re-introduce video and audio) (Clone),3,BCADJEIFHG,Passed AC2,NA,Spreadsheet1,1,Task Instructions,Screen 12,1a4vu2,4,continue,,6212,6200,6212,6212,6200,6212,1,6212,0,0,NA,Click To Continue,Continue Button,2,object-2466,Task Instructions,NA,SUPPRF73357
6,1.70794E+12,14/02/2024 19:58,1.70792E+12,-5,14/02/2024 09:58,165975,4,task-v7r7,NA,35157057,10389073,NA,complete,NA,65cd193ab210334c78dff783,computer,Desktop or Laptop,Mac OS 10.15.7,Chrome 120.0.0.0,1440x900,1440x684,NA,NA,0,Task Introduction and Instructions (re-introduce video and audio) (Clone),3,BCADJEIFHG,Passed AC2,NA,Spreadsheet1,1,Task Instructions,Screen 13,q9vwda,5,continue,,5426,5416.5,5426,5426,5416.5,5426,1,5426,0,0,NA,Click To Continue,Continue Button,2,object-2989,Task Instructions,NA,SUPPRF73357
7,1.70794E+12,14/02/2024 19:58,1.70792E+12,-5,14/02/2024 09:58,165975,4,task-v7r7,NA,35157057,10389073,NA,complete,NA,65cd193ab210334c78dff783,computer,Desktop or Laptop,Mac OS 10.15.7,Chrome 120.0.0.0,1440x900,1440x684,NA,NA,0,Task Introduction and Instructions (re-introduce video and audio) (Clone),3,BCADJEIFHG,Passed AC2,NA,Spreadsheet1,1,Task Instructions,Screen 11,oyulb7,6,continue,,3238.9,3233.2,3238.9,3238.9,3233.2,3238.9,1,3238.9,0,0,NA,Click To Continue,Continue Button,2,object-52,Task Instructions,NA,SUPPRF73357
8,1.70794E+12,14/02/2024 19:59,1.70792E+12,-5,14/02/2024 09:59,165975,4,task-v7r7,NA,35157057,10389073,NA,complete,NA,65cd193ab210334c78dff783,computer,Desktop or Laptop,Mac OS 10.15.7,Chrome 120.0.0.0,1440x900,1440x684,NA,NA,0,Task Introduction and Instructions (re-introduce video and audio) (Clone),3,BCADJEIFHG,Passed AC2,NA,Spreadsheet1,1,Task Instructions,Screen 4,spepx9,7,continue,,10950,10933.4,10950,10950,10933.4,10950,1,10950,0,0,NA,Click To Continue,Continue Button,2,object-9,Task Instructions,NA,SUPPRF73357
9,1.70794E+12,14/02/2024 19:59,1.70792E+12,-5,14/02/2024 09:59,165975,4,task-v7r7,NA,35157057,10389073,NA,complete,NA,65cd193ab210334c78dff783,computer,Desktop or Laptop,Mac OS 10.15.7,Chrome 120.0.0.0,1440x900,1440x684,NA,NA,0,Task Introduction and Instructions (re-introduce video and audio) (Clone),3,BCADJEIFHG,Passed AC2,NA,Spreadsheet1,1,Task Instructions,Screen 5,8nvnao,8,continue,,2468.5,2466.6,2468.5,2468.5,2466.6,2468.5,1,2468.5,0,0,NA,Click To Continue,Continue Button,2,object-44,Task Instructions,NA,SUPPRF73357
10,1.70794E+12,14/02/2024 19:59,1.70792E+12,-5,14/02/2024 09:59,165975,4,task-v7r7,NA,35157057,10389073,NA,complete,NA,65cd193ab210334c78dff783,computer,Desktop or Laptop,Mac OS 10.15.7,Chrome 120.0.0.0,1440x900,1440x684,NA,NA,0,Task Introduction and Instructions (re-introduce video and audio) (Clone),3,BCADJEIFHG,Passed AC2,NA,Spreadsheet1,NA,,,,NA,5,END,NA,NA,NA,NA,NA,NA,0,NA,NA,NA,NA,,,NA,,,NA,SUPPRF73357
1,1.70794E+12,14/02/2024 20:49,1.70794E+12,0,14/02/2024 20:49,165975,4,task-v7r7,NA,35158453,10389205,NA,complete,NA,65cd1c256f7be3af7ebb1a2d,computer,Desktop or Laptop,Mac OS 10.15.7,Chrome 121.0.0.0,1440x900,1420x707,NA,NA,0,Task Introduction and Instructions (re-introduce video and audio) (Clone),3,EFDGCHBIAJ,Passed AC2,NA,Spreadsheet1,NA,,,,NA,5,BEGIN,NA,NA,NA,NA,NA,NA,0,NA,NA,NA,NA,,,NA,,,NA,SUPPRF82095
2,1.70794E+12,14/02/2024 20:50,1.70794E+12,0,14/02/2024 20:50,165975,4,task-v7r7,NA,35158453,10389205,NA,complete,NA,65cd1c256f7be3af7ebb1a2d,computer,Desktop or Laptop,Mac OS 10.15.7,Chrome 121.0.0.0,1440x900,1420x707,NA,NA,0,Task Introduction and Instructions (re-introduce video and audio) (Clone),3,EFDGCHBIAJ,Passed AC2,NA,Spreadsheet1,1,Task Instructions,Screen 1,anr7sn,1,continue,,14566.5,14550.5,14566.5,14566.5,14550.5,14566.5,1,14566.5,0,0,NA,Click To Continue,Continue Button,3,object-60,Task Instructions,NA,SUPPRF82095
3,1.70794E+12,14/02/2024 20:50,1.70794E+12,0,14/02/2024 20:50,165975,4,task-v7r7,NA,35158453,10389205,NA,complete,NA,65cd1c256f7be3af7ebb1a2d,computer,Desktop or Laptop,Mac OS 10.15.7,Chrome 121.0.0.0,1440x900,1420x707,NA,NA,0,Task Introduction and Instructions (re-introduce video and audio) (Clone),3,EFDGCHBIAJ,Passed AC2,NA,Spreadsheet1,1,Task Instructions,Screen 2,ce2tc8,2,continue,,12665.6,12650.4,12665.6,12665.6,12650.4,12665.6,1,12665.6,0,0,NA,Click To Continue,Continue Button,3,object-59,Task Instructions,NA,SUPPRF82095
4,1.70794E+12,14/02/2024 20:50,1.70794E+12,0,14/02/2024 20:50,165975,4,task-v7r7,NA,35158453,10389205,NA,complete,NA,65cd1c256f7be3af7ebb1a2d,computer,Desktop or Laptop,Mac OS 10.15.7,Chrome 121.0.0.0,1440x900,1420x707,NA,NA,0,Task Introduction and Instructions (re-introduce video and audio) (Clone),3,EFDGCHBIAJ,Passed AC2,NA,Spreadsheet1,1,Task Instructions,Screen 3,1qtc8v,3,continue,,10649,10633.6,10649,10649,10633.6,10649,1,10649,0,0,NA,Click To Continue,Continue Button,2,object-2983,Task Instructions,NA,SUPPRF82095
5,1.70794E+12,14/02/2024 20:50,1.70794E+12,0,14/02/2024 20:50,165975,4,task-v7r7,NA,35158453,10389205,NA,complete,NA,65cd1c256f7be3af7ebb1a2d,computer,Desktop or Laptop,Mac OS 10.15.7,Chrome 121.0.0.0,1440x900,1420x707,NA,NA,0,Task Introduction and Instructions (re-introduce video and audio) (Clone),3,EFDGCHBIAJ,Passed AC2,NA,Spreadsheet1,1,Task Instructions,Screen 12,1a4vu2,4,continue,,16048.7,16033.9,16048.7,16048.7,16033.9,16048.7,1,16048.7,0,0,NA,Click To Continue,Continue Button,2,object-2466,Task Instructions,NA,SUPPRF82095
6,1.70794E+12,14/02/2024 20:50,1.70794E+12,0,14/02/2024 20:50,165975,4,task-v7r7,NA,35158453,10389205,NA,complete,NA,65cd1c256f7be3af7ebb1a2d,computer,Desktop or Laptop,Mac OS 10.15.7,Chrome 121.0.0.0,1440x900,1420x707,NA,NA,0,Task Introduction and Instructions (re-introduce video and audio) (Clone),3,EFDGCHBIAJ,Passed AC2,NA,Spreadsheet1,1,Task Instructions,Screen 13,q9vwda,5,continue,,11547.4,11533.7,11547.4,11547.4,11533.7,11547.4,1,11547.4,0,0,NA,Click To Continue,Continue Button,2,object-2989,Task Instructions,NA,SUPPRF82095
7,1.70794E+12,14/02/2024 20:50,1.70794E+12,0,14/02/2024 20:50,165975,4,task-v7r7,NA,35158453,10389205,NA,complete,NA,65cd1c256f7be3af7ebb1a2d,computer,Desktop or Laptop,Mac OS 10.15.7,Chrome 121.0.0.0,1440x900,1420x707,NA,NA,0,Task Introduction and Instructions (re-introduce video and audio) (Clone),3,EFDGCHBIAJ,Passed AC2,NA,Spreadsheet1,1,Task Instructions,Screen 11,oyulb7,6,continue,,4730.8,4716.8,4730.8,4730.8,4716.8,4730.8,1,4730.8,0,0,NA,Click To Continue,Continue Button,2,object-52,Task Instructions,NA,SUPPRF82095
8,1.70794E+12,14/02/2024 20:51,1.70794E+12,0,14/02/2024 20:51,165975,4,task-v7r7,NA,35158453,10389205,NA,complete,NA,65cd1c256f7be3af7ebb1a2d,computer,Desktop or Laptop,Mac OS 10.15.7,Chrome 121.0.0.0,1440x900,1420x707,NA,NA,0,Task Introduction and Instructions (re-introduce video and audio) (Clone),3,EFDGCHBIAJ,Passed AC2,NA,Spreadsheet1,1,Task Instructions,Screen 4,spepx9,7,continue,,3598.3,3583.4,3598.3,3598.3,3583.4,3598.3,1,3598.3,0,0,NA,Click To Continue,Continue Button,2,object-9,Task Instructions,NA,SUPPRF82095
9,1.70794E+12,14/02/2024 20:51,1.70794E+12,0,14/02/2024 20:51,165975,4,task-v7r7,NA,35158453,10389205,NA,complete,NA,65cd1c256f7be3af7ebb1a2d,computer,Desktop or Laptop,Mac OS 10.15.7,Chrome 121.0.0.0,1440x900,1420x707,NA,NA,0,Task Introduction and Instructions (re-introduce video and audio) (Clone),3,EFDGCHBIAJ,Passed AC2,NA,Spreadsheet1,1,Task Instructions,Screen 5,8nvnao,8,continue,,3148.5,3133.4,3148.5,3148.5,3133.4,3148.5,1,3148.5,0,0,NA,Click To Continue,Continue Button,2,object-44,Task Instructions,NA,SUPPRF82095
10,1.70794E+12,14/02/2024 20:51,1.70794E+12,0,14/02/2024 20:51,165975,4,task-v7r7,NA,35158453,10389205,NA,complete,NA,65cd1c256f7be3af7ebb1a2d,computer,Desktop or Laptop,Mac OS 10.15.7,Chrome 121.0.0.0,1440x900,1420x707,NA,NA,0,Task Introduction and Instructions (re-introduce video and audio) (Clone),3,EFDGCHBIAJ,Passed AC2,NA,Spreadsheet1,NA,,,,NA,5,END,NA,NA,NA,NA,NA,NA,0,NA,NA,NA,NA,,,NA,,,NA,SUPPRF82095
1,1.70794E+12,14/02/2024 20:21,1.70792E+12,-6,14/02/2024 08:21,165975,4,task-v7r7,NA,35157776,10389250,NA,complete,NA,65cd1e48f963d201475b76d4,computer,Desktop or Laptop,Windows 10,Chrome 121.0.0.0,1920x1080,1920x953,NA,NA,0,Task Introduction and Instructions (re-introduce video and audio) (Clone),3,DECFBGAHJI,Passed AC2,NA,Spreadsheet1,NA,,,,NA,5,BEGIN,NA,NA,NA,NA,NA,NA,0,NA,NA,NA,NA,,,NA,,,NA,SUPPRF29203
2,1.70794E+12,14/02/2024 20:21,1.70792E+12,-6,14/02/2024 08:21,165975,4,task-v7r7,NA,35157776,10389250,NA,complete,NA,65cd1e48f963d201475b76d4,computer,Desktop or Laptop,Windows 10,Chrome 121.0.0.0,1920x1080,1920x953,NA,NA,0,Task Introduction and Instructions (re-introduce video and audio) (Clone),3,DECFBGAHJI,Passed AC2,NA,Spreadsheet1,1,Task Instructions,Screen 1,anr7sn,1,continue,,3000,2993,3000,3000,2993,3000,1,3000,0,0,NA,Click To Continue,Continue Button,3,object-60,Task Instructions,NA,SUPPRF29203
3,1.70794E+12,14/02/2024 20:21,1.70792E+12,-6,14/02/2024 08:21,165975,4,task-v7r7,NA,35157776,10389250,NA,complete,NA,65cd1e48f963d201475b76d4,computer,Desktop or Laptop,Windows 10,Chrome 121.0.0.0,1920x1080,1920x953,NA,NA,0,Task Introduction and Instructions (re-introduce video and audio) (Clone),3,DECFBGAHJI,Passed AC2,NA,Spreadsheet1,1,Task Instructions,Screen 2,ce2tc8,2,continue,,7733.8,7729.1,7733.8,7733.8,7729.1,7733.8,1,7733.8,0,0,NA,Click To Continue,Continue Button,3,object-59,Task Instructions,NA,SUPPRF29203
4,1.70794E+12,14/02/2024 20:21,1.70792E+12,-6,14/02/2024 08:21,165975,4,task-v7r7,NA,35157776,10389250,NA,complete,NA,65cd1e48f963d201475b76d4,computer,Desktop or Laptop,Windows 10,Chrome 121.0.0.0,1920x1080,1920x953,NA,NA,0,Task Introduction and Instructions (re-introduce video and audio) (Clone),3,DECFBGAHJI,Passed AC2,NA,Spreadsheet1,1,Task Instructions,Screen 3,1qtc8v,3,continue,,5215.2,5208.3,5215.2,5215.2,5208.3,5215.2,1,5215.2,0,0,NA,Click To Continue,Continue Button,2,object-2983,Task Instructions,NA,SUPPRF29203
5,1.70794E+12,14/02/2024 20:22,1.70792E+12,-6,14/02/2024 08:22,165975,4,task-v7r7,NA,35157776,10389250,NA,complete,NA,65cd1e48f963d201475b76d4,computer,Desktop or Laptop,Windows 10,Chrome 121.0.0.0,1920x1080,1920x953,NA,NA,0,Task Introduction and Instructions (re-introduce video and audio) (Clone),3,DECFBGAHJI,Passed AC2,NA,Spreadsheet1,1,Task Instructions,Screen 12,1a4vu2,4,continue,,6810.9,6805.5,6810.9,6810.9,6805.5,6810.9,1,6810.9,0,0,NA,Click To Continue,Continue Button,2,object-2466,Task Instructions,NA,SUPPRF29203
6,1.70794E+12,14/02/2024 20:22,1.70792E+12,-6,14/02/2024 08:22,165975,4,task-v7r7,NA,35157776,10389250,NA,complete,NA,65cd1e48f963d201475b76d4,computer,Desktop or Laptop,Windows 10,Chrome 121.0.0.0,1920x1080,1920x953,NA,NA,0,Task Introduction and Instructions (re-introduce video and audio) (Clone),3,DECFBGAHJI,Passed AC2,NA,Spreadsheet1,1,Task Instructions,Screen 13,q9vwda,5,continue,,4740.7,4736.2,4740.7,4740.7,4736.2,4740.7,1,4740.7,0,0,NA,Click To Continue,Continue Button,2,object-2989,Task Instructions,NA,SUPPRF29203
7,1.70794E+12,14/02/2024 20:22,1.70792E+12,-6,14/02/2024 08:22,165975,4,task-v7r7,NA,35157776,10389250,NA,complete,NA,65cd1e48f963d201475b76d4,computer,Desktop or Laptop,Windows 10,Chrome 121.0.0.0,1920x1080,1920x953,NA,NA,0,Task Introduction and Instructions (re-introduce video and audio) (Clone),3,DECFBGAHJI,Passed AC2,NA,Spreadsheet1,1,Task Instructions,Screen 11,oyulb7,6,continue,,3000,2993,3000,3000,2993,3000,1,3000,0,0,NA,Click To Continue,Continue Button,2,object-52,Task Instructions,NA,SUPPRF29203
8,1.70794E+12,14/02/2024 20:22,1.70792E+12,-6,14/02/2024 08:22,165975,4,task-v7r7,NA,35157776,10389250,NA,complete,NA,65cd1e48f963d201475b76d4,computer,Desktop or Laptop,Windows 10,Chrome 121.0.0.0,1920x1080,1920x953,NA,NA,0,Task Introduction and Instructions (re-introduce video and audio) (Clone),3,DECFBGAHJI,Passed AC2,NA,Spreadsheet1,1,Task Instructions,Screen 4,spepx9,7,continue,,2752.3,2750,2752.3,2752.3,2750,2752.3,1,2752.3,0,0,NA,Click To Continue,Continue Button,2,object-9,Task Instructions,NA,SUPPRF29203
9,1.70794E+12,14/02/2024 20:22,1.70792E+12,-6,14/02/2024 08:22,165975,4,task-v7r7,NA,35157776,10389250,NA,complete,NA,65cd1e48f963d201475b76d4,computer,Desktop or Laptop,Windows 10,Chrome 121.0.0.0,1920x1080,1920x953,NA,NA,0,Task Introduction and Instructions (re-introduce video and audio) (Clone),3,DECFBGAHJI,Passed AC2,NA,Spreadsheet1,1,Task Instructions,Screen 5,8nvnao,8,continue,,2793.6,2791.7,2793.6,2793.6,2791.7,2793.6,1,2793.6,0,0,NA,Click To Continue,Continue Button,2,object-44,Task Instructions,NA,SUPPRF29203
10,1.70794E+12,14/02/2024 20:22,1.70792E+12,-6,14/02/2024 08:22,165975,4,task-v7r7,NA,35157776,10389250,NA,complete,NA,65cd1e48f963d201475b76d4,computer,Desktop or Laptop,Windows 10,Chrome 121.0.0.0,1920x1080,1920x953,NA,NA,0,Task Introduction and Instructions (re-introduce video and audio) (Clone),3,DECFBGAHJI,Passed AC2,NA,Spreadsheet1,NA,,,,NA,5,END,NA,NA,NA,NA,NA,NA,0,NA,NA,NA,NA,,,NA,,,NA,SUPPRF29203
1,1.70794E+12,14/02/2024 20:27,1.70794E+12,0,14/02/2024 20:27,165975,4,task-v7r7,NA,35157910,10389285,NA,complete,NA,65cd1f657ceb9cd7d4dfacc3,computer,Desktop or Laptop,Mac OS 10.15.7,Chrome 95.0.4638.54,1440x900,1440x821,NA,NA,0,Task Introduction and Instructions (re-introduce video and audio) (Clone),3,FGEHDICJBA,Passed AC2,NA,Spreadsheet1,NA,,,,NA,5,BEGIN,NA,NA,NA,NA,NA,NA,0,NA,NA,NA,NA,,,NA,,,NA,SUPPRF29384
2,1.70794E+12,14/02/2024 20:27,1.70794E+12,0,14/02/2024 20:27,165975,4,task-v7r7,NA,35157910,10389285,NA,complete,NA,65cd1f657ceb9cd7d4dfacc3,computer,Desktop or Laptop,Mac OS 10.15.7,Chrome 95.0.4638.54,1440x900,1440x821,NA,NA,0,Task Introduction and Instructions (re-introduce video and audio) (Clone),3,FGEHDICJBA,Passed AC2,NA,Spreadsheet1,1,Task Instructions,Screen 1,anr7sn,1,continue,,3246.159,3233.398,3246.159,3246.159,3233.398,3246.159,1,3246.159,0,0,NA,Click To Continue,Continue Button,3,object-60,Task Instructions,NA,SUPPRF29384
3,1.70794E+12,14/02/2024 20:27,1.70794E+12,0,14/02/2024 20:27,165975,4,task-v7r7,NA,35157910,10389285,NA,complete,NA,65cd1f657ceb9cd7d4dfacc3,computer,Desktop or Laptop,Mac OS 10.15.7,Chrome 95.0.4638.54,1440x900,1440x821,NA,NA,0,Task Introduction and Instructions (re-introduce video and audio) (Clone),3,FGEHDICJBA,Passed AC2,NA,Spreadsheet1,1,Task Instructions,Screen 2,ce2tc8,2,continue,,8861.161,8850.177,8861.161,8861.161,8850.177,8861.161,1,8861.161,0,0,NA,Click To Continue,Continue Button,3,object-59,Task Instructions,NA,SUPPRF29384
4,1.70794E+12,14/02/2024 20:27,1.70794E+12,0,14/02/2024 20:27,165975,4,task-v7r7,NA,35157910,10389285,NA,complete,NA,65cd1f657ceb9cd7d4dfacc3,computer,Desktop or Laptop,Mac OS 10.15.7,Chrome 95.0.4638.54,1440x900,1440x821,NA,NA,0,Task Introduction and Instructions (re-introduce video and audio) (Clone),3,FGEHDICJBA,Passed AC2,NA,Spreadsheet1,1,Task Instructions,Screen 3,1qtc8v,3,continue,,5905.684,5900.808,5905.684,5905.684,5900.808,5905.684,1,5905.684,0,0,NA,Click To Continue,Continue Button,2,object-2983,Task Instructions,NA,SUPPRF29384
5,1.70794E+12,14/02/2024 20:28,1.70794E+12,0,14/02/2024 20:28,165975,4,task-v7r7,NA,35157910,10389285,NA,complete,NA,65cd1f657ceb9cd7d4dfacc3,computer,Desktop or Laptop,Mac OS 10.15.7,Chrome 95.0.4638.54,1440x900,1440x821,NA,NA,0,Task Introduction and Instructions (re-introduce video and audio) (Clone),3,FGEHDICJBA,Passed AC2,NA,Spreadsheet1,1,Task Instructions,Screen 12,1a4vu2,4,continue,,8145.476,8133.496,8145.476,8145.476,8133.496,8145.476,1,8145.476,0,0,NA,Click To Continue,Continue Button,2,object-2466,Task Instructions,NA,SUPPRF29384
6,1.70794E+12,14/02/2024 20:28,1.70794E+12,0,14/02/2024 20:28,165975,4,task-v7r7,NA,35157910,10389285,NA,complete,NA,65cd1f657ceb9cd7d4dfacc3,computer,Desktop or Laptop,Mac OS 10.15.7,Chrome 95.0.4638.54,1440x900,1440x821,NA,NA,0,Task Introduction and Instructions (re-introduce video and audio) (Clone),3,FGEHDICJBA,Passed AC2,NA,Spreadsheet1,1,Task Instructions,Screen 13,q9vwda,5,continue,,5009.08,5000.73,5009.08,5009.08,5000.73,5009.08,1,5009.08,0,0,NA,Click To Continue,Continue Button,2,object-2989,Task Instructions,NA,SUPPRF29384
7,1.70794E+12,14/02/2024 20:28,1.70794E+12,0,14/02/2024 20:28,165975,4,task-v7r7,NA,35157910,10389285,NA,complete,NA,65cd1f657ceb9cd7d4dfacc3,computer,Desktop or Laptop,Mac OS 10.15.7,Chrome 95.0.4638.54,1440x900,1440x821,NA,NA,0,Task Introduction and Instructions (re-introduce video and audio) (Clone),3,FGEHDICJBA,Passed AC2,NA,Spreadsheet1,1,Task Instructions,Screen 11,oyulb7,6,continue,,2724.15,2716.721,2724.15,2724.15,2716.721,2724.15,1,2724.15,0,0,NA,Click To Continue,Continue Button,2,object-52,Task Instructions,NA,SUPPRF29384
8,1.70794E+12,14/02/2024 20:28,1.70794E+12,0,14/02/2024 20:28,165975,4,task-v7r7,NA,35157910,10389285,NA,complete,NA,65cd1f657ceb9cd7d4dfacc3,computer,Desktop or Laptop,Mac OS 10.15.7,Chrome 95.0.4638.54,1440x900,1440x821,NA,NA,0,Task Introduction and Instructions (re-introduce video and audio) (Clone),3,FGEHDICJBA,Passed AC2,NA,Spreadsheet1,1,Task Instructions,Screen 4,spepx9,7,continue,,2355.629,2350.047,2355.629,2355.629,2350.047,2355.629,1,2355.629,0,0,NA,Click To Continue,Continue Button,2,object-9,Task Instructions,NA,SUPPRF29384
9,1.70794E+12,14/02/2024 20:28,1.70794E+12,0,14/02/2024 20:28,165975,4,task-v7r7,NA,35157910,10389285,NA,complete,NA,65cd1f657ceb9cd7d4dfacc3,computer,Desktop or Laptop,Mac OS 10.15.7,Chrome 95.0.4638.54,1440x900,1440x821,NA,NA,0,Task Introduction and Instructions (re-introduce video and audio) (Clone),3,FGEHDICJBA,Passed AC2,NA,Spreadsheet1,1,Task Instructions,Screen 5,8nvnao,8,continue,,2457.582,2450.596,2457.582,2457.582,2450.596,2457.582,1,2457.582,0,0,NA,Click To Continue,Continue Button,2,object-44,Task Instructions,NA,SUPPRF29384
10,1.70794E+12,14/02/2024 20:28,1.70794E+12,0,14/02/2024 20:28,165975,4,task-v7r7,NA,35157910,10389285,NA,complete,NA,65cd1f657ceb9cd7d4dfacc3,computer,Desktop or Laptop,Mac OS 10.15.7,Chrome 95.0.4638.54,1440x900,1440x821,NA,NA,0,Task Introduction and Instructions (re-introduce video and audio) (Clone),3,FGEHDICJBA,Passed AC2,NA,Spreadsheet1,NA,,,,NA,5,END,NA,NA,NA,NA,NA,NA,0,NA,NA,NA,NA,,,NA,,,NA,SUPPRF29384
1,1.70794E+12,14/02/2024 21:08,1.70795E+12,1,14/02/2024 23:08,165975,4,task-v7r7,NA,35158911,10389435,NA,complete,NA,65cd2321df8f04f73b0873bb,computer,Desktop or Laptop,Windows 10,Chrome 107.0.0.0,1536x864,1536x730,NA,NA,0,Task Introduction and Instructions (re-introduce video and audio) (Clone),3,GHFIEJDACB,Passed AC2,NA,Spreadsheet1,NA,,,,NA,5,BEGIN,NA,NA,NA,NA,NA,NA,0,NA,NA,NA,NA,,,NA,,,NA,SUPPRF74532
2,1.70794E+12,14/02/2024 21:08,1.70795E+12,1,14/02/2024 23:08,165975,4,task-v7r7,NA,35158911,10389435,NA,complete,NA,65cd2321df8f04f73b0873bb,computer,Desktop or Laptop,Windows 10,Chrome 107.0.0.0,1536x864,1536x730,NA,NA,0,Task Introduction and Instructions (re-introduce video and audio) (Clone),3,GHFIEJDACB,Passed AC2,NA,Spreadsheet1,1,Task Instructions,Screen 1,anr7sn,1,continue,,5617.1,5615.8,5617.1,5617.1,5615.8,5617.1,1,5617.1,0,0,NA,Click To Continue,Continue Button,3,object-60,Task Instructions,NA,SUPPRF74532
3,1.70794E+12,14/02/2024 21:09,1.70795E+12,1,14/02/2024 23:09,165975,4,task-v7r7,NA,35158911,10389435,NA,complete,NA,65cd2321df8f04f73b0873bb,computer,Desktop or Laptop,Windows 10,Chrome 107.0.0.0,1536x864,1536x730,NA,NA,0,Task Introduction and Instructions (re-introduce video and audio) (Clone),3,GHFIEJDACB,Passed AC2,NA,Spreadsheet1,1,Task Instructions,Screen 2,ce2tc8,2,continue,,56883.8,56879.9,56883.8,56883.8,56879.9,56883.8,1,56883.8,0,0,NA,Click To Continue,Continue Button,3,object-59,Task Instructions,NA,SUPPRF74532
4,1.70794E+12,14/02/2024 21:09,1.70795E+12,1,14/02/2024 23:09,165975,4,task-v7r7,NA,35158911,10389435,NA,complete,NA,65cd2321df8f04f73b0873bb,computer,Desktop or Laptop,Windows 10,Chrome 107.0.0.0,1536x864,1536x730,NA,NA,0,Task Introduction and Instructions (re-introduce video and audio) (Clone),3,GHFIEJDACB,Passed AC2,NA,Spreadsheet1,1,Task Instructions,Screen 3,1qtc8v,3,continue,,22748.2,22732.2,22748.2,22748.2,22732.2,22748.2,1,22748.2,0,0,NA,Click To Continue,Continue Button,2,object-2983,Task Instructions,NA,SUPPRF74532
5,1.70795E+12,14/02/2024 21:10,1.70795E+12,1,14/02/2024 23:10,165975,4,task-v7r7,NA,35158911,10389435,NA,complete,NA,65cd2321df8f04f73b0873bb,computer,Desktop or Laptop,Windows 10,Chrome 107.0.0.0,1536x864,1536x730,NA,NA,0,Task Introduction and Instructions (re-introduce video and audio) (Clone),3,GHFIEJDACB,Passed AC2,NA,Spreadsheet1,1,Task Instructions,Screen 12,1a4vu2,4,continue,,40360.6,40348,40360.6,40360.6,40348,40360.6,1,40360.6,0,0,NA,Click To Continue,Continue Button,2,object-2466,Task Instructions,NA,SUPPRF74532
6,1.70795E+12,14/02/2024 21:10,1.70795E+12,1,14/02/2024 23:10,165975,4,task-v7r7,NA,35158911,10389435,NA,complete,NA,65cd2321df8f04f73b0873bb,computer,Desktop or Laptop,Windows 10,Chrome 107.0.0.0,1536x864,1536x730,NA,NA,0,Task Introduction and Instructions (re-introduce video and audio) (Clone),3,GHFIEJDACB,Passed AC2,NA,Spreadsheet1,1,Task Instructions,Screen 13,q9vwda,5,continue,,17615.6,17615,17615.6,17615.6,17615,17615.6,1,17615.6,0,0,NA,Click To Continue,Continue Button,2,object-2989,Task Instructions,NA,SUPPRF74532
7,1.70795E+12,14/02/2024 21:10,1.70795E+12,1,14/02/2024 23:10,165975,4,task-v7r7,NA,35158911,10389435,NA,complete,NA,65cd2321df8f04f73b0873bb,computer,Desktop or Laptop,Windows 10,Chrome 107.0.0.0,1536x864,1536x730,NA,NA,0,Task Introduction and Instructions (re-introduce video and audio) (Clone),3,GHFIEJDACB,Passed AC2,NA,Spreadsheet1,1,Task Instructions,Screen 11,oyulb7,6,continue,,6867.8,6866.2,6867.8,6867.8,6866.2,6867.8,1,6867.8,0,0,NA,Click To Continue,Continue Button,2,object-52,Task Instructions,NA,SUPPRF74532
8,1.70795E+12,14/02/2024 21:11,1.70795E+12,1,14/02/2024 23:11,165975,4,task-v7r7,NA,35158911,10389435,NA,complete,NA,65cd2321df8f04f73b0873bb,computer,Desktop or Laptop,Windows 10,Chrome 107.0.0.0,1536x864,1536x730,NA,NA,0,Task Introduction and Instructions (re-introduce video and audio) (Clone),3,GHFIEJDACB,Passed AC2,NA,Spreadsheet1,1,Task Instructions,Screen 4,spepx9,7,continue,,4304,4299.7,4304,4304,4299.7,4304,1,4304,0,0,NA,Click To Continue,Continue Button,2,object-9,Task Instructions,NA,SUPPRF74532
9,1.70795E+12,14/02/2024 21:11,1.70795E+12,1,14/02/2024 23:11,165975,4,task-v7r7,NA,35158911,10389435,NA,complete,NA,65cd2321df8f04f73b0873bb,computer,Desktop or Laptop,Windows 10,Chrome 107.0.0.0,1536x864,1536x730,NA,NA,0,Task Introduction and Instructions (re-introduce video and audio) (Clone),3,GHFIEJDACB,Passed AC2,NA,Spreadsheet1,1,Task Instructions,Screen 5,8nvnao,8,continue,,3256.3,3249.9,3256.3,3256.3,3249.9,3256.3,1,3256.3,0,0,NA,Click To Continue,Continue Button,2,object-44,Task Instructions,NA,SUPPRF74532
10,1.70795E+12,14/02/2024 21:11,1.70795E+12,1,14/02/2024 23:11,165975,4,task-v7r7,NA,35158911,10389435,NA,complete,NA,65cd2321df8f04f73b0873bb,computer,Desktop or Laptop,Windows 10,Chrome 107.0.0.0,1536x864,1536x730,NA,NA,0,Task Introduction and Instructions (re-introduce video and audio) (Clone),3,GHFIEJDACB,Passed AC2,NA,Spreadsheet1,NA,,,,NA,5,END,NA,NA,NA,NA,NA,NA,0,NA,NA,NA,NA,,,NA,,,NA,SUPPRF74532
1,1.70794E+12,14/02/2024 20:56,1.70795E+12,1,14/02/2024 22:56,165975,4,task-v7r7,NA,35158624,10389452,NA,complete,NA,65cd240b9901cef693c9dee4,computer,Desktop or Laptop,Windows 10,Chrome 121.0.0.0,1920x1080,1920x991,NA,NA,0,Task Introduction and Instructions (re-introduce video and audio) (Clone),3,HIGJFAEBDC,Passed AC2,NA,Spreadsheet1,NA,,,,NA,5,BEGIN,NA,NA,NA,NA,NA,NA,0,NA,NA,NA,NA,,,NA,,,NA,SUPPRF79953
2,1.70794E+12,14/02/2024 20:57,1.70795E+12,1,14/02/2024 22:57,165975,4,task-v7r7,NA,35158624,10389452,NA,complete,NA,65cd240b9901cef693c9dee4,computer,Desktop or Laptop,Windows 10,Chrome 121.0.0.0,1920x1080,1920x991,NA,NA,0,Task Introduction and Instructions (re-introduce video and audio) (Clone),3,HIGJFAEBDC,Passed AC2,NA,Spreadsheet1,1,Task Instructions,Screen 1,anr7sn,1,continue,,23761.1,23746.9,23761.1,23761.1,23746.9,23761.1,1,23761.1,0,0,NA,Click To Continue,Continue Button,3,object-60,Task Instructions,NA,SUPPRF79953
3,1.70794E+12,14/02/2024 20:57,1.70795E+12,1,14/02/2024 22:57,165975,4,task-v7r7,NA,35158624,10389452,NA,complete,NA,65cd240b9901cef693c9dee4,computer,Desktop or Laptop,Windows 10,Chrome 121.0.0.0,1920x1080,1920x991,NA,NA,0,Task Introduction and Instructions (re-introduce video and audio) (Clone),3,HIGJFAEBDC,Passed AC2,NA,Spreadsheet1,1,Task Instructions,Screen 2,ce2tc8,2,continue,,26130.9,26113.9,26130.9,26130.9,26113.9,26130.9,1,26130.9,0,0,NA,Click To Continue,Continue Button,3,object-59,Task Instructions,NA,SUPPRF79953
4,1.70794E+12,14/02/2024 20:57,1.70795E+12,1,14/02/2024 22:57,165975,4,task-v7r7,NA,35158624,10389452,NA,complete,NA,65cd240b9901cef693c9dee4,computer,Desktop or Laptop,Windows 10,Chrome 121.0.0.0,1920x1080,1920x991,NA,NA,0,Task Introduction and Instructions (re-introduce video and audio) (Clone),3,HIGJFAEBDC,Passed AC2,NA,Spreadsheet1,1,Task Instructions,Screen 3,1qtc8v,3,continue,,20683.8,20680.3,20683.8,20683.8,20680.3,20683.8,1,20683.8,0,0,NA,Click To Continue,Continue Button,2,object-2983,Task Instructions,NA,SUPPRF79953
5,1.70794E+12,14/02/2024 20:58,1.70795E+12,1,14/02/2024 22:58,165975,4,task-v7r7,NA,35158624,10389452,NA,complete,NA,65cd240b9901cef693c9dee4,computer,Desktop or Laptop,Windows 10,Chrome 121.0.0.0,1920x1080,1920x991,NA,NA,0,Task Introduction and Instructions (re-introduce video and audio) (Clone),3,HIGJFAEBDC,Passed AC2,NA,Spreadsheet1,1,Task Instructions,Screen 12,1a4vu2,4,continue,,23972.9,23964.1,23972.9,23972.9,23964.1,23972.9,1,23972.9,0,0,NA,Click To Continue,Continue Button,2,object-2466,Task Instructions,NA,SUPPRF79953
6,1.70794E+12,14/02/2024 20:58,1.70795E+12,1,14/02/2024 22:58,165975,4,task-v7r7,NA,35158624,10389452,NA,complete,NA,65cd240b9901cef693c9dee4,computer,Desktop or Laptop,Windows 10,Chrome 121.0.0.0,1920x1080,1920x991,NA,NA,0,Task Introduction and Instructions (re-introduce video and audio) (Clone),3,HIGJFAEBDC,Passed AC2,NA,Spreadsheet1,1,Task Instructions,Screen 13,q9vwda,5,continue,,36844.2,36828.3,36844.2,36844.2,36828.3,36844.2,1,36844.2,0,0,NA,Click To Continue,Continue Button,2,object-2989,Task Instructions,NA,SUPPRF79953
7,1.70794E+12,14/02/2024 20:58,1.70795E+12,1,14/02/2024 22:58,165975,4,task-v7r7,NA,35158624,10389452,NA,complete,NA,65cd240b9901cef693c9dee4,computer,Desktop or Laptop,Windows 10,Chrome 121.0.0.0,1920x1080,1920x991,NA,NA,0,Task Introduction and Instructions (re-introduce video and audio) (Clone),3,HIGJFAEBDC,Passed AC2,NA,Spreadsheet1,1,Task Instructions,Screen 11,oyulb7,6,continue,,4249.6,4232.8,4249.6,4249.6,4232.8,4249.6,1,4249.6,0,0,NA,Click To Continue,Continue Button,2,object-52,Task Instructions,NA,SUPPRF79953
8,1.70795E+12,14/02/2024 21:12,1.70795E+12,1,14/02/2024 23:12,165975,4,task-v7r7,NA,35158624,10389452,NA,complete,NA,65cd240b9901cef693c9dee4,computer,Desktop or Laptop,Windows 10,Chrome 121.0.0.0,1920x1080,1920x991,NA,NA,0,Task Introduction and Instructions (re-introduce video and audio) (Clone),3,HIGJFAEBDC,Passed AC2,NA,Spreadsheet1,1,Task Instructions,Screen 4,spepx9,7,continue,,808554,808537.5,808554,808554,808537.5,808554,1,808554,0,0,NA,Click To Continue,Continue Button,2,object-9,Task Instructions,NA,SUPPRF79953
9,1.70795E+12,14/02/2024 21:12,1.70795E+12,1,14/02/2024 23:12,165975,4,task-v7r7,NA,35158624,10389452,NA,complete,NA,65cd240b9901cef693c9dee4,computer,Desktop or Laptop,Windows 10,Chrome 121.0.0.0,1920x1080,1920x991,NA,NA,0,Task Introduction and Instructions (re-introduce video and audio) (Clone),3,HIGJFAEBDC,Passed AC2,NA,Spreadsheet1,1,Task Instructions,Screen 5,8nvnao,8,continue,,5135.6,5132.9,5135.6,5135.6,5132.9,5135.6,1,5135.6,0,0,NA,Click To Continue,Continue Button,2,object-44,Task Instructions,NA,SUPPRF79953
10,1.70795E+12,14/02/2024 21:12,1.70795E+12,1,14/02/2024 23:12,165975,4,task-v7r7,NA,35158624,10389452,NA,complete,NA,65cd240b9901cef693c9dee4,computer,Desktop or Laptop,Windows 10,Chrome 121.0.0.0,1920x1080,1920x991,NA,NA,0,Task Introduction and Instructions (re-introduce video and audio) (Clone),3,HIGJFAEBDC,Passed AC2,NA,Spreadsheet1,NA,,,,NA,5,END,NA,NA,NA,NA,NA,NA,0,NA,NA,NA,NA,,,NA,,,NA,SUPPRF79953
1,1.70794E+12,14/02/2024 20:56,1.70794E+12,0,14/02/2024 20:56,165975,4,task-v7r7,NA,35158614,10389500,NA,complete,NA,65cd24fb55260acb6c71c388,computer,Desktop or Laptop,Chromium OS 14541.0.0,Chrome 121.0.0.0,1536x864,1536x695,NA,NA,0,Task Introduction and Instructions (re-introduce video and audio) (Clone),3,IJHAGBFCED,Passed AC2,NA,Spreadsheet1,NA,,,,NA,5,BEGIN,NA,NA,NA,NA,NA,NA,0,NA,NA,NA,NA,,,NA,,,NA,SUPPRF11788
2,1.70794E+12,14/02/2024 20:56,1.70794E+12,0,14/02/2024 20:56,165975,4,task-v7r7,NA,35158614,10389500,NA,complete,NA,65cd24fb55260acb6c71c388,computer,Desktop or Laptop,Chromium OS 14541.0.0,Chrome 121.0.0.0,1536x864,1536x695,NA,NA,0,Task Introduction and Instructions (re-introduce video and audio) (Clone),3,IJHAGBFCED,Passed AC2,NA,Spreadsheet1,1,Task Instructions,Screen 1,anr7sn,1,continue,,16839.8,16824.6,16839.8,16839.8,16824.6,16839.8,1,16839.8,0,0,NA,Click To Continue,Continue Button,3,object-60,Task Instructions,NA,SUPPRF11788
3,1.70794E+12,14/02/2024 20:56,1.70794E+12,0,14/02/2024 20:56,165975,4,task-v7r7,NA,35158614,10389500,NA,complete,NA,65cd24fb55260acb6c71c388,computer,Desktop or Laptop,Chromium OS 14541.0.0,Chrome 121.0.0.0,1536x864,1536x695,NA,NA,0,Task Introduction and Instructions (re-introduce video and audio) (Clone),3,IJHAGBFCED,Passed AC2,NA,Spreadsheet1,1,Task Instructions,Screen 2,ce2tc8,2,continue,,12570.1,12566.1,12570.1,12570.1,12566.1,12570.1,1,12570.1,0,0,NA,Click To Continue,Continue Button,3,object-59,Task Instructions,NA,SUPPRF11788
4,1.70794E+12,14/02/2024 20:56,1.70794E+12,0,14/02/2024 20:56,165975,4,task-v7r7,NA,35158614,10389500,NA,complete,NA,65cd24fb55260acb6c71c388,computer,Desktop or Laptop,Chromium OS 14541.0.0,Chrome 121.0.0.0,1536x864,1536x695,NA,NA,0,Task Introduction and Instructions (re-introduce video and audio) (Clone),3,IJHAGBFCED,Passed AC2,NA,Spreadsheet1,1,Task Instructions,Screen 3,1qtc8v,3,continue,,17985.1,17974.3,17985.1,17985.1,17974.3,17985.1,1,17985.1,0,0,NA,Click To Continue,Continue Button,2,object-2983,Task Instructions,NA,SUPPRF11788
5,1.70794E+12,14/02/2024 20:57,1.70794E+12,0,14/02/2024 20:57,165975,4,task-v7r7,NA,35158614,10389500,NA,complete,NA,65cd24fb55260acb6c71c388,computer,Desktop or Laptop,Chromium OS 14541.0.0,Chrome 121.0.0.0,1536x864,1536x695,NA,NA,0,Task Introduction and Instructions (re-introduce video and audio) (Clone),3,IJHAGBFCED,Passed AC2,NA,Spreadsheet1,1,Task Instructions,Screen 12,1a4vu2,4,continue,,9986.5,9974.5,9986.5,9986.5,9974.5,9986.5,1,9986.5,0,0,NA,Click To Continue,Continue Button,2,object-2466,Task Instructions,NA,SUPPRF11788
6,1.70794E+12,14/02/2024 20:57,1.70794E+12,0,14/02/2024 20:57,165975,4,task-v7r7,NA,35158614,10389500,NA,complete,NA,65cd24fb55260acb6c71c388,computer,Desktop or Laptop,Chromium OS 14541.0.0,Chrome 121.0.0.0,1536x864,1536x695,NA,NA,0,Task Introduction and Instructions (re-introduce video and audio) (Clone),3,IJHAGBFCED,Passed AC2,NA,Spreadsheet1,1,Task Instructions,Screen 13,q9vwda,5,continue,,11448.1,11441.2,11448.1,11448.1,11441.2,11448.1,1,11448.1,0,0,NA,Click To Continue,Continue Button,2,object-2989,Task Instructions,NA,SUPPRF11788
7,1.70794E+12,14/02/2024 20:57,1.70794E+12,0,14/02/2024 20:57,165975,4,task-v7r7,NA,35158614,10389500,NA,complete,NA,65cd24fb55260acb6c71c388,computer,Desktop or Laptop,Chromium OS 14541.0.0,Chrome 121.0.0.0,1536x864,1536x695,NA,NA,0,Task Introduction and Instructions (re-introduce video and audio) (Clone),3,IJHAGBFCED,Passed AC2,NA,Spreadsheet1,1,Task Instructions,Screen 11,oyulb7,6,continue,,2521,2516.5,2521,2521,2516.5,2521,1,2521,0,0,NA,Click To Continue,Continue Button,2,object-52,Task Instructions,NA,SUPPRF11788
8,1.70794E+12,14/02/2024 20:57,1.70794E+12,0,14/02/2024 20:57,165975,4,task-v7r7,NA,35158614,10389500,NA,complete,NA,65cd24fb55260acb6c71c388,computer,Desktop or Laptop,Chromium OS 14541.0.0,Chrome 121.0.0.0,1536x864,1536x695,NA,NA,0,Task Introduction and Instructions (re-introduce video and audio) (Clone),3,IJHAGBFCED,Passed AC2,NA,Spreadsheet1,1,Task Instructions,Screen 4,spepx9,7,continue,,2508.3,2491.6,2508.3,2508.3,2491.6,2508.3,1,2508.3,0,0,NA,Click To Continue,Continue Button,2,object-9,Task Instructions,NA,SUPPRF11788
9,1.70794E+12,14/02/2024 20:57,1.70794E+12,0,14/02/2024 20:57,165975,4,task-v7r7,NA,35158614,10389500,NA,complete,NA,65cd24fb55260acb6c71c388,computer,Desktop or Laptop,Chromium OS 14541.0.0,Chrome 121.0.0.0,1536x864,1536x695,NA,NA,0,Task Introduction and Instructions (re-introduce video and audio) (Clone),3,IJHAGBFCED,Passed AC2,NA,Spreadsheet1,1,Task Instructions,Screen 5,8nvnao,8,continue,,2510.4,2508.3,2510.4,2510.4,2508.3,2510.4,1,2510.4,0,0,NA,Click To Continue,Continue Button,2,object-44,Task Instructions,NA,SUPPRF11788
10,1.70794E+12,14/02/2024 20:57,1.70794E+12,0,14/02/2024 20:57,165975,4,task-v7r7,NA,35158614,10389500,NA,complete,NA,65cd24fb55260acb6c71c388,computer,Desktop or Laptop,Chromium OS 14541.0.0,Chrome 121.0.0.0,1536x864,1536x695,NA,NA,0,Task Introduction and Instructions (re-introduce video and audio) (Clone),3,IJHAGBFCED,Passed AC2,NA,Spreadsheet1,NA,,,,NA,5,END,NA,NA,NA,NA,NA,NA,0,NA,NA,NA,NA,,,NA,,,NA,SUPPRF11788
1,1.70794E+12,14/02/2024 21:09,1.70794E+12,0,14/02/2024 21:09,165975,4,task-v7r7,NA,35158929,10389652,NA,complete,NA,65cd2902abeaa111a2fc9de2,computer,Desktop or Laptop,Windows 10,Chrome 121.0.0.0,1536x864,1536x695,NA,NA,0,Task Introduction and Instructions (re-introduce video and audio) (Clone),3,JAIBHCGDFE,Passed AC2,NA,Spreadsheet1,NA,,,,NA,5,BEGIN,NA,NA,NA,NA,NA,NA,0,NA,NA,NA,NA,,,NA,,,NA,SUPPRF92611
2,1.70794E+12,14/02/2024 21:09,1.70794E+12,0,14/02/2024 21:09,165975,4,task-v7r7,NA,35158929,10389652,NA,complete,NA,65cd2902abeaa111a2fc9de2,computer,Desktop or Laptop,Windows 10,Chrome 121.0.0.0,1536x864,1536x695,NA,NA,0,Task Introduction and Instructions (re-introduce video and audio) (Clone),3,JAIBHCGDFE,Passed AC2,NA,Spreadsheet1,1,Task Instructions,Screen 1,anr7sn,1,continue,,3882.8,3879,3882.8,3882.8,3879,3882.8,1,3882.8,0,0,NA,Click To Continue,Continue Button,3,object-60,Task Instructions,NA,SUPPRF92611
3,1.70794E+12,14/02/2024 21:09,1.70794E+12,0,14/02/2024 21:09,165975,4,task-v7r7,NA,35158929,10389652,NA,complete,NA,65cd2902abeaa111a2fc9de2,computer,Desktop or Laptop,Windows 10,Chrome 121.0.0.0,1536x864,1536x695,NA,NA,0,Task Introduction and Instructions (re-introduce video and audio) (Clone),3,JAIBHCGDFE,Passed AC2,NA,Spreadsheet1,1,Task Instructions,Screen 2,ce2tc8,2,continue,,22278.1,22275.7,22278.1,22278.1,22275.7,22278.1,1,22278.1,0,0,NA,Click To Continue,Continue Button,3,object-59,Task Instructions,NA,SUPPRF92611
4,1.70794E+12,14/02/2024 21:09,1.70794E+12,0,14/02/2024 21:09,165975,4,task-v7r7,NA,35158929,10389652,NA,complete,NA,65cd2902abeaa111a2fc9de2,computer,Desktop or Laptop,Windows 10,Chrome 121.0.0.0,1536x864,1536x695,NA,NA,0,Task Introduction and Instructions (re-introduce video and audio) (Clone),3,JAIBHCGDFE,Passed AC2,NA,Spreadsheet1,1,Task Instructions,Screen 3,1qtc8v,3,continue,,6245.9,6243,6245.9,6245.9,6243,6245.9,1,6245.9,0,0,NA,Click To Continue,Continue Button,2,object-2983,Task Instructions,NA,SUPPRF92611
5,1.70795E+12,14/02/2024 21:10,1.70795E+12,0,14/02/2024 21:10,165975,4,task-v7r7,NA,35158929,10389652,NA,complete,NA,65cd2902abeaa111a2fc9de2,computer,Desktop or Laptop,Windows 10,Chrome 121.0.0.0,1536x864,1536x695,NA,NA,0,Task Introduction and Instructions (re-introduce video and audio) (Clone),3,JAIBHCGDFE,Passed AC2,NA,Spreadsheet1,1,Task Instructions,Screen 12,1a4vu2,4,continue,,20226.1,20211.1,20226.1,20226.1,20211.1,20226.1,1,20226.1,0,0,NA,Click To Continue,Continue Button,2,object-2466,Task Instructions,NA,SUPPRF92611
6,1.70795E+12,14/02/2024 21:10,1.70795E+12,0,14/02/2024 21:10,165975,4,task-v7r7,NA,35158929,10389652,NA,complete,NA,65cd2902abeaa111a2fc9de2,computer,Desktop or Laptop,Windows 10,Chrome 121.0.0.0,1536x864,1536x695,NA,NA,0,Task Introduction and Instructions (re-introduce video and audio) (Clone),3,JAIBHCGDFE,Passed AC2,NA,Spreadsheet1,1,Task Instructions,Screen 13,q9vwda,5,continue,,8715.2,8707.1,8715.2,8715.2,8707.1,8715.2,1,8715.2,0,0,NA,Click To Continue,Continue Button,2,object-2989,Task Instructions,NA,SUPPRF92611
7,1.70795E+12,14/02/2024 21:10,1.70795E+12,0,14/02/2024 21:10,165975,4,task-v7r7,NA,35158929,10389652,NA,complete,NA,65cd2902abeaa111a2fc9de2,computer,Desktop or Laptop,Windows 10,Chrome 121.0.0.0,1536x864,1536x695,NA,NA,0,Task Introduction and Instructions (re-introduce video and audio) (Clone),3,JAIBHCGDFE,Passed AC2,NA,Spreadsheet1,1,Task Instructions,Screen 11,oyulb7,6,continue,,3554.1,3546.1,3554.1,3554.1,3546.1,3554.1,1,3554.1,0,0,NA,Click To Continue,Continue Button,2,object-52,Task Instructions,NA,SUPPRF92611
8,1.70795E+12,14/02/2024 21:10,1.70795E+12,0,14/02/2024 21:10,165975,4,task-v7r7,NA,35158929,10389652,NA,complete,NA,65cd2902abeaa111a2fc9de2,computer,Desktop or Laptop,Windows 10,Chrome 121.0.0.0,1536x864,1536x695,NA,NA,0,Task Introduction and Instructions (re-introduce video and audio) (Clone),3,JAIBHCGDFE,Passed AC2,NA,Spreadsheet1,1,Task Instructions,Screen 4,spepx9,7,continue,,3404.3,3396.2,3404.3,3404.3,3396.2,3404.3,1,3404.3,0,0,NA,Click To Continue,Continue Button,2,object-9,Task Instructions,NA,SUPPRF92611
9,1.70795E+12,14/02/2024 21:10,1.70795E+12,0,14/02/2024 21:10,165975,4,task-v7r7,NA,35158929,10389652,NA,complete,NA,65cd2902abeaa111a2fc9de2,computer,Desktop or Laptop,Windows 10,Chrome 121.0.0.0,1536x864,1536x695,NA,NA,0,Task Introduction and Instructions (re-introduce video and audio) (Clone),3,JAIBHCGDFE,Passed AC2,NA,Spreadsheet1,1,Task Instructions,Screen 5,8nvnao,8,continue,,3498,3496.6,3498,3498,3496.6,3498,1,3498,0,0,NA,Click To Continue,Continue Button,2,object-44,Task Instructions,NA,SUPPRF92611
10,1.70795E+12,14/02/2024 21:10,1.70795E+12,0,14/02/2024 21:10,165975,4,task-v7r7,NA,35158929,10389652,NA,complete,NA,65cd2902abeaa111a2fc9de2,computer,Desktop or Laptop,Windows 10,Chrome 121.0.0.0,1536x864,1536x695,NA,NA,0,Task Introduction and Instructions (re-introduce video and audio) (Clone),3,JAIBHCGDFE,Passed AC2,NA,Spreadsheet1,NA,,,,NA,5,END,NA,NA,NA,NA,NA,NA,0,NA,NA,NA,NA,,,NA,,,NA,SUPPRF92611
1,1.70795E+12,14/02/2024 21:12,1.70795E+12,0,14/02/2024 21:12,165975,4,task-v7r7,NA,35158981,10389709,NA,complete,NA,65cd2ae8ae300aebd05b7b20,computer,Desktop or Laptop,Mac OS 10.15.7,Chrome 121.0.0.0,1440x900,1440x676,NA,NA,0,Task Introduction and Instructions (re-introduce video and audio) (Clone),3,ABJCIDHEGF,Passed AC2,NA,Spreadsheet1,NA,,,,NA,5,BEGIN,NA,NA,NA,NA,NA,NA,0,NA,NA,NA,NA,,,NA,,,NA,SUPPRF40465
2,1.70795E+12,14/02/2024 21:12,1.70795E+12,0,14/02/2024 21:12,165975,4,task-v7r7,NA,35158981,10389709,NA,complete,NA,65cd2ae8ae300aebd05b7b20,computer,Desktop or Laptop,Mac OS 10.15.7,Chrome 121.0.0.0,1440x900,1440x676,NA,NA,0,Task Introduction and Instructions (re-introduce video and audio) (Clone),3,ABJCIDHEGF,Passed AC2,NA,Spreadsheet1,1,Task Instructions,Screen 1,anr7sn,1,continue,,3486.8,3483.1,3486.8,3486.8,3483.1,3486.8,1,3486.8,0,0,NA,Click To Continue,Continue Button,3,object-60,Task Instructions,NA,SUPPRF40465
3,1.70795E+12,14/02/2024 21:12,1.70795E+12,0,14/02/2024 21:12,165975,4,task-v7r7,NA,35158981,10389709,NA,complete,NA,65cd2ae8ae300aebd05b7b20,computer,Desktop or Laptop,Mac OS 10.15.7,Chrome 121.0.0.0,1440x900,1440x676,NA,NA,0,Task Introduction and Instructions (re-introduce video and audio) (Clone),3,ABJCIDHEGF,Passed AC2,NA,Spreadsheet1,1,Task Instructions,Screen 2,ce2tc8,2,continue,,7282.3,7267.5,7282.3,7282.3,7267.5,7282.3,1,7282.3,0,0,NA,Click To Continue,Continue Button,3,object-59,Task Instructions,NA,SUPPRF40465
4,1.70795E+12,14/02/2024 21:12,1.70795E+12,0,14/02/2024 21:12,165975,4,task-v7r7,NA,35158981,10389709,NA,complete,NA,65cd2ae8ae300aebd05b7b20,computer,Desktop or Laptop,Mac OS 10.15.7,Chrome 121.0.0.0,1440x900,1440x676,NA,NA,0,Task Introduction and Instructions (re-introduce video and audio) (Clone),3,ABJCIDHEGF,Passed AC2,NA,Spreadsheet1,1,Task Instructions,Screen 3,1qtc8v,3,continue,,3982.9,3967.1,3982.9,3982.9,3967.1,3982.9,1,3982.9,0,0,NA,Click To Continue,Continue Button,2,object-2983,Task Instructions,NA,SUPPRF40465
5,1.70795E+12,14/02/2024 21:12,1.70795E+12,0,14/02/2024 21:12,165975,4,task-v7r7,NA,35158981,10389709,NA,complete,NA,65cd2ae8ae300aebd05b7b20,computer,Desktop or Laptop,Mac OS 10.15.7,Chrome 121.0.0.0,1440x900,1440x676,NA,NA,0,Task Introduction and Instructions (re-introduce video and audio) (Clone),3,ABJCIDHEGF,Passed AC2,NA,Spreadsheet1,1,Task Instructions,Screen 12,1a4vu2,4,continue,,7718.1,7716.1,7718.1,7718.1,7716.1,7718.1,1,7718.1,0,0,NA,Click To Continue,Continue Button,2,object-2466,Task Instructions,NA,SUPPRF40465
6,1.70795E+12,14/02/2024 21:12,1.70795E+12,0,14/02/2024 21:12,165975,4,task-v7r7,NA,35158981,10389709,NA,complete,NA,65cd2ae8ae300aebd05b7b20,computer,Desktop or Laptop,Mac OS 10.15.7,Chrome 121.0.0.0,1440x900,1440x676,NA,NA,0,Task Introduction and Instructions (re-introduce video and audio) (Clone),3,ABJCIDHEGF,Passed AC2,NA,Spreadsheet1,1,Task Instructions,Screen 13,q9vwda,5,continue,,4899.6,4884,4899.6,4899.6,4884,4899.6,1,4899.6,0,0,NA,Click To Continue,Continue Button,2,object-2989,Task Instructions,NA,SUPPRF40465
7,1.70795E+12,14/02/2024 21:12,1.70795E+12,0,14/02/2024 21:12,165975,4,task-v7r7,NA,35158981,10389709,NA,complete,NA,65cd2ae8ae300aebd05b7b20,computer,Desktop or Laptop,Mac OS 10.15.7,Chrome 121.0.0.0,1440x900,1440x676,NA,NA,0,Task Introduction and Instructions (re-introduce video and audio) (Clone),3,ABJCIDHEGF,Passed AC2,NA,Spreadsheet1,1,Task Instructions,Screen 11,oyulb7,6,continue,,2898.5,2883.5,2898.5,2898.5,2883.5,2898.5,1,2898.5,0,0,NA,Click To Continue,Continue Button,2,object-52,Task Instructions,NA,SUPPRF40465
8,1.70795E+12,14/02/2024 21:12,1.70795E+12,0,14/02/2024 21:12,165975,4,task-v7r7,NA,35158981,10389709,NA,complete,NA,65cd2ae8ae300aebd05b7b20,computer,Desktop or Laptop,Mac OS 10.15.7,Chrome 121.0.0.0,1440x900,1440x676,NA,NA,0,Task Introduction and Instructions (re-introduce video and audio) (Clone),3,ABJCIDHEGF,Passed AC2,NA,Spreadsheet1,1,Task Instructions,Screen 4,spepx9,7,continue,,2732.1,2716.7,2732.1,2732.1,2716.7,2732.1,1,2732.1,0,0,NA,Click To Continue,Continue Button,2,object-9,Task Instructions,NA,SUPPRF40465
9,1.70795E+12,14/02/2024 21:12,1.70795E+12,0,14/02/2024 21:12,165975,4,task-v7r7,NA,35158981,10389709,NA,complete,NA,65cd2ae8ae300aebd05b7b20,computer,Desktop or Laptop,Mac OS 10.15.7,Chrome 121.0.0.0,1440x900,1440x676,NA,NA,0,Task Introduction and Instructions (re-introduce video and audio) (Clone),3,ABJCIDHEGF,Passed AC2,NA,Spreadsheet1,1,Task Instructions,Screen 5,8nvnao,8,continue,,15586.7,15583.5,15586.7,15586.7,15583.5,15586.7,1,15586.7,0,0,NA,Click To Continue,Continue Button,2,object-44,Task Instructions,NA,SUPPRF40465
10,1.70795E+12,14/02/2024 21:12,1.70795E+12,0,14/02/2024 21:12,165975,4,task-v7r7,NA,35158981,10389709,NA,complete,NA,65cd2ae8ae300aebd05b7b20,computer,Desktop or Laptop,Mac OS 10.15.7,Chrome 121.0.0.0,1440x900,1440x676,NA,NA,0,Task Introduction and Instructions (re-introduce video and audio) (Clone),3,ABJCIDHEGF,Passed AC2,NA,Spreadsheet1,NA,,,,NA,5,END,NA,NA,NA,NA,NA,NA,0,NA,NA,NA,NA,,,NA,,,NA,SUPPRF40465
1,1.70795E+12,14/02/2024 21:51,1.70795E+12,0,14/02/2024 21:51,165975,4,task-v7r7,NA,35159825,10389752,NA,complete,NA,65cd2bd69dae843a0d0fa55a,computer,Desktop or Laptop,Windows 10,Chrome 121.0.0.0,1280x720,1280x632,NA,NA,0,Task Introduction and Instructions (re-introduce video and audio) (Clone),3,BCADJEIFHG,Passed AC2,NA,Spreadsheet1,NA,,,,NA,5,BEGIN,NA,NA,NA,NA,NA,NA,0,NA,NA,NA,NA,,,NA,,,NA,SUPPRF16777
2,1.70795E+12,14/02/2024 21:51,1.70795E+12,0,14/02/2024 21:51,165975,4,task-v7r7,NA,35159825,10389752,NA,complete,NA,65cd2bd69dae843a0d0fa55a,computer,Desktop or Laptop,Windows 10,Chrome 121.0.0.0,1280x720,1280x632,NA,NA,0,Task Introduction and Instructions (re-introduce video and audio) (Clone),3,BCADJEIFHG,Passed AC2,NA,Spreadsheet1,1,Task Instructions,Screen 1,anr7sn,1,continue,,6118.2,6101.5,6118.2,6118.2,6101.5,6118.2,1,6118.2,0,0,NA,Click To Continue,Continue Button,3,object-60,Task Instructions,NA,SUPPRF16777
3,1.70795E+12,14/02/2024 21:51,1.70795E+12,0,14/02/2024 21:51,165975,4,task-v7r7,NA,35159825,10389752,NA,complete,NA,65cd2bd69dae843a0d0fa55a,computer,Desktop or Laptop,Windows 10,Chrome 121.0.0.0,1280x720,1280x632,NA,NA,0,Task Introduction and Instructions (re-introduce video and audio) (Clone),3,BCADJEIFHG,Passed AC2,NA,Spreadsheet1,1,Task Instructions,Screen 2,ce2tc8,2,continue,,11150.4,11135.4,11150.4,11150.4,11135.4,11150.4,1,11150.4,0,0,NA,Click To Continue,Continue Button,3,object-59,Task Instructions,NA,SUPPRF16777
4,1.70795E+12,14/02/2024 21:51,1.70795E+12,0,14/02/2024 21:51,165975,4,task-v7r7,NA,35159825,10389752,NA,complete,NA,65cd2bd69dae843a0d0fa55a,computer,Desktop or Laptop,Windows 10,Chrome 121.0.0.0,1280x720,1280x632,NA,NA,0,Task Introduction and Instructions (re-introduce video and audio) (Clone),3,BCADJEIFHG,Passed AC2,NA,Spreadsheet1,1,Task Instructions,Screen 3,1qtc8v,3,continue,,7983.2,7968.3,7983.2,7983.2,7968.3,7983.2,1,7983.2,0,0,NA,Click To Continue,Continue Button,2,object-2983,Task Instructions,NA,SUPPRF16777
5,1.70795E+12,14/02/2024 21:52,1.70795E+12,0,14/02/2024 21:52,165975,4,task-v7r7,NA,35159825,10389752,NA,complete,NA,65cd2bd69dae843a0d0fa55a,computer,Desktop or Laptop,Windows 10,Chrome 121.0.0.0,1280x720,1280x632,NA,NA,0,Task Introduction and Instructions (re-introduce video and audio) (Clone),3,BCADJEIFHG,Passed AC2,NA,Spreadsheet1,1,Task Instructions,Screen 12,1a4vu2,4,continue,,10702.1,10685.5,10702.1,10702.1,10685.5,10702.1,1,10702.1,0,0,NA,Click To Continue,Continue Button,2,object-2466,Task Instructions,NA,SUPPRF16777
6,1.70795E+12,14/02/2024 21:52,1.70795E+12,0,14/02/2024 21:52,165975,4,task-v7r7,NA,35159825,10389752,NA,complete,NA,65cd2bd69dae843a0d0fa55a,computer,Desktop or Laptop,Windows 10,Chrome 121.0.0.0,1280x720,1280x632,NA,NA,0,Task Introduction and Instructions (re-introduce video and audio) (Clone),3,BCADJEIFHG,Passed AC2,NA,Spreadsheet1,1,Task Instructions,Screen 13,q9vwda,5,continue,,7320.9,7318.3,7320.9,7320.9,7318.3,7320.9,1,7320.9,0,0,NA,Click To Continue,Continue Button,2,object-2989,Task Instructions,NA,SUPPRF16777
7,1.70795E+12,14/02/2024 21:52,1.70795E+12,0,14/02/2024 21:52,165975,4,task-v7r7,NA,35159825,10389752,NA,complete,NA,65cd2bd69dae843a0d0fa55a,computer,Desktop or Laptop,Windows 10,Chrome 121.0.0.0,1280x720,1280x632,NA,NA,0,Task Introduction and Instructions (re-introduce video and audio) (Clone),3,BCADJEIFHG,Passed AC2,NA,Spreadsheet1,1,Task Instructions,Screen 11,oyulb7,6,continue,,4195.2,4184.3,4195.2,4195.2,4184.3,4195.2,1,4195.2,0,0,NA,Click To Continue,Continue Button,2,object-52,Task Instructions,NA,SUPPRF16777
8,1.70795E+12,14/02/2024 21:53,1.70795E+12,0,14/02/2024 21:53,165975,4,task-v7r7,NA,35159825,10389752,NA,complete,NA,65cd2bd69dae843a0d0fa55a,computer,Desktop or Laptop,Windows 10,Chrome 121.0.0.0,1280x720,1280x632,NA,NA,0,Task Introduction and Instructions (re-introduce video and audio) (Clone),3,BCADJEIFHG,Passed AC2,NA,Spreadsheet1,1,Task Instructions,Screen 4,spepx9,7,continue,,58067,58061.5,58067,58067,58061.5,58067,1,58067,0,0,NA,Click To Continue,Continue Button,2,object-9,Task Instructions,NA,SUPPRF16777
9,1.70795E+12,14/02/2024 21:53,1.70795E+12,0,14/02/2024 21:53,165975,4,task-v7r7,NA,35159825,10389752,NA,complete,NA,65cd2bd69dae843a0d0fa55a,computer,Desktop or Laptop,Windows 10,Chrome 121.0.0.0,1280x720,1280x632,NA,NA,0,Task Introduction and Instructions (re-introduce video and audio) (Clone),3,BCADJEIFHG,Passed AC2,NA,Spreadsheet1,1,Task Instructions,Screen 5,8nvnao,8,continue,,3661,3651.6,3661,3661,3651.6,3661,1,3661,0,0,NA,Click To Continue,Continue Button,2,object-44,Task Instructions,NA,SUPPRF16777
10,1.70795E+12,14/02/2024 21:53,1.70795E+12,0,14/02/2024 21:53,165975,4,task-v7r7,NA,35159825,10389752,NA,complete,NA,65cd2bd69dae843a0d0fa55a,computer,Desktop or Laptop,Windows 10,Chrome 121.0.0.0,1280x720,1280x632,NA,NA,0,Task Introduction and Instructions (re-introduce video and audio) (Clone),3,BCADJEIFHG,Passed AC2,NA,Spreadsheet1,NA,,,,NA,5,END,NA,NA,NA,NA,NA,NA,0,NA,NA,NA,NA,,,NA,,,NA,SUPPRF16777
1,1.70795E+12,14/02/2024 21:48,1.70793E+12,-5,14/02/2024 11:48,165975,4,task-v7r7,NA,35159750,10389987,NA,complete,NA,65cd33dfef34c8f5a60aecef,computer,Desktop or Laptop,Windows 10,Chrome 120.0.0.0,1920x1080,1920x919,NA,NA,0,Task Introduction and Instructions (re-introduce video and audio) (Clone),3,EFDGCHBIAJ,Passed AC2,NA,Spreadsheet1,NA,,,,NA,5,BEGIN,NA,NA,NA,NA,NA,NA,0,NA,NA,NA,NA,,,NA,,,NA,SUPPRF86890
2,1.70795E+12,14/02/2024 21:48,1.70793E+12,-5,14/02/2024 11:48,165975,4,task-v7r7,NA,35159750,10389987,NA,complete,NA,65cd33dfef34c8f5a60aecef,computer,Desktop or Laptop,Windows 10,Chrome 120.0.0.0,1920x1080,1920x919,NA,NA,0,Task Introduction and Instructions (re-introduce video and audio) (Clone),3,EFDGCHBIAJ,Passed AC2,NA,Spreadsheet1,1,Task Instructions,Screen 1,anr7sn,1,continue,,3246.5,3230.7,3246.5,3246.5,3230.7,3246.5,1,3246.5,0,0,NA,Click To Continue,Continue Button,3,object-60,Task Instructions,NA,SUPPRF86890
3,1.70795E+12,14/02/2024 21:48,1.70793E+12,-5,14/02/2024 11:48,165975,4,task-v7r7,NA,35159750,10389987,NA,complete,NA,65cd33dfef34c8f5a60aecef,computer,Desktop or Laptop,Windows 10,Chrome 120.0.0.0,1920x1080,1920x919,NA,NA,0,Task Introduction and Instructions (re-introduce video and audio) (Clone),3,EFDGCHBIAJ,Passed AC2,NA,Spreadsheet1,1,Task Instructions,Screen 2,ce2tc8,2,continue,,3791.1,3780.2,3791.1,3791.1,3780.2,3791.1,1,3791.1,0,0,NA,Click To Continue,Continue Button,3,object-59,Task Instructions,NA,SUPPRF86890
4,1.70795E+12,14/02/2024 21:48,1.70793E+12,-5,14/02/2024 11:48,165975,4,task-v7r7,NA,35159750,10389987,NA,complete,NA,65cd33dfef34c8f5a60aecef,computer,Desktop or Laptop,Windows 10,Chrome 120.0.0.0,1920x1080,1920x919,NA,NA,0,Task Introduction and Instructions (re-introduce video and audio) (Clone),3,EFDGCHBIAJ,Passed AC2,NA,Spreadsheet1,1,Task Instructions,Screen 3,1qtc8v,3,continue,,4279.1,4263.3,4279.1,4279.1,4263.3,4279.1,1,4279.1,0,0,NA,Click To Continue,Continue Button,2,object-2983,Task Instructions,NA,SUPPRF86890
5,1.70795E+12,14/02/2024 21:48,1.70793E+12,-5,14/02/2024 11:48,165975,4,task-v7r7,NA,35159750,10389987,NA,complete,NA,65cd33dfef34c8f5a60aecef,computer,Desktop or Laptop,Windows 10,Chrome 120.0.0.0,1920x1080,1920x919,NA,NA,0,Task Introduction and Instructions (re-introduce video and audio) (Clone),3,EFDGCHBIAJ,Passed AC2,NA,Spreadsheet1,1,Task Instructions,Screen 12,1a4vu2,4,continue,,3779.9,3763.5,3779.9,3779.9,3763.5,3779.9,1,3779.9,0,0,NA,Click To Continue,Continue Button,2,object-2466,Task Instructions,NA,SUPPRF86890
6,1.70795E+12,14/02/2024 21:49,1.70793E+12,-5,14/02/2024 11:49,165975,4,task-v7r7,NA,35159750,10389987,NA,complete,NA,65cd33dfef34c8f5a60aecef,computer,Desktop or Laptop,Windows 10,Chrome 120.0.0.0,1920x1080,1920x919,NA,NA,0,Task Introduction and Instructions (re-introduce video and audio) (Clone),3,EFDGCHBIAJ,Passed AC2,NA,Spreadsheet1,1,Task Instructions,Screen 13,q9vwda,5,continue,,9994.3,9991.9,9994.3,9994.3,9991.9,9994.3,1,9994.3,0,0,NA,Click To Continue,Continue Button,2,object-2989,Task Instructions,NA,SUPPRF86890
7,1.70795E+12,14/02/2024 21:49,1.70793E+12,-5,14/02/2024 11:49,165975,4,task-v7r7,NA,35159750,10389987,NA,complete,NA,65cd33dfef34c8f5a60aecef,computer,Desktop or Laptop,Windows 10,Chrome 120.0.0.0,1920x1080,1920x919,NA,NA,0,Task Introduction and Instructions (re-introduce video and audio) (Clone),3,EFDGCHBIAJ,Passed AC2,NA,Spreadsheet1,1,Task Instructions,Screen 11,oyulb7,6,continue,,3428.2,3413.8,3428.2,3428.2,3413.8,3428.2,1,3428.2,0,0,NA,Click To Continue,Continue Button,2,object-52,Task Instructions,NA,SUPPRF86890
8,1.70795E+12,14/02/2024 21:49,1.70793E+12,-5,14/02/2024 11:49,165975,4,task-v7r7,NA,35159750,10389987,NA,complete,NA,65cd33dfef34c8f5a60aecef,computer,Desktop or Laptop,Windows 10,Chrome 120.0.0.0,1920x1080,1920x919,NA,NA,0,Task Introduction and Instructions (re-introduce video and audio) (Clone),3,EFDGCHBIAJ,Passed AC2,NA,Spreadsheet1,1,Task Instructions,Screen 4,spepx9,7,continue,,3186.6,3180.8,3186.6,3186.6,3180.8,3186.6,1,3186.6,0,0,NA,Click To Continue,Continue Button,2,object-9,Task Instructions,NA,SUPPRF86890
9,1.70795E+12,14/02/2024 21:49,1.70793E+12,-5,14/02/2024 11:49,165975,4,task-v7r7,NA,35159750,10389987,NA,complete,NA,65cd33dfef34c8f5a60aecef,computer,Desktop or Laptop,Windows 10,Chrome 120.0.0.0,1920x1080,1920x919,NA,NA,0,Task Introduction and Instructions (re-introduce video and audio) (Clone),3,EFDGCHBIAJ,Passed AC2,NA,Spreadsheet1,1,Task Instructions,Screen 5,8nvnao,8,continue,,2701.7,2697.8,2701.7,2701.7,2697.8,2701.7,1,2701.7,0,0,NA,Click To Continue,Continue Button,2,object-44,Task Instructions,NA,SUPPRF86890
10,1.70795E+12,14/02/2024 21:49,1.70793E+12,-5,14/02/2024 11:49,165975,4,task-v7r7,NA,35159750,10389987,NA,complete,NA,65cd33dfef34c8f5a60aecef,computer,Desktop or Laptop,Windows 10,Chrome 120.0.0.0,1920x1080,1920x919,NA,NA,0,Task Introduction and Instructions (re-introduce video and audio) (Clone),3,EFDGCHBIAJ,Passed AC2,NA,Spreadsheet1,NA,,,,NA,5,END,NA,NA,NA,NA,NA,NA,0,NA,NA,NA,NA,,,NA,,,NA,SUPPRF86890
1,1.70795E+12,14/02/2024 22:04,1.70793E+12,-5,14/02/2024 12:04,165975,4,task-v7r7,NA,35160096,10389981,NA,complete,NA,65cd338a0239a19d29ad36c2,computer,Desktop or Laptop,Mac OS 10.15.7,Chrome 121.0.0.0,1440x900,1440x779,NA,NA,0,Task Introduction and Instructions (re-introduce video and audio) (Clone),3,FGEHDICJBA,Passed AC2,NA,Spreadsheet1,NA,,,,NA,5,BEGIN,NA,NA,NA,NA,NA,NA,0,NA,NA,NA,NA,,,NA,,,NA,SUPPRF20506
2,1.70795E+12,14/02/2024 22:04,1.70793E+12,-5,14/02/2024 12:04,165975,4,task-v7r7,NA,35160096,10389981,NA,complete,NA,65cd338a0239a19d29ad36c2,computer,Desktop or Laptop,Mac OS 10.15.7,Chrome 121.0.0.0,1440x900,1440x779,NA,NA,0,Task Introduction and Instructions (re-introduce video and audio) (Clone),3,FGEHDICJBA,Passed AC2,NA,Spreadsheet1,1,Task Instructions,Screen 1,anr7sn,1,continue,,10245.4,10233.3,10245.4,10245.4,10233.3,10245.4,1,10245.4,0,0,NA,Click To Continue,Continue Button,3,object-60,Task Instructions,NA,SUPPRF20506
3,1.70795E+12,14/02/2024 22:04,1.70793E+12,-5,14/02/2024 12:04,165975,4,task-v7r7,NA,35160096,10389981,NA,complete,NA,65cd338a0239a19d29ad36c2,computer,Desktop or Laptop,Mac OS 10.15.7,Chrome 121.0.0.0,1440x900,1440x779,NA,NA,0,Task Introduction and Instructions (re-introduce video and audio) (Clone),3,FGEHDICJBA,Passed AC2,NA,Spreadsheet1,1,Task Instructions,Screen 2,ce2tc8,2,continue,,19093.3,19082.7,19093.3,19093.3,19082.7,19093.3,1,19093.3,0,0,NA,Click To Continue,Continue Button,3,object-59,Task Instructions,NA,SUPPRF20506
4,1.70795E+12,14/02/2024 22:04,1.70793E+12,-5,14/02/2024 12:04,165975,4,task-v7r7,NA,35160096,10389981,NA,complete,NA,65cd338a0239a19d29ad36c2,computer,Desktop or Laptop,Mac OS 10.15.7,Chrome 121.0.0.0,1440x900,1440x779,NA,NA,0,Task Introduction and Instructions (re-introduce video and audio) (Clone),3,FGEHDICJBA,Passed AC2,NA,Spreadsheet1,1,Task Instructions,Screen 3,1qtc8v,3,continue,,11217,11200.4,11217,11217,11200.4,11217,1,11217,0,0,NA,Click To Continue,Continue Button,2,object-2983,Task Instructions,NA,SUPPRF20506
5,1.70795E+12,14/02/2024 22:05,1.70793E+12,-5,14/02/2024 12:05,165975,4,task-v7r7,NA,35160096,10389981,NA,complete,NA,65cd338a0239a19d29ad36c2,computer,Desktop or Laptop,Mac OS 10.15.7,Chrome 121.0.0.0,1440x900,1440x779,NA,NA,0,Task Introduction and Instructions (re-introduce video and audio) (Clone),3,FGEHDICJBA,Passed AC2,NA,Spreadsheet1,1,Task Instructions,Screen 12,1a4vu2,4,continue,,21210.5,21199.6,21210.5,21210.5,21199.6,21210.5,1,21210.5,0,0,NA,Click To Continue,Continue Button,2,object-2466,Task Instructions,NA,SUPPRF20506
6,1.70795E+12,14/02/2024 22:05,1.70793E+12,-5,14/02/2024 12:05,165975,4,task-v7r7,NA,35160096,10389981,NA,complete,NA,65cd338a0239a19d29ad36c2,computer,Desktop or Laptop,Mac OS 10.15.7,Chrome 121.0.0.0,1440x900,1440x779,NA,NA,0,Task Introduction and Instructions (re-introduce video and audio) (Clone),3,FGEHDICJBA,Passed AC2,NA,Spreadsheet1,1,Task Instructions,Screen 13,q9vwda,5,continue,,14143.4,14133.5,14143.4,14143.4,14133.5,14143.4,1,14143.4,0,0,NA,Click To Continue,Continue Button,2,object-2989,Task Instructions,NA,SUPPRF20506
7,1.70795E+12,14/02/2024 22:05,1.70793E+12,-5,14/02/2024 12:05,165975,4,task-v7r7,NA,35160096,10389981,NA,complete,NA,65cd338a0239a19d29ad36c2,computer,Desktop or Laptop,Mac OS 10.15.7,Chrome 121.0.0.0,1440x900,1440x779,NA,NA,0,Task Introduction and Instructions (re-introduce video and audio) (Clone),3,FGEHDICJBA,Passed AC2,NA,Spreadsheet1,1,Task Instructions,Screen 11,oyulb7,6,continue,,6092.7,6083,6092.7,6092.7,6083,6092.7,1,6092.7,0,0,NA,Click To Continue,Continue Button,2,object-52,Task Instructions,NA,SUPPRF20506
8,1.70795E+12,14/02/2024 22:05,1.70793E+12,-5,14/02/2024 12:05,165975,4,task-v7r7,NA,35160096,10389981,NA,complete,NA,65cd338a0239a19d29ad36c2,computer,Desktop or Laptop,Mac OS 10.15.7,Chrome 121.0.0.0,1440x900,1440x779,NA,NA,0,Task Introduction and Instructions (re-introduce video and audio) (Clone),3,FGEHDICJBA,Passed AC2,NA,Spreadsheet1,1,Task Instructions,Screen 4,spepx9,7,continue,,4327.1,4315.9,4327.1,4327.1,4315.9,4327.1,1,4327.1,0,0,NA,Click To Continue,Continue Button,2,object-9,Task Instructions,NA,SUPPRF20506
9,1.70795E+12,14/02/2024 22:05,1.70793E+12,-5,14/02/2024 12:05,165975,4,task-v7r7,NA,35160096,10389981,NA,complete,NA,65cd338a0239a19d29ad36c2,computer,Desktop or Laptop,Mac OS 10.15.7,Chrome 121.0.0.0,1440x900,1440x779,NA,NA,0,Task Introduction and Instructions (re-introduce video and audio) (Clone),3,FGEHDICJBA,Passed AC2,NA,Spreadsheet1,1,Task Instructions,Screen 5,8nvnao,8,continue,,3978.7,3966.7,3978.7,3978.7,3966.7,3978.7,1,3978.7,0,0,NA,Click To Continue,Continue Button,2,object-44,Task Instructions,NA,SUPPRF20506
10,1.70795E+12,14/02/2024 22:05,1.70793E+12,-5,14/02/2024 12:05,165975,4,task-v7r7,NA,35160096,10389981,NA,complete,NA,65cd338a0239a19d29ad36c2,computer,Desktop or Laptop,Mac OS 10.15.7,Chrome 121.0.0.0,1440x900,1440x779,NA,NA,0,Task Introduction and Instructions (re-introduce video and audio) (Clone),3,FGEHDICJBA,Passed AC2,NA,Spreadsheet1,NA,,,,NA,5,END,NA,NA,NA,NA,NA,NA,0,NA,NA,NA,NA,,,NA,,,NA,SUPPRF20506
1,1.70795E+12,14/02/2024 22:40,1.70795E+12,1,15/02/2024 00:40,165975,4,task-v7r7,NA,35161009,10390088,NA,complete,NA,65cd38310bb5765ca0640f9b,computer,Desktop or Laptop,Windows 10,Chrome 121.0.0.0,1366x768,1366x641,NA,NA,0,Task Introduction and Instructions (re-introduce video and audio) (Clone),3,JAIBHCGDFE,Passed AC2,NA,Spreadsheet1,NA,,,,NA,5,BEGIN,NA,NA,NA,NA,NA,NA,0,NA,NA,NA,NA,,,NA,,,NA,SUPPRF75152
2,1.70795E+12,14/02/2024 22:41,1.70795E+12,1,15/02/2024 00:41,165975,4,task-v7r7,NA,35161009,10390088,NA,complete,NA,65cd38310bb5765ca0640f9b,computer,Desktop or Laptop,Windows 10,Chrome 121.0.0.0,1366x768,1366x641,NA,NA,0,Task Introduction and Instructions (re-introduce video and audio) (Clone),3,JAIBHCGDFE,Passed AC2,NA,Spreadsheet1,1,Task Instructions,Screen 1,anr7sn,1,continue,,5052.8,5035.1,5052.8,5052.8,5035.1,5052.8,1,5052.8,0,0,NA,Click To Continue,Continue Button,3,object-60,Task Instructions,NA,SUPPRF75152
3,1.70795E+12,14/02/2024 22:41,1.70795E+12,1,15/02/2024 00:41,165975,4,task-v7r7,NA,35161009,10390088,NA,complete,NA,65cd38310bb5765ca0640f9b,computer,Desktop or Laptop,Windows 10,Chrome 121.0.0.0,1366x768,1366x641,NA,NA,0,Task Introduction and Instructions (re-introduce video and audio) (Clone),3,JAIBHCGDFE,Passed AC2,NA,Spreadsheet1,1,Task Instructions,Screen 2,ce2tc8,2,continue,,21353.1,21343.7,21353.1,21353.1,21343.7,21353.1,1,21353.1,0,0,NA,Click To Continue,Continue Button,3,object-59,Task Instructions,NA,SUPPRF75152
4,1.70795E+12,14/02/2024 22:42,1.70795E+12,1,15/02/2024 00:42,165975,4,task-v7r7,NA,35161009,10390088,NA,complete,NA,65cd38310bb5765ca0640f9b,computer,Desktop or Laptop,Windows 10,Chrome 121.0.0.0,1366x768,1366x641,NA,NA,0,Task Introduction and Instructions (re-introduce video and audio) (Clone),3,JAIBHCGDFE,Passed AC2,NA,Spreadsheet1,1,Task Instructions,Screen 3,1qtc8v,3,continue,,43965,43939.8,43965,43965,43939.8,43965,1,43965,0,0,NA,Click To Continue,Continue Button,2,object-2983,Task Instructions,NA,SUPPRF75152
5,1.70795E+12,14/02/2024 22:43,1.70795E+12,1,15/02/2024 00:43,165975,4,task-v7r7,NA,35161009,10390088,NA,complete,NA,65cd38310bb5765ca0640f9b,computer,Desktop or Laptop,Windows 10,Chrome 121.0.0.0,1366x768,1366x641,NA,NA,0,Task Introduction and Instructions (re-introduce video and audio) (Clone),3,JAIBHCGDFE,Passed AC2,NA,Spreadsheet1,1,Task Instructions,Screen 12,1a4vu2,4,continue,,59136,59120.8,59136,59136,59120.8,59136,1,59136,0,0,NA,Click To Continue,Continue Button,2,object-2466,Task Instructions,NA,SUPPRF75152
6,1.70795E+12,14/02/2024 22:43,1.70795E+12,1,15/02/2024 00:43,165975,4,task-v7r7,NA,35161009,10390088,NA,complete,NA,65cd38310bb5765ca0640f9b,computer,Desktop or Laptop,Windows 10,Chrome 121.0.0.0,1366x768,1366x641,NA,NA,0,Task Introduction and Instructions (re-introduce video and audio) (Clone),3,JAIBHCGDFE,Passed AC2,NA,Spreadsheet1,1,Task Instructions,Screen 13,q9vwda,5,continue,,37493.1,37476.3,37493.1,37493.1,37476.3,37493.1,1,37493.1,0,0,NA,Click To Continue,Continue Button,2,object-2989,Task Instructions,NA,SUPPRF75152
7,1.70795E+12,14/02/2024 22:44,1.70795E+12,1,15/02/2024 00:44,165975,4,task-v7r7,NA,35161009,10390088,NA,complete,NA,65cd38310bb5765ca0640f9b,computer,Desktop or Laptop,Windows 10,Chrome 121.0.0.0,1366x768,1366x641,NA,NA,0,Task Introduction and Instructions (re-introduce video and audio) (Clone),3,JAIBHCGDFE,Passed AC2,NA,Spreadsheet1,1,Task Instructions,Screen 11,oyulb7,6,continue,,29433.2,29409.8,29433.2,29433.2,29409.8,29433.2,1,29433.2,0,0,NA,Click To Continue,Continue Button,2,object-52,Task Instructions,NA,SUPPRF75152
8,1.70795E+12,14/02/2024 22:44,1.70795E+12,1,15/02/2024 00:44,165975,4,task-v7r7,NA,35161009,10390088,NA,complete,NA,65cd38310bb5765ca0640f9b,computer,Desktop or Laptop,Windows 10,Chrome 121.0.0.0,1366x768,1366x641,NA,NA,0,Task Introduction and Instructions (re-introduce video and audio) (Clone),3,JAIBHCGDFE,Passed AC2,NA,Spreadsheet1,1,Task Instructions,Screen 4,spepx9,7,continue,,13221.4,13202.2,13221.4,13221.4,13202.2,13221.4,1,13221.4,0,0,NA,Click To Continue,Continue Button,2,object-9,Task Instructions,NA,SUPPRF75152
9,1.70795E+12,14/02/2024 22:44,1.70795E+12,1,15/02/2024 00:44,165975,4,task-v7r7,NA,35161009,10390088,NA,complete,NA,65cd38310bb5765ca0640f9b,computer,Desktop or Laptop,Windows 10,Chrome 121.0.0.0,1366x768,1366x641,NA,NA,0,Task Introduction and Instructions (re-introduce video and audio) (Clone),3,JAIBHCGDFE,Passed AC2,NA,Spreadsheet1,1,Task Instructions,Screen 5,8nvnao,8,continue,,3112.9,3106.2,3112.9,3112.9,3106.2,3112.9,1,3112.9,0,0,NA,Click To Continue,Continue Button,2,object-44,Task Instructions,NA,SUPPRF75152
10,1.70795E+12,14/02/2024 22:44,1.70795E+12,1,15/02/2024 00:44,165975,4,task-v7r7,NA,35161009,10390088,NA,complete,NA,65cd38310bb5765ca0640f9b,computer,Desktop or Laptop,Windows 10,Chrome 121.0.0.0,1366x768,1366x641,NA,NA,0,Task Introduction and Instructions (re-introduce video and audio) (Clone),3,JAIBHCGDFE,Passed AC2,NA,Spreadsheet1,NA,,,,NA,5,END,NA,NA,NA,NA,NA,NA,0,NA,NA,NA,NA,,,NA,,,NA,SUPPRF75152
1,1.70795E+12,14/02/2024 22:27,1.70793E+12,-6,14/02/2024 10:27,165975,4,task-v7r7,NA,35160677,10390104,NA,complete,NA,65cd38aa94405b34e6d1f3c9,computer,Desktop or Laptop,Windows 10,Chrome 121.0.0.0,1280x720,1280x593,NA,NA,0,Task Introduction and Instructions (re-introduce video and audio) (Clone),3,IJHAGBFCED,Passed AC2,NA,Spreadsheet1,NA,,,,NA,5,BEGIN,NA,NA,NA,NA,NA,NA,0,NA,NA,NA,NA,,,NA,,,NA,SUPPRF64920
2,1.70795E+12,14/02/2024 22:27,1.70793E+12,-6,14/02/2024 10:27,165975,4,task-v7r7,NA,35160677,10390104,NA,complete,NA,65cd38aa94405b34e6d1f3c9,computer,Desktop or Laptop,Windows 10,Chrome 121.0.0.0,1280x720,1280x593,NA,NA,0,Task Introduction and Instructions (re-introduce video and audio) (Clone),3,IJHAGBFCED,Passed AC2,NA,Spreadsheet1,1,Task Instructions,Screen 1,anr7sn,1,continue,,3487.9,3480,3487.9,3487.9,3480,3487.9,1,3487.9,0,0,NA,Click To Continue,Continue Button,3,object-60,Task Instructions,NA,SUPPRF64920
3,1.70795E+12,14/02/2024 22:27,1.70793E+12,-6,14/02/2024 10:27,165975,4,task-v7r7,NA,35160677,10390104,NA,complete,NA,65cd38aa94405b34e6d1f3c9,computer,Desktop or Laptop,Windows 10,Chrome 121.0.0.0,1280x720,1280x593,NA,NA,0,Task Introduction and Instructions (re-introduce video and audio) (Clone),3,IJHAGBFCED,Passed AC2,NA,Spreadsheet1,1,Task Instructions,Screen 2,ce2tc8,2,continue,,6971.8,6960.8,6971.8,6971.8,6960.8,6971.8,1,6971.8,0,0,NA,Click To Continue,Continue Button,3,object-59,Task Instructions,NA,SUPPRF64920
4,1.70795E+12,14/02/2024 22:27,1.70793E+12,-6,14/02/2024 10:27,165975,4,task-v7r7,NA,35160677,10390104,NA,complete,NA,65cd38aa94405b34e6d1f3c9,computer,Desktop or Laptop,Windows 10,Chrome 121.0.0.0,1280x720,1280x593,NA,NA,0,Task Introduction and Instructions (re-introduce video and audio) (Clone),3,IJHAGBFCED,Passed AC2,NA,Spreadsheet1,1,Task Instructions,Screen 3,1qtc8v,3,continue,,7874.3,7858.5,7874.3,7874.3,7858.5,7874.3,1,7874.3,0,0,NA,Click To Continue,Continue Button,2,object-2983,Task Instructions,NA,SUPPRF64920
5,1.70795E+12,14/02/2024 22:27,1.70793E+12,-6,14/02/2024 10:27,165975,4,task-v7r7,NA,35160677,10390104,NA,complete,NA,65cd38aa94405b34e6d1f3c9,computer,Desktop or Laptop,Windows 10,Chrome 121.0.0.0,1280x720,1280x593,NA,NA,0,Task Introduction and Instructions (re-introduce video and audio) (Clone),3,IJHAGBFCED,Passed AC2,NA,Spreadsheet1,1,Task Instructions,Screen 12,1a4vu2,4,continue,,5738.6,5727.9,5738.6,5738.6,5727.9,5738.6,1,5738.6,0,0,NA,Click To Continue,Continue Button,2,object-2466,Task Instructions,NA,SUPPRF64920
6,1.70795E+12,14/02/2024 22:27,1.70793E+12,-6,14/02/2024 10:27,165975,4,task-v7r7,NA,35160677,10390104,NA,complete,NA,65cd38aa94405b34e6d1f3c9,computer,Desktop or Laptop,Windows 10,Chrome 121.0.0.0,1280x720,1280x593,NA,NA,0,Task Introduction and Instructions (re-introduce video and audio) (Clone),3,IJHAGBFCED,Passed AC2,NA,Spreadsheet1,1,Task Instructions,Screen 13,q9vwda,5,continue,,8778.6,8775,8778.6,8778.6,8775,8778.6,1,8778.6,0,0,NA,Click To Continue,Continue Button,2,object-2989,Task Instructions,NA,SUPPRF64920
7,1.70795E+12,14/02/2024 22:28,1.70793E+12,-6,14/02/2024 10:28,165975,4,task-v7r7,NA,35160677,10390104,NA,complete,NA,65cd38aa94405b34e6d1f3c9,computer,Desktop or Laptop,Windows 10,Chrome 121.0.0.0,1280x720,1280x593,NA,NA,0,Task Introduction and Instructions (re-introduce video and audio) (Clone),3,IJHAGBFCED,Passed AC2,NA,Spreadsheet1,1,Task Instructions,Screen 11,oyulb7,6,continue,,7734.9,7726,7734.9,7734.9,7726,7734.9,1,7734.9,0,0,NA,Click To Continue,Continue Button,2,object-52,Task Instructions,NA,SUPPRF64920
8,1.70795E+12,14/02/2024 22:28,1.70793E+12,-6,14/02/2024 10:28,165975,4,task-v7r7,NA,35160677,10390104,NA,complete,NA,65cd38aa94405b34e6d1f3c9,computer,Desktop or Laptop,Windows 10,Chrome 121.0.0.0,1280x720,1280x593,NA,NA,0,Task Introduction and Instructions (re-introduce video and audio) (Clone),3,IJHAGBFCED,Passed AC2,NA,Spreadsheet1,1,Task Instructions,Screen 4,spepx9,7,continue,,2977.9,2963.9,2977.9,2977.9,2963.9,2977.9,1,2977.9,0,0,NA,Click To Continue,Continue Button,2,object-9,Task Instructions,NA,SUPPRF64920
9,1.70795E+12,14/02/2024 22:28,1.70793E+12,-6,14/02/2024 10:28,165975,4,task-v7r7,NA,35160677,10390104,NA,complete,NA,65cd38aa94405b34e6d1f3c9,computer,Desktop or Laptop,Windows 10,Chrome 121.0.0.0,1280x720,1280x593,NA,NA,0,Task Introduction and Instructions (re-introduce video and audio) (Clone),3,IJHAGBFCED,Passed AC2,NA,Spreadsheet1,1,Task Instructions,Screen 5,8nvnao,8,continue,,2767.1,2764.4,2767.1,2767.1,2764.4,2767.1,1,2767.1,0,0,NA,Click To Continue,Continue Button,2,object-44,Task Instructions,NA,SUPPRF64920
10,1.70795E+12,14/02/2024 22:28,1.70793E+12,-6,14/02/2024 10:28,165975,4,task-v7r7,NA,35160677,10390104,NA,complete,NA,65cd38aa94405b34e6d1f3c9,computer,Desktop or Laptop,Windows 10,Chrome 121.0.0.0,1280x720,1280x593,NA,NA,0,Task Introduction and Instructions (re-introduce video and audio) (Clone),3,IJHAGBFCED,Passed AC2,NA,Spreadsheet1,NA,,,,NA,5,END,NA,NA,NA,NA,NA,NA,0,NA,NA,NA,NA,,,NA,,,NA,SUPPRF64920
1,1.70795E+12,14/02/2024 22:23,1.70793E+12,-5,14/02/2024 12:23,165975,4,task-v7r7,NA,35160599,10390107,NA,complete,NA,65cd38c5ef6e6cca3a77babf,computer,Desktop or Laptop,Windows 10,Chrome 121.0.0.0,1536x864,1536x695,NA,NA,0,Task Introduction and Instructions (re-introduce video and audio) (Clone),3,HIGJFAEBDC,Passed AC2,NA,Spreadsheet1,NA,,,,NA,5,BEGIN,NA,NA,NA,NA,NA,NA,0,NA,NA,NA,NA,,,NA,,,NA,SUPPRF87945
2,1.70795E+12,14/02/2024 22:23,1.70793E+12,-5,14/02/2024 12:23,165975,4,task-v7r7,NA,35160599,10390107,NA,complete,NA,65cd38c5ef6e6cca3a77babf,computer,Desktop or Laptop,Windows 10,Chrome 121.0.0.0,1536x864,1536x695,NA,NA,0,Task Introduction and Instructions (re-introduce video and audio) (Clone),3,HIGJFAEBDC,Passed AC2,NA,Spreadsheet1,1,Task Instructions,Screen 1,anr7sn,1,continue,,6052.7,6044.5,6052.7,6052.7,6044.5,6052.7,1,6052.7,0,0,NA,Click To Continue,Continue Button,3,object-60,Task Instructions,NA,SUPPRF87945
3,1.70795E+12,14/02/2024 22:23,1.70793E+12,-5,14/02/2024 12:23,165975,4,task-v7r7,NA,35160599,10390107,NA,complete,NA,65cd38c5ef6e6cca3a77babf,computer,Desktop or Laptop,Windows 10,Chrome 121.0.0.0,1536x864,1536x695,NA,NA,0,Task Introduction and Instructions (re-introduce video and audio) (Clone),3,HIGJFAEBDC,Passed AC2,NA,Spreadsheet1,1,Task Instructions,Screen 2,ce2tc8,2,continue,,14743.5,14736.3,14743.5,14743.5,14736.3,14743.5,1,14743.5,0,0,NA,Click To Continue,Continue Button,3,object-59,Task Instructions,NA,SUPPRF87945
4,1.70795E+12,14/02/2024 22:23,1.70793E+12,-5,14/02/2024 12:23,165975,4,task-v7r7,NA,35160599,10390107,NA,complete,NA,65cd38c5ef6e6cca3a77babf,computer,Desktop or Laptop,Windows 10,Chrome 121.0.0.0,1536x864,1536x695,NA,NA,0,Task Introduction and Instructions (re-introduce video and audio) (Clone),3,HIGJFAEBDC,Passed AC2,NA,Spreadsheet1,1,Task Instructions,Screen 3,1qtc8v,3,continue,,8341.9,8325.4,8341.9,8341.9,8325.4,8341.9,1,8341.9,0,0,NA,Click To Continue,Continue Button,2,object-2983,Task Instructions,NA,SUPPRF87945
5,1.70795E+12,14/02/2024 22:23,1.70793E+12,-5,14/02/2024 12:23,165975,4,task-v7r7,NA,35160599,10390107,NA,complete,NA,65cd38c5ef6e6cca3a77babf,computer,Desktop or Laptop,Windows 10,Chrome 121.0.0.0,1536x864,1536x695,NA,NA,0,Task Introduction and Instructions (re-introduce video and audio) (Clone),3,HIGJFAEBDC,Passed AC2,NA,Spreadsheet1,1,Task Instructions,Screen 12,1a4vu2,4,continue,,13234.3,13221.3,13234.3,13234.3,13221.3,13234.3,1,13234.3,0,0,NA,Click To Continue,Continue Button,2,object-2466,Task Instructions,NA,SUPPRF87945
6,1.70795E+12,14/02/2024 22:23,1.70793E+12,-5,14/02/2024 12:23,165975,4,task-v7r7,NA,35160599,10390107,NA,complete,NA,65cd38c5ef6e6cca3a77babf,computer,Desktop or Laptop,Windows 10,Chrome 121.0.0.0,1536x864,1536x695,NA,NA,0,Task Introduction and Instructions (re-introduce video and audio) (Clone),3,HIGJFAEBDC,Passed AC2,NA,Spreadsheet1,1,Task Instructions,Screen 13,q9vwda,5,continue,,6972.6,6960,6972.6,6972.6,6960,6972.6,1,6972.6,0,0,NA,Click To Continue,Continue Button,2,object-2989,Task Instructions,NA,SUPPRF87945
7,1.70795E+12,14/02/2024 22:23,1.70793E+12,-5,14/02/2024 12:23,165975,4,task-v7r7,NA,35160599,10390107,NA,complete,NA,65cd38c5ef6e6cca3a77babf,computer,Desktop or Laptop,Windows 10,Chrome 121.0.0.0,1536x864,1536x695,NA,NA,0,Task Introduction and Instructions (re-introduce video and audio) (Clone),3,HIGJFAEBDC,Passed AC2,NA,Spreadsheet1,1,Task Instructions,Screen 11,oyulb7,6,continue,,4204.8,4196.2,4204.8,4204.8,4196.2,4204.8,1,4204.8,0,0,NA,Click To Continue,Continue Button,2,object-52,Task Instructions,NA,SUPPRF87945
8,1.70795E+12,14/02/2024 22:23,1.70793E+12,-5,14/02/2024 12:23,165975,4,task-v7r7,NA,35160599,10390107,NA,complete,NA,65cd38c5ef6e6cca3a77babf,computer,Desktop or Laptop,Windows 10,Chrome 121.0.0.0,1536x864,1536x695,NA,NA,0,Task Introduction and Instructions (re-introduce video and audio) (Clone),3,HIGJFAEBDC,Passed AC2,NA,Spreadsheet1,1,Task Instructions,Screen 4,spepx9,7,continue,,2796.3,2780.6,2796.3,2796.3,2780.6,2796.3,1,2796.3,0,0,NA,Click To Continue,Continue Button,2,object-9,Task Instructions,NA,SUPPRF87945
9,1.70795E+12,14/02/2024 22:24,1.70793E+12,-5,14/02/2024 12:24,165975,4,task-v7r7,NA,35160599,10390107,NA,complete,NA,65cd38c5ef6e6cca3a77babf,computer,Desktop or Laptop,Windows 10,Chrome 121.0.0.0,1536x864,1536x695,NA,NA,0,Task Introduction and Instructions (re-introduce video and audio) (Clone),3,HIGJFAEBDC,Passed AC2,NA,Spreadsheet1,1,Task Instructions,Screen 5,8nvnao,8,continue,,2971.8,2963.7,2971.8,2971.8,2963.7,2971.8,1,2971.8,0,0,NA,Click To Continue,Continue Button,2,object-44,Task Instructions,NA,SUPPRF87945
10,1.70795E+12,14/02/2024 22:24,1.70793E+12,-5,14/02/2024 12:24,165975,4,task-v7r7,NA,35160599,10390107,NA,complete,NA,65cd38c5ef6e6cca3a77babf,computer,Desktop or Laptop,Windows 10,Chrome 121.0.0.0,1536x864,1536x695,NA,NA,0,Task Introduction and Instructions (re-introduce video and audio) (Clone),3,HIGJFAEBDC,Passed AC2,NA,Spreadsheet1,NA,,,,NA,5,END,NA,NA,NA,NA,NA,NA,0,NA,NA,NA,NA,,,NA,,,NA,SUPPRF87945
1,1.70795E+12,14/02/2024 22:13,1.70795E+12,0,14/02/2024 22:13,165975,4,task-v7r7,NA,35160366,10390114,NA,complete,NA,65cd3873c06aada397cbf2e2,computer,Desktop or Laptop,Windows 10,Chrome 121.0.0.0,1920x1080,1920x911,NA,NA,0,Task Introduction and Instructions (re-introduce video and audio) (Clone),3,GHFIEJDACB,Passed AC2,NA,Spreadsheet1,NA,,,,NA,5,BEGIN,NA,NA,NA,NA,NA,NA,0,NA,NA,NA,NA,,,NA,,,NA,SUPPRF73279
2,1.70795E+12,14/02/2024 22:13,1.70795E+12,0,14/02/2024 22:13,165975,4,task-v7r7,NA,35160366,10390114,NA,complete,NA,65cd3873c06aada397cbf2e2,computer,Desktop or Laptop,Windows 10,Chrome 121.0.0.0,1920x1080,1920x911,NA,NA,0,Task Introduction and Instructions (re-introduce video and audio) (Clone),3,GHFIEJDACB,Passed AC2,NA,Spreadsheet1,1,Task Instructions,Screen 1,anr7sn,1,continue,,4283.2,4266.9,4283.2,4283.2,4266.9,4283.2,1,4283.2,0,0,NA,Click To Continue,Continue Button,3,object-60,Task Instructions,NA,SUPPRF73279
3,1.70795E+12,14/02/2024 22:14,1.70795E+12,0,14/02/2024 22:14,165975,4,task-v7r7,NA,35160366,10390114,NA,complete,NA,65cd3873c06aada397cbf2e2,computer,Desktop or Laptop,Windows 10,Chrome 121.0.0.0,1920x1080,1920x911,NA,NA,0,Task Introduction and Instructions (re-introduce video and audio) (Clone),3,GHFIEJDACB,Passed AC2,NA,Spreadsheet1,1,Task Instructions,Screen 2,ce2tc8,2,continue,,10488,10483.7,10488,10488,10483.7,10488,1,10488,0,0,NA,Click To Continue,Continue Button,3,object-59,Task Instructions,NA,SUPPRF73279
4,1.70795E+12,14/02/2024 22:14,1.70795E+12,0,14/02/2024 22:14,165975,4,task-v7r7,NA,35160366,10390114,NA,complete,NA,65cd3873c06aada397cbf2e2,computer,Desktop or Laptop,Windows 10,Chrome 121.0.0.0,1920x1080,1920x911,NA,NA,0,Task Introduction and Instructions (re-introduce video and audio) (Clone),3,GHFIEJDACB,Passed AC2,NA,Spreadsheet1,1,Task Instructions,Screen 3,1qtc8v,3,continue,,10003.8,10000.5,10003.8,10003.8,10000.5,10003.8,1,10003.8,0,0,NA,Click To Continue,Continue Button,2,object-2983,Task Instructions,NA,SUPPRF73279
5,1.70795E+12,14/02/2024 22:14,1.70795E+12,0,14/02/2024 22:14,165975,4,task-v7r7,NA,35160366,10390114,NA,complete,NA,65cd3873c06aada397cbf2e2,computer,Desktop or Laptop,Windows 10,Chrome 121.0.0.0,1920x1080,1920x911,NA,NA,0,Task Introduction and Instructions (re-introduce video and audio) (Clone),3,GHFIEJDACB,Passed AC2,NA,Spreadsheet1,1,Task Instructions,Screen 12,1a4vu2,4,continue,,7340,7333.7,7340,7340,7333.7,7340,1,7340,0,0,NA,Click To Continue,Continue Button,2,object-2466,Task Instructions,NA,SUPPRF73279
6,1.70795E+12,14/02/2024 22:14,1.70795E+12,0,14/02/2024 22:14,165975,4,task-v7r7,NA,35160366,10390114,NA,complete,NA,65cd3873c06aada397cbf2e2,computer,Desktop or Laptop,Windows 10,Chrome 121.0.0.0,1920x1080,1920x911,NA,NA,0,Task Introduction and Instructions (re-introduce video and audio) (Clone),3,GHFIEJDACB,Passed AC2,NA,Spreadsheet1,1,Task Instructions,Screen 13,q9vwda,5,continue,,7749.5,7733.7,7749.5,7749.5,7733.7,7749.5,1,7749.5,0,0,NA,Click To Continue,Continue Button,2,object-2989,Task Instructions,NA,SUPPRF73279
7,1.70795E+12,14/02/2024 22:14,1.70795E+12,0,14/02/2024 22:14,165975,4,task-v7r7,NA,35160366,10390114,NA,complete,NA,65cd3873c06aada397cbf2e2,computer,Desktop or Laptop,Windows 10,Chrome 121.0.0.0,1920x1080,1920x911,NA,NA,0,Task Introduction and Instructions (re-introduce video and audio) (Clone),3,GHFIEJDACB,Passed AC2,NA,Spreadsheet1,1,Task Instructions,Screen 11,oyulb7,6,continue,,2918,2916.7,2918,2918,2916.7,2918,1,2918,0,0,NA,Click To Continue,Continue Button,2,object-52,Task Instructions,NA,SUPPRF73279
8,1.70795E+12,14/02/2024 22:14,1.70795E+12,0,14/02/2024 22:14,165975,4,task-v7r7,NA,35160366,10390114,NA,complete,NA,65cd3873c06aada397cbf2e2,computer,Desktop or Laptop,Windows 10,Chrome 121.0.0.0,1920x1080,1920x911,NA,NA,0,Task Introduction and Instructions (re-introduce video and audio) (Clone),3,GHFIEJDACB,Passed AC2,NA,Spreadsheet1,1,Task Instructions,Screen 4,spepx9,7,continue,,3017.9,3016.8,3017.9,3017.9,3016.8,3017.9,1,3017.9,0,0,NA,Click To Continue,Continue Button,2,object-9,Task Instructions,NA,SUPPRF73279
9,1.70795E+12,14/02/2024 22:14,1.70795E+12,0,14/02/2024 22:14,165975,4,task-v7r7,NA,35160366,10390114,NA,complete,NA,65cd3873c06aada397cbf2e2,computer,Desktop or Laptop,Windows 10,Chrome 121.0.0.0,1920x1080,1920x911,NA,NA,0,Task Introduction and Instructions (re-introduce video and audio) (Clone),3,GHFIEJDACB,Passed AC2,NA,Spreadsheet1,1,Task Instructions,Screen 5,8nvnao,8,continue,,2738.1,2733.6,2738.1,2738.1,2733.6,2738.1,1,2738.1,0,0,NA,Click To Continue,Continue Button,2,object-44,Task Instructions,NA,SUPPRF73279
10,1.70795E+12,14/02/2024 22:14,1.70795E+12,0,14/02/2024 22:14,165975,4,task-v7r7,NA,35160366,10390114,NA,complete,NA,65cd3873c06aada397cbf2e2,computer,Desktop or Laptop,Windows 10,Chrome 121.0.0.0,1920x1080,1920x911,NA,NA,0,Task Introduction and Instructions (re-introduce video and audio) (Clone),3,GHFIEJDACB,Passed AC2,NA,Spreadsheet1,NA,,,,NA,5,END,NA,NA,NA,NA,NA,NA,0,NA,NA,NA,NA,,,NA,,,NA,SUPPRF73279
1,1.70795E+12,14/02/2024 22:44,1.70795E+12,1,15/02/2024 00:44,165975,4,task-v7r7,NA,35161098,10390137,NA,rejected - time limit reached,NA,65cd395206151f0d36e04fb1,computer,Desktop or Laptop,Windows 10,Chrome 121.0.0.0,1280x720,638x583,NA,NA,0,Task Introduction and Instructions (re-introduce video and audio) (Clone),3,CDBEAFJGIH,Passed AC2,NA,Spreadsheet1,NA,,,,NA,5,BEGIN,NA,NA,NA,NA,NA,NA,0,NA,NA,NA,NA,,,NA,,,NA,SUPPRF35504
2,1.70795E+12,14/02/2024 22:44,1.70795E+12,1,15/02/2024 00:44,165975,4,task-v7r7,NA,35161098,10390137,NA,rejected - time limit reached,NA,65cd395206151f0d36e04fb1,computer,Desktop or Laptop,Windows 10,Chrome 121.0.0.0,1280x720,1280x585,NA,NA,0,Task Introduction and Instructions (re-introduce video and audio) (Clone),3,CDBEAFJGIH,Passed AC2,NA,Spreadsheet1,1,Task Instructions,Screen 1,anr7sn,1,continue,,22309.7,22297.1,22309.7,22309.7,22297.1,22309.7,1,22309.7,0,0,NA,Click To Continue,Continue Button,3,object-60,Task Instructions,NA,SUPPRF35504
3,1.70795E+12,14/02/2024 22:44,1.70795E+12,1,15/02/2024 00:44,165975,4,task-v7r7,NA,35161098,10390137,NA,rejected - time limit reached,NA,65cd395206151f0d36e04fb1,computer,Desktop or Laptop,Windows 10,Chrome 121.0.0.0,1280x720,1280x585,NA,NA,0,Task Introduction and Instructions (re-introduce video and audio) (Clone),3,CDBEAFJGIH,Passed AC2,NA,Spreadsheet1,1,Task Instructions,Screen 2,ce2tc8,2,continue,,14075.2,14064.9,14075.2,14075.2,14064.9,14075.2,1,14075.2,0,0,NA,Click To Continue,Continue Button,3,object-59,Task Instructions,NA,SUPPRF35504
4,1.70795E+12,14/02/2024 22:44,1.70795E+12,1,15/02/2024 00:44,165975,4,task-v7r7,NA,35161098,10390137,NA,rejected - time limit reached,NA,65cd395206151f0d36e04fb1,computer,Desktop or Laptop,Windows 10,Chrome 121.0.0.0,1280x720,1280x585,NA,NA,0,Task Introduction and Instructions (re-introduce video and audio) (Clone),3,CDBEAFJGIH,Passed AC2,NA,Spreadsheet1,1,Task Instructions,Screen 3,1qtc8v,3,continue,,10612.2,10598.6,10612.2,10612.2,10598.6,10612.2,1,10612.2,0,0,NA,Click To Continue,Continue Button,2,object-2983,Task Instructions,NA,SUPPRF35504
5,1.70795E+12,14/02/2024 22:45,1.70795E+12,1,15/02/2024 00:45,165975,4,task-v7r7,NA,35161098,10390137,NA,rejected - time limit reached,NA,65cd395206151f0d36e04fb1,computer,Desktop or Laptop,Windows 10,Chrome 121.0.0.0,1280x720,1280x585,NA,NA,0,Task Introduction and Instructions (re-introduce video and audio) (Clone),3,CDBEAFJGIH,Passed AC2,NA,Spreadsheet1,1,Task Instructions,Screen 12,1a4vu2,4,continue,,41826.8,41811.3,41826.8,41826.8,41811.3,41826.8,1,41826.8,0,0,NA,Click To Continue,Continue Button,2,object-2466,Task Instructions,NA,SUPPRF35504
6,1.70795E+12,14/02/2024 22:45,1.70795E+12,1,15/02/2024 00:45,165975,4,task-v7r7,NA,35161098,10390137,NA,rejected - time limit reached,NA,65cd395206151f0d36e04fb1,computer,Desktop or Laptop,Windows 10,Chrome 121.0.0.0,1280x720,1280x585,NA,NA,0,Task Introduction and Instructions (re-introduce video and audio) (Clone),3,CDBEAFJGIH,Passed AC2,NA,Spreadsheet1,1,Task Instructions,Screen 13,q9vwda,5,continue,,9081.2,9065.5,9081.2,9081.2,9065.5,9081.2,1,9081.2,0,0,NA,Click To Continue,Continue Button,2,object-2989,Task Instructions,NA,SUPPRF35504
7,1.70795E+12,14/02/2024 22:45,1.70795E+12,1,15/02/2024 00:45,165975,4,task-v7r7,NA,35161098,10390137,NA,rejected - time limit reached,NA,65cd395206151f0d36e04fb1,computer,Desktop or Laptop,Windows 10,Chrome 121.0.0.0,1280x720,1280x585,NA,NA,0,Task Introduction and Instructions (re-introduce video and audio) (Clone),3,CDBEAFJGIH,Passed AC2,NA,Spreadsheet1,1,Task Instructions,Screen 11,oyulb7,6,continue,,3275.100001,3266.2,3275.100001,3275.100001,3266.2,3275.100001,1,3275.100001,0,0,NA,Click To Continue,Continue Button,2,object-52,Task Instructions,NA,SUPPRF35504
8,1.70795E+12,14/02/2024 22:45,1.70795E+12,1,15/02/2024 00:45,165975,4,task-v7r7,NA,35161098,10390137,NA,rejected - time limit reached,NA,65cd395206151f0d36e04fb1,computer,Desktop or Laptop,Windows 10,Chrome 121.0.0.0,1280x720,1280x585,NA,NA,0,Task Introduction and Instructions (re-introduce video and audio) (Clone),3,CDBEAFJGIH,Passed AC2,NA,Spreadsheet1,1,Task Instructions,Screen 4,spepx9,7,continue,,4871.7,4866.1,4871.7,4871.7,4866.1,4871.7,1,4871.7,0,0,NA,Click To Continue,Continue Button,2,object-9,Task Instructions,NA,SUPPRF35504
9,1.70795E+12,14/02/2024 22:46,1.70795E+12,1,15/02/2024 00:46,165975,4,task-v7r7,NA,35161098,10390137,NA,rejected - time limit reached,NA,65cd395206151f0d36e04fb1,computer,Desktop or Laptop,Windows 10,Chrome 121.0.0.0,1280x720,1280x585,NA,NA,0,Task Introduction and Instructions (re-introduce video and audio) (Clone),3,CDBEAFJGIH,Passed AC2,NA,Spreadsheet1,1,Task Instructions,Screen 5,8nvnao,8,continue,,3315.800001,3299.6,3315.800001,3315.800001,3299.6,3315.800001,1,3315.800001,0,0,NA,Click To Continue,Continue Button,2,object-44,Task Instructions,NA,SUPPRF35504
10,1.70795E+12,14/02/2024 22:46,1.70795E+12,1,15/02/2024 00:46,165975,4,task-v7r7,NA,35161098,10390137,NA,rejected - time limit reached,NA,65cd395206151f0d36e04fb1,computer,Desktop or Laptop,Windows 10,Chrome 121.0.0.0,1280x720,1280x585,NA,NA,0,Task Introduction and Instructions (re-introduce video and audio) (Clone),3,CDBEAFJGIH,Passed AC2,NA,Spreadsheet1,NA,,,,NA,5,END,NA,NA,NA,NA,NA,NA,0,NA,NA,NA,NA,,,NA,,,NA,SUPPRF35504
1,1.70795E+12,14/02/2024 22:52,1.70795E+12,1,15/02/2024 00:52,165975,4,task-v7r7,NA,35161295,10390149,NA,complete,NA,65cd39e3abeaa111a2fca0d8,computer,Desktop or Laptop,Windows 10,Chrome 120.0.0.0,1280x720,1280x593,NA,NA,0,Task Introduction and Instructions (re-introduce video and audio) (Clone),3,DECFBGAHJI,Passed AC2,NA,Spreadsheet1,NA,,,,NA,5,BEGIN,NA,NA,NA,NA,NA,NA,0,NA,NA,NA,NA,,,NA,,,NA,SUPPRF62431
2,1.70795E+12,14/02/2024 22:53,1.70795E+12,1,15/02/2024 00:53,165975,4,task-v7r7,NA,35161295,10390149,NA,complete,NA,65cd39e3abeaa111a2fca0d8,computer,Desktop or Laptop,Windows 10,Chrome 120.0.0.0,1280x720,1280x593,NA,NA,0,Task Introduction and Instructions (re-introduce video and audio) (Clone),3,DECFBGAHJI,Passed AC2,NA,Spreadsheet1,1,Task Instructions,Screen 1,anr7sn,1,continue,,9730.8,9724.2,9730.8,9730.8,9724.2,9730.8,1,9730.8,0,0,NA,Click To Continue,Continue Button,3,object-60,Task Instructions,NA,SUPPRF62431
3,1.70795E+12,14/02/2024 22:53,1.70795E+12,1,15/02/2024 00:53,165975,4,task-v7r7,NA,35161295,10390149,NA,complete,NA,65cd39e3abeaa111a2fca0d8,computer,Desktop or Laptop,Windows 10,Chrome 120.0.0.0,1280x720,1280x593,NA,NA,0,Task Introduction and Instructions (re-introduce video and audio) (Clone),3,DECFBGAHJI,Passed AC2,NA,Spreadsheet1,1,Task Instructions,Screen 2,ce2tc8,2,continue,,16956.2,16951.2,16956.2,16956.2,16951.2,16956.2,1,16956.2,0,0,NA,Click To Continue,Continue Button,3,object-59,Task Instructions,NA,SUPPRF62431
4,1.70795E+12,14/02/2024 22:53,1.70795E+12,1,15/02/2024 00:53,165975,4,task-v7r7,NA,35161295,10390149,NA,complete,NA,65cd39e3abeaa111a2fca0d8,computer,Desktop or Laptop,Windows 10,Chrome 120.0.0.0,1280x720,1280x593,NA,NA,0,Task Introduction and Instructions (re-introduce video and audio) (Clone),3,DECFBGAHJI,Passed AC2,NA,Spreadsheet1,1,Task Instructions,Screen 3,1qtc8v,3,continue,,17797.3,17783,17797.3,17797.3,17783,17797.3,1,17797.3,0,0,NA,Click To Continue,Continue Button,2,object-2983,Task Instructions,NA,SUPPRF62431
5,1.70795E+12,14/02/2024 22:54,1.70795E+12,1,15/02/2024 00:54,165975,4,task-v7r7,NA,35161295,10390149,NA,complete,NA,65cd39e3abeaa111a2fca0d8,computer,Desktop or Laptop,Windows 10,Chrome 120.0.0.0,1280x720,1280x593,NA,NA,0,Task Introduction and Instructions (re-introduce video and audio) (Clone),3,DECFBGAHJI,Passed AC2,NA,Spreadsheet1,1,Task Instructions,Screen 12,1a4vu2,4,continue,,43234.8,43226.3,43234.8,43234.8,43226.3,43234.8,1,43234.8,0,0,NA,Click To Continue,Continue Button,2,object-2466,Task Instructions,NA,SUPPRF62431
6,1.70795E+12,14/02/2024 22:54,1.70795E+12,1,15/02/2024 00:54,165975,4,task-v7r7,NA,35161295,10390149,NA,complete,NA,65cd39e3abeaa111a2fca0d8,computer,Desktop or Laptop,Windows 10,Chrome 120.0.0.0,1280x720,1280x593,NA,NA,0,Task Introduction and Instructions (re-introduce video and audio) (Clone),3,DECFBGAHJI,Passed AC2,NA,Spreadsheet1,1,Task Instructions,Screen 13,q9vwda,5,continue,,12392.5,12388.4,12392.5,12392.5,12388.4,12392.5,1,12392.5,0,0,NA,Click To Continue,Continue Button,2,object-2989,Task Instructions,NA,SUPPRF62431
7,1.70795E+12,14/02/2024 22:54,1.70795E+12,1,15/02/2024 00:54,165975,4,task-v7r7,NA,35161295,10390149,NA,complete,NA,65cd39e3abeaa111a2fca0d8,computer,Desktop or Laptop,Windows 10,Chrome 120.0.0.0,1280x720,1280x593,NA,NA,0,Task Introduction and Instructions (re-introduce video and audio) (Clone),3,DECFBGAHJI,Passed AC2,NA,Spreadsheet1,1,Task Instructions,Screen 11,oyulb7,6,continue,,10997.1,10989.7,10997.1,10997.1,10989.7,10997.1,1,10997.1,0,0,NA,Click To Continue,Continue Button,2,object-52,Task Instructions,NA,SUPPRF62431
8,1.70795E+12,14/02/2024 22:56,1.70795E+12,1,15/02/2024 00:56,165975,4,task-v7r7,NA,35161295,10390149,NA,complete,NA,65cd39e3abeaa111a2fca0d8,computer,Desktop or Laptop,Windows 10,Chrome 120.0.0.0,1280x720,1280x593,NA,NA,0,Task Introduction and Instructions (re-introduce video and audio) (Clone),3,DECFBGAHJI,Passed AC2,NA,Spreadsheet1,1,Task Instructions,Screen 4,spepx9,7,continue,,84017.6,84005,84017.6,84017.6,84005,84017.6,1,84017.6,0,0,NA,Click To Continue,Continue Button,2,object-9,Task Instructions,NA,SUPPRF62431
9,1.70795E+12,14/02/2024 22:56,1.70795E+12,1,15/02/2024 00:56,165975,4,task-v7r7,NA,35161295,10390149,NA,complete,NA,65cd39e3abeaa111a2fca0d8,computer,Desktop or Laptop,Windows 10,Chrome 120.0.0.0,1280x720,1280x593,NA,NA,0,Task Introduction and Instructions (re-introduce video and audio) (Clone),3,DECFBGAHJI,Passed AC2,NA,Spreadsheet1,1,Task Instructions,Screen 5,8nvnao,8,continue,,4742.6,4728.7,4742.6,4742.6,4728.7,4742.6,1,4742.6,0,0,NA,Click To Continue,Continue Button,2,object-44,Task Instructions,NA,SUPPRF62431
10,1.70795E+12,14/02/2024 22:56,1.70795E+12,1,15/02/2024 00:56,165975,4,task-v7r7,NA,35161295,10390149,NA,complete,NA,65cd39e3abeaa111a2fca0d8,computer,Desktop or Laptop,Windows 10,Chrome 120.0.0.0,1280x720,1280x593,NA,NA,0,Task Introduction and Instructions (re-introduce video and audio) (Clone),3,DECFBGAHJI,Passed AC2,NA,Spreadsheet1,NA,,,,NA,5,END,NA,NA,NA,NA,NA,NA,0,NA,NA,NA,NA,,,NA,,,NA,SUPPRF62431
1,1.70795E+12,14/02/2024 22:22,1.70795E+12,0,14/02/2024 22:22,165975,4,task-v7r7,NA,35160590,10390161,NA,complete,NA,65cd3a930bb5765ca064100b,computer,Desktop or Laptop,Mac OS 10.15.7,Chrome 120.0.0.0,1440x900,1440x813,NA,NA,0,Task Introduction and Instructions (re-introduce video and audio) (Clone),3,ABJCIDHEGF,Passed AC2,NA,Spreadsheet1,NA,,,,NA,5,BEGIN,NA,NA,NA,NA,NA,NA,0,NA,NA,NA,NA,,,NA,,,NA,SUPPRF52411
2,1.70795E+12,14/02/2024 22:22,1.70795E+12,0,14/02/2024 22:22,165975,4,task-v7r7,NA,35160590,10390161,NA,complete,NA,65cd3a930bb5765ca064100b,computer,Desktop or Laptop,Mac OS 10.15.7,Chrome 120.0.0.0,1440x900,1440x813,NA,NA,0,Task Introduction and Instructions (re-introduce video and audio) (Clone),3,ABJCIDHEGF,Passed AC2,NA,Spreadsheet1,1,Task Instructions,Screen 1,anr7sn,1,continue,,3200,3183.3,3200,3200,3183.3,3200,1,3200,0,0,NA,Click To Continue,Continue Button,3,object-60,Task Instructions,NA,SUPPRF52411
3,1.70795E+12,14/02/2024 22:22,1.70795E+12,0,14/02/2024 22:22,165975,4,task-v7r7,NA,35160590,10390161,NA,complete,NA,65cd3a930bb5765ca064100b,computer,Desktop or Laptop,Mac OS 10.15.7,Chrome 120.0.0.0,1440x900,1440x813,NA,NA,0,Task Introduction and Instructions (re-introduce video and audio) (Clone),3,ABJCIDHEGF,Passed AC2,NA,Spreadsheet1,1,Task Instructions,Screen 2,ce2tc8,2,continue,,9312.6,9299.8,9312.6,9312.6,9299.8,9312.6,1,9312.6,0,0,NA,Click To Continue,Continue Button,3,object-59,Task Instructions,NA,SUPPRF52411
4,1.70795E+12,14/02/2024 22:22,1.70795E+12,0,14/02/2024 22:22,165975,4,task-v7r7,NA,35160590,10390161,NA,complete,NA,65cd3a930bb5765ca064100b,computer,Desktop or Laptop,Mac OS 10.15.7,Chrome 120.0.0.0,1440x900,1440x813,NA,NA,0,Task Introduction and Instructions (re-introduce video and audio) (Clone),3,ABJCIDHEGF,Passed AC2,NA,Spreadsheet1,1,Task Instructions,Screen 3,1qtc8v,3,continue,,17716.5,17699.8,17716.5,17716.5,17699.8,17716.5,1,17716.5,0,0,NA,Click To Continue,Continue Button,2,object-2983,Task Instructions,NA,SUPPRF52411
5,1.70795E+12,14/02/2024 22:23,1.70795E+12,0,14/02/2024 22:23,165975,4,task-v7r7,NA,35160590,10390161,NA,complete,NA,65cd3a930bb5765ca064100b,computer,Desktop or Laptop,Mac OS 10.15.7,Chrome 120.0.0.0,1440x900,1440x813,NA,NA,0,Task Introduction and Instructions (re-introduce video and audio) (Clone),3,ABJCIDHEGF,Passed AC2,NA,Spreadsheet1,1,Task Instructions,Screen 12,1a4vu2,4,continue,,6592,6583.1,6592,6592,6583.1,6592,1,6592,0,0,NA,Click To Continue,Continue Button,2,object-2466,Task Instructions,NA,SUPPRF52411
6,1.70795E+12,14/02/2024 22:23,1.70795E+12,0,14/02/2024 22:23,165975,4,task-v7r7,NA,35160590,10390161,NA,complete,NA,65cd3a930bb5765ca064100b,computer,Desktop or Laptop,Mac OS 10.15.7,Chrome 120.0.0.0,1440x900,1440x813,NA,NA,0,Task Introduction and Instructions (re-introduce video and audio) (Clone),3,ABJCIDHEGF,Passed AC2,NA,Spreadsheet1,1,Task Instructions,Screen 13,q9vwda,5,continue,,11356.3,11350.1,11356.3,11356.3,11350.1,11356.3,1,11356.3,0,0,NA,Click To Continue,Continue Button,2,object-2989,Task Instructions,NA,SUPPRF52411
