Event.Index,UTC.Timestamp,UTC.Date.and.Time,Local.Timestamp,Local.Timezone,Local.Date.and.Time,Experiment.ID,Experiment.Version,Tree.Node.Key,Repeat.Key,Schedule.ID,Participant.Private.ID,Participant.Starting.Group,Participant.Status,Participant.Completion.Code,Participant.External.Session.ID,Participant.Device.Type,Participant.Device,Participant.OS,Participant.Browser,Participant.Monitor.Size,Participant.Viewport.Size,Checkpoint,Room.ID,Room.Order,Task.Name,Task.Version,order.ot79,branch.g31k,branch.5gtn,Spreadsheet,Trial.Number,Display,Screen,Screen.ID,Screen.Counter,Response.Type,Response,Onset.Time,Clock.Time,Reaction.Time,Absolute.Onset.Time,Absolute.Clock.Time,Absolute.Reaction.Time,Correct,Response.Onset,Response.Duration,Proportion,Tag,Component.Name,Object.Name,Object.Number,Object.ID,Spreadsheet..display,Manipulation..Spreadsheet,Random_ID
1,1.69693E+12,10/10/2023 10:48,1.69694E+12,1,10/10/2023 12:48,146524,3,task-gjqt,NA,32129227,9500282,NA,complete,NA,652535a4bc4e0028590efed3,computer,Desktop or Laptop,Windows 10,Chrome 117.0.0.0,1920x1080,1920x931,NA,NA,0,BIQ (Charlotte),3,BCADJEIFHG,Passed AC2,NA,Spreadsheet1,NA,,,,NA,5,BEGIN,NA,NA,NA,NA,NA,NA,0,NA,NA,NA,NA,,,NA,,,NA,SUPPRF18834
2,1.69693E+12,10/10/2023 10:49,1.69694E+12,1,10/10/2023 12:49,146524,3,task-gjqt,NA,32129227,9500282,NA,complete,NA,652535a4bc4e0028590efed3,computer,Desktop or Laptop,Windows 10,Chrome 117.0.0.0,1920x1080,1920x931,NA,NA,0,BIQ (Charlotte),3,BCADJEIFHG,Passed AC2,NA,Spreadsheet1,1,BIQ,Screen 1,9dh6eq,1,continue,,48933.745,48916.804,48933.745,48933.745,48916.804,48933.745,1,48933.745,0,0,NA,Click To Continue,Continue Button,23,object-48,BIQ,NA,SUPPRF18834
3,1.69693E+12,10/10/2023 10:49,1.69694E+12,1,10/10/2023 12:49,146524,3,task-gjqt,NA,32129227,9500282,NA,complete,NA,652535a4bc4e0028590efed3,computer,Desktop or Laptop,Windows 10,Chrome 117.0.0.0,1920x1080,1920x931,NA,NA,0,BIQ (Charlotte),3,BCADJEIFHG,Passed AC2,NA,Spreadsheet1,1,BIQ,Screen 1,9dh6eq,1,response,7,40349.866,48916.804,48933.745,40349.866,48916.804,48933.745,1,40349.866,8583.879,0,NA,Rating Scale,Rating Scale,3,object-5,BIQ,NA,SUPPRF18834
4,1.69693E+12,10/10/2023 10:49,1.69694E+12,1,10/10/2023 12:49,146524,3,task-gjqt,NA,32129227,9500282,NA,complete,NA,652535a4bc4e0028590efed3,computer,Desktop or Laptop,Windows 10,Chrome 117.0.0.0,1920x1080,1920x931,NA,NA,0,BIQ (Charlotte),3,BCADJEIFHG,Passed AC2,NA,Spreadsheet1,1,BIQ,Screen 1,9dh6eq,1,response,4,43149.9,48916.804,48933.745,43149.9,48916.804,48933.745,1,43149.9,5783.845,0,NA,Rating Scale,Rating Scale,10,object-18,BIQ,NA,SUPPRF18834
5,1.69693E+12,10/10/2023 10:49,1.69694E+12,1,10/10/2023 12:49,146524,3,task-gjqt,NA,32129227,9500282,NA,complete,NA,652535a4bc4e0028590efed3,computer,Desktop or Laptop,Windows 10,Chrome 117.0.0.0,1920x1080,1920x931,NA,NA,0,BIQ (Charlotte),3,BCADJEIFHG,Passed AC2,NA,Spreadsheet1,1,BIQ,Screen 1,9dh6eq,1,response,4,48333.25,48916.804,48933.745,48333.25,48916.804,48933.745,1,48333.25,600.495,0,NA,Rating Scale,Rating Scale,17,object-80,BIQ,NA,SUPPRF18834
6,1.69693E+12,10/10/2023 10:49,1.69694E+12,1,10/10/2023 12:49,146524,3,task-gjqt,NA,32129227,9500282,NA,complete,NA,652535a4bc4e0028590efed3,computer,Desktop or Laptop,Windows 10,Chrome 117.0.0.0,1920x1080,1920x931,NA,NA,0,BIQ (Charlotte),3,BCADJEIFHG,Passed AC2,NA,Spreadsheet1,1,BIQ,Screen 2,o21mwi,2,continue,,11066.599,11049.859,11066.599,11066.599,11049.859,11066.599,1,11066.599,0,0,NA,Click To Continue,Continue Button,22,object-50,BIQ,NA,SUPPRF18834
7,1.69693E+12,10/10/2023 10:49,1.69694E+12,1,10/10/2023 12:49,146524,3,task-gjqt,NA,32129227,9500282,NA,complete,NA,652535a4bc4e0028590efed3,computer,Desktop or Laptop,Windows 10,Chrome 117.0.0.0,1920x1080,1920x931,NA,NA,0,BIQ (Charlotte),3,BCADJEIFHG,Passed AC2,NA,Spreadsheet1,1,BIQ,Screen 2,o21mwi,2,response,6,3316.369,11049.859,11066.599,3316.369,11049.859,11066.599,1,3316.369,7750.23,0,NA,Rating Scale,Rating Scale,2,object-259,BIQ,NA,SUPPRF18834
8,1.69693E+12,10/10/2023 10:49,1.69694E+12,1,10/10/2023 12:49,146524,3,task-gjqt,NA,32129227,9500282,NA,complete,NA,652535a4bc4e0028590efed3,computer,Desktop or Laptop,Windows 10,Chrome 117.0.0.0,1920x1080,1920x931,NA,NA,0,BIQ (Charlotte),3,BCADJEIFHG,Passed AC2,NA,Spreadsheet1,1,BIQ,Screen 2,o21mwi,2,response,2,5249.707,11049.859,11066.599,5249.707,11049.859,11066.599,1,5249.707,5816.892,0,NA,Rating Scale,Rating Scale,9,object-36,BIQ,NA,SUPPRF18834
9,1.69693E+12,10/10/2023 10:49,1.69694E+12,1,10/10/2023 12:49,146524,3,task-gjqt,NA,32129227,9500282,NA,complete,NA,652535a4bc4e0028590efed3,computer,Desktop or Laptop,Windows 10,Chrome 117.0.0.0,1920x1080,1920x931,NA,NA,0,BIQ (Charlotte),3,BCADJEIFHG,Passed AC2,NA,Spreadsheet1,1,BIQ,Screen 2,o21mwi,2,response,1,10333.107,11049.859,11066.599,10333.107,11049.859,11066.599,1,10333.107,733.492,0,NA,Rating Scale,Rating Scale,16,object-86,BIQ,NA,SUPPRF18834
10,1.69694E+12,10/10/2023 10:50,1.69694E+12,1,10/10/2023 12:50,146524,3,task-gjqt,NA,32129227,9500282,NA,complete,NA,652535a4bc4e0028590efed3,computer,Desktop or Laptop,Windows 10,Chrome 117.0.0.0,1920x1080,1920x931,NA,NA,0,BIQ (Charlotte),3,BCADJEIFHG,Passed AC2,NA,Spreadsheet1,1,BIQ,Screen 3,iz3the,3,continue,,60586.954,60583.727,60586.954,60586.954,60583.727,60586.954,1,60586.954,0,0,NA,Click To Continue,Continue Button,22,object-73,BIQ,NA,SUPPRF18834
11,1.69694E+12,10/10/2023 10:50,1.69694E+12,1,10/10/2023 12:50,146524,3,task-gjqt,NA,32129227,9500282,NA,complete,NA,652535a4bc4e0028590efed3,computer,Desktop or Laptop,Windows 10,Chrome 117.0.0.0,1920x1080,1920x931,NA,NA,0,BIQ (Charlotte),3,BCADJEIFHG,Passed AC2,NA,Spreadsheet1,1,BIQ,Screen 3,iz3the,3,response,0,56183.091,60583.727,60594.054,56183.091,60583.727,60594.054,1,56183.091,4410.963,0,NA,Rating Scale,Rating Scale,2,object-53,BIQ,NA,SUPPRF18834
12,1.69694E+12,10/10/2023 10:50,1.69694E+12,1,10/10/2023 12:50,146524,3,task-gjqt,NA,32129227,9500282,NA,complete,NA,652535a4bc4e0028590efed3,computer,Desktop or Laptop,Windows 10,Chrome 117.0.0.0,1920x1080,1920x931,NA,NA,0,BIQ (Charlotte),3,BCADJEIFHG,Passed AC2,NA,Spreadsheet1,1,BIQ,Screen 3,iz3the,3,response,1,58050.146,60583.727,60596.154,58050.146,60583.727,60596.154,1,58050.146,2546.008,0,NA,Rating Scale,Rating Scale,9,object-60,BIQ,NA,SUPPRF18834
13,1.69694E+12,10/10/2023 10:50,1.69694E+12,1,10/10/2023 12:50,146524,3,task-gjqt,NA,32129227,9500282,NA,complete,NA,652535a4bc4e0028590efed3,computer,Desktop or Laptop,Windows 10,Chrome 117.0.0.0,1920x1080,1920x931,NA,NA,0,BIQ (Charlotte),3,BCADJEIFHG,Passed AC2,NA,Spreadsheet1,1,BIQ,Screen 3,iz3the,3,response,2,59883.131,60583.727,60597.754,59883.131,60583.727,60597.754,1,59883.131,714.623,0,NA,Rating Scale,Rating Scale,16,object-67,BIQ,NA,SUPPRF18834
14,1.69694E+12,10/10/2023 10:50,1.69694E+12,1,10/10/2023 12:50,146524,3,task-gjqt,NA,32129227,9500282,NA,complete,NA,652535a4bc4e0028590efed3,computer,Desktop or Laptop,Windows 10,Chrome 117.0.0.0,1920x1080,1920x931,NA,NA,0,BIQ (Charlotte),3,BCADJEIFHG,Passed AC2,NA,Spreadsheet1,NA,,,,NA,5,END,NA,NA,NA,NA,NA,NA,0,NA,NA,NA,NA,,,NA,,,NA,SUPPRF18834
1,1.69693E+12,10/10/2023 10:42,1.69694E+12,1,10/10/2023 12:42,146524,3,task-gjqt,NA,32128979,9500308,NA,complete,NA,6525370fbf00cac6004acd33,computer,Desktop or Laptop,Windows 10,Chrome 117.0.0.0,1920x1080,1423x912,NA,NA,0,BIQ (Charlotte),3,ABJCIDHEGF,Passed AC2,NA,Spreadsheet1,NA,,,,NA,5,BEGIN,NA,NA,NA,NA,NA,NA,0,NA,NA,NA,NA,,,NA,,,NA,SUPPRF41746
2,1.69693E+12,10/10/2023 10:42,1.69694E+12,1,10/10/2023 12:42,146524,3,task-gjqt,NA,32128979,9500308,NA,complete,NA,6525370fbf00cac6004acd33,computer,Desktop or Laptop,Windows 10,Chrome 117.0.0.0,1920x1080,1423x912,NA,NA,0,BIQ (Charlotte),3,ABJCIDHEGF,Passed AC2,NA,Spreadsheet1,1,BIQ,Screen 1,9dh6eq,1,continue,,24552.238,24549.134,24552.238,24552.238,24549.134,24552.238,1,24552.238,0,0,NA,Click To Continue,Continue Button,23,object-48,BIQ,NA,SUPPRF41746
3,1.69693E+12,10/10/2023 10:42,1.69694E+12,1,10/10/2023 12:42,146524,3,task-gjqt,NA,32128979,9500308,NA,complete,NA,6525370fbf00cac6004acd33,computer,Desktop or Laptop,Windows 10,Chrome 117.0.0.0,1920x1080,1423x912,NA,NA,0,BIQ (Charlotte),3,ABJCIDHEGF,Passed AC2,NA,Spreadsheet1,1,BIQ,Screen 1,9dh6eq,1,response,7,8816.217,24549.134,24553.538,8816.217,24549.134,24553.538,1,8816.217,15737.321,0,NA,Rating Scale,Rating Scale,3,object-5,BIQ,NA,SUPPRF41746
4,1.69693E+12,10/10/2023 10:42,1.69694E+12,1,10/10/2023 12:42,146524,3,task-gjqt,NA,32128979,9500308,NA,complete,NA,6525370fbf00cac6004acd33,computer,Desktop or Laptop,Windows 10,Chrome 117.0.0.0,1920x1080,1423x912,NA,NA,0,BIQ (Charlotte),3,ABJCIDHEGF,Passed AC2,NA,Spreadsheet1,1,BIQ,Screen 1,9dh6eq,1,response,4,17699.478,24549.134,24553.838,17699.478,24549.134,24553.838,1,17699.478,6854.36,0,NA,Rating Scale,Rating Scale,10,object-18,BIQ,NA,SUPPRF41746
5,1.69693E+12,10/10/2023 10:42,1.69694E+12,1,10/10/2023 12:42,146524,3,task-gjqt,NA,32128979,9500308,NA,complete,NA,6525370fbf00cac6004acd33,computer,Desktop or Laptop,Windows 10,Chrome 117.0.0.0,1920x1080,1423x912,NA,NA,0,BIQ (Charlotte),3,ABJCIDHEGF,Passed AC2,NA,Spreadsheet1,1,BIQ,Screen 1,9dh6eq,1,response,4,23349.401,24549.134,24554.138,23349.401,24549.134,24554.138,1,23349.401,1204.737,0,NA,Rating Scale,Rating Scale,17,object-80,BIQ,NA,SUPPRF41746
6,1.69693E+12,10/10/2023 10:43,1.69694E+12,1,10/10/2023 12:43,146524,3,task-gjqt,NA,32128979,9500308,NA,complete,NA,6525370fbf00cac6004acd33,computer,Desktop or Laptop,Windows 10,Chrome 117.0.0.0,1920x1080,1423x912,NA,NA,0,BIQ (Charlotte),3,ABJCIDHEGF,Passed AC2,NA,Spreadsheet1,1,BIQ,Screen 2,o21mwi,2,continue,,24543.204,24532.683,24543.204,24543.204,24532.683,24543.204,1,24543.204,0,0,NA,Click To Continue,Continue Button,22,object-50,BIQ,NA,SUPPRF41746
7,1.69693E+12,10/10/2023 10:43,1.69694E+12,1,10/10/2023 12:43,146524,3,task-gjqt,NA,32128979,9500308,NA,complete,NA,6525370fbf00cac6004acd33,computer,Desktop or Laptop,Windows 10,Chrome 117.0.0.0,1920x1080,1423x912,NA,NA,0,BIQ (Charlotte),3,ABJCIDHEGF,Passed AC2,NA,Spreadsheet1,1,BIQ,Screen 2,o21mwi,2,response,5,5299.995,24532.683,24544.404,5299.995,24532.683,24544.404,1,5299.995,19244.409,0,NA,Rating Scale,Rating Scale,2,object-259,BIQ,NA,SUPPRF41746
8,1.69693E+12,10/10/2023 10:43,1.69694E+12,1,10/10/2023 12:43,146524,3,task-gjqt,NA,32128979,9500308,NA,complete,NA,6525370fbf00cac6004acd33,computer,Desktop or Laptop,Windows 10,Chrome 117.0.0.0,1920x1080,1423x912,NA,NA,0,BIQ (Charlotte),3,ABJCIDHEGF,Passed AC2,NA,Spreadsheet1,1,BIQ,Screen 2,o21mwi,2,response,4,16199.664,24532.683,24544.704,16199.664,24532.683,24544.704,1,16199.664,8345.04,0,NA,Rating Scale,Rating Scale,9,object-36,BIQ,NA,SUPPRF41746
9,1.69693E+12,10/10/2023 10:43,1.69694E+12,1,10/10/2023 12:43,146524,3,task-gjqt,NA,32128979,9500308,NA,complete,NA,6525370fbf00cac6004acd33,computer,Desktop or Laptop,Windows 10,Chrome 117.0.0.0,1920x1080,1423x912,NA,NA,0,BIQ (Charlotte),3,ABJCIDHEGF,Passed AC2,NA,Spreadsheet1,1,BIQ,Screen 2,o21mwi,2,response,7,23199.344,24532.683,24545.004,23199.344,24532.683,24545.004,1,23199.344,1345.66,0,NA,Rating Scale,Rating Scale,16,object-86,BIQ,NA,SUPPRF41746
10,1.69693E+12,10/10/2023 10:43,1.69694E+12,1,10/10/2023 12:43,146524,3,task-gjqt,NA,32128979,9500308,NA,complete,NA,6525370fbf00cac6004acd33,computer,Desktop or Laptop,Windows 10,Chrome 117.0.0.0,1920x1080,1423x912,NA,NA,0,BIQ (Charlotte),3,ABJCIDHEGF,Passed AC2,NA,Spreadsheet1,1,BIQ,Screen 3,iz3the,3,continue,,11602.321,11599.577,11602.321,11602.321,11599.577,11602.321,1,11602.321,0,0,NA,Click To Continue,Continue Button,22,object-73,BIQ,NA,SUPPRF41746
11,1.69693E+12,10/10/2023 10:43,1.69694E+12,1,10/10/2023 12:43,146524,3,task-gjqt,NA,32128979,9500308,NA,complete,NA,6525370fbf00cac6004acd33,computer,Desktop or Laptop,Windows 10,Chrome 117.0.0.0,1920x1080,1423x912,NA,NA,0,BIQ (Charlotte),3,ABJCIDHEGF,Passed AC2,NA,Spreadsheet1,1,BIQ,Screen 3,iz3the,3,response,3,3966.445,11599.577,11603.421,3966.445,11599.577,11603.421,1,3966.445,7636.976,0,NA,Rating Scale,Rating Scale,2,object-53,BIQ,NA,SUPPRF41746
12,1.69693E+12,10/10/2023 10:43,1.69694E+12,1,10/10/2023 12:43,146524,3,task-gjqt,NA,32128979,9500308,NA,complete,NA,6525370fbf00cac6004acd33,computer,Desktop or Laptop,Windows 10,Chrome 117.0.0.0,1920x1080,1423x912,NA,NA,0,BIQ (Charlotte),3,ABJCIDHEGF,Passed AC2,NA,Spreadsheet1,1,BIQ,Screen 3,iz3the,3,response,4,5433.21,11599.577,11603.721,5433.21,11599.577,11603.721,1,5433.21,6170.511,0,NA,Rating Scale,Rating Scale,9,object-60,BIQ,NA,SUPPRF41746
13,1.69693E+12,10/10/2023 10:43,1.69694E+12,1,10/10/2023 12:43,146524,3,task-gjqt,NA,32128979,9500308,NA,complete,NA,6525370fbf00cac6004acd33,computer,Desktop or Laptop,Windows 10,Chrome 117.0.0.0,1920x1080,1423x912,NA,NA,0,BIQ (Charlotte),3,ABJCIDHEGF,Passed AC2,NA,Spreadsheet1,1,BIQ,Screen 3,iz3the,3,response,1,9649.661,11599.577,11604.021,9649.661,11599.577,11604.021,1,9649.661,1954.36,0,NA,Rating Scale,Rating Scale,16,object-67,BIQ,NA,SUPPRF41746
14,1.69693E+12,10/10/2023 10:43,1.69694E+12,1,10/10/2023 12:43,146524,3,task-gjqt,NA,32128979,9500308,NA,complete,NA,6525370fbf00cac6004acd33,computer,Desktop or Laptop,Windows 10,Chrome 117.0.0.0,1920x1080,1423x912,NA,NA,0,BIQ (Charlotte),3,ABJCIDHEGF,Passed AC2,NA,Spreadsheet1,NA,,,,NA,5,END,NA,NA,NA,NA,NA,NA,0,NA,NA,NA,NA,,,NA,,,NA,SUPPRF41746
1,1.69694E+12,10/10/2023 10:53,1.69694E+12,1,10/10/2023 12:53,146524,3,task-gjqt,NA,32129437,9500402,NA,complete,NA,652539b71e0db3dbdaacb9e5,computer,Desktop or Laptop,Mac OS 10.15.7,Safari 16.3,1440x900,1440x738,NA,NA,0,BIQ (Charlotte),3,CDBEAFJGIH,Passed AC2,NA,Spreadsheet1,NA,,,,NA,5,BEGIN,NA,NA,NA,NA,NA,NA,0,NA,NA,NA,NA,,,NA,,,NA,SUPPRF51534
2,1.69694E+12,10/10/2023 10:53,1.69694E+12,1,10/10/2023 12:53,146524,3,task-gjqt,NA,32129437,9500402,NA,complete,NA,652539b71e0db3dbdaacb9e5,computer,Desktop or Laptop,Mac OS 10.15.7,Safari 16.3,1440x900,1440x738,NA,NA,0,BIQ (Charlotte),3,CDBEAFJGIH,Passed AC2,NA,Spreadsheet1,1,BIQ,Screen 1,9dh6eq,1,continue,,32182,32165,32182,32182,32165,32182,1,32182,0,0,NA,Click To Continue,Continue Button,23,object-48,BIQ,NA,SUPPRF51534
3,1.69694E+12,10/10/2023 10:53,1.69694E+12,1,10/10/2023 12:53,146524,3,task-gjqt,NA,32129437,9500402,NA,complete,NA,652539b71e0db3dbdaacb9e5,computer,Desktop or Laptop,Mac OS 10.15.7,Safari 16.3,1440x900,1440x738,NA,NA,0,BIQ (Charlotte),3,CDBEAFJGIH,Passed AC2,NA,Spreadsheet1,1,BIQ,Screen 1,9dh6eq,1,response,5,14814,32165,32182,14814,32165,32182,1,14814,17368,0,NA,Rating Scale,Rating Scale,3,object-5,BIQ,NA,SUPPRF51534
4,1.69694E+12,10/10/2023 10:53,1.69694E+12,1,10/10/2023 12:53,146524,3,task-gjqt,NA,32129437,9500402,NA,complete,NA,652539b71e0db3dbdaacb9e5,computer,Desktop or Laptop,Mac OS 10.15.7,Safari 16.3,1440x900,1440x738,NA,NA,0,BIQ (Charlotte),3,CDBEAFJGIH,Passed AC2,NA,Spreadsheet1,1,BIQ,Screen 1,9dh6eq,1,response,4,23398,32165,32182,23398,32165,32182,1,23398,8784,0,NA,Rating Scale,Rating Scale,10,object-18,BIQ,NA,SUPPRF51534
5,1.69694E+12,10/10/2023 10:53,1.69694E+12,1,10/10/2023 12:53,146524,3,task-gjqt,NA,32129437,9500402,NA,complete,NA,652539b71e0db3dbdaacb9e5,computer,Desktop or Laptop,Mac OS 10.15.7,Safari 16.3,1440x900,1440x738,NA,NA,0,BIQ (Charlotte),3,CDBEAFJGIH,Passed AC2,NA,Spreadsheet1,1,BIQ,Screen 1,9dh6eq,1,response,6,28147,32165,32182,28147,32165,32182,1,28147,4035,0,NA,Rating Scale,Rating Scale,17,object-80,BIQ,NA,SUPPRF51534
6,1.69694E+12,10/10/2023 10:54,1.69694E+12,1,10/10/2023 12:54,146524,3,task-gjqt,NA,32129437,9500402,NA,complete,NA,652539b71e0db3dbdaacb9e5,computer,Desktop or Laptop,Mac OS 10.15.7,Safari 16.3,1440x900,1440x738,NA,NA,0,BIQ (Charlotte),3,CDBEAFJGIH,Passed AC2,NA,Spreadsheet1,1,BIQ,Screen 2,o21mwi,2,continue,,14750,14734,14750,14750,14734,14750,1,14750,0,0,NA,Click To Continue,Continue Button,22,object-50,BIQ,NA,SUPPRF51534
7,1.69694E+12,10/10/2023 10:54,1.69694E+12,1,10/10/2023 12:54,146524,3,task-gjqt,NA,32129437,9500402,NA,complete,NA,652539b71e0db3dbdaacb9e5,computer,Desktop or Laptop,Mac OS 10.15.7,Safari 16.3,1440x900,1440x738,NA,NA,0,BIQ (Charlotte),3,CDBEAFJGIH,Passed AC2,NA,Spreadsheet1,1,BIQ,Screen 2,o21mwi,2,response,4,4749,14734,14750,4749,14734,14750,1,4749,10001,0,NA,Rating Scale,Rating Scale,2,object-259,BIQ,NA,SUPPRF51534
8,1.69694E+12,10/10/2023 10:54,1.69694E+12,1,10/10/2023 12:54,146524,3,task-gjqt,NA,32129437,9500402,NA,complete,NA,652539b71e0db3dbdaacb9e5,computer,Desktop or Laptop,Mac OS 10.15.7,Safari 16.3,1440x900,1440x738,NA,NA,0,BIQ (Charlotte),3,CDBEAFJGIH,Passed AC2,NA,Spreadsheet1,1,BIQ,Screen 2,o21mwi,2,response,5,8066,14734,14750,8066,14734,14750,1,8066,6684,0,NA,Rating Scale,Rating Scale,9,object-36,BIQ,NA,SUPPRF51534
9,1.69694E+12,10/10/2023 10:54,1.69694E+12,1,10/10/2023 12:54,146524,3,task-gjqt,NA,32129437,9500402,NA,complete,NA,652539b71e0db3dbdaacb9e5,computer,Desktop or Laptop,Mac OS 10.15.7,Safari 16.3,1440x900,1440x738,NA,NA,0,BIQ (Charlotte),3,CDBEAFJGIH,Passed AC2,NA,Spreadsheet1,1,BIQ,Screen 2,o21mwi,2,response,4,14151,14734,14750,14151,14734,14750,1,14151,599,0,NA,Rating Scale,Rating Scale,16,object-86,BIQ,NA,SUPPRF51534
10,1.69694E+12,10/10/2023 10:54,1.69694E+12,1,10/10/2023 12:54,146524,3,task-gjqt,NA,32129437,9500402,NA,complete,NA,652539b71e0db3dbdaacb9e5,computer,Desktop or Laptop,Mac OS 10.15.7,Safari 16.3,1440x900,1440x738,NA,NA,0,BIQ (Charlotte),3,CDBEAFJGIH,Passed AC2,NA,Spreadsheet1,1,BIQ,Screen 3,iz3the,3,continue,,10734,10718,10734,10734,10718,10734,1,10734,0,0,NA,Click To Continue,Continue Button,22,object-73,BIQ,NA,SUPPRF51534
11,1.69694E+12,10/10/2023 10:54,1.69694E+12,1,10/10/2023 12:54,146524,3,task-gjqt,NA,32129437,9500402,NA,complete,NA,652539b71e0db3dbdaacb9e5,computer,Desktop or Laptop,Mac OS 10.15.7,Safari 16.3,1440x900,1440x738,NA,NA,0,BIQ (Charlotte),3,CDBEAFJGIH,Passed AC2,NA,Spreadsheet1,1,BIQ,Screen 3,iz3the,3,response,3,5134,10718,10735,5134,10718,10735,1,5134,5601,0,NA,Rating Scale,Rating Scale,2,object-53,BIQ,NA,SUPPRF51534
12,1.69694E+12,10/10/2023 10:54,1.69694E+12,1,10/10/2023 12:54,146524,3,task-gjqt,NA,32129437,9500402,NA,complete,NA,652539b71e0db3dbdaacb9e5,computer,Desktop or Laptop,Mac OS 10.15.7,Safari 16.3,1440x900,1440x738,NA,NA,0,BIQ (Charlotte),3,CDBEAFJGIH,Passed AC2,NA,Spreadsheet1,1,BIQ,Screen 3,iz3the,3,response,4,6867,10718,10735,6867,10718,10735,1,6867,3868,0,NA,Rating Scale,Rating Scale,9,object-60,BIQ,NA,SUPPRF51534
13,1.69694E+12,10/10/2023 10:54,1.69694E+12,1,10/10/2023 12:54,146524,3,task-gjqt,NA,32129437,9500402,NA,complete,NA,652539b71e0db3dbdaacb9e5,computer,Desktop or Laptop,Mac OS 10.15.7,Safari 16.3,1440x900,1440x738,NA,NA,0,BIQ (Charlotte),3,CDBEAFJGIH,Passed AC2,NA,Spreadsheet1,1,BIQ,Screen 3,iz3the,3,response,5,9601,10718,10735,9601,10718,10735,1,9601,1134,0,NA,Rating Scale,Rating Scale,16,object-67,BIQ,NA,SUPPRF51534
14,1.69694E+12,10/10/2023 10:54,1.69694E+12,1,10/10/2023 12:54,146524,3,task-gjqt,NA,32129437,9500402,NA,complete,NA,652539b71e0db3dbdaacb9e5,computer,Desktop or Laptop,Mac OS 10.15.7,Safari 16.3,1440x900,1440x738,NA,NA,0,BIQ (Charlotte),3,CDBEAFJGIH,Passed AC2,NA,Spreadsheet1,NA,,,,NA,5,END,NA,NA,NA,NA,NA,NA,0,NA,NA,NA,NA,,,NA,,,NA,SUPPRF51534
1,1.69694E+12,10/10/2023 10:53,1.69694E+12,1,10/10/2023 12:53,146524,3,task-gjqt,NA,32129455,9500441,NA,complete,NA,65253a72b3fbf3fd02adeec4,computer,Desktop or Laptop,Mac OS 10.15.7,Chrome 117.0.0.0,1440x900,1440x782,NA,NA,0,BIQ (Charlotte),3,DECFBGAHJI,Passed AC2,NA,Spreadsheet1,NA,,,,NA,5,BEGIN,NA,NA,NA,NA,NA,NA,0,NA,NA,NA,NA,,,NA,,,NA,SUPPRF77371
2,1.69694E+12,10/10/2023 10:53,1.69694E+12,1,10/10/2023 12:53,146524,3,task-gjqt,NA,32129455,9500441,NA,complete,NA,65253a72b3fbf3fd02adeec4,computer,Desktop or Laptop,Mac OS 10.15.7,Chrome 117.0.0.0,1440x900,1440x782,NA,NA,0,BIQ (Charlotte),3,DECFBGAHJI,Passed AC2,NA,Spreadsheet1,1,BIQ,Screen 1,9dh6eq,1,continue,,13164.51,13149.999,13164.51,13164.51,13149.999,13164.51,1,13164.51,0,0,NA,Click To Continue,Continue Button,23,object-48,BIQ,NA,SUPPRF77371
3,1.69694E+12,10/10/2023 10:53,1.69694E+12,1,10/10/2023 12:53,146524,3,task-gjqt,NA,32129455,9500441,NA,complete,NA,65253a72b3fbf3fd02adeec4,computer,Desktop or Laptop,Mac OS 10.15.7,Chrome 117.0.0.0,1440x900,1440x782,NA,NA,0,BIQ (Charlotte),3,DECFBGAHJI,Passed AC2,NA,Spreadsheet1,1,BIQ,Screen 1,9dh6eq,1,response,6,6883.32,13149.999,13166.665,6883.32,13149.999,13166.665,1,6883.32,6283.345,0,NA,Rating Scale,Rating Scale,3,object-5,BIQ,NA,SUPPRF77371
4,1.69694E+12,10/10/2023 10:53,1.69694E+12,1,10/10/2023 12:53,146524,3,task-gjqt,NA,32129455,9500441,NA,complete,NA,65253a72b3fbf3fd02adeec4,computer,Desktop or Laptop,Mac OS 10.15.7,Chrome 117.0.0.0,1440x900,1440x782,NA,NA,0,BIQ (Charlotte),3,DECFBGAHJI,Passed AC2,NA,Spreadsheet1,1,BIQ,Screen 1,9dh6eq,1,response,4,9199.894,13149.999,13166.665,9199.894,13149.999,13166.665,1,9199.894,3966.771,0,NA,Rating Scale,Rating Scale,10,object-18,BIQ,NA,SUPPRF77371
5,1.69694E+12,10/10/2023 10:53,1.69694E+12,1,10/10/2023 12:53,146524,3,task-gjqt,NA,32129455,9500441,NA,complete,NA,65253a72b3fbf3fd02adeec4,computer,Desktop or Laptop,Mac OS 10.15.7,Chrome 117.0.0.0,1440x900,1440x782,NA,NA,0,BIQ (Charlotte),3,DECFBGAHJI,Passed AC2,NA,Spreadsheet1,1,BIQ,Screen 1,9dh6eq,1,response,5,12600.021,13149.999,13166.665,12600.021,13149.999,13166.665,1,12600.021,566.644,0,NA,Rating Scale,Rating Scale,17,object-80,BIQ,NA,SUPPRF77371
6,1.69694E+12,10/10/2023 10:54,1.69694E+12,1,10/10/2023 12:54,146524,3,task-gjqt,NA,32129455,9500441,NA,complete,NA,65253a72b3fbf3fd02adeec4,computer,Desktop or Laptop,Mac OS 10.15.7,Chrome 117.0.0.0,1440x900,1440x782,NA,NA,0,BIQ (Charlotte),3,DECFBGAHJI,Passed AC2,NA,Spreadsheet1,1,BIQ,Screen 2,o21mwi,2,continue,,12179.311,12166.442,12179.311,12179.311,12166.442,12179.311,1,12179.311,0,0,NA,Click To Continue,Continue Button,22,object-50,BIQ,NA,SUPPRF77371
7,1.69694E+12,10/10/2023 10:54,1.69694E+12,1,10/10/2023 12:54,146524,3,task-gjqt,NA,32129455,9500441,NA,complete,NA,65253a72b3fbf3fd02adeec4,computer,Desktop or Laptop,Mac OS 10.15.7,Chrome 117.0.0.0,1440x900,1440x782,NA,NA,0,BIQ (Charlotte),3,DECFBGAHJI,Passed AC2,NA,Spreadsheet1,1,BIQ,Screen 2,o21mwi,2,response,2,3449.862,12166.442,12182.611,3449.862,12166.442,12182.611,1,3449.862,8732.749,0,NA,Rating Scale,Rating Scale,2,object-259,BIQ,NA,SUPPRF77371
8,1.69694E+12,10/10/2023 10:54,1.69694E+12,1,10/10/2023 12:54,146524,3,task-gjqt,NA,32129455,9500441,NA,complete,NA,65253a72b3fbf3fd02adeec4,computer,Desktop or Laptop,Mac OS 10.15.7,Chrome 117.0.0.0,1440x900,1440x782,NA,NA,0,BIQ (Charlotte),3,DECFBGAHJI,Passed AC2,NA,Spreadsheet1,1,BIQ,Screen 2,o21mwi,2,response,6,6933.056,12166.442,12183.108,6933.056,12166.442,12183.108,1,6933.056,5250.052,0,NA,Rating Scale,Rating Scale,9,object-36,BIQ,NA,SUPPRF77371
9,1.69694E+12,10/10/2023 10:54,1.69694E+12,1,10/10/2023 12:54,146524,3,task-gjqt,NA,32129455,9500441,NA,complete,NA,65253a72b3fbf3fd02adeec4,computer,Desktop or Laptop,Mac OS 10.15.7,Chrome 117.0.0.0,1440x900,1440x782,NA,NA,0,BIQ (Charlotte),3,DECFBGAHJI,Passed AC2,NA,Spreadsheet1,1,BIQ,Screen 2,o21mwi,2,response,2,11349.808,12166.442,12183.108,11349.808,12166.442,12183.108,1,11349.808,833.3,0,NA,Rating Scale,Rating Scale,16,object-86,BIQ,NA,SUPPRF77371
10,1.69694E+12,10/10/2023 10:54,1.69694E+12,1,10/10/2023 12:54,146524,3,task-gjqt,NA,32129455,9500441,NA,complete,NA,65253a72b3fbf3fd02adeec4,computer,Desktop or Laptop,Mac OS 10.15.7,Chrome 117.0.0.0,1440x900,1440x782,NA,NA,0,BIQ (Charlotte),3,DECFBGAHJI,Passed AC2,NA,Spreadsheet1,1,BIQ,Screen 3,iz3the,3,continue,,12687.569,12683.089,12687.569,12687.569,12683.089,12687.569,1,12687.569,0,0,NA,Click To Continue,Continue Button,22,object-73,BIQ,NA,SUPPRF77371
11,1.69694E+12,10/10/2023 10:54,1.69694E+12,1,10/10/2023 12:54,146524,3,task-gjqt,NA,32129455,9500441,NA,complete,NA,65253a72b3fbf3fd02adeec4,computer,Desktop or Laptop,Mac OS 10.15.7,Chrome 117.0.0.0,1440x900,1440x782,NA,NA,0,BIQ (Charlotte),3,DECFBGAHJI,Passed AC2,NA,Spreadsheet1,1,BIQ,Screen 3,iz3the,3,response,0,9216.561,12683.089,12689.469,9216.561,12683.089,12689.469,1,9216.561,3472.908,0,NA,Rating Scale,Rating Scale,2,object-53,BIQ,NA,SUPPRF77371
12,1.69694E+12,10/10/2023 10:54,1.69694E+12,1,10/10/2023 12:54,146524,3,task-gjqt,NA,32129455,9500441,NA,complete,NA,65253a72b3fbf3fd02adeec4,computer,Desktop or Laptop,Mac OS 10.15.7,Chrome 117.0.0.0,1440x900,1440x782,NA,NA,0,BIQ (Charlotte),3,DECFBGAHJI,Passed AC2,NA,Spreadsheet1,1,BIQ,Screen 3,iz3the,3,response,2,10583.173,12683.089,12689.869,10583.173,12683.089,12689.869,1,10583.173,2106.696,0,NA,Rating Scale,Rating Scale,9,object-60,BIQ,NA,SUPPRF77371
13,1.69694E+12,10/10/2023 10:54,1.69694E+12,1,10/10/2023 12:54,146524,3,task-gjqt,NA,32129455,9500441,NA,complete,NA,65253a72b3fbf3fd02adeec4,computer,Desktop or Laptop,Mac OS 10.15.7,Chrome 117.0.0.0,1440x900,1440x782,NA,NA,0,BIQ (Charlotte),3,DECFBGAHJI,Passed AC2,NA,Spreadsheet1,1,BIQ,Screen 3,iz3the,3,response,2,11966.451,12683.089,12690.169,11966.451,12683.089,12690.169,1,11966.451,723.718,0,NA,Rating Scale,Rating Scale,16,object-67,BIQ,NA,SUPPRF77371
14,1.69694E+12,10/10/2023 10:54,1.69694E+12,1,10/10/2023 12:54,146524,3,task-gjqt,NA,32129455,9500441,NA,complete,NA,65253a72b3fbf3fd02adeec4,computer,Desktop or Laptop,Mac OS 10.15.7,Chrome 117.0.0.0,1440x900,1440x782,NA,NA,0,BIQ (Charlotte),3,DECFBGAHJI,Passed AC2,NA,Spreadsheet1,NA,,,,NA,5,END,NA,NA,NA,NA,NA,NA,0,NA,NA,NA,NA,,,NA,,,NA,SUPPRF77371
1,1.69694E+12,10/10/2023 10:53,1.69694E+12,1,10/10/2023 12:53,146524,3,task-gjqt,NA,32129481,9500459,NA,complete,NA,65253a7af19dbb56db1412ee,computer,Desktop or Laptop,Windows 10,Chrome 117.0.0.0,1920x1080,1920x941,NA,NA,0,BIQ (Charlotte),3,EFDGCHBIAJ,Passed AC2,NA,Spreadsheet1,NA,,,,NA,5,BEGIN,NA,NA,NA,NA,NA,NA,0,NA,NA,NA,NA,,,NA,,,NA,SUPPRF71510
2,1.69694E+12,10/10/2023 10:54,1.69694E+12,1,10/10/2023 12:54,146524,3,task-gjqt,NA,32129481,9500459,NA,complete,NA,65253a7af19dbb56db1412ee,computer,Desktop or Laptop,Windows 10,Chrome 117.0.0.0,1920x1080,1920x941,NA,NA,0,BIQ (Charlotte),3,EFDGCHBIAJ,Passed AC2,NA,Spreadsheet1,1,BIQ,Screen 1,9dh6eq,1,continue,,31890,31883,31890,31890,31883,31890,1,31890,0,0,NA,Click To Continue,Continue Button,23,object-48,BIQ,NA,SUPPRF71510
3,1.69694E+12,10/10/2023 10:54,1.69694E+12,1,10/10/2023 12:54,146524,3,task-gjqt,NA,32129481,9500459,NA,complete,NA,65253a7af19dbb56db1412ee,computer,Desktop or Laptop,Windows 10,Chrome 117.0.0.0,1920x1080,1920x941,NA,NA,0,BIQ (Charlotte),3,EFDGCHBIAJ,Passed AC2,NA,Spreadsheet1,1,BIQ,Screen 1,9dh6eq,1,response,8,18889,31883,31890,18889,31883,31890,1,18889,13001,0,NA,Rating Scale,Rating Scale,3,object-5,BIQ,NA,SUPPRF71510
4,1.69694E+12,10/10/2023 10:54,1.69694E+12,1,10/10/2023 12:54,146524,3,task-gjqt,NA,32129481,9500459,NA,complete,NA,65253a7af19dbb56db1412ee,computer,Desktop or Laptop,Windows 10,Chrome 117.0.0.0,1920x1080,1920x941,NA,NA,0,BIQ (Charlotte),3,EFDGCHBIAJ,Passed AC2,NA,Spreadsheet1,1,BIQ,Screen 1,9dh6eq,1,response,3,25702,31883,31890,25702,31883,31890,1,25702,6188,0,NA,Rating Scale,Rating Scale,10,object-18,BIQ,NA,SUPPRF71510
5,1.69694E+12,10/10/2023 10:54,1.69694E+12,1,10/10/2023 12:54,146524,3,task-gjqt,NA,32129481,9500459,NA,complete,NA,65253a7af19dbb56db1412ee,computer,Desktop or Laptop,Windows 10,Chrome 117.0.0.0,1920x1080,1920x941,NA,NA,0,BIQ (Charlotte),3,EFDGCHBIAJ,Passed AC2,NA,Spreadsheet1,1,BIQ,Screen 1,9dh6eq,1,response,0,30112,31883,31890,30112,31883,31890,1,30112,1778,0,NA,Rating Scale,Rating Scale,17,object-80,BIQ,NA,SUPPRF71510
6,1.69694E+12,10/10/2023 10:54,1.69694E+12,1,10/10/2023 12:54,146524,3,task-gjqt,NA,32129481,9500459,NA,complete,NA,65253a7af19dbb56db1412ee,computer,Desktop or Laptop,Windows 10,Chrome 117.0.0.0,1920x1080,1920x941,NA,NA,0,BIQ (Charlotte),3,EFDGCHBIAJ,Passed AC2,NA,Spreadsheet1,1,BIQ,Screen 2,o21mwi,2,continue,,30500,30493,30500,30500,30493,30500,1,30500,0,0,NA,Click To Continue,Continue Button,22,object-50,BIQ,NA,SUPPRF71510
7,1.69694E+12,10/10/2023 10:54,1.69694E+12,1,10/10/2023 12:54,146524,3,task-gjqt,NA,32129481,9500459,NA,complete,NA,65253a7af19dbb56db1412ee,computer,Desktop or Laptop,Windows 10,Chrome 117.0.0.0,1920x1080,1920x941,NA,NA,0,BIQ (Charlotte),3,EFDGCHBIAJ,Passed AC2,NA,Spreadsheet1,1,BIQ,Screen 2,o21mwi,2,response,8,12131,30493,30500,12131,30493,30500,1,12131,18369,0,NA,Rating Scale,Rating Scale,2,object-259,BIQ,NA,SUPPRF71510
8,1.69694E+12,10/10/2023 10:54,1.69694E+12,1,10/10/2023 12:54,146524,3,task-gjqt,NA,32129481,9500459,NA,complete,NA,65253a7af19dbb56db1412ee,computer,Desktop or Laptop,Windows 10,Chrome 117.0.0.0,1920x1080,1920x941,NA,NA,0,BIQ (Charlotte),3,EFDGCHBIAJ,Passed AC2,NA,Spreadsheet1,1,BIQ,Screen 2,o21mwi,2,response,0,18979,30493,30500,18979,30493,30500,1,18979,11521,0,NA,Rating Scale,Rating Scale,9,object-36,BIQ,NA,SUPPRF71510
9,1.69694E+12,10/10/2023 10:54,1.69694E+12,1,10/10/2023 12:54,146524,3,task-gjqt,NA,32129481,9500459,NA,complete,NA,65253a7af19dbb56db1412ee,computer,Desktop or Laptop,Windows 10,Chrome 117.0.0.0,1920x1080,1920x941,NA,NA,0,BIQ (Charlotte),3,EFDGCHBIAJ,Passed AC2,NA,Spreadsheet1,1,BIQ,Screen 2,o21mwi,2,response,2,29923,30493,30500,29923,30493,30500,1,29923,577,0,NA,Rating Scale,Rating Scale,16,object-86,BIQ,NA,SUPPRF71510
10,1.69694E+12,10/10/2023 10:55,1.69694E+12,1,10/10/2023 12:55,146524,3,task-gjqt,NA,32129481,9500459,NA,complete,NA,65253a7af19dbb56db1412ee,computer,Desktop or Laptop,Windows 10,Chrome 117.0.0.0,1920x1080,1920x941,NA,NA,0,BIQ (Charlotte),3,EFDGCHBIAJ,Passed AC2,NA,Spreadsheet1,1,BIQ,Screen 3,iz3the,3,continue,,40413,40410,40413,40413,40410,40413,1,40413,0,0,NA,Click To Continue,Continue Button,22,object-73,BIQ,NA,SUPPRF71510
11,1.69694E+12,10/10/2023 10:55,1.69694E+12,1,10/10/2023 12:55,146524,3,task-gjqt,NA,32129481,9500459,NA,complete,NA,65253a7af19dbb56db1412ee,computer,Desktop or Laptop,Windows 10,Chrome 117.0.0.0,1920x1080,1920x941,NA,NA,0,BIQ (Charlotte),3,EFDGCHBIAJ,Passed AC2,NA,Spreadsheet1,1,BIQ,Screen 3,iz3the,3,response,0,35076,40410,40416,35076,40410,40416,1,35076,5340,0,NA,Rating Scale,Rating Scale,2,object-53,BIQ,NA,SUPPRF71510
12,1.69694E+12,10/10/2023 10:55,1.69694E+12,1,10/10/2023 12:55,146524,3,task-gjqt,NA,32129481,9500459,NA,complete,NA,65253a7af19dbb56db1412ee,computer,Desktop or Laptop,Windows 10,Chrome 117.0.0.0,1920x1080,1920x941,NA,NA,0,BIQ (Charlotte),3,EFDGCHBIAJ,Passed AC2,NA,Spreadsheet1,1,BIQ,Screen 3,iz3the,3,response,0,37444,40410,40417,37444,40410,40417,1,37444,2973,0,NA,Rating Scale,Rating Scale,9,object-60,BIQ,NA,SUPPRF71510
13,1.69694E+12,10/10/2023 10:55,1.69694E+12,1,10/10/2023 12:55,146524,3,task-gjqt,NA,32129481,9500459,NA,complete,NA,65253a7af19dbb56db1412ee,computer,Desktop or Laptop,Windows 10,Chrome 117.0.0.0,1920x1080,1920x941,NA,NA,0,BIQ (Charlotte),3,EFDGCHBIAJ,Passed AC2,NA,Spreadsheet1,1,BIQ,Screen 3,iz3the,3,response,0,39896,40410,40417,39896,40410,40417,1,39896,521,0,NA,Rating Scale,Rating Scale,16,object-67,BIQ,NA,SUPPRF71510
14,1.69694E+12,10/10/2023 10:55,1.69694E+12,1,10/10/2023 12:55,146524,3,task-gjqt,NA,32129481,9500459,NA,complete,NA,65253a7af19dbb56db1412ee,computer,Desktop or Laptop,Windows 10,Chrome 117.0.0.0,1920x1080,1920x941,NA,NA,0,BIQ (Charlotte),3,EFDGCHBIAJ,Passed AC2,NA,Spreadsheet1,NA,,,,NA,5,END,NA,NA,NA,NA,NA,NA,0,NA,NA,NA,NA,,,NA,,,NA,SUPPRF71510
1,1.69694E+12,10/10/2023 10:55,1.69694E+12,1,10/10/2023 12:55,146524,3,task-gjqt,NA,32129525,9500529,NA,complete,NA,65253b77ca2f853bab081779,computer,Desktop or Laptop,Windows 10,Chrome 117.0.0.0,2560x1440,2560x1323,NA,NA,0,BIQ (Charlotte),3,FGEHDICJBA,Passed AC2,NA,Spreadsheet1,NA,,,,NA,5,BEGIN,NA,NA,NA,NA,NA,NA,0,NA,NA,NA,NA,,,NA,,,NA,SUPPRF20648
2,1.69694E+12,10/10/2023 10:56,1.69694E+12,1,10/10/2023 12:56,146524,3,task-gjqt,NA,32129525,9500529,NA,complete,NA,65253b77ca2f853bab081779,computer,Desktop or Laptop,Windows 10,Chrome 117.0.0.0,2560x1440,2560x1323,NA,NA,0,BIQ (Charlotte),3,FGEHDICJBA,Passed AC2,NA,Spreadsheet1,1,BIQ,Screen 1,9dh6eq,1,continue,,17657.408,17653.266,17657.408,17657.408,17653.266,17657.408,1,17657.408,0,0,NA,Click To Continue,Continue Button,23,object-48,BIQ,NA,SUPPRF20648
3,1.69694E+12,10/10/2023 10:56,1.69694E+12,1,10/10/2023 12:56,146524,3,task-gjqt,NA,32129525,9500529,NA,complete,NA,65253b77ca2f853bab081779,computer,Desktop or Laptop,Windows 10,Chrome 117.0.0.0,2560x1440,2560x1323,NA,NA,0,BIQ (Charlotte),3,FGEHDICJBA,Passed AC2,NA,Spreadsheet1,1,BIQ,Screen 1,9dh6eq,1,response,5,9368.419,17653.266,17657.408,9368.419,17653.266,17657.408,1,9368.419,8288.989,0,NA,Rating Scale,Rating Scale,3,object-5,BIQ,NA,SUPPRF20648
4,1.69694E+12,10/10/2023 10:56,1.69694E+12,1,10/10/2023 12:56,146524,3,task-gjqt,NA,32129525,9500529,NA,complete,NA,65253b77ca2f853bab081779,computer,Desktop or Laptop,Windows 10,Chrome 117.0.0.0,2560x1440,2560x1323,NA,NA,0,BIQ (Charlotte),3,FGEHDICJBA,Passed AC2,NA,Spreadsheet1,1,BIQ,Screen 1,9dh6eq,1,response,2,13823.43,17653.266,17657.408,13823.43,17653.266,17657.408,1,13823.43,3833.978,0,NA,Rating Scale,Rating Scale,10,object-18,BIQ,NA,SUPPRF20648
5,1.69694E+12,10/10/2023 10:56,1.69694E+12,1,10/10/2023 12:56,146524,3,task-gjqt,NA,32129525,9500529,NA,complete,NA,65253b77ca2f853bab081779,computer,Desktop or Laptop,Windows 10,Chrome 117.0.0.0,2560x1440,2560x1323,NA,NA,0,BIQ (Charlotte),3,FGEHDICJBA,Passed AC2,NA,Spreadsheet1,1,BIQ,Screen 1,9dh6eq,1,response,3,16519.756,17653.266,17657.408,16519.756,17653.266,17657.408,1,16519.756,1137.652,0,NA,Rating Scale,Rating Scale,17,object-80,BIQ,NA,SUPPRF20648
6,1.69694E+12,10/10/2023 10:56,1.69694E+12,1,10/10/2023 12:56,146524,3,task-gjqt,NA,32129525,9500529,NA,complete,NA,65253b77ca2f853bab081779,computer,Desktop or Laptop,Windows 10,Chrome 117.0.0.0,2560x1440,2560x1323,NA,NA,0,BIQ (Charlotte),3,FGEHDICJBA,Passed AC2,NA,Spreadsheet1,1,BIQ,Screen 2,o21mwi,2,continue,,15953.98,15952.939,15953.98,15953.98,15952.939,15953.98,1,15953.98,0,0,NA,Click To Continue,Continue Button,22,object-50,BIQ,NA,SUPPRF20648
7,1.69694E+12,10/10/2023 10:56,1.69694E+12,1,10/10/2023 12:56,146524,3,task-gjqt,NA,32129525,9500529,NA,complete,NA,65253b77ca2f853bab081779,computer,Desktop or Laptop,Windows 10,Chrome 117.0.0.0,2560x1440,2560x1323,NA,NA,0,BIQ (Charlotte),3,FGEHDICJBA,Passed AC2,NA,Spreadsheet1,1,BIQ,Screen 2,o21mwi,2,response,6,5334.339,15952.939,15955.08,5334.339,15952.939,15955.08,1,5334.339,10620.741,0,NA,Rating Scale,Rating Scale,2,object-259,BIQ,NA,SUPPRF20648
8,1.69694E+12,10/10/2023 10:56,1.69694E+12,1,10/10/2023 12:56,146524,3,task-gjqt,NA,32129525,9500529,NA,complete,NA,65253b77ca2f853bab081779,computer,Desktop or Laptop,Windows 10,Chrome 117.0.0.0,2560x1440,2560x1323,NA,NA,0,BIQ (Charlotte),3,FGEHDICJBA,Passed AC2,NA,Spreadsheet1,1,BIQ,Screen 2,o21mwi,2,response,4,8476.573,15952.939,15955.28,8476.573,15952.939,15955.28,1,8476.573,7478.707,0,NA,Rating Scale,Rating Scale,9,object-36,BIQ,NA,SUPPRF20648
9,1.69694E+12,10/10/2023 10:56,1.69694E+12,1,10/10/2023 12:56,146524,3,task-gjqt,NA,32129525,9500529,NA,complete,NA,65253b77ca2f853bab081779,computer,Desktop or Laptop,Windows 10,Chrome 117.0.0.0,2560x1440,2560x1323,NA,NA,0,BIQ (Charlotte),3,FGEHDICJBA,Passed AC2,NA,Spreadsheet1,1,BIQ,Screen 2,o21mwi,2,response,3,15352.833,15952.939,15955.48,15352.833,15952.939,15955.48,1,15352.833,602.647,0,NA,Rating Scale,Rating Scale,16,object-86,BIQ,NA,SUPPRF20648
10,1.69694E+12,10/10/2023 10:56,1.69694E+12,1,10/10/2023 12:56,146524,3,task-gjqt,NA,32129525,9500529,NA,complete,NA,65253b77ca2f853bab081779,computer,Desktop or Laptop,Windows 10,Chrome 117.0.0.0,2560x1440,2560x1323,NA,NA,0,BIQ (Charlotte),3,FGEHDICJBA,Passed AC2,NA,Spreadsheet1,1,BIQ,Screen 3,iz3the,3,continue,,11513.141,11510.428,11513.141,11513.141,11510.428,11513.141,1,11513.141,0,0,NA,Click To Continue,Continue Button,22,object-73,BIQ,NA,SUPPRF20648
11,1.69694E+12,10/10/2023 10:56,1.69694E+12,1,10/10/2023 12:56,146524,3,task-gjqt,NA,32129525,9500529,NA,complete,NA,65253b77ca2f853bab081779,computer,Desktop or Laptop,Windows 10,Chrome 117.0.0.0,2560x1440,2560x1323,NA,NA,0,BIQ (Charlotte),3,FGEHDICJBA,Passed AC2,NA,Spreadsheet1,1,BIQ,Screen 3,iz3the,3,response,1,4475.785,11510.428,11514.341,4475.785,11510.428,11514.341,1,4475.785,7038.556,0,NA,Rating Scale,Rating Scale,2,object-53,BIQ,NA,SUPPRF20648
12,1.69694E+12,10/10/2023 10:56,1.69694E+12,1,10/10/2023 12:56,146524,3,task-gjqt,NA,32129525,9500529,NA,complete,NA,65253b77ca2f853bab081779,computer,Desktop or Laptop,Windows 10,Chrome 117.0.0.0,2560x1440,2560x1323,NA,NA,0,BIQ (Charlotte),3,FGEHDICJBA,Passed AC2,NA,Spreadsheet1,1,BIQ,Screen 3,iz3the,3,response,3,8522.37,11510.428,11514.588,8522.37,11510.428,11514.588,1,8522.37,2992.218,0,NA,Rating Scale,Rating Scale,9,object-60,BIQ,NA,SUPPRF20648
13,1.69694E+12,10/10/2023 10:56,1.69694E+12,1,10/10/2023 12:56,146524,3,task-gjqt,NA,32129525,9500529,NA,complete,NA,65253b77ca2f853bab081779,computer,Desktop or Laptop,Windows 10,Chrome 117.0.0.0,2560x1440,2560x1323,NA,NA,0,BIQ (Charlotte),3,FGEHDICJBA,Passed AC2,NA,Spreadsheet1,1,BIQ,Screen 3,iz3the,3,response,5,10814.476,11510.428,11514.588,10814.476,11510.428,11514.588,1,10814.476,700.112,0,NA,Rating Scale,Rating Scale,16,object-67,BIQ,NA,SUPPRF20648
14,1.69694E+12,10/10/2023 10:56,1.69694E+12,1,10/10/2023 12:56,146524,3,task-gjqt,NA,32129525,9500529,NA,complete,NA,65253b77ca2f853bab081779,computer,Desktop or Laptop,Windows 10,Chrome 117.0.0.0,2560x1440,2560x1323,NA,NA,0,BIQ (Charlotte),3,FGEHDICJBA,Passed AC2,NA,Spreadsheet1,NA,,,,NA,5,END,NA,NA,NA,NA,NA,NA,0,NA,NA,NA,NA,,,NA,,,NA,SUPPRF20648
1,1.69694E+12,10/10/2023 11:08,1.69694E+12,1,10/10/2023 13:08,146524,3,task-gjqt,NA,32129915,9500616,NA,complete,NA,65253ded783624af1fcb11c5,computer,Desktop or Laptop,Mac OS 10.15.7,Chrome 116.0.0.0,1440x900,1440x815,NA,NA,0,BIQ (Charlotte),3,GHFIEJDACB,Passed AC2,NA,Spreadsheet1,NA,,,,NA,5,BEGIN,NA,NA,NA,NA,NA,NA,0,NA,NA,NA,NA,,,NA,,,NA,SUPPRF43420
2,1.69694E+12,10/10/2023 11:09,1.69694E+12,1,10/10/2023 13:09,146524,3,task-gjqt,NA,32129915,9500616,NA,complete,NA,65253ded783624af1fcb11c5,computer,Desktop or Laptop,Mac OS 10.15.7,Chrome 116.0.0.0,1440x900,1440x815,NA,NA,0,BIQ (Charlotte),3,GHFIEJDACB,Passed AC2,NA,Spreadsheet1,1,BIQ,Screen 1,9dh6eq,1,continue,,67924.962,67917.349,67924.962,67924.962,67917.349,67924.962,1,67924.962,0,0,NA,Click To Continue,Continue Button,23,object-48,BIQ,NA,SUPPRF43420
3,1.69694E+12,10/10/2023 11:09,1.69694E+12,1,10/10/2023 13:09,146524,3,task-gjqt,NA,32129915,9500616,NA,complete,NA,65253ded783624af1fcb11c5,computer,Desktop or Laptop,Mac OS 10.15.7,Chrome 116.0.0.0,1440x900,1440x815,NA,NA,0,BIQ (Charlotte),3,GHFIEJDACB,Passed AC2,NA,Spreadsheet1,1,BIQ,Screen 1,9dh6eq,1,response,3,54367.152,67917.349,67927.862,54367.152,67917.349,67927.862,1,54367.152,13560.71,0,NA,Rating Scale,Rating Scale,3,object-5,BIQ,NA,SUPPRF43420
4,1.69694E+12,10/10/2023 11:09,1.69694E+12,1,10/10/2023 13:09,146524,3,task-gjqt,NA,32129915,9500616,NA,complete,NA,65253ded783624af1fcb11c5,computer,Desktop or Laptop,Mac OS 10.15.7,Chrome 116.0.0.0,1440x900,1440x815,NA,NA,0,BIQ (Charlotte),3,GHFIEJDACB,Passed AC2,NA,Spreadsheet1,1,BIQ,Screen 1,9dh6eq,1,response,3,61150.953,67917.349,67928.162,61150.953,67917.349,67928.162,1,61150.953,6777.209,0,NA,Rating Scale,Rating Scale,10,object-18,BIQ,NA,SUPPRF43420
5,1.69694E+12,10/10/2023 11:09,1.69694E+12,1,10/10/2023 13:09,146524,3,task-gjqt,NA,32129915,9500616,NA,complete,NA,65253ded783624af1fcb11c5,computer,Desktop or Laptop,Mac OS 10.15.7,Chrome 116.0.0.0,1440x900,1440x815,NA,NA,0,BIQ (Charlotte),3,GHFIEJDACB,Passed AC2,NA,Spreadsheet1,1,BIQ,Screen 1,9dh6eq,1,response,4,64034.171,67917.349,67928.462,64034.171,67917.349,67928.462,1,64034.171,3894.291,0,NA,Rating Scale,Rating Scale,17,object-80,BIQ,NA,SUPPRF43420
6,1.69694E+12,10/10/2023 11:09,1.69694E+12,1,10/10/2023 13:09,146524,3,task-gjqt,NA,32129915,9500616,NA,complete,NA,65253ded783624af1fcb11c5,computer,Desktop or Laptop,Mac OS 10.15.7,Chrome 116.0.0.0,1440x900,1440x815,NA,NA,0,BIQ (Charlotte),3,GHFIEJDACB,Passed AC2,NA,Spreadsheet1,1,BIQ,Screen 2,o21mwi,2,continue,,16007.113,16000.471,16007.113,16007.113,16000.471,16007.113,1,16007.113,0,0,NA,Click To Continue,Continue Button,22,object-50,BIQ,NA,SUPPRF43420
7,1.69694E+12,10/10/2023 11:09,1.69694E+12,1,10/10/2023 13:09,146524,3,task-gjqt,NA,32129915,9500616,NA,complete,NA,65253ded783624af1fcb11c5,computer,Desktop or Laptop,Mac OS 10.15.7,Chrome 116.0.0.0,1440x900,1440x815,NA,NA,0,BIQ (Charlotte),3,GHFIEJDACB,Passed AC2,NA,Spreadsheet1,1,BIQ,Screen 2,o21mwi,2,response,5,4900.384,16000.471,16010.213,4900.384,16000.471,16010.213,1,4900.384,11109.829,0,NA,Rating Scale,Rating Scale,2,object-259,BIQ,NA,SUPPRF43420
8,1.69694E+12,10/10/2023 11:09,1.69694E+12,1,10/10/2023 13:09,146524,3,task-gjqt,NA,32129915,9500616,NA,complete,NA,65253ded783624af1fcb11c5,computer,Desktop or Laptop,Mac OS 10.15.7,Chrome 116.0.0.0,1440x900,1440x815,NA,NA,0,BIQ (Charlotte),3,GHFIEJDACB,Passed AC2,NA,Spreadsheet1,1,BIQ,Screen 2,o21mwi,2,response,4,8250.25,16000.471,16010.713,8250.25,16000.471,16010.713,1,8250.25,7760.463,0,NA,Rating Scale,Rating Scale,9,object-36,BIQ,NA,SUPPRF43420
9,1.69694E+12,10/10/2023 11:09,1.69694E+12,1,10/10/2023 13:09,146524,3,task-gjqt,NA,32129915,9500616,NA,complete,NA,65253ded783624af1fcb11c5,computer,Desktop or Laptop,Mac OS 10.15.7,Chrome 116.0.0.0,1440x900,1440x815,NA,NA,0,BIQ (Charlotte),3,GHFIEJDACB,Passed AC2,NA,Spreadsheet1,1,BIQ,Screen 2,o21mwi,2,response,6,15117.173,16000.471,16011.113,15117.173,16000.471,16011.113,1,15117.173,893.94,0,NA,Rating Scale,Rating Scale,16,object-86,BIQ,NA,SUPPRF43420
10,1.69694E+12,10/10/2023 11:09,1.69694E+12,1,10/10/2023 13:09,146524,3,task-gjqt,NA,32129915,9500616,NA,complete,NA,65253ded783624af1fcb11c5,computer,Desktop or Laptop,Mac OS 10.15.7,Chrome 116.0.0.0,1440x900,1440x815,NA,NA,0,BIQ (Charlotte),3,GHFIEJDACB,Passed AC2,NA,Spreadsheet1,1,BIQ,Screen 3,iz3the,3,continue,,16457.742,16450.497,16457.742,16457.742,16450.497,16457.742,1,16457.742,0,0,NA,Click To Continue,Continue Button,22,object-73,BIQ,NA,SUPPRF43420
11,1.69694E+12,10/10/2023 11:09,1.69694E+12,1,10/10/2023 13:09,146524,3,task-gjqt,NA,32129915,9500616,NA,complete,NA,65253ded783624af1fcb11c5,computer,Desktop or Laptop,Mac OS 10.15.7,Chrome 116.0.0.0,1440x900,1440x815,NA,NA,0,BIQ (Charlotte),3,GHFIEJDACB,Passed AC2,NA,Spreadsheet1,1,BIQ,Screen 3,iz3the,3,response,2,5667.074,16450.497,16460.142,5667.074,16450.497,16460.142,1,5667.074,10793.068,0,NA,Rating Scale,Rating Scale,2,object-53,BIQ,NA,SUPPRF43420
12,1.69694E+12,10/10/2023 11:09,1.69694E+12,1,10/10/2023 13:09,146524,3,task-gjqt,NA,32129915,9500616,NA,complete,NA,65253ded783624af1fcb11c5,computer,Desktop or Laptop,Mac OS 10.15.7,Chrome 116.0.0.0,1440x900,1440x815,NA,NA,0,BIQ (Charlotte),3,GHFIEJDACB,Passed AC2,NA,Spreadsheet1,1,BIQ,Screen 3,iz3the,3,response,5,12483.468,16450.497,16460.642,12483.468,16450.497,16460.642,1,12483.468,3977.174,0,NA,Rating Scale,Rating Scale,9,object-60,BIQ,NA,SUPPRF43420
13,1.69694E+12,10/10/2023 11:09,1.69694E+12,1,10/10/2023 13:09,146524,3,task-gjqt,NA,32129915,9500616,NA,complete,NA,65253ded783624af1fcb11c5,computer,Desktop or Laptop,Mac OS 10.15.7,Chrome 116.0.0.0,1440x900,1440x815,NA,NA,0,BIQ (Charlotte),3,GHFIEJDACB,Passed AC2,NA,Spreadsheet1,1,BIQ,Screen 3,iz3the,3,response,4,15700.527,16450.497,16460.942,15700.527,16450.497,16460.942,1,15700.527,760.415,0,NA,Rating Scale,Rating Scale,16,object-67,BIQ,NA,SUPPRF43420
14,1.69694E+12,10/10/2023 11:09,1.69694E+12,1,10/10/2023 13:09,146524,3,task-gjqt,NA,32129915,9500616,NA,complete,NA,65253ded783624af1fcb11c5,computer,Desktop or Laptop,Mac OS 10.15.7,Chrome 116.0.0.0,1440x900,1440x815,NA,NA,0,BIQ (Charlotte),3,GHFIEJDACB,Passed AC2,NA,Spreadsheet1,NA,,,,NA,5,END,NA,NA,NA,NA,NA,NA,0,NA,NA,NA,NA,,,NA,,,NA,SUPPRF43420
1,1.69694E+12,10/10/2023 11:34,1.69694E+12,1,10/10/2023 13:34,146524,3,task-gjqt,NA,32130783,9500967,NA,complete,NA,65254394162cd2b6b1bf695e,computer,Desktop or Laptop,Mac OS 10.15.7,Chrome 117.0.0.0,1440x900,1440x783,NA,NA,0,BIQ (Charlotte),3,IJHAGBFCED,Passed AC2,NA,Spreadsheet1,NA,,,,NA,5,BEGIN,NA,NA,NA,NA,NA,NA,0,NA,NA,NA,NA,,,NA,,,NA,SUPPRF54374
2,1.69694E+12,10/10/2023 11:35,1.69694E+12,1,10/10/2023 13:35,146524,3,task-gjqt,NA,32130783,9500967,NA,complete,NA,65254394162cd2b6b1bf695e,computer,Desktop or Laptop,Mac OS 10.15.7,Chrome 117.0.0.0,1440x900,1440x783,NA,NA,0,BIQ (Charlotte),3,IJHAGBFCED,Passed AC2,NA,Spreadsheet1,1,BIQ,Screen 1,9dh6eq,1,continue,,24402.056,24385.389,24402.056,24402.056,24385.389,24402.056,1,24402.056,0,0,NA,Click To Continue,Continue Button,23,object-48,BIQ,NA,SUPPRF54374
3,1.69694E+12,10/10/2023 11:35,1.69694E+12,1,10/10/2023 13:35,146524,3,task-gjqt,NA,32130783,9500967,NA,complete,NA,65254394162cd2b6b1bf695e,computer,Desktop or Laptop,Mac OS 10.15.7,Chrome 117.0.0.0,1440x900,1440x783,NA,NA,0,BIQ (Charlotte),3,IJHAGBFCED,Passed AC2,NA,Spreadsheet1,1,BIQ,Screen 1,9dh6eq,1,response,6,5300.671,24385.389,24402.056,5300.671,24385.389,24402.056,1,5300.671,19101.385,0,NA,Rating Scale,Rating Scale,3,object-5,BIQ,NA,SUPPRF54374
4,1.69694E+12,10/10/2023 11:35,1.69694E+12,1,10/10/2023 13:35,146524,3,task-gjqt,NA,32130783,9500967,NA,complete,NA,65254394162cd2b6b1bf695e,computer,Desktop or Laptop,Mac OS 10.15.7,Chrome 117.0.0.0,1440x900,1440x783,NA,NA,0,BIQ (Charlotte),3,IJHAGBFCED,Passed AC2,NA,Spreadsheet1,1,BIQ,Screen 1,9dh6eq,1,response,4,10550.776,24385.389,24402.056,10550.776,24385.389,24402.056,1,10550.776,13851.28,0,NA,Rating Scale,Rating Scale,10,object-18,BIQ,NA,SUPPRF54374
5,1.69694E+12,10/10/2023 11:35,1.69694E+12,1,10/10/2023 13:35,146524,3,task-gjqt,NA,32130783,9500967,NA,complete,NA,65254394162cd2b6b1bf695e,computer,Desktop or Laptop,Mac OS 10.15.7,Chrome 117.0.0.0,1440x900,1440x783,NA,NA,0,BIQ (Charlotte),3,IJHAGBFCED,Passed AC2,NA,Spreadsheet1,1,BIQ,Screen 1,9dh6eq,1,response,2,17084.713,24385.389,24402.056,17084.713,24385.389,24402.056,1,17084.713,7317.343,0,NA,Rating Scale,Rating Scale,17,object-80,BIQ,NA,SUPPRF54374
6,1.69694E+12,10/10/2023 11:35,1.69694E+12,1,10/10/2023 13:35,146524,3,task-gjqt,NA,32130783,9500967,NA,complete,NA,65254394162cd2b6b1bf695e,computer,Desktop or Laptop,Mac OS 10.15.7,Chrome 117.0.0.0,1440x900,1440x783,NA,NA,0,BIQ (Charlotte),3,IJHAGBFCED,Passed AC2,NA,Spreadsheet1,1,BIQ,Screen 2,o21mwi,2,continue,,21112.464,21101.313,21112.464,21112.464,21101.313,21112.464,1,21112.464,0,0,NA,Click To Continue,Continue Button,22,object-50,BIQ,NA,SUPPRF54374
7,1.69694E+12,10/10/2023 11:35,1.69694E+12,1,10/10/2023 13:35,146524,3,task-gjqt,NA,32130783,9500967,NA,complete,NA,65254394162cd2b6b1bf695e,computer,Desktop or Laptop,Mac OS 10.15.7,Chrome 117.0.0.0,1440x900,1440x783,NA,NA,0,BIQ (Charlotte),3,IJHAGBFCED,Passed AC2,NA,Spreadsheet1,1,BIQ,Screen 2,o21mwi,2,response,8,7000.54,21101.313,21117.564,7000.54,21101.313,21117.564,1,7000.54,14117.024,0,NA,Rating Scale,Rating Scale,2,object-259,BIQ,NA,SUPPRF54374
8,1.69694E+12,10/10/2023 11:35,1.69694E+12,1,10/10/2023 13:35,146524,3,task-gjqt,NA,32130783,9500967,NA,complete,NA,65254394162cd2b6b1bf695e,computer,Desktop or Laptop,Mac OS 10.15.7,Chrome 117.0.0.0,1440x900,1440x783,NA,NA,0,BIQ (Charlotte),3,IJHAGBFCED,Passed AC2,NA,Spreadsheet1,1,BIQ,Screen 2,o21mwi,2,response,2,8083.895,21101.313,21117.98,8083.895,21101.313,21117.98,1,8083.895,13034.085,0,NA,Rating Scale,Rating Scale,9,object-36,BIQ,NA,SUPPRF54374
9,1.69694E+12,10/10/2023 11:35,1.69694E+12,1,10/10/2023 13:35,146524,3,task-gjqt,NA,32130783,9500967,NA,complete,NA,65254394162cd2b6b1bf695e,computer,Desktop or Laptop,Mac OS 10.15.7,Chrome 117.0.0.0,1440x900,1440x783,NA,NA,0,BIQ (Charlotte),3,IJHAGBFCED,Passed AC2,NA,Spreadsheet1,1,BIQ,Screen 2,o21mwi,2,response,2,15417.375,21101.313,21117.98,15417.375,21101.313,21117.98,1,15417.375,5700.605,0,NA,Rating Scale,Rating Scale,16,object-86,BIQ,NA,SUPPRF54374
10,1.69694E+12,10/10/2023 11:35,1.69694E+12,1,10/10/2023 13:35,146524,3,task-gjqt,NA,32130783,9500967,NA,complete,NA,65254394162cd2b6b1bf695e,computer,Desktop or Laptop,Mac OS 10.15.7,Chrome 117.0.0.0,1440x900,1440x783,NA,NA,0,BIQ (Charlotte),3,IJHAGBFCED,Passed AC2,NA,Spreadsheet1,1,BIQ,Screen 3,iz3the,3,continue,,18114.951,18101.369,18114.951,18114.951,18101.369,18114.951,1,18114.951,0,0,NA,Click To Continue,Continue Button,22,object-73,BIQ,NA,SUPPRF54374
11,1.69694E+12,10/10/2023 11:35,1.69694E+12,1,10/10/2023 13:35,146524,3,task-gjqt,NA,32130783,9500967,NA,complete,NA,65254394162cd2b6b1bf695e,computer,Desktop or Laptop,Mac OS 10.15.7,Chrome 117.0.0.0,1440x900,1440x783,NA,NA,0,BIQ (Charlotte),3,IJHAGBFCED,Passed AC2,NA,Spreadsheet1,1,BIQ,Screen 3,iz3the,3,response,1,9250.705,18101.369,18118.036,9250.705,18101.369,18118.036,1,9250.705,8867.331,0,NA,Rating Scale,Rating Scale,2,object-53,BIQ,NA,SUPPRF54374
12,1.69694E+12,10/10/2023 11:35,1.69694E+12,1,10/10/2023 13:35,146524,3,task-gjqt,NA,32130783,9500967,NA,complete,NA,65254394162cd2b6b1bf695e,computer,Desktop or Laptop,Mac OS 10.15.7,Chrome 117.0.0.0,1440x900,1440x783,NA,NA,0,BIQ (Charlotte),3,IJHAGBFCED,Passed AC2,NA,Spreadsheet1,1,BIQ,Screen 3,iz3the,3,response,1,10700.734,18101.369,18118.036,10700.734,18101.369,18118.036,1,10700.734,7417.302,0,NA,Rating Scale,Rating Scale,9,object-60,BIQ,NA,SUPPRF54374
13,1.69694E+12,10/10/2023 11:35,1.69694E+12,1,10/10/2023 13:35,146524,3,task-gjqt,NA,32130783,9500967,NA,complete,NA,65254394162cd2b6b1bf695e,computer,Desktop or Laptop,Mac OS 10.15.7,Chrome 117.0.0.0,1440x900,1440x783,NA,NA,0,BIQ (Charlotte),3,IJHAGBFCED,Passed AC2,NA,Spreadsheet1,1,BIQ,Screen 3,iz3the,3,response,1,12517.437,18101.369,18118.036,12517.437,18101.369,18118.036,1,12517.437,5600.599,0,NA,Rating Scale,Rating Scale,16,object-67,BIQ,NA,SUPPRF54374
14,1.69694E+12,10/10/2023 11:35,1.69694E+12,1,10/10/2023 13:35,146524,3,task-gjqt,NA,32130783,9500967,NA,complete,NA,65254394162cd2b6b1bf695e,computer,Desktop or Laptop,Mac OS 10.15.7,Chrome 117.0.0.0,1440x900,1440x783,NA,NA,0,BIQ (Charlotte),3,IJHAGBFCED,Passed AC2,NA,Spreadsheet1,NA,,,,NA,5,END,NA,NA,NA,NA,NA,NA,0,NA,NA,NA,NA,,,NA,,,NA,SUPPRF54374
1,1.69697E+12,10/10/2023 19:41,1.69694E+12,-7,10/10/2023 05:41,146524,3,task-gjqt,NA,32131038,9500890,NA,complete,NA,6525413e21cee3583ea1944f,computer,Desktop or Laptop,Windows 10,Edge 117.0.2045.60,1366x768,1366x768,NA,NA,0,BIQ (Charlotte),3,HIGJFAEBDC,Passed AC2,NA,Spreadsheet1,NA,,,,NA,5,BEGIN,NA,NA,NA,NA,NA,NA,0,NA,NA,NA,NA,,,NA,,,NA,SUPPRF62013
2,1.69697E+12,10/10/2023 19:43,1.69694E+12,-7,10/10/2023 05:43,146524,3,task-gjqt,NA,32131038,9500890,NA,complete,NA,6525413e21cee3583ea1944f,computer,Desktop or Laptop,Windows 10,Edge 117.0.2045.60,1366x768,1366x768,NA,NA,0,BIQ (Charlotte),3,HIGJFAEBDC,Passed AC2,NA,Spreadsheet1,1,BIQ,Screen 1,9dh6eq,1,continue,,119060.417,119043.966,119060.417,119060.417,119043.966,119060.417,1,119060.417,0,0,NA,Click To Continue,Continue Button,23,object-48,BIQ,NA,SUPPRF62013
3,1.69697E+12,10/10/2023 19:43,1.69694E+12,-7,10/10/2023 05:43,146524,3,task-gjqt,NA,32131038,9500890,NA,complete,NA,6525413e21cee3583ea1944f,computer,Desktop or Laptop,Windows 10,Edge 117.0.2045.60,1366x768,1366x768,NA,NA,0,BIQ (Charlotte),3,HIGJFAEBDC,Passed AC2,NA,Spreadsheet1,1,BIQ,Screen 1,9dh6eq,1,response,5,94145.416,119043.966,119060.417,94145.416,119043.966,119060.417,1,94145.416,24915.001,0,NA,Rating Scale,Rating Scale,3,object-5,BIQ,NA,SUPPRF62013
4,1.69697E+12,10/10/2023 19:43,1.69694E+12,-7,10/10/2023 05:43,146524,3,task-gjqt,NA,32131038,9500890,NA,complete,NA,6525413e21cee3583ea1944f,computer,Desktop or Laptop,Windows 10,Edge 117.0.2045.60,1366x768,1366x768,NA,NA,0,BIQ (Charlotte),3,HIGJFAEBDC,Passed AC2,NA,Spreadsheet1,1,BIQ,Screen 1,9dh6eq,1,response,6,112494.258,119043.966,119060.417,112494.258,119043.966,119060.417,1,112494.258,6566.159,0,NA,Rating Scale,Rating Scale,10,object-18,BIQ,NA,SUPPRF62013
5,1.69697E+12,10/10/2023 19:43,1.69694E+12,-7,10/10/2023 05:43,146524,3,task-gjqt,NA,32131038,9500890,NA,complete,NA,6525413e21cee3583ea1944f,computer,Desktop or Laptop,Windows 10,Edge 117.0.2045.60,1366x768,1366x768,NA,NA,0,BIQ (Charlotte),3,HIGJFAEBDC,Passed AC2,NA,Spreadsheet1,1,BIQ,Screen 1,9dh6eq,1,response,0,117844.245,119043.966,119060.417,117844.245,119043.966,119060.417,1,117844.245,1216.172,0,NA,Rating Scale,Rating Scale,17,object-80,BIQ,NA,SUPPRF62013
6,1.69697E+12,10/10/2023 19:43,1.69694E+12,-7,10/10/2023 05:43,146524,3,task-gjqt,NA,32131038,9500890,NA,complete,NA,6525413e21cee3583ea1944f,computer,Desktop or Laptop,Windows 10,Edge 117.0.2045.60,1366x768,1366x768,NA,NA,0,BIQ (Charlotte),3,HIGJFAEBDC,Passed AC2,NA,Spreadsheet1,1,BIQ,Screen 2,o21mwi,2,continue,,24394.626,24382.336,24394.626,24394.626,24382.336,24394.626,1,24394.626,0,0,NA,Click To Continue,Continue Button,22,object-50,BIQ,NA,SUPPRF62013
7,1.69697E+12,10/10/2023 19:43,1.69694E+12,-7,10/10/2023 05:43,146524,3,task-gjqt,NA,32131038,9500890,NA,complete,NA,6525413e21cee3583ea1944f,computer,Desktop or Laptop,Windows 10,Edge 117.0.2045.60,1366x768,1366x768,NA,NA,0,BIQ (Charlotte),3,HIGJFAEBDC,Passed AC2,NA,Spreadsheet1,1,BIQ,Screen 2,o21mwi,2,response,4,3866.479,24382.336,24398.326,3866.479,24382.336,24398.326,1,3866.479,20531.847,0,NA,Rating Scale,Rating Scale,2,object-259,BIQ,NA,SUPPRF62013
8,1.69697E+12,10/10/2023 19:43,1.69694E+12,-7,10/10/2023 05:43,146524,3,task-gjqt,NA,32131038,9500890,NA,complete,NA,6525413e21cee3583ea1944f,computer,Desktop or Laptop,Windows 10,Edge 117.0.2045.60,1366x768,1366x768,NA,NA,0,BIQ (Charlotte),3,HIGJFAEBDC,Passed AC2,NA,Spreadsheet1,1,BIQ,Screen 2,o21mwi,2,response,2,13749.311,24382.336,24399,13749.311,24382.336,24399,1,13749.311,10649.689,0,NA,Rating Scale,Rating Scale,9,object-36,BIQ,NA,SUPPRF62013
9,1.69697E+12,10/10/2023 19:43,1.69694E+12,-7,10/10/2023 05:43,146524,3,task-gjqt,NA,32131038,9500890,NA,complete,NA,6525413e21cee3583ea1944f,computer,Desktop or Laptop,Windows 10,Edge 117.0.2045.60,1366x768,1366x768,NA,NA,0,BIQ (Charlotte),3,HIGJFAEBDC,Passed AC2,NA,Spreadsheet1,1,BIQ,Screen 2,o21mwi,2,response,2,21032.269,24382.336,24399,21032.269,24382.336,24399,1,21032.269,3366.731,0,NA,Rating Scale,Rating Scale,16,object-86,BIQ,NA,SUPPRF62013
10,1.69697E+12,10/10/2023 19:44,1.69694E+12,-7,10/10/2023 05:44,146524,3,task-gjqt,NA,32131038,9500890,NA,complete,NA,6525413e21cee3583ea1944f,computer,Desktop or Laptop,Windows 10,Edge 117.0.2045.60,1366x768,1366x768,NA,NA,0,BIQ (Charlotte),3,HIGJFAEBDC,Passed AC2,NA,Spreadsheet1,1,BIQ,Screen 3,iz3the,3,continue,,17115.458,17098.978,17115.458,17115.458,17098.978,17115.458,1,17115.458,0,0,NA,Click To Continue,Continue Button,22,object-73,BIQ,NA,SUPPRF62013
11,1.69697E+12,10/10/2023 19:44,1.69694E+12,-7,10/10/2023 05:44,146524,3,task-gjqt,NA,32131038,9500890,NA,complete,NA,6525413e21cee3583ea1944f,computer,Desktop or Laptop,Windows 10,Edge 117.0.2045.60,1366x768,1366x768,NA,NA,0,BIQ (Charlotte),3,HIGJFAEBDC,Passed AC2,NA,Spreadsheet1,1,BIQ,Screen 3,iz3the,3,response,0,10099.238,17098.978,17115.458,10099.238,17098.978,17115.458,1,10099.238,7016.22,0,NA,Rating Scale,Rating Scale,2,object-53,BIQ,NA,SUPPRF62013
12,1.69697E+12,10/10/2023 19:44,1.69694E+12,-7,10/10/2023 05:44,146524,3,task-gjqt,NA,32131038,9500890,NA,complete,NA,6525413e21cee3583ea1944f,computer,Desktop or Laptop,Windows 10,Edge 117.0.2045.60,1366x768,1366x768,NA,NA,0,BIQ (Charlotte),3,HIGJFAEBDC,Passed AC2,NA,Spreadsheet1,1,BIQ,Screen 3,iz3the,3,response,4,11865.94,17098.978,17115.458,11865.94,17098.978,17115.458,1,11865.94,5249.518,0,NA,Rating Scale,Rating Scale,9,object-60,BIQ,NA,SUPPRF62013
13,1.69697E+12,10/10/2023 19:44,1.69694E+12,-7,10/10/2023 05:44,146524,3,task-gjqt,NA,32131038,9500890,NA,complete,NA,6525413e21cee3583ea1944f,computer,Desktop or Laptop,Windows 10,Edge 117.0.2045.60,1366x768,1366x768,NA,NA,0,BIQ (Charlotte),3,HIGJFAEBDC,Passed AC2,NA,Spreadsheet1,1,BIQ,Screen 3,iz3the,3,response,1,15982.559,17098.978,17115.458,15982.559,17098.978,17115.458,1,15982.559,1132.899,0,NA,Rating Scale,Rating Scale,16,object-67,BIQ,NA,SUPPRF62013
14,1.69697E+12,10/10/2023 19:44,1.69694E+12,-7,10/10/2023 05:44,146524,3,task-gjqt,NA,32131038,9500890,NA,complete,NA,6525413e21cee3583ea1944f,computer,Desktop or Laptop,Windows 10,Edge 117.0.2045.60,1366x768,1366x768,NA,NA,0,BIQ (Charlotte),3,HIGJFAEBDC,Passed AC2,NA,Spreadsheet1,NA,,,,NA,5,END,NA,NA,NA,NA,NA,NA,0,NA,NA,NA,NA,,,NA,,,NA,SUPPRF62013
1,1.69694E+12,10/10/2023 12:04,1.69694E+12,1,10/10/2023 14:04,146524,3,task-gjqt,NA,32131832,9501291,NA,complete,NA,652548d7631d9ec0b489b032,computer,Desktop or Laptop,Windows 10,Firefox 118.0,2560x1440,2560x1279,NA,NA,0,BIQ (Charlotte),3,JAIBHCGDFE,Passed AC2,NA,Spreadsheet1,NA,,,,NA,5,BEGIN,NA,NA,NA,NA,NA,NA,0,NA,NA,NA,NA,,,NA,,,NA,SUPPRF96180
2,1.69694E+12,10/10/2023 12:05,1.69694E+12,1,10/10/2023 14:05,146524,3,task-gjqt,NA,32131832,9501291,NA,complete,NA,652548d7631d9ec0b489b032,computer,Desktop or Laptop,Windows 10,Firefox 118.0,2560x1440,2560x1279,NA,NA,0,BIQ (Charlotte),3,JAIBHCGDFE,Passed AC2,NA,Spreadsheet1,1,BIQ,Screen 1,9dh6eq,1,continue,,84263.84,84247.16,84263.84,84263.84,84247.16,84263.84,1,84263.84,0,0,NA,Click To Continue,Continue Button,23,object-48,BIQ,NA,SUPPRF96180
3,1.69694E+12,10/10/2023 12:05,1.69694E+12,1,10/10/2023 14:05,146524,3,task-gjqt,NA,32131832,9501291,NA,complete,NA,652548d7631d9ec0b489b032,computer,Desktop or Laptop,Windows 10,Firefox 118.0,2560x1440,2560x1279,NA,NA,0,BIQ (Charlotte),3,JAIBHCGDFE,Passed AC2,NA,Spreadsheet1,1,BIQ,Screen 1,9dh6eq,1,response,7,64666.14,84247.16,84263.84,64666.14,84247.16,84263.84,1,64666.14,19597.7,0,NA,Rating Scale,Rating Scale,3,object-5,BIQ,NA,SUPPRF96180
4,1.69694E+12,10/10/2023 12:05,1.69694E+12,1,10/10/2023 14:05,146524,3,task-gjqt,NA,32131832,9501291,NA,complete,NA,652548d7631d9ec0b489b032,computer,Desktop or Laptop,Windows 10,Firefox 118.0,2560x1440,2560x1279,NA,NA,0,BIQ (Charlotte),3,JAIBHCGDFE,Passed AC2,NA,Spreadsheet1,1,BIQ,Screen 1,9dh6eq,1,response,4,31355.56,84247.16,84263.84,31355.56,84247.16,84263.84,1,31355.56,52908.28,0,NA,Rating Scale,Rating Scale,10,object-18,BIQ,NA,SUPPRF96180
5,1.69694E+12,10/10/2023 12:05,1.69694E+12,1,10/10/2023 14:05,146524,3,task-gjqt,NA,32131832,9501291,NA,complete,NA,652548d7631d9ec0b489b032,computer,Desktop or Laptop,Windows 10,Firefox 118.0,2560x1440,2560x1279,NA,NA,0,BIQ (Charlotte),3,JAIBHCGDFE,Passed AC2,NA,Spreadsheet1,1,BIQ,Screen 1,9dh6eq,1,response,4,82779.42,84247.16,84263.84,82779.42,84247.16,84263.84,1,82779.42,1484.42,0,NA,Rating Scale,Rating Scale,17,object-80,BIQ,NA,SUPPRF96180
6,1.69694E+12,10/10/2023 12:05,1.69694E+12,1,10/10/2023 14:05,146524,3,task-gjqt,NA,32131832,9501291,NA,complete,NA,652548d7631d9ec0b489b032,computer,Desktop or Laptop,Windows 10,Firefox 118.0,2560x1440,2560x1279,NA,NA,0,BIQ (Charlotte),3,JAIBHCGDFE,Passed AC2,NA,Spreadsheet1,1,BIQ,Screen 2,o21mwi,2,continue,,19938.44,19932.94,19938.44,19938.44,19932.94,19938.44,1,19938.44,0,0,NA,Click To Continue,Continue Button,22,object-50,BIQ,NA,SUPPRF96180
7,1.69694E+12,10/10/2023 12:05,1.69694E+12,1,10/10/2023 14:05,146524,3,task-gjqt,NA,32131832,9501291,NA,complete,NA,652548d7631d9ec0b489b032,computer,Desktop or Laptop,Windows 10,Firefox 118.0,2560x1440,2560x1279,NA,NA,0,BIQ (Charlotte),3,JAIBHCGDFE,Passed AC2,NA,Spreadsheet1,1,BIQ,Screen 2,o21mwi,2,response,6,4770.18,19932.94,19941.44,4770.18,19932.94,19941.44,1,4770.18,15171.26,0,NA,Rating Scale,Rating Scale,2,object-259,BIQ,NA,SUPPRF96180
8,1.69694E+12,10/10/2023 12:05,1.69694E+12,1,10/10/2023 14:05,146524,3,task-gjqt,NA,32131832,9501291,NA,complete,NA,652548d7631d9ec0b489b032,computer,Desktop or Laptop,Windows 10,Firefox 118.0,2560x1440,2560x1279,NA,NA,0,BIQ (Charlotte),3,JAIBHCGDFE,Passed AC2,NA,Spreadsheet1,1,BIQ,Screen 2,o21mwi,2,response,0,9441.9,19932.94,19942.44,9441.9,19932.94,19942.44,1,9441.9,10500.54,0,NA,Rating Scale,Rating Scale,9,object-36,BIQ,NA,SUPPRF96180
9,1.69694E+12,10/10/2023 12:05,1.69694E+12,1,10/10/2023 14:05,146524,3,task-gjqt,NA,32131832,9501291,NA,complete,NA,652548d7631d9ec0b489b032,computer,Desktop or Laptop,Windows 10,Firefox 118.0,2560x1440,2560x1279,NA,NA,0,BIQ (Charlotte),3,JAIBHCGDFE,Passed AC2,NA,Spreadsheet1,1,BIQ,Screen 2,o21mwi,2,response,4,19365.86,19932.94,19942.44,19365.86,19932.94,19942.44,1,19365.86,576.58,0,NA,Rating Scale,Rating Scale,16,object-86,BIQ,NA,SUPPRF96180
10,1.69694E+12,10/10/2023 12:06,1.69694E+12,1,10/10/2023 14:06,146524,3,task-gjqt,NA,32131832,9501291,NA,complete,NA,652548d7631d9ec0b489b032,computer,Desktop or Laptop,Windows 10,Firefox 118.0,2560x1440,2560x1279,NA,NA,0,BIQ (Charlotte),3,JAIBHCGDFE,Passed AC2,NA,Spreadsheet1,1,BIQ,Screen 3,iz3the,3,continue,,67536.5,67520,67536.5,67536.5,67520,67536.5,1,67536.5,0,0,NA,Click To Continue,Continue Button,22,object-73,BIQ,NA,SUPPRF96180
11,1.69694E+12,10/10/2023 12:06,1.69694E+12,1,10/10/2023 14:06,146524,3,task-gjqt,NA,32131832,9501291,NA,complete,NA,652548d7631d9ec0b489b032,computer,Desktop or Laptop,Windows 10,Firefox 118.0,2560x1440,2560x1279,NA,NA,0,BIQ (Charlotte),3,JAIBHCGDFE,Passed AC2,NA,Spreadsheet1,1,BIQ,Screen 3,iz3the,3,response,0,66969.6,67520,67536.68,66969.6,67520,67536.68,1,66969.6,567.08,0,NA,Rating Scale,Rating Scale,2,object-53,BIQ,NA,SUPPRF96180
12,1.69694E+12,10/10/2023 12:06,1.69694E+12,1,10/10/2023 14:06,146524,3,task-gjqt,NA,32131832,9501291,NA,complete,NA,652548d7631d9ec0b489b032,computer,Desktop or Laptop,Windows 10,Firefox 118.0,2560x1440,2560x1279,NA,NA,0,BIQ (Charlotte),3,JAIBHCGDFE,Passed AC2,NA,Spreadsheet1,1,BIQ,Screen 3,iz3the,3,response,0,64868.06,67520,67536.68,64868.06,67520,67536.68,1,64868.06,2668.62,0,NA,Rating Scale,Rating Scale,9,object-60,BIQ,NA,SUPPRF96180
13,1.69694E+12,10/10/2023 12:06,1.69694E+12,1,10/10/2023 14:06,146524,3,task-gjqt,NA,32131832,9501291,NA,complete,NA,652548d7631d9ec0b489b032,computer,Desktop or Laptop,Windows 10,Firefox 118.0,2560x1440,2560x1279,NA,NA,0,BIQ (Charlotte),3,JAIBHCGDFE,Passed AC2,NA,Spreadsheet1,1,BIQ,Screen 3,iz3the,3,response,2,55377.76,67520,67536.68,55377.76,67520,67536.68,1,55377.76,12158.92,0,NA,Rating Scale,Rating Scale,16,object-67,BIQ,NA,SUPPRF96180
14,1.69694E+12,10/10/2023 12:06,1.69694E+12,1,10/10/2023 14:06,146524,3,task-gjqt,NA,32131832,9501291,NA,complete,NA,652548d7631d9ec0b489b032,computer,Desktop or Laptop,Windows 10,Firefox 118.0,2560x1440,2560x1279,NA,NA,0,BIQ (Charlotte),3,JAIBHCGDFE,Passed AC2,NA,Spreadsheet1,NA,,,,NA,5,END,NA,NA,NA,NA,NA,NA,0,NA,NA,NA,NA,,,NA,,,NA,SUPPRF96180
1,1.69694E+12,10/10/2023 12:17,1.69694E+12,1,10/10/2023 14:17,146524,3,task-gjqt,NA,32132345,9501483,NA,complete,NA,65254d7dd9cdb856b589b0b6,computer,Desktop or Laptop,Windows 10,Edge 117.0.2045.60,1920x1080,1872x966,NA,NA,0,BIQ (Charlotte),3,ABJCIDHEGF,Passed AC2,NA,Spreadsheet1,NA,,,,NA,5,BEGIN,NA,NA,NA,NA,NA,NA,0,NA,NA,NA,NA,,,NA,,,NA,SUPPRF30203
2,1.69694E+12,10/10/2023 12:17,1.69694E+12,1,10/10/2023 14:17,146524,3,task-gjqt,NA,32132345,9501483,NA,complete,NA,65254d7dd9cdb856b589b0b6,computer,Desktop or Laptop,Windows 10,Edge 117.0.2045.60,1920x1080,1872x966,NA,NA,0,BIQ (Charlotte),3,ABJCIDHEGF,Passed AC2,NA,Spreadsheet1,1,BIQ,Screen 1,9dh6eq,1,continue,,7116.143,7107.392,7116.143,7116.143,7107.392,7116.143,1,7116.143,0,0,NA,Click To Continue,Continue Button,23,object-48,BIQ,NA,SUPPRF30203
3,1.69694E+12,10/10/2023 12:17,1.69694E+12,1,10/10/2023 14:17,146524,3,task-gjqt,NA,32132345,9501483,NA,complete,NA,65254d7dd9cdb856b589b0b6,computer,Desktop or Laptop,Windows 10,Edge 117.0.2045.60,1920x1080,1872x966,NA,NA,0,BIQ (Charlotte),3,ABJCIDHEGF,Passed AC2,NA,Spreadsheet1,1,BIQ,Screen 1,9dh6eq,1,response,3,2469.403,7107.392,7118.643,2469.403,7107.392,7118.643,1,2469.403,4649.24,0,NA,Rating Scale,Rating Scale,3,object-5,BIQ,NA,SUPPRF30203
4,1.69694E+12,10/10/2023 12:17,1.69694E+12,1,10/10/2023 14:17,146524,3,task-gjqt,NA,32132345,9501483,NA,complete,NA,65254d7dd9cdb856b589b0b6,computer,Desktop or Laptop,Windows 10,Edge 117.0.2045.60,1920x1080,1872x966,NA,NA,0,BIQ (Charlotte),3,ABJCIDHEGF,Passed AC2,NA,Spreadsheet1,1,BIQ,Screen 1,9dh6eq,1,response,2,4638.223,7107.392,7118.843,4638.223,7107.392,7118.843,1,4638.223,2480.62,0,NA,Rating Scale,Rating Scale,10,object-18,BIQ,NA,SUPPRF30203
5,1.69694E+12,10/10/2023 12:17,1.69694E+12,1,10/10/2023 14:17,146524,3,task-gjqt,NA,32132345,9501483,NA,complete,NA,65254d7dd9cdb856b589b0b6,computer,Desktop or Laptop,Windows 10,Edge 117.0.2045.60,1920x1080,1872x966,NA,NA,0,BIQ (Charlotte),3,ABJCIDHEGF,Passed AC2,NA,Spreadsheet1,1,BIQ,Screen 1,9dh6eq,1,response,3,6256.49,7107.392,7119.043,6256.49,7107.392,7119.043,1,6256.49,862.553,0,NA,Rating Scale,Rating Scale,17,object-80,BIQ,NA,SUPPRF30203
6,1.69694E+12,10/10/2023 12:18,1.69694E+12,1,10/10/2023 14:18,146524,3,task-gjqt,NA,32132345,9501483,NA,complete,NA,65254d7dd9cdb856b589b0b6,computer,Desktop or Laptop,Windows 10,Edge 117.0.2045.60,1920x1080,1872x966,NA,NA,0,BIQ (Charlotte),3,ABJCIDHEGF,Passed AC2,NA,Spreadsheet1,1,BIQ,Screen 2,o21mwi,2,continue,,3763.851,3753.711,3763.851,3763.851,3753.711,3763.851,1,3763.851,0,0,NA,Click To Continue,Continue Button,22,object-50,BIQ,NA,SUPPRF30203
7,1.69694E+12,10/10/2023 12:18,1.69694E+12,1,10/10/2023 14:18,146524,3,task-gjqt,NA,32132345,9501483,NA,complete,NA,65254d7dd9cdb856b589b0b6,computer,Desktop or Laptop,Windows 10,Edge 117.0.2045.60,1920x1080,1872x966,NA,NA,0,BIQ (Charlotte),3,ABJCIDHEGF,Passed AC2,NA,Spreadsheet1,1,BIQ,Screen 2,o21mwi,2,response,3,1117.765,3753.711,3765.751,1117.765,3753.711,3765.751,1,1117.765,2647.986,0,NA,Rating Scale,Rating Scale,2,object-259,BIQ,NA,SUPPRF30203
8,1.69694E+12,10/10/2023 12:18,1.69694E+12,1,10/10/2023 14:18,146524,3,task-gjqt,NA,32132345,9501483,NA,complete,NA,65254d7dd9cdb856b589b0b6,computer,Desktop or Laptop,Windows 10,Edge 117.0.2045.60,1920x1080,1872x966,NA,NA,0,BIQ (Charlotte),3,ABJCIDHEGF,Passed AC2,NA,Spreadsheet1,1,BIQ,Screen 2,o21mwi,2,response,4,2035.101,3753.711,3766.151,2035.101,3753.711,3766.151,1,2035.101,1731.05,0,NA,Rating Scale,Rating Scale,9,object-36,BIQ,NA,SUPPRF30203
9,1.69694E+12,10/10/2023 12:18,1.69694E+12,1,10/10/2023 14:18,146524,3,task-gjqt,NA,32132345,9501483,NA,complete,NA,65254d7dd9cdb856b589b0b6,computer,Desktop or Laptop,Windows 10,Edge 117.0.2045.60,1920x1080,1872x966,NA,NA,0,BIQ (Charlotte),3,ABJCIDHEGF,Passed AC2,NA,Spreadsheet1,1,BIQ,Screen 2,o21mwi,2,response,4,2652.61,3753.711,3766.451,2652.61,3753.711,3766.451,1,2652.61,1113.841,0,NA,Rating Scale,Rating Scale,16,object-86,BIQ,NA,SUPPRF30203
10,1.69694E+12,10/10/2023 12:18,1.69694E+12,1,10/10/2023 14:18,146524,3,task-gjqt,NA,32132345,9501483,NA,complete,NA,65254d7dd9cdb856b589b0b6,computer,Desktop or Laptop,Windows 10,Edge 117.0.2045.60,1920x1080,1872x966,NA,NA,0,BIQ (Charlotte),3,ABJCIDHEGF,Passed AC2,NA,Spreadsheet1,1,BIQ,Screen 3,iz3the,3,continue,,24891.14,24874.836,24891.14,24891.14,24874.836,24891.14,1,24891.14,0,0,NA,Click To Continue,Continue Button,22,object-73,BIQ,NA,SUPPRF30203
11,1.69694E+12,10/10/2023 12:18,1.69694E+12,1,10/10/2023 14:18,146524,3,task-gjqt,NA,32132345,9501483,NA,complete,NA,65254d7dd9cdb856b589b0b6,computer,Desktop or Laptop,Windows 10,Edge 117.0.2045.60,1920x1080,1872x966,NA,NA,0,BIQ (Charlotte),3,ABJCIDHEGF,Passed AC2,NA,Spreadsheet1,1,BIQ,Screen 3,iz3the,3,response,5,22739.111,24874.836,24891.433,22739.111,24874.836,24891.433,1,22739.111,2152.322,0,NA,Rating Scale,Rating Scale,2,object-53,BIQ,NA,SUPPRF30203
12,1.69694E+12,10/10/2023 12:18,1.69694E+12,1,10/10/2023 14:18,146524,3,task-gjqt,NA,32132345,9501483,NA,complete,NA,65254d7dd9cdb856b589b0b6,computer,Desktop or Laptop,Windows 10,Edge 117.0.2045.60,1920x1080,1872x966,NA,NA,0,BIQ (Charlotte),3,ABJCIDHEGF,Passed AC2,NA,Spreadsheet1,1,BIQ,Screen 3,iz3the,3,response,4,23156.531,24874.836,24891.433,23156.531,24874.836,24891.433,1,23156.531,1734.902,0,NA,Rating Scale,Rating Scale,9,object-60,BIQ,NA,SUPPRF30203
13,1.69694E+12,10/10/2023 12:18,1.69694E+12,1,10/10/2023 14:18,146524,3,task-gjqt,NA,32132345,9501483,NA,complete,NA,65254d7dd9cdb856b589b0b6,computer,Desktop or Laptop,Windows 10,Edge 117.0.2045.60,1920x1080,1872x966,NA,NA,0,BIQ (Charlotte),3,ABJCIDHEGF,Passed AC2,NA,Spreadsheet1,1,BIQ,Screen 3,iz3the,3,response,4,24274.227,24874.836,24891.433,24274.227,24874.836,24891.433,1,24274.227,617.206,0,NA,Rating Scale,Rating Scale,16,object-67,BIQ,NA,SUPPRF30203
14,1.69694E+12,10/10/2023 12:18,1.69694E+12,1,10/10/2023 14:18,146524,3,task-gjqt,NA,32132345,9501483,NA,complete,NA,65254d7dd9cdb856b589b0b6,computer,Desktop or Laptop,Windows 10,Edge 117.0.2045.60,1920x1080,1872x966,NA,NA,0,BIQ (Charlotte),3,ABJCIDHEGF,Passed AC2,NA,Spreadsheet1,NA,,,,NA,5,END,NA,NA,NA,NA,NA,NA,0,NA,NA,NA,NA,,,NA,,,NA,SUPPRF30203
1,1.69696E+12,10/10/2023 18:22,1.69695E+12,-4,10/10/2023 10:22,146524,3,task-gjqt,NA,32135806,9502306,NA,complete,NA,65255c3b73b95dcd70f191c7,computer,Desktop or Laptop,Mac OS 10.15.7,Chrome 117.0.0.0,1440x900,1440x733,NA,NA,0,BIQ (Charlotte),3,BCADJEIFHG,Passed AC2,NA,Spreadsheet1,NA,,,,NA,5,BEGIN,NA,NA,NA,NA,NA,NA,0,NA,NA,NA,NA,,,NA,,,NA,SUPPRF16716
2,1.69696E+12,10/10/2023 18:23,1.69695E+12,-4,10/10/2023 10:23,146524,3,task-gjqt,NA,32135806,9502306,NA,complete,NA,65255c3b73b95dcd70f191c7,computer,Desktop or Laptop,Mac OS 10.15.7,Chrome 117.0.0.0,1440x900,1440x733,NA,NA,0,BIQ (Charlotte),3,BCADJEIFHG,Passed AC2,NA,Spreadsheet1,1,BIQ,Screen 1,9dh6eq,1,continue,,60425.096,60409.793,60425.096,60425.096,60409.793,60425.096,1,60425.096,0,0,NA,Click To Continue,Continue Button,23,object-48,BIQ,NA,SUPPRF16716
3,1.69696E+12,10/10/2023 18:23,1.69695E+12,-4,10/10/2023 10:23,146524,3,task-gjqt,NA,32135806,9502306,NA,complete,NA,65255c3b73b95dcd70f191c7,computer,Desktop or Laptop,Mac OS 10.15.7,Chrome 117.0.0.0,1440x900,1440x733,NA,NA,0,BIQ (Charlotte),3,BCADJEIFHG,Passed AC2,NA,Spreadsheet1,1,BIQ,Screen 1,9dh6eq,1,response,2,47224.391,60409.793,60426.462,47224.391,60409.793,60426.462,1,47224.391,13202.071,0,NA,Rating Scale,Rating Scale,3,object-5,BIQ,NA,SUPPRF16716
4,1.69696E+12,10/10/2023 18:23,1.69695E+12,-4,10/10/2023 10:23,146524,3,task-gjqt,NA,32135806,9502306,NA,complete,NA,65255c3b73b95dcd70f191c7,computer,Desktop or Laptop,Mac OS 10.15.7,Chrome 117.0.0.0,1440x900,1440x733,NA,NA,0,BIQ (Charlotte),3,BCADJEIFHG,Passed AC2,NA,Spreadsheet1,1,BIQ,Screen 1,9dh6eq,1,response,2,53175.224,60409.793,60426.462,53175.224,60409.793,60426.462,1,53175.224,7251.238,0,NA,Rating Scale,Rating Scale,10,object-18,BIQ,NA,SUPPRF16716
5,1.69696E+12,10/10/2023 18:23,1.69695E+12,-4,10/10/2023 10:23,146524,3,task-gjqt,NA,32135806,9502306,NA,complete,NA,65255c3b73b95dcd70f191c7,computer,Desktop or Laptop,Mac OS 10.15.7,Chrome 117.0.0.0,1440x900,1440x733,NA,NA,0,BIQ (Charlotte),3,BCADJEIFHG,Passed AC2,NA,Spreadsheet1,1,BIQ,Screen 1,9dh6eq,1,response,7,58742.893,60409.793,60426.462,58742.893,60409.793,60426.462,1,58742.893,1683.569,0,NA,Rating Scale,Rating Scale,17,object-80,BIQ,NA,SUPPRF16716
6,1.69696E+12,10/10/2023 18:23,1.69695E+12,-4,10/10/2023 10:23,146524,3,task-gjqt,NA,32135806,9502306,NA,complete,NA,65255c3b73b95dcd70f191c7,computer,Desktop or Laptop,Mac OS 10.15.7,Chrome 117.0.0.0,1440x900,1440x733,NA,NA,0,BIQ (Charlotte),3,BCADJEIFHG,Passed AC2,NA,Spreadsheet1,1,BIQ,Screen 2,o21mwi,2,continue,,19046.603,19036.443,19046.603,19046.603,19036.443,19046.603,1,19046.603,0,0,NA,Click To Continue,Continue Button,22,object-50,BIQ,NA,SUPPRF16716
7,1.69696E+12,10/10/2023 18:23,1.69695E+12,-4,10/10/2023 10:23,146524,3,task-gjqt,NA,32135806,9502306,NA,complete,NA,65255c3b73b95dcd70f191c7,computer,Desktop or Laptop,Mac OS 10.15.7,Chrome 117.0.0.0,1440x900,1440x733,NA,NA,0,BIQ (Charlotte),3,BCADJEIFHG,Passed AC2,NA,Spreadsheet1,1,BIQ,Screen 2,o21mwi,2,response,4,6967.864,19036.443,19048.803,6967.864,19036.443,19048.803,1,6967.864,12080.939,0,NA,Rating Scale,Rating Scale,2,object-259,BIQ,NA,SUPPRF16716
8,1.69696E+12,10/10/2023 18:23,1.69695E+12,-4,10/10/2023 10:23,146524,3,task-gjqt,NA,32135806,9502306,NA,complete,NA,65255c3b73b95dcd70f191c7,computer,Desktop or Laptop,Mac OS 10.15.7,Chrome 117.0.0.0,1440x900,1440x733,NA,NA,0,BIQ (Charlotte),3,BCADJEIFHG,Passed AC2,NA,Spreadsheet1,1,BIQ,Screen 2,o21mwi,2,response,8,11568.508,19036.443,19049.303,11568.508,19036.443,19049.303,1,11568.508,7480.795,0,NA,Rating Scale,Rating Scale,9,object-36,BIQ,NA,SUPPRF16716
9,1.69696E+12,10/10/2023 18:23,1.69695E+12,-4,10/10/2023 10:23,146524,3,task-gjqt,NA,32135806,9502306,NA,complete,NA,65255c3b73b95dcd70f191c7,computer,Desktop or Laptop,Mac OS 10.15.7,Chrome 117.0.0.0,1440x900,1440x733,NA,NA,0,BIQ (Charlotte),3,BCADJEIFHG,Passed AC2,NA,Spreadsheet1,1,BIQ,Screen 2,o21mwi,2,response,7,18286.338,19036.443,19049.903,18286.338,19036.443,19049.903,1,18286.338,763.5649999,0,NA,Rating Scale,Rating Scale,16,object-86,BIQ,NA,SUPPRF16716
10,1.69696E+12,10/10/2023 18:23,1.69695E+12,-4,10/10/2023 10:23,146524,3,task-gjqt,NA,32135806,9502306,NA,complete,NA,65255c3b73b95dcd70f191c7,computer,Desktop or Laptop,Mac OS 10.15.7,Chrome 117.0.0.0,1440x900,1440x733,NA,NA,0,BIQ (Charlotte),3,BCADJEIFHG,Passed AC2,NA,Spreadsheet1,1,BIQ,Screen 3,iz3the,3,continue,,13346.96,13335.423,13346.96,13346.96,13335.423,13346.96,1,13346.96,0,0,NA,Click To Continue,Continue Button,22,object-73,BIQ,NA,SUPPRF16716
11,1.69696E+12,10/10/2023 18:23,1.69695E+12,-4,10/10/2023 10:23,146524,3,task-gjqt,NA,32135806,9502306,NA,complete,NA,65255c3b73b95dcd70f191c7,computer,Desktop or Laptop,Mac OS 10.15.7,Chrome 117.0.0.0,1440x900,1440x733,NA,NA,0,BIQ (Charlotte),3,BCADJEIFHG,Passed AC2,NA,Spreadsheet1,1,BIQ,Screen 3,iz3the,3,response,4,7634.625,13335.423,13349.76,7634.625,13335.423,13349.76,1,7634.625,5715.135,0,NA,Rating Scale,Rating Scale,2,object-53,BIQ,NA,SUPPRF16716
12,1.69696E+12,10/10/2023 18:23,1.69695E+12,-4,10/10/2023 10:23,146524,3,task-gjqt,NA,32135806,9502306,NA,complete,NA,65255c3b73b95dcd70f191c7,computer,Desktop or Laptop,Mac OS 10.15.7,Chrome 117.0.0.0,1440x900,1440x733,NA,NA,0,BIQ (Charlotte),3,BCADJEIFHG,Passed AC2,NA,Spreadsheet1,1,BIQ,Screen 3,iz3the,3,response,7,9968.285,13335.423,13350.26,9968.285,13335.423,13350.26,1,9968.285,3381.975,0,NA,Rating Scale,Rating Scale,9,object-60,BIQ,NA,SUPPRF16716
13,1.69696E+12,10/10/2023 18:23,1.69695E+12,-4,10/10/2023 10:23,146524,3,task-gjqt,NA,32135806,9502306,NA,complete,NA,65255c3b73b95dcd70f191c7,computer,Desktop or Laptop,Mac OS 10.15.7,Chrome 117.0.0.0,1440x900,1440x733,NA,NA,0,BIQ (Charlotte),3,BCADJEIFHG,Passed AC2,NA,Spreadsheet1,1,BIQ,Screen 3,iz3the,3,response,7,12585.318,13335.423,13350.66,12585.318,13335.423,13350.66,1,12585.318,765.342,0,NA,Rating Scale,Rating Scale,16,object-67,BIQ,NA,SUPPRF16716
14,1.69696E+12,10/10/2023 18:23,1.69695E+12,-4,10/10/2023 10:23,146524,3,task-gjqt,NA,32135806,9502306,NA,complete,NA,65255c3b73b95dcd70f191c7,computer,Desktop or Laptop,Mac OS 10.15.7,Chrome 117.0.0.0,1440x900,1440x733,NA,NA,0,BIQ (Charlotte),3,BCADJEIFHG,Passed AC2,NA,Spreadsheet1,NA,,,,NA,5,END,NA,NA,NA,NA,NA,NA,0,NA,NA,NA,NA,,,NA,,,NA,SUPPRF16716
1,1.69698E+12,10/10/2023 22:34,1.69695E+12,-7,10/10/2023 08:34,146524,3,task-gjqt,NA,32139829,9504121,NA,complete,NA,65256d3f9efa642c778e45a5,computer,Desktop or Laptop,Windows 10,Chrome 117.0.0.0,1920x1080,1920x931,NA,NA,0,BIQ (Charlotte),3,CDBEAFJGIH,Passed AC2,NA,Spreadsheet1,NA,,,,NA,5,BEGIN,NA,NA,NA,NA,NA,NA,0,NA,NA,NA,NA,,,NA,,,NA,SUPPRF51230
2,1.69698E+12,10/10/2023 22:35,1.69695E+12,-7,10/10/2023 08:35,146524,3,task-gjqt,NA,32139829,9504121,NA,complete,NA,65256d3f9efa642c778e45a5,computer,Desktop or Laptop,Windows 10,Chrome 117.0.0.0,1920x1080,1920x931,NA,NA,0,BIQ (Charlotte),3,CDBEAFJGIH,Passed AC2,NA,Spreadsheet1,1,BIQ,Screen 1,9dh6eq,1,continue,,41773.495,41766.666,41773.495,41773.495,41766.666,41773.495,1,41773.495,0,0,NA,Click To Continue,Continue Button,23,object-48,BIQ,NA,SUPPRF51230
3,1.69698E+12,10/10/2023 22:35,1.69695E+12,-7,10/10/2023 08:35,146524,3,task-gjqt,NA,32139829,9504121,NA,complete,NA,65256d3f9efa642c778e45a5,computer,Desktop or Laptop,Windows 10,Chrome 117.0.0.0,1920x1080,1920x931,NA,NA,0,BIQ (Charlotte),3,CDBEAFJGIH,Passed AC2,NA,Spreadsheet1,1,BIQ,Screen 1,9dh6eq,1,response,6,25783.354,41766.666,41776.995,25783.354,41766.666,41776.995,1,25783.354,15993.641,0,NA,Rating Scale,Rating Scale,3,object-5,BIQ,NA,SUPPRF51230
4,1.69698E+12,10/10/2023 22:35,1.69695E+12,-7,10/10/2023 08:35,146524,3,task-gjqt,NA,32139829,9504121,NA,complete,NA,65256d3f9efa642c778e45a5,computer,Desktop or Laptop,Windows 10,Chrome 117.0.0.0,1920x1080,1920x931,NA,NA,0,BIQ (Charlotte),3,CDBEAFJGIH,Passed AC2,NA,Spreadsheet1,1,BIQ,Screen 1,9dh6eq,1,response,6,35249.984,41766.666,41777.195,35249.984,41766.666,41777.195,1,35249.984,6527.211,0,NA,Rating Scale,Rating Scale,10,object-18,BIQ,NA,SUPPRF51230
5,1.69698E+12,10/10/2023 22:35,1.69695E+12,-7,10/10/2023 08:35,146524,3,task-gjqt,NA,32139829,9504121,NA,complete,NA,65256d3f9efa642c778e45a5,computer,Desktop or Laptop,Windows 10,Chrome 117.0.0.0,1920x1080,1920x931,NA,NA,0,BIQ (Charlotte),3,CDBEAFJGIH,Passed AC2,NA,Spreadsheet1,1,BIQ,Screen 1,9dh6eq,1,response,1,41166.656,41766.666,41777.295,41166.656,41766.666,41777.295,1,41166.656,610.639,0,NA,Rating Scale,Rating Scale,17,object-80,BIQ,NA,SUPPRF51230
6,1.69698E+12,10/10/2023 22:36,1.69695E+12,-7,10/10/2023 08:36,146524,3,task-gjqt,NA,32139829,9504121,NA,complete,NA,65256d3f9efa642c778e45a5,computer,Desktop or Laptop,Windows 10,Chrome 117.0.0.0,1920x1080,1920x931,NA,NA,0,BIQ (Charlotte),3,CDBEAFJGIH,Passed AC2,NA,Spreadsheet1,1,BIQ,Screen 2,o21mwi,2,continue,,23068.329,23066.627,23068.329,23068.329,23066.627,23068.329,1,23068.329,0,0,NA,Click To Continue,Continue Button,22,object-50,BIQ,NA,SUPPRF51230
7,1.69698E+12,10/10/2023 22:36,1.69695E+12,-7,10/10/2023 08:36,146524,3,task-gjqt,NA,32139829,9504121,NA,complete,NA,65256d3f9efa642c778e45a5,computer,Desktop or Laptop,Windows 10,Chrome 117.0.0.0,1920x1080,1920x931,NA,NA,0,BIQ (Charlotte),3,CDBEAFJGIH,Passed AC2,NA,Spreadsheet1,1,BIQ,Screen 2,o21mwi,2,response,7,6849.994,23066.627,23069.629,6849.994,23066.627,23069.629,1,6849.994,16219.635,0,NA,Rating Scale,Rating Scale,2,object-259,BIQ,NA,SUPPRF51230
8,1.69698E+12,10/10/2023 22:36,1.69695E+12,-7,10/10/2023 08:36,146524,3,task-gjqt,NA,32139829,9504121,NA,complete,NA,65256d3f9efa642c778e45a5,computer,Desktop or Laptop,Windows 10,Chrome 117.0.0.0,1920x1080,1920x931,NA,NA,0,BIQ (Charlotte),3,CDBEAFJGIH,Passed AC2,NA,Spreadsheet1,1,BIQ,Screen 2,o21mwi,2,response,2,11466.639,23066.627,23069.829,11466.639,23066.627,23069.829,1,11466.639,11603.19,0,NA,Rating Scale,Rating Scale,9,object-36,BIQ,NA,SUPPRF51230
9,1.69698E+12,10/10/2023 22:36,1.69695E+12,-7,10/10/2023 08:36,146524,3,task-gjqt,NA,32139829,9504121,NA,complete,NA,65256d3f9efa642c778e45a5,computer,Desktop or Laptop,Windows 10,Chrome 117.0.0.0,1920x1080,1920x931,NA,NA,0,BIQ (Charlotte),3,CDBEAFJGIH,Passed AC2,NA,Spreadsheet1,1,BIQ,Screen 2,o21mwi,2,response,1,20800.04,23066.627,23070.129,20800.04,23066.627,23070.129,1,20800.04,2270.089,0,NA,Rating Scale,Rating Scale,16,object-86,BIQ,NA,SUPPRF51230
10,1.69698E+12,10/10/2023 22:36,1.69695E+12,-7,10/10/2023 08:36,146524,3,task-gjqt,NA,32139829,9504121,NA,complete,NA,65256d3f9efa642c778e45a5,computer,Desktop or Laptop,Windows 10,Chrome 117.0.0.0,1920x1080,1920x931,NA,NA,0,BIQ (Charlotte),3,CDBEAFJGIH,Passed AC2,NA,Spreadsheet1,1,BIQ,Screen 3,iz3the,3,continue,,15930.102,15916.643,15930.102,15930.102,15916.643,15930.102,1,15930.102,0,0,NA,Click To Continue,Continue Button,22,object-73,BIQ,NA,SUPPRF51230
11,1.69698E+12,10/10/2023 22:36,1.69695E+12,-7,10/10/2023 08:36,146524,3,task-gjqt,NA,32139829,9504121,NA,complete,NA,65256d3f9efa642c778e45a5,computer,Desktop or Laptop,Windows 10,Chrome 117.0.0.0,1920x1080,1920x931,NA,NA,0,BIQ (Charlotte),3,CDBEAFJGIH,Passed AC2,NA,Spreadsheet1,1,BIQ,Screen 3,iz3the,3,response,0,5766.678,15916.643,15931.502,5766.678,15916.643,15931.502,1,5766.678,10164.824,0,NA,Rating Scale,Rating Scale,2,object-53,BIQ,NA,SUPPRF51230
12,1.69698E+12,10/10/2023 22:36,1.69695E+12,-7,10/10/2023 08:36,146524,3,task-gjqt,NA,32139829,9504121,NA,complete,NA,65256d3f9efa642c778e45a5,computer,Desktop or Laptop,Windows 10,Chrome 117.0.0.0,1920x1080,1920x931,NA,NA,0,BIQ (Charlotte),3,CDBEAFJGIH,Passed AC2,NA,Spreadsheet1,1,BIQ,Screen 3,iz3the,3,response,0,9733.242,15916.643,15931.702,9733.242,15916.643,15931.702,1,9733.242,6198.46,0,NA,Rating Scale,Rating Scale,9,object-60,BIQ,NA,SUPPRF51230
13,1.69698E+12,10/10/2023 22:36,1.69695E+12,-7,10/10/2023 08:36,146524,3,task-gjqt,NA,32139829,9504121,NA,complete,NA,65256d3f9efa642c778e45a5,computer,Desktop or Laptop,Windows 10,Chrome 117.0.0.0,1920x1080,1920x931,NA,NA,0,BIQ (Charlotte),3,CDBEAFJGIH,Passed AC2,NA,Spreadsheet1,1,BIQ,Screen 3,iz3the,3,response,3,15383.262,15916.643,15931.902,15383.262,15916.643,15931.902,1,15383.262,548.64,0,NA,Rating Scale,Rating Scale,16,object-67,BIQ,NA,SUPPRF51230
14,1.69698E+12,10/10/2023 22:36,1.69695E+12,-7,10/10/2023 08:36,146524,3,task-gjqt,NA,32139829,9504121,NA,complete,NA,65256d3f9efa642c778e45a5,computer,Desktop or Laptop,Windows 10,Chrome 117.0.0.0,1920x1080,1920x931,NA,NA,0,BIQ (Charlotte),3,CDBEAFJGIH,Passed AC2,NA,Spreadsheet1,NA,,,,NA,5,END,NA,NA,NA,NA,NA,NA,0,NA,NA,NA,NA,,,NA,,,NA,SUPPRF51230
1,1.69697E+12,10/10/2023 20:41,1.69695E+12,-5,10/10/2023 10:41,146524,3,task-gjqt,NA,32140067,9504175,NA,complete,NA,65256e38e4a1b045d3bb578f,computer,Desktop or Laptop,Windows 10,Chrome 117.0.0.0,1536x864,1536x739,NA,NA,0,BIQ (Charlotte),3,DECFBGAHJI,Passed AC2,NA,Spreadsheet1,NA,,,,NA,5,BEGIN,NA,NA,NA,NA,NA,NA,0,NA,NA,NA,NA,,,NA,,,NA,SUPPRF43536
2,1.69697E+12,10/10/2023 20:42,1.69695E+12,-5,10/10/2023 10:42,146524,3,task-gjqt,NA,32140067,9504175,NA,complete,NA,65256e38e4a1b045d3bb578f,computer,Desktop or Laptop,Windows 10,Chrome 117.0.0.0,1536x864,1536x739,NA,NA,0,BIQ (Charlotte),3,DECFBGAHJI,Passed AC2,NA,Spreadsheet1,1,BIQ,Screen 1,9dh6eq,1,continue,,67570.585,67566.476,67570.585,67570.585,67566.476,67570.585,1,67570.585,0,0,NA,Click To Continue,Continue Button,23,object-48,BIQ,NA,SUPPRF43536
3,1.69697E+12,10/10/2023 20:42,1.69695E+12,-5,10/10/2023 10:42,146524,3,task-gjqt,NA,32140067,9504175,NA,complete,NA,65256e38e4a1b045d3bb578f,computer,Desktop or Laptop,Windows 10,Chrome 117.0.0.0,1536x864,1536x739,NA,NA,0,BIQ (Charlotte),3,DECFBGAHJI,Passed AC2,NA,Spreadsheet1,1,BIQ,Screen 1,9dh6eq,1,response,6,51633.111,67566.476,67572.785,51633.111,67566.476,67572.785,1,51633.111,15939.674,0,NA,Rating Scale,Rating Scale,3,object-5,BIQ,NA,SUPPRF43536
4,1.69697E+12,10/10/2023 20:42,1.69695E+12,-5,10/10/2023 10:42,146524,3,task-gjqt,NA,32140067,9504175,NA,complete,NA,65256e38e4a1b045d3bb578f,computer,Desktop or Laptop,Windows 10,Chrome 117.0.0.0,1536x864,1536x739,NA,NA,0,BIQ (Charlotte),3,DECFBGAHJI,Passed AC2,NA,Spreadsheet1,1,BIQ,Screen 1,9dh6eq,1,response,5,59566.565,67566.476,67573.085,59566.565,67566.476,67573.085,1,59566.565,8006.52,0,NA,Rating Scale,Rating Scale,10,object-18,BIQ,NA,SUPPRF43536
5,1.69697E+12,10/10/2023 20:42,1.69695E+12,-5,10/10/2023 10:42,146524,3,task-gjqt,NA,32140067,9504175,NA,complete,NA,65256e38e4a1b045d3bb578f,computer,Desktop or Laptop,Windows 10,Chrome 117.0.0.0,1536x864,1536x739,NA,NA,0,BIQ (Charlotte),3,DECFBGAHJI,Passed AC2,NA,Spreadsheet1,1,BIQ,Screen 1,9dh6eq,1,response,4,66883.122,67566.476,67573.385,66883.122,67566.476,67573.385,1,66883.122,690.2630001,0,NA,Rating Scale,Rating Scale,17,object-80,BIQ,NA,SUPPRF43536
6,1.69697E+12,10/10/2023 20:42,1.69695E+12,-5,10/10/2023 10:42,146524,3,task-gjqt,NA,32140067,9504175,NA,complete,NA,65256e38e4a1b045d3bb578f,computer,Desktop or Laptop,Windows 10,Chrome 117.0.0.0,1536x864,1536x739,NA,NA,0,BIQ (Charlotte),3,DECFBGAHJI,Passed AC2,NA,Spreadsheet1,1,BIQ,Screen 2,o21mwi,2,continue,,570.309,567.475,570.309,570.309,567.475,570.309,1,570.309,0,0,NA,Click To Continue,Continue Button,22,object-50,BIQ,NA,SUPPRF43536
7,1.69697E+12,10/10/2023 20:42,1.69695E+12,-5,10/10/2023 10:42,146524,3,task-gjqt,NA,32140067,9504175,NA,complete,NA,65256e38e4a1b045d3bb578f,computer,Desktop or Laptop,Windows 10,Chrome 117.0.0.0,1536x864,1536x739,NA,NA,0,BIQ (Charlotte),3,DECFBGAHJI,Passed AC2,NA,Spreadsheet1,1,BIQ,Screen 2,o21mwi,2,continue,,24503.509,24500.612,24503.509,24503.509,24500.612,24503.509,1,24503.509,0,0,NA,Click To Continue,Continue Button,22,object-50,BIQ,NA,SUPPRF43536
8,1.69697E+12,10/10/2023 20:42,1.69695E+12,-5,10/10/2023 10:42,146524,3,task-gjqt,NA,32140067,9504175,NA,complete,NA,65256e38e4a1b045d3bb578f,computer,Desktop or Laptop,Windows 10,Chrome 117.0.0.0,1536x864,1536x739,NA,NA,0,BIQ (Charlotte),3,DECFBGAHJI,Passed AC2,NA,Spreadsheet1,1,BIQ,Screen 2,o21mwi,2,response,3,9149.983,24500.612,24505.909,9149.983,24500.612,24505.909,1,9149.983,15355.926,0,NA,Rating Scale,Rating Scale,2,object-259,BIQ,NA,SUPPRF43536
9,1.69697E+12,10/10/2023 20:42,1.69695E+12,-5,10/10/2023 10:42,146524,3,task-gjqt,NA,32140067,9504175,NA,complete,NA,65256e38e4a1b045d3bb578f,computer,Desktop or Laptop,Windows 10,Chrome 117.0.0.0,1536x864,1536x739,NA,NA,0,BIQ (Charlotte),3,DECFBGAHJI,Passed AC2,NA,Spreadsheet1,1,BIQ,Screen 2,o21mwi,2,response,2,13500.009,24500.612,24506.109,13500.009,24500.612,24506.109,1,13500.009,11006.1,0,NA,Rating Scale,Rating Scale,9,object-36,BIQ,NA,SUPPRF43536
10,1.69697E+12,10/10/2023 20:42,1.69695E+12,-5,10/10/2023 10:42,146524,3,task-gjqt,NA,32140067,9504175,NA,complete,NA,65256e38e4a1b045d3bb578f,computer,Desktop or Laptop,Windows 10,Chrome 117.0.0.0,1536x864,1536x739,NA,NA,0,BIQ (Charlotte),3,DECFBGAHJI,Passed AC2,NA,Spreadsheet1,1,BIQ,Screen 2,o21mwi,2,response,4,24150.015,24500.612,24506.609,24150.015,24500.612,24506.609,1,24150.015,356.594,0,NA,Rating Scale,Rating Scale,16,object-86,BIQ,NA,SUPPRF43536
11,1.69697E+12,10/10/2023 20:43,1.69695E+12,-5,10/10/2023 10:43,146524,3,task-gjqt,NA,32140067,9504175,NA,complete,NA,65256e38e4a1b045d3bb578f,computer,Desktop or Laptop,Windows 10,Chrome 117.0.0.0,1536x864,1536x739,NA,NA,0,BIQ (Charlotte),3,DECFBGAHJI,Passed AC2,NA,Spreadsheet1,1,BIQ,Screen 3,iz3the,3,continue,,17334.697,17332.771,17334.697,17334.697,17332.771,17334.697,1,17334.697,0,0,NA,Click To Continue,Continue Button,22,object-73,BIQ,NA,SUPPRF43536
12,1.69697E+12,10/10/2023 20:43,1.69695E+12,-5,10/10/2023 10:43,146524,3,task-gjqt,NA,32140067,9504175,NA,complete,NA,65256e38e4a1b045d3bb578f,computer,Desktop or Laptop,Windows 10,Chrome 117.0.0.0,1536x864,1536x739,NA,NA,0,BIQ (Charlotte),3,DECFBGAHJI,Passed AC2,NA,Spreadsheet1,1,BIQ,Screen 3,iz3the,3,response,2,9282.703,17332.771,17336.497,9282.703,17332.771,17336.497,1,9282.703,8053.794,0,NA,Rating Scale,Rating Scale,2,object-53,BIQ,NA,SUPPRF43536
13,1.69697E+12,10/10/2023 20:43,1.69695E+12,-5,10/10/2023 10:43,146524,3,task-gjqt,NA,32140067,9504175,NA,complete,NA,65256e38e4a1b045d3bb578f,computer,Desktop or Laptop,Windows 10,Chrome 117.0.0.0,1536x864,1536x739,NA,NA,0,BIQ (Charlotte),3,DECFBGAHJI,Passed AC2,NA,Spreadsheet1,1,BIQ,Screen 3,iz3the,3,response,3,12566.032,17332.771,17336.797,12566.032,17332.771,17336.797,1,12566.032,4770.765,0,NA,Rating Scale,Rating Scale,9,object-60,BIQ,NA,SUPPRF43536
14,1.69697E+12,10/10/2023 20:43,1.69695E+12,-5,10/10/2023 10:43,146524,3,task-gjqt,NA,32140067,9504175,NA,complete,NA,65256e38e4a1b045d3bb578f,computer,Desktop or Laptop,Windows 10,Chrome 117.0.0.0,1536x864,1536x739,NA,NA,0,BIQ (Charlotte),3,DECFBGAHJI,Passed AC2,NA,Spreadsheet1,1,BIQ,Screen 3,iz3the,3,response,4,14916.057,17332.771,17336.997,14916.057,17332.771,17336.997,1,14916.057,2420.94,0,NA,Rating Scale,Rating Scale,16,object-67,BIQ,NA,SUPPRF43536
15,1.69697E+12,10/10/2023 20:43,1.69695E+12,-5,10/10/2023 10:43,146524,3,task-gjqt,NA,32140067,9504175,NA,complete,NA,65256e38e4a1b045d3bb578f,computer,Desktop or Laptop,Windows 10,Chrome 117.0.0.0,1536x864,1536x739,NA,NA,0,BIQ (Charlotte),3,DECFBGAHJI,Passed AC2,NA,Spreadsheet1,NA,,,,NA,5,END,NA,NA,NA,NA,NA,NA,0,NA,NA,NA,NA,,,NA,,,NA,SUPPRF43536
1,1.69695E+12,10/10/2023 16:18,1.69696E+12,1,10/10/2023 18:18,146524,3,task-gjqt,NA,32145026,9505922,NA,complete,NA,6525869bc00f58b9070f40b8,computer,Desktop or Laptop,Mac OS 10.15.7,Safari 16.6,1440x900,1440x820,NA,NA,0,BIQ (Charlotte),3,EFDGCHBIAJ,Passed AC2,NA,Spreadsheet1,NA,,,,NA,5,BEGIN,NA,NA,NA,NA,NA,NA,0,NA,NA,NA,NA,,,NA,,,NA,SUPPRF95014
2,1.69695E+12,10/10/2023 16:18,1.69696E+12,1,10/10/2023 18:18,146524,3,task-gjqt,NA,32145026,9505922,NA,complete,NA,6525869bc00f58b9070f40b8,computer,Desktop or Laptop,Mac OS 10.15.7,Safari 16.6,1440x900,1440x820,NA,NA,0,BIQ (Charlotte),3,EFDGCHBIAJ,Passed AC2,NA,Spreadsheet1,1,BIQ,Screen 1,9dh6eq,1,continue,,32673,32665,32673,32673,32665,32673,1,32673,0,0,NA,Click To Continue,Continue Button,23,object-48,BIQ,NA,SUPPRF95014
3,1.69695E+12,10/10/2023 16:18,1.69696E+12,1,10/10/2023 18:18,146524,3,task-gjqt,NA,32145026,9505922,NA,complete,NA,6525869bc00f58b9070f40b8,computer,Desktop or Laptop,Mac OS 10.15.7,Safari 16.6,1440x900,1440x820,NA,NA,0,BIQ (Charlotte),3,EFDGCHBIAJ,Passed AC2,NA,Spreadsheet1,1,BIQ,Screen 1,9dh6eq,1,response,7,17819,32665,32678,17819,32665,32678,1,17819,14859,0,NA,Rating Scale,Rating Scale,3,object-5,BIQ,NA,SUPPRF95014
4,1.69695E+12,10/10/2023 16:18,1.69696E+12,1,10/10/2023 18:18,146524,3,task-gjqt,NA,32145026,9505922,NA,complete,NA,6525869bc00f58b9070f40b8,computer,Desktop or Laptop,Mac OS 10.15.7,Safari 16.6,1440x900,1440x820,NA,NA,0,BIQ (Charlotte),3,EFDGCHBIAJ,Passed AC2,NA,Spreadsheet1,1,BIQ,Screen 1,9dh6eq,1,response,6,26595,32665,32678,26595,32665,32678,1,26595,6083,0,NA,Rating Scale,Rating Scale,10,object-18,BIQ,NA,SUPPRF95014
5,1.69695E+12,10/10/2023 16:18,1.69696E+12,1,10/10/2023 18:18,146524,3,task-gjqt,NA,32145026,9505922,NA,complete,NA,6525869bc00f58b9070f40b8,computer,Desktop or Laptop,Mac OS 10.15.7,Safari 16.6,1440x900,1440x820,NA,NA,0,BIQ (Charlotte),3,EFDGCHBIAJ,Passed AC2,NA,Spreadsheet1,1,BIQ,Screen 1,9dh6eq,1,response,6,32013,32665,32679,32013,32665,32679,1,32013,666,0,NA,Rating Scale,Rating Scale,17,object-80,BIQ,NA,SUPPRF95014
6,1.69695E+12,10/10/2023 16:19,1.69696E+12,1,10/10/2023 18:19,146524,3,task-gjqt,NA,32145026,9505922,NA,complete,NA,6525869bc00f58b9070f40b8,computer,Desktop or Laptop,Mac OS 10.15.7,Safari 16.6,1440x900,1440x820,NA,NA,0,BIQ (Charlotte),3,EFDGCHBIAJ,Passed AC2,NA,Spreadsheet1,1,BIQ,Screen 2,o21mwi,2,continue,,36992,36975,36992,36992,36975,36992,1,36992,0,0,NA,Click To Continue,Continue Button,22,object-50,BIQ,NA,SUPPRF95014
7,1.69695E+12,10/10/2023 16:19,1.69696E+12,1,10/10/2023 18:19,146524,3,task-gjqt,NA,32145026,9505922,NA,complete,NA,6525869bc00f58b9070f40b8,computer,Desktop or Laptop,Mac OS 10.15.7,Safari 16.6,1440x900,1440x820,NA,NA,0,BIQ (Charlotte),3,EFDGCHBIAJ,Passed AC2,NA,Spreadsheet1,1,BIQ,Screen 2,o21mwi,2,response,6,7601,36975,36992,7601,36975,36992,1,7601,29391,0,NA,Rating Scale,Rating Scale,2,object-259,BIQ,NA,SUPPRF95014
8,1.69695E+12,10/10/2023 16:19,1.69696E+12,1,10/10/2023 18:19,146524,3,task-gjqt,NA,32145026,9505922,NA,complete,NA,6525869bc00f58b9070f40b8,computer,Desktop or Laptop,Mac OS 10.15.7,Safari 16.6,1440x900,1440x820,NA,NA,0,BIQ (Charlotte),3,EFDGCHBIAJ,Passed AC2,NA,Spreadsheet1,1,BIQ,Screen 2,o21mwi,2,response,7,15126,36975,36992,15126,36975,36992,1,15126,21866,0,NA,Rating Scale,Rating Scale,9,object-36,BIQ,NA,SUPPRF95014
9,1.69695E+12,10/10/2023 16:19,1.69696E+12,1,10/10/2023 18:19,146524,3,task-gjqt,NA,32145026,9505922,NA,complete,NA,6525869bc00f58b9070f40b8,computer,Desktop or Laptop,Mac OS 10.15.7,Safari 16.6,1440x900,1440x820,NA,NA,0,BIQ (Charlotte),3,EFDGCHBIAJ,Passed AC2,NA,Spreadsheet1,1,BIQ,Screen 2,o21mwi,2,response,4,36360,36975,36992,36360,36975,36992,1,36360,632,0,NA,Rating Scale,Rating Scale,16,object-86,BIQ,NA,SUPPRF95014
10,1.69695E+12,10/10/2023 16:19,1.69696E+12,1,10/10/2023 18:19,146524,3,task-gjqt,NA,32145026,9505922,NA,complete,NA,6525869bc00f58b9070f40b8,computer,Desktop or Laptop,Mac OS 10.15.7,Safari 16.6,1440x900,1440x820,NA,NA,0,BIQ (Charlotte),3,EFDGCHBIAJ,Passed AC2,NA,Spreadsheet1,1,BIQ,Screen 3,iz3the,3,continue,,26127,26112,26127,26127,26112,26127,1,26127,0,0,NA,Click To Continue,Continue Button,22,object-73,BIQ,NA,SUPPRF95014
11,1.69695E+12,10/10/2023 16:19,1.69696E+12,1,10/10/2023 18:19,146524,3,task-gjqt,NA,32145026,9505922,NA,complete,NA,6525869bc00f58b9070f40b8,computer,Desktop or Laptop,Mac OS 10.15.7,Safari 16.6,1440x900,1440x820,NA,NA,0,BIQ (Charlotte),3,EFDGCHBIAJ,Passed AC2,NA,Spreadsheet1,1,BIQ,Screen 3,iz3the,3,response,0,9635,26112,26127,9635,26112,26127,1,9635,16492,0,NA,Rating Scale,Rating Scale,2,object-53,BIQ,NA,SUPPRF95014
12,1.69695E+12,10/10/2023 16:19,1.69696E+12,1,10/10/2023 18:19,146524,3,task-gjqt,NA,32145026,9505922,NA,complete,NA,6525869bc00f58b9070f40b8,computer,Desktop or Laptop,Mac OS 10.15.7,Safari 16.6,1440x900,1440x820,NA,NA,0,BIQ (Charlotte),3,EFDGCHBIAJ,Passed AC2,NA,Spreadsheet1,1,BIQ,Screen 3,iz3the,3,response,2,18269,26112,26127,18269,26112,26127,1,18269,7858,0,NA,Rating Scale,Rating Scale,9,object-60,BIQ,NA,SUPPRF95014
13,1.69695E+12,10/10/2023 16:19,1.69696E+12,1,10/10/2023 18:19,146524,3,task-gjqt,NA,32145026,9505922,NA,complete,NA,6525869bc00f58b9070f40b8,computer,Desktop or Laptop,Mac OS 10.15.7,Safari 16.6,1440x900,1440x820,NA,NA,0,BIQ (Charlotte),3,EFDGCHBIAJ,Passed AC2,NA,Spreadsheet1,1,BIQ,Screen 3,iz3the,3,response,3,25510,26112,26127,25510,26112,26127,1,25510,617,0,NA,Rating Scale,Rating Scale,16,object-67,BIQ,NA,SUPPRF95014
14,1.69695E+12,10/10/2023 16:19,1.69696E+12,1,10/10/2023 18:19,146524,3,task-gjqt,NA,32145026,9505922,NA,complete,NA,6525869bc00f58b9070f40b8,computer,Desktop or Laptop,Mac OS 10.15.7,Safari 16.6,1440x900,1440x820,NA,NA,0,BIQ (Charlotte),3,EFDGCHBIAJ,Passed AC2,NA,Spreadsheet1,NA,,,,NA,5,END,NA,NA,NA,NA,NA,NA,0,NA,NA,NA,NA,,,NA,,,NA,SUPPRF95014
1,1.69695E+12,10/10/2023 16:20,1.69696E+12,1,10/10/2023 18:20,146524,3,task-gjqt,NA,32145042,9505942,NA,complete,NA,6525870609de4876edb91632,computer,Desktop or Laptop,Windows 10,Chrome 117.0.0.0,1366x768,1517x723,NA,NA,0,BIQ (Charlotte),3,FGEHDICJBA,Passed AC2,NA,Spreadsheet1,NA,,,,NA,5,BEGIN,NA,NA,NA,NA,NA,NA,0,NA,NA,NA,NA,,,NA,,,NA,SUPPRF13138
2,1.69695E+12,10/10/2023 16:20,1.69696E+12,1,10/10/2023 18:20,146524,3,task-gjqt,NA,32145042,9505942,NA,complete,NA,6525870609de4876edb91632,computer,Desktop or Laptop,Windows 10,Chrome 117.0.0.0,1366x768,1517x723,NA,NA,0,BIQ (Charlotte),3,FGEHDICJBA,Passed AC2,NA,Spreadsheet1,1,BIQ,Screen 1,9dh6eq,1,continue,,24389.235,24372.596,24389.235,24389.235,24372.596,24389.235,1,24389.235,0,0,NA,Click To Continue,Continue Button,23,object-48,BIQ,NA,SUPPRF13138
3,1.69695E+12,10/10/2023 16:20,1.69696E+12,1,10/10/2023 18:20,146524,3,task-gjqt,NA,32145042,9505942,NA,complete,NA,6525870609de4876edb91632,computer,Desktop or Laptop,Windows 10,Chrome 117.0.0.0,1366x768,1517x723,NA,NA,0,BIQ (Charlotte),3,FGEHDICJBA,Passed AC2,NA,Spreadsheet1,1,BIQ,Screen 1,9dh6eq,1,response,6,8601.003,24372.596,24389.235,8601.003,24372.596,24389.235,1,8601.003,15788.232,0,NA,Rating Scale,Rating Scale,3,object-5,BIQ,NA,SUPPRF13138
4,1.69695E+12,10/10/2023 16:20,1.69696E+12,1,10/10/2023 18:20,146524,3,task-gjqt,NA,32145042,9505942,NA,complete,NA,6525870609de4876edb91632,computer,Desktop or Laptop,Windows 10,Chrome 117.0.0.0,1366x768,1517x723,NA,NA,0,BIQ (Charlotte),3,FGEHDICJBA,Passed AC2,NA,Spreadsheet1,1,BIQ,Screen 1,9dh6eq,1,response,7,20163.528,24372.596,24389.235,20163.528,24372.596,24389.235,1,20163.528,4225.707,0,NA,Rating Scale,Rating Scale,10,object-18,BIQ,NA,SUPPRF13138
5,1.69695E+12,10/10/2023 16:20,1.69696E+12,1,10/10/2023 18:20,146524,3,task-gjqt,NA,32145042,9505942,NA,complete,NA,6525870609de4876edb91632,computer,Desktop or Laptop,Windows 10,Chrome 117.0.0.0,1366x768,1517x723,NA,NA,0,BIQ (Charlotte),3,FGEHDICJBA,Passed AC2,NA,Spreadsheet1,1,BIQ,Screen 1,9dh6eq,1,response,0,23374.402,24372.596,24389.235,23374.402,24372.596,24389.235,1,23374.402,1014.833,0,NA,Rating Scale,Rating Scale,17,object-80,BIQ,NA,SUPPRF13138
6,1.69695E+12,10/10/2023 16:21,1.69696E+12,1,10/10/2023 18:21,146524,3,task-gjqt,NA,32145042,9505942,NA,complete,NA,6525870609de4876edb91632,computer,Desktop or Laptop,Windows 10,Chrome 117.0.0.0,1366x768,1517x723,NA,NA,0,BIQ (Charlotte),3,FGEHDICJBA,Passed AC2,NA,Spreadsheet1,1,BIQ,Screen 2,o21mwi,2,continue,,14194.001,14191.165,14194.001,14194.001,14191.165,14194.001,1,14194.001,0,0,NA,Click To Continue,Continue Button,22,object-50,BIQ,NA,SUPPRF13138
7,1.69695E+12,10/10/2023 16:21,1.69696E+12,1,10/10/2023 18:21,146524,3,task-gjqt,NA,32145042,9505942,NA,complete,NA,6525870609de4876edb91632,computer,Desktop or Laptop,Windows 10,Chrome 117.0.0.0,1366x768,1517x723,NA,NA,0,BIQ (Charlotte),3,FGEHDICJBA,Passed AC2,NA,Spreadsheet1,1,BIQ,Screen 2,o21mwi,2,response,8,6887.66,14191.165,14197.701,6887.66,14191.165,14197.701,1,6887.66,7310.041,0,NA,Rating Scale,Rating Scale,2,object-259,BIQ,NA,SUPPRF13138
8,1.69695E+12,10/10/2023 16:21,1.69696E+12,1,10/10/2023 18:21,146524,3,task-gjqt,NA,32145042,9505942,NA,complete,NA,6525870609de4876edb91632,computer,Desktop or Laptop,Windows 10,Chrome 117.0.0.0,1366x768,1517x723,NA,NA,0,BIQ (Charlotte),3,FGEHDICJBA,Passed AC2,NA,Spreadsheet1,1,BIQ,Screen 2,o21mwi,2,response,0,9083.66,14191.165,14198.601,9083.66,14191.165,14198.601,1,9083.66,5114.941,0,NA,Rating Scale,Rating Scale,9,object-36,BIQ,NA,SUPPRF13138
9,1.69695E+12,10/10/2023 16:21,1.69696E+12,1,10/10/2023 18:21,146524,3,task-gjqt,NA,32145042,9505942,NA,complete,NA,6525870609de4876edb91632,computer,Desktop or Laptop,Windows 10,Chrome 117.0.0.0,1366x768,1517x723,NA,NA,0,BIQ (Charlotte),3,FGEHDICJBA,Passed AC2,NA,Spreadsheet1,1,BIQ,Screen 2,o21mwi,2,response,0,13309.417,14191.165,14199.601,13309.417,14191.165,14199.601,1,13309.417,890.184,0,NA,Rating Scale,Rating Scale,16,object-86,BIQ,NA,SUPPRF13138
10,1.69695E+12,10/10/2023 16:21,1.69696E+12,1,10/10/2023 18:21,146524,3,task-gjqt,NA,32145042,9505942,NA,complete,NA,6525870609de4876edb91632,computer,Desktop or Laptop,Windows 10,Chrome 117.0.0.0,1366x768,1517x723,NA,NA,0,BIQ (Charlotte),3,FGEHDICJBA,Passed AC2,NA,Spreadsheet1,1,BIQ,Screen 3,iz3the,3,continue,,17482.736,17468.499,17482.736,17482.736,17468.499,17482.736,1,17482.736,0,0,NA,Click To Continue,Continue Button,22,object-73,BIQ,NA,SUPPRF13138
11,1.69695E+12,10/10/2023 16:21,1.69696E+12,1,10/10/2023 18:21,146524,3,task-gjqt,NA,32145042,9505942,NA,complete,NA,6525870609de4876edb91632,computer,Desktop or Laptop,Windows 10,Chrome 117.0.0.0,1366x768,1517x723,NA,NA,0,BIQ (Charlotte),3,FGEHDICJBA,Passed AC2,NA,Spreadsheet1,1,BIQ,Screen 3,iz3the,3,response,0,14473.927,17468.499,17485.138,14473.927,17468.499,17485.138,1,14473.927,3011.211,0,NA,Rating Scale,Rating Scale,2,object-53,BIQ,NA,SUPPRF13138
12,1.69695E+12,10/10/2023 16:21,1.69696E+12,1,10/10/2023 18:21,146524,3,task-gjqt,NA,32145042,9505942,NA,complete,NA,6525870609de4876edb91632,computer,Desktop or Laptop,Windows 10,Chrome 117.0.0.0,1366x768,1517x723,NA,NA,0,BIQ (Charlotte),3,FGEHDICJBA,Passed AC2,NA,Spreadsheet1,1,BIQ,Screen 3,iz3the,3,response,0,15039.54,17468.499,17485.138,15039.54,17468.499,17485.138,1,15039.54,2445.598,0,NA,Rating Scale,Rating Scale,9,object-60,BIQ,NA,SUPPRF13138
13,1.69695E+12,10/10/2023 16:21,1.69696E+12,1,10/10/2023 18:21,146524,3,task-gjqt,NA,32145042,9505942,NA,complete,NA,6525870609de4876edb91632,computer,Desktop or Laptop,Windows 10,Chrome 117.0.0.0,1366x768,1517x723,NA,NA,0,BIQ (Charlotte),3,FGEHDICJBA,Passed AC2,NA,Spreadsheet1,1,BIQ,Screen 3,iz3the,3,response,0,16586.759,17468.499,17485.138,16586.759,17468.499,17485.138,1,16586.759,898.379,0,NA,Rating Scale,Rating Scale,16,object-67,BIQ,NA,SUPPRF13138
14,1.69695E+12,10/10/2023 16:21,1.69696E+12,1,10/10/2023 18:21,146524,3,task-gjqt,NA,32145042,9505942,NA,complete,NA,6525870609de4876edb91632,computer,Desktop or Laptop,Windows 10,Chrome 117.0.0.0,1366x768,1517x723,NA,NA,0,BIQ (Charlotte),3,FGEHDICJBA,Passed AC2,NA,Spreadsheet1,NA,,,,NA,5,END,NA,NA,NA,NA,NA,NA,0,NA,NA,NA,NA,,,NA,,,NA,SUPPRF13138
1,1.69696E+12,10/10/2023 16:44,1.69696E+12,1,10/10/2023 18:44,146524,3,task-gjqt,NA,32146217,9506207,NA,complete,NA,65258c7731597a2159114669,computer,Desktop or Laptop,Mac OS 10.15.7,Chrome 116.0.0.0,1440x900,1440x815,NA,NA,0,BIQ (Charlotte),3,GHFIEJDACB,Passed AC2,NA,Spreadsheet1,NA,,,,NA,5,BEGIN,NA,NA,NA,NA,NA,NA,0,NA,NA,NA,NA,,,NA,,,NA,SUPPRF98941
2,1.69696E+12,10/10/2023 16:44,1.69696E+12,1,10/10/2023 18:44,146524,3,task-gjqt,NA,32146217,9506207,NA,complete,NA,65258c7731597a2159114669,computer,Desktop or Laptop,Mac OS 10.15.7,Chrome 116.0.0.0,1440x900,1440x815,NA,NA,0,BIQ (Charlotte),3,GHFIEJDACB,Passed AC2,NA,Spreadsheet1,1,BIQ,Screen 1,9dh6eq,1,continue,,26501.611,26485.254,26501.611,26501.611,26485.254,26501.611,1,26501.611,0,0,NA,Click To Continue,Continue Button,23,object-48,BIQ,NA,SUPPRF98941
