"Event.Index","UTC.Timestamp","UTC.Date.and.Time","Local.Timestamp","Local.Timezone","Local.Date.and.Time","Experiment.ID","Experiment.Version","Tree.Node.Key","Repeat.Key","Schedule.ID","Participant.Private.ID","Participant.Starting.Group","Participant.Status","Participant.Completion.Code","Participant.External.Session.ID","Participant.Device.Type","Participant.Device","Participant.OS","Participant.Browser","Participant.Monitor.Size","Participant.Viewport.Size","Checkpoint","Room.ID","Room.Order","Task.Name","Task.Version","order.ot79","branch.g31k","branch.5gtn","Spreadsheet","Trial.Number","Display","Screen","Screen.ID","Screen.Counter","Response.Type","Response","Onset.Time","Clock.Time","Reaction.Time","Absolute.Onset.Time","Absolute.Clock.Time","Absolute.Reaction.Time","Correct","Response.Onset","Response.Duration","Proportion","Tag","Component.Name","Object.Name","Object.Number","Object.ID","Spreadsheet..display","Manipulation..Spreadsheet","Random_ID"
"1",1705066918894,"12/01/2024 13:41:58",1705066918894,0,"12/01/2024 13:41:58",159402,5,"task-w25u",NA,34161297,10092271,NA,"rejected - time limit reached",NA,"65a13ea9dc38b89f5c43fb80","computer","Desktop or Laptop","Mac OS 10.15.7","Chrome 120.0.0.0","1440x900","1440x779",NA,NA,0,"Task Introduction and Instructions (re-introduce video and audio)",1,"CDBEAFJGIH","Passed AC2","","Spreadsheet1",NA,"","","",NA,"5","BEGIN",NA,NA,NA,NA,NA,NA,0,NA,NA,NA,NA,"","",NA,"","",NA,"SUPPRF02872"
"2",1705066922846,"12/01/2024 13:42:02",1705066922846,0,"12/01/2024 13:42:02",159402,5,"task-w25u",NA,34161297,10092271,NA,"rejected - time limit reached",NA,"65a13ea9dc38b89f5c43fb80","computer","Desktop or Laptop","Mac OS 10.15.7","Chrome 120.0.0.0","1440x900","1440x779",NA,NA,0,"Task Introduction and Instructions (re-introduce video and audio)",1,"CDBEAFJGIH","Passed AC2","","Spreadsheet1",1,"Task Instructions","Screen 1","anr7sn",1,"continue","",3715.9999997139,3709.8,3715.9999997139,3715.9999997139,3709.8,3715.9999997139,1,3715.9999997139,0,0,NA,"Click To Continue","Continue Button",2,"object-1944","Task Instructions",NA,"SUPPRF02872"
"3",1705066931702,"12/01/2024 13:42:11",1705066931702,0,"12/01/2024 13:42:11",159402,5,"task-w25u",NA,34161297,10092271,NA,"rejected - time limit reached",NA,"65a13ea9dc38b89f5c43fb80","computer","Desktop or Laptop","Mac OS 10.15.7","Chrome 120.0.0.0","1440x900","1440x779",NA,NA,0,"Task Introduction and Instructions (re-introduce video and audio)",1,"CDBEAFJGIH","Passed AC2","","Spreadsheet1",1,"Task Instructions","Screen 2","ce2tc8",2,"continue","",8862.09999980926,8857,8862.09999980926,8862.09999980926,8857,8862.09999980926,1,8862.09999980926,0,0,NA,"Click To Continue","Continue Button",2,"object-7","Task Instructions",NA,"SUPPRF02872"
"4",1705066935227,"12/01/2024 13:42:15",1705066935227,0,"12/01/2024 13:42:15",159402,5,"task-w25u",NA,34161297,10092271,NA,"rejected - time limit reached",NA,"65a13ea9dc38b89f5c43fb80","computer","Desktop or Laptop","Mac OS 10.15.7","Chrome 120.0.0.0","1440x900","1440x779",NA,NA,0,"Task Introduction and Instructions (re-introduce video and audio)",1,"CDBEAFJGIH","Passed AC2","","Spreadsheet1",1,"Task Instructions","Screen 3","1qtc8v",3,"continue","",3530.99999990463,3526.2,3530.99999990463,3530.99999990463,3526.2,3530.99999990463,1,3530.99999990463,0,0,NA,"Click To Continue","Continue Button",2,"object-52","Task Instructions",NA,"SUPPRF02872"
"5",1705067018588,"12/01/2024 13:43:38",1705067018588,0,"12/01/2024 13:43:38",159402,5,"task-w25u",NA,34161297,10092271,NA,"rejected - time limit reached",NA,"65a13ea9dc38b89f5c43fb80","computer","Desktop or Laptop","Mac OS 10.15.7","Chrome 120.0.0.0","1440x900","1440x779",NA,NA,0,"Task Introduction and Instructions (re-introduce video and audio)",1,"CDBEAFJGIH","Passed AC2","","Spreadsheet1",1,"Task Instructions","Screen 4","spepx9",4,"continue","",82609.7999999046,82603.9,82609.7999999046,82609.7999999046,82603.9,82609.7999999046,1,82609.7999999046,0,0,NA,"Click To Continue","Continue Button",2,"object-9","Task Instructions",NA,"SUPPRF02872"
"6",1705067021896,"12/01/2024 13:43:41",1705067021896,0,"12/01/2024 13:43:41",159402,5,"task-w25u",NA,34161297,10092271,NA,"rejected - time limit reached",NA,"65a13ea9dc38b89f5c43fb80","computer","Desktop or Laptop","Mac OS 10.15.7","Chrome 120.0.0.0","1440x900","1440x779",NA,NA,0,"Task Introduction and Instructions (re-introduce video and audio)",1,"CDBEAFJGIH","Passed AC2","","Spreadsheet1",1,"Task Instructions","Screen 5","8nvnao",5,"continue","",3308.7,3292,3308.7,3308.7,3292,3308.7,1,3308.7,0,0,NA,"Click To Continue","Continue Button",2,"object-44","Task Instructions",NA,"SUPPRF02872"
"7",1705067021899,"12/01/2024 13:43:41",1705067021899,0,"12/01/2024 13:43:41",159402,5,"task-w25u",NA,34161297,10092271,NA,"rejected - time limit reached",NA,"65a13ea9dc38b89f5c43fb80","computer","Desktop or Laptop","Mac OS 10.15.7","Chrome 120.0.0.0","1440x900","1440x779",NA,NA,0,"Task Introduction and Instructions (re-introduce video and audio)",1,"CDBEAFJGIH","Passed AC2","","Spreadsheet1",NA,"","","",NA,"5","END",NA,NA,NA,NA,NA,NA,0,NA,NA,NA,NA,"","",NA,"","",NA,"SUPPRF02872"
"1",1705067117800,"12/01/2024 13:45:17",1705067117800,0,"12/01/2024 13:45:17",159402,5,"task-w25u",NA,34161396,10092228,NA,"complete",NA,"65a13d4a8402af9035477cdc","computer","Desktop or Laptop","Windows 10","Chrome 120.0.0.0","1920x1080","1920x955",NA,NA,0,"Task Introduction and Instructions (re-introduce video and audio)",1,"ABJCIDHEGF","Passed AC2","","Spreadsheet1",NA,"","","",NA,"5","BEGIN",NA,NA,NA,NA,NA,NA,0,NA,NA,NA,NA,"","",NA,"","",NA,"SUPPRF80959"
"2",1705067120876,"12/01/2024 13:45:20",1705067120876,0,"12/01/2024 13:45:20",159402,5,"task-w25u",NA,34161396,10092228,NA,"complete",NA,"65a13d4a8402af9035477cdc","computer","Desktop or Laptop","Windows 10","Chrome 120.0.0.0","1920x1080","1920x955",NA,NA,0,"Task Introduction and Instructions (re-introduce video and audio)",1,"ABJCIDHEGF","Passed AC2","","Spreadsheet1",1,"Task Instructions","Screen 1","anr7sn",1,"continue","",3034.30000004768,3032.4,3034.30000004768,3034.30000004768,3032.4,3034.30000004768,1,3034.30000004768,0,0,NA,"Click To Continue","Continue Button",2,"object-1944","Task Instructions",NA,"SUPPRF80959"
"3",1705067128294,"12/01/2024 13:45:28",1705067128294,0,"12/01/2024 13:45:28",159402,5,"task-w25u",NA,34161396,10092228,NA,"complete",NA,"65a13d4a8402af9035477cdc","computer","Desktop or Laptop","Windows 10","Chrome 120.0.0.0","1920x1080","1920x955",NA,NA,0,"Task Introduction and Instructions (re-introduce video and audio)",1,"ABJCIDHEGF","Passed AC2","","Spreadsheet1",1,"Task Instructions","Screen 2","ce2tc8",2,"continue","",7420.00000019073,7414.1,7420.00000019073,7420.00000019073,7414.1,7420.00000019073,1,7420.00000019073,0,0,NA,"Click To Continue","Continue Button",2,"object-7","Task Instructions",NA,"SUPPRF80959"
"4",1705067131429,"12/01/2024 13:45:31",1705067131429,0,"12/01/2024 13:45:31",159402,5,"task-w25u",NA,34161396,10092228,NA,"complete",NA,"65a13d4a8402af9035477cdc","computer","Desktop or Laptop","Windows 10","Chrome 120.0.0.0","1920x1080","1920x955",NA,NA,0,"Task Introduction and Instructions (re-introduce video and audio)",1,"ABJCIDHEGF","Passed AC2","","Spreadsheet1",1,"Task Instructions","Screen 3","1qtc8v",3,"continue","",3140.50000009537,3132.2,3140.50000009537,3140.50000009537,3132.2,3140.50000009537,1,3140.50000009537,0,0,NA,"Click To Continue","Continue Button",2,"object-52","Task Instructions",NA,"SUPPRF80959"
"5",1705067157654,"12/01/2024 13:45:57",1705067157654,0,"12/01/2024 13:45:57",159402,5,"task-w25u",NA,34161396,10092228,NA,"complete",NA,"65a13d4a8402af9035477cdc","computer","Desktop or Laptop","Windows 10","Chrome 120.0.0.0","1920x1080","1920x955",NA,NA,0,"Task Introduction and Instructions (re-introduce video and audio)",1,"ABJCIDHEGF","Passed AC2","","Spreadsheet1",1,"Task Instructions","Screen 4","spepx9",4,"continue","",26233.6000000477,26224.5,26233.6000000477,26233.6000000477,26224.5,26233.6000000477,1,26233.6000000477,0,0,NA,"Click To Continue","Continue Button",2,"object-9","Task Instructions",NA,"SUPPRF80959"
"6",1705067160899,"12/01/2024 13:46:00",1705067160899,0,"12/01/2024 13:46:00",159402,5,"task-w25u",NA,34161396,10092228,NA,"complete",NA,"65a13d4a8402af9035477cdc","computer","Desktop or Laptop","Windows 10","Chrome 120.0.0.0","1920x1080","1920x955",NA,NA,0,"Task Introduction and Instructions (re-introduce video and audio)",1,"ABJCIDHEGF","Passed AC2","","Spreadsheet1",1,"Task Instructions","Screen 5","8nvnao",5,"continue","",3254.20000019074,3249,3254.20000019074,3254.20000019074,3249,3254.20000019074,1,3254.20000019074,0,0,NA,"Click To Continue","Continue Button",2,"object-44","Task Instructions",NA,"SUPPRF80959"
"7",1705067160900,"12/01/2024 13:46:00",1705067160900,0,"12/01/2024 13:46:00",159402,5,"task-w25u",NA,34161396,10092228,NA,"complete",NA,"65a13d4a8402af9035477cdc","computer","Desktop or Laptop","Windows 10","Chrome 120.0.0.0","1920x1080","1920x955",NA,NA,0,"Task Introduction and Instructions (re-introduce video and audio)",1,"ABJCIDHEGF","Passed AC2","","Spreadsheet1",NA,"","","",NA,"5","END",NA,NA,NA,NA,NA,NA,0,NA,NA,NA,NA,"","",NA,"","",NA,"SUPPRF80959"
"1",1705067413749,"12/01/2024 13:50:13",1705067413749,0,"12/01/2024 13:50:13",159402,5,"task-w25u",NA,34161514,10092341,NA,"complete",NA,"65a1413217968f18371eb8d2","computer","Desktop or Laptop","Windows 10","Chrome 120.0.0.0","1366x768","1366x651",NA,NA,0,"Task Introduction and Instructions (re-introduce video and audio)",1,"DECFBGAHJI","Passed AC2","","Spreadsheet1",NA,"","","",NA,"5","BEGIN",NA,NA,NA,NA,NA,NA,0,NA,NA,NA,NA,"","",NA,"","",NA,"SUPPRF53442"
"2",1705067416943,"12/01/2024 13:50:16",1705067416943,0,"12/01/2024 13:50:16",159402,5,"task-w25u",NA,34161514,10092341,NA,"complete",NA,"65a1413217968f18371eb8d2","computer","Desktop or Laptop","Windows 10","Chrome 120.0.0.0","1366x768","1366x651",NA,NA,0,"Task Introduction and Instructions (re-introduce video and audio)",1,"DECFBGAHJI","Passed AC2","","Spreadsheet1",1,"Task Instructions","Screen 1","anr7sn",1,"continue","",3088.89999999944,3083.4,3088.89999999944,3088.89999999944,3083.4,3088.89999999944,1,3088.89999999944,0,0,NA,"Click To Continue","Continue Button",2,"object-1944","Task Instructions",NA,"SUPPRF53442"
"3",1705067426275,"12/01/2024 13:50:26",1705067426275,0,"12/01/2024 13:50:26",159402,5,"task-w25u",NA,34161514,10092341,NA,"complete",NA,"65a1413217968f18371eb8d2","computer","Desktop or Laptop","Windows 10","Chrome 120.0.0.0","1366x768","1366x651",NA,NA,0,"Task Introduction and Instructions (re-introduce video and audio)",1,"DECFBGAHJI","Passed AC2","","Spreadsheet1",1,"Task Instructions","Screen 2","ce2tc8",2,"continue","",9337.19999999963,9333.6,9337.19999999963,9337.19999999963,9333.6,9337.19999999963,1,9337.19999999963,0,0,NA,"Click To Continue","Continue Button",2,"object-7","Task Instructions",NA,"SUPPRF53442"
"4",1705067430078,"12/01/2024 13:50:30",1705067430078,0,"12/01/2024 13:50:30",159402,5,"task-w25u",NA,34161514,10092341,NA,"complete",NA,"65a1413217968f18371eb8d2","computer","Desktop or Laptop","Windows 10","Chrome 120.0.0.0","1366x768","1366x651",NA,NA,0,"Task Introduction and Instructions (re-introduce video and audio)",1,"DECFBGAHJI","Passed AC2","","Spreadsheet1",1,"Task Instructions","Screen 3","1qtc8v",3,"continue","",3807.39999999944,3800.1,3807.39999999944,3807.39999999944,3800.1,3807.39999999944,1,3807.39999999944,0,0,NA,"Click To Continue","Continue Button",2,"object-52","Task Instructions",NA,"SUPPRF53442"
"5",1705067432990,"12/01/2024 13:50:32",1705067432990,0,"12/01/2024 13:50:32",159402,5,"task-w25u",NA,34161514,10092341,NA,"complete",NA,"65a1413217968f18371eb8d2","computer","Desktop or Laptop","Windows 10","Chrome 120.0.0.0","1366x768","1366x651",NA,NA,0,"Task Introduction and Instructions (re-introduce video and audio)",1,"DECFBGAHJI","Passed AC2","","Spreadsheet1",1,"Task Instructions","Screen 4","spepx9",4,"continue","",2919.19999999982,2916.8,2919.19999999982,2919.19999999982,2916.8,2919.19999999982,1,2919.19999999982,0,0,NA,"Click To Continue","Continue Button",2,"object-9","Task Instructions",NA,"SUPPRF53442"
"6",1705067435691,"12/01/2024 13:50:35",1705067435691,0,"12/01/2024 13:50:35",159402,5,"task-w25u",NA,34161514,10092341,NA,"complete",NA,"65a1413217968f18371eb8d2","computer","Desktop or Laptop","Windows 10","Chrome 120.0.0.0","1366x768","1366x651",NA,NA,0,"Task Introduction and Instructions (re-introduce video and audio)",1,"DECFBGAHJI","Passed AC2","","Spreadsheet1",1,"Task Instructions","Screen 5","8nvnao",5,"continue","",2702.99999999944,2700,2702.99999999944,2702.99999999944,2700,2702.99999999944,1,2702.99999999944,0,0,NA,"Click To Continue","Continue Button",2,"object-44","Task Instructions",NA,"SUPPRF53442"
"7",1705067435700,"12/01/2024 13:50:35",1705067435700,0,"12/01/2024 13:50:35",159402,5,"task-w25u",NA,34161514,10092341,NA,"complete",NA,"65a1413217968f18371eb8d2","computer","Desktop or Laptop","Windows 10","Chrome 120.0.0.0","1366x768","1366x651",NA,NA,0,"Task Introduction and Instructions (re-introduce video and audio)",1,"DECFBGAHJI","Passed AC2","","Spreadsheet1",NA,"","","",NA,"5","END",NA,NA,NA,NA,NA,NA,0,NA,NA,NA,NA,"","",NA,"","",NA,"SUPPRF53442"
"1",1705067446534,"12/01/2024 13:50:46",1705067446534,0,"12/01/2024 13:50:46",159402,5,"task-w25u",NA,34161528,10092266,NA,"rejected - time limit reached",NA,"65a13e9a34524cf2f4dd0256","computer","Desktop or Laptop","Mac OS 10.15.7","Chrome 120.0.0.0","1280x800","1280x713",NA,NA,0,"Task Introduction and Instructions (re-introduce video and audio)",1,"BCADJEIFHG","Passed AC2","","Spreadsheet1",NA,"","","",NA,"5","BEGIN",NA,NA,NA,NA,NA,NA,0,NA,NA,NA,NA,"","",NA,"","",NA,"SUPPRF58347"
"2",1705067549503,"12/01/2024 13:52:29",1705067549503,0,"12/01/2024 13:52:29",159402,5,"task-w25u",NA,34161528,10092266,NA,"rejected - time limit reached",NA,"65a13e9a34524cf2f4dd0256","computer","Desktop or Laptop","Mac OS 10.15.7","Chrome 120.0.0.0","1280x800","1280x713",NA,NA,0,"Task Introduction and Instructions (re-introduce video and audio)",1,"BCADJEIFHG","Passed AC2","","Spreadsheet1",1,"Task Instructions","Screen 1","anr7sn",1,"continue","",102913.4,102902.6,102913.4,102913.4,102902.6,102913.4,1,102913.4,0,0,NA,"Click To Continue","Continue Button",2,"object-1944","Task Instructions",NA,"SUPPRF58347"
"3",1705067561993,"12/01/2024 13:52:41",1705067561993,0,"12/01/2024 13:52:41",159402,5,"task-w25u",NA,34161528,10092266,NA,"rejected - time limit reached",NA,"65a13e9a34524cf2f4dd0256","computer","Desktop or Laptop","Mac OS 10.15.7","Chrome 120.0.0.0","1280x800","1280x713",NA,NA,0,"Task Introduction and Instructions (re-introduce video and audio)",1,"BCADJEIFHG","Passed AC2","","Spreadsheet1",1,"Task Instructions","Screen 2","ce2tc8",2,"continue","",12500.4999999881,12499,12500.4999999881,12500.4999999881,12499,12500.4999999881,1,12500.4999999881,0,0,NA,"Click To Continue","Continue Button",2,"object-7","Task Instructions",NA,"SUPPRF58347"
"4",1705067607901,"12/01/2024 13:53:27",1705067607901,0,"12/01/2024 13:53:27",159402,5,"task-w25u",NA,34161528,10092266,NA,"rejected - time limit reached",NA,"65a13e9a34524cf2f4dd0256","computer","Desktop or Laptop","Mac OS 10.15.7","Chrome 120.0.0.0","1280x800","1280x713",NA,NA,0,"Task Introduction and Instructions (re-introduce video and audio)",1,"BCADJEIFHG","Passed AC2","","Spreadsheet1",1,"Task Instructions","Screen 3","1qtc8v",3,"continue","",45908.0999999523,45896.5,45908.0999999523,45908.0999999523,45896.5,45908.0999999523,1,45908.0999999523,0,0,NA,"Click To Continue","Continue Button",2,"object-52","Task Instructions",NA,"SUPPRF58347"
"5",1705067629733,"12/01/2024 13:53:49",1705067629733,0,"12/01/2024 13:53:49",159402,5,"task-w25u",NA,34161528,10092266,NA,"rejected - time limit reached",NA,"65a13e9a34524cf2f4dd0256","computer","Desktop or Laptop","Mac OS 10.15.7","Chrome 120.0.0.0","1280x800","1280x713",NA,NA,0,"Task Introduction and Instructions (re-introduce video and audio)",1,"BCADJEIFHG","Passed AC2","","Spreadsheet1",1,"Task Instructions","Screen 4","spepx9",4,"continue","",21842.9999999881,21835.1,21842.9999999881,21842.9999999881,21835.1,21842.9999999881,1,21842.9999999881,0,0,NA,"Click To Continue","Continue Button",2,"object-9","Task Instructions",NA,"SUPPRF58347"
"6",1705067633219,"12/01/2024 13:53:53",1705067633219,0,"12/01/2024 13:53:53",159402,5,"task-w25u",NA,34161528,10092266,NA,"rejected - time limit reached",NA,"65a13e9a34524cf2f4dd0256","computer","Desktop or Laptop","Mac OS 10.15.7","Chrome 120.0.0.0","1280x800","1280x713",NA,NA,0,"Task Introduction and Instructions (re-introduce video and audio)",1,"BCADJEIFHG","Passed AC2","","Spreadsheet1",1,"Task Instructions","Screen 5","8nvnao",5,"continue","",3493.79999996425,3484.90000000002,3493.79999996425,3493.79999996425,3484.90000000002,3493.79999996425,1,3493.79999996425,0,0,NA,"Click To Continue","Continue Button",2,"object-44","Task Instructions",NA,"SUPPRF58347"
"7",1705067633224,"12/01/2024 13:53:53",1705067633224,0,"12/01/2024 13:53:53",159402,5,"task-w25u",NA,34161528,10092266,NA,"rejected - time limit reached",NA,"65a13e9a34524cf2f4dd0256","computer","Desktop or Laptop","Mac OS 10.15.7","Chrome 120.0.0.0","1280x800","1280x713",NA,NA,0,"Task Introduction and Instructions (re-introduce video and audio)",1,"BCADJEIFHG","Passed AC2","","Spreadsheet1",NA,"","","",NA,"5","END",NA,NA,NA,NA,NA,NA,0,NA,NA,NA,NA,"","",NA,"","",NA,"SUPPRF58347"
"1",1705068198166,"12/01/2024 14:03:18",1705068198166,0,"12/01/2024 14:03:18",159402,5,"task-w25u",NA,34161821,10092438,NA,"complete",NA,"65a1444298d477a2587dbcce","computer","Desktop or Laptop","Windows 10","Chrome 120.0.0.0","1920x1080","1920x919",NA,NA,0,"Task Introduction and Instructions (re-introduce video and audio)",1,"JAIBHCGDFE","Passed AC2","","Spreadsheet1",NA,"","","",NA,"5","BEGIN",NA,NA,NA,NA,NA,NA,0,NA,NA,NA,NA,"","",NA,"","",NA,"SUPPRF19283"
"2",1705068202250,"12/01/2024 14:03:22",1705068202250,0,"12/01/2024 14:03:22",159402,5,"task-w25u",NA,34161821,10092438,NA,"complete",NA,"65a1444298d477a2587dbcce","computer","Desktop or Laptop","Windows 10","Chrome 120.0.0.0","1920x1080","1920x919",NA,NA,0,"Task Introduction and Instructions (re-introduce video and audio)",1,"JAIBHCGDFE","Passed AC2","","Spreadsheet1",1,"Task Instructions","Screen 1","anr7sn",1,"continue","",3992.7,3979.4,3992.7,3992.7,3979.4,3992.7,1,3992.7,0,0,NA,"Click To Continue","Continue Button",2,"object-1944","Task Instructions",NA,"SUPPRF19283"
"3",1705068211381,"12/01/2024 14:03:31",1705068211381,0,"12/01/2024 14:03:31",159402,5,"task-w25u",NA,34161821,10092438,NA,"complete",NA,"65a1444298d477a2587dbcce","computer","Desktop or Laptop","Windows 10","Chrome 120.0.0.0","1920x1080","1920x919",NA,NA,0,"Task Introduction and Instructions (re-introduce video and audio)",1,"JAIBHCGDFE","Passed AC2","","Spreadsheet1",1,"Task Instructions","Screen 2","ce2tc8",2,"continue","",9141.7,9125.3,9141.7,9141.7,9125.3,9141.7,1,9141.7,0,0,NA,"Click To Continue","Continue Button",2,"object-7","Task Instructions",NA,"SUPPRF19283"
"4",1705068215085,"12/01/2024 14:03:35",1705068215085,0,"12/01/2024 14:03:35",159402,5,"task-w25u",NA,34161821,10092438,NA,"complete",NA,"65a1444298d477a2587dbcce","computer","Desktop or Laptop","Windows 10","Chrome 120.0.0.0","1920x1080","1920x919",NA,NA,0,"Task Introduction and Instructions (re-introduce video and audio)",1,"JAIBHCGDFE","Passed AC2","","Spreadsheet1",1,"Task Instructions","Screen 3","1qtc8v",3,"continue","",3723.29999999702,3713.6,3723.29999999702,3723.29999999702,3713.6,3723.29999999702,1,3723.29999999702,0,0,NA,"Click To Continue","Continue Button",2,"object-52","Task Instructions",NA,"SUPPRF19283"
"5",1705068243430,"12/01/2024 14:04:03",1705068243430,0,"12/01/2024 14:04:03",159402,5,"task-w25u",NA,34161821,10092438,NA,"complete",NA,"65a1444298d477a2587dbcce","computer","Desktop or Laptop","Windows 10","Chrome 120.0.0.0","1920x1080","1920x919",NA,NA,0,"Task Introduction and Instructions (re-introduce video and audio)",1,"JAIBHCGDFE","Passed AC2","","Spreadsheet1",1,"Task Instructions","Screen 4","spepx9",4,"continue","",28354.699999997,28341.6,28354.699999997,28354.699999997,28341.6,28354.699999997,1,28354.699999997,0,0,NA,"Click To Continue","Continue Button",2,"object-9","Task Instructions",NA,"SUPPRF19283"
"6",1705068247259,"12/01/2024 14:04:07",1705068247259,0,"12/01/2024 14:04:07",159402,5,"task-w25u",NA,34161821,10092438,NA,"complete",NA,"65a1444298d477a2587dbcce","computer","Desktop or Laptop","Windows 10","Chrome 120.0.0.0","1920x1080","1920x919",NA,NA,0,"Task Introduction and Instructions (re-introduce video and audio)",1,"JAIBHCGDFE","Passed AC2","","Spreadsheet1",1,"Task Instructions","Screen 5","8nvnao",5,"continue","",3842.19999999106,3830,3842.19999999106,3842.19999999106,3830,3842.19999999106,1,3842.19999999106,0,0,NA,"Click To Continue","Continue Button",2,"object-44","Task Instructions",NA,"SUPPRF19283"
"7",1705068247262,"12/01/2024 14:04:07",1705068247262,0,"12/01/2024 14:04:07",159402,5,"task-w25u",NA,34161821,10092438,NA,"complete",NA,"65a1444298d477a2587dbcce","computer","Desktop or Laptop","Windows 10","Chrome 120.0.0.0","1920x1080","1920x919",NA,NA,0,"Task Introduction and Instructions (re-introduce video and audio)",1,"JAIBHCGDFE","Passed AC2","","Spreadsheet1",NA,"","","",NA,"5","END",NA,NA,NA,NA,NA,NA,0,NA,NA,NA,NA,"","",NA,"","",NA,"SUPPRF19283"
"1",1705068322000,"12/01/2024 14:05:22",1705068322000,0,"12/01/2024 14:05:22",159402,5,"task-w25u",NA,34161899,10092431,NA,"complete",NA,"65a143f09dfe4b0e694834df","computer","Desktop or Laptop","Windows 10","Chrome 120.0.0.0","1286x608","1280x605",NA,NA,0,"Task Introduction and Instructions (re-introduce video and audio)",1,"IJHAGBFCED","Passed AC2","","Spreadsheet1",NA,"","","",NA,"5","BEGIN",NA,NA,NA,NA,NA,NA,0,NA,NA,NA,NA,"","",NA,"","",NA,"SUPPRF81044"
"2",1705068326787,"12/01/2024 14:05:26",1705068326787,0,"12/01/2024 14:05:26",159402,5,"task-w25u",NA,34161899,10092431,NA,"complete",NA,"65a143f09dfe4b0e694834df","computer","Desktop or Laptop","Windows 10","Chrome 120.0.0.0","1286x608","1280x605",NA,NA,0,"Task Introduction and Instructions (re-introduce video and audio)",1,"IJHAGBFCED","Passed AC2","","Spreadsheet1",1,"Task Instructions","Screen 1","anr7sn",1,"continue","",4720,4713,4720,4720,4713,4720,1,4720,0,0,NA,"Click To Continue","Continue Button",2,"object-1944","Task Instructions",NA,"SUPPRF81044"
"3",1705068338242,"12/01/2024 14:05:38",1705068338242,0,"12/01/2024 14:05:38",159402,5,"task-w25u",NA,34161899,10092431,NA,"complete",NA,"65a143f09dfe4b0e694834df","computer","Desktop or Laptop","Windows 10","Chrome 120.0.0.0","1286x608","1280x605",NA,NA,0,"Task Introduction and Instructions (re-introduce video and audio)",1,"IJHAGBFCED","Passed AC2","","Spreadsheet1",1,"Task Instructions","Screen 2","ce2tc8",2,"continue","",11462,11458,11462,11462,11458,11462,1,11462,0,0,NA,"Click To Continue","Continue Button",2,"object-7","Task Instructions",NA,"SUPPRF81044"
"4",1705068341735,"12/01/2024 14:05:41",1705068341735,0,"12/01/2024 14:05:41",159402,5,"task-w25u",NA,34161899,10092431,NA,"complete",NA,"65a143f09dfe4b0e694834df","computer","Desktop or Laptop","Windows 10","Chrome 120.0.0.0","1286x608","1280x605",NA,NA,0,"Task Introduction and Instructions (re-introduce video and audio)",1,"IJHAGBFCED","Passed AC2","","Spreadsheet1",1,"Task Instructions","Screen 3","1qtc8v",3,"continue","",3497,3480,3497,3497,3480,3497,1,3497,0,0,NA,"Click To Continue","Continue Button",2,"object-52","Task Instructions",NA,"SUPPRF81044"
"5",1705068345184,"12/01/2024 14:05:45",1705068345184,0,"12/01/2024 14:05:45",159402,5,"task-w25u",NA,34161899,10092431,NA,"complete",NA,"65a143f09dfe4b0e694834df","computer","Desktop or Laptop","Windows 10","Chrome 120.0.0.0","1286x608","1280x605",NA,NA,0,"Task Introduction and Instructions (re-introduce video and audio)",1,"IJHAGBFCED","Passed AC2","","Spreadsheet1",1,"Task Instructions","Screen 4","spepx9",4,"continue","",3467,3463,3467,3467,3463,3467,1,3467,0,0,NA,"Click To Continue","Continue Button",2,"object-9","Task Instructions",NA,"SUPPRF81044"
"6",1705068348188,"12/01/2024 14:05:48",1705068348188,0,"12/01/2024 14:05:48",159402,5,"task-w25u",NA,34161899,10092431,NA,"complete",NA,"65a143f09dfe4b0e694834df","computer","Desktop or Laptop","Windows 10","Chrome 120.0.0.0","1286x608","1280x605",NA,NA,0,"Task Introduction and Instructions (re-introduce video and audio)",1,"IJHAGBFCED","Passed AC2","","Spreadsheet1",1,"Task Instructions","Screen 5","8nvnao",5,"continue","",3008,2998,3008,3008,2998,3008,1,3008,0,0,NA,"Click To Continue","Continue Button",2,"object-44","Task Instructions",NA,"SUPPRF81044"
"7",1705068348190,"12/01/2024 14:05:48",1705068348190,0,"12/01/2024 14:05:48",159402,5,"task-w25u",NA,34161899,10092431,NA,"complete",NA,"65a143f09dfe4b0e694834df","computer","Desktop or Laptop","Windows 10","Chrome 120.0.0.0","1286x608","1280x605",NA,NA,0,"Task Introduction and Instructions (re-introduce video and audio)",1,"IJHAGBFCED","Passed AC2","","Spreadsheet1",NA,"","","",NA,"5","END",NA,NA,NA,NA,NA,NA,0,NA,NA,NA,NA,"","",NA,"","",NA,"SUPPRF81044"
"1",1705068661879,"12/01/2024 14:11:01",1705068661879,0,"12/01/2024 14:11:01",159402,5,"task-w25u",NA,34162119,10092474,NA,"complete",NA,"65a144f640468d7e7900997a","computer","Desktop or Laptop","Windows 10","Chrome 120.0.0.0","1920x1080","1920x921",NA,NA,0,"Task Introduction and Instructions (re-introduce video and audio)",1,"ABJCIDHEGF","Passed AC2","","Spreadsheet1",NA,"","","",NA,"5","BEGIN",NA,NA,NA,NA,NA,NA,0,NA,NA,NA,NA,"","",NA,"","",NA,"SUPPRF32005"
"2",1705068665229,"12/01/2024 14:11:05",1705068665229,0,"12/01/2024 14:11:05",159402,5,"task-w25u",NA,34162119,10092474,NA,"complete",NA,"65a144f640468d7e7900997a","computer","Desktop or Laptop","Windows 10","Chrome 120.0.0.0","1920x1080","1920x921",NA,NA,0,"Task Introduction and Instructions (re-introduce video and audio)",1,"ABJCIDHEGF","Passed AC2","","Spreadsheet1",1,"Task Instructions","Screen 1","anr7sn",1,"continue","",3301.89999999404,3295,3301.89999999404,3301.89999999404,3295,3301.89999999404,1,3301.89999999404,0,0,NA,"Click To Continue","Continue Button",2,"object-1944","Task Instructions",NA,"SUPPRF32005"
"3",1705068826523,"12/01/2024 14:13:46",1705068826523,0,"12/01/2024 14:13:46",159402,5,"task-w25u",NA,34162119,10092474,NA,"complete",NA,"65a144f640468d7e7900997a","computer","Desktop or Laptop","Windows 10","Chrome 120.0.0.0","1920x1080","1920x921",NA,NA,0,"Task Introduction and Instructions (re-introduce video and audio)",1,"ABJCIDHEGF","Passed AC2","","Spreadsheet1",1,"Task Instructions","Screen 2","ce2tc8",2,"continue","",161301.6,161284.5,161301.6,161301.6,161284.5,161301.6,1,161301.6,0,0,NA,"Click To Continue","Continue Button",2,"object-7","Task Instructions",NA,"SUPPRF32005"
"4",1705068829855,"12/01/2024 14:13:49",1705068829855,0,"12/01/2024 14:13:49",159402,5,"task-w25u",NA,34162119,10092474,NA,"complete",NA,"65a144f640468d7e7900997a","computer","Desktop or Laptop","Windows 10","Chrome 120.0.0.0","1920x1080","1920x921",NA,NA,0,"Task Introduction and Instructions (re-introduce video and audio)",1,"ABJCIDHEGF","Passed AC2","","Spreadsheet1",1,"Task Instructions","Screen 3","1qtc8v",3,"continue","",3349.79999999999,3338.39999999999,3349.79999999999,3349.79999999999,3338.39999999999,3349.79999999999,1,3349.79999999999,0,0,NA,"Click To Continue","Continue Button",2,"object-52","Task Instructions",NA,"SUPPRF32005"
"5",1705068906758,"12/01/2024 14:15:06",1705068906758,0,"12/01/2024 14:15:06",159402,5,"task-w25u",NA,34162119,10092474,NA,"complete",NA,"65a144f640468d7e7900997a","computer","Desktop or Laptop","Windows 10","Chrome 120.0.0.0","1920x1080","1920x921",NA,NA,0,"Task Introduction and Instructions (re-introduce video and audio)",1,"ABJCIDHEGF","Passed AC2","","Spreadsheet1",1,"Task Instructions","Screen 4","spepx9",4,"continue","",76912.999999994,76900.7,76912.999999994,76912.999999994,76900.7,76912.999999994,1,76912.999999994,0,0,NA,"Click To Continue","Continue Button",2,"object-9","Task Instructions",NA,"SUPPRF32005"
"6",1705068909905,"12/01/2024 14:15:09",1705068909905,0,"12/01/2024 14:15:09",159402,5,"task-w25u",NA,34162119,10092474,NA,"complete",NA,"65a144f640468d7e7900997a","computer","Desktop or Laptop","Windows 10","Chrome 120.0.0.0","1920x1080","1920x921",NA,NA,0,"Task Introduction and Instructions (re-introduce video and audio)",1,"ABJCIDHEGF","Passed AC2","","Spreadsheet1",1,"Task Instructions","Screen 5","8nvnao",5,"continue","",3159.79999999405,3146.5,3159.79999999405,3159.79999999405,3146.5,3159.79999999405,1,3159.79999999405,0,0,NA,"Click To Continue","Continue Button",2,"object-44","Task Instructions",NA,"SUPPRF32005"
"7",1705068909907,"12/01/2024 14:15:09",1705068909907,0,"12/01/2024 14:15:09",159402,5,"task-w25u",NA,34162119,10092474,NA,"complete",NA,"65a144f640468d7e7900997a","computer","Desktop or Laptop","Windows 10","Chrome 120.0.0.0","1920x1080","1920x921",NA,NA,0,"Task Introduction and Instructions (re-introduce video and audio)",1,"ABJCIDHEGF","Passed AC2","","Spreadsheet1",NA,"","","",NA,"5","END",NA,NA,NA,NA,NA,NA,0,NA,NA,NA,NA,"","",NA,"","",NA,"SUPPRF32005"
"1",1705068770642,"12/01/2024 14:12:50",1705068770642,0,"12/01/2024 14:12:50",159402,5,"task-w25u",NA,34162189,10092500,NA,"complete",NA,"65a1468496048e77437194c7","computer","Desktop or Laptop","Mac OS 10.15.7","Chrome 120.0.0.0","1440x900","1018x697",NA,NA,0,"Task Introduction and Instructions (re-introduce video and audio)",1,"BCADJEIFHG","Passed AC2","","Spreadsheet1",NA,"","","",NA,"5","BEGIN",NA,NA,NA,NA,NA,NA,0,NA,NA,NA,NA,"","",NA,"","",NA,"SUPPRF78530"
"2",1705068773522,"12/01/2024 14:12:53",1705068773522,0,"12/01/2024 14:12:53",159402,5,"task-w25u",NA,34162189,10092500,NA,"complete",NA,"65a1468496048e77437194c7","computer","Desktop or Laptop","Mac OS 10.15.7","Chrome 120.0.0.0","1440x900","1018x697",NA,NA,0,"Task Introduction and Instructions (re-introduce video and audio)",1,"BCADJEIFHG","Passed AC2","","Spreadsheet1",1,"Task Instructions","Screen 1","anr7sn",1,"continue","",2823.69999980927,2816.5,2823.69999980927,2823.69999980927,2816.5,2823.69999980927,1,2823.69999980927,0,0,NA,"Click To Continue","Continue Button",2,"object-1944","Task Instructions",NA,"SUPPRF78530"
"3",1705068779711,"12/01/2024 14:12:59",1705068779711,0,"12/01/2024 14:12:59",159402,5,"task-w25u",NA,34162189,10092500,NA,"complete",NA,"65a1468496048e77437194c7","computer","Desktop or Laptop","Mac OS 10.15.7","Chrome 120.0.0.0","1440x900","1018x697",NA,NA,0,"Task Introduction and Instructions (re-introduce video and audio)",1,"BCADJEIFHG","Passed AC2","","Spreadsheet1",1,"Task Instructions","Screen 2","ce2tc8",2,"continue","",6195.80000019073,6183.6,6195.80000019073,6195.80000019073,6183.6,6195.80000019073,1,6195.80000019073,0,0,NA,"Click To Continue","Continue Button",2,"object-7","Task Instructions",NA,"SUPPRF78530"
"4",1705068782555,"12/01/2024 14:13:02",1705068782555,0,"12/01/2024 14:13:02",159402,5,"task-w25u",NA,34162189,10092500,NA,"complete",NA,"65a1468496048e77437194c7","computer","Desktop or Laptop","Mac OS 10.15.7","Chrome 120.0.0.0","1440x900","1018x697",NA,NA,0,"Task Introduction and Instructions (re-introduce video and audio)",1,"BCADJEIFHG","Passed AC2","","Spreadsheet1",1,"Task Instructions","Screen 3","1qtc8v",3,"continue","",2856.9,2849.9,2856.9,2856.9,2849.9,2856.9,1,2856.9,0,0,NA,"Click To Continue","Continue Button",2,"object-52","Task Instructions",NA,"SUPPRF78530"
"5",1705068862093,"12/01/2024 14:14:22",1705068862093,0,"12/01/2024 14:14:22",159402,5,"task-w25u",NA,34162189,10092500,NA,"complete",NA,"65a1468496048e77437194c7","computer","Desktop or Laptop","Mac OS 10.15.7","Chrome 120.0.0.0","1440x900","1018x697",NA,NA,0,"Task Introduction and Instructions (re-introduce video and audio)",1,"BCADJEIFHG","Passed AC2","","Spreadsheet1",1,"Task Instructions","Screen 4","spepx9",4,"continue","",79544.8000001907,79533.7,79544.8000001907,79544.8000001907,79533.7,79544.8000001907,1,79544.8000001907,0,0,NA,"Click To Continue","Continue Button",2,"object-9","Task Instructions",NA,"SUPPRF78530"
"6",1705068865073,"12/01/2024 14:14:25",1705068865073,0,"12/01/2024 14:14:25",159402,5,"task-w25u",NA,34162189,10092500,NA,"complete",NA,"65a1468496048e77437194c7","computer","Desktop or Laptop","Mac OS 10.15.7","Chrome 120.0.0.0","1440x900","1018x697",NA,NA,0,"Task Introduction and Instructions (re-introduce video and audio)",1,"BCADJEIFHG","Passed AC2","","Spreadsheet1",1,"Task Instructions","Screen 5","8nvnao",5,"continue","",2991.8,2984.3,2991.8,2991.8,2984.3,2991.8,1,2991.8,0,0,NA,"Click To Continue","Continue Button",2,"object-44","Task Instructions",NA,"SUPPRF78530"
"7",1705068865076,"12/01/2024 14:14:25",1705068865076,0,"12/01/2024 14:14:25",159402,5,"task-w25u",NA,34162189,10092500,NA,"complete",NA,"65a1468496048e77437194c7","computer","Desktop or Laptop","Mac OS 10.15.7","Chrome 120.0.0.0","1440x900","1018x697",NA,NA,0,"Task Introduction and Instructions (re-introduce video and audio)",1,"BCADJEIFHG","Passed AC2","","Spreadsheet1",NA,"","","",NA,"5","END",NA,NA,NA,NA,NA,NA,0,NA,NA,NA,NA,"","",NA,"","",NA,"SUPPRF78530"
"1",1705068807393,"12/01/2024 14:13:27",1705072407393,1,"12/01/2024 16:13:27",159402,5,"task-w25u",NA,34162203,10092350,NA,"complete",NA,"65a14121ab0b2cb97c719396","computer","Desktop or Laptop","Windows 10","Chrome 120.0.0.0","1600x900","1600x773",NA,NA,0,"Task Introduction and Instructions (re-introduce video and audio)",1,"EFDGCHBIAJ","Passed AC2","","Spreadsheet1",NA,"","","",NA,"5","BEGIN",NA,NA,NA,NA,NA,NA,0,NA,NA,NA,NA,"","",NA,"","",NA,"SUPPRF54646"
"2",1705068819012,"12/01/2024 14:13:39",1705072419012,1,"12/01/2024 16:13:39",159402,5,"task-w25u",NA,34162203,10092350,NA,"complete",NA,"65a14121ab0b2cb97c719396","computer","Desktop or Laptop","Windows 10","Chrome 120.0.0.0","1600x900","1600x773",NA,NA,0,"Task Introduction and Instructions (re-introduce video and audio)",1,"EFDGCHBIAJ","Passed AC2","","Spreadsheet1",1,"Task Instructions","Screen 1","anr7sn",1,"continue","",10150.9,10134.2,10150.9,10150.9,10134.2,10150.9,1,10150.9,0,0,NA,"Click To Continue","Continue Button",2,"object-1944","Task Instructions",NA,"SUPPRF54646"
"3",1705068829813,"12/01/2024 14:13:49",1705072429813,1,"12/01/2024 16:13:49",159402,5,"task-w25u",NA,34162203,10092350,NA,"complete",NA,"65a14121ab0b2cb97c719396","computer","Desktop or Laptop","Windows 10","Chrome 120.0.0.0","1600x900","1600x773",NA,NA,0,"Task Introduction and Instructions (re-introduce video and audio)",1,"EFDGCHBIAJ","Passed AC2","","Spreadsheet1",1,"Task Instructions","Screen 2","ce2tc8",2,"continue","",10820.1999999881,10817.5,10820.1999999881,10820.1999999881,10817.5,10820.1999999881,1,10820.1999999881,0,0,NA,"Click To Continue","Continue Button",2,"object-7","Task Instructions",NA,"SUPPRF54646"
"4",1705068833558,"12/01/2024 14:13:53",1705072433558,1,"12/01/2024 16:13:53",159402,5,"task-w25u",NA,34162203,10092350,NA,"complete",NA,"65a14121ab0b2cb97c719396","computer","Desktop or Laptop","Windows 10","Chrome 120.0.0.0","1600x900","1600x773",NA,NA,0,"Task Introduction and Instructions (re-introduce video and audio)",1,"EFDGCHBIAJ","Passed AC2","","Spreadsheet1",1,"Task Instructions","Screen 3","1qtc8v",3,"continue","",3747.90000000596,3733.7,3747.90000000596,3747.90000000596,3733.7,3747.90000000596,1,3747.90000000596,0,0,NA,"Click To Continue","Continue Button",2,"object-52","Task Instructions",NA,"SUPPRF54646"
"5",1705068838026,"12/01/2024 14:13:58",1705072438026,1,"12/01/2024 16:13:58",159402,5,"task-w25u",NA,34162203,10092350,NA,"complete",NA,"65a14121ab0b2cb97c719396","computer","Desktop or Laptop","Windows 10","Chrome 120.0.0.0","1600x900","1600x773",NA,NA,0,"Task Introduction and Instructions (re-introduce video and audio)",1,"EFDGCHBIAJ","Passed AC2","","Spreadsheet1",1,"Task Instructions","Screen 4","spepx9",4,"continue","",4482.3,4467.10000000001,4482.3,4482.3,4467.10000000001,4482.3,1,4482.3,0,0,NA,"Click To Continue","Continue Button",2,"object-9","Task Instructions",NA,"SUPPRF54646"
"6",1705068841151,"12/01/2024 14:14:01",1705072441151,1,"12/01/2024 16:14:01",159402,5,"task-w25u",NA,34162203,10092350,NA,"complete",NA,"65a14121ab0b2cb97c719396","computer","Desktop or Laptop","Windows 10","Chrome 120.0.0.0","1600x900","1600x773",NA,NA,0,"Task Introduction and Instructions (re-introduce video and audio)",1,"EFDGCHBIAJ","Passed AC2","","Spreadsheet1",1,"Task Instructions","Screen 5","8nvnao",5,"continue","",3139.60000000596,3133.5,3139.60000000596,3139.60000000596,3133.5,3139.60000000596,1,3139.60000000596,0,0,NA,"Click To Continue","Continue Button",2,"object-44","Task Instructions",NA,"SUPPRF54646"
"7",1705068841162,"12/01/2024 14:14:01",1705072441162,1,"12/01/2024 16:14:01",159402,5,"task-w25u",NA,34162203,10092350,NA,"complete",NA,"65a14121ab0b2cb97c719396","computer","Desktop or Laptop","Windows 10","Chrome 120.0.0.0","1600x900","1600x773",NA,NA,0,"Task Introduction and Instructions (re-introduce video and audio)",1,"EFDGCHBIAJ","Passed AC2","","Spreadsheet1",NA,"","","",NA,"5","END",NA,NA,NA,NA,NA,NA,0,NA,NA,NA,NA,"","",NA,"","",NA,"SUPPRF54646"
"1",1705068885566,"12/01/2024 14:14:45",1705072485566,1,"12/01/2024 16:14:45",159402,5,"task-w25u",NA,34162242,10092328,NA,"rejected - time limit reached",NA,"65a140c1207f7e97be430a58","computer","Desktop or Laptop","Windows 10","Chrome 120.0.0.0","1366x768","1366x607",NA,NA,0,"Task Introduction and Instructions (re-introduce video and audio)",1,"GHFIEJDACB","Passed AC2","","Spreadsheet1",NA,"","","",NA,"5","BEGIN",NA,NA,NA,NA,NA,NA,0,NA,NA,NA,NA,"","",NA,"","",NA,"SUPPRF48132"
"2",1705068914325,"12/01/2024 14:15:14",1705072514325,1,"12/01/2024 16:15:14",159402,5,"task-w25u",NA,34162242,10092328,NA,"rejected - time limit reached",NA,"65a140c1207f7e97be430a58","computer","Desktop or Laptop","Windows 10","Chrome 120.0.0.0","1366x768","1366x607",NA,NA,0,"Task Introduction and Instructions (re-introduce video and audio)",1,"GHFIEJDACB","Passed AC2","","Spreadsheet1",1,"Task Instructions","Screen 1","anr7sn",1,"continue","",27290.5,27273.7,27290.5,27290.5,27273.7,27290.5,1,27290.5,0,0,NA,"Click To Continue","Continue Button",2,"object-1944","Task Instructions",NA,"SUPPRF48132"
"3",1705068963961,"12/01/2024 14:16:03",1705072563961,1,"12/01/2024 16:16:03",159402,5,"task-w25u",NA,34162242,10092328,NA,"rejected - time limit reached",NA,"65a140c1207f7e97be430a58","computer","Desktop or Laptop","Windows 10","Chrome 120.0.0.0","1366x768","1366x607",NA,NA,0,"Task Introduction and Instructions (re-introduce video and audio)",1,"GHFIEJDACB","Passed AC2","","Spreadsheet1",1,"Task Instructions","Screen 2","ce2tc8",2,"continue","",49657.4999999911,49645.3,49657.4999999911,49657.4999999911,49645.3,49657.4999999911,1,49657.4999999911,0,0,NA,"Click To Continue","Continue Button",2,"object-7","Task Instructions",NA,"SUPPRF48132"
"4",1705068968929,"12/01/2024 14:16:08",1705072568929,1,"12/01/2024 16:16:08",159402,5,"task-w25u",NA,34162242,10092328,NA,"rejected - time limit reached",NA,"65a140c1207f7e97be430a58","computer","Desktop or Laptop","Windows 10","Chrome 120.0.0.0","1366x768","1366x607",NA,NA,0,"Task Introduction and Instructions (re-introduce video and audio)",1,"GHFIEJDACB","Passed AC2","","Spreadsheet1",1,"Task Instructions","Screen 3","1qtc8v",3,"continue","",4981.3,4968.2,4981.3,4981.3,4968.2,4981.3,1,4981.3,0,0,NA,"Click To Continue","Continue Button",2,"object-52","Task Instructions",NA,"SUPPRF48132"
"5",1705068972448,"12/01/2024 14:16:12",1705072572448,1,"12/01/2024 16:16:12",159402,5,"task-w25u",NA,34162242,10092328,NA,"rejected - time limit reached",NA,"65a140c1207f7e97be430a58","computer","Desktop or Laptop","Windows 10","Chrome 120.0.0.0","1366x768","1366x607",NA,NA,0,"Task Introduction and Instructions (re-introduce video and audio)",1,"GHFIEJDACB","Passed AC2","","Spreadsheet1",1,"Task Instructions","Screen 4","spepx9",4,"continue","",3531.49999999107,3517.70000000001,3531.49999999107,3531.49999999107,3517.70000000001,3531.49999999107,1,3531.49999999107,0,0,NA,"Click To Continue","Continue Button",2,"object-9","Task Instructions",NA,"SUPPRF48132"
"6",1705068989686,"12/01/2024 14:16:29",1705072589686,1,"12/01/2024 16:16:29",159402,5,"task-w25u",NA,34162242,10092328,NA,"rejected - time limit reached",NA,"65a140c1207f7e97be430a58","computer","Desktop or Laptop","Windows 10","Chrome 120.0.0.0","1366x768","1366x607",NA,NA,0,"Task Introduction and Instructions (re-introduce video and audio)",1,"GHFIEJDACB","Passed AC2","","Spreadsheet1",1,"Task Instructions","Screen 5","8nvnao",5,"continue","",17251.5999999881,17237.6,17251.5999999881,17251.5999999881,17237.6,17251.5999999881,1,17251.5999999881,0,0,NA,"Click To Continue","Continue Button",2,"object-44","Task Instructions",NA,"SUPPRF48132"
"7",1705068989720,"12/01/2024 14:16:29",1705072589720,1,"12/01/2024 16:16:29",159402,5,"task-w25u",NA,34162242,10092328,NA,"rejected - time limit reached",NA,"65a140c1207f7e97be430a58","computer","Desktop or Laptop","Windows 10","Chrome 120.0.0.0","1366x768","1366x607",NA,NA,0,"Task Introduction and Instructions (re-introduce video and audio)",1,"GHFIEJDACB","Passed AC2","","Spreadsheet1",NA,"","","",NA,"5","END",NA,NA,NA,NA,NA,NA,0,NA,NA,NA,NA,"","",NA,"","",NA,"SUPPRF48132"
"1",1705069393460,"12/01/2024 14:23:13",1705069393460,0,"12/01/2024 14:23:13",159402,5,"task-w25u",NA,34162554,10092547,NA,"complete",NA,"65a147618511659de5c88fb9","computer","Desktop or Laptop","Windows 10","Chrome 120.0.0.0","1707x1067","1707x898",NA,NA,0,"Task Introduction and Instructions (re-introduce video and audio)",1,"CDBEAFJGIH","Passed AC2","","Spreadsheet1",NA,"","","",NA,"5","BEGIN",NA,NA,NA,NA,NA,NA,0,NA,NA,NA,NA,"","",NA,"","",NA,"SUPPRF46014"
"2",1705069402406,"12/01/2024 14:23:22",1705069402406,0,"12/01/2024 14:23:22",159402,5,"task-w25u",NA,34162554,10092547,NA,"complete",NA,"65a147618511659de5c88fb9","computer","Desktop or Laptop","Windows 10","Chrome 120.0.0.0","1707x1067","1707x898",NA,NA,0,"Task Introduction and Instructions (re-introduce video and audio)",1,"CDBEAFJGIH","Passed AC2","","Spreadsheet1",1,"Task Instructions","Screen 1","anr7sn",1,"continue","",8914.99999999963,8909.3,8914.99999999963,8914.99999999963,8909.3,8914.99999999963,1,8914.99999999963,0,0,NA,"Click To Continue","Continue Button",2,"object-1944","Task Instructions",NA,"SUPPRF46014"
"3",1705069415492,"12/01/2024 14:23:35",1705069415492,0,"12/01/2024 14:23:35",159402,5,"task-w25u",NA,34162554,10092547,NA,"complete",NA,"65a147618511659de5c88fb9","computer","Desktop or Laptop","Windows 10","Chrome 120.0.0.0","1707x1067","1707x898",NA,NA,0,"Task Introduction and Instructions (re-introduce video and audio)",1,"CDBEAFJGIH","Passed AC2","","Spreadsheet1",1,"Task Instructions","Screen 2","ce2tc8",2,"continue","",13092.1999999996,13080,13092.1999999996,13092.1999999996,13080,13092.1999999996,1,13092.1999999996,0,0,NA,"Click To Continue","Continue Button",2,"object-7","Task Instructions",NA,"SUPPRF46014"
"4",1705069419788,"12/01/2024 14:23:39",1705069419788,0,"12/01/2024 14:23:39",159402,5,"task-w25u",NA,34162554,10092547,NA,"complete",NA,"65a147618511659de5c88fb9","computer","Desktop or Laptop","Windows 10","Chrome 120.0.0.0","1707x1067","1707x898",NA,NA,0,"Task Introduction and Instructions (re-introduce video and audio)",1,"CDBEAFJGIH","Passed AC2","","Spreadsheet1",1,"Task Instructions","Screen 3","1qtc8v",3,"continue","",4308.50000000037,4304.5,4308.50000000037,4308.50000000037,4304.5,4308.50000000037,1,4308.50000000037,0,0,NA,"Click To Continue","Continue Button",2,"object-52","Task Instructions",NA,"SUPPRF46014"
"5",1705069422563,"12/01/2024 14:23:42",1705069422563,0,"12/01/2024 14:23:42",159402,5,"task-w25u",NA,34162554,10092547,NA,"complete",NA,"65a147618511659de5c88fb9","computer","Desktop or Laptop","Windows 10","Chrome 120.0.0.0","1707x1067","1707x898",NA,NA,0,"Task Introduction and Instructions (re-introduce video and audio)",1,"CDBEAFJGIH","Passed AC2","","Spreadsheet1",1,"Task Instructions","Screen 4","spepx9",4,"continue","",2778.69999999963,2769.5,2778.69999999963,2778.69999999963,2769.5,2778.69999999963,1,2778.69999999963,0,0,NA,"Click To Continue","Continue Button",2,"object-9","Task Instructions",NA,"SUPPRF46014"
"6",1705069425479,"12/01/2024 14:23:45",1705069425479,0,"12/01/2024 14:23:45",159402,5,"task-w25u",NA,34162554,10092547,NA,"complete",NA,"65a147618511659de5c88fb9","computer","Desktop or Laptop","Windows 10","Chrome 120.0.0.0","1707x1067","1707x898",NA,NA,0,"Task Introduction and Instructions (re-introduce video and audio)",1,"CDBEAFJGIH","Passed AC2","","Spreadsheet1",1,"Task Instructions","Screen 5","8nvnao",5,"continue","",2925.19999999963,2919.6,2925.19999999963,2925.19999999963,2919.6,2925.19999999963,1,2925.19999999963,0,0,NA,"Click To Continue","Continue Button",2,"object-44","Task Instructions",NA,"SUPPRF46014"
"7",1705069425480,"12/01/2024 14:23:45",1705069425480,0,"12/01/2024 14:23:45",159402,5,"task-w25u",NA,34162554,10092547,NA,"complete",NA,"65a147618511659de5c88fb9","computer","Desktop or Laptop","Windows 10","Chrome 120.0.0.0","1707x1067","1707x898",NA,NA,0,"Task Introduction and Instructions (re-introduce video and audio)",1,"CDBEAFJGIH","Passed AC2","","Spreadsheet1",NA,"","","",NA,"5","END",NA,NA,NA,NA,NA,NA,0,NA,NA,NA,NA,"","",NA,"","",NA,"SUPPRF46014"
"1",1705070275406,"12/01/2024 14:37:55",1705070275406,0,"12/01/2024 14:37:55",159402,5,"task-w25u",NA,34163187,10092746,NA,"complete",NA,"65a14cd1a3191f00e7c88ffb","computer","Desktop or Laptop","Windows 10","Chrome 120.0.0.0","1920x1080","1920x963",NA,NA,0,"Task Introduction and Instructions (re-introduce video and audio)",1,"IJHAGBFCED","Passed AC2","","Spreadsheet1",NA,"","","",NA,"5","BEGIN",NA,NA,NA,NA,NA,NA,0,NA,NA,NA,NA,"","",NA,"","",NA,"SUPPRF51545"
"2",1705070278683,"12/01/2024 14:37:58",1705070278683,0,"12/01/2024 14:37:58",159402,5,"task-w25u",NA,34163187,10092746,NA,"complete",NA,"65a14cd1a3191f00e7c88ffb","computer","Desktop or Laptop","Windows 10","Chrome 120.0.0.0","1920x1080","1920x963",NA,NA,0,"Task Introduction and Instructions (re-introduce video and audio)",1,"IJHAGBFCED","Passed AC2","","Spreadsheet1",1,"Task Instructions","Screen 1","anr7sn",1,"continue","",3265.2,3250,3265.2,3265.2,3250,3265.2,1,3265.2,0,0,NA,"Click To Continue","Continue Button",2,"object-1944","Task Instructions",NA,"SUPPRF51545"
"3",1705070285269,"12/01/2024 14:38:05",1705070285269,0,"12/01/2024 14:38:05",159402,5,"task-w25u",NA,34163187,10092746,NA,"complete",NA,"65a14cd1a3191f00e7c88ffb","computer","Desktop or Laptop","Windows 10","Chrome 120.0.0.0","1920x1080","1920x963",NA,NA,0,"Task Introduction and Instructions (re-introduce video and audio)",1,"IJHAGBFCED","Passed AC2","","Spreadsheet1",1,"Task Instructions","Screen 2","ce2tc8",2,"continue","",6601.2,6600.1,6601.2,6601.2,6600.1,6601.2,1,6601.2,0,0,NA,"Click To Continue","Continue Button",2,"object-7","Task Instructions",NA,"SUPPRF51545"
"4",1705070294224,"12/01/2024 14:38:14",1705070294224,0,"12/01/2024 14:38:14",159402,5,"task-w25u",NA,34163187,10092746,NA,"complete",NA,"65a14cd1a3191f00e7c88ffb","computer","Desktop or Laptop","Windows 10","Chrome 120.0.0.0","1920x1080","1920x963",NA,NA,0,"Task Introduction and Instructions (re-introduce video and audio)",1,"IJHAGBFCED","Passed AC2","","Spreadsheet1",1,"Task Instructions","Screen 3","1qtc8v",3,"continue","",8956.80000000298,8949.9,8956.80000000298,8956.80000000298,8949.9,8956.80000000298,1,8956.80000000298,0,0,NA,"Click To Continue","Continue Button",2,"object-52","Task Instructions",NA,"SUPPRF51545"
"5",1705070300355,"12/01/2024 14:38:20",1705070300355,0,"12/01/2024 14:38:20",159402,5,"task-w25u",NA,34163187,10092746,NA,"complete",NA,"65a14cd1a3191f00e7c88ffb","computer","Desktop or Laptop","Windows 10","Chrome 120.0.0.0","1920x1080","1920x963",NA,NA,0,"Task Introduction and Instructions (re-introduce video and audio)",1,"IJHAGBFCED","Passed AC2","","Spreadsheet1",1,"Task Instructions","Screen 4","spepx9",4,"continue","",6138.00000000447,6133.2,6138.00000000447,6138.00000000447,6133.2,6138.00000000447,1,6138.00000000447,0,0,NA,"Click To Continue","Continue Button",2,"object-9","Task Instructions",NA,"SUPPRF51545"
"6",1705070303717,"12/01/2024 14:38:23",1705070303717,0,"12/01/2024 14:38:23",159402,5,"task-w25u",NA,34163187,10092746,NA,"complete",NA,"65a14cd1a3191f00e7c88ffb","computer","Desktop or Laptop","Windows 10","Chrome 120.0.0.0","1920x1080","1920x963",NA,NA,0,"Task Introduction and Instructions (re-introduce video and audio)",1,"IJHAGBFCED","Passed AC2","","Spreadsheet1",1,"Task Instructions","Screen 5","8nvnao",5,"continue","",3366.89999999851,3350.1,3366.89999999851,3366.89999999851,3350.1,3366.89999999851,1,3366.89999999851,0,0,NA,"Click To Continue","Continue Button",2,"object-44","Task Instructions",NA,"SUPPRF51545"
"7",1705070303718,"12/01/2024 14:38:23",1705070303718,0,"12/01/2024 14:38:23",159402,5,"task-w25u",NA,34163187,10092746,NA,"complete",NA,"65a14cd1a3191f00e7c88ffb","computer","Desktop or Laptop","Windows 10","Chrome 120.0.0.0","1920x1080","1920x963",NA,NA,0,"Task Introduction and Instructions (re-introduce video and audio)",1,"IJHAGBFCED","Passed AC2","","Spreadsheet1",NA,"","","",NA,"5","END",NA,NA,NA,NA,NA,NA,0,NA,NA,NA,NA,"","",NA,"","",NA,"SUPPRF51545"
"1",1705070348763,"12/01/2024 14:39:08",1705070348763,0,"12/01/2024 14:39:08",159402,5,"task-w25u",NA,34163246,10092679,NA,"complete",NA,"65a14b4c4872a40fd4423319","computer","Desktop or Laptop","Mac OS 10.15.7","Chrome 120.0.0.0","1440x900","821x644",NA,NA,0,"Task Introduction and Instructions (re-introduce video and audio)",1,"GHFIEJDACB","Passed AC2","","Spreadsheet1",NA,"","","",NA,"5","BEGIN",NA,NA,NA,NA,NA,NA,0,NA,NA,NA,NA,"","",NA,"","",NA,"SUPPRF63428"
"2",1705070354582,"12/01/2024 14:39:14",1705070354582,0,"12/01/2024 14:39:14",159402,5,"task-w25u",NA,34163246,10092679,NA,"complete",NA,"65a14b4c4872a40fd4423319","computer","Desktop or Laptop","Mac OS 10.15.7","Chrome 120.0.0.0","1440x900","821x644",NA,NA,0,"Task Introduction and Instructions (re-introduce video and audio)",1,"GHFIEJDACB","Passed AC2","","Spreadsheet1",1,"Task Instructions","Screen 1","anr7sn",1,"continue","",5711.99999999963,5700.5,5711.99999999963,5711.99999999963,5700.5,5711.99999999963,1,5711.99999999963,0,0,NA,"Click To Continue","Continue Button",2,"object-1944","Task Instructions",NA,"SUPPRF63428"
"3",1705070360264,"12/01/2024 14:39:20",1705070360264,0,"12/01/2024 14:39:20",159402,5,"task-w25u",NA,34163246,10092679,NA,"complete",NA,"65a14b4c4872a40fd4423319","computer","Desktop or Laptop","Mac OS 10.15.7","Chrome 120.0.0.0","1440x900","821x644",NA,NA,0,"Task Introduction and Instructions (re-introduce video and audio)",1,"GHFIEJDACB","Passed AC2","","Spreadsheet1",1,"Task Instructions","Screen 2","ce2tc8",2,"continue","",5691.70000000074,5683.1,5691.70000000074,5691.70000000074,5683.1,5691.70000000074,1,5691.70000000074,0,0,NA,"Click To Continue","Continue Button",2,"object-7","Task Instructions",NA,"SUPPRF63428"
"4",1705070366282,"12/01/2024 14:39:26",1705070366282,0,"12/01/2024 14:39:26",159402,5,"task-w25u",NA,34163246,10092679,NA,"complete",NA,"65a14b4c4872a40fd4423319","computer","Desktop or Laptop","Mac OS 10.15.7","Chrome 120.0.0.0","1440x900","821x644",NA,NA,0,"Task Introduction and Instructions (re-introduce video and audio)",1,"GHFIEJDACB","Passed AC2","","Spreadsheet1",1,"Task Instructions","Screen 3","1qtc8v",3,"continue","",6025.3,6017.2,6025.3,6025.3,6017.2,6025.3,1,6025.3,0,0,NA,"Click To Continue","Continue Button",2,"object-52","Task Instructions",NA,"SUPPRF63428"
"5",1705070369916,"12/01/2024 14:39:29",1705070369916,0,"12/01/2024 14:39:29",159402,5,"task-w25u",NA,34163246,10092679,NA,"complete",NA,"65a14b4c4872a40fd4423319","computer","Desktop or Laptop","Mac OS 10.15.7","Chrome 120.0.0.0","1440x900","821x644",NA,NA,0,"Task Introduction and Instructions (re-introduce video and audio)",1,"GHFIEJDACB","Passed AC2","","Spreadsheet1",1,"Task Instructions","Screen 4","spepx9",4,"continue","",3640.90000000074,3633.2,3640.90000000074,3640.90000000074,3633.2,3640.90000000074,1,3640.90000000074,0,0,NA,"Click To Continue","Continue Button",2,"object-9","Task Instructions",NA,"SUPPRF63428"
"6",1705070373368,"12/01/2024 14:39:33",1705070373368,0,"12/01/2024 14:39:33",159402,5,"task-w25u",NA,34163246,10092679,NA,"complete",NA,"65a14b4c4872a40fd4423319","computer","Desktop or Laptop","Mac OS 10.15.7","Chrome 120.0.0.0","1440x900","821x644",NA,NA,0,"Task Introduction and Instructions (re-introduce video and audio)",1,"GHFIEJDACB","Passed AC2","","Spreadsheet1",1,"Task Instructions","Screen 5","8nvnao",5,"continue","",3459.30000000037,3450.6,3459.30000000037,3459.30000000037,3450.6,3459.30000000037,1,3459.30000000037,0,0,NA,"Click To Continue","Continue Button",2,"object-44","Task Instructions",NA,"SUPPRF63428"
"7",1705070373373,"12/01/2024 14:39:33",1705070373373,0,"12/01/2024 14:39:33",159402,5,"task-w25u",NA,34163246,10092679,NA,"complete",NA,"65a14b4c4872a40fd4423319","computer","Desktop or Laptop","Mac OS 10.15.7","Chrome 120.0.0.0","1440x900","821x644",NA,NA,0,"Task Introduction and Instructions (re-introduce video and audio)",1,"GHFIEJDACB","Passed AC2","","Spreadsheet1",NA,"","","",NA,"5","END",NA,NA,NA,NA,NA,NA,0,NA,NA,NA,NA,"","",NA,"","",NA,"SUPPRF63428"
"1",1705070639942,"12/01/2024 14:43:59",1705074239942,1,"12/01/2024 16:43:59",159402,5,"task-w25u",NA,34163438,10092575,NA,"complete",NA,"65a1472bf5ea01bcecb231f9","computer","Desktop or Laptop","Windows 10","Chrome 120.0.0.0","1366x768","1366x641",NA,NA,0,"Task Introduction and Instructions (re-introduce video and audio)",1,"DECFBGAHJI","Passed AC2","","Spreadsheet1",NA,"","","",NA,"5","BEGIN",NA,NA,NA,NA,NA,NA,0,NA,NA,NA,NA,"","",NA,"","",NA,"SUPPRF09101"
"2",1705070657422,"12/01/2024 14:44:17",1705074257422,1,"12/01/2024 16:44:17",159402,5,"task-w25u",NA,34163438,10092575,NA,"complete",NA,"65a1472bf5ea01bcecb231f9","computer","Desktop or Laptop","Windows 10","Chrome 120.0.0.0","1366x768","1366x641",NA,NA,0,"Task Introduction and Instructions (re-introduce video and audio)",1,"DECFBGAHJI","Passed AC2","","Spreadsheet1",1,"Task Instructions","Screen 1","anr7sn",1,"continue","",15137.499999994,15124.8,15137.499999994,15137.499999994,15124.8,15137.499999994,1,15137.499999994,0,0,NA,"Click To Continue","Continue Button",2,"object-1944","Task Instructions",NA,"SUPPRF09101"
"3",1705070669722,"12/01/2024 14:44:29",1705074269722,1,"12/01/2024 16:44:29",159402,5,"task-w25u",NA,34163438,10092575,NA,"complete",NA,"65a1472bf5ea01bcecb231f9","computer","Desktop or Laptop","Windows 10","Chrome 120.0.0.0","1366x768","1366x641",NA,NA,0,"Task Introduction and Instructions (re-introduce video and audio)",1,"DECFBGAHJI","Passed AC2","","Spreadsheet1",1,"Task Instructions","Screen 2","ce2tc8",2,"continue","",12309.8,12293.2,12309.8,12309.8,12293.2,12309.8,1,12309.8,0,0,NA,"Click To Continue","Continue Button",2,"object-7","Task Instructions",NA,"SUPPRF09101"
"4",1705070703110,"12/01/2024 14:45:03",1705074303110,1,"12/01/2024 16:45:03",159402,5,"task-w25u",NA,34163438,10092575,NA,"complete",NA,"65a1472bf5ea01bcecb231f9","computer","Desktop or Laptop","Windows 10","Chrome 120.0.0.0","1366x768","1366x641",NA,NA,0,"Task Introduction and Instructions (re-introduce video and audio)",1,"DECFBGAHJI","Passed AC2","","Spreadsheet1",1,"Task Instructions","Screen 3","1qtc8v",3,"continue","",33403.7000000119,33398.2,33403.7000000119,33403.7000000119,33398.2,33403.7000000119,1,33403.7000000119,0,0,NA,"Click To Continue","Continue Button",2,"object-52","Task Instructions",NA,"SUPPRF09101"
"5",1705070725299,"12/01/2024 14:45:25",1705074325299,1,"12/01/2024 16:45:25",159402,5,"task-w25u",NA,34163438,10092575,NA,"complete",NA,"65a1472bf5ea01bcecb231f9","computer","Desktop or Laptop","Windows 10","Chrome 120.0.0.0","1366x768","1366x641",NA,NA,0,"Task Introduction and Instructions (re-introduce video and audio)",1,"DECFBGAHJI","Passed AC2","","Spreadsheet1",1,"Task Instructions","Screen 4","spepx9",4,"continue","",22194.799999994,22187.8,22194.799999994,22194.799999994,22187.8,22194.799999994,1,22194.799999994,0,0,NA,"Click To Continue","Continue Button",2,"object-9","Task Instructions",NA,"SUPPRF09101"
"6",1705070743585,"12/01/2024 14:45:43",1705074343585,1,"12/01/2024 16:45:43",159402,5,"task-w25u",NA,34163438,10092575,NA,"complete",NA,"65a1472bf5ea01bcecb231f9","computer","Desktop or Laptop","Windows 10","Chrome 120.0.0.0","1366x768","1366x641",NA,NA,0,"Task Introduction and Instructions (re-introduce video and audio)",1,"DECFBGAHJI","Passed AC2","","Spreadsheet1",1,"Task Instructions","Screen 5","8nvnao",5,"continue","",18289.9,18273.2,18289.9,18289.9,18273.2,18289.9,1,18289.9,0,0,NA,"Click To Continue","Continue Button",2,"object-44","Task Instructions",NA,"SUPPRF09101"
"7",1705070743607,"12/01/2024 14:45:43",1705074343607,1,"12/01/2024 16:45:43",159402,5,"task-w25u",NA,34163438,10092575,NA,"complete",NA,"65a1472bf5ea01bcecb231f9","computer","Desktop or Laptop","Windows 10","Chrome 120.0.0.0","1366x768","1366x641",NA,NA,0,"Task Introduction and Instructions (re-introduce video and audio)",1,"DECFBGAHJI","Passed AC2","","Spreadsheet1",NA,"","","",NA,"5","END",NA,NA,NA,NA,NA,NA,0,NA,NA,NA,NA,"","",NA,"","",NA,"SUPPRF09101"
"1",1705070802305,"12/01/2024 14:46:42",1705052802305,-5,"12/01/2024 04:46:42",159402,5,"task-w25u",NA,34163654,10092292,NA,"rejected - time limit reached",NA,"65a13f5198d477a2587dbb50","computer","Desktop or Laptop","Windows 10","Chrome 120.0.0.0","1366x768","830x632",NA,NA,0,"Task Introduction and Instructions (re-introduce video and audio)",1,"FGEHDICJBA","Passed AC2","","Spreadsheet1",NA,"","","",NA,"5","BEGIN",NA,NA,NA,NA,NA,NA,0,NA,NA,NA,NA,"","",NA,"","",NA,"SUPPRF59227"
"2",1705070812896,"12/01/2024 14:46:52",1705052812896,-5,"12/01/2024 04:46:52",159402,5,"task-w25u",NA,34163654,10092292,NA,"rejected - time limit reached",NA,"65a13f5198d477a2587dbb50","computer","Desktop or Laptop","Windows 10","Chrome 120.0.0.0","1366x768","1366x641",NA,NA,0,"Task Introduction and Instructions (re-introduce video and audio)",1,"FGEHDICJBA","Passed AC2","","Spreadsheet1",1,"Task Instructions","Screen 1","anr7sn",1,"continue","",9209.90000000224,9198.4,9209.90000000224,9209.90000000224,9198.4,9209.90000000224,1,9209.90000000224,0,0,NA,"Click To Continue","Continue Button",2,"object-1944","Task Instructions",NA,"SUPPRF59227"
"3",1705070831377,"12/01/2024 14:47:11",1705052831377,-5,"12/01/2024 04:47:11",159402,5,"task-w25u",NA,34163654,10092292,NA,"rejected - time limit reached",NA,"65a13f5198d477a2587dbb50","computer","Desktop or Laptop","Windows 10","Chrome 120.0.0.0","1366x768","1366x641",NA,NA,0,"Task Introduction and Instructions (re-introduce video and audio)",1,"FGEHDICJBA","Passed AC2","","Spreadsheet1",1,"Task Instructions","Screen 2","ce2tc8",2,"continue","",18493.0000000022,18480.8,18493.0000000022,18493.0000000022,18480.8,18493.0000000022,1,18493.0000000022,0,0,NA,"Click To Continue","Continue Button",2,"object-7","Task Instructions",NA,"SUPPRF59227"
"4",1705070839825,"12/01/2024 14:47:19",1705052839825,-5,"12/01/2024 04:47:19",159402,5,"task-w25u",NA,34163654,10092292,NA,"rejected - time limit reached",NA,"65a13f5198d477a2587dbb50","computer","Desktop or Laptop","Windows 10","Chrome 120.0.0.0","1366x768","1366x641",NA,NA,0,"Task Introduction and Instructions (re-introduce video and audio)",1,"FGEHDICJBA","Passed AC2","","Spreadsheet1",1,"Task Instructions","Screen 3","1qtc8v",3,"continue","",8460.8,8448.8,8460.8,8460.8,8448.8,8460.8,1,8460.8,0,0,NA,"Click To Continue","Continue Button",2,"object-52","Task Instructions",NA,"SUPPRF59227"
"5",1705070851752,"12/01/2024 14:47:31",1705052851752,-5,"12/01/2024 04:47:31",159402,5,"task-w25u",NA,34163654,10092292,NA,"rejected - time limit reached",NA,"65a13f5198d477a2587dbb50","computer","Desktop or Laptop","Windows 10","Chrome 120.0.0.0","1366x768","1366x641",NA,NA,0,"Task Introduction and Instructions (re-introduce video and audio)",1,"FGEHDICJBA","Passed AC2","","Spreadsheet1",1,"Task Instructions","Screen 4","spepx9",4,"continue","",11939.4000000022,11931.3,11939.4000000022,11939.4000000022,11931.3,11939.4000000022,1,11939.4000000022,0,0,NA,"Click To Continue","Continue Button",2,"object-9","Task Instructions",NA,"SUPPRF59227"
"6",1705070856044,"12/01/2024 14:47:36",1705052856044,-5,"12/01/2024 04:47:36",159402,5,"task-w25u",NA,34163654,10092292,NA,"rejected - time limit reached",NA,"65a13f5198d477a2587dbb50","computer","Desktop or Laptop","Windows 10","Chrome 120.0.0.0","1366x768","1366x641",NA,NA,0,"Task Introduction and Instructions (re-introduce video and audio)",1,"FGEHDICJBA","Passed AC2","","Spreadsheet1",1,"Task Instructions","Screen 5","8nvnao",5,"continue","",4299.3,4282.6,4299.3,4299.3,4282.6,4299.3,1,4299.3,0,0,NA,"Click To Continue","Continue Button",2,"object-44","Task Instructions",NA,"SUPPRF59227"
"7",1705070856065,"12/01/2024 14:47:36",1705052856065,-5,"12/01/2024 04:47:36",159402,5,"task-w25u",NA,34163654,10092292,NA,"rejected - time limit reached",NA,"65a13f5198d477a2587dbb50","computer","Desktop or Laptop","Windows 10","Chrome 120.0.0.0","1366x768","1366x641",NA,NA,0,"Task Introduction and Instructions (re-introduce video and audio)",1,"FGEHDICJBA","Passed AC2","","Spreadsheet1",NA,"","","",NA,"5","END",NA,NA,NA,NA,NA,NA,0,NA,NA,NA,NA,"","",NA,"","",NA,"SUPPRF59227"
"1",1705071113244,"12/01/2024 14:51:53",1705071113244,0,"12/01/2024 14:51:53",159402,5,"task-w25u",NA,34164249,10092825,NA,"complete",NA,"65a14d671e9485c49e340930","computer","Desktop or Laptop","Windows 10","Chrome 120.0.0.0","1536x864","1536x695",NA,NA,0,"Task Introduction and Instructions (re-introduce video and audio)",1,"JAIBHCGDFE","Passed AC2","","Spreadsheet1",NA,"","","",NA,"5","BEGIN",NA,NA,NA,NA,NA,NA,0,NA,NA,NA,NA,"","",NA,"","",NA,"SUPPRF46842"
"2",1705071117578,"12/01/2024 14:51:57",1705071117578,0,"12/01/2024 14:51:57",159402,5,"task-w25u",NA,34164249,10092825,NA,"complete",NA,"65a14d671e9485c49e340930","computer","Desktop or Laptop","Windows 10","Chrome 120.0.0.0","1536x864","1536x695",NA,NA,0,"Task Introduction and Instructions (re-introduce video and audio)",1,"JAIBHCGDFE","Passed AC2","","Spreadsheet1",1,"Task Instructions","Screen 1","anr7sn",1,"continue","",4240.1,4231.7,4240.1,4240.1,4231.7,4240.1,1,4240.1,0,0,NA,"Click To Continue","Continue Button",2,"object-1944","Task Instructions",NA,"SUPPRF46842"
"3",1705071136523,"12/01/2024 14:52:16",1705071136523,0,"12/01/2024 14:52:16",159402,5,"task-w25u",NA,34164249,10092825,NA,"complete",NA,"65a14d671e9485c49e340930","computer","Desktop or Laptop","Windows 10","Chrome 120.0.0.0","1536x864","1536x695",NA,NA,0,"Task Introduction and Instructions (re-introduce video and audio)",1,"JAIBHCGDFE","Passed AC2","","Spreadsheet1",1,"Task Instructions","Screen 2","ce2tc8",2,"continue","",18952.4,18944.1,18952.4,18952.4,18944.1,18952.4,1,18952.4,0,0,NA,"Click To Continue","Continue Button",2,"object-7","Task Instructions",NA,"SUPPRF46842"
"4",1705071140617,"12/01/2024 14:52:20",1705071140617,0,"12/01/2024 14:52:20",159402,5,"task-w25u",NA,34164249,10092825,NA,"complete",NA,"65a14d671e9485c49e340930","computer","Desktop or Laptop","Windows 10","Chrome 120.0.0.0","1536x864","1536x695",NA,NA,0,"Task Introduction and Instructions (re-introduce video and audio)",1,"JAIBHCGDFE","Passed AC2","","Spreadsheet1",1,"Task Instructions","Screen 3","1qtc8v",3,"continue","",4104.00000000596,4098.7,4104.00000000596,4104.00000000596,4098.7,4104.00000000596,1,4104.00000000596,0,0,NA,"Click To Continue","Continue Button",2,"object-52","Task Instructions",NA,"SUPPRF46842"
"5",1705071143351,"12/01/2024 14:52:23",1705071143351,0,"12/01/2024 14:52:23",159402,5,"task-w25u",NA,34164249,10092825,NA,"complete",NA,"65a14d671e9485c49e340930","computer","Desktop or Laptop","Windows 10","Chrome 120.0.0.0","1536x864","1536x695",NA,NA,0,"Task Introduction and Instructions (re-introduce video and audio)",1,"JAIBHCGDFE","Passed AC2","","Spreadsheet1",1,"Task Instructions","Screen 4","spepx9",4,"continue","",2738.9,2732.6,2738.9,2738.9,2732.6,2738.9,1,2738.9,0,0,NA,"Click To Continue","Continue Button",2,"object-9","Task Instructions",NA,"SUPPRF46842"
"6",1705071146287,"12/01/2024 14:52:26",1705071146287,0,"12/01/2024 14:52:26",159402,5,"task-w25u",NA,34164249,10092825,NA,"complete",NA,"65a14d671e9485c49e340930","computer","Desktop or Laptop","Windows 10","Chrome 120.0.0.0","1536x864","1536x695",NA,NA,0,"Task Introduction and Instructions (re-introduce video and audio)",1,"JAIBHCGDFE","Passed AC2","","Spreadsheet1",1,"Task Instructions","Screen 5","8nvnao",5,"continue","",2942.90000002384,2940.7,2942.90000002384,2942.90000002384,2940.7,2942.90000002384,1,2942.90000002384,0,0,NA,"Click To Continue","Continue Button",2,"object-44","Task Instructions",NA,"SUPPRF46842"
"7",1705071146290,"12/01/2024 14:52:26",1705071146290,0,"12/01/2024 14:52:26",159402,5,"task-w25u",NA,34164249,10092825,NA,"complete",NA,"65a14d671e9485c49e340930","computer","Desktop or Laptop","Windows 10","Chrome 120.0.0.0","1536x864","1536x695",NA,NA,0,"Task Introduction and Instructions (re-introduce video and audio)",1,"JAIBHCGDFE","Passed AC2","","Spreadsheet1",NA,"","","",NA,"5","END",NA,NA,NA,NA,NA,NA,0,NA,NA,NA,NA,"","",NA,"","",NA,"SUPPRF46842"
"1",1705071484946,"12/01/2024 14:58:04",1705042684946,-8,"11/01/2024 22:58:04",159402,5,"task-w25u",NA,34164791,10092712,NA,"rejected - time limit reached",NA,"65a14c37a2c63e9c86423612","computer","Desktop or Laptop","Windows 10","Chrome 120.0.0.0","1360x768","1360x607",NA,NA,0,"Task Introduction and Instructions (re-introduce video and audio)",1,"HIGJFAEBDC","Passed AC2","","Spreadsheet1",NA,"","","",NA,"5","BEGIN",NA,NA,NA,NA,NA,NA,0,NA,NA,NA,NA,"","",NA,"","",NA,"SUPPRF93066"
"2",1705071495194,"12/01/2024 14:58:15",1705042695194,-8,"11/01/2024 22:58:15",159402,5,"task-w25u",NA,34164791,10092712,NA,"rejected - time limit reached",NA,"65a14c37a2c63e9c86423612","computer","Desktop or Laptop","Windows 10","Chrome 120.0.0.0","1360x768","1360x607",NA,NA,0,"Task Introduction and Instructions (re-introduce video and audio)",1,"HIGJFAEBDC","Passed AC2","","Spreadsheet1",1,"Task Instructions","Screen 1","anr7sn",1,"continue","",6656.1,6639.4,6656.1,6656.1,6639.4,6656.1,1,6656.1,0,0,NA,"Click To Continue","Continue Button",2,"object-1944","Task Instructions",NA,"SUPPRF93066"
"3",1705071520972,"12/01/2024 14:58:40",1705042720972,-8,"11/01/2024 22:58:40",159402,5,"task-w25u",NA,34164791,10092712,NA,"rejected - time limit reached",NA,"65a14c37a2c63e9c86423612","computer","Desktop or Laptop","Windows 10","Chrome 120.0.0.0","1360x768","1360x607",NA,NA,0,"Task Introduction and Instructions (re-introduce video and audio)",1,"HIGJFAEBDC","Passed AC2","","Spreadsheet1",1,"Task Instructions","Screen 2","ce2tc8",2,"continue","",25797.8,25790.5,25797.8,25797.8,25790.5,25797.8,1,25797.8,0,0,NA,"Click To Continue","Continue Button",2,"object-7","Task Instructions",NA,"SUPPRF93066"
"4",1705071527706,"12/01/2024 14:58:47",1705042727706,-8,"11/01/2024 22:58:47",159402,5,"task-w25u",NA,34164791,10092712,NA,"rejected - time limit reached",NA,"65a14c37a2c63e9c86423612","computer","Desktop or Laptop","Windows 10","Chrome 120.0.0.0","1360x768","1360x607",NA,NA,0,"Task Introduction and Instructions (re-introduce video and audio)",1,"HIGJFAEBDC","Passed AC2","","Spreadsheet1",1,"Task Instructions","Screen 3","1qtc8v",3,"continue","",6742.50000004769,6738.7,6742.50000004769,6742.50000004769,6738.7,6742.50000004769,1,6742.50000004769,0,0,NA,"Click To Continue","Continue Button",2,"object-52","Task Instructions",NA,"SUPPRF93066"
"5",1705071531338,"12/01/2024 14:58:51",1705042731338,-8,"11/01/2024 22:58:51",159402,5,"task-w25u",NA,34164791,10092712,NA,"rejected - time limit reached",NA,"65a14c37a2c63e9c86423612","computer","Desktop or Laptop","Windows 10","Chrome 120.0.0.0","1360x768","1360x607",NA,NA,0,"Task Introduction and Instructions (re-introduce video and audio)",1,"HIGJFAEBDC","Passed AC2","","Spreadsheet1",1,"Task Instructions","Screen 4","spepx9",4,"continue","",3636.1,3619.7,3636.1,3636.1,3619.7,3636.1,1,3636.1,0,0,NA,"Click To Continue","Continue Button",2,"object-9","Task Instructions",NA,"SUPPRF93066"
"6",1705071534210,"12/01/2024 14:58:54",1705042734210,-8,"11/01/2024 22:58:54",159402,5,"task-w25u",NA,34164791,10092712,NA,"rejected - time limit reached",NA,"65a14c37a2c63e9c86423612","computer","Desktop or Laptop","Windows 10","Chrome 120.0.0.0","1360x768","1360x607",NA,NA,0,"Task Introduction and Instructions (re-introduce video and audio)",1,"HIGJFAEBDC","Passed AC2","","Spreadsheet1",1,"Task Instructions","Screen 5","8nvnao",5,"continue","",2886.4,2869.8,2886.4,2886.4,2869.8,2886.4,1,2886.4,0,0,NA,"Click To Continue","Continue Button",2,"object-44","Task Instructions",NA,"SUPPRF93066"
"7",1705071534233,"12/01/2024 14:58:54",1705042734233,-8,"11/01/2024 22:58:54",159402,5,"task-w25u",NA,34164791,10092712,NA,"rejected - time limit reached",NA,"65a14c37a2c63e9c86423612","computer","Desktop or Laptop","Windows 10","Chrome 120.0.0.0","1360x768","1360x607",NA,NA,0,"Task Introduction and Instructions (re-introduce video and audio)",1,"HIGJFAEBDC","Passed AC2","","Spreadsheet1",NA,"","","",NA,"5","END",NA,NA,NA,NA,NA,NA,0,NA,NA,NA,NA,"","",NA,"","",NA,"SUPPRF93066"
"1",1705071511539,"12/01/2024 14:58:31",1705071511539,0,"12/01/2024 14:58:31",159402,5,"task-w25u",NA,34164862,10092873,NA,"complete",NA,"65a15016d8055806a2430ddc","computer","Desktop or Laptop","Chromium OS 14541.0.0","Chrome 119.0.0.0","1366x768","1366x681",NA,NA,0,"Task Introduction and Instructions (re-introduce video and audio)",1,"BCADJEIFHG","Passed AC2","","Spreadsheet1",NA,"","","",NA,"5","BEGIN",NA,NA,NA,NA,NA,NA,0,NA,NA,NA,NA,"","",NA,"","",NA,"SUPPRF66477"
"2",1705071515269,"12/01/2024 14:58:35",1705071515269,0,"12/01/2024 14:58:35",159402,5,"task-w25u",NA,34164862,10092873,NA,"complete",NA,"65a15016d8055806a2430ddc","computer","Desktop or Laptop","Chromium OS 14541.0.0","Chrome 119.0.0.0","1366x768","1366x681",NA,NA,0,"Task Introduction and Instructions (re-introduce video and audio)",1,"BCADJEIFHG","Passed AC2","","Spreadsheet1",1,"Task Instructions","Screen 1","anr7sn",1,"continue","",3639.29100000075,3633.517,3639.29100000075,3639.29100000075,3633.517,3639.29100000075,1,3639.29100000075,0,0,NA,"Click To Continue","Continue Button",2,"object-1944","Task Instructions",NA,"SUPPRF66477"
"3",1705071528555,"12/01/2024 14:58:48",1705071528555,0,"12/01/2024 14:58:48",159402,5,"task-w25u",NA,34164862,10092873,NA,"complete",NA,"65a15016d8055806a2430ddc","computer","Desktop or Laptop","Chromium OS 14541.0.0","Chrome 119.0.0.0","1366x768","1366x681",NA,NA,0,"Task Introduction and Instructions (re-introduce video and audio)",1,"BCADJEIFHG","Passed AC2","","Spreadsheet1",1,"Task Instructions","Screen 2","ce2tc8",2,"continue","",13292.3739999985,13283.822,13292.3739999985,13292.3739999985,13283.822,13292.3739999985,1,13292.3739999985,0,0,NA,"Click To Continue","Continue Button",2,"object-7","Task Instructions",NA,"SUPPRF66477"
"4",1705071532417,"12/01/2024 14:58:52",1705071532417,0,"12/01/2024 14:58:52",159402,5,"task-w25u",NA,34164862,10092873,NA,"complete",NA,"65a15016d8055806a2430ddc","computer","Desktop or Laptop","Chromium OS 14541.0.0","Chrome 119.0.0.0","1366x768","1366x681",NA,NA,0,"Task Introduction and Instructions (re-introduce video and audio)",1,"BCADJEIFHG","Passed AC2","","Spreadsheet1",1,"Task Instructions","Screen 3","1qtc8v",3,"continue","",3867.065,3850.398,3867.065,3867.065,3850.398,3867.065,1,3867.065,0,0,NA,"Click To Continue","Continue Button",2,"object-52","Task Instructions",NA,"SUPPRF66477"
"5",1705071535655,"12/01/2024 14:58:55",1705071535655,0,"12/01/2024 14:58:55",159402,5,"task-w25u",NA,34164862,10092873,NA,"complete",NA,"65a15016d8055806a2430ddc","computer","Desktop or Laptop","Chromium OS 14541.0.0","Chrome 119.0.0.0","1366x768","1366x681",NA,NA,0,"Task Introduction and Instructions (re-introduce video and audio)",1,"BCADJEIFHG","Passed AC2","","Spreadsheet1",1,"Task Instructions","Screen 4","spepx9",4,"continue","",3257.55400000075,3250.198,3257.55400000075,3257.55400000075,3250.198,3257.55400000075,1,3257.55400000075,0,0,NA,"Click To Continue","Continue Button",2,"object-9","Task Instructions",NA,"SUPPRF66477"
"6",1705071538777,"12/01/2024 14:58:58",1705071538777,0,"12/01/2024 14:58:58",159402,5,"task-w25u",NA,34164862,10092873,NA,"complete",NA,"65a15016d8055806a2430ddc","computer","Desktop or Laptop","Chromium OS 14541.0.0","Chrome 119.0.0.0","1366x768","1366x681",NA,NA,0,"Task Introduction and Instructions (re-introduce video and audio)",1,"BCADJEIFHG","Passed AC2","","Spreadsheet1",1,"Task Instructions","Screen 5","8nvnao",5,"continue","",3129.65600000149,3116.842,3129.65600000149,3129.65600000149,3116.842,3129.65600000149,1,3129.65600000149,0,0,NA,"Click To Continue","Continue Button",2,"object-44","Task Instructions",NA,"SUPPRF66477"
"7",1705071538785,"12/01/2024 14:58:58",1705071538785,0,"12/01/2024 14:58:58",159402,5,"task-w25u",NA,34164862,10092873,NA,"complete",NA,"65a15016d8055806a2430ddc","computer","Desktop or Laptop","Chromium OS 14541.0.0","Chrome 119.0.0.0","1366x768","1366x681",NA,NA,0,"Task Introduction and Instructions (re-introduce video and audio)",1,"BCADJEIFHG","Passed AC2","","Spreadsheet1",NA,"","","",NA,"5","END",NA,NA,NA,NA,NA,NA,0,NA,NA,NA,NA,"","",NA,"","",NA,"SUPPRF66477"
"1",1705072068812,"12/01/2024 15:07:48",1705050468812,-6,"12/01/2024 03:07:48",159402,5,"task-w25u",NA,34165526,10092956,NA,"complete",NA,"65a14f466d34095a6100528d","computer","Desktop or Laptop","Mac OS 10.15.7","Chrome 120.0.0.0","1440x900","1440x779",NA,NA,0,"Task Introduction and Instructions (re-introduce video and audio)",1,"CDBEAFJGIH","Passed AC2","","Spreadsheet1",NA,"","","",NA,"5","BEGIN",NA,NA,NA,NA,NA,NA,0,NA,NA,NA,NA,"","",NA,"","",NA,"SUPPRF37836"
"2",1705072293364,"12/01/2024 15:11:33",1705050693364,-6,"12/01/2024 03:11:33",159402,5,"task-w25u",NA,34165526,10092956,NA,"complete",NA,"65a14f466d34095a6100528d","computer","Desktop or Laptop","Mac OS 10.15.7","Chrome 120.0.0.0","1440x900","1440x779",NA,NA,0,"Task Introduction and Instructions (re-introduce video and audio)",1,"CDBEAFJGIH","Passed AC2","","Spreadsheet1",1,"Task Instructions","Screen 1","anr7sn",1,"continue","",223852.599999928,223837.7,223852.599999928,223852.599999928,223837.7,223852.599999928,1,223852.599999928,0,0,NA,"Click To Continue","Continue Button",2,"object-1944","Task Instructions",NA,"SUPPRF37836"
"3",1705072309441,"12/01/2024 15:11:49",1705050709441,-6,"12/01/2024 03:11:49",159402,5,"task-w25u",NA,34165526,10092956,NA,"complete",NA,"65a14f466d34095a6100528d","computer","Desktop or Laptop","Mac OS 10.15.7","Chrome 120.0.0.0","1440x900","1440x779",NA,NA,0,"Task Introduction and Instructions (re-introduce video and audio)",1,"CDBEAFJGIH","Passed AC2","","Spreadsheet1",1,"Task Instructions","Screen 2","ce2tc8",2,"continue","",16092.5999999762,16083.2,16092.5999999762,16092.5999999762,16083.2,16092.5999999762,1,16092.5999999762,0,0,NA,"Click To Continue","Continue Button",2,"object-7","Task Instructions",NA,"SUPPRF37836"
"4",1705072312356,"12/01/2024 15:11:52",1705050712356,-6,"12/01/2024 03:11:52",159402,5,"task-w25u",NA,34165526,10092956,NA,"complete",NA,"65a14f466d34095a6100528d","computer","Desktop or Laptop","Mac OS 10.15.7","Chrome 120.0.0.0","1440x900","1440x779",NA,NA,0,"Task Introduction and Instructions (re-introduce video and audio)",1,"CDBEAFJGIH","Passed AC2","","Spreadsheet1",1,"Task Instructions","Screen 3","1qtc8v",3,"continue","",2924.39999997616,2917.10000000001,2924.39999997616,2924.39999997616,2917.10000000001,2924.39999997616,1,2924.39999997616,0,0,NA,"Click To Continue","Continue Button",2,"object-52","Task Instructions",NA,"SUPPRF37836"
"5",1705072317390,"12/01/2024 15:11:57",1705050717390,-6,"12/01/2024 03:11:57",159402,5,"task-w25u",NA,34165526,10092956,NA,"complete",NA,"65a14f466d34095a6100528d","computer","Desktop or Laptop","Mac OS 10.15.7","Chrome 120.0.0.0","1440x900","1440x779",NA,NA,0,"Task Introduction and Instructions (re-introduce video and audio)",1,"CDBEAFJGIH","Passed AC2","","Spreadsheet1",1,"Task Instructions","Screen 4","spepx9",4,"continue","",5041.49999990463,5033.19999999998,5041.49999990463,5041.49999990463,5033.19999999998,5041.49999990463,1,5041.49999990463,0,0,NA,"Click To Continue","Continue Button",2,"object-9","Task Instructions",NA,"SUPPRF37836"
"6",1705072320308,"12/01/2024 15:12:00",1705050720308,-6,"12/01/2024 03:12:00",159402,5,"task-w25u",NA,34165526,10092956,NA,"complete",NA,"65a14f466d34095a6100528d","computer","Desktop or Laptop","Mac OS 10.15.7","Chrome 120.0.0.0","1440x900","1440x779",NA,NA,0,"Task Introduction and Instructions (re-introduce video and audio)",1,"CDBEAFJGIH","Passed AC2","","Spreadsheet1",1,"Task Instructions","Screen 5","8nvnao",5,"continue","",2926.20000000001,2916.5,2926.20000000001,2926.20000000001,2916.5,2926.20000000001,1,2926.20000000001,0,0,NA,"Click To Continue","Continue Button",2,"object-44","Task Instructions",NA,"SUPPRF37836"
"7",1705072320314,"12/01/2024 15:12:00",1705050720314,-6,"12/01/2024 03:12:00",159402,5,"task-w25u",NA,34165526,10092956,NA,"complete",NA,"65a14f466d34095a6100528d","computer","Desktop or Laptop","Mac OS 10.15.7","Chrome 120.0.0.0","1440x900","1440x779",NA,NA,0,"Task Introduction and Instructions (re-introduce video and audio)",1,"CDBEAFJGIH","Passed AC2","","Spreadsheet1",NA,"","","",NA,"5","END",NA,NA,NA,NA,NA,NA,0,NA,NA,NA,NA,"","",NA,"","",NA,"SUPPRF37836"
"1",1705072244392,"12/01/2024 15:10:44",1705072244392,0,"12/01/2024 15:10:44",159402,5,"task-w25u",NA,34165718,10093034,NA,"complete",NA,"65a1534b0fb76960d3e65b56","computer","Desktop or Laptop","Windows 10","Chrome 120.0.0.0","1920x1080","1920x911",NA,NA,0,"Task Introduction and Instructions (re-introduce video and audio)",1,"DECFBGAHJI","Passed AC2","","Spreadsheet1",NA,"","","",NA,"5","BEGIN",NA,NA,NA,NA,NA,NA,0,NA,NA,NA,NA,"","",NA,"","",NA,"SUPPRF68071"
"2",1705072248702,"12/01/2024 15:10:48",1705072248702,0,"12/01/2024 15:10:48",159402,5,"task-w25u",NA,34165718,10093034,NA,"complete",NA,"65a1534b0fb76960d3e65b56","computer","Desktop or Laptop","Windows 10","Chrome 120.0.0.0","1920x1080","1920x911",NA,NA,0,"Task Introduction and Instructions (re-introduce video and audio)",1,"DECFBGAHJI","Passed AC2","","Spreadsheet1",1,"Task Instructions","Screen 1","anr7sn",1,"continue","",4280.79999999404,4266.6,4280.79999999404,4280.79999999404,4266.6,4280.79999999404,1,4280.79999999404,0,0,NA,"Click To Continue","Continue Button",2,"object-1944","Task Instructions",NA,"SUPPRF68071"
"3",1705072272286,"12/01/2024 15:11:12",1705072272286,0,"12/01/2024 15:11:12",159402,5,"task-w25u",NA,34165718,10093034,NA,"complete",NA,"65a1534b0fb76960d3e65b56","computer","Desktop or Laptop","Windows 10","Chrome 120.0.0.0","1920x1080","1920x911",NA,NA,0,"Task Introduction and Instructions (re-introduce video and audio)",1,"DECFBGAHJI","Passed AC2","","Spreadsheet1",1,"Task Instructions","Screen 2","ce2tc8",2,"continue","",23598.699999994,23583,23598.699999994,23598.699999994,23583,23598.699999994,1,23598.699999994,0,0,NA,"Click To Continue","Continue Button",2,"object-7","Task Instructions",NA,"SUPPRF68071"
"4",1705072275941,"12/01/2024 15:11:15",1705072275941,0,"12/01/2024 15:11:15",159402,5,"task-w25u",NA,34165718,10093034,NA,"complete",NA,"65a1534b0fb76960d3e65b56","computer","Desktop or Laptop","Windows 10","Chrome 120.0.0.0","1920x1080","1920x911",NA,NA,0,"Task Introduction and Instructions (re-introduce video and audio)",1,"DECFBGAHJI","Passed AC2","","Spreadsheet1",1,"Task Instructions","Screen 3","1qtc8v",3,"continue","",3670.39999999702,3666.7,3670.39999999702,3670.39999999702,3666.7,3670.39999999702,1,3670.39999999702,0,0,NA,"Click To Continue","Continue Button",2,"object-52","Task Instructions",NA,"SUPPRF68071"
"5",1705072280179,"12/01/2024 15:11:20",1705072280179,0,"12/01/2024 15:11:20",159402,5,"task-w25u",NA,34165718,10093034,NA,"complete",NA,"65a1534b0fb76960d3e65b56","computer","Desktop or Laptop","Windows 10","Chrome 120.0.0.0","1920x1080","1920x911",NA,NA,0,"Task Introduction and Instructions (re-introduce video and audio)",1,"DECFBGAHJI","Passed AC2","","Spreadsheet1",1,"Task Instructions","Screen 4","spepx9",4,"continue","",4242.29999999106,4233.2,4242.29999999106,4242.29999999106,4233.2,4242.29999999106,1,4242.29999999106,0,0,NA,"Click To Continue","Continue Button",2,"object-9","Task Instructions",NA,"SUPPRF68071"
"6",1705072288103,"12/01/2024 15:11:28",1705072288103,0,"12/01/2024 15:11:28",159402,5,"task-w25u",NA,34165718,10093034,NA,"complete",NA,"65a1534b0fb76960d3e65b56","computer","Desktop or Laptop","Windows 10","Chrome 120.0.0.0","1920x1080","1920x911",NA,NA,0,"Task Introduction and Instructions (re-introduce video and audio)",1,"DECFBGAHJI","Passed AC2","","Spreadsheet1",1,"Task Instructions","Screen 5","8nvnao",5,"continue","",7932.49999999702,7916.5,7932.49999999702,7932.49999999702,7916.5,7932.49999999702,1,7932.49999999702,0,0,NA,"Click To Continue","Continue Button",2,"object-44","Task Instructions",NA,"SUPPRF68071"
"7",1705072288105,"12/01/2024 15:11:28",1705072288105,0,"12/01/2024 15:11:28",159402,5,"task-w25u",NA,34165718,10093034,NA,"complete",NA,"65a1534b0fb76960d3e65b56","computer","Desktop or Laptop","Windows 10","Chrome 120.0.0.0","1920x1080","1920x911",NA,NA,0,"Task Introduction and Instructions (re-introduce video and audio)",1,"DECFBGAHJI","Passed AC2","","Spreadsheet1",NA,"","","",NA,"5","END",NA,NA,NA,NA,NA,NA,0,NA,NA,NA,NA,"","",NA,"","",NA,"SUPPRF68071"
"1",1705072441568,"12/01/2024 15:14:01",1705072441568,0,"12/01/2024 15:14:01",159402,5,"task-w25u",NA,34165896,10092331,NA,"rejected - time limit reached",NA,"65a14017fce482cb154d4a90","computer","Desktop or Laptop","Windows 10","Chrome 120.0.0.0","1366x768","1366x641",NA,NA,0,"Task Introduction and Instructions (re-introduce video and audio)",1,"HIGJFAEBDC","Failed AC2","Passed AC1","Spreadsheet1",NA,"","","",NA,"5","BEGIN",NA,NA,NA,NA,NA,NA,0,NA,NA,NA,NA,"","",NA,"","",NA,"SUPPRF03633"
"2",1705072458004,"12/01/2024 15:14:18",1705072458004,0,"12/01/2024 15:14:18",159402,5,"task-w25u",NA,34165896,10092331,NA,"rejected - time limit reached",NA,"65a14017fce482cb154d4a90","computer","Desktop or Laptop","Windows 10","Chrome 120.0.0.0","1366x768","1366x641",NA,NA,0,"Task Introduction and Instructions (re-introduce video and audio)",1,"HIGJFAEBDC","Failed AC2","Passed AC1","Spreadsheet1",1,"Task Instructions","Screen 1","anr7sn",1,"continue","",31129.7999999989,31123.8,31129.7999999989,31129.7999999989,31123.8,31129.7999999989,1,31129.7999999989,0,0,NA,"Click To Continue","Continue Button",2,"object-1944","Task Instructions",NA,"SUPPRF03633"
"3",1705072461366,"12/01/2024 15:14:21",1705072461366,0,"12/01/2024 15:14:21",159402,5,"task-w25u",NA,34165896,10092331,NA,"rejected - time limit reached",NA,"65a14017fce482cb154d4a90","computer","Desktop or Laptop","Windows 10","Chrome 120.0.0.0","1366x768","1366x641",NA,NA,0,"Task Introduction and Instructions (re-introduce video and audio)",1,"HIGJFAEBDC","Failed AC2","Passed AC1","Spreadsheet1",1,"Task Instructions","Screen 2","ce2tc8",2,"continue","",3368.7,3366.2,3368.7,3368.7,3366.2,3368.7,1,3368.7,0,0,NA,"Click To Continue","Continue Button",2,"object-7","Task Instructions",NA,"SUPPRF03633"
"4",1705072465038,"12/01/2024 15:14:25",1705072465038,0,"12/01/2024 15:14:25",159402,5,"task-w25u",NA,34165896,10092331,NA,"rejected - time limit reached",NA,"65a14017fce482cb154d4a90","computer","Desktop or Laptop","Windows 10","Chrome 120.0.0.0","1366x768","1366x641",NA,NA,0,"Task Introduction and Instructions (re-introduce video and audio)",1,"HIGJFAEBDC","Failed AC2","Passed AC1","Spreadsheet1",1,"Task Instructions","Screen 3","1qtc8v",3,"continue","",3674.29999999888,3666.3,3674.29999999888,3674.29999999888,3666.3,3674.29999999888,1,3674.29999999888,0,0,NA,"Click To Continue","Continue Button",2,"object-52","Task Instructions",NA,"SUPPRF03633"
"5",1705072468539,"12/01/2024 15:14:28",1705072468539,0,"12/01/2024 15:14:28",159402,5,"task-w25u",NA,34165896,10092331,NA,"rejected - time limit reached",NA,"65a14017fce482cb154d4a90","computer","Desktop or Laptop","Windows 10","Chrome 120.0.0.0","1366x768","1366x641",NA,NA,0,"Task Introduction and Instructions (re-introduce video and audio)",1,"HIGJFAEBDC","Failed AC2","Passed AC1","Spreadsheet1",1,"Task Instructions","Screen 4","spepx9",4,"continue","",3509.10000000037,3499.39999999999,3509.10000000037,3509.10000000037,3499.39999999999,3509.10000000037,1,3509.10000000037,0,0,NA,"Click To Continue","Continue Button",2,"object-9","Task Instructions",NA,"SUPPRF03633"
"6",1705072474081,"12/01/2024 15:14:34",1705072474081,0,"12/01/2024 15:14:34",159402,5,"task-w25u",NA,34165896,10092331,NA,"rejected - time limit reached",NA,"65a14017fce482cb154d4a90","computer","Desktop or Laptop","Windows 10","Chrome 120.0.0.0","1366x768","1366x641",NA,NA,0,"Task Introduction and Instructions (re-introduce video and audio)",1,"HIGJFAEBDC","Failed AC2","Passed AC1","Spreadsheet1",1,"Task Instructions","Screen 5","8nvnao",5,"continue","",5551.59999999889,5549.3,5551.59999999889,5551.59999999889,5549.3,5551.59999999889,1,5551.59999999889,0,0,NA,"Click To Continue","Continue Button",2,"object-44","Task Instructions",NA,"SUPPRF03633"
"7",1705072474090,"12/01/2024 15:14:34",1705072474090,0,"12/01/2024 15:14:34",159402,5,"task-w25u",NA,34165896,10092331,NA,"rejected - time limit reached",NA,"65a14017fce482cb154d4a90","computer","Desktop or Laptop","Windows 10","Chrome 120.0.0.0","1366x768","1366x641",NA,NA,0,"Task Introduction and Instructions (re-introduce video and audio)",1,"HIGJFAEBDC","Failed AC2","Passed AC1","Spreadsheet1",NA,"","","",NA,"5","END",NA,NA,NA,NA,NA,NA,0,NA,NA,NA,NA,"","",NA,"","",NA,"SUPPRF03633"
"1",1705072515187,"12/01/2024 15:15:15",1705072515187,0,"12/01/2024 15:15:15",159402,5,"task-w25u",NA,34165951,10093094,NA,"complete",NA,"65a15560c6386e8d18613a13","computer","Desktop or Laptop","Windows 10","Chrome 120.0.0.0","1536x864","1536x703",NA,NA,0,"Task Introduction and Instructions (re-introduce video and audio)",1,"GHFIEJDACB","Passed AC2","","Spreadsheet1",NA,"","","",NA,"5","BEGIN",NA,NA,NA,NA,NA,NA,0,NA,NA,NA,NA,"","",NA,"","",NA,"SUPPRF90670"
"2",1705072518707,"12/01/2024 15:15:18",1705072518707,0,"12/01/2024 15:15:18",159402,5,"task-w25u",NA,34165951,10093094,NA,"complete",NA,"65a15560c6386e8d18613a13","computer","Desktop or Laptop","Windows 10","Chrome 120.0.0.0","1536x864","1536x703",NA,NA,0,"Task Introduction and Instructions (re-introduce video and audio)",1,"GHFIEJDACB","Passed AC2","","Spreadsheet1",1,"Task Instructions","Screen 1","anr7sn",1,"continue","",3112.7,3099.7,3112.7,3112.7,3099.7,3112.7,1,3112.7,0,0,NA,"Click To Continue","Continue Button",2,"object-1944","Task Instructions",NA,"SUPPRF90670"
"3",1705072529442,"12/01/2024 15:15:29",1705072529442,0,"12/01/2024 15:15:29",159402,5,"task-w25u",NA,34165951,10093094,NA,"complete",NA,"65a15560c6386e8d18613a13","computer","Desktop or Laptop","Windows 10","Chrome 120.0.0.0","1536x864","1536x703",NA,NA,0,"Task Introduction and Instructions (re-introduce video and audio)",1,"GHFIEJDACB","Passed AC2","","Spreadsheet1",1,"Task Instructions","Screen 2","ce2tc8",2,"continue","",10748.6,10732,10748.6,10748.6,10732,10748.6,1,10748.6,0,0,NA,"Click To Continue","Continue Button",2,"object-7","Task Instructions",NA,"SUPPRF90670"
"4",1705072533058,"12/01/2024 15:15:33",1705072533058,0,"12/01/2024 15:15:33",159402,5,"task-w25u",NA,34165951,10093094,NA,"complete",NA,"65a15560c6386e8d18613a13","computer","Desktop or Laptop","Windows 10","Chrome 120.0.0.0","1536x864","1536x703",NA,NA,0,"Task Introduction and Instructions (re-introduce video and audio)",1,"GHFIEJDACB","Passed AC2","","Spreadsheet1",1,"Task Instructions","Screen 3","1qtc8v",3,"continue","",3632.5,3616.2,3632.5,3632.5,3616.2,3632.5,1,3632.5,0,0,NA,"Click To Continue","Continue Button",2,"object-52","Task Instructions",NA,"SUPPRF90670"
"5",1705072535763,"12/01/2024 15:15:35",1705072535763,0,"12/01/2024 15:15:35",159402,5,"task-w25u",NA,34165951,10093094,NA,"complete",NA,"65a15560c6386e8d18613a13","computer","Desktop or Laptop","Windows 10","Chrome 120.0.0.0","1536x864","1536x703",NA,NA,0,"Task Introduction and Instructions (re-introduce video and audio)",1,"GHFIEJDACB","Passed AC2","","Spreadsheet1",1,"Task Instructions","Screen 4","spepx9",4,"continue","",2721.69999999851,2716.5,2721.69999999851,2721.69999999851,2716.5,2721.69999999851,1,2721.69999999851,0,0,NA,"Click To Continue","Continue Button",2,"object-9","Task Instructions",NA,"SUPPRF90670"
"6",1705072538624,"12/01/2024 15:15:38",1705072538624,0,"12/01/2024 15:15:38",159402,5,"task-w25u",NA,34165951,10093094,NA,"complete",NA,"65a15560c6386e8d18613a13","computer","Desktop or Laptop","Windows 10","Chrome 120.0.0.0","1536x864","1536x703",NA,NA,0,"Task Introduction and Instructions (re-introduce video and audio)",1,"GHFIEJDACB","Passed AC2","","Spreadsheet1",1,"Task Instructions","Screen 5","8nvnao",5,"continue","",2865.89999999776,2849.4,2865.89999999776,2865.89999999776,2849.4,2865.89999999776,1,2865.89999999776,0,0,NA,"Click To Continue","Continue Button",2,"object-44","Task Instructions",NA,"SUPPRF90670"
"7",1705072538628,"12/01/2024 15:15:38",1705072538628,0,"12/01/2024 15:15:38",159402,5,"task-w25u",NA,34165951,10093094,NA,"complete",NA,"65a15560c6386e8d18613a13","computer","Desktop or Laptop","Windows 10","Chrome 120.0.0.0","1536x864","1536x703",NA,NA,0,"Task Introduction and Instructions (re-introduce video and audio)",1,"GHFIEJDACB","Passed AC2","","Spreadsheet1",NA,"","","",NA,"5","END",NA,NA,NA,NA,NA,NA,0,NA,NA,NA,NA,"","",NA,"","",NA,"SUPPRF90670"
"1",1705074256219,"12/01/2024 15:44:16",1705056256219,-5,"12/01/2024 05:44:16",159402,5,"task-w25u",NA,34168397,10093361,NA,"complete",NA,"65a15ac3d44a8004da58e998","computer","Desktop or Laptop","Windows 10","Chrome 120.0.0.0","1280x720","1280x551",NA,NA,0,"Task Introduction and Instructions (re-introduce video and audio)",1,"IJHAGBFCED","Passed AC2","","Spreadsheet1",NA,"","","",NA,"5","BEGIN",NA,NA,NA,NA,NA,NA,0,NA,NA,NA,NA,"","",NA,"","",NA,"SUPPRF04224"
"2",1705074260014,"12/01/2024 15:44:20",1705056260014,-5,"12/01/2024 05:44:20",159402,5,"task-w25u",NA,34168397,10093361,NA,"complete",NA,"65a15ac3d44a8004da58e998","computer","Desktop or Laptop","Windows 10","Chrome 120.0.0.0","1280x720","1280x551",NA,NA,0,"Task Introduction and Instructions (re-introduce video and audio)",1,"IJHAGBFCED","Passed AC2","","Spreadsheet1",1,"Task Instructions","Screen 1","anr7sn",1,"continue","",3230.7000002861,3215.1,3230.7000002861,3230.7000002861,3215.1,3230.7000002861,1,3230.7000002861,0,0,NA,"Click To Continue","Continue Button",2,"object-1944","Task Instructions",NA,"SUPPRF04224"
"3",1705074270977,"12/01/2024 15:44:30",1705056270977,-5,"12/01/2024 05:44:30",159402,5,"task-w25u",NA,34168397,10093361,NA,"complete",NA,"65a15ac3d44a8004da58e998","computer","Desktop or Laptop","Windows 10","Chrome 120.0.0.0","1280x720","1280x551",NA,NA,0,"Task Introduction and Instructions (re-introduce video and audio)",1,"IJHAGBFCED","Passed AC2","","Spreadsheet1",1,"Task Instructions","Screen 2","ce2tc8",2,"continue","",10978.9,10961.4,10978.9,10978.9,10961.4,10978.9,1,10978.9,0,0,NA,"Click To Continue","Continue Button",2,"object-7","Task Instructions",NA,"SUPPRF04224"
"4",1705074284011,"12/01/2024 15:44:44",1705056284011,-5,"12/01/2024 05:44:44",159402,5,"task-w25u",NA,34168397,10093361,NA,"complete",NA,"65a15ac3d44a8004da58e998","computer","Desktop or Laptop","Windows 10","Chrome 120.0.0.0","1280x720","1280x551",NA,NA,0,"Task Introduction and Instructions (re-introduce video and audio)",1,"IJHAGBFCED","Passed AC2","","Spreadsheet1",1,"Task Instructions","Screen 3","1qtc8v",3,"continue","",13052,13042.1,13052,13052,13042.1,13052,1,13052,0,0,NA,"Click To Continue","Continue Button",2,"object-52","Task Instructions",NA,"SUPPRF04224"
"5",1705074295970,"12/01/2024 15:44:55",1705056295970,-5,"12/01/2024 05:44:55",159402,5,"task-w25u",NA,34168397,10093361,NA,"complete",NA,"65a15ac3d44a8004da58e998","computer","Desktop or Laptop","Windows 10","Chrome 120.0.0.0","1280x720","1280x551",NA,NA,0,"Task Introduction and Instructions (re-introduce video and audio)",1,"IJHAGBFCED","Passed AC2","","Spreadsheet1",1,"Task Instructions","Screen 4","spepx9",4,"continue","",11968.5000003815,11959.9,11968.5000003815,11968.5000003815,11959.9,11968.5000003815,1,11968.5000003815,0,0,NA,"Click To Continue","Continue Button",2,"object-9","Task Instructions",NA,"SUPPRF04224"
"6",1705074299307,"12/01/2024 15:44:59",1705056299307,-5,"12/01/2024 05:44:59",159402,5,"task-w25u",NA,34168397,10093361,NA,"complete",NA,"65a15ac3d44a8004da58e998","computer","Desktop or Laptop","Windows 10","Chrome 120.0.0.0","1280x720","1280x551",NA,NA,0,"Task Introduction and Instructions (re-introduce video and audio)",1,"IJHAGBFCED","Passed AC2","","Spreadsheet1",1,"Task Instructions","Screen 5","8nvnao",5,"continue","",3345.80000019073,3331.6,3345.80000019073,3345.80000019073,3331.6,3345.80000019073,1,3345.80000019073,0,0,NA,"Click To Continue","Continue Button",2,"object-44","Task Instructions",NA,"SUPPRF04224"
"7",1705074299310,"12/01/2024 15:44:59",1705056299310,-5,"12/01/2024 05:44:59",159402,5,"task-w25u",NA,34168397,10093361,NA,"complete",NA,"65a15ac3d44a8004da58e998","computer","Desktop or Laptop","Windows 10","Chrome 120.0.0.0","1280x720","1280x551",NA,NA,0,"Task Introduction and Instructions (re-introduce video and audio)",1,"IJHAGBFCED","Passed AC2","","Spreadsheet1",NA,"","","",NA,"5","END",NA,NA,NA,NA,NA,NA,0,NA,NA,NA,NA,"","",NA,"","",NA,"SUPPRF04224"
"1",1705074825735,"12/01/2024 15:53:45",1705074825735,0,"12/01/2024 15:53:45",159402,5,"task-w25u",NA,34169123,10093042,NA,"rejected - time limit reached",NA,"65a1535bb2e78411115538c2","computer","Desktop or Laptop","Windows 10","Chrome 120.0.0.0","1707x960","1707x872",NA,NA,0,"Task Introduction and Instructions (re-introduce video and audio)",1,"FGEHDICJBA","Passed AC2","","Spreadsheet1",NA,"","","",NA,"5","BEGIN",NA,NA,NA,NA,NA,NA,0,NA,NA,NA,NA,"","",NA,"","",NA,"SUPPRF66281"
"2",1705074840078,"12/01/2024 15:54:00",1705074840078,0,"12/01/2024 15:54:00",159402,5,"task-w25u",NA,34169123,10093042,NA,"rejected - time limit reached",NA,"65a1535bb2e78411115538c2","computer","Desktop or Laptop","Windows 10","Chrome 120.0.0.0","1707x960","1707x872",NA,NA,0,"Task Introduction and Instructions (re-introduce video and audio)",1,"FGEHDICJBA","Passed AC2","","Spreadsheet1",1,"Task Instructions","Screen 1","anr7sn",1,"continue","",11571.3000000089,11556.1,11571.3000000089,11571.3000000089,11556.1,11571.3000000089,1,11571.3000000089,0,0,NA,"Click To Continue","Continue Button",2,"object-1944","Task Instructions",NA,"SUPPRF66281"
"3",1705074868818,"12/01/2024 15:54:28",1705074868818,0,"12/01/2024 15:54:28",159402,5,"task-w25u",NA,34169123,10093042,NA,"rejected - time limit reached",NA,"65a1535bb2e78411115538c2","computer","Desktop or Laptop","Windows 10","Chrome 120.0.0.0","1707x960","1707x872",NA,NA,0,"Task Introduction and Instructions (re-introduce video and audio)",1,"FGEHDICJBA","Passed AC2","","Spreadsheet1",1,"Task Instructions","Screen 2","ce2tc8",2,"continue","",28756.6,28723.5,28756.6,28756.6,28723.5,28756.6,1,28756.6,0,0,NA,"Click To Continue","Continue Button",2,"object-7","Task Instructions",NA,"SUPPRF66281"
"4",1705074875827,"12/01/2024 15:54:35",1705074875827,0,"12/01/2024 15:54:35",159402,5,"task-w25u",NA,34169123,10093042,NA,"rejected - time limit reached",NA,"65a1535bb2e78411115538c2","computer","Desktop or Laptop","Windows 10","Chrome 120.0.0.0","1707x960","1707x872",NA,NA,0,"Task Introduction and Instructions (re-introduce video and audio)",1,"FGEHDICJBA","Passed AC2","","Spreadsheet1",1,"Task Instructions","Screen 3","1qtc8v",3,"continue","",7043.00000000596,7026.8,7043.00000000596,7043.00000000596,7026.8,7043.00000000596,1,7043.00000000596,0,0,NA,"Click To Continue","Continue Button",2,"object-52","Task Instructions",NA,"SUPPRF66281"
"5",1705074883043,"12/01/2024 15:54:43",1705074883043,0,"12/01/2024 15:54:43",159402,5,"task-w25u",NA,34169123,10093042,NA,"rejected - time limit reached",NA,"65a1535bb2e78411115538c2","computer","Desktop or Laptop","Windows 10","Chrome 120.0.0.0","1707x960","1707x872",NA,NA,0,"Task Introduction and Instructions (re-introduce video and audio)",1,"FGEHDICJBA","Passed AC2","","Spreadsheet1",1,"Task Instructions","Screen 4","spepx9",4,"continue","",7232.3,7226.7,7232.3,7232.3,7226.7,7232.3,1,7232.3,0,0,NA,"Click To Continue","Continue Button",2,"object-9","Task Instructions",NA,"SUPPRF66281"
"6",1705074888174,"12/01/2024 15:54:48",1705074888174,0,"12/01/2024 15:54:48",159402,5,"task-w25u",NA,34169123,10093042,NA,"rejected - time limit reached",NA,"65a1535bb2e78411115538c2","computer","Desktop or Laptop","Windows 10","Chrome 120.0.0.0","1707x960","1707x872",NA,NA,0,"Task Introduction and Instructions (re-introduce video and audio)",1,"FGEHDICJBA","Passed AC2","","Spreadsheet1",1,"Task Instructions","Screen 5","8nvnao",5,"continue","",5136.80000000299,5128.60000000001,5136.80000000299,5136.80000000299,5128.60000000001,5136.80000000299,1,5136.80000000299,0,0,NA,"Click To Continue","Continue Button",2,"object-44","Task Instructions",NA,"SUPPRF66281"
"7",1705074888208,"12/01/2024 15:54:48",1705074888208,0,"12/01/2024 15:54:48",159402,5,"task-w25u",NA,34169123,10093042,NA,"rejected - time limit reached",NA,"65a1535bb2e78411115538c2","computer","Desktop or Laptop","Windows 10","Chrome 120.0.0.0","1707x960","1707x872",NA,NA,0,"Task Introduction and Instructions (re-introduce video and audio)",1,"FGEHDICJBA","Passed AC2","","Spreadsheet1",NA,"","","",NA,"5","END",NA,NA,NA,NA,NA,NA,0,NA,NA,NA,NA,"","",NA,"","",NA,"SUPPRF66281"
"1",1705074956326,"12/01/2024 15:55:56",1705056956326,-5,"12/01/2024 05:55:56",159402,5,"task-w25u",NA,34169300,10093577,NA,"complete",NA,"65a15dc5f71d08445d43cd2d","computer","Desktop or Laptop","Windows 10","Chrome 120.0.0.0","1920x1080","1920x953",NA,NA,0,"Task Introduction and Instructions (re-introduce video and audio)",1,"JAIBHCGDFE","Passed AC2","","Spreadsheet1",NA,"","","",NA,"5","BEGIN",NA,NA,NA,NA,NA,NA,0,NA,NA,NA,NA,"","",NA,"","",NA,"SUPPRF32044"
"2",1705074960305,"12/01/2024 15:56:00",1705056960305,-5,"12/01/2024 05:56:00",159402,5,"task-w25u",NA,34169300,10093577,NA,"complete",NA,"65a15dc5f71d08445d43cd2d","computer","Desktop or Laptop","Windows 10","Chrome 120.0.0.0","1920x1080","1920x953",NA,NA,0,"Task Introduction and Instructions (re-introduce video and audio)",1,"JAIBHCGDFE","Passed AC2","","Spreadsheet1",1,"Task Instructions","Screen 1","anr7sn",1,"continue","",3879.29999961853,3867.4,3879.29999961853,3879.29999961853,3867.4,3879.29999961853,1,3879.29999961853,0,0,NA,"Click To Continue","Continue Button",2,"object-1944","Task Instructions",NA,"SUPPRF32044"
"3",1705074966673,"12/01/2024 15:56:06",1705056966673,-5,"12/01/2024 05:56:06",159402,5,"task-w25u",NA,34169300,10093577,NA,"complete",NA,"65a15dc5f71d08445d43cd2d","computer","Desktop or Laptop","Windows 10","Chrome 120.0.0.0","1920x1080","1920x953",NA,NA,0,"Task Introduction and Instructions (re-introduce video and audio)",1,"JAIBHCGDFE","Passed AC2","","Spreadsheet1",1,"Task Instructions","Screen 2","ce2tc8",2,"continue","",6379.59999990463,6368,6379.59999990463,6379.59999990463,6368,6379.59999990463,1,6379.59999990463,0,0,NA,"Click To Continue","Continue Button",2,"object-7","Task Instructions",NA,"SUPPRF32044"
