"Event.Index","UTC.Timestamp","UTC.Date.and.Time","Local.Timestamp","Local.Timezone","Local.Date.and.Time","Experiment.ID","Experiment.Version","Tree.Node.Key","Repeat.Key","Schedule.ID","Participant.Private.ID","Participant.Starting.Group","Participant.Status","Participant.Completion.Code","Participant.External.Session.ID","Participant.Device.Type","Participant.Device","Participant.OS","Participant.Browser","Participant.Monitor.Size","Participant.Viewport.Size","Checkpoint","Room.ID","Room.Order","Task.Name","Task.Version","branch.ln1a","randomiser.vzsr","branch.hkzp","randomiser.ywar","randomiser.q6ah","order.ot79","randomiser.ahe2","randomiser.ckhi","randomiser.lqqr","randomiser.pobd","randomiser.8gdj","Spreadsheet","Current.Spreadsheet","Trial.Number","Display","Screen","Screen.ID","Screen.Counter","Response.Type","Response","Onset.Time","Clock.Time","Reaction.Time","Absolute.Onset.Time","Absolute.Clock.Time","Absolute.Reaction.Time","Correct","Response.Onset","Response.Duration","Proportion","Tag","Component.Name","Object.Name","Object.Number","Object.ID","Spreadsheet..display","Spreadsheet..stimulus","Manipulation..Spreadsheet","Random_ID"
"1",1688989288655,"10/07/2023 11:41:28",1688974888655,-4,"10/07/2023 03:41:28",137495,33,"task-284e",NA,30591537,9082638,NA,"complete",NA,NA,"computer","Desktop or Laptop","Windows 10","Chrome 114.0.0.0","1280x1024","1280x881",NA,NA,NA,"JV Task P3 (Updated)",4,"Anxious",321,"In",NA,1,"FGEHDICJBKA",NA,NA,"A (JV first)",NA,NA,"SS1","SS1",NA,"","","",NA,"5","BEGIN",NA,NA,NA,NA,NA,NA,0,NA,NA,NA,NA,"","",NA,"","","",NA,"SUPTM12782"
"2",1688989307535,"10/07/2023 11:41:47",1688974907535,-4,"10/07/2023 03:41:47",137495,33,"task-284e",NA,30591537,9082638,NA,"complete",NA,NA,"computer","Desktop or Laptop","Windows 10","Chrome 114.0.0.0","1280x1024","1280x881",NA,NA,NA,"JV Task P3 (Updated)",4,"Anxious",321,"In",NA,1,"FGEHDICJBKA",NA,NA,"A (JV first)",NA,NA,"SS1","SS1",1,"V","Valence","xyoebq",1,"continue","",7345.86599995232,7330.942,7345.86599995232,7345.86599995232,7330.942,7345.86599995232,1,7345.86599995232,0,0,NA,"Click To Continue","Continue Button",1,"object-25","V","CFD-WM-035-032-S.jpeg",NA,"SUPTM12782"
"3",1688989307542,"10/07/2023 11:41:47",1688974907542,-4,"10/07/2023 03:41:47",137495,33,"task-284e",NA,30591537,9082638,NA,"complete",NA,NA,"computer","Desktop or Laptop","Windows 10","Chrome 114.0.0.0","1280x1024","1280x881",NA,NA,NA,"JV Task P3 (Updated)",4,"Anxious",321,"In",NA,1,"FGEHDICJBKA",NA,NA,"A (JV first)",NA,NA,"SS1","SS1",1,"V","Valence","xyoebq",1,"response","31",4415.176,7330.942,7347.54899999999,4415.176,7330.942,7347.54899999999,1,4415.176,2932.37299999999,0,NA,"Slider","J",3,"object-27","V","CFD-WM-035-032-S.jpeg",NA,"SUPTM12782"
"4",1688989308486,"10/07/2023 11:41:48",1688974908486,-4,"10/07/2023 03:41:48",137495,33,"task-284e",NA,30591537,9082638,NA,"complete",NA,NA,"computer","Desktop or Laptop","Windows 10","Chrome 114.0.0.0","1280x1024","1280x881",NA,NA,NA,"JV Task P3 (Updated)",4,"Anxious",321,"In",NA,1,"FGEHDICJBKA",NA,NA,"A (JV first)",NA,NA,"SS1","SS1",1,"V","Fixation","68owkj",2,"continue","",966.289000000004,966.289000000004,966.289000000004,966.289000000004,966.289000000004,966.289000000004,1,966.289000000004,0,0,NA,"Fixation Timing","Fixation",1,"object-21","V","CFD-WM-035-032-S.jpeg",NA,"SUPTM12782"
"5",1688989362237,"10/07/2023 11:42:42",1688974962237,-4,"10/07/2023 03:42:42",137495,33,"task-284e",NA,30591537,9082638,NA,"complete",NA,NA,"computer","Desktop or Laptop","Windows 10","Chrome 114.0.0.0","1280x1024","1280x881",NA,NA,NA,"JV Task P3 (Updated)",4,"Anxious",321,"In",NA,1,"FGEHDICJBKA",NA,NA,"A (JV first)",NA,NA,"SS1","SS1",1,"J","Judginess","y8ii7g",1,"continue","",12532.222,12529.135,12532.222,12532.222,12529.135,12532.222,1,12532.222,0,0,NA,"Click To Continue","Continue Button",1,"object-14","J","CFD-MF-309-002-S.jpeg",NA,"SUPTM12782"
"6",1688989362243,"10/07/2023 11:42:42",1688974962243,-4,"10/07/2023 03:42:42",137495,33,"task-284e",NA,30591537,9082638,NA,"complete",NA,NA,"computer","Desktop or Laptop","Windows 10","Chrome 114.0.0.0","1280x1024","1280x881",NA,NA,NA,"JV Task P3 (Updated)",4,"Anxious",321,"In",NA,1,"FGEHDICJBKA",NA,NA,"A (JV first)",NA,NA,"SS1","SS1",1,"J","Judginess","y8ii7g",1,"response","44",11346.237,12529.135,12538.4220000477,11346.237,12529.135,12538.4220000477,1,11346.237,1192.18500004768,0,NA,"Slider","J",3,"object-18","J","CFD-MF-309-002-S.jpeg",NA,"SUPTM12782"
"7",1688989363201,"10/07/2023 11:42:43",1688974963201,-4,"10/07/2023 03:42:43",137495,33,"task-284e",NA,30591537,9082638,NA,"complete",NA,NA,"computer","Desktop or Laptop","Windows 10","Chrome 114.0.0.0","1280x1024","1280x881",NA,NA,NA,"JV Task P3 (Updated)",4,"Anxious",321,"In",NA,1,"FGEHDICJBKA",NA,NA,"A (JV first)",NA,NA,"SS1","SS1",1,"J","Fixation","w9zir9",2,"continue","",966.388000000006,966.388000000006,966.388000000006,966.388000000006,966.388000000006,966.388000000006,1,966.388000000006,0,0,NA,"Fixation Timing","Fixation",1,"object-65","J","CFD-MF-309-002-S.jpeg",NA,"SUPTM12782"
"8",1688989373686,"10/07/2023 11:42:53",1688974973686,-4,"10/07/2023 03:42:53",137495,33,"task-284e",NA,30591537,9082638,NA,"complete",NA,NA,"computer","Desktop or Laptop","Windows 10","Chrome 114.0.0.0","1280x1024","1280x881",NA,NA,NA,"JV Task P3 (Updated)",4,"Anxious",321,"In",NA,1,"FGEHDICJBKA",NA,NA,"A (JV first)",NA,NA,"SS1","SS1",2,"J","Judginess","y8ii7g",1,"continue","",7486.33199990464,7480.85000000001,7486.33199990464,7486.33199990464,7480.85000000001,7486.33199990464,1,7486.33199990464,0,0,NA,"Click To Continue","Continue Button",1,"object-14","J","CFD-IM-711-011-N.jpg",NA,"SUPTM12782"
"9",1688989373691,"10/07/2023 11:42:53",1688974973691,-4,"10/07/2023 03:42:53",137495,33,"task-284e",NA,30591537,9082638,NA,"complete",NA,NA,"computer","Desktop or Laptop","Windows 10","Chrome 114.0.0.0","1280x1024","1280x881",NA,NA,NA,"JV Task P3 (Updated)",4,"Anxious",321,"In",NA,1,"FGEHDICJBKA",NA,NA,"A (JV first)",NA,NA,"SS1","SS1",2,"J","Judginess","y8ii7g",1,"response","46",4998.357,7480.85000000001,7491.33199990464,4998.357,7480.85000000001,7491.33199990464,1,4998.357,2492.97499990463,0,NA,"Slider","J",3,"object-18","J","CFD-IM-711-011-N.jpg",NA,"SUPTM12782"
"10",1688989374647,"10/07/2023 11:42:54",1688974974647,-4,"10/07/2023 03:42:54",137495,33,"task-284e",NA,30591537,9082638,NA,"complete",NA,NA,"computer","Desktop or Laptop","Windows 10","Chrome 114.0.0.0","1280x1024","1280x881",NA,NA,NA,"JV Task P3 (Updated)",4,"Anxious",321,"In",NA,1,"FGEHDICJBKA",NA,NA,"A (JV first)",NA,NA,"SS1","SS1",2,"J","Fixation","w9zir9",2,"continue","",966.395999999993,966.395999999993,966.395999999993,966.395999999993,966.395999999993,966.395999999993,1,966.395999999993,0,0,NA,"Fixation Timing","Fixation",1,"object-65","J","CFD-IM-711-011-N.jpg",NA,"SUPTM12782"
"11",1688989378797,"10/07/2023 11:42:58",1688974978797,-4,"10/07/2023 03:42:58",137495,33,"task-284e",NA,30591537,9082638,NA,"complete",NA,NA,"computer","Desktop or Laptop","Windows 10","Chrome 114.0.0.0","1280x1024","1280x881",NA,NA,NA,"JV Task P3 (Updated)",4,"Anxious",321,"In",NA,1,"FGEHDICJBKA",NA,NA,"A (JV first)",NA,NA,"SS1","SS1",2,"V","Valence","xyoebq",1,"continue","",4150.88600009537,4148.59700000001,4150.88600009537,4150.88600009537,4148.59700000001,4150.88600009537,1,4150.88600009537,0,0,NA,"Click To Continue","Continue Button",1,"object-25","V","CFD-AF-233-190-N.jpg",NA,"SUPTM12782"
"12",1688989378798,"10/07/2023 11:42:58",1688974978798,-4,"10/07/2023 03:42:58",137495,33,"task-284e",NA,30591537,9082638,NA,"complete",NA,NA,"computer","Desktop or Laptop","Windows 10","Chrome 114.0.0.0","1280x1024","1280x881",NA,NA,NA,"JV Task P3 (Updated)",4,"Anxious",321,"In",NA,1,"FGEHDICJBKA",NA,NA,"A (JV first)",NA,NA,"SS1","SS1",2,"V","Valence","xyoebq",1,"response","53",2882.348,4148.59700000001,4152.08599990464,2882.348,4148.59700000001,4152.08599990464,1,2882.348,1269.73799990464,0,NA,"Slider","J",3,"object-27","V","CFD-AF-233-190-N.jpg",NA,"SUPTM12782"
"13",1688989379762,"10/07/2023 11:42:59",1688974979762,-4,"10/07/2023 03:42:59",137495,33,"task-284e",NA,30591537,9082638,NA,"complete",NA,NA,"computer","Desktop or Laptop","Windows 10","Chrome 114.0.0.0","1280x1024","1280x881",NA,NA,NA,"JV Task P3 (Updated)",4,"Anxious",321,"In",NA,1,"FGEHDICJBKA",NA,NA,"A (JV first)",NA,NA,"SS1","SS1",2,"V","Fixation","68owkj",2,"continue","",966.32699999999,966.32699999999,966.32699999999,966.32699999999,966.32699999999,966.32699999999,1,966.32699999999,0,0,NA,"Fixation Timing","Fixation",1,"object-21","V","CFD-AF-233-190-N.jpg",NA,"SUPTM12782"
"14",1688989388676,"10/07/2023 11:43:08",1688974988676,-4,"10/07/2023 03:43:08",137495,33,"task-284e",NA,30591537,9082638,NA,"complete",NA,NA,"computer","Desktop or Laptop","Windows 10","Chrome 114.0.0.0","1280x1024","1280x881",NA,NA,NA,"JV Task P3 (Updated)",4,"Anxious",321,"In",NA,1,"FGEHDICJBKA",NA,NA,"A (JV first)",NA,NA,"SS1","SS1",3,"V","Valence","xyoebq",1,"continue","",8913.643,8897.038,8913.643,8913.643,8897.038,8913.643,1,8913.643,0,0,NA,"Click To Continue","Continue Button",1,"object-25","V","CFD-WM-009-002-N.jpg",NA,"SUPTM12782"
"15",1688989388686,"10/07/2023 11:43:08",1688974988686,-4,"10/07/2023 03:43:08",137495,33,"task-284e",NA,30591537,9082638,NA,"complete",NA,NA,"computer","Desktop or Laptop","Windows 10","Chrome 114.0.0.0","1280x1024","1280x881",NA,NA,NA,"JV Task P3 (Updated)",4,"Anxious",321,"In",NA,1,"FGEHDICJBKA",NA,NA,"A (JV first)",NA,NA,"SS1","SS1",3,"V","Valence","xyoebq",1,"response","60",7764.099,8897.038,8913.643,7764.099,8897.038,8913.643,1,7764.099,1149.54399999999,0,NA,"Slider","J",3,"object-27","V","CFD-WM-009-002-N.jpg",NA,"SUPTM12782"
"16",1688989389625,"10/07/2023 11:43:09",1688974989625,-4,"10/07/2023 03:43:09",137495,33,"task-284e",NA,30591537,9082638,NA,"complete",NA,NA,"computer","Desktop or Laptop","Windows 10","Chrome 114.0.0.0","1280x1024","1280x881",NA,NA,NA,"JV Task P3 (Updated)",4,"Anxious",321,"In",NA,1,"FGEHDICJBKA",NA,NA,"A (JV first)",NA,NA,"SS1","SS1",3,"V","Fixation","68owkj",2,"continue","",966.334000000003,966.334000000003,966.334000000003,966.334000000003,966.334000000003,966.334000000003,1,966.334000000003,0,0,NA,"Fixation Timing","Fixation",1,"object-21","V","CFD-WM-009-002-N.jpg",NA,"SUPTM12782"
"17",1688989393005,"10/07/2023 11:43:13",1688974993005,-4,"10/07/2023 03:43:13",137495,33,"task-284e",NA,30591537,9082638,NA,"complete",NA,NA,"computer","Desktop or Laptop","Windows 10","Chrome 114.0.0.0","1280x1024","1280x881",NA,NA,NA,"JV Task P3 (Updated)",4,"Anxious",321,"In",NA,1,"FGEHDICJBKA",NA,NA,"A (JV first)",NA,NA,"SS1","SS1",4,"V","Valence","xyoebq",1,"continue","",3380.09000009537,3365.54700000001,3380.09000009537,3380.09000009537,3365.54700000001,3380.09000009537,1,3380.09000009537,0,0,NA,"Click To Continue","Continue Button",1,"object-25","V","CFD-WF-037-029-S.jpeg",NA,"SUPTM12782"
"18",1688989393005,"10/07/2023 11:43:13",1688974993005,-4,"10/07/2023 03:43:13",137495,33,"task-284e",NA,30591537,9082638,NA,"complete",NA,NA,"computer","Desktop or Laptop","Windows 10","Chrome 114.0.0.0","1280x1024","1280x881",NA,NA,NA,"JV Task P3 (Updated)",4,"Anxious",321,"In",NA,1,"FGEHDICJBKA",NA,NA,"A (JV first)",NA,NA,"SS1","SS1",4,"V","Valence","xyoebq",1,"response","42",2482.497,3365.54700000001,3380.98999995232,2482.497,3365.54700000001,3380.98999995232,1,2482.497,898.492999952316,0,NA,"Slider","J",3,"object-27","V","CFD-WF-037-029-S.jpeg",NA,"SUPTM12782"
"19",1688989393957,"10/07/2023 11:43:13",1688974993957,-4,"10/07/2023 03:43:13",137495,33,"task-284e",NA,30591537,9082638,NA,"complete",NA,NA,"computer","Desktop or Laptop","Windows 10","Chrome 114.0.0.0","1280x1024","1280x881",NA,NA,NA,"JV Task P3 (Updated)",4,"Anxious",321,"In",NA,1,"FGEHDICJBKA",NA,NA,"A (JV first)",NA,NA,"SS1","SS1",4,"V","Fixation","68owkj",2,"continue","",966.364999999991,966.364999999991,966.364999999991,966.364999999991,966.364999999991,966.364999999991,1,966.364999999991,0,0,NA,"Fixation Timing","Fixation",1,"object-21","V","CFD-WF-037-029-S.jpeg",NA,"SUPTM12782"
"20",1688989400811,"10/07/2023 11:43:20",1688975000811,-4,"10/07/2023 03:43:20",137495,33,"task-284e",NA,30591537,9082638,NA,"complete",NA,NA,"computer","Desktop or Laptop","Windows 10","Chrome 114.0.0.0","1280x1024","1280x881",NA,NA,NA,"JV Task P3 (Updated)",4,"Anxious",321,"In",NA,1,"FGEHDICJBKA",NA,NA,"A (JV first)",NA,NA,"SS1","SS1",3,"J","Judginess","y8ii7g",1,"continue","",4704.45299995232,4697.99800000001,4704.45299995232,4704.45299995232,4697.99800000001,4704.45299995232,1,4704.45299995232,0,0,NA,"Click To Continue","Continue Button",1,"object-14","J","CFD-AF-211-066-S.jpeg",NA,"SUPTM12782"
"21",1688989400815,"10/07/2023 11:43:20",1688975000815,-4,"10/07/2023 03:43:20",137495,33,"task-284e",NA,30591537,9082638,NA,"complete",NA,NA,"computer","Desktop or Laptop","Windows 10","Chrome 114.0.0.0","1280x1024","1280x881",NA,NA,NA,"JV Task P3 (Updated)",4,"Anxious",321,"In",NA,1,"FGEHDICJBKA",NA,NA,"A (JV first)",NA,NA,"SS1","SS1",3,"J","Judginess","y8ii7g",1,"response","37",3548.45300000001,4697.99800000001,4709.15300000001,3548.45300000001,4697.99800000001,4709.15300000001,1,3548.45300000001,1160.7,0,NA,"Slider","J",3,"object-18","J","CFD-AF-211-066-S.jpeg",NA,"SUPTM12782"
"22",1688989401771,"10/07/2023 11:43:21",1688975001771,-4,"10/07/2023 03:43:21",137495,33,"task-284e",NA,30591537,9082638,NA,"complete",NA,NA,"computer","Desktop or Laptop","Windows 10","Chrome 114.0.0.0","1280x1024","1280x881",NA,NA,NA,"JV Task P3 (Updated)",4,"Anxious",321,"In",NA,1,"FGEHDICJBKA",NA,NA,"A (JV first)",NA,NA,"SS1","SS1",3,"J","Fixation","w9zir9",2,"continue","",966.431000000011,966.431000000011,966.431000000011,966.431000000011,966.431000000011,966.431000000011,1,966.431000000011,0,0,NA,"Fixation Timing","Fixation",1,"object-65","J","CFD-AF-211-066-S.jpeg",NA,"SUPTM12782"
"23",1688989421909,"10/07/2023 11:43:41",1688975021909,-4,"10/07/2023 03:43:41",137495,33,"task-284e",NA,30591537,9082638,NA,"complete",NA,NA,"computer","Desktop or Laptop","Windows 10","Chrome 114.0.0.0","1280x1024","1280x881",NA,NA,NA,"JV Task P3 (Updated)",4,"Anxious",321,"In",NA,1,"FGEHDICJBKA",NA,NA,"A (JV first)",NA,NA,"SS1","SS1",5,"V","Valence","xyoebq",1,"continue","",4210.236,4198.63399999999,4210.236,4210.236,4198.63399999999,4210.236,1,4210.236,0,0,NA,"Click To Continue","Continue Button",1,"object-25","V","CFD-MF-315-002-H.jpeg",NA,"SUPTM12782"
"24",1688989421915,"10/07/2023 11:43:41",1688975021915,-4,"10/07/2023 03:43:41",137495,33,"task-284e",NA,30591537,9082638,NA,"complete",NA,NA,"computer","Desktop or Laptop","Windows 10","Chrome 114.0.0.0","1280x1024","1280x881",NA,NA,NA,"JV Task P3 (Updated)",4,"Anxious",321,"In",NA,1,"FGEHDICJBKA",NA,NA,"A (JV first)",NA,NA,"SS1","SS1",5,"V","Valence","xyoebq",1,"response","76",2849.10200000001,4198.63399999999,4215.25499999998,2849.10200000001,4198.63399999999,4215.25499999998,1,2849.10200000001,1366.15299999996,0,NA,"Slider","J",3,"object-27","V","CFD-MF-315-002-H.jpeg",NA,"SUPTM12782"
"25",1688989422865,"10/07/2023 11:43:42",1688975022865,-4,"10/07/2023 03:43:42",137495,33,"task-284e",NA,30591537,9082638,NA,"complete",NA,NA,"computer","Desktop or Laptop","Windows 10","Chrome 114.0.0.0","1280x1024","1280x881",NA,NA,NA,"JV Task P3 (Updated)",4,"Anxious",321,"In",NA,1,"FGEHDICJBKA",NA,NA,"A (JV first)",NA,NA,"SS1","SS1",5,"V","Fixation","68owkj",2,"continue","",966.357000000018,966.357000000018,966.357000000018,966.357000000018,966.357000000018,966.357000000018,1,966.357000000018,0,0,NA,"Fixation Timing","Fixation",1,"object-21","V","CFD-MF-315-002-H.jpeg",NA,"SUPTM12782"
"26",1688989450845,"10/07/2023 11:44:10",1688975050845,-4,"10/07/2023 03:44:10",137495,33,"task-284e",NA,30591537,9082638,NA,"complete",NA,NA,"computer","Desktop or Laptop","Windows 10","Chrome 114.0.0.0","1280x1024","1280x881",NA,NA,NA,"JV Task P3 (Updated)",4,"Anxious",321,"In",NA,1,"FGEHDICJBKA",NA,NA,"A (JV first)",NA,NA,"SS1","SS1",4,"J","Judginess","y8ii7g",1,"continue","",4138.92100004767,4131.96899999998,4138.92100004767,4138.92100004767,4131.96899999998,4138.92100004767,1,4138.92100004767,0,0,NA,"Click To Continue","Continue Button",1,"object-14","J","CFD-AM-220-134-N.jpg",NA,"SUPTM12782"
"27",1688989450849,"10/07/2023 11:44:10",1688975050849,-4,"10/07/2023 03:44:10",137495,33,"task-284e",NA,30591537,9082638,NA,"complete",NA,NA,"computer","Desktop or Laptop","Windows 10","Chrome 114.0.0.0","1280x1024","1280x881",NA,NA,NA,"JV Task P3 (Updated)",4,"Anxious",321,"In",NA,1,"FGEHDICJBKA",NA,NA,"A (JV first)",NA,NA,"SS1","SS1",4,"J","Judginess","y8ii7g",1,"response","37",3065.66699999999,4131.96899999998,4143.62100009536,3065.66699999999,4131.96899999998,4143.62100009536,1,3065.66699999999,1077.95400009537,0,NA,"Slider","J",3,"object-18","J","CFD-AM-220-134-N.jpg",NA,"SUPTM12782"
"28",1688989451804,"10/07/2023 11:44:11",1688975051804,-4,"10/07/2023 03:44:11",137495,33,"task-284e",NA,30591537,9082638,NA,"complete",NA,NA,"computer","Desktop or Laptop","Windows 10","Chrome 114.0.0.0","1280x1024","1280x881",NA,NA,NA,"JV Task P3 (Updated)",4,"Anxious",321,"In",NA,1,"FGEHDICJBKA",NA,NA,"A (JV first)",NA,NA,"SS1","SS1",4,"J","Fixation","w9zir9",2,"continue","",966.252000000008,966.252000000008,966.252000000008,966.252000000008,966.252000000008,966.252000000008,1,966.252000000008,0,0,NA,"Fixation Timing","Fixation",1,"object-65","J","CFD-AM-220-134-N.jpg",NA,"SUPTM12782"
"29",1688989469717,"10/07/2023 11:44:29",1688975069717,-4,"10/07/2023 03:44:29",137495,33,"task-284e",NA,30591537,9082638,NA,"complete",NA,NA,"computer","Desktop or Laptop","Windows 10","Chrome 114.0.0.0","1280x1024","1280x881",NA,NA,NA,"JV Task P3 (Updated)",4,"Anxious",321,"In",NA,1,"FGEHDICJBKA",NA,NA,"A (JV first)",NA,NA,"SS1","SS1",6,"V","Valence","xyoebq",1,"continue","",8447.21799999999,8430.538,8447.21799999999,8447.21799999999,8430.538,8447.21799999999,1,8447.21799999999,0,0,NA,"Click To Continue","Continue Button",1,"object-25","V","CFD-WF-039-025-S.jpeg",NA,"SUPTM12782"
"30",1688989469724,"10/07/2023 11:44:29",1688975069724,-4,"10/07/2023 03:44:29",137495,33,"task-284e",NA,30591537,9082638,NA,"complete",NA,NA,"computer","Desktop or Laptop","Windows 10","Chrome 114.0.0.0","1280x1024","1280x881",NA,NA,NA,"JV Task P3 (Updated)",4,"Anxious",321,"In",NA,1,"FGEHDICJBKA",NA,NA,"A (JV first)",NA,NA,"SS1","SS1",6,"V","Valence","xyoebq",1,"response","54",5248.144,8430.538,8447.21799999999,5248.144,8430.538,8447.21799999999,1,5248.144,3199.07399999999,0,NA,"Slider","J",3,"object-27","V","CFD-WF-039-025-S.jpeg",NA,"SUPTM12782"
"31",1688989470665,"10/07/2023 11:44:30",1688975070665,-4,"10/07/2023 03:44:30",137495,33,"task-284e",NA,30591537,9082638,NA,"complete",NA,NA,"computer","Desktop or Laptop","Windows 10","Chrome 114.0.0.0","1280x1024","1280x881",NA,NA,NA,"JV Task P3 (Updated)",4,"Anxious",321,"In",NA,1,"FGEHDICJBKA",NA,NA,"A (JV first)",NA,NA,"SS1","SS1",6,"V","Fixation","68owkj",2,"continue","",966.361000000004,966.361000000004,966.361000000004,966.361000000004,966.361000000004,966.361000000004,1,966.361000000004,0,0,NA,"Fixation Timing","Fixation",1,"object-21","V","CFD-WF-039-025-S.jpeg",NA,"SUPTM12782"
"32",1688989481870,"10/07/2023 11:44:41",1688975081870,-4,"10/07/2023 03:44:41",137495,33,"task-284e",NA,30591537,9082638,NA,"complete",NA,NA,"computer","Desktop or Laptop","Windows 10","Chrome 114.0.0.0","1280x1024","1280x881",NA,NA,NA,"JV Task P3 (Updated)",4,"Anxious",321,"In",NA,1,"FGEHDICJBKA",NA,NA,"A (JV first)",NA,NA,"SS1","SS1",7,"V","Valence","xyoebq",1,"continue","",7672.60500004768,7664.166,7672.60500004768,7672.60500004768,7664.166,7672.60500004768,1,7672.60500004768,0,0,NA,"Click To Continue","Continue Button",1,"object-25","V","CFD-IM-711-011-H.jpeg",NA,"SUPTM12782"
"33",1688989481874,"10/07/2023 11:44:41",1688975081874,-4,"10/07/2023 03:44:41",137495,33,"task-284e",NA,30591537,9082638,NA,"complete",NA,NA,"computer","Desktop or Laptop","Windows 10","Chrome 114.0.0.0","1280x1024","1280x881",NA,NA,NA,"JV Task P3 (Updated)",4,"Anxious",321,"In",NA,1,"FGEHDICJBKA",NA,NA,"A (JV first)",NA,NA,"SS1","SS1",7,"V","Valence","xyoebq",1,"response","72",6714.47099999999,7664.166,7677.10500004768,6714.47099999999,7664.166,7677.10500004768,1,6714.47099999999,962.634000047692,0,NA,"Slider","J",3,"object-27","V","CFD-IM-711-011-H.jpeg",NA,"SUPTM12782"
"34",1688989482828,"10/07/2023 11:44:42",1688975082828,-4,"10/07/2023 03:44:42",137495,33,"task-284e",NA,30591537,9082638,NA,"complete",NA,NA,"computer","Desktop or Laptop","Windows 10","Chrome 114.0.0.0","1280x1024","1280x881",NA,NA,NA,"JV Task P3 (Updated)",4,"Anxious",321,"In",NA,1,"FGEHDICJBKA",NA,NA,"A (JV first)",NA,NA,"SS1","SS1",7,"V","Fixation","68owkj",2,"continue","",966.252000000008,966.252000000008,966.252000000008,966.252000000008,966.252000000008,966.252000000008,1,966.252000000008,0,0,NA,"Fixation Timing","Fixation",1,"object-21","V","CFD-IM-711-011-H.jpeg",NA,"SUPTM12782"
"35",1688989489517,"10/07/2023 11:44:49",1688975089517,-4,"10/07/2023 03:44:49",137495,33,"task-284e",NA,30591537,9082638,NA,"complete",NA,NA,"computer","Desktop or Laptop","Windows 10","Chrome 114.0.0.0","1280x1024","1280x881",NA,NA,NA,"JV Task P3 (Updated)",4,"Anxious",321,"In",NA,1,"FGEHDICJBKA",NA,NA,"A (JV first)",NA,NA,"SS1","SS1",8,"V","Valence","xyoebq",1,"continue","",5323.18700000001,5314.886,5323.18700000001,5323.18700000001,5314.886,5323.18700000001,1,5323.18700000001,0,0,NA,"Click To Continue","Continue Button",1,"object-25","V","CFD-WF-017-003-S.jpeg",NA,"SUPTM12782"
"36",1688989489518,"10/07/2023 11:44:49",1688975089518,-4,"10/07/2023 03:44:49",137495,33,"task-284e",NA,30591537,9082638,NA,"complete",NA,NA,"computer","Desktop or Laptop","Windows 10","Chrome 114.0.0.0","1280x1024","1280x881",NA,NA,NA,"JV Task P3 (Updated)",4,"Anxious",321,"In",NA,1,"FGEHDICJBKA",NA,NA,"A (JV first)",NA,NA,"SS1","SS1",8,"V","Valence","xyoebq",1,"response","43",4331.86199999999,5314.886,5324.08700009537,4331.86199999999,5314.886,5324.08700009537,1,4331.86199999999,992.225000095379,0,NA,"Slider","J",3,"object-27","V","CFD-WF-017-003-S.jpeg",NA,"SUPTM12782"
"37",1688989490476,"10/07/2023 11:44:50",1688975090476,-4,"10/07/2023 03:44:50",137495,33,"task-284e",NA,30591537,9082638,NA,"complete",NA,NA,"computer","Desktop or Laptop","Windows 10","Chrome 114.0.0.0","1280x1024","1280x881",NA,NA,NA,"JV Task P3 (Updated)",4,"Anxious",321,"In",NA,1,"FGEHDICJBKA",NA,NA,"A (JV first)",NA,NA,"SS1","SS1",8,"V","Fixation","68owkj",2,"continue","",966.34600000002,966.34600000002,966.34600000002,966.34600000002,966.34600000002,966.34600000002,1,966.34600000002,0,0,NA,"Fixation Timing","Fixation",1,"object-21","V","CFD-WF-017-003-S.jpeg",NA,"SUPTM12782"
"38",1688989511381,"10/07/2023 11:45:11",1688975111381,-4,"10/07/2023 03:45:11",137495,33,"task-284e",NA,30591537,9082638,NA,"complete",NA,NA,"computer","Desktop or Laptop","Windows 10","Chrome 114.0.0.0","1280x1024","1280x881",NA,NA,NA,"JV Task P3 (Updated)",4,"Anxious",321,"In",NA,1,"FGEHDICJBKA",NA,NA,"A (JV first)",NA,NA,"SS1","SS1",5,"J","Judginess","y8ii7g",1,"continue","",12675.0790000477,12662.456,12675.0790000477,12675.0790000477,12662.456,12675.0790000477,1,12675.0790000477,0,0,NA,"Click To Continue","Continue Button",1,"object-14","J","CFD-WM-026-001-H.jpeg",NA,"SUPTM12782"
"39",1688989511389,"10/07/2023 11:45:11",1688975111389,-4,"10/07/2023 03:45:11",137495,33,"task-284e",NA,30591537,9082638,NA,"complete",NA,NA,"computer","Desktop or Laptop","Windows 10","Chrome 114.0.0.0","1280x1024","1280x881",NA,NA,NA,"JV Task P3 (Updated)",4,"Anxious",321,"In",NA,1,"FGEHDICJBKA",NA,NA,"A (JV first)",NA,NA,"SS1","SS1",5,"J","Judginess","y8ii7g",1,"response","64",11712.701,12662.456,12679.081,11712.701,12662.456,12679.081,1,11712.701,966.380000000005,0,NA,"Slider","J",3,"object-18","J","CFD-WM-026-001-H.jpeg",NA,"SUPTM12782"
"40",1688989512335,"10/07/2023 11:45:12",1688975112335,-4,"10/07/2023 03:45:12",137495,33,"task-284e",NA,30591537,9082638,NA,"complete",NA,NA,"computer","Desktop or Laptop","Windows 10","Chrome 114.0.0.0","1280x1024","1280x881",NA,NA,NA,"JV Task P3 (Updated)",4,"Anxious",321,"In",NA,1,"FGEHDICJBKA",NA,NA,"A (JV first)",NA,NA,"SS1","SS1",5,"J","Fixation","w9zir9",2,"continue","",966.347999999998,966.347999999998,966.347999999998,966.347999999998,966.347999999998,966.347999999998,1,966.347999999998,0,0,NA,"Fixation Timing","Fixation",1,"object-65","J","CFD-WM-026-001-H.jpeg",NA,"SUPTM12782"
"41",1688989525741,"10/07/2023 11:45:25",1688975125741,-4,"10/07/2023 03:45:25",137495,33,"task-284e",NA,30591537,9082638,NA,"complete",NA,NA,"computer","Desktop or Laptop","Windows 10","Chrome 114.0.0.0","1280x1024","1280x881",NA,NA,NA,"JV Task P3 (Updated)",4,"Anxious",321,"In",NA,1,"FGEHDICJBKA",NA,NA,"A (JV first)",NA,NA,"SS1","SS1",9,"V","Valence","xyoebq",1,"continue","",13406.6749999046,13395.533,13406.6749999046,13406.6749999046,13395.533,13406.6749999046,1,13406.6749999046,0,0,NA,"Click To Continue","Continue Button",1,"object-25","V","CFD-AF-250-200-S.jpeg",NA,"SUPTM12782"
"42",1688989525745,"10/07/2023 11:45:25",1688975125745,-4,"10/07/2023 03:45:25",137495,33,"task-284e",NA,30591537,9082638,NA,"complete",NA,NA,"computer","Desktop or Laptop","Windows 10","Chrome 114.0.0.0","1280x1024","1280x881",NA,NA,NA,"JV Task P3 (Updated)",4,"Anxious",321,"In",NA,1,"FGEHDICJBKA",NA,NA,"A (JV first)",NA,NA,"SS1","SS1",9,"V","Valence","xyoebq",1,"response","38",12462.562,13395.533,13411.075,12462.562,13395.533,13411.075,1,12462.562,948.513000000006,0,NA,"Slider","J",3,"object-27","V","CFD-AF-250-200-S.jpeg",NA,"SUPTM12782"
"43",1688989526697,"10/07/2023 11:45:26",1688975126697,-4,"10/07/2023 03:45:26",137495,33,"task-284e",NA,30591537,9082638,NA,"complete",NA,NA,"computer","Desktop or Laptop","Windows 10","Chrome 114.0.0.0","1280x1024","1280x881",NA,NA,NA,"JV Task P3 (Updated)",4,"Anxious",321,"In",NA,1,"FGEHDICJBKA",NA,NA,"A (JV first)",NA,NA,"SS1","SS1",9,"V","Fixation","68owkj",2,"continue","",966.359999999986,966.359999999986,966.359999999986,966.359999999986,966.359999999986,966.359999999986,1,966.359999999986,0,0,NA,"Fixation Timing","Fixation",1,"object-21","V","CFD-AF-250-200-S.jpeg",NA,"SUPTM12782"
"44",1688989540212,"10/07/2023 11:45:40",1688975140212,-4,"10/07/2023 03:45:40",137495,33,"task-284e",NA,30591537,9082638,NA,"complete",NA,NA,"computer","Desktop or Laptop","Windows 10","Chrome 114.0.0.0","1280x1024","1280x881",NA,NA,NA,"JV Task P3 (Updated)",4,"Anxious",321,"In",NA,1,"FGEHDICJBKA",NA,NA,"A (JV first)",NA,NA,"SS1","SS1",10,"V","Valence","xyoebq",1,"continue","",13515.5820000954,13512.382,13515.5820000954,13515.5820000954,13512.382,13515.5820000954,1,13515.5820000954,0,0,NA,"Click To Continue","Continue Button",1,"object-25","V","CFD-MM-308-001-H.jpeg",NA,"SUPTM12782"
"45",1688989540216,"10/07/2023 11:45:40",1688975140216,-4,"10/07/2023 03:45:40",137495,33,"task-284e",NA,30591537,9082638,NA,"complete",NA,NA,"computer","Desktop or Laptop","Windows 10","Chrome 114.0.0.0","1280x1024","1280x881",NA,NA,NA,"JV Task P3 (Updated)",4,"Anxious",321,"In",NA,1,"FGEHDICJBKA",NA,NA,"A (JV first)",NA,NA,"SS1","SS1",10,"V","Valence","xyoebq",1,"response","66",12579.111,13512.382,13520.0820000954,12579.111,13512.382,13520.0820000954,1,12579.111,940.971000095364,0,NA,"Slider","J",3,"object-27","V","CFD-MM-308-001-H.jpeg",NA,"SUPTM12782"
"46",1688989541175,"10/07/2023 11:45:41",1688975141175,-4,"10/07/2023 03:45:41",137495,33,"task-284e",NA,30591537,9082638,NA,"complete",NA,NA,"computer","Desktop or Laptop","Windows 10","Chrome 114.0.0.0","1280x1024","1280x881",NA,NA,NA,"JV Task P3 (Updated)",4,"Anxious",321,"In",NA,1,"FGEHDICJBKA",NA,NA,"A (JV first)",NA,NA,"SS1","SS1",10,"V","Fixation","68owkj",2,"continue","",966.109999999986,966.109999999986,966.109999999986,966.109999999986,966.109999999986,966.109999999986,1,966.109999999986,0,0,NA,"Fixation Timing","Fixation",1,"object-21","V","CFD-MM-308-001-H.jpeg",NA,"SUPTM12782"
"47",1688989568948,"10/07/2023 11:46:08",1688975168948,-4,"10/07/2023 03:46:08",137495,33,"task-284e",NA,30591537,9082638,NA,"complete",NA,NA,"computer","Desktop or Laptop","Windows 10","Chrome 114.0.0.0","1280x1024","1280x881",NA,NA,NA,"JV Task P3 (Updated)",4,"Anxious",321,"In",NA,1,"FGEHDICJBKA",NA,NA,"A (JV first)",NA,NA,"SS1","SS1",11,"V","Valence","xyoebq",1,"continue","",19742.7700000477,19726.799,19742.7700000477,19742.7700000477,19726.799,19742.7700000477,1,19742.7700000477,0,0,NA,"Click To Continue","Continue Button",1,"object-25","V","CFD-WM-019-003-N.jpg",NA,"SUPTM12782"
"48",1688989568952,"10/07/2023 11:46:08",1688975168952,-4,"10/07/2023 03:46:08",137495,33,"task-284e",NA,30591537,9082638,NA,"complete",NA,NA,"computer","Desktop or Laptop","Windows 10","Chrome 114.0.0.0","1280x1024","1280x881",NA,NA,NA,"JV Task P3 (Updated)",4,"Anxious",321,"In",NA,1,"FGEHDICJBKA",NA,NA,"A (JV first)",NA,NA,"SS1","SS1",11,"V","Valence","xyoebq",1,"response","36",18910.575,19726.799,19743.481,18910.575,19726.799,19743.481,1,18910.575,832.905999999959,0,NA,"Slider","J",3,"object-27","V","CFD-WM-019-003-N.jpg",NA,"SUPTM12782"
"49",1688989569899,"10/07/2023 11:46:09",1688975169899,-4,"10/07/2023 03:46:09",137495,33,"task-284e",NA,30591537,9082638,NA,"complete",NA,NA,"computer","Desktop or Laptop","Windows 10","Chrome 114.0.0.0","1280x1024","1280x881",NA,NA,NA,"JV Task P3 (Updated)",4,"Anxious",321,"In",NA,1,"FGEHDICJBKA",NA,NA,"A (JV first)",NA,NA,"SS1","SS1",11,"V","Fixation","68owkj",2,"continue","",966.332999999984,966.332999999984,966.332999999984,966.332999999984,966.332999999984,966.332999999984,1,966.332999999984,0,0,NA,"Fixation Timing","Fixation",1,"object-21","V","CFD-WM-019-003-N.jpg",NA,"SUPTM12782"
"50",1688989582139,"10/07/2023 11:46:22",1688975182139,-4,"10/07/2023 03:46:22",137495,33,"task-284e",NA,30591537,9082638,NA,"complete",NA,NA,"computer","Desktop or Laptop","Windows 10","Chrome 114.0.0.0","1280x1024","1280x881",NA,NA,NA,"JV Task P3 (Updated)",4,"Anxious",321,"In",NA,1,"FGEHDICJBKA",NA,NA,"A (JV first)",NA,NA,"SS1","SS1",6,"J","Judginess","y8ii7g",1,"continue","",12241.3380000954,12229.273,12241.3380000954,12241.3380000954,12229.273,12241.3380000954,1,12241.3380000954,0,0,NA,"Click To Continue","Continue Button",1,"object-14","J","CFD-IM-695-001-S.jpeg",NA,"SUPTM12782"
"51",1688989582144,"10/07/2023 11:46:22",1688975182144,-4,"10/07/2023 03:46:22",137495,33,"task-284e",NA,30591537,9082638,NA,"complete",NA,NA,"computer","Desktop or Laptop","Windows 10","Chrome 114.0.0.0","1280x1024","1280x881",NA,NA,NA,"JV Task P3 (Updated)",4,"Anxious",321,"In",NA,1,"FGEHDICJBKA",NA,NA,"A (JV first)",NA,NA,"SS1","SS1",6,"J","Judginess","y8ii7g",1,"response","19",11029.668,12229.273,12245.8010000001,11029.668,12229.273,12245.8010000001,1,11029.668,1216.13300000009,0,NA,"Slider","J",3,"object-18","J","CFD-IM-695-001-S.jpeg",NA,"SUPTM12782"
"52",1688989583094,"10/07/2023 11:46:23",1688975183094,-4,"10/07/2023 03:46:23",137495,33,"task-284e",NA,30591537,9082638,NA,"complete",NA,NA,"computer","Desktop or Laptop","Windows 10","Chrome 114.0.0.0","1280x1024","1280x881",NA,NA,NA,"JV Task P3 (Updated)",4,"Anxious",321,"In",NA,1,"FGEHDICJBKA",NA,NA,"A (JV first)",NA,NA,"SS1","SS1",6,"J","Fixation","w9zir9",2,"continue","",966.346999999951,966.346999999951,966.346999999951,966.346999999951,966.346999999951,966.346999999951,1,966.346999999951,0,0,NA,"Fixation Timing","Fixation",1,"object-65","J","CFD-IM-695-001-S.jpeg",NA,"SUPTM12782"
"53",1688989592572,"10/07/2023 11:46:32",1688975192572,-4,"10/07/2023 03:46:32",137495,33,"task-284e",NA,30591537,9082638,NA,"complete",NA,NA,"computer","Desktop or Laptop","Windows 10","Chrome 114.0.0.0","1280x1024","1280x881",NA,NA,NA,"JV Task P3 (Updated)",4,"Anxious",321,"In",NA,1,"FGEHDICJBKA",NA,NA,"A (JV first)",NA,NA,"SS1","SS1",7,"J","Judginess","y8ii7g",1,"continue","",9478.7180000954,9463.505,9478.7180000954,9478.7180000954,9463.505,9478.7180000954,1,9478.7180000954,0,0,NA,"Click To Continue","Continue Button",1,"object-14","J","CFD-AF-233-190-S.jpeg",NA,"SUPTM12782"
"54",1688989592578,"10/07/2023 11:46:32",1688975192578,-4,"10/07/2023 03:46:32",137495,33,"task-284e",NA,30591537,9082638,NA,"complete",NA,NA,"computer","Desktop or Laptop","Windows 10","Chrome 114.0.0.0","1280x1024","1280x881",NA,NA,NA,"JV Task P3 (Updated)",4,"Anxious",321,"In",NA,1,"FGEHDICJBKA",NA,NA,"A (JV first)",NA,NA,"SS1","SS1",7,"J","Judginess","y8ii7g",1,"response","37",8630.43800000002,9463.505,9480.15999999997,8630.43800000002,9463.505,9480.15999999997,1,8630.43800000002,849.721999999951,0,NA,"Slider","J",3,"object-18","J","CFD-AF-233-190-S.jpeg",NA,"SUPTM12782"
"55",1688989593524,"10/07/2023 11:46:33",1688975193524,-4,"10/07/2023 03:46:33",137495,33,"task-284e",NA,30591537,9082638,NA,"complete",NA,NA,"computer","Desktop or Laptop","Windows 10","Chrome 114.0.0.0","1280x1024","1280x881",NA,NA,NA,"JV Task P3 (Updated)",4,"Anxious",321,"In",NA,1,"FGEHDICJBKA",NA,NA,"A (JV first)",NA,NA,"SS1","SS1",7,"J","Fixation","w9zir9",2,"continue","",966.343000000052,966.343000000052,966.343000000052,966.343000000052,966.343000000052,966.343000000052,1,966.343000000052,0,0,NA,"Fixation Timing","Fixation",1,"object-65","J","CFD-AF-233-190-S.jpeg",NA,"SUPTM12782"
"56",1688989604186,"10/07/2023 11:46:44",1688975204186,-4,"10/07/2023 03:46:44",137495,33,"task-284e",NA,30591537,9082638,NA,"complete",NA,NA,"computer","Desktop or Laptop","Windows 10","Chrome 114.0.0.0","1280x1024","1280x881",NA,NA,NA,"JV Task P3 (Updated)",4,"Anxious",321,"In",NA,1,"FGEHDICJBKA",NA,NA,"A (JV first)",NA,NA,"SS1","SS1",8,"J","Judginess","y8ii7g",1,"continue","",10661.6700000477,10646.449,10661.6700000477,10661.6700000477,10646.449,10661.6700000477,1,10661.6700000477,0,0,NA,"Click To Continue","Continue Button",1,"object-14","J","CFD-WF-027-003-S.jpeg",NA,"SUPTM12782"
"57",1688989604194,"10/07/2023 11:46:44",1688975204194,-4,"10/07/2023 03:46:44",137495,33,"task-284e",NA,30591537,9082638,NA,"complete",NA,NA,"computer","Desktop or Laptop","Windows 10","Chrome 114.0.0.0","1280x1024","1280x881",NA,NA,NA,"JV Task P3 (Updated)",4,"Anxious",321,"In",NA,1,"FGEHDICJBKA",NA,NA,"A (JV first)",NA,NA,"SS1","SS1",8,"J","Judginess","y8ii7g",1,"response","32",5181.50499999995,10646.449,10663.1099999999,5181.50499999995,10646.449,10663.1099999999,1,5181.50499999995,5481.60499999998,0,NA,"Slider","J",3,"object-18","J","CFD-WF-027-003-S.jpeg",NA,"SUPTM12782"
"58",1688989605137,"10/07/2023 11:46:45",1688975205137,-4,"10/07/2023 03:46:45",137495,33,"task-284e",NA,30591537,9082638,NA,"complete",NA,NA,"computer","Desktop or Laptop","Windows 10","Chrome 114.0.0.0","1280x1024","1280x881",NA,NA,NA,"JV Task P3 (Updated)",4,"Anxious",321,"In",NA,1,"FGEHDICJBKA",NA,NA,"A (JV first)",NA,NA,"SS1","SS1",8,"J","Fixation","w9zir9",2,"continue","",966.353999999992,966.353999999992,966.353999999992,966.353999999992,966.353999999992,966.353999999992,1,966.353999999992,0,0,NA,"Fixation Timing","Fixation",1,"object-65","J","CFD-WF-027-003-S.jpeg",NA,"SUPTM12782"
"59",1688989622480,"10/07/2023 11:47:02",1688975222480,-4,"10/07/2023 03:47:02",137495,33,"task-284e",NA,30591537,9082638,NA,"complete",NA,NA,"computer","Desktop or Laptop","Windows 10","Chrome 114.0.0.0","1280x1024","1280x881",NA,NA,NA,"JV Task P3 (Updated)",4,"Anxious",321,"In",NA,1,"FGEHDICJBKA",NA,NA,"A (JV first)",NA,NA,"SS1","SS1",12,"V","Valence","xyoebq",1,"continue","",17343.667,17327.455,17343.667,17343.667,17327.455,17343.667,1,17343.667,0,0,NA,"Click To Continue","Continue Button",1,"object-25","V","CFD-IM-695-001-H.jpeg",NA,"SUPTM12782"
"60",1688989622482,"10/07/2023 11:47:02",1688975222482,-4,"10/07/2023 03:47:02",137495,33,"task-284e",NA,30591537,9082638,NA,"complete",NA,NA,"computer","Desktop or Laptop","Windows 10","Chrome 114.0.0.0","1280x1024","1280x881",NA,NA,NA,"JV Task P3 (Updated)",4,"Anxious",321,"In",NA,1,"FGEHDICJBKA",NA,NA,"A (JV first)",NA,NA,"SS1","SS1",12,"V","Valence","xyoebq",1,"response","60",16261.241,17327.455,17344.116,16261.241,17327.455,17344.116,1,16261.241,1082.875,0,NA,"Slider","J",3,"object-27","V","CFD-IM-695-001-H.jpeg",NA,"SUPTM12782"
"61",1688989623431,"10/07/2023 11:47:03",1688975223431,-4,"10/07/2023 03:47:03",137495,33,"task-284e",NA,30591537,9082638,NA,"complete",NA,NA,"computer","Desktop or Laptop","Windows 10","Chrome 114.0.0.0","1280x1024","1280x881",NA,NA,NA,"JV Task P3 (Updated)",4,"Anxious",321,"In",NA,1,"FGEHDICJBKA",NA,NA,"A (JV first)",NA,NA,"SS1","SS1",12,"V","Fixation","68owkj",2,"continue","",966.489999999991,966.489999999991,966.489999999991,966.489999999991,966.489999999991,966.489999999991,1,966.489999999991,0,0,NA,"Fixation Timing","Fixation",1,"object-21","V","CFD-IM-695-001-H.jpeg",NA,"SUPTM12782"
"62",1688989630280,"10/07/2023 11:47:10",1688975230280,-4,"10/07/2023 03:47:10",137495,33,"task-284e",NA,30591537,9082638,NA,"complete",NA,NA,"computer","Desktop or Laptop","Windows 10","Chrome 114.0.0.0","1280x1024","1280x881",NA,NA,NA,"JV Task P3 (Updated)",4,"Anxious",321,"In",NA,1,"FGEHDICJBKA",NA,NA,"A (JV first)",NA,NA,"SS1","SS1",13,"V","Valence","xyoebq",1,"continue","",6849.72200000001,6847.56300000002,6849.72200000001,6849.72200000001,6847.56300000002,6849.72200000001,1,6849.72200000001,0,0,NA,"Click To Continue","Continue Button",1,"object-25","V","CFD-WF-036-023-S.jpeg",NA,"SUPTM12782"
"63",1688989630281,"10/07/2023 11:47:10",1688975230281,-4,"10/07/2023 03:47:10",137495,33,"task-284e",NA,30591537,9082638,NA,"complete",NA,NA,"computer","Desktop or Laptop","Windows 10","Chrome 114.0.0.0","1280x1024","1280x881",NA,NA,NA,"JV Task P3 (Updated)",4,"Anxious",321,"In",NA,1,"FGEHDICJBKA",NA,NA,"A (JV first)",NA,NA,"SS1","SS1",13,"V","Valence","xyoebq",1,"response","39",5331.41399999999,6847.56300000002,6850.02199995233,5331.41399999999,6847.56300000002,6850.02199995233,1,5331.41399999999,1518.60799995234,0,NA,"Slider","J",3,"object-27","V","CFD-WF-036-023-S.jpeg",NA,"SUPTM12782"
"64",1688989631245,"10/07/2023 11:47:11",1688975231245,-4,"10/07/2023 03:47:11",137495,33,"task-284e",NA,30591537,9082638,NA,"complete",NA,NA,"computer","Desktop or Laptop","Windows 10","Chrome 114.0.0.0","1280x1024","1280x881",NA,NA,NA,"JV Task P3 (Updated)",4,"Anxious",321,"In",NA,1,"FGEHDICJBKA",NA,NA,"A (JV first)",NA,NA,"SS1","SS1",13,"V","Fixation","68owkj",2,"continue","",966.425999999978,966.425999999978,966.425999999978,966.425999999978,966.425999999978,966.425999999978,1,966.425999999978,0,0,NA,"Fixation Timing","Fixation",1,"object-21","V","CFD-WF-036-023-S.jpeg",NA,"SUPTM12782"
"65",1688989647169,"10/07/2023 11:47:27",1688975247169,-4,"10/07/2023 03:47:27",137495,33,"task-284e",NA,30591537,9082638,NA,"complete",NA,NA,"computer","Desktop or Laptop","Windows 10","Chrome 114.0.0.0","1280x1024","1280x881",NA,NA,NA,"JV Task P3 (Updated)",4,"Anxious",321,"In",NA,1,"FGEHDICJBKA",NA,NA,"A (JV first)",NA,NA,"SS1","SS1",9,"J","Judginess","y8ii7g",1,"continue","",15923.9330000477,15911.275,15923.9330000477,15923.9330000477,15911.275,15923.9330000477,1,15923.9330000477,0,0,NA,"Click To Continue","Continue Button",1,"object-14","J","CFD-WF-024-003-H.jpeg",NA,"SUPTM12782"
"66",1688989647170,"10/07/2023 11:47:27",1688975247170,-4,"10/07/2023 03:47:27",137495,33,"task-284e",NA,30591537,9082638,NA,"complete",NA,NA,"computer","Desktop or Laptop","Windows 10","Chrome 114.0.0.0","1280x1024","1280x881",NA,NA,NA,"JV Task P3 (Updated)",4,"Anxious",321,"In",NA,1,"FGEHDICJBKA",NA,NA,"A (JV first)",NA,NA,"SS1","SS1",9,"J","Judginess","y8ii7g",1,"response","65",14595.151,15911.275,15925.9330000477,14595.151,15911.275,15925.9330000477,1,14595.151,1330.78200004768,0,NA,"Slider","J",3,"object-18","J","CFD-WF-024-003-H.jpeg",NA,"SUPTM12782"
"67",1688989648123,"10/07/2023 11:47:28",1688975248123,-4,"10/07/2023 03:47:28",137495,33,"task-284e",NA,30591537,9082638,NA,"complete",NA,NA,"computer","Desktop or Laptop","Windows 10","Chrome 114.0.0.0","1280x1024","1280x881",NA,NA,NA,"JV Task P3 (Updated)",4,"Anxious",321,"In",NA,1,"FGEHDICJBKA",NA,NA,"A (JV first)",NA,NA,"SS1","SS1",9,"J","Fixation","w9zir9",2,"continue","",966.415999999968,966.415999999968,966.415999999968,966.415999999968,966.415999999968,966.415999999968,1,966.415999999968,0,0,NA,"Fixation Timing","Fixation",1,"object-65","J","CFD-WF-024-003-H.jpeg",NA,"SUPTM12782"
"68",1688989651675,"10/07/2023 11:47:31",1688975251675,-4,"10/07/2023 03:47:31",137495,33,"task-284e",NA,30591537,9082638,NA,"complete",NA,NA,"computer","Desktop or Laptop","Windows 10","Chrome 114.0.0.0","1280x1024","1280x881",NA,NA,NA,"JV Task P3 (Updated)",4,"Anxious",321,"In",NA,1,"FGEHDICJBKA",NA,NA,"A (JV first)",NA,NA,"SS1","SS1",14,"V","Valence","xyoebq",1,"continue","",3552.7420000477,3548.95300000004,3552.7420000477,3552.7420000477,3548.95300000004,3552.7420000477,1,3552.7420000477,0,0,NA,"Click To Continue","Continue Button",1,"object-25","V","CFD-WF-012-002-S.jpeg",NA,"SUPTM12782"
"69",1688989651676,"10/07/2023 11:47:31",1688975251676,-4,"10/07/2023 03:47:31",137495,33,"task-284e",NA,30591537,9082638,NA,"complete",NA,NA,"computer","Desktop or Laptop","Windows 10","Chrome 114.0.0.0","1280x1024","1280x881",NA,NA,NA,"JV Task P3 (Updated)",4,"Anxious",321,"In",NA,1,"FGEHDICJBKA",NA,NA,"A (JV first)",NA,NA,"SS1","SS1",14,"V","Valence","xyoebq",1,"response","39",2649.18900000001,3548.95300000004,3553.44200009538,2649.18900000001,3548.95300000004,3553.44200009538,1,2649.18900000001,904.25300009537,0,NA,"Slider","J",3,"object-27","V","CFD-WF-012-002-S.jpeg",NA,"SUPTM12782"
"70",1688989652638,"10/07/2023 11:47:32",1688975252638,-4,"10/07/2023 03:47:32",137495,33,"task-284e",NA,30591537,9082638,NA,"complete",NA,NA,"computer","Desktop or Laptop","Windows 10","Chrome 114.0.0.0","1280x1024","1280x881",NA,NA,NA,"JV Task P3 (Updated)",4,"Anxious",321,"In",NA,1,"FGEHDICJBKA",NA,NA,"A (JV first)",NA,NA,"SS1","SS1",14,"V","Fixation","68owkj",2,"continue","",966.171999999962,966.171999999962,966.171999999962,966.171999999962,966.171999999962,966.171999999962,1,966.171999999962,0,0,NA,"Fixation Timing","Fixation",1,"object-21","V","CFD-WF-012-002-S.jpeg",NA,"SUPTM12782"
"71",1688989657877,"10/07/2023 11:47:37",1688975257877,-4,"10/07/2023 03:47:37",137495,33,"task-284e",NA,30591537,9082638,NA,"complete",NA,NA,"computer","Desktop or Laptop","Windows 10","Chrome 114.0.0.0","1280x1024","1280x881",NA,NA,NA,"JV Task P3 (Updated)",4,"Anxious",321,"In",NA,1,"FGEHDICJBKA",NA,NA,"A (JV first)",NA,NA,"SS1","SS1",10,"J","Judginess","y8ii7g",1,"continue","",5239.6170000477,5231.66000000003,5239.6170000477,5239.6170000477,5231.66000000003,5239.6170000477,1,5239.6170000477,0,0,NA,"Click To Continue","Continue Button",1,"object-14","J","CFD-WM-015-002-H.jpeg",NA,"SUPTM12782"
"72",1688989657884,"10/07/2023 11:47:37",1688975257884,-4,"10/07/2023 03:47:37",137495,33,"task-284e",NA,30591537,9082638,NA,"complete",NA,NA,"computer","Desktop or Laptop","Windows 10","Chrome 114.0.0.0","1280x1024","1280x881",NA,NA,NA,"JV Task P3 (Updated)",4,"Anxious",321,"In",NA,1,"FGEHDICJBKA",NA,NA,"A (JV first)",NA,NA,"SS1","SS1",10,"J","Judginess","y8ii7g",1,"response","63",4365.26300000004,5231.66000000003,5246.31700009538,4365.26300000004,5231.66000000003,5246.31700009538,1,4365.26300000004,881.054000095348,0,NA,"Slider","J",3,"object-18","J","CFD-WM-015-002-H.jpeg",NA,"SUPTM12782"
"73",1688989658836,"10/07/2023 11:47:38",1688975258836,-4,"10/07/2023 03:47:38",137495,33,"task-284e",NA,30591537,9082638,NA,"complete",NA,NA,"computer","Desktop or Laptop","Windows 10","Chrome 114.0.0.0","1280x1024","1280x881",NA,NA,NA,"JV Task P3 (Updated)",4,"Anxious",321,"In",NA,1,"FGEHDICJBKA",NA,NA,"A (JV first)",NA,NA,"SS1","SS1",10,"J","Fixation","w9zir9",2,"continue","",966.25,966.25,966.25,966.25,966.25,966.25,1,966.25,0,0,NA,"Fixation Timing","Fixation",1,"object-65","J","CFD-WM-015-002-H.jpeg",NA,"SUPTM12782"
"74",1688989661787,"10/07/2023 11:47:41",1688975261787,-4,"10/07/2023 03:47:41",137495,33,"task-284e",NA,30591537,9082638,NA,"complete",NA,NA,"computer","Desktop or Laptop","Windows 10","Chrome 114.0.0.0","1280x1024","1280x881",NA,NA,NA,"JV Task P3 (Updated)",4,"Anxious",321,"In",NA,1,"FGEHDICJBKA",NA,NA,"A (JV first)",NA,NA,"SS1","SS1",11,"J","Judginess","y8ii7g",1,"continue","",2952.00699999998,2949.09899999999,2952.00699999998,2952.00699999998,2949.09899999999,2952.00699999998,1,2952.00699999998,0,0,NA,"Click To Continue","Continue Button",1,"object-14","J","CFD-AF-233-190-H.jpeg",NA,"SUPTM12782"
"75",1688989661788,"10/07/2023 11:47:41",1688975261788,-4,"10/07/2023 03:47:41",137495,33,"task-284e",NA,30591537,9082638,NA,"complete",NA,NA,"computer","Desktop or Laptop","Windows 10","Chrome 114.0.0.0","1280x1024","1280x881",NA,NA,NA,"JV Task P3 (Updated)",4,"Anxious",321,"In",NA,1,"FGEHDICJBKA",NA,NA,"A (JV first)",NA,NA,"SS1","SS1",11,"J","Judginess","y8ii7g",1,"response","71",1816.09899999999,2949.09899999999,2953.00699999998,1816.09899999999,2949.09899999999,2953.00699999998,1,1816.09899999999,1136.908,0,NA,"Slider","J",3,"object-18","J","CFD-AF-233-190-H.jpeg",NA,"SUPTM12782"
"76",1688989662750,"10/07/2023 11:47:42",1688975262750,-4,"10/07/2023 03:47:42",137495,33,"task-284e",NA,30591537,9082638,NA,"complete",NA,NA,"computer","Desktop or Laptop","Windows 10","Chrome 114.0.0.0","1280x1024","1280x881",NA,NA,NA,"JV Task P3 (Updated)",4,"Anxious",321,"In",NA,1,"FGEHDICJBKA",NA,NA,"A (JV first)",NA,NA,"SS1","SS1",11,"J","Fixation","w9zir9",2,"continue","",966.255999999994,966.255999999994,966.255999999994,966.255999999994,966.255999999994,966.255999999994,1,966.255999999994,0,0,NA,"Fixation Timing","Fixation",1,"object-65","J","CFD-AF-233-190-H.jpeg",NA,"SUPTM12782"
"77",1688989675988,"10/07/2023 11:47:55",1688975275988,-4,"10/07/2023 03:47:55",137495,33,"task-284e",NA,30591537,9082638,NA,"complete",NA,NA,"computer","Desktop or Laptop","Windows 10","Chrome 114.0.0.0","1280x1024","1280x881",NA,NA,NA,"JV Task P3 (Updated)",4,"Anxious",321,"In",NA,1,"FGEHDICJBKA",NA,NA,"A (JV first)",NA,NA,"SS1","SS1",12,"J","Judginess","y8ii7g",1,"continue","",6256.98500009539,6247.96400000004,6256.98500009539,6256.98500009539,6247.96400000004,6256.98500009539,1,6256.98500009539,0,0,NA,"Click To Continue","Continue Button",1,"object-14","J","CFD-AF-211-066-N.jpg",NA,"SUPTM12782"
"78",1688989675995,"10/07/2023 11:47:55",1688975275995,-4,"10/07/2023 03:47:55",137495,33,"task-284e",NA,30591537,9082638,NA,"complete",NA,NA,"computer","Desktop or Laptop","Windows 10","Chrome 114.0.0.0","1280x1024","1280x881",NA,NA,NA,"JV Task P3 (Updated)",4,"Anxious",321,"In",NA,1,"FGEHDICJBKA",NA,NA,"A (JV first)",NA,NA,"SS1","SS1",12,"J","Judginess","y8ii7g",1,"response","42",5448.20699999999,6247.96400000004,6264.2850000477,5448.20699999999,6247.96400000004,6264.2850000477,1,5448.20699999999,816.07800004771,0,NA,"Slider","J",3,"object-18","J","CFD-AF-211-066-N.jpg",NA,"SUPTM12782"
"79",1688989676945,"10/07/2023 11:47:56",1688975276945,-4,"10/07/2023 03:47:56",137495,33,"task-284e",NA,30591537,9082638,NA,"complete",NA,NA,"computer","Desktop or Laptop","Windows 10","Chrome 114.0.0.0","1280x1024","1280x881",NA,NA,NA,"JV Task P3 (Updated)",4,"Anxious",321,"In",NA,1,"FGEHDICJBKA",NA,NA,"A (JV first)",NA,NA,"SS1","SS1",12,"J","Fixation","w9zir9",2,"continue","",966.229999999981,966.229999999981,966.229999999981,966.229999999981,966.229999999981,966.229999999981,1,966.229999999981,0,0,NA,"Fixation Timing","Fixation",1,"object-65","J","CFD-AF-211-066-N.jpg",NA,"SUPTM12782"
"80",1688989693991,"10/07/2023 11:48:13",1688975293991,-4,"10/07/2023 03:48:13",137495,33,"task-284e",NA,30591537,9082638,NA,"complete",NA,NA,"computer","Desktop or Laptop","Windows 10","Chrome 114.0.0.0","1280x1024","1280x881",NA,NA,NA,"JV Task P3 (Updated)",4,"Anxious",321,"In",NA,1,"FGEHDICJBKA",NA,NA,"A (JV first)",NA,NA,"SS1","SS1",13,"J","Judginess","y8ii7g",1,"continue","",16812.7300000477,16810.958,16812.7300000477,16812.7300000477,16810.958,16812.7300000477,1,16812.7300000477,0,0,NA,"Click To Continue","Continue Button",1,"object-14","J","CFD-WF-009-001-S.jpeg",NA,"SUPTM12782"
"81",1688989693993,"10/07/2023 11:48:13",1688975293993,-4,"10/07/2023 03:48:13",137495,33,"task-284e",NA,30591537,9082638,NA,"complete",NA,NA,"computer","Desktop or Laptop","Windows 10","Chrome 114.0.0.0","1280x1024","1280x881",NA,NA,NA,"JV Task P3 (Updated)",4,"Anxious",321,"In",NA,1,"FGEHDICJBKA",NA,NA,"A (JV first)",NA,NA,"SS1","SS1",13,"J","Judginess","y8ii7g",1,"response","43",15794.645,16810.958,16814.03,15794.645,16810.958,16814.03,1,15794.645,1019.38500000001,0,NA,"Slider","J",3,"object-18","J","CFD-WF-009-001-S.jpeg",NA,"SUPTM12782"
"82",1688989703283,"10/07/2023 11:48:23",1688975303283,-4,"10/07/2023 03:48:23",137495,33,"task-284e",NA,30591537,9082638,NA,"complete",NA,NA,"computer","Desktop or Laptop","Windows 10","Chrome 114.0.0.0","1280x1024","1280x881",NA,NA,NA,"JV Task P3 (Updated)",4,"Anxious",321,"In",NA,1,"FGEHDICJBKA",NA,NA,"A (JV first)",NA,NA,"SS1","SS1",13,"J","Fixation","w9zir9",2,"continue","",9280.29499999998,9280.29499999998,9280.29499999998,9280.29499999998,9280.29499999998,9280.29499999998,1,9280.29499999998,0,0,NA,"Fixation Timing","Fixation",1,"object-65","J","CFD-WF-009-001-S.jpeg",NA,"SUPTM12782"
"83",1688989705739,"10/07/2023 11:48:25",1688975305739,-4,"10/07/2023 03:48:25",137495,33,"task-284e",NA,30591537,9082638,NA,"complete",NA,NA,"computer","Desktop or Laptop","Windows 10","Chrome 114.0.0.0","1280x1024","1280x881",NA,NA,NA,"JV Task P3 (Updated)",4,"Anxious",321,"In",NA,1,"FGEHDICJBKA",NA,NA,"A (JV first)",NA,NA,"SS1","SS1",14,"J","Judginess","y8ii7g",1,"continue","",2468.47700004769,2465.89299999998,2468.47700004769,2468.47700004769,2465.89299999998,2468.47700004769,1,2468.47700004769,0,0,NA,"Click To Continue","Continue Button",1,"object-14","J","CFD-IF-734-108-H.jpeg",NA,"SUPTM12782"
"84",1688989705743,"10/07/2023 11:48:25",1688975305743,-4,"10/07/2023 03:48:25",137495,33,"task-284e",NA,30591537,9082638,NA,"complete",NA,NA,"computer","Desktop or Laptop","Windows 10","Chrome 114.0.0.0","1280x1024","1280x881",NA,NA,NA,"JV Task P3 (Updated)",4,"Anxious",321,"In",NA,1,"FGEHDICJBKA",NA,NA,"A (JV first)",NA,NA,"SS1","SS1",14,"J","Judginess","y8ii7g",1,"response","59",1516.163,2465.89299999998,2473.17700009537,1516.163,2465.89299999998,2473.17700009537,1,1516.163,957.014000095369,0,NA,"Slider","J",3,"object-18","J","CFD-IF-734-108-H.jpeg",NA,"SUPTM12782"
"85",1688989706703,"10/07/2023 11:48:26",1688975306703,-4,"10/07/2023 03:48:26",137495,33,"task-284e",NA,30591537,9082638,NA,"complete",NA,NA,"computer","Desktop or Laptop","Windows 10","Chrome 114.0.0.0","1280x1024","1280x881",NA,NA,NA,"JV Task P3 (Updated)",4,"Anxious",321,"In",NA,1,"FGEHDICJBKA",NA,NA,"A (JV first)",NA,NA,"SS1","SS1",14,"J","Fixation","w9zir9",2,"continue","",966.375,966.375,966.375,966.375,966.375,966.375,1,966.375,0,0,NA,"Fixation Timing","Fixation",1,"object-65","J","CFD-IF-734-108-H.jpeg",NA,"SUPTM12782"
"86",1688989726427,"10/07/2023 11:48:46",1688975326427,-4,"10/07/2023 03:48:46",137495,33,"task-284e",NA,30591537,9082638,NA,"complete",NA,NA,"computer","Desktop or Laptop","Windows 10","Chrome 114.0.0.0","1280x1024","1280x881",NA,NA,NA,"JV Task P3 (Updated)",4,"Anxious",321,"In",NA,1,"FGEHDICJBKA",NA,NA,"A (JV first)",NA,NA,"SS1","SS1",15,"J","Judginess","y8ii7g",1,"continue","",19724.2090000477,19710.062,19724.2090000477,19724.2090000477,19710.062,19724.2090000477,1,19724.2090000477,0,0,NA,"Click To Continue","Continue Button",1,"object-14","J","CFD-WF-022-017-S.jpeg",NA,"SUPTM12782"
"87",1688989726432,"10/07/2023 11:48:46",1688975326432,-4,"10/07/2023 03:48:46",137495,33,"task-284e",NA,30591537,9082638,NA,"complete",NA,NA,"computer","Desktop or Laptop","Windows 10","Chrome 114.0.0.0","1280x1024","1280x881",NA,NA,NA,"JV Task P3 (Updated)",4,"Anxious",321,"In",NA,1,"FGEHDICJBKA",NA,NA,"A (JV first)",NA,NA,"SS1","SS1",15,"J","Judginess","y8ii7g",1,"response","62",16711.05,19710.062,19726.713,16711.05,19710.062,19726.713,1,16711.05,3015.663,0,NA,"Slider","J",3,"object-18","J","CFD-WF-022-017-S.jpeg",NA,"SUPTM12782"
"88",1688989727380,"10/07/2023 11:48:47",1688975327380,-4,"10/07/2023 03:48:47",137495,33,"task-284e",NA,30591537,9082638,NA,"complete",NA,NA,"computer","Desktop or Laptop","Windows 10","Chrome 114.0.0.0","1280x1024","1280x881",NA,NA,NA,"JV Task P3 (Updated)",4,"Anxious",321,"In",NA,1,"FGEHDICJBKA",NA,NA,"A (JV first)",NA,NA,"SS1","SS1",15,"J","Fixation","w9zir9",2,"continue","",966.360999999975,966.360999999975,966.360999999975,966.360999999975,966.360999999975,966.360999999975,1,966.360999999975,0,0,NA,"Fixation Timing","Fixation",1,"object-65","J","CFD-WF-022-017-S.jpeg",NA,"SUPTM12782"
"89",1688989745811,"10/07/2023 11:49:05",1688975345811,-4,"10/07/2023 03:49:05",137495,33,"task-284e",NA,30591537,9082638,NA,"complete",NA,NA,"computer","Desktop or Laptop","Windows 10","Chrome 114.0.0.0","1280x1024","1280x881",NA,NA,NA,"JV Task P3 (Updated)",4,"Anxious",321,"In",NA,1,"FGEHDICJBKA",NA,NA,"A (JV first)",NA,NA,"SS1","SS1",15,"V","Valence","xyoebq",1,"continue","",4119.97900004766,4115.375,4119.97900004766,4119.97900004766,4115.375,4119.97900004766,1,4119.97900004766,0,0,NA,"Click To Continue","Continue Button",1,"object-25","V","CFD-IF-734-108-N.jpg",NA,"SUPTM12782"
"90",1688989745817,"10/07/2023 11:49:05",1688975345817,-4,"10/07/2023 03:49:05",137495,33,"task-284e",NA,30591537,9082638,NA,"complete",NA,NA,"computer","Desktop or Laptop","Windows 10","Chrome 114.0.0.0","1280x1024","1280x881",NA,NA,NA,"JV Task P3 (Updated)",4,"Anxious",321,"In",NA,1,"FGEHDICJBKA",NA,NA,"A (JV first)",NA,NA,"SS1","SS1",15,"V","Valence","xyoebq",1,"response","58",3332.30799999996,4115.375,4125.37899990461,3332.30799999996,4115.375,4125.37899990461,1,3332.30799999996,793.070999904652,0,NA,"Slider","J",3,"object-27","V","CFD-IF-734-108-N.jpg",NA,"SUPTM12782"
"91",1688989746774,"10/07/2023 11:49:06",1688975346774,-4,"10/07/2023 03:49:06",137495,33,"task-284e",NA,30591537,9082638,NA,"complete",NA,NA,"computer","Desktop or Laptop","Windows 10","Chrome 114.0.0.0","1280x1024","1280x881",NA,NA,NA,"JV Task P3 (Updated)",4,"Anxious",321,"In",NA,1,"FGEHDICJBKA",NA,NA,"A (JV first)",NA,NA,"SS1","SS1",15,"V","Fixation","68owkj",2,"continue","",966.339999999967,966.339999999967,966.339999999967,966.339999999967,966.339999999967,966.339999999967,1,966.339999999967,0,0,NA,"Fixation Timing","Fixation",1,"object-21","V","CFD-IF-734-108-N.jpg",NA,"SUPTM12782"
"92",1688989776707,"10/07/2023 11:49:36",1688975376707,-4,"10/07/2023 03:49:36",137495,33,"task-284e",NA,30591537,9082638,NA,"complete",NA,NA,"computer","Desktop or Laptop","Windows 10","Chrome 114.0.0.0","1280x1024","1280x881",NA,NA,NA,"JV Task P3 (Updated)",4,"Anxious",321,"In",NA,1,"FGEHDICJBKA",NA,NA,"A (JV first)",NA,NA,"SS1","SS1",16,"V","Valence","xyoebq",1,"continue","",25002.7800000954,24991.679,25002.7800000954,25002.7800000954,24991.679,25002.7800000954,1,25002.7800000954,0,0,NA,"Click To Continue","Continue Button",1,"object-25","V","CFD-WF-015-006-H.jpeg",NA,"SUPTM12782"
"93",1688989776712,"10/07/2023 11:49:36",1688975376712,-4,"10/07/2023 03:49:36",137495,33,"task-284e",NA,30591537,9082638,NA,"complete",NA,NA,"computer","Desktop or Laptop","Windows 10","Chrome 114.0.0.0","1280x1024","1280x881",NA,NA,NA,"JV Task P3 (Updated)",4,"Anxious",321,"In",NA,1,"FGEHDICJBKA",NA,NA,"A (JV first)",NA,NA,"SS1","SS1",16,"V","Valence","xyoebq",1,"response","66",24042.006,24991.679,25007.4799999046,24042.006,24991.679,25007.4799999046,1,24042.006,965.473999904643,0,NA,"Slider","J",3,"object-27","V","CFD-WF-015-006-H.jpeg",NA,"SUPTM12782"
"94",1688989782891,"10/07/2023 11:49:42",1688975382891,-4,"10/07/2023 03:49:42",137495,33,"task-284e",NA,30591537,9082638,NA,"complete",NA,NA,"computer","Desktop or Laptop","Windows 10","Chrome 114.0.0.0","1280x1024","1280x881",NA,NA,NA,"JV Task P3 (Updated)",4,"Anxious",321,"In",NA,1,"FGEHDICJBKA",NA,NA,"A (JV first)",NA,NA,"SS1","SS1",16,"V","Fixation","68owkj",2,"continue","",6181.201,6181.201,6181.201,6181.201,6181.201,6181.201,1,6181.201,0,0,NA,"Fixation Timing","Fixation",1,"object-21","V","CFD-WF-015-006-H.jpeg",NA,"SUPTM12782"
"95",1688989785323,"10/07/2023 11:49:45",1688975385323,-4,"10/07/2023 03:49:45",137495,33,"task-284e",NA,30591537,9082638,NA,"complete",NA,NA,"computer","Desktop or Laptop","Windows 10","Chrome 114.0.0.0","1280x1024","1280x881",NA,NA,NA,"JV Task P3 (Updated)",4,"Anxious",321,"In",NA,1,"FGEHDICJBKA",NA,NA,"A (JV first)",NA,NA,"SS1","SS1",16,"J","Judginess","y8ii7g",1,"continue","",2446.09999990463,2432.59399999998,2446.09999990463,2446.09999990463,2432.59399999998,2446.09999990463,1,2446.09999990463,0,0,NA,"Click To Continue","Continue Button",1,"object-14","J","CFD-BF-040-003-H.jpeg",NA,"SUPTM12782"
"96",1688989785324,"10/07/2023 11:49:45",1688975385324,-4,"10/07/2023 03:49:45",137495,33,"task-284e",NA,30591537,9082638,NA,"complete",NA,NA,"computer","Desktop or Laptop","Windows 10","Chrome 114.0.0.0","1280x1024","1280x881",NA,NA,NA,"JV Task P3 (Updated)",4,"Anxious",321,"In",NA,1,"FGEHDICJBKA",NA,NA,"A (JV first)",NA,NA,"SS1","SS1",16,"J","Judginess","y8ii7g",1,"response","68",1482.92499999999,2432.59399999998,2446.90000009537,1482.92499999999,2432.59399999998,2446.90000009537,1,1482.92499999999,963.975000095379,0,NA,"Slider","J",3,"object-18","J","CFD-BF-040-003-H.jpeg",NA,"SUPTM12782"
"97",1688989786277,"10/07/2023 11:49:46",1688975386277,-4,"10/07/2023 03:49:46",137495,33,"task-284e",NA,30591537,9082638,NA,"complete",NA,NA,"computer","Desktop or Laptop","Windows 10","Chrome 114.0.0.0","1280x1024","1280x881",NA,NA,NA,"JV Task P3 (Updated)",4,"Anxious",321,"In",NA,1,"FGEHDICJBKA",NA,NA,"A (JV first)",NA,NA,"SS1","SS1",16,"J","Fixation","w9zir9",2,"continue","",966.349000000046,966.349000000046,966.349000000046,966.349000000046,966.349000000046,966.349000000046,1,966.349000000046,0,0,NA,"Fixation Timing","Fixation",1,"object-65","J","CFD-BF-040-003-H.jpeg",NA,"SUPTM12782"
"98",1688989799963,"10/07/2023 11:49:59",1688975399963,-4,"10/07/2023 03:49:59",137495,33,"task-284e",NA,30591537,9082638,NA,"complete",NA,NA,"computer","Desktop or Laptop","Windows 10","Chrome 114.0.0.0","1280x1024","1280x881",NA,NA,NA,"JV Task P3 (Updated)",4,"Anxious",321,"In",NA,1,"FGEHDICJBKA",NA,NA,"A (JV first)",NA,NA,"SS1","SS1",17,"V","Valence","xyoebq",1,"continue","",5756.49199990463,5748.15000000002,5756.49199990463,5756.49199990463,5748.15000000002,5756.49199990463,1,5756.49199990463,0,0,NA,"Click To Continue","Continue Button",1,"object-25","V","CFD-WF-024-003-N.jpg",NA,"SUPTM12782"
"99",1688989799970,"10/07/2023 11:49:59",1688975399970,-4,"10/07/2023 03:49:59",137495,33,"task-284e",NA,30591537,9082638,NA,"complete",NA,NA,"computer","Desktop or Laptop","Windows 10","Chrome 114.0.0.0","1280x1024","1280x881",NA,NA,NA,"JV Task P3 (Updated)",4,"Anxious",321,"In",NA,1,"FGEHDICJBKA",NA,NA,"A (JV first)",NA,NA,"SS1","SS1",17,"V","Valence","xyoebq",1,"response","59",3982.06400000001,5748.15000000002,5763.39199999999,3982.06400000001,5748.15000000002,5763.39199999999,1,3982.06400000001,1781.32799999998,0,NA,"Slider","J",3,"object-27","V","CFD-WF-024-003-N.jpg",NA,"SUPTM12782"
"100",1688989800922,"10/07/2023 11:50:00",1688975400922,-4,"10/07/2023 03:50:00",137495,33,"task-284e",NA,30591537,9082638,NA,"complete",NA,NA,"computer","Desktop or Laptop","Windows 10","Chrome 114.0.0.0","1280x1024","1280x881",NA,NA,NA,"JV Task P3 (Updated)",4,"Anxious",321,"In",NA,1,"FGEHDICJBKA",NA,NA,"A (JV first)",NA,NA,"SS1","SS1",17,"V","Fixation","68owkj",2,"continue","",966.304999999935,966.304999999935,966.304999999935,966.304999999935,966.304999999935,966.304999999935,1,966.304999999935,0,0,NA,"Fixation Timing","Fixation",1,"object-21","V","CFD-WF-024-003-N.jpg",NA,"SUPTM12782"
"101",1688989822300,"10/07/2023 11:50:22",1688975422300,-4,"10/07/2023 03:50:22",137495,33,"task-284e",NA,30591537,9082638,NA,"complete",NA,NA,"computer","Desktop or Laptop","Windows 10","Chrome 114.0.0.0","1280x1024","1280x881",NA,NA,NA,"JV Task P3 (Updated)",4,"Anxious",321,"In",NA,1,"FGEHDICJBKA",NA,NA,"A (JV first)",NA,NA,"SS1","SS1",17,"J","Judginess","y8ii7g",1,"continue","",17094.3110000001,17077.6680000001,17094.3110000001,17094.3110000001,17077.6680000001,17094.3110000001,1,17094.3110000001,0,0,NA,"Click To Continue","Continue Button",1,"object-14","J","CFD-WM-019-003-S.jpeg",NA,"SUPTM12782"
"102",1688989822305,"10/07/2023 11:50:22",1688975422305,-4,"10/07/2023 03:50:22",137495,33,"task-284e",NA,30591537,9082638,NA,"complete",NA,NA,"computer","Desktop or Laptop","Windows 10","Chrome 114.0.0.0","1280x1024","1280x881",NA,NA,NA,"JV Task P3 (Updated)",4,"Anxious",321,"In",NA,1,"FGEHDICJBKA",NA,NA,"A (JV first)",NA,NA,"SS1","SS1",17,"J","Judginess","y8ii7g",1,"response","37",16194.6120000001,17077.6680000001,17094.3110000001,16194.6120000001,17077.6680000001,17094.3110000001,1,16194.6120000001,899.699000000022,0,NA,"Slider","J",3,"object-18","J","CFD-WM-019-003-S.jpeg",NA,"SUPTM12782"
"103",1688989823248,"10/07/2023 11:50:23",1688975423248,-4,"10/07/2023 03:50:23",137495,33,"task-284e",NA,30591537,9082638,NA,"complete",NA,NA,"computer","Desktop or Laptop","Windows 10","Chrome 114.0.0.0","1280x1024","1280x881",NA,NA,NA,"JV Task P3 (Updated)",4,"Anxious",321,"In",NA,1,"FGEHDICJBKA",NA,NA,"A (JV first)",NA,NA,"SS1","SS1",17,"J","Fixation","w9zir9",2,"continue","",966.358000000007,966.358000000007,966.358000000007,966.358000000007,966.358000000007,966.358000000007,1,966.358000000007,0,0,NA,"Fixation Timing","Fixation",1,"object-65","J","CFD-WM-019-003-S.jpeg",NA,"SUPTM12782"
"104",1688989836076,"10/07/2023 11:50:36",1688975436076,-4,"10/07/2023 03:50:36",137495,33,"task-284e",NA,30591537,9082638,NA,"complete",NA,NA,"computer","Desktop or Laptop","Windows 10","Chrome 114.0.0.0","1280x1024","1280x881",NA,NA,NA,"JV Task P3 (Updated)",4,"Anxious",321,"In",NA,1,"FGEHDICJBKA",NA,NA,"A (JV first)",NA,NA,"SS1","SS1",18,"J","Judginess","y8ii7g",1,"continue","",12828.551,12812.4079999999,12828.551,12828.551,12812.4079999999,12828.551,1,12828.551,0,0,NA,"Click To Continue","Continue Button",1,"object-14","J","CFD-IM-695-001-S.jpeg",NA,"SUPTM12782"
"105",1688989836081,"10/07/2023 11:50:36",1688975436081,-4,"10/07/2023 03:50:36",137495,33,"task-284e",NA,30591537,9082638,NA,"complete",NA,NA,"computer","Desktop or Laptop","Windows 10","Chrome 114.0.0.0","1280x1024","1280x881",NA,NA,NA,"JV Task P3 (Updated)",4,"Anxious",321,"In",NA,1,"FGEHDICJBKA",NA,NA,"A (JV first)",NA,NA,"SS1","SS1",18,"J","Judginess","y8ii7g",1,"response","34",11962.683,12812.4079999999,12829.075,11962.683,12812.4079999999,12829.075,1,11962.683,866.391999999993,0,NA,"Slider","J",3,"object-18","J","CFD-IM-695-001-S.jpeg",NA,"SUPTM12782"
"106",1688989837027,"10/07/2023 11:50:37",1688975437027,-4,"10/07/2023 03:50:37",137495,33,"task-284e",NA,30591537,9082638,NA,"complete",NA,NA,"computer","Desktop or Laptop","Windows 10","Chrome 114.0.0.0","1280x1024","1280x881",NA,NA,NA,"JV Task P3 (Updated)",4,"Anxious",321,"In",NA,1,"FGEHDICJBKA",NA,NA,"A (JV first)",NA,NA,"SS1","SS1",18,"J","Fixation","w9zir9",2,"continue","",966.329000000027,966.329000000027,966.329000000027,966.329000000027,966.329000000027,966.329000000027,1,966.329000000027,0,0,NA,"Fixation Timing","Fixation",1,"object-65","J","CFD-IM-695-001-S.jpeg",NA,"SUPTM12782"
"107",1688989853394,"10/07/2023 11:50:53",1688975453394,-4,"10/07/2023 03:50:53",137495,33,"task-284e",NA,30591537,9082638,NA,"complete",NA,NA,"computer","Desktop or Laptop","Windows 10","Chrome 114.0.0.0","1280x1024","1280x881",NA,NA,NA,"JV Task P3 (Updated)",4,"Anxious",321,"In",NA,1,"FGEHDICJBKA",NA,NA,"A (JV first)",NA,NA,"SS1","SS1",18,"V","Valence","xyoebq",1,"continue","",16368.9139999046,16361.2170000001,16368.9139999046,16368.9139999046,16361.2170000001,16368.9139999046,1,16368.9139999046,0,0,NA,"Click To Continue","Continue Button",1,"object-25","V","CFD-WF-022-017-H.jpeg",NA,"SUPTM12782"
"108",1688989853399,"10/07/2023 11:50:53",1688975453399,-4,"10/07/2023 03:50:53",137495,33,"task-284e",NA,30591537,9082638,NA,"complete",NA,NA,"computer","Desktop or Laptop","Windows 10","Chrome 114.0.0.0","1280x1024","1280x881",NA,NA,NA,"JV Task P3 (Updated)",4,"Anxious",321,"In",NA,1,"FGEHDICJBKA",NA,NA,"A (JV first)",NA,NA,"SS1","SS1",18,"V","Valence","xyoebq",1,"response","59",15561.46,16361.2170000001,16373.4139999046,15561.46,16361.2170000001,16373.4139999046,1,15561.46,811.953999904683,0,NA,"Slider","J",3,"object-27","V","CFD-WF-022-017-H.jpeg",NA,"SUPTM12782"
"109",1688989854354,"10/07/2023 11:50:54",1688975454354,-4,"10/07/2023 03:50:54",137495,33,"task-284e",NA,30591537,9082638,NA,"complete",NA,NA,"computer","Desktop or Laptop","Windows 10","Chrome 114.0.0.0","1280x1024","1280x881",NA,NA,NA,"JV Task P3 (Updated)",4,"Anxious",321,"In",NA,1,"FGEHDICJBKA",NA,NA,"A (JV first)",NA,NA,"SS1","SS1",18,"V","Fixation","68owkj",2,"continue","",966.328999999911,966.328999999911,966.328999999911,966.328999999911,966.328999999911,966.328999999911,1,966.328999999911,0,0,NA,"Fixation Timing","Fixation",1,"object-21","V","CFD-WF-022-017-H.jpeg",NA,"SUPTM12782"
"110",1688989857482,"10/07/2023 11:50:57",1688975457482,-4,"10/07/2023 03:50:57",137495,33,"task-284e",NA,30591537,9082638,NA,"complete",NA,NA,"computer","Desktop or Laptop","Windows 10","Chrome 114.0.0.0","1280x1024","1280x881",NA,NA,NA,"JV Task P3 (Updated)",4,"Anxious",321,"In",NA,1,"FGEHDICJBKA",NA,NA,"A (JV first)",NA,NA,"SS1","SS1",19,"V","Valence","xyoebq",1,"continue","",3129.36799990467,3115.64100000006,3129.36799990467,3129.36799990467,3115.64100000006,3129.36799990467,1,3129.36799990467,0,0,NA,"Click To Continue","Continue Button",1,"object-25","V","CFD-WM-035-032-H.jpeg",NA,"SUPTM12782"
"111",1688989857483,"10/07/2023 11:50:57",1688975457483,-4,"10/07/2023 03:50:57",137495,33,"task-284e",NA,30591537,9082638,NA,"complete",NA,NA,"computer","Desktop or Laptop","Windows 10","Chrome 114.0.0.0","1280x1024","1280x881",NA,NA,NA,"JV Task P3 (Updated)",4,"Anxious",321,"In",NA,1,"FGEHDICJBKA",NA,NA,"A (JV first)",NA,NA,"SS1","SS1",19,"V","Valence","xyoebq",1,"response","59",2249.25600000005,3115.64100000006,3130.16800009541,2249.25600000005,3115.64100000006,3130.16800009541,1,2249.25600000005,880.912000095355,0,NA,"Slider","J",3,"object-27","V","CFD-WM-035-032-H.jpeg",NA,"SUPTM12782"
"112",1688989858436,"10/07/2023 11:50:58",1688975458436,-4,"10/07/2023 03:50:58",137495,33,"task-284e",NA,30591537,9082638,NA,"complete",NA,NA,"computer","Desktop or Laptop","Windows 10","Chrome 114.0.0.0","1280x1024","1280x881",NA,NA,NA,"JV Task P3 (Updated)",4,"Anxious",321,"In",NA,1,"FGEHDICJBKA",NA,NA,"A (JV first)",NA,NA,"SS1","SS1",19,"V","Fixation","68owkj",2,"continue","",966.390000000014,966.390000000014,966.390000000014,966.390000000014,966.390000000014,966.390000000014,1,966.390000000014,0,0,NA,"Fixation Timing","Fixation",1,"object-21","V","CFD-WM-035-032-H.jpeg",NA,"SUPTM12782"
"113",1688989861290,"10/07/2023 11:51:01",1688975461290,-4,"10/07/2023 03:51:01",137495,33,"task-284e",NA,30591537,9082638,NA,"complete",NA,NA,"computer","Desktop or Laptop","Windows 10","Chrome 114.0.0.0","1280x1024","1280x881",NA,NA,NA,"JV Task P3 (Updated)",4,"Anxious",321,"In",NA,1,"FGEHDICJBKA",NA,NA,"A (JV first)",NA,NA,"SS1","SS1",20,"V","Valence","xyoebq",1,"continue","",2855.13700009533,2849.00799999991,2855.13700009533,2855.13700009533,2849.00799999991,2855.13700009533,1,2855.13700009533,0,0,NA,"Click To Continue","Continue Button",1,"object-25","V","CFD-WM-034-030-S.jpeg",NA,"SUPTM12782"
"114",1688989861291,"10/07/2023 11:51:01",1688975461291,-4,"10/07/2023 03:51:01",137495,33,"task-284e",NA,30591537,9082638,NA,"complete",NA,NA,"computer","Desktop or Laptop","Windows 10","Chrome 114.0.0.0","1280x1024","1280x881",NA,NA,NA,"JV Task P3 (Updated)",4,"Anxious",321,"In",NA,1,"FGEHDICJBKA",NA,NA,"A (JV first)",NA,NA,"SS1","SS1",20,"V","Valence","xyoebq",1,"response","34",1782.68099999998,2849.00799999991,2856.23699999996,1782.68099999998,2849.00799999991,2856.23699999996,1,1782.68099999998,1073.55599999998,0,NA,"Slider","J",3,"object-27","V","CFD-WM-034-030-S.jpeg",NA,"SUPTM12782"
"115",1688989862251,"10/07/2023 11:51:02",1688975462251,-4,"10/07/2023 03:51:02",137495,33,"task-284e",NA,30591537,9082638,NA,"complete",NA,NA,"computer","Desktop or Laptop","Windows 10","Chrome 114.0.0.0","1280x1024","1280x881",NA,NA,NA,"JV Task P3 (Updated)",4,"Anxious",321,"In",NA,1,"FGEHDICJBKA",NA,NA,"A (JV first)",NA,NA,"SS1","SS1",20,"V","Fixation","68owkj",2,"continue","",966.334000000032,966.334000000032,966.334000000032,966.334000000032,966.334000000032,966.334000000032,1,966.334000000032,0,0,NA,"Fixation Timing","Fixation",1,"object-21","V","CFD-WM-034-030-S.jpeg",NA,"SUPTM12782"
"116",1688989878179,"10/07/2023 11:51:18",1688975478179,-4,"10/07/2023 03:51:18",137495,33,"task-284e",NA,30591537,9082638,NA,"complete",NA,NA,"computer","Desktop or Laptop","Windows 10","Chrome 114.0.0.0","1280x1024","1280x881",NA,NA,NA,"JV Task P3 (Updated)",4,"Anxious",321,"In",NA,1,"FGEHDICJBKA",NA,NA,"A (JV first)",NA,NA,"SS1","SS1",21,"V","Valence","xyoebq",1,"continue","",15928.062,15911.3810000001,15928.062,15928.062,15911.3810000001,15928.062,1,15928.062,0,0,NA,"Click To Continue","Continue Button",1,"object-25","V","CFD-AF-250-200-H.jpeg",NA,"SUPTM12782"
"117",1688989878189,"10/07/2023 11:51:18",1688975478189,-4,"10/07/2023 03:51:18",137495,33,"task-284e",NA,30591537,9082638,NA,"complete",NA,NA,"computer","Desktop or Laptop","Windows 10","Chrome 114.0.0.0","1280x1024","1280x881",NA,NA,NA,"JV Task P3 (Updated)",4,"Anxious",321,"In",NA,1,"FGEHDICJBKA",NA,NA,"A (JV first)",NA,NA,"SS1","SS1",21,"V","Valence","xyoebq",1,"response","60",15228.274,15911.3810000001,15928.062,15228.274,15911.3810000001,15928.062,1,15228.274,699.788000000059,0,NA,"Slider","J",3,"object-27","V","CFD-AF-250-200-H.jpeg",NA,"SUPTM12782"
"118",1688989879129,"10/07/2023 11:51:19",1688975479129,-4,"10/07/2023 03:51:19",137495,33,"task-284e",NA,30591537,9082638,NA,"complete",NA,NA,"computer","Desktop or Laptop","Windows 10","Chrome 114.0.0.0","1280x1024","1280x881",NA,NA,NA,"JV Task P3 (Updated)",4,"Anxious",321,"In",NA,1,"FGEHDICJBKA",NA,NA,"A (JV first)",NA,NA,"SS1","SS1",21,"V","Fixation","68owkj",2,"continue","",966.339999999967,966.339999999967,966.339999999967,966.339999999967,966.339999999967,966.339999999967,1,966.339999999967,0,0,NA,"Fixation Timing","Fixation",1,"object-21","V","CFD-AF-250-200-H.jpeg",NA,"SUPTM12782"
"119",1688989886671,"10/07/2023 11:51:26",1688975486671,-4,"10/07/2023 03:51:26",137495,33,"task-284e",NA,30591537,9082638,NA,"complete",NA,NA,"computer","Desktop or Laptop","Windows 10","Chrome 114.0.0.0","1280x1024","1280x881",NA,NA,NA,"JV Task P3 (Updated)",4,"Anxious",321,"In",NA,1,"FGEHDICJBKA",NA,NA,"A (JV first)",NA,NA,"SS1","SS1",19,"J","Judginess","y8ii7g",1,"continue","",7543.47399995232,7530.79200000002,7543.47399995232,7543.47399995232,7530.79200000002,7543.47399995232,1,7543.47399995232,0,0,NA,"Click To Continue","Continue Button",1,"object-14","J","CFD-BM-016-036-S.jpeg",NA,"SUPTM12782"
"120",1688989886672,"10/07/2023 11:51:26",1688975486672,-4,"10/07/2023 03:51:26",137495,33,"task-284e",NA,30591537,9082638,NA,"complete",NA,NA,"computer","Desktop or Laptop","Windows 10","Chrome 114.0.0.0","1280x1024","1280x881",NA,NA,NA,"JV Task P3 (Updated)",4,"Anxious",321,"In",NA,1,"FGEHDICJBKA",NA,NA,"A (JV first)",NA,NA,"SS1","SS1",19,"J","Judginess","y8ii7g",1,"response","37",6647.75899999996,7530.79200000002,7543.674,6647.75899999996,7530.79200000002,7543.674,1,6647.75899999996,895.915000000037,0,NA,"Slider","J",3,"object-18","J","CFD-BM-016-036-S.jpeg",NA,"SUPTM12782"
"121",1688989887626,"10/07/2023 11:51:27",1688975487626,-4,"10/07/2023 03:51:27",137495,33,"task-284e",NA,30591537,9082638,NA,"complete",NA,NA,"computer","Desktop or Laptop","Windows 10","Chrome 114.0.0.0","1280x1024","1280x881",NA,NA,NA,"JV Task P3 (Updated)",4,"Anxious",321,"In",NA,1,"FGEHDICJBKA",NA,NA,"A (JV first)",NA,NA,"SS1","SS1",19,"J","Fixation","w9zir9",2,"continue","",966.400000000023,966.400000000023,966.400000000023,966.400000000023,966.400000000023,966.400000000023,1,966.400000000023,0,0,NA,"Fixation Timing","Fixation",1,"object-65","J","CFD-BM-016-036-S.jpeg",NA,"SUPTM12782"
"122",1688989898635,"10/07/2023 11:51:38",1688975498635,-4,"10/07/2023 03:51:38",137495,33,"task-284e",NA,30591537,9082638,NA,"complete",NA,NA,"computer","Desktop or Laptop","Windows 10","Chrome 114.0.0.0","1280x1024","1280x881",NA,NA,NA,"JV Task P3 (Updated)",4,"Anxious",321,"In",NA,1,"FGEHDICJBKA",NA,NA,"A (JV first)",NA,NA,"SS1","SS1",20,"J","Judginess","y8ii7g",1,"continue","",11009.5819999046,10996.311,11009.5819999046,11009.5819999046,10996.311,11009.5819999046,1,11009.5819999046,0,0,NA,"Click To Continue","Continue Button",1,"object-14","J","CFD-WM-026-001-S.jpeg",NA,"SUPTM12782"
"123",1688989898643,"10/07/2023 11:51:38",1688975498643,-4,"10/07/2023 03:51:38",137495,33,"task-284e",NA,30591537,9082638,NA,"complete",NA,NA,"computer","Desktop or Laptop","Windows 10","Chrome 114.0.0.0","1280x1024","1280x881",NA,NA,NA,"JV Task P3 (Updated)",4,"Anxious",321,"In",NA,1,"FGEHDICJBKA",NA,NA,"A (JV first)",NA,NA,"SS1","SS1",20,"J","Judginess","y8ii7g",1,"response","39",10196.5919999999,10996.311,11012.981,10196.5919999999,10996.311,11012.981,1,10196.5919999999,816.389000000083,0,NA,"Slider","J",3,"object-18","J","CFD-WM-026-001-S.jpeg",NA,"SUPTM12782"
"124",1688989899588,"10/07/2023 11:51:39",1688975499588,-4,"10/07/2023 03:51:39",137495,33,"task-284e",NA,30591537,9082638,NA,"complete",NA,NA,"computer","Desktop or Laptop","Windows 10","Chrome 114.0.0.0","1280x1024","1280x881",NA,NA,NA,"JV Task P3 (Updated)",4,"Anxious",321,"In",NA,1,"FGEHDICJBKA",NA,NA,"A (JV first)",NA,NA,"SS1","SS1",20,"J","Fixation","w9zir9",2,"continue","",966.298999999999,966.298999999999,966.298999999999,966.298999999999,966.298999999999,966.298999999999,1,966.298999999999,0,0,NA,"Fixation Timing","Fixation",1,"object-65","J","CFD-WM-026-001-S.jpeg",NA,"SUPTM12782"
"125",1688989907644,"10/07/2023 11:51:47",1688975507644,-4,"10/07/2023 03:51:47",137495,33,"task-284e",NA,30591537,9082638,NA,"complete",NA,NA,"computer","Desktop or Laptop","Windows 10","Chrome 114.0.0.0","1280x1024","1280x881",NA,NA,NA,"JV Task P3 (Updated)",4,"Anxious",321,"In",NA,1,"FGEHDICJBKA",NA,NA,"A (JV first)",NA,NA,"SS1","SS1",21,"J","Judginess","y8ii7g",1,"continue","",8054.87199999997,8047.32299999997,8054.87199999997,8054.87199999997,8047.32299999997,8054.87199999997,1,8054.87199999997,0,0,NA,"Click To Continue","Continue Button",1,"object-14","J","CFD-BF-040-003-H.jpeg",NA,"SUPTM12782"
"126",1688989907644,"10/07/2023 11:51:47",1688975507644,-4,"10/07/2023 03:51:47",137495,33,"task-284e",NA,30591537,9082638,NA,"complete",NA,NA,"computer","Desktop or Laptop","Windows 10","Chrome 114.0.0.0","1280x1024","1280x881",NA,NA,NA,"JV Task P3 (Updated)",4,"Anxious",321,"In",NA,1,"FGEHDICJBKA",NA,NA,"A (JV first)",NA,NA,"SS1","SS1",21,"J","Judginess","y8ii7g",1,"response","59",7064.33899999992,8047.32299999997,8055.67199995229,7064.33899999992,8047.32299999997,8055.67199995229,1,7064.33899999992,991.33299995237,0,NA,"Slider","J",3,"object-18","J","CFD-BF-040-003-H.jpeg",NA,"SUPTM12782"
"127",1688989908603,"10/07/2023 11:51:48",1688975508603,-4,"10/07/2023 03:51:48",137495,33,"task-284e",NA,30591537,9082638,NA,"complete",NA,NA,"computer","Desktop or Laptop","Windows 10","Chrome 114.0.0.0","1280x1024","1280x881",NA,NA,NA,"JV Task P3 (Updated)",4,"Anxious",321,"In",NA,1,"FGEHDICJBKA",NA,NA,"A (JV first)",NA,NA,"SS1","SS1",21,"J","Fixation","w9zir9",2,"continue","",966.344999999972,966.344999999972,966.344999999972,966.344999999972,966.344999999972,966.344999999972,1,966.344999999972,0,0,NA,"Fixation Timing","Fixation",1,"object-65","J","CFD-BF-040-003-H.jpeg",NA,"SUPTM12782"
"128",1688989917059,"10/07/2023 11:51:57",1688975517059,-4,"10/07/2023 03:51:57",137495,33,"task-284e",NA,30591537,9082638,NA,"complete",NA,NA,"computer","Desktop or Laptop","Windows 10","Chrome 114.0.0.0","1280x1024","1280x881",NA,NA,NA,"JV Task P3 (Updated)",4,"Anxious",321,"In",NA,1,"FGEHDICJBKA",NA,NA,"A (JV first)",NA,NA,"SS1","SS1",22,"J","Judginess","y8ii7g",1,"continue","",8456.20400000003,8447.22600000002,8456.20400000003,8456.20400000003,8447.22600000002,8456.20400000003,1,8456.20400000003,0,0,NA,"Click To Continue","Continue Button",1,"object-14","J","CFD-WF-031-027-S.jpeg",NA,"SUPTM12782"
"129",1688989917066,"10/07/2023 11:51:57",1688975517066,-4,"10/07/2023 03:51:57",137495,33,"task-284e",NA,30591537,9082638,NA,"complete",NA,NA,"computer","Desktop or Laptop","Windows 10","Chrome 114.0.0.0","1280x1024","1280x881",NA,NA,NA,"JV Task P3 (Updated)",4,"Anxious",321,"In",NA,1,"FGEHDICJBKA",NA,NA,"A (JV first)",NA,NA,"SS1","SS1",22,"J","Judginess","y8ii7g",1,"response","38",7697.45700000005,8447.22600000002,8463.10400009539,7697.45700000005,8447.22600000002,8463.10400009539,1,7697.45700000005,765.647000095341,0,NA,"Slider","J",3,"object-18","J","CFD-WF-031-027-S.jpeg",NA,"SUPTM12782"
"130",1688989918016,"10/07/2023 11:51:58",1688975518016,-4,"10/07/2023 03:51:58",137495,33,"task-284e",NA,30591537,9082638,NA,"complete",NA,NA,"computer","Desktop or Laptop","Windows 10","Chrome 114.0.0.0","1280x1024","1280x881",NA,NA,NA,"JV Task P3 (Updated)",4,"Anxious",321,"In",NA,1,"FGEHDICJBKA",NA,NA,"A (JV first)",NA,NA,"SS1","SS1",22,"J","Fixation","w9zir9",2,"continue","",966.33600000001,966.33600000001,966.33600000001,966.33600000001,966.33600000001,966.33600000001,1,966.33600000001,0,0,NA,"Fixation Timing","Fixation",1,"object-65","J","CFD-WF-031-027-S.jpeg",NA,"SUPTM12782"
"131",1688989930714,"10/07/2023 11:52:10",1688975530714,-4,"10/07/2023 03:52:10",137495,33,"task-284e",NA,30591537,9082638,NA,"complete",NA,NA,"computer","Desktop or Laptop","Windows 10","Chrome 114.0.0.0","1280x1024","1280x881",NA,NA,NA,"JV Task P3 (Updated)",4,"Anxious",321,"In",NA,1,"FGEHDICJBKA",NA,NA,"A (JV first)",NA,NA,"SS1","SS1",23,"J","Judginess","y8ii7g",1,"continue","",12695.701,12679.066,12695.701,12695.701,12679.066,12695.701,1,12695.701,0,0,NA,"Click To Continue","Continue Button",1,"object-14","J","CFD-WM-019-003-N.jpg",NA,"SUPTM12782"
"132",1688989930719,"10/07/2023 11:52:10",1688975530719,-4,"10/07/2023 03:52:10",137495,33,"task-284e",NA,30591537,9082638,NA,"complete",NA,NA,"computer","Desktop or Laptop","Windows 10","Chrome 114.0.0.0","1280x1024","1280x881",NA,NA,NA,"JV Task P3 (Updated)",4,"Anxious",321,"In",NA,1,"FGEHDICJBKA",NA,NA,"A (JV first)",NA,NA,"SS1","SS1",23,"J","Judginess","y8ii7g",1,"response","36",11846.015,12679.066,12695.701,11846.015,12679.066,12695.701,1,11846.015,849.685999999987,0,NA,"Slider","J",3,"object-18","J","CFD-WM-019-003-N.jpg",NA,"SUPTM12782"
"133",1688989931662,"10/07/2023 11:52:11",1688975531662,-4,"10/07/2023 03:52:11",137495,33,"task-284e",NA,30591537,9082638,NA,"complete",NA,NA,"computer","Desktop or Laptop","Windows 10","Chrome 114.0.0.0","1280x1024","1280x881",NA,NA,NA,"JV Task P3 (Updated)",4,"Anxious",321,"In",NA,1,"FGEHDICJBKA",NA,NA,"A (JV first)",NA,NA,"SS1","SS1",23,"J","Fixation","w9zir9",2,"continue","",966.423999999999,966.423999999999,966.423999999999,966.423999999999,966.423999999999,966.423999999999,1,966.423999999999,0,0,NA,"Fixation Timing","Fixation",1,"object-65","J","CFD-WM-019-003-N.jpg",NA,"SUPTM12782"
"134",1688989944035,"10/07/2023 11:52:24",1688975544035,-4,"10/07/2023 03:52:24",137495,33,"task-284e",NA,30591537,9082638,NA,"complete",NA,NA,"computer","Desktop or Laptop","Windows 10","Chrome 114.0.0.0","1280x1024","1280x881",NA,NA,NA,"JV Task P3 (Updated)",4,"Anxious",321,"In",NA,1,"FGEHDICJBKA",NA,NA,"A (JV first)",NA,NA,"SS1","SS1",22,"V","Valence","xyoebq",1,"continue","",12373.2519999046,12362.477,12373.2519999046,12373.2519999046,12362.477,12373.2519999046,1,12373.2519999046,0,0,NA,"Click To Continue","Continue Button",1,"object-25","V","CFD-AM-220-134-H.jpeg",NA,"SUPTM12782"
"135",1688989944039,"10/07/2023 11:52:24",1688975544039,-4,"10/07/2023 03:52:24",137495,33,"task-284e",NA,30591537,9082638,NA,"complete",NA,NA,"computer","Desktop or Laptop","Windows 10","Chrome 114.0.0.0","1280x1024","1280x881",NA,NA,NA,"JV Task P3 (Updated)",4,"Anxious",321,"In",NA,1,"FGEHDICJBKA",NA,NA,"A (JV first)",NA,NA,"SS1","SS1",22,"V","Valence","xyoebq",1,"response","61",10596.429,12362.477,12377.7519999046,10596.429,12362.477,12377.7519999046,1,10596.429,1781.32299990463,0,NA,"Slider","J",3,"object-27","V","CFD-AM-220-134-H.jpeg",NA,"SUPTM12782"
"136",1688989944991,"10/07/2023 11:52:24",1688975544991,-4,"10/07/2023 03:52:24",137495,33,"task-284e",NA,30591537,9082638,NA,"complete",NA,NA,"computer","Desktop or Laptop","Windows 10","Chrome 114.0.0.0","1280x1024","1280x881",NA,NA,NA,"JV Task P3 (Updated)",4,"Anxious",321,"In",NA,1,"FGEHDICJBKA",NA,NA,"A (JV first)",NA,NA,"SS1","SS1",22,"V","Fixation","68owkj",2,"continue","",966.379000000074,966.379000000074,966.379000000074,966.379000000074,966.379000000074,966.379000000074,1,966.379000000074,0,0,NA,"Fixation Timing","Fixation",1,"object-21","V","CFD-AM-220-134-H.jpeg",NA,"SUPTM12782"
"137",1688989954667,"10/07/2023 11:52:34",1688975554667,-4,"10/07/2023 03:52:34",137495,33,"task-284e",NA,30591537,9082638,NA,"complete",NA,NA,"computer","Desktop or Laptop","Windows 10","Chrome 114.0.0.0","1280x1024","1280x881",NA,NA,NA,"JV Task P3 (Updated)",4,"Anxious",321,"In",NA,1,"FGEHDICJBKA",NA,NA,"A (JV first)",NA,NA,"SS1","SS1",24,"J","Judginess","y8ii7g",1,"continue","",9676.49600004766,9663.41599999997,9676.49600004766,9676.49600004766,9663.41599999997,9676.49600004766,1,9676.49600004766,0,0,NA,"Click To Continue","Continue Button",1,"object-14","J","CFD-WM-025-002-N.jpg",NA,"SUPTM12782"
"138",1688989954671,"10/07/2023 11:52:34",1688975554671,-4,"10/07/2023 03:52:34",137495,33,"task-284e",NA,30591537,9082638,NA,"complete",NA,NA,"computer","Desktop or Laptop","Windows 10","Chrome 114.0.0.0","1280x1024","1280x881",NA,NA,NA,"JV Task P3 (Updated)",4,"Anxious",321,"In",NA,1,"FGEHDICJBKA",NA,NA,"A (JV first)",NA,NA,"SS1","SS1",24,"J","Judginess","y8ii7g",1,"response","39",8213.95600000001,9663.41599999997,9679.99599999993,8213.95600000001,9663.41599999997,9679.99599999993,1,8213.95600000001,1466.03999999992,0,NA,"Slider","J",3,"object-18","J","CFD-WM-025-002-N.jpg",NA,"SUPTM12782"
"139",1688989955621,"10/07/2023 11:52:35",1688975555621,-4,"10/07/2023 03:52:35",137495,33,"task-284e",NA,30591537,9082638,NA,"complete",NA,NA,"computer","Desktop or Laptop","Windows 10","Chrome 114.0.0.0","1280x1024","1280x881",NA,NA,NA,"JV Task P3 (Updated)",4,"Anxious",321,"In",NA,1,"FGEHDICJBKA",NA,NA,"A (JV first)",NA,NA,"SS1","SS1",24,"J","Fixation","w9zir9",2,"continue","",966.356000000029,966.356000000029,966.356000000029,966.356000000029,966.356000000029,966.356000000029,1,966.356000000029,0,0,NA,"Fixation Timing","Fixation",1,"object-65","J","CFD-WM-025-002-N.jpg",NA,"SUPTM12782"
"140",1688989959291,"10/07/2023 11:52:39",1688975559291,-4,"10/07/2023 03:52:39",137495,33,"task-284e",NA,30591537,9082638,NA,"complete",NA,NA,"computer","Desktop or Laptop","Windows 10","Chrome 114.0.0.0","1280x1024","1280x881",NA,NA,NA,"JV Task P3 (Updated)",4,"Anxious",321,"In",NA,1,"FGEHDICJBKA",NA,NA,"A (JV first)",NA,NA,"SS1","SS1",25,"J","Judginess","y8ii7g",1,"continue","",3670.62399990461,3665.41799999995,3670.62399990461,3670.62399990461,3665.41799999995,3670.62399990461,1,3670.62399990461,0,0,NA,"Click To Continue","Continue Button",1,"object-14","J","CFD-IF-734-108-S.jpeg",NA,"SUPTM12782"
"141",1688989959292,"10/07/2023 11:52:39",1688975559292,-4,"10/07/2023 03:52:39",137495,33,"task-284e",NA,30591537,9082638,NA,"complete",NA,NA,"computer","Desktop or Laptop","Windows 10","Chrome 114.0.0.0","1280x1024","1280x881",NA,NA,NA,"JV Task P3 (Updated)",4,"Anxious",321,"In",NA,1,"FGEHDICJBKA",NA,NA,"A (JV first)",NA,NA,"SS1","SS1",25,"J","Judginess","y8ii7g",1,"response","59",2515.84999999998,3665.41799999995,3671.62399990461,2515.84999999998,3665.41799999995,3671.62399990461,1,2515.84999999998,1155.77399990463,0,NA,"Slider","J",3,"object-18","J","CFD-IF-734-108-S.jpeg",NA,"SUPTM12782"
"142",1688989960253,"10/07/2023 11:52:40",1688975560253,-4,"10/07/2023 03:52:40",137495,33,"task-284e",NA,30591537,9082638,NA,"complete",NA,NA,"computer","Desktop or Laptop","Windows 10","Chrome 114.0.0.0","1280x1024","1280x881",NA,NA,NA,"JV Task P3 (Updated)",4,"Anxious",321,"In",NA,1,"FGEHDICJBKA",NA,NA,"A (JV first)",NA,NA,"SS1","SS1",25,"J","Fixation","w9zir9",2,"continue","",966.380000000005,966.380000000005,966.380000000005,966.380000000005,966.380000000005,966.380000000005,1,966.380000000005,0,0,NA,"Fixation Timing","Fixation",1,"object-65","J","CFD-IF-734-108-S.jpeg",NA,"SUPTM12782"
"143",1688989985770,"10/07/2023 11:53:05",1688975585770,-4,"10/07/2023 03:53:05",137495,33,"task-284e",NA,30591537,9082638,NA,"complete",NA,NA,"computer","Desktop or Laptop","Windows 10","Chrome 114.0.0.0","1280x1024","1280x881",NA,NA,NA,"JV Task P3 (Updated)",4,"Anxious",321,"In",NA,1,"FGEHDICJBKA",NA,NA,"A (JV first)",NA,NA,"SS1","SS1",23,"V","Valence","xyoebq",1,"continue","",25518.5259999523,25508.16,25518.5259999523,25518.5259999523,25508.16,25518.5259999523,1,25518.5259999523,0,0,NA,"Click To Continue","Continue Button",1,"object-25","V","CFD-BM-045-004-S.jpeg",NA,"SUPTM12782"
"144",1688989985777,"10/07/2023 11:53:05",1688975585777,-4,"10/07/2023 03:53:05",137495,33,"task-284e",NA,30591537,9082638,NA,"complete",NA,NA,"computer","Desktop or Laptop","Windows 10","Chrome 114.0.0.0","1280x1024","1280x881",NA,NA,NA,"JV Task P3 (Updated)",4,"Anxious",321,"In",NA,1,"FGEHDICJBKA",NA,NA,"A (JV first)",NA,NA,"SS1","SS1",23,"V","Valence","xyoebq",1,"response","37",24775.091,25508.16,25524.8250000001,24775.091,25508.16,25524.8250000001,1,24775.091,749.734000000055,0,NA,"Slider","J",3,"object-27","V","CFD-BM-045-004-S.jpeg",NA,"SUPTM12782"
"145",1688989986725,"10/07/2023 11:53:06",1688975586725,-4,"10/07/2023 03:53:06",137495,33,"task-284e",NA,30591537,9082638,NA,"complete",NA,NA,"computer","Desktop or Laptop","Windows 10","Chrome 114.0.0.0","1280x1024","1280x881",NA,NA,NA,"JV Task P3 (Updated)",4,"Anxious",321,"In",NA,1,"FGEHDICJBKA",NA,NA,"A (JV first)",NA,NA,"SS1","SS1",23,"V","Fixation","68owkj",2,"continue","",966.255000000005,966.255000000005,966.255000000005,966.255000000005,966.255000000005,966.255000000005,1,966.255000000005,0,0,NA,"Fixation Timing","Fixation",1,"object-21","V","CFD-BM-045-004-S.jpeg",NA,"SUPTM12782"
"146",1688990002434,"10/07/2023 11:53:22",1688975602434,-4,"10/07/2023 03:53:22",137495,33,"task-284e",NA,30591537,9082638,NA,"complete",NA,NA,"computer","Desktop or Laptop","Windows 10","Chrome 114.0.0.0","1280x1024","1280x881",NA,NA,NA,"JV Task P3 (Updated)",4,"Anxious",321,"In",NA,1,"FGEHDICJBKA",NA,NA,"A (JV first)",NA,NA,"SS1","SS1",26,"J","Judginess","y8ii7g",1,"continue","",15708.9109999046,15694.906,15708.9109999046,15708.9109999046,15694.906,15708.9109999046,1,15708.9109999046,0,0,NA,"Click To Continue","Continue Button",1,"object-14","J","CFD-WF-024-003-N.jpg",NA,"SUPTM12782"
"147",1688990002439,"10/07/2023 11:53:22",1688975602439,-4,"10/07/2023 03:53:22",137495,33,"task-284e",NA,30591537,9082638,NA,"complete",NA,NA,"computer","Desktop or Laptop","Windows 10","Chrome 114.0.0.0","1280x1024","1280x881",NA,NA,NA,"JV Task P3 (Updated)",4,"Anxious",321,"In",NA,1,"FGEHDICJBKA",NA,NA,"A (JV first)",NA,NA,"SS1","SS1",26,"J","Judginess","y8ii7g",1,"response","56",14312.002,15694.906,15711.6299999999,14312.002,15694.906,15711.6299999999,1,14312.002,1399.62799999991,0,NA,"Slider","J",3,"object-18","J","CFD-WF-024-003-N.jpg",NA,"SUPTM12782"
"148",1688990003387,"10/07/2023 11:53:23",1688975603387,-4,"10/07/2023 03:53:23",137495,33,"task-284e",NA,30591537,9082638,NA,"complete",NA,NA,"computer","Desktop or Laptop","Windows 10","Chrome 114.0.0.0","1280x1024","1280x881",NA,NA,NA,"JV Task P3 (Updated)",4,"Anxious",321,"In",NA,1,"FGEHDICJBKA",NA,NA,"A (JV first)",NA,NA,"SS1","SS1",26,"J","Fixation","w9zir9",2,"continue","",966.310999999987,966.310999999987,966.310999999987,966.310999999987,966.310999999987,966.310999999987,1,966.310999999987,0,0,NA,"Fixation Timing","Fixation",1,"object-65","J","CFD-WF-024-003-N.jpg",NA,"SUPTM12782"
"149",1688990021914,"10/07/2023 11:53:41",1688975621914,-4,"10/07/2023 03:53:41",137495,33,"task-284e",NA,30591537,9082638,NA,"complete",NA,NA,"computer","Desktop or Laptop","Windows 10","Chrome 114.0.0.0","1280x1024","1280x881",NA,NA,NA,"JV Task P3 (Updated)",4,"Anxious",321,"In",NA,1,"FGEHDICJBKA",NA,NA,"A (JV first)",NA,NA,"SS1","SS1",24,"V","Valence","xyoebq",1,"continue","",18526.9940000954,18510.496,18526.9940000954,18526.9940000954,18510.496,18526.9940000954,1,18526.9940000954,0,0,NA,"Click To Continue","Continue Button",1,"object-25","V","CFD-WF-011-002-N.jpg",NA,"SUPTM12782"
"150",1688990021919,"10/07/2023 11:53:41",1688975621919,-4,"10/07/2023 03:53:41",137495,33,"task-284e",NA,30591537,9082638,NA,"complete",NA,NA,"computer","Desktop or Laptop","Windows 10","Chrome 114.0.0.0","1280x1024","1280x881",NA,NA,NA,"JV Task P3 (Updated)",4,"Anxious",321,"In",NA,1,"FGEHDICJBKA",NA,NA,"A (JV first)",NA,NA,"SS1","SS1",24,"V","Valence","xyoebq",1,"response","56",16061.3620000001,18510.496,18527.1240000001,16061.3620000001,18510.496,18527.1240000001,1,16061.3620000001,2465.76199999999,0,NA,"Slider","J",3,"object-27","V","CFD-WF-011-002-N.jpg",NA,"SUPTM12782"
"151",1688990022864,"10/07/2023 11:53:42",1688975622864,-4,"10/07/2023 03:53:42",137495,33,"task-284e",NA,30591537,9082638,NA,"complete",NA,NA,"computer","Desktop or Laptop","Windows 10","Chrome 114.0.0.0","1280x1024","1280x881",NA,NA,NA,"JV Task P3 (Updated)",4,"Anxious",321,"In",NA,1,"FGEHDICJBKA",NA,NA,"A (JV first)",NA,NA,"SS1","SS1",24,"V","Fixation","68owkj",2,"continue","",966.341000000015,966.341000000015,966.341000000015,966.341000000015,966.341000000015,966.341000000015,1,966.341000000015,0,0,NA,"Fixation Timing","Fixation",1,"object-21","V","CFD-WF-011-002-N.jpg",NA,"SUPTM12782"
"152",1688990027739,"10/07/2023 11:53:47",1688975627739,-4,"10/07/2023 03:53:47",137495,33,"task-284e",NA,30591537,9082638,NA,"complete",NA,NA,"computer","Desktop or Laptop","Windows 10","Chrome 114.0.0.0","1280x1024","1280x881",NA,NA,NA,"JV Task P3 (Updated)",4,"Anxious",321,"In",NA,1,"FGEHDICJBKA",NA,NA,"A (JV first)",NA,NA,"SS1","SS1",27,"J","Judginess","y8ii7g",1,"continue","",4875.0569999523,4865.04099999997,4875.0569999523,4875.0569999523,4865.04099999997,4875.0569999523,1,4875.0569999523,0,0,NA,"Click To Continue","Continue Button",1,"object-14","J","CFD-BM-045-004-H.jpeg",NA,"SUPTM12782"
"153",1688990027739,"10/07/2023 11:53:47",1688975627739,-4,"10/07/2023 03:53:47",137495,33,"task-284e",NA,30591537,9082638,NA,"complete",NA,NA,"computer","Desktop or Laptop","Windows 10","Chrome 114.0.0.0","1280x1024","1280x881",NA,NA,NA,"JV Task P3 (Updated)",4,"Anxious",321,"In",NA,1,"FGEHDICJBKA",NA,NA,"A (JV first)",NA,NA,"SS1","SS1",27,"J","Judginess","y8ii7g",1,"response","67",4032.00399999996,4865.04099999997,4875.85699990462,4032.00399999996,4865.04099999997,4875.85699990462,1,4032.00399999996,843.852999904659,0,NA,"Slider","J",3,"object-18","J","CFD-BM-045-004-H.jpeg",NA,"SUPTM12782"
"154",1688990028695,"10/07/2023 11:53:48",1688975628695,-4,"10/07/2023 03:53:48",137495,33,"task-284e",NA,30591537,9082638,NA,"complete",NA,NA,"computer","Desktop or Laptop","Windows 10","Chrome 114.0.0.0","1280x1024","1280x881",NA,NA,NA,"JV Task P3 (Updated)",4,"Anxious",321,"In",NA,1,"FGEHDICJBKA",NA,NA,"A (JV first)",NA,NA,"SS1","SS1",27,"J","Fixation","w9zir9",2,"continue","",966.353000000003,966.353000000003,966.353000000003,966.353000000003,966.353000000003,966.353000000003,1,966.353000000003,0,0,NA,"Fixation Timing","Fixation",1,"object-65","J","CFD-BM-045-004-H.jpeg",NA,"SUPTM12782"
"155",1688990044793,"10/07/2023 11:54:04",1688975644793,-4,"10/07/2023 03:54:04",137495,33,"task-284e",NA,30591537,9082638,NA,"complete",NA,NA,"computer","Desktop or Laptop","Windows 10","Chrome 114.0.0.0","1280x1024","1280x881",NA,NA,NA,"JV Task P3 (Updated)",4,"Anxious",321,"In",NA,1,"FGEHDICJBKA",NA,NA,"A (JV first)",NA,NA,"SS1","SS1",25,"V","Valence","xyoebq",1,"continue","",16097.9629999046,16094.659,16097.9629999046,16097.9629999046,16094.659,16097.9629999046,1,16097.9629999046,0,0,NA,"Click To Continue","Continue Button",1,"object-25","V","CFD-WM-024-015-N.jpg",NA,"SUPTM12782"
"156",1688990044800,"10/07/2023 11:54:04",1688975644800,-4,"10/07/2023 03:54:04",137495,33,"task-284e",NA,30591537,9082638,NA,"complete",NA,NA,"computer","Desktop or Laptop","Windows 10","Chrome 114.0.0.0","1280x1024","1280x881",NA,NA,NA,"JV Task P3 (Updated)",4,"Anxious",321,"In",NA,1,"FGEHDICJBKA",NA,NA,"A (JV first)",NA,NA,"SS1","SS1",25,"V","Valence","xyoebq",1,"response","58",15378.198,16094.659,16105.1629999523,15378.198,16094.659,16105.1629999523,1,15378.198,726.964999952354,0,NA,"Slider","J",3,"object-27","V","CFD-WM-024-015-N.jpg",NA,"SUPTM12782"
"157",1688990045757,"10/07/2023 11:54:05",1688975645757,-4,"10/07/2023 03:54:05",137495,33,"task-284e",NA,30591537,9082638,NA,"complete",NA,NA,"computer","Desktop or Laptop","Windows 10","Chrome 114.0.0.0","1280x1024","1280x881",NA,NA,NA,"JV Task P3 (Updated)",4,"Anxious",321,"In",NA,1,"FGEHDICJBKA",NA,NA,"A (JV first)",NA,NA,"SS1","SS1",25,"V","Fixation","68owkj",2,"continue","",966.312000000034,966.312000000034,966.312000000034,966.312000000034,966.312000000034,966.312000000034,1,966.312000000034,0,0,NA,"Fixation Timing","Fixation",1,"object-21","V","CFD-WM-024-015-N.jpg",NA,"SUPTM12782"
"158",1688990056959,"10/07/2023 11:54:16",1688975656959,-4,"10/07/2023 03:54:16",137495,33,"task-284e",NA,30591537,9082638,NA,"complete",NA,NA,"computer","Desktop or Laptop","Windows 10","Chrome 114.0.0.0","1280x1024","1280x881",NA,NA,NA,"JV Task P3 (Updated)",4,"Anxious",321,"In",NA,1,"FGEHDICJBKA",NA,NA,"A (JV first)",NA,NA,"SS1","SS1",26,"V","Valence","xyoebq",1,"continue","",11202.7920000954,11196.258,11202.7920000954,11202.7920000954,11196.258,11202.7920000954,1,11202.7920000954,0,0,NA,"Click To Continue","Continue Button",1,"object-25","V","CFD-MM-313-002-H.jpeg",NA,"SUPTM12782"
"159",1688990056960,"10/07/2023 11:54:16",1688975656960,-4,"10/07/2023 03:54:16",137495,33,"task-284e",NA,30591537,9082638,NA,"complete",NA,NA,"computer","Desktop or Laptop","Windows 10","Chrome 114.0.0.0","1280x1024","1280x881",NA,NA,NA,"JV Task P3 (Updated)",4,"Anxious",321,"In",NA,1,"FGEHDICJBKA",NA,NA,"A (JV first)",NA,NA,"SS1","SS1",26,"V","Valence","xyoebq",1,"response","59",10329.87,11196.258,11204.0920000477,10329.87,11196.258,11204.0920000477,1,10329.87,874.222000047681,0,NA,"Slider","J",3,"object-27","V","CFD-MM-313-002-H.jpeg",NA,"SUPTM12782"
"160",1688990057919,"10/07/2023 11:54:17",1688975657919,-4,"10/07/2023 03:54:17",137495,33,"task-284e",NA,30591537,9082638,NA,"complete",NA,NA,"computer","Desktop or Laptop","Windows 10","Chrome 114.0.0.0","1280x1024","1280x881",NA,NA,NA,"JV Task P3 (Updated)",4,"Anxious",321,"In",NA,1,"FGEHDICJBKA",NA,NA,"A (JV first)",NA,NA,"SS1","SS1",26,"V","Fixation","68owkj",2,"continue","",966.363000000012,966.363000000012,966.363000000012,966.363000000012,966.363000000012,966.363000000012,1,966.363000000012,0,0,NA,"Fixation Timing","Fixation",1,"object-21","V","CFD-MM-313-002-H.jpeg",NA,"SUPTM12782"
"161",1688990066530,"10/07/2023 11:54:26",1688975666530,-4,"10/07/2023 03:54:26",137495,33,"task-284e",NA,30591537,9082638,NA,"complete",NA,NA,"computer","Desktop or Laptop","Windows 10","Chrome 114.0.0.0","1280x1024","1280x881",NA,NA,NA,"JV Task P3 (Updated)",4,"Anxious",321,"In",NA,1,"FGEHDICJBKA",NA,NA,"A (JV first)",NA,NA,"SS1","SS1",28,"J","Judginess","y8ii7g",1,"continue","",8345.14500009536,8330.60499999998,8345.14500009536,8345.14500009536,8330.60499999998,8345.14500009536,1,8345.14500009536,0,0,NA,"Click To Continue","Continue Button",1,"object-14","J","CFD-BF-040-003-N.jpg",NA,"SUPTM12782"
"162",1688990066531,"10/07/2023 11:54:26",1688975666531,-4,"10/07/2023 03:54:26",137495,33,"task-284e",NA,30591537,9082638,NA,"complete",NA,NA,"computer","Desktop or Laptop","Windows 10","Chrome 114.0.0.0","1280x1024","1280x881",NA,NA,NA,"JV Task P3 (Updated)",4,"Anxious",321,"In",NA,1,"FGEHDICJBKA",NA,NA,"A (JV first)",NA,NA,"SS1","SS1",28,"J","Judginess","y8ii7g",1,"response","56",7081.02399999998,8330.60499999998,8345.84499990463,7081.02399999998,8330.60499999998,8345.84499990463,1,7081.02399999998,1264.82099990465,0,NA,"Slider","J",3,"object-18","J","CFD-BF-040-003-N.jpg",NA,"SUPTM12782"
"163",1688990067483,"10/07/2023 11:54:27",1688975667483,-4,"10/07/2023 03:54:27",137495,33,"task-284e",NA,30591537,9082638,NA,"complete",NA,NA,"computer","Desktop or Laptop","Windows 10","Chrome 114.0.0.0","1280x1024","1280x881",NA,NA,NA,"JV Task P3 (Updated)",4,"Anxious",321,"In",NA,1,"FGEHDICJBKA",NA,NA,"A (JV first)",NA,NA,"SS1","SS1",28,"J","Fixation","w9zir9",2,"continue","",966.337999999989,966.337999999989,966.337999999989,966.337999999989,966.337999999989,966.337999999989,1,966.337999999989,0,0,NA,"Fixation Timing","Fixation",1,"object-65","J","CFD-BF-040-003-N.jpg",NA,"SUPTM12782"
"164",1688990074514,"10/07/2023 11:54:34",1688975674514,-4,"10/07/2023 03:54:34",137495,33,"task-284e",NA,30591537,9082638,NA,"complete",NA,NA,"computer","Desktop or Laptop","Windows 10","Chrome 114.0.0.0","1280x1024","1280x881",NA,NA,NA,"JV Task P3 (Updated)",4,"Anxious",321,"In",NA,1,"FGEHDICJBKA",NA,NA,"A (JV first)",NA,NA,"SS1","SS1",29,"J","Judginess","y8ii7g",1,"continue","",2815.74199999997,2799.06999999995,2815.74199999997,2815.74199999997,2799.06999999995,2815.74199999997,1,2815.74199999997,0,0,NA,"Click To Continue","Continue Button",1,"object-14","J","CFD-WM-036-031-H.jpeg",NA,"SUPTM12782"
"165",1688990074514,"10/07/2023 11:54:34",1688975674514,-4,"10/07/2023 03:54:34",137495,33,"task-284e",NA,30591537,9082638,NA,"complete",NA,NA,"computer","Desktop or Laptop","Windows 10","Chrome 114.0.0.0","1280x1024","1280x881",NA,NA,NA,"JV Task P3 (Updated)",4,"Anxious",321,"In",NA,1,"FGEHDICJBKA",NA,NA,"A (JV first)",NA,NA,"SS1","SS1",29,"J","Judginess","y8ii7g",1,"response","83",1716.098,2799.06999999995,2815.74199999997,1716.098,2799.06999999995,2815.74199999997,1,1716.098,1099.64399999997,0,NA,"Slider","J",3,"object-18","J","CFD-WM-036-031-H.jpeg",NA,"SUPTM12782"
"166",1688990075463,"10/07/2023 11:54:35",1688975675463,-4,"10/07/2023 03:54:35",137495,33,"task-284e",NA,30591537,9082638,NA,"complete",NA,NA,"computer","Desktop or Laptop","Windows 10","Chrome 114.0.0.0","1280x1024","1280x881",NA,NA,NA,"JV Task P3 (Updated)",4,"Anxious",321,"In",NA,1,"FGEHDICJBKA",NA,NA,"A (JV first)",NA,NA,"SS1","SS1",29,"J","Fixation","w9zir9",2,"continue","",966.35400000005,966.35400000005,966.35400000005,966.35400000005,966.35400000005,966.35400000005,1,966.35400000005,0,0,NA,"Fixation Timing","Fixation",1,"object-65","J","CFD-WM-036-031-H.jpeg",NA,"SUPTM12782"
"167",1688990083186,"10/07/2023 11:54:43",1688975683186,-4,"10/07/2023 03:54:43",137495,33,"task-284e",NA,30591537,9082638,NA,"complete",NA,NA,"computer","Desktop or Laptop","Windows 10","Chrome 114.0.0.0","1280x1024","1280x881",NA,NA,NA,"JV Task P3 (Updated)",4,"Anxious",321,"In",NA,1,"FGEHDICJBKA",NA,NA,"A (JV first)",NA,NA,"SS1","SS1",30,"J","Judginess","y8ii7g",1,"continue","",7722.81900004763,7714.09199999995,7722.81900004763,7722.81900004763,7714.09199999995,7722.81900004763,1,7722.81900004763,0,0,NA,"Click To Continue","Continue Button",1,"object-14","J","CFD-WM-025-002-N.jpg",NA,"SUPTM12782"
"168",1688990083192,"10/07/2023 11:54:43",1688975683192,-4,"10/07/2023 03:54:43",137495,33,"task-284e",NA,30591537,9082638,NA,"complete",NA,NA,"computer","Desktop or Laptop","Windows 10","Chrome 114.0.0.0","1280x1024","1280x881",NA,NA,NA,"JV Task P3 (Updated)",4,"Anxious",321,"In",NA,1,"FGEHDICJBKA",NA,NA,"A (JV first)",NA,NA,"SS1","SS1",30,"J","Judginess","y8ii7g",1,"response","59",6980.99799999991,7714.09199999995,7728.11899999995,6980.99799999991,7714.09199999995,7728.11899999995,1,6980.99799999991,747.121000000043,0,NA,"Slider","J",3,"object-18","J","CFD-WM-025-002-N.jpg",NA,"SUPTM12782"
