"Event.Index","UTC.Timestamp","UTC.Date.and.Time","Local.Timestamp","Local.Timezone","Local.Date.and.Time","Experiment.ID","Experiment.Version","Tree.Node.Key","Repeat.Key","Schedule.ID","Participant.Private.ID","Participant.Starting.Group","Participant.Status","Participant.Completion.Code","Participant.External.Session.ID","Participant.Device.Type","Participant.Device","Participant.OS","Participant.Browser","Participant.Monitor.Size","Participant.Viewport.Size","Checkpoint","Room.ID","Room.Order","Task.Name","Task.Version","branch.ln1a","randomiser.vzsr","branch.hkzp","randomiser.ywar","randomiser.q6ah","order.ot79","randomiser.ahe2","randomiser.ckhi","randomiser.lqqr","randomiser.pobd","randomiser.8gdj","Spreadsheet","Current.Spreadsheet","Trial.Number","Display","Screen","Screen.ID","Screen.Counter","Response.Type","Response","Onset.Time","Clock.Time","Reaction.Time","Absolute.Onset.Time","Absolute.Clock.Time","Absolute.Reaction.Time","Correct","Response.Onset","Response.Duration","Proportion","Tag","Component.Name","Object.Name","Object.Number","Object.ID","Spreadsheet..display","Manipulation..Spreadsheet","Random_ID"
"1",1688985629371,"10/07/2023 10:40:29",1688989229371,1,"10/07/2023 12:40:29",137495,33,"questionnaire-uu2n",NA,30590154,9082357,NA,"complete",NA,NA,"computer","Desktop or Laptop","Windows 10","Chrome 114.0.0.0","1366x768","1366x657",NA,NA,NA,"BIQ (Charlotte)",2,"NonAnxious",NA,"In","",NA,"BCADKEJFIGH","B","B","",NA,NA,"Spreadsheet1","Spreadsheet1",NA,"","","",NA,"5","BEGIN",NA,NA,NA,NA,NA,NA,0,NA,NA,NA,NA,"","",NA,"","",NA,"SUPTM45532"
"2",1688985953872,"10/07/2023 10:45:53",1688989553872,1,"10/07/2023 12:45:53",137495,33,"questionnaire-uu2n",NA,30590154,9082357,NA,"complete",NA,NA,"computer","Desktop or Laptop","Windows 10","Chrome 114.0.0.0","1366x768","1366x657",NA,NA,NA,"BIQ (Charlotte)",2,"NonAnxious",NA,"In","",NA,"BCADKEJFIGH","B","B","",NA,NA,"Spreadsheet1","Spreadsheet1",1,"BIQ","Screen 1","9dh6eq",1,"continue","",331329.300000072,331318.76,331329.300000072,331329.300000072,331318.76,331329.300000072,1,331329.300000072,0,0,NA,"Click To Continue","Continue Button",23,"object-48","BIQ",NA,"SUPTM45532"
"3",1688985953879,"10/07/2023 10:45:53",1688989553879,1,"10/07/2023 12:45:53",137495,33,"questionnaire-uu2n",NA,30590154,9082357,NA,"complete",NA,NA,"computer","Desktop or Laptop","Windows 10","Chrome 114.0.0.0","1366x768","1366x657",NA,NA,NA,"BIQ (Charlotte)",2,"NonAnxious",NA,"In","",NA,"BCADKEJFIGH","B","B","",NA,NA,"Spreadsheet1","Spreadsheet1",1,"BIQ","Screen 1","9dh6eq",1,"response","7",87888.235,331318.76,331335.442,87888.235,331318.76,331335.442,1,87888.235,243447.207,0,NA,"Rating Scale","Rating Scale",3,"object-5","BIQ",NA,"SUPTM45532"
"4",1688985953880,"10/07/2023 10:45:53",1688989553880,1,"10/07/2023 12:45:53",137495,33,"questionnaire-uu2n",NA,30590154,9082357,NA,"complete",NA,NA,"computer","Desktop or Laptop","Windows 10","Chrome 114.0.0.0","1366x768","1366x657",NA,NA,NA,"BIQ (Charlotte)",2,"NonAnxious",NA,"In","",NA,"BCADKEJFIGH","B","B","",NA,NA,"Spreadsheet1","Spreadsheet1",1,"BIQ","Screen 1","9dh6eq",1,"response","8",96753.401,331318.76,331335.442,96753.401,331318.76,331335.442,1,96753.401,234582.041,0,NA,"Rating Scale","Rating Scale",10,"object-18","BIQ",NA,"SUPTM45532"
"5",1688985953880,"10/07/2023 10:45:53",1688989553880,1,"10/07/2023 12:45:53",137495,33,"questionnaire-uu2n",NA,30590154,9082357,NA,"complete",NA,NA,"computer","Desktop or Laptop","Windows 10","Chrome 114.0.0.0","1366x768","1366x657",NA,NA,NA,"BIQ (Charlotte)",2,"NonAnxious",NA,"In","",NA,"BCADKEJFIGH","B","B","",NA,NA,"Spreadsheet1","Spreadsheet1",1,"BIQ","Screen 1","9dh6eq",1,"response","0",102469.217,331318.76,331335.442,102469.217,331318.76,331335.442,1,102469.217,228866.225,0,NA,"Rating Scale","Rating Scale",17,"object-80","BIQ",NA,"SUPTM45532"
"6",1688985979989,"10/07/2023 10:46:19",1688989579989,1,"10/07/2023 12:46:19",137495,33,"questionnaire-uu2n",NA,30590154,9082357,NA,"complete",NA,NA,"computer","Desktop or Laptop","Windows 10","Chrome 114.0.0.0","1366x768","1366x657",NA,NA,NA,"BIQ (Charlotte)",2,"NonAnxious",NA,"In","",NA,"BCADKEJFIGH","B","B","",NA,NA,"Spreadsheet1","Spreadsheet1",1,"BIQ","Screen 2","o21mwi",2,"continue","",26139.4400000477,26129.728,26139.4400000477,26139.4400000477,26129.728,26139.4400000477,1,26139.4400000477,0,0,NA,"Click To Continue","Continue Button",22,"object-50","BIQ",NA,"SUPTM45532"
"7",1688985979997,"10/07/2023 10:46:19",1688989579997,1,"10/07/2023 12:46:19",137495,33,"questionnaire-uu2n",NA,30590154,9082357,NA,"complete",NA,NA,"computer","Desktop or Laptop","Windows 10","Chrome 114.0.0.0","1366x768","1366x657",NA,NA,NA,"BIQ (Charlotte)",2,"NonAnxious",NA,"In","",NA,"BCADKEJFIGH","B","B","",NA,NA,"Spreadsheet1","Spreadsheet1",1,"BIQ","Screen 2","o21mwi",2,"response","2",18114.061,26129.728,26145.5400000715,18114.061,26129.728,26145.5400000715,1,18114.061,8031.47900007153,0,NA,"Rating Scale","Rating Scale",2,"object-259","BIQ",NA,"SUPTM45532"
"8",1688985979999,"10/07/2023 10:46:19",1688989579999,1,"10/07/2023 12:46:19",137495,33,"questionnaire-uu2n",NA,30590154,9082357,NA,"complete",NA,NA,"computer","Desktop or Laptop","Windows 10","Chrome 114.0.0.0","1366x768","1366x657",NA,NA,NA,"BIQ (Charlotte)",2,"NonAnxious",NA,"In","",NA,"BCADKEJFIGH","B","B","",NA,NA,"Spreadsheet1","Spreadsheet1",1,"BIQ","Screen 2","o21mwi",2,"response","1",23163.345,26129.728,26146.498,23163.345,26129.728,26146.498,1,23163.345,2983.15300000005,0,NA,"Rating Scale","Rating Scale",9,"object-36","BIQ",NA,"SUPTM45532"
"9",1688985980001,"10/07/2023 10:46:20",1688989580001,1,"10/07/2023 12:46:20",137495,33,"questionnaire-uu2n",NA,30590154,9082357,NA,"complete",NA,NA,"computer","Desktop or Laptop","Windows 10","Chrome 114.0.0.0","1366x768","1366x657",NA,NA,NA,"BIQ (Charlotte)",2,"NonAnxious",NA,"In","",NA,"BCADKEJFIGH","B","B","",NA,NA,"Spreadsheet1","Spreadsheet1",1,"BIQ","Screen 2","o21mwi",2,"response","3",25012.99,26129.728,26146.498,25012.99,26129.728,26146.498,1,25012.99,1133.50800000003,0,NA,"Rating Scale","Rating Scale",16,"object-86","BIQ",NA,"SUPTM45532"
"10",1688985996307,"10/07/2023 10:46:36",1688989596307,1,"10/07/2023 12:46:36",137495,33,"questionnaire-uu2n",NA,30590154,9082357,NA,"complete",NA,NA,"computer","Desktop or Laptop","Windows 10","Chrome 114.0.0.0","1366x768","1366x657",NA,NA,NA,"BIQ (Charlotte)",2,"NonAnxious",NA,"In","",NA,"BCADKEJFIGH","B","B","",NA,NA,"Spreadsheet1","Spreadsheet1",1,"BIQ","Screen 3","iz3the",3,"continue","",16327.9119999761,16314.039,16327.9119999761,16327.9119999761,16314.039,16327.9119999761,1,16327.9119999761,0,0,NA,"Click To Continue","Continue Button",22,"object-73","BIQ",NA,"SUPTM45532"
"11",1688985996313,"10/07/2023 10:46:36",1688989596313,1,"10/07/2023 12:46:36",137495,33,"questionnaire-uu2n",NA,30590154,9082357,NA,"complete",NA,NA,"computer","Desktop or Laptop","Windows 10","Chrome 114.0.0.0","1366x768","1366x657",NA,NA,NA,"BIQ (Charlotte)",2,"NonAnxious",NA,"In","",NA,"BCADKEJFIGH","B","B","",NA,NA,"Spreadsheet1","Spreadsheet1",1,"BIQ","Screen 3","iz3the",3,"response","1",3949.24400000001,16314.039,16330.673,3949.24400000001,16314.039,16330.673,1,3949.24400000001,12381.429,0,NA,"Rating Scale","Rating Scale",2,"object-53","BIQ",NA,"SUPTM45532"
"12",1688985996314,"10/07/2023 10:46:36",1688989596314,1,"10/07/2023 12:46:36",137495,33,"questionnaire-uu2n",NA,30590154,9082357,NA,"complete",NA,NA,"computer","Desktop or Laptop","Windows 10","Chrome 114.0.0.0","1366x768","1366x657",NA,NA,NA,"BIQ (Charlotte)",2,"NonAnxious",NA,"In","",NA,"BCADKEJFIGH","B","B","",NA,NA,"Spreadsheet1","Spreadsheet1",1,"BIQ","Screen 3","iz3the",3,"response","1",13164.502,16314.039,16330.673,13164.502,16314.039,16330.673,1,13164.502,3166.17100000003,0,NA,"Rating Scale","Rating Scale",9,"object-60","BIQ",NA,"SUPTM45532"
"13",1688985996315,"10/07/2023 10:46:36",1688989596315,1,"10/07/2023 12:46:36",137495,33,"questionnaire-uu2n",NA,30590154,9082357,NA,"complete",NA,NA,"computer","Desktop or Laptop","Windows 10","Chrome 114.0.0.0","1366x768","1366x657",NA,NA,NA,"BIQ (Charlotte)",2,"NonAnxious",NA,"In","",NA,"BCADKEJFIGH","B","B","",NA,NA,"Spreadsheet1","Spreadsheet1",1,"BIQ","Screen 3","iz3the",3,"response","1",15164.238,16314.039,16330.673,15164.238,16314.039,16330.673,1,15164.238,1166.435,0,NA,"Rating Scale","Rating Scale",16,"object-67","BIQ",NA,"SUPTM45532"
"14",1688985996321,"10/07/2023 10:46:36",1688989596321,1,"10/07/2023 12:46:36",137495,33,"questionnaire-uu2n",NA,30590154,9082357,NA,"complete",NA,NA,"computer","Desktop or Laptop","Windows 10","Chrome 114.0.0.0","1366x768","1366x657",NA,NA,NA,"BIQ (Charlotte)",2,"NonAnxious",NA,"In","",NA,"BCADKEJFIGH","B","B","",NA,NA,"Spreadsheet1","Spreadsheet1",NA,"","","",NA,"5","END",NA,NA,NA,NA,NA,NA,0,NA,NA,NA,NA,"","",NA,"","",NA,"SUPTM45532"
"1",1688986857786,"10/07/2023 11:00:57",1688972457786,-4,"10/07/2023 03:00:57",137495,33,"questionnaire-uu2n",NA,30590655,9082545,NA,"complete",NA,NA,"computer","Desktop or Laptop","Windows 10","Chrome 113.0.0.0","1920x1080","1920x969",NA,NA,NA,"BIQ (Charlotte)",2,"Anxious",NA,"In","",NA,"EFDGCHBIAJK","","","B (MDot First)",1,123,"Spreadsheet1","Spreadsheet1",NA,"","","",NA,"5","BEGIN",NA,NA,NA,NA,NA,NA,0,NA,NA,NA,NA,"","",NA,"","",NA,"SUPTM14738"
"2",1688986900015,"10/07/2023 11:01:40",1688972500015,-4,"10/07/2023 03:01:40",137495,33,"questionnaire-uu2n",NA,30590655,9082545,NA,"complete",NA,NA,"computer","Desktop or Laptop","Windows 10","Chrome 113.0.0.0","1920x1080","1920x969",NA,NA,NA,"BIQ (Charlotte)",2,"Anxious",NA,"In","",NA,"EFDGCHBIAJK","","","B (MDot First)",1,123,"Spreadsheet1","Spreadsheet1",1,"BIQ","Screen 1","9dh6eq",1,"continue","",48099.211,48082.52,48099.211,48099.211,48082.52,48099.211,1,48099.211,0,0,NA,"Click To Continue","Continue Button",23,"object-48","BIQ",NA,"SUPTM14738"
"3",1688986900017,"10/07/2023 11:01:40",1688972500017,-4,"10/07/2023 03:01:40",137495,33,"questionnaire-uu2n",NA,30590655,9082545,NA,"complete",NA,NA,"computer","Desktop or Laptop","Windows 10","Chrome 113.0.0.0","1920x1080","1920x969",NA,NA,NA,"BIQ (Charlotte)",2,"Anxious",NA,"In","",NA,"EFDGCHBIAJK","","","B (MDot First)",1,123,"Spreadsheet1","Spreadsheet1",1,"BIQ","Screen 1","9dh6eq",1,"response","5",26025.721,48082.52,48099.211,26025.721,48082.52,48099.211,1,26025.721,22073.49,0,NA,"Rating Scale","Rating Scale",3,"object-5","BIQ",NA,"SUPTM14738"
"4",1688986900018,"10/07/2023 11:01:40",1688972500018,-4,"10/07/2023 03:01:40",137495,33,"questionnaire-uu2n",NA,30590655,9082545,NA,"complete",NA,NA,"computer","Desktop or Laptop","Windows 10","Chrome 113.0.0.0","1920x1080","1920x969",NA,NA,NA,"BIQ (Charlotte)",2,"Anxious",NA,"In","",NA,"EFDGCHBIAJK","","","B (MDot First)",1,123,"Spreadsheet1","Spreadsheet1",1,"BIQ","Screen 1","9dh6eq",1,"response","4",40663.563,48082.52,48099.211,40663.563,48082.52,48099.211,1,40663.563,7435.64799999999,0,NA,"Rating Scale","Rating Scale",10,"object-18","BIQ",NA,"SUPTM14738"
"5",1688986900019,"10/07/2023 11:01:40",1688972500019,-4,"10/07/2023 03:01:40",137495,33,"questionnaire-uu2n",NA,30590655,9082545,NA,"complete",NA,NA,"computer","Desktop or Laptop","Windows 10","Chrome 113.0.0.0","1920x1080","1920x969",NA,NA,NA,"BIQ (Charlotte)",2,"Anxious",NA,"In","",NA,"EFDGCHBIAJK","","","B (MDot First)",1,123,"Spreadsheet1","Spreadsheet1",1,"BIQ","Screen 1","9dh6eq",1,"response","6",45181.623,48082.52,48099.211,45181.623,48082.52,48099.211,1,45181.623,2917.588,0,NA,"Rating Scale","Rating Scale",17,"object-80","BIQ",NA,"SUPTM14738"
"6",1688986918918,"10/07/2023 11:01:58",1688972518918,-4,"10/07/2023 03:01:58",137495,33,"questionnaire-uu2n",NA,30590655,9082545,NA,"complete",NA,NA,"computer","Desktop or Laptop","Windows 10","Chrome 113.0.0.0","1920x1080","1920x969",NA,NA,NA,"BIQ (Charlotte)",2,"Anxious",NA,"In","",NA,"EFDGCHBIAJK","","","B (MDot First)",1,123,"Spreadsheet1","Spreadsheet1",1,"BIQ","Screen 2","o21mwi",2,"continue","",18931.0800000015,18922.432,18931.0800000015,18931.0800000015,18922.432,18931.0800000015,1,18931.0800000015,0,0,NA,"Click To Continue","Continue Button",22,"object-50","BIQ",NA,"SUPTM14738"
"7",1688986918920,"10/07/2023 11:01:58",1688972518920,-4,"10/07/2023 03:01:58",137495,33,"questionnaire-uu2n",NA,30590655,9082545,NA,"complete",NA,NA,"computer","Desktop or Laptop","Windows 10","Chrome 113.0.0.0","1920x1080","1920x969",NA,NA,NA,"BIQ (Charlotte)",2,"Anxious",NA,"In","",NA,"EFDGCHBIAJK","","","B (MDot First)",1,123,"Spreadsheet1","Spreadsheet1",1,"BIQ","Screen 2","o21mwi",2,"response","6",5401.649,18922.432,18933.180000003,5401.649,18922.432,18933.180000003,1,5401.649,13531.531000003,0,NA,"Rating Scale","Rating Scale",2,"object-259","BIQ",NA,"SUPTM14738"
"8",1688986918921,"10/07/2023 11:01:58",1688972518921,-4,"10/07/2023 03:01:58",137495,33,"questionnaire-uu2n",NA,30590655,9082545,NA,"complete",NA,NA,"computer","Desktop or Laptop","Windows 10","Chrome 113.0.0.0","1920x1080","1920x969",NA,NA,NA,"BIQ (Charlotte)",2,"Anxious",NA,"In","",NA,"EFDGCHBIAJK","","","B (MDot First)",1,123,"Spreadsheet1","Spreadsheet1",1,"BIQ","Screen 2","o21mwi",2,"response","4",9586.258,18922.432,18933.7800000045,9586.258,18922.432,18933.7800000045,1,9586.258,9347.52200000447,0,NA,"Rating Scale","Rating Scale",9,"object-36","BIQ",NA,"SUPTM14738"
"9",1688986918921,"10/07/2023 11:01:58",1688972518921,-4,"10/07/2023 03:01:58",137495,33,"questionnaire-uu2n",NA,30590655,9082545,NA,"complete",NA,NA,"computer","Desktop or Laptop","Windows 10","Chrome 113.0.0.0","1920x1080","1920x969",NA,NA,NA,"BIQ (Charlotte)",2,"Anxious",NA,"In","",NA,"EFDGCHBIAJK","","","B (MDot First)",1,123,"Spreadsheet1","Spreadsheet1",1,"BIQ","Screen 2","o21mwi",2,"response","4",16805.144,18922.432,18934.680000003,16805.144,18922.432,18934.680000003,1,16805.144,2129.53600000298,0,NA,"Rating Scale","Rating Scale",16,"object-86","BIQ",NA,"SUPTM14738"
"10",1688986949012,"10/07/2023 11:02:29",1688972549012,-4,"10/07/2023 03:02:29",137495,33,"questionnaire-uu2n",NA,30590655,9082545,NA,"complete",NA,NA,"computer","Desktop or Laptop","Windows 10","Chrome 113.0.0.0","1920x1080","1920x969",NA,NA,NA,"BIQ (Charlotte)",2,"Anxious",NA,"In","",NA,"EFDGCHBIAJK","","","B (MDot First)",1,123,"Spreadsheet1","Spreadsheet1",1,"BIQ","Screen 3","iz3the",3,"continue","",30103.248000003,30092.58,30103.248000003,30103.248000003,30092.58,30103.248000003,1,30103.248000003,0,0,NA,"Click To Continue","Continue Button",22,"object-73","BIQ",NA,"SUPTM14738"
"11",1688986949015,"10/07/2023 11:02:29",1688972549015,-4,"10/07/2023 03:02:29",137495,33,"questionnaire-uu2n",NA,30590655,9082545,NA,"complete",NA,NA,"computer","Desktop or Laptop","Windows 10","Chrome 113.0.0.0","1920x1080","1920x969",NA,NA,NA,"BIQ (Charlotte)",2,"Anxious",NA,"In","",NA,"EFDGCHBIAJK","","","B (MDot First)",1,123,"Spreadsheet1","Spreadsheet1",1,"BIQ","Screen 3","iz3the",3,"response","2",14987.935,30092.58,30105.6480000015,14987.935,30092.58,30105.6480000015,1,14987.935,15117.7130000015,0,NA,"Rating Scale","Rating Scale",2,"object-53","BIQ",NA,"SUPTM14738"
"12",1688986949016,"10/07/2023 11:02:29",1688972549016,-4,"10/07/2023 03:02:29",137495,33,"questionnaire-uu2n",NA,30590655,9082545,NA,"complete",NA,NA,"computer","Desktop or Laptop","Windows 10","Chrome 113.0.0.0","1920x1080","1920x969",NA,NA,NA,"BIQ (Charlotte)",2,"Anxious",NA,"In","",NA,"EFDGCHBIAJK","","","B (MDot First)",1,123,"Spreadsheet1","Spreadsheet1",1,"BIQ","Screen 3","iz3the",3,"response","5",23907.36,30092.58,30106.6480000015,23907.36,30092.58,30106.6480000015,1,23907.36,6199.28800000148,0,NA,"Rating Scale","Rating Scale",9,"object-60","BIQ",NA,"SUPTM14738"
"13",1688986949018,"10/07/2023 11:02:29",1688972549018,-4,"10/07/2023 03:02:29",137495,33,"questionnaire-uu2n",NA,30590655,9082545,NA,"complete",NA,NA,"computer","Desktop or Laptop","Windows 10","Chrome 113.0.0.0","1920x1080","1920x969",NA,NA,NA,"BIQ (Charlotte)",2,"Anxious",NA,"In","",NA,"EFDGCHBIAJK","","","B (MDot First)",1,123,"Spreadsheet1","Spreadsheet1",1,"BIQ","Screen 3","iz3the",3,"response","5",28842.196,30092.58,30108.748000003,28842.196,30092.58,30108.748000003,1,28842.196,1266.55200000298,0,NA,"Rating Scale","Rating Scale",16,"object-67","BIQ",NA,"SUPTM14738"
"14",1688986949023,"10/07/2023 11:02:29",1688972549023,-4,"10/07/2023 03:02:29",137495,33,"questionnaire-uu2n",NA,30590655,9082545,NA,"complete",NA,NA,"computer","Desktop or Laptop","Windows 10","Chrome 113.0.0.0","1920x1080","1920x969",NA,NA,NA,"BIQ (Charlotte)",2,"Anxious",NA,"In","",NA,"EFDGCHBIAJK","","","B (MDot First)",1,123,"Spreadsheet1","Spreadsheet1",NA,"","","",NA,"5","END",NA,NA,NA,NA,NA,NA,0,NA,NA,NA,NA,"","",NA,"","",NA,"SUPTM14738"
"1",1688987679654,"10/07/2023 11:14:39",1688973279654,-4,"10/07/2023 03:14:39",137495,33,"questionnaire-uu2n",NA,30590968,9082638,NA,"complete",NA,NA,"computer","Desktop or Laptop","Windows 10","Chrome 114.0.0.0","1280x1024","1280x881",NA,NA,NA,"BIQ (Charlotte)",2,"Anxious",321,"In","",1,"FGEHDICJBKA","","","A (JV first)",NA,NA,"Spreadsheet1","Spreadsheet1",NA,"","","",NA,"5","BEGIN",NA,NA,NA,NA,NA,NA,0,NA,NA,NA,NA,"","",NA,"","",NA,"SUPTM12782"
"2",1688987722567,"10/07/2023 11:15:22",1688973322567,-4,"10/07/2023 03:15:22",137495,33,"questionnaire-uu2n",NA,30590968,9082638,NA,"complete",NA,NA,"computer","Desktop or Laptop","Windows 10","Chrome 114.0.0.0","1280x1024","1280x881",NA,NA,NA,"BIQ (Charlotte)",2,"Anxious",321,"In","",1,"FGEHDICJBKA","","","A (JV first)",NA,NA,"Spreadsheet1","Spreadsheet1",1,"BIQ","Screen 1","9dh6eq",1,"continue","",42919.118,42902.471,42919.118,42919.118,42902.471,42919.118,1,42919.118,0,0,NA,"Click To Continue","Continue Button",23,"object-48","BIQ",NA,"SUPTM12782"
"3",1688987722573,"10/07/2023 11:15:22",1688973322573,-4,"10/07/2023 03:15:22",137495,33,"questionnaire-uu2n",NA,30590968,9082638,NA,"complete",NA,NA,"computer","Desktop or Laptop","Windows 10","Chrome 114.0.0.0","1280x1024","1280x881",NA,NA,NA,"BIQ (Charlotte)",2,"Anxious",321,"In","",1,"FGEHDICJBKA","","","A (JV first)",NA,NA,"Spreadsheet1","Spreadsheet1",1,"BIQ","Screen 1","9dh6eq",1,"response","4",21909.478,42902.471,42919.118,21909.478,42902.471,42919.118,1,21909.478,21009.64,0,NA,"Rating Scale","Rating Scale",3,"object-5","BIQ",NA,"SUPTM12782"
"4",1688987722574,"10/07/2023 11:15:22",1688973322574,-4,"10/07/2023 03:15:22",137495,33,"questionnaire-uu2n",NA,30590968,9082638,NA,"complete",NA,NA,"computer","Desktop or Laptop","Windows 10","Chrome 114.0.0.0","1280x1024","1280x881",NA,NA,NA,"BIQ (Charlotte)",2,"Anxious",321,"In","",1,"FGEHDICJBKA","","","A (JV first)",NA,NA,"Spreadsheet1","Spreadsheet1",1,"BIQ","Screen 1","9dh6eq",1,"response","4",34905.134,42902.471,42919.118,34905.134,42902.471,42919.118,1,34905.134,8013.984,0,NA,"Rating Scale","Rating Scale",10,"object-18","BIQ",NA,"SUPTM12782"
"5",1688987722575,"10/07/2023 11:15:22",1688973322575,-4,"10/07/2023 03:15:22",137495,33,"questionnaire-uu2n",NA,30590968,9082638,NA,"complete",NA,NA,"computer","Desktop or Laptop","Windows 10","Chrome 114.0.0.0","1280x1024","1280x881",NA,NA,NA,"BIQ (Charlotte)",2,"Anxious",321,"In","",1,"FGEHDICJBKA","","","A (JV first)",NA,NA,"Spreadsheet1","Spreadsheet1",1,"BIQ","Screen 1","9dh6eq",1,"response","2",42102.653,42902.471,42919.118,42102.653,42902.471,42919.118,1,42102.653,816.464999999997,0,NA,"Rating Scale","Rating Scale",17,"object-80","BIQ",NA,"SUPTM12782"
"6",1688987791981,"10/07/2023 11:16:31",1688973391981,-4,"10/07/2023 03:16:31",137495,33,"questionnaire-uu2n",NA,30590968,9082638,NA,"complete",NA,NA,"computer","Desktop or Laptop","Windows 10","Chrome 114.0.0.0","1280x1024","1280x881",NA,NA,NA,"BIQ (Charlotte)",2,"Anxious",321,"In","",1,"FGEHDICJBKA","","","A (JV first)",NA,NA,"Spreadsheet1","Spreadsheet1",1,"BIQ","Screen 2","o21mwi",2,"continue","",69450.002,69443.522,69450.002,69450.002,69443.522,69450.002,1,69450.002,0,0,NA,"Click To Continue","Continue Button",22,"object-50","BIQ",NA,"SUPTM12782"
"7",1688987791988,"10/07/2023 11:16:31",1688973391988,-4,"10/07/2023 03:16:31",137495,33,"questionnaire-uu2n",NA,30590968,9082638,NA,"complete",NA,NA,"computer","Desktop or Laptop","Windows 10","Chrome 114.0.0.0","1280x1024","1280x881",NA,NA,NA,"BIQ (Charlotte)",2,"Anxious",321,"In","",1,"FGEHDICJBKA","","","A (JV first)",NA,NA,"Spreadsheet1","Spreadsheet1",1,"BIQ","Screen 2","o21mwi",2,"response","4",50616.462,69443.522,69457.502,50616.462,69443.522,69457.502,1,50616.462,18841.04,0,NA,"Rating Scale","Rating Scale",2,"object-259","BIQ",NA,"SUPTM12782"
"8",1688987791990,"10/07/2023 11:16:31",1688973391990,-4,"10/07/2023 03:16:31",137495,33,"questionnaire-uu2n",NA,30590968,9082638,NA,"complete",NA,NA,"computer","Desktop or Laptop","Windows 10","Chrome 114.0.0.0","1280x1024","1280x881",NA,NA,NA,"BIQ (Charlotte)",2,"Anxious",321,"In","",1,"FGEHDICJBKA","","","A (JV first)",NA,NA,"Spreadsheet1","Spreadsheet1",1,"BIQ","Screen 2","o21mwi",2,"response","4",60629.79,69443.522,69459.002,60629.79,69443.522,69459.002,1,60629.79,8829.21200000001,0,NA,"Rating Scale","Rating Scale",9,"object-36","BIQ",NA,"SUPTM12782"
"9",1688987791992,"10/07/2023 11:16:31",1688973391992,-4,"10/07/2023 03:16:31",137495,33,"questionnaire-uu2n",NA,30590968,9082638,NA,"complete",NA,NA,"computer","Desktop or Laptop","Windows 10","Chrome 114.0.0.0","1280x1024","1280x881",NA,NA,NA,"BIQ (Charlotte)",2,"Anxious",321,"In","",1,"FGEHDICJBKA","","","A (JV first)",NA,NA,"Spreadsheet1","Spreadsheet1",1,"BIQ","Screen 2","o21mwi",2,"response","6",68493.884,69443.522,69460.204,68493.884,69443.522,69460.204,1,68493.884,966.319999999978,0,NA,"Rating Scale","Rating Scale",16,"object-86","BIQ",NA,"SUPTM12782"
"10",1688987843084,"10/07/2023 11:17:23",1688973443084,-4,"10/07/2023 03:17:23",137495,33,"questionnaire-uu2n",NA,30590968,9082638,NA,"complete",NA,NA,"computer","Desktop or Laptop","Windows 10","Chrome 114.0.0.0","1280x1024","1280x881",NA,NA,NA,"BIQ (Charlotte)",2,"Anxious",321,"In","",1,"FGEHDICJBKA","","","A (JV first)",NA,NA,"Spreadsheet1","Spreadsheet1",1,"BIQ","Screen 3","iz3the",3,"continue","",51109.6800000477,51099.63,51109.6800000477,51109.6800000477,51099.63,51109.6800000477,1,51109.6800000477,0,0,NA,"Click To Continue","Continue Button",22,"object-73","BIQ",NA,"SUPTM12782"
"11",1688987843092,"10/07/2023 11:17:23",1688973443092,-4,"10/07/2023 03:17:23",137495,33,"questionnaire-uu2n",NA,30590968,9082638,NA,"complete",NA,NA,"computer","Desktop or Laptop","Windows 10","Chrome 114.0.0.0","1280x1024","1280x881",NA,NA,NA,"BIQ (Charlotte)",2,"Anxious",321,"In","",1,"FGEHDICJBKA","","","A (JV first)",NA,NA,"Spreadsheet1","Spreadsheet1",1,"BIQ","Screen 3","iz3the",3,"response","6",39786.724,51099.63,51116.238,39786.724,51099.63,51116.238,1,39786.724,11329.514,0,NA,"Rating Scale","Rating Scale",2,"object-53","BIQ",NA,"SUPTM12782"
"12",1688987843094,"10/07/2023 11:17:23",1688973443094,-4,"10/07/2023 03:17:23",137495,33,"questionnaire-uu2n",NA,30590968,9082638,NA,"complete",NA,NA,"computer","Desktop or Laptop","Windows 10","Chrome 114.0.0.0","1280x1024","1280x881",NA,NA,NA,"BIQ (Charlotte)",2,"Anxious",321,"In","",1,"FGEHDICJBKA","","","A (JV first)",NA,NA,"Spreadsheet1","Spreadsheet1",1,"BIQ","Screen 3","iz3the",3,"response","2",45984.602,51099.63,51116.238,45984.602,51099.63,51116.238,1,45984.602,5131.636,0,NA,"Rating Scale","Rating Scale",9,"object-60","BIQ",NA,"SUPTM12782"
"13",1688987843095,"10/07/2023 11:17:23",1688973443095,-4,"10/07/2023 03:17:23",137495,33,"questionnaire-uu2n",NA,30590968,9082638,NA,"complete",NA,NA,"computer","Desktop or Laptop","Windows 10","Chrome 114.0.0.0","1280x1024","1280x881",NA,NA,NA,"BIQ (Charlotte)",2,"Anxious",321,"In","",1,"FGEHDICJBKA","","","A (JV first)",NA,NA,"Spreadsheet1","Spreadsheet1",1,"BIQ","Screen 3","iz3the",3,"response","4",50449.856,51099.63,51116.238,50449.856,51099.63,51116.238,1,50449.856,666.382000000012,0,NA,"Rating Scale","Rating Scale",16,"object-67","BIQ",NA,"SUPTM12782"
"14",1688987843109,"10/07/2023 11:17:23",1688973443109,-4,"10/07/2023 03:17:23",137495,33,"questionnaire-uu2n",NA,30590968,9082638,NA,"complete",NA,NA,"computer","Desktop or Laptop","Windows 10","Chrome 114.0.0.0","1280x1024","1280x881",NA,NA,NA,"BIQ (Charlotte)",2,"Anxious",321,"In","",1,"FGEHDICJBKA","","","A (JV first)",NA,NA,"Spreadsheet1","Spreadsheet1",NA,"","","",NA,"5","END",NA,NA,NA,NA,NA,NA,0,NA,NA,NA,NA,"","",NA,"","",NA,"SUPTM12782"
"1",1688993226373,"10/07/2023 12:47:06",1688978826373,-4,"10/07/2023 04:47:06",137495,33,"questionnaire-uu2n",NA,30593407,9083342,NA,"complete",NA,NA,"computer","Desktop or Laptop","Windows 10","Chrome 114.0.0.0","1920x1080","1920x927",NA,NA,NA,"BIQ (Charlotte)",2,"NonAnxious",NA,"In","",NA,"HIGJFKEADBC","B","B","",NA,NA,"Spreadsheet1","Spreadsheet1",NA,"","","",NA,"5","BEGIN",NA,NA,NA,NA,NA,NA,0,NA,NA,NA,NA,"","",NA,"","",NA,"SUPTM14619"
"2",1688993297833,"10/07/2023 12:48:17",1688978897833,-4,"10/07/2023 04:48:17",137495,33,"questionnaire-uu2n",NA,30593407,9083342,NA,"complete",NA,NA,"computer","Desktop or Laptop","Windows 10","Chrome 114.0.0.0","1920x1080","1920x927",NA,NA,NA,"BIQ (Charlotte)",2,"NonAnxious",NA,"In","",NA,"HIGJFKEADBC","B","B","",NA,NA,"Spreadsheet1","Spreadsheet1",1,"BIQ","Screen 1","9dh6eq",1,"continue","",91483.5,91468.493,91483.5,91483.5,91468.493,91483.5,1,91483.5,0,0,NA,"Click To Continue","Continue Button",23,"object-48","BIQ",NA,"SUPTM14619"
"3",1688993297835,"10/07/2023 12:48:17",1688978897835,-4,"10/07/2023 04:48:17",137495,33,"questionnaire-uu2n",NA,30593407,9083342,NA,"complete",NA,NA,"computer","Desktop or Laptop","Windows 10","Chrome 114.0.0.0","1920x1080","1920x927",NA,NA,NA,"BIQ (Charlotte)",2,"NonAnxious",NA,"In","",NA,"HIGJFKEADBC","B","B","",NA,NA,"Spreadsheet1","Spreadsheet1",1,"BIQ","Screen 1","9dh6eq",1,"response","8",60850.527,91468.493,91485.222,60850.527,91468.493,91485.222,1,60850.527,30634.695,0,NA,"Rating Scale","Rating Scale",3,"object-5","BIQ",NA,"SUPTM14619"
"4",1688993297835,"10/07/2023 12:48:17",1688978897835,-4,"10/07/2023 04:48:17",137495,33,"questionnaire-uu2n",NA,30593407,9083342,NA,"complete",NA,NA,"computer","Desktop or Laptop","Windows 10","Chrome 114.0.0.0","1920x1080","1920x927",NA,NA,NA,"BIQ (Charlotte)",2,"NonAnxious",NA,"In","",NA,"HIGJFKEADBC","B","B","",NA,NA,"Spreadsheet1","Spreadsheet1",1,"BIQ","Screen 1","9dh6eq",1,"response","2",82218.061,91468.493,91485.222,82218.061,91468.493,91485.222,1,82218.061,9267.16100000001,0,NA,"Rating Scale","Rating Scale",10,"object-18","BIQ",NA,"SUPTM14619"
"5",1688993297835,"10/07/2023 12:48:17",1688978897835,-4,"10/07/2023 04:48:17",137495,33,"questionnaire-uu2n",NA,30593407,9083342,NA,"complete",NA,NA,"computer","Desktop or Laptop","Windows 10","Chrome 114.0.0.0","1920x1080","1920x927",NA,NA,NA,"BIQ (Charlotte)",2,"NonAnxious",NA,"In","",NA,"HIGJFKEADBC","B","B","",NA,NA,"Spreadsheet1","Spreadsheet1",1,"BIQ","Screen 1","9dh6eq",1,"response","0",87601.635,91468.493,91485.222,87601.635,91468.493,91485.222,1,87601.635,3883.58700000001,0,NA,"Rating Scale","Rating Scale",17,"object-80","BIQ",NA,"SUPTM14619"
"6",1688993331012,"10/07/2023 12:48:51",1688978931012,-4,"10/07/2023 04:48:51",137495,33,"questionnaire-uu2n",NA,30593407,9083342,NA,"complete",NA,NA,"computer","Desktop or Laptop","Windows 10","Chrome 114.0.0.0","1920x1080","1920x927",NA,NA,NA,"BIQ (Charlotte)",2,"NonAnxious",NA,"In","",NA,"HIGJFKEADBC","B","B","",NA,NA,"Spreadsheet1","Spreadsheet1",1,"BIQ","Screen 2","o21mwi",2,"continue","",33197.507,33184.756,33197.507,33197.507,33184.756,33197.507,1,33197.507,0,0,NA,"Click To Continue","Continue Button",22,"object-50","BIQ",NA,"SUPTM14619"
"7",1688993331014,"10/07/2023 12:48:51",1688978931014,-4,"10/07/2023 04:48:51",137495,33,"questionnaire-uu2n",NA,30593407,9083342,NA,"complete",NA,NA,"computer","Desktop or Laptop","Windows 10","Chrome 114.0.0.0","1920x1080","1920x927",NA,NA,NA,"BIQ (Charlotte)",2,"NonAnxious",NA,"In","",NA,"HIGJFKEADBC","B","B","",NA,NA,"Spreadsheet1","Spreadsheet1",1,"BIQ","Screen 2","o21mwi",2,"response","8",7700.30899999999,33184.756,33199.2069999993,7700.30899999999,33184.756,33199.2069999993,1,7700.30899999999,25498.8979999993,0,NA,"Rating Scale","Rating Scale",2,"object-259","BIQ",NA,"SUPTM14619"
"8",1688993331014,"10/07/2023 12:48:51",1688978931014,-4,"10/07/2023 04:48:51",137495,33,"questionnaire-uu2n",NA,30593407,9083342,NA,"complete",NA,NA,"computer","Desktop or Laptop","Windows 10","Chrome 114.0.0.0","1920x1080","1920x927",NA,NA,NA,"BIQ (Charlotte)",2,"NonAnxious",NA,"In","",NA,"HIGJFKEADBC","B","B","",NA,NA,"Spreadsheet1","Spreadsheet1",1,"BIQ","Screen 2","o21mwi",2,"response","0",15667.383,33184.756,33199.507,15667.383,33184.756,33199.507,1,15667.383,17532.124,0,NA,"Rating Scale","Rating Scale",9,"object-36","BIQ",NA,"SUPTM14619"
"9",1688993331015,"10/07/2023 12:48:51",1688978931015,-4,"10/07/2023 04:48:51",137495,33,"questionnaire-uu2n",NA,30593407,9083342,NA,"complete",NA,NA,"computer","Desktop or Laptop","Windows 10","Chrome 114.0.0.0","1920x1080","1920x927",NA,NA,NA,"BIQ (Charlotte)",2,"NonAnxious",NA,"In","",NA,"HIGJFKEADBC","B","B","",NA,NA,"Spreadsheet1","Spreadsheet1",1,"BIQ","Screen 2","o21mwi",2,"response","2",32134.706,33184.756,33199.7069999993,32134.706,33184.756,33199.7069999993,1,32134.706,1065.00099999926,0,NA,"Rating Scale","Rating Scale",16,"object-86","BIQ",NA,"SUPTM14619"
"10",1688993356278,"10/07/2023 12:49:16",1688978956278,-4,"10/07/2023 04:49:16",137495,33,"questionnaire-uu2n",NA,30593407,9083342,NA,"complete",NA,NA,"computer","Desktop or Laptop","Windows 10","Chrome 114.0.0.0","1920x1080","1920x927",NA,NA,NA,"BIQ (Charlotte)",2,"NonAnxious",NA,"In","",NA,"HIGJFKEADBC","B","B","",NA,NA,"Spreadsheet1","Spreadsheet1",1,"BIQ","Screen 3","iz3the",3,"continue","",25278.751,25267.686,25278.751,25278.751,25267.686,25278.751,1,25278.751,0,0,NA,"Click To Continue","Continue Button",22,"object-73","BIQ",NA,"SUPTM14619"
"11",1688993356280,"10/07/2023 12:49:16",1688978956280,-4,"10/07/2023 04:49:16",137495,33,"questionnaire-uu2n",NA,30593407,9083342,NA,"complete",NA,NA,"computer","Desktop or Laptop","Windows 10","Chrome 114.0.0.0","1920x1080","1920x927",NA,NA,NA,"BIQ (Charlotte)",2,"NonAnxious",NA,"In","",NA,"HIGJFKEADBC","B","B","",NA,NA,"Spreadsheet1","Spreadsheet1",1,"BIQ","Screen 3","iz3the",3,"response","0",6766.952,25267.686,25280.1509999985,6766.952,25267.686,25280.1509999985,1,6766.952,18513.1989999985,0,NA,"Rating Scale","Rating Scale",2,"object-53","BIQ",NA,"SUPTM14619"
"12",1688993356280,"10/07/2023 12:49:16",1688978956280,-4,"10/07/2023 04:49:16",137495,33,"questionnaire-uu2n",NA,30593407,9083342,NA,"complete",NA,NA,"computer","Desktop or Laptop","Windows 10","Chrome 114.0.0.0","1920x1080","1920x927",NA,NA,NA,"BIQ (Charlotte)",2,"NonAnxious",NA,"In","",NA,"HIGJFKEADBC","B","B","",NA,NA,"Spreadsheet1","Spreadsheet1",1,"BIQ","Screen 3","iz3the",3,"response","4",16083.972,25267.686,25280.4509999993,16083.972,25267.686,25280.4509999993,1,16083.972,9196.47899999926,0,NA,"Rating Scale","Rating Scale",9,"object-60","BIQ",NA,"SUPTM14619"
"13",1688993356280,"10/07/2023 12:49:16",1688978956280,-4,"10/07/2023 04:49:16",137495,33,"questionnaire-uu2n",NA,30593407,9083342,NA,"complete",NA,NA,"computer","Desktop or Laptop","Windows 10","Chrome 114.0.0.0","1920x1080","1920x927",NA,NA,NA,"BIQ (Charlotte)",2,"NonAnxious",NA,"In","",NA,"HIGJFKEADBC","B","B","",NA,NA,"Spreadsheet1","Spreadsheet1",1,"BIQ","Screen 3","iz3the",3,"response","5",24601.063,25267.686,25280.751,24601.063,25267.686,25280.751,1,24601.063,679.687999999995,0,NA,"Rating Scale","Rating Scale",16,"object-67","BIQ",NA,"SUPTM14619"
"14",1688993356283,"10/07/2023 12:49:16",1688978956283,-4,"10/07/2023 04:49:16",137495,33,"questionnaire-uu2n",NA,30593407,9083342,NA,"complete",NA,NA,"computer","Desktop or Laptop","Windows 10","Chrome 114.0.0.0","1920x1080","1920x927",NA,NA,NA,"BIQ (Charlotte)",2,"NonAnxious",NA,"In","",NA,"HIGJFKEADBC","B","B","",NA,NA,"Spreadsheet1","Spreadsheet1",NA,"","","",NA,"5","END",NA,NA,NA,NA,NA,NA,0,NA,NA,NA,NA,"","",NA,"","",NA,"SUPTM14619"
"1",1688999063760,"10/07/2023 14:24:23",1688984663760,-4,"10/07/2023 06:24:23",137495,33,"questionnaire-uu2n",NA,30597431,9084322,NA,"complete",NA,NA,"computer","Desktop or Laptop","Windows 10","Chrome 114.0.0.0","1370x703","1366x699",NA,NA,NA,"BIQ (Charlotte)",2,"Anxious",NA,"In","",NA,"IJHKGAFBECD","","","B (MDot First)",1,231,"Spreadsheet1","Spreadsheet1",NA,"","","",NA,"5","BEGIN",NA,NA,NA,NA,NA,NA,0,NA,NA,NA,NA,"","",NA,"","",NA,"SUPTM96648"
"2",1688999320834,"10/07/2023 14:28:40",1688984920834,-4,"10/07/2023 06:28:40",137495,33,"questionnaire-uu2n",NA,30597431,9084322,NA,"complete",NA,NA,"computer","Desktop or Laptop","Windows 10","Chrome 114.0.0.0","1370x703","1366x699",NA,NA,NA,"BIQ (Charlotte)",2,"Anxious",NA,"In","",NA,"IJHKGAFBECD","","","B (MDot First)",1,231,"Spreadsheet1","Spreadsheet1",1,"BIQ","Screen 1","9dh6eq",1,"continue","",257123,257106,257123,257123,257106,257123,1,257123,0,0,NA,"Click To Continue","Continue Button",23,"object-48","BIQ",NA,"SUPTM96648"
"3",1688999320841,"10/07/2023 14:28:40",1688984920841,-4,"10/07/2023 06:28:40",137495,33,"questionnaire-uu2n",NA,30597431,9084322,NA,"complete",NA,NA,"computer","Desktop or Laptop","Windows 10","Chrome 114.0.0.0","1370x703","1366x699",NA,NA,NA,"BIQ (Charlotte)",2,"Anxious",NA,"In","",NA,"IJHKGAFBECD","","","B (MDot First)",1,231,"Spreadsheet1","Spreadsheet1",1,"BIQ","Screen 1","9dh6eq",1,"response","6",206487,257106,257123,206487,257106,257123,1,206487,50636,0,NA,"Rating Scale","Rating Scale",3,"object-5","BIQ",NA,"SUPTM96648"
"4",1688999320843,"10/07/2023 14:28:40",1688984920843,-4,"10/07/2023 06:28:40",137495,33,"questionnaire-uu2n",NA,30597431,9084322,NA,"complete",NA,NA,"computer","Desktop or Laptop","Windows 10","Chrome 114.0.0.0","1370x703","1366x699",NA,NA,NA,"BIQ (Charlotte)",2,"Anxious",NA,"In","",NA,"IJHKGAFBECD","","","B (MDot First)",1,231,"Spreadsheet1","Spreadsheet1",1,"BIQ","Screen 1","9dh6eq",1,"response","7",244780,257106,257123,244780,257106,257123,1,244780,12343,0,NA,"Rating Scale","Rating Scale",10,"object-18","BIQ",NA,"SUPTM96648"
"5",1688999320850,"10/07/2023 14:28:40",1688984920850,-4,"10/07/2023 06:28:40",137495,33,"questionnaire-uu2n",NA,30597431,9084322,NA,"complete",NA,NA,"computer","Desktop or Laptop","Windows 10","Chrome 114.0.0.0","1370x703","1366x699",NA,NA,NA,"BIQ (Charlotte)",2,"Anxious",NA,"In","",NA,"IJHKGAFBECD","","","B (MDot First)",1,231,"Spreadsheet1","Spreadsheet1",1,"BIQ","Screen 1","9dh6eq",1,"response","0",253014,257106,257123,253014,257106,257123,1,253014,4109,0,NA,"Rating Scale","Rating Scale",17,"object-80","BIQ",NA,"SUPTM96648"
"6",1688999405923,"10/07/2023 14:30:05",1688985005923,-4,"10/07/2023 06:30:05",137495,33,"questionnaire-uu2n",NA,30597431,9084322,NA,"complete",NA,NA,"computer","Desktop or Laptop","Windows 10","Chrome 114.0.0.0","1370x703","1366x699",NA,NA,NA,"BIQ (Charlotte)",2,"Anxious",NA,"In","",NA,"IJHKGAFBECD","","","B (MDot First)",1,231,"Spreadsheet1","Spreadsheet1",1,"BIQ","Screen 2","o21mwi",2,"continue","",85118,85102,85118,85118,85102,85118,1,85118,0,0,NA,"Click To Continue","Continue Button",22,"object-50","BIQ",NA,"SUPTM96648"
"7",1688999405944,"10/07/2023 14:30:05",1688985005944,-4,"10/07/2023 06:30:05",137495,33,"questionnaire-uu2n",NA,30597431,9084322,NA,"complete",NA,NA,"computer","Desktop or Laptop","Windows 10","Chrome 114.0.0.0","1370x703","1366x699",NA,NA,NA,"BIQ (Charlotte)",2,"Anxious",NA,"In","",NA,"IJHKGAFBECD","","","B (MDot First)",1,231,"Spreadsheet1","Spreadsheet1",1,"BIQ","Screen 2","o21mwi",2,"response","6",21192,85102,85118,21192,85102,85118,1,21192,63926,0,NA,"Rating Scale","Rating Scale",2,"object-259","BIQ",NA,"SUPTM96648"
"8",1688999405946,"10/07/2023 14:30:05",1688985005946,-4,"10/07/2023 06:30:05",137495,33,"questionnaire-uu2n",NA,30597431,9084322,NA,"complete",NA,NA,"computer","Desktop or Laptop","Windows 10","Chrome 114.0.0.0","1370x703","1366x699",NA,NA,NA,"BIQ (Charlotte)",2,"Anxious",NA,"In","",NA,"IJHKGAFBECD","","","B (MDot First)",1,231,"Spreadsheet1","Spreadsheet1",1,"BIQ","Screen 2","o21mwi",2,"response","3",66322,85102,85118,66322,85102,85118,1,66322,18796,0,NA,"Rating Scale","Rating Scale",9,"object-36","BIQ",NA,"SUPTM96648"
"9",1688999405949,"10/07/2023 14:30:05",1688985005949,-4,"10/07/2023 06:30:05",137495,33,"questionnaire-uu2n",NA,30597431,9084322,NA,"complete",NA,NA,"computer","Desktop or Laptop","Windows 10","Chrome 114.0.0.0","1370x703","1366x699",NA,NA,NA,"BIQ (Charlotte)",2,"Anxious",NA,"In","",NA,"IJHKGAFBECD","","","B (MDot First)",1,231,"Spreadsheet1","Spreadsheet1",1,"BIQ","Screen 2","o21mwi",2,"response","2",80861,85102,85118,80861,85102,85118,1,80861,4257,0,NA,"Rating Scale","Rating Scale",16,"object-86","BIQ",NA,"SUPTM96648"
"10",1688999424264,"10/07/2023 14:30:24",1688985024264,-4,"10/07/2023 06:30:24",137495,33,"questionnaire-uu2n",NA,30597431,9084322,NA,"complete",NA,NA,"computer","Desktop or Laptop","Windows 10","Chrome 114.0.0.0","1370x703","1366x699",NA,NA,NA,"BIQ (Charlotte)",2,"Anxious",NA,"In","",NA,"IJHKGAFBECD","","","B (MDot First)",1,231,"Spreadsheet1","Spreadsheet1",1,"BIQ","Screen 3","iz3the",3,"continue","",18359,18348,18359,18359,18348,18359,1,18359,0,0,NA,"Click To Continue","Continue Button",22,"object-73","BIQ",NA,"SUPTM96648"
"11",1688999424266,"10/07/2023 14:30:24",1688985024266,-4,"10/07/2023 06:30:24",137495,33,"questionnaire-uu2n",NA,30597431,9084322,NA,"complete",NA,NA,"computer","Desktop or Laptop","Windows 10","Chrome 114.0.0.0","1370x703","1366x699",NA,NA,NA,"BIQ (Charlotte)",2,"Anxious",NA,"In","",NA,"IJHKGAFBECD","","","B (MDot First)",1,231,"Spreadsheet1","Spreadsheet1",1,"BIQ","Screen 3","iz3the",3,"response","2",6288,18348,18361,6288,18348,18361,1,6288,12073,0,NA,"Rating Scale","Rating Scale",2,"object-53","BIQ",NA,"SUPTM96648"
"12",1688999424268,"10/07/2023 14:30:24",1688985024268,-4,"10/07/2023 06:30:24",137495,33,"questionnaire-uu2n",NA,30597431,9084322,NA,"complete",NA,NA,"computer","Desktop or Laptop","Windows 10","Chrome 114.0.0.0","1370x703","1366x699",NA,NA,NA,"BIQ (Charlotte)",2,"Anxious",NA,"In","",NA,"IJHKGAFBECD","","","B (MDot First)",1,231,"Spreadsheet1","Spreadsheet1",1,"BIQ","Screen 3","iz3the",3,"response","1",8218,18348,18364,8218,18348,18364,1,8218,10146,0,NA,"Rating Scale","Rating Scale",9,"object-60","BIQ",NA,"SUPTM96648"
"13",1688999424271,"10/07/2023 14:30:24",1688985024271,-4,"10/07/2023 06:30:24",137495,33,"questionnaire-uu2n",NA,30597431,9084322,NA,"complete",NA,NA,"computer","Desktop or Laptop","Windows 10","Chrome 114.0.0.0","1370x703","1366x699",NA,NA,NA,"BIQ (Charlotte)",2,"Anxious",NA,"In","",NA,"IJHKGAFBECD","","","B (MDot First)",1,231,"Spreadsheet1","Spreadsheet1",1,"BIQ","Screen 3","iz3the",3,"response","4",16502,18348,18364,16502,18348,18364,1,16502,1862,0,NA,"Rating Scale","Rating Scale",16,"object-67","BIQ",NA,"SUPTM96648"
"14",1688999424283,"10/07/2023 14:30:24",1688985024283,-4,"10/07/2023 06:30:24",137495,33,"questionnaire-uu2n",NA,30597431,9084322,NA,"complete",NA,NA,"computer","Desktop or Laptop","Windows 10","Chrome 114.0.0.0","1370x703","1366x699",NA,NA,NA,"BIQ (Charlotte)",2,"Anxious",NA,"In","",NA,"IJHKGAFBECD","","","B (MDot First)",1,231,"Spreadsheet1","Spreadsheet1",NA,"","","",NA,"5","END",NA,NA,NA,NA,NA,NA,0,NA,NA,NA,NA,"","",NA,"","",NA,"SUPTM96648"
"1",1689001178913,"10/07/2023 14:59:38",1689004778913,1,"10/07/2023 16:59:38",137495,33,"questionnaire-uu2n",NA,30598381,9084892,NA,"complete",NA,NA,"computer","Desktop or Laptop","Windows 10","Chrome 114.0.0.0","1536x864","1536x760",NA,NA,NA,"BIQ (Charlotte)",2,"NonAnxious",NA,"In","A",NA,"ABKCJDIEHFG","A","","",NA,NA,"Spreadsheet1","Spreadsheet1",NA,"","","",NA,"5","BEGIN",NA,NA,NA,NA,NA,NA,0,NA,NA,NA,NA,"","",NA,"","",NA,"SUPTM15998"
"2",1689001274067,"10/07/2023 15:01:14",1689004874067,1,"10/07/2023 17:01:14",137495,33,"questionnaire-uu2n",NA,30598381,9084892,NA,"complete",NA,NA,"computer","Desktop or Laptop","Windows 10","Chrome 114.0.0.0","1536x864","1536x760",NA,NA,NA,"BIQ (Charlotte)",2,"NonAnxious",NA,"In","A",NA,"ABKCJDIEHFG","A","","",NA,NA,"Spreadsheet1","Spreadsheet1",1,"BIQ","Screen 1","9dh6eq",1,"continue","",95167.6,95150.917,95167.6,95167.6,95150.917,95167.6,1,95167.6,0,0,NA,"Click To Continue","Continue Button",23,"object-48","BIQ",NA,"SUPTM15998"
"3",1689001274070,"10/07/2023 15:01:14",1689004874070,1,"10/07/2023 17:01:14",137495,33,"questionnaire-uu2n",NA,30598381,9084892,NA,"complete",NA,NA,"computer","Desktop or Laptop","Windows 10","Chrome 114.0.0.0","1536x864","1536x760",NA,NA,NA,"BIQ (Charlotte)",2,"NonAnxious",NA,"In","A",NA,"ABKCJDIEHFG","A","","",NA,NA,"Spreadsheet1","Spreadsheet1",1,"BIQ","Screen 1","9dh6eq",1,"response","7",58333.97,95150.917,95167.6,58333.97,95150.917,95167.6,1,58333.97,36833.63,0,NA,"Rating Scale","Rating Scale",3,"object-5","BIQ",NA,"SUPTM15998"
"4",1689001274070,"10/07/2023 15:01:14",1689004874070,1,"10/07/2023 17:01:14",137495,33,"questionnaire-uu2n",NA,30598381,9084892,NA,"complete",NA,NA,"computer","Desktop or Laptop","Windows 10","Chrome 114.0.0.0","1536x864","1536x760",NA,NA,NA,"BIQ (Charlotte)",2,"NonAnxious",NA,"In","A",NA,"ABKCJDIEHFG","A","","",NA,NA,"Spreadsheet1","Spreadsheet1",1,"BIQ","Screen 1","9dh6eq",1,"response","7",70017.327,95150.917,95167.6,70017.327,95150.917,95167.6,1,70017.327,25150.273,0,NA,"Rating Scale","Rating Scale",10,"object-18","BIQ",NA,"SUPTM15998"
"5",1689001274071,"10/07/2023 15:01:14",1689004874071,1,"10/07/2023 17:01:14",137495,33,"questionnaire-uu2n",NA,30598381,9084892,NA,"complete",NA,NA,"computer","Desktop or Laptop","Windows 10","Chrome 114.0.0.0","1536x864","1536x760",NA,NA,NA,"BIQ (Charlotte)",2,"NonAnxious",NA,"In","A",NA,"ABKCJDIEHFG","A","","",NA,NA,"Spreadsheet1","Spreadsheet1",1,"BIQ","Screen 1","9dh6eq",1,"response","1",86067.417,95150.917,95167.6,86067.417,95150.917,95167.6,1,86067.417,9100.183,0,NA,"Rating Scale","Rating Scale",17,"object-80","BIQ",NA,"SUPTM15998"
"6",1689001311183,"10/07/2023 15:01:51",1689004911183,1,"10/07/2023 17:01:51",137495,33,"questionnaire-uu2n",NA,30598381,9084892,NA,"complete",NA,NA,"computer","Desktop or Laptop","Windows 10","Chrome 114.0.0.0","1536x864","1536x760",NA,NA,NA,"BIQ (Charlotte)",2,"NonAnxious",NA,"In","A",NA,"ABKCJDIEHFG","A","","",NA,NA,"Spreadsheet1","Spreadsheet1",1,"BIQ","Screen 2","o21mwi",2,"continue","",37136.0110000477,37133.574,37136.0110000477,37136.0110000477,37133.574,37136.0110000477,1,37136.0110000477,0,0,NA,"Click To Continue","Continue Button",22,"object-50","BIQ",NA,"SUPTM15998"
"7",1689001311185,"10/07/2023 15:01:51",1689004911185,1,"10/07/2023 17:01:51",137495,33,"questionnaire-uu2n",NA,30598381,9084892,NA,"complete",NA,NA,"computer","Desktop or Laptop","Windows 10","Chrome 114.0.0.0","1536x864","1536x760",NA,NA,NA,"BIQ (Charlotte)",2,"NonAnxious",NA,"In","A",NA,"ABKCJDIEHFG","A","","",NA,NA,"Spreadsheet1","Spreadsheet1",1,"BIQ","Screen 2","o21mwi",2,"response","8",11800.038,37133.574,37138.311,11800.038,37133.574,37138.311,1,11800.038,25338.273,0,NA,"Rating Scale","Rating Scale",2,"object-259","BIQ",NA,"SUPTM15998"
"8",1689001311185,"10/07/2023 15:01:51",1689004911185,1,"10/07/2023 17:01:51",137495,33,"questionnaire-uu2n",NA,30598381,9084892,NA,"complete",NA,NA,"computer","Desktop or Laptop","Windows 10","Chrome 114.0.0.0","1536x864","1536x760",NA,NA,NA,"BIQ (Charlotte)",2,"NonAnxious",NA,"In","A",NA,"ABKCJDIEHFG","A","","",NA,NA,"Spreadsheet1","Spreadsheet1",1,"BIQ","Screen 2","o21mwi",2,"response","1",19550.132,37133.574,37138.7110000358,19550.132,37133.574,37138.7110000358,1,19550.132,17588.5790000358,0,NA,"Rating Scale","Rating Scale",9,"object-36","BIQ",NA,"SUPTM15998"
"9",1689001311186,"10/07/2023 15:01:51",1689004911186,1,"10/07/2023 17:01:51",137495,33,"questionnaire-uu2n",NA,30598381,9084892,NA,"complete",NA,NA,"computer","Desktop or Laptop","Windows 10","Chrome 114.0.0.0","1536x864","1536x760",NA,NA,NA,"BIQ (Charlotte)",2,"NonAnxious",NA,"In","A",NA,"ABKCJDIEHFG","A","","",NA,NA,"Spreadsheet1","Spreadsheet1",1,"BIQ","Screen 2","o21mwi",2,"response","1",34266.877,37133.574,37138.9110000238,34266.877,37133.574,37138.9110000238,1,34266.877,2872.03400002384,0,NA,"Rating Scale","Rating Scale",16,"object-86","BIQ",NA,"SUPTM15998"
"10",1689001335971,"10/07/2023 15:02:15",1689004935971,1,"10/07/2023 17:02:15",137495,33,"questionnaire-uu2n",NA,30598381,9084892,NA,"complete",NA,NA,"computer","Desktop or Laptop","Windows 10","Chrome 114.0.0.0","1536x864","1536x760",NA,NA,NA,"BIQ (Charlotte)",2,"NonAnxious",NA,"In","A",NA,"ABKCJDIEHFG","A","","",NA,NA,"Spreadsheet1","Spreadsheet1",1,"BIQ","Screen 3","iz3the",3,"continue","",24791.0370000119,24783.517,24791.0370000119,24791.0370000119,24783.517,24791.0370000119,1,24791.0370000119,0,0,NA,"Click To Continue","Continue Button",22,"object-73","BIQ",NA,"SUPTM15998"
"11",1689001335973,"10/07/2023 15:02:15",1689004935973,1,"10/07/2023 17:02:15",137495,33,"questionnaire-uu2n",NA,30598381,9084892,NA,"complete",NA,NA,"computer","Desktop or Laptop","Windows 10","Chrome 114.0.0.0","1536x864","1536x760",NA,NA,NA,"BIQ (Charlotte)",2,"NonAnxious",NA,"In","A",NA,"ABKCJDIEHFG","A","","",NA,NA,"Spreadsheet1","Spreadsheet1",1,"BIQ","Screen 3","iz3the",3,"response","1",8350.10000000001,24783.517,24792.9370000477,8350.10000000001,24783.517,24792.9370000477,1,8350.10000000001,16442.8370000477,0,NA,"Rating Scale","Rating Scale",2,"object-53","BIQ",NA,"SUPTM15998"
"12",1689001335974,"10/07/2023 15:02:15",1689004935974,1,"10/07/2023 17:02:15",137495,33,"questionnaire-uu2n",NA,30598381,9084892,NA,"complete",NA,NA,"computer","Desktop or Laptop","Windows 10","Chrome 114.0.0.0","1536x864","1536x760",NA,NA,NA,"BIQ (Charlotte)",2,"NonAnxious",NA,"In","A",NA,"ABKCJDIEHFG","A","","",NA,NA,"Spreadsheet1","Spreadsheet1",1,"BIQ","Screen 3","iz3the",3,"response","1",14500.105,24783.517,24793.4370000477,14500.105,24783.517,24793.4370000477,1,14500.105,10293.3320000477,0,NA,"Rating Scale","Rating Scale",9,"object-60","BIQ",NA,"SUPTM15998"
"13",1689001335974,"10/07/2023 15:02:15",1689004935974,1,"10/07/2023 17:02:15",137495,33,"questionnaire-uu2n",NA,30598381,9084892,NA,"complete",NA,NA,"computer","Desktop or Laptop","Windows 10","Chrome 114.0.0.0","1536x864","1536x760",NA,NA,NA,"BIQ (Charlotte)",2,"NonAnxious",NA,"In","A",NA,"ABKCJDIEHFG","A","","",NA,NA,"Spreadsheet1","Spreadsheet1",1,"BIQ","Screen 3","iz3the",3,"response","2",21316.881,24783.517,24793.737,21316.881,24783.517,24793.737,1,21316.881,3476.856,0,NA,"Rating Scale","Rating Scale",16,"object-67","BIQ",NA,"SUPTM15998"
"14",1689001335977,"10/07/2023 15:02:15",1689004935977,1,"10/07/2023 17:02:15",137495,33,"questionnaire-uu2n",NA,30598381,9084892,NA,"complete",NA,NA,"computer","Desktop or Laptop","Windows 10","Chrome 114.0.0.0","1536x864","1536x760",NA,NA,NA,"BIQ (Charlotte)",2,"NonAnxious",NA,"In","A",NA,"ABKCJDIEHFG","A","","",NA,NA,"Spreadsheet1","Spreadsheet1",NA,"","","",NA,"5","END",NA,NA,NA,NA,NA,NA,0,NA,NA,NA,NA,"","",NA,"","",NA,"SUPTM15998"
"1",1689004004469,"10/07/2023 15:46:44",1689007604469,1,"10/07/2023 17:46:44",137495,33,"questionnaire-uu2n",NA,30599538,9085338,NA,"complete",NA,NA,"computer","Desktop or Laptop","Windows 10","Chrome 114.0.0.0","1536x864","1536x714",NA,NA,NA,"BIQ (Charlotte)",2,"Anxious",132,"In","",2,"BCADKEJFIGH","","","A (JV first)",NA,NA,"Spreadsheet1","Spreadsheet1",NA,"","","",NA,"5","BEGIN",NA,NA,NA,NA,NA,NA,0,NA,NA,NA,NA,"","",NA,"","",NA,"SUPTM05489"
"2",1689004042940,"10/07/2023 15:47:22",1689007642940,1,"10/07/2023 17:47:22",137495,33,"questionnaire-uu2n",NA,30599538,9085338,NA,"complete",NA,NA,"computer","Desktop or Laptop","Windows 10","Chrome 114.0.0.0","1536x864","1536x714",NA,NA,NA,"BIQ (Charlotte)",2,"Anxious",132,"In","",2,"BCADKEJFIGH","","","A (JV first)",NA,NA,"Spreadsheet1","Spreadsheet1",1,"BIQ","Screen 1","9dh6eq",1,"continue","",38473.252999857,38462.489,38473.252999857,38473.252999857,38462.489,38473.252999857,1,38473.252999857,0,0,NA,"Click To Continue","Continue Button",23,"object-48","BIQ",NA,"SUPTM05489"
"3",1689004042942,"10/07/2023 15:47:22",1689007642942,1,"10/07/2023 17:47:22",137495,33,"questionnaire-uu2n",NA,30599538,9085338,NA,"complete",NA,NA,"computer","Desktop or Laptop","Windows 10","Chrome 114.0.0.0","1536x864","1536x714",NA,NA,NA,"BIQ (Charlotte)",2,"Anxious",132,"In","",2,"BCADKEJFIGH","","","A (JV first)",NA,NA,"Spreadsheet1","Spreadsheet1",1,"BIQ","Screen 1","9dh6eq",1,"response","7",18373.754,38462.489,38478.4529999046,18373.754,38462.489,38478.4529999046,1,18373.754,20104.6989999046,0,NA,"Rating Scale","Rating Scale",3,"object-5","BIQ",NA,"SUPTM05489"
"4",1689004042943,"10/07/2023 15:47:22",1689007642943,1,"10/07/2023 17:47:22",137495,33,"questionnaire-uu2n",NA,30599538,9085338,NA,"complete",NA,NA,"computer","Desktop or Laptop","Windows 10","Chrome 114.0.0.0","1536x864","1536x714",NA,NA,NA,"BIQ (Charlotte)",2,"Anxious",132,"In","",2,"BCADKEJFIGH","","","A (JV first)",NA,NA,"Spreadsheet1","Spreadsheet1",1,"BIQ","Screen 1","9dh6eq",1,"response","7",25286.438,38462.489,38478.9529999046,25286.438,38462.489,38478.9529999046,1,25286.438,13192.5149999046,0,NA,"Rating Scale","Rating Scale",10,"object-18","BIQ",NA,"SUPTM05489"
"5",1689004042943,"10/07/2023 15:47:22",1689007642943,1,"10/07/2023 17:47:22",137495,33,"questionnaire-uu2n",NA,30599538,9085338,NA,"complete",NA,NA,"computer","Desktop or Laptop","Windows 10","Chrome 114.0.0.0","1536x864","1536x714",NA,NA,NA,"BIQ (Charlotte)",2,"Anxious",132,"In","",2,"BCADKEJFIGH","","","A (JV first)",NA,NA,"Spreadsheet1","Spreadsheet1",1,"BIQ","Screen 1","9dh6eq",1,"response","1",36996.691,38462.489,38479.0530000477,36996.691,38462.489,38479.0530000477,1,36996.691,1482.36200004768,0,NA,"Rating Scale","Rating Scale",17,"object-80","BIQ",NA,"SUPTM05489"
"6",1689004069476,"10/07/2023 15:47:49",1689007669476,1,"10/07/2023 17:47:49",137495,33,"questionnaire-uu2n",NA,30599538,9085338,NA,"complete",NA,NA,"computer","Desktop or Laptop","Windows 10","Chrome 114.0.0.0","1536x864","1536x714",NA,NA,NA,"BIQ (Charlotte)",2,"Anxious",132,"In","",2,"BCADKEJFIGH","","","A (JV first)",NA,NA,"Spreadsheet1","Spreadsheet1",1,"BIQ","Screen 2","o21mwi",2,"continue","",26549.1639999523,26535.613,26549.1639999523,26549.1639999523,26535.613,26549.1639999523,1,26549.1639999523,0,0,NA,"Click To Continue","Continue Button",22,"object-50","BIQ",NA,"SUPTM05489"
"7",1689004069478,"10/07/2023 15:47:49",1689007669478,1,"10/07/2023 17:47:49",137495,33,"questionnaire-uu2n",NA,30599538,9085338,NA,"complete",NA,NA,"computer","Desktop or Laptop","Windows 10","Chrome 114.0.0.0","1536x864","1536x714",NA,NA,NA,"BIQ (Charlotte)",2,"Anxious",132,"In","",2,"BCADKEJFIGH","","","A (JV first)",NA,NA,"Spreadsheet1","Spreadsheet1",1,"BIQ","Screen 2","o21mwi",2,"response","7",11093.672,26535.613,26551.4639999046,11093.672,26535.613,26551.4639999046,1,11093.672,15457.7919999046,0,NA,"Rating Scale","Rating Scale",2,"object-259","BIQ",NA,"SUPTM05489"
"8",1689004069478,"10/07/2023 15:47:49",1689007669478,1,"10/07/2023 17:47:49",137495,33,"questionnaire-uu2n",NA,30599538,9085338,NA,"complete",NA,NA,"computer","Desktop or Laptop","Windows 10","Chrome 114.0.0.0","1536x864","1536x714",NA,NA,NA,"BIQ (Charlotte)",2,"Anxious",132,"In","",2,"BCADKEJFIGH","","","A (JV first)",NA,NA,"Spreadsheet1","Spreadsheet1",1,"BIQ","Screen 2","o21mwi",2,"response","1",19072.894,26535.613,26551.763999857,19072.894,26535.613,26551.763999857,1,19072.894,7478.86999985695,0,NA,"Rating Scale","Rating Scale",9,"object-36","BIQ",NA,"SUPTM05489"
"9",1689004069478,"10/07/2023 15:47:49",1689007669478,1,"10/07/2023 17:47:49",137495,33,"questionnaire-uu2n",NA,30599538,9085338,NA,"complete",NA,NA,"computer","Desktop or Laptop","Windows 10","Chrome 114.0.0.0","1536x864","1536x714",NA,NA,NA,"BIQ (Charlotte)",2,"Anxious",132,"In","",2,"BCADKEJFIGH","","","A (JV first)",NA,NA,"Spreadsheet1","Spreadsheet1",1,"BIQ","Screen 2","o21mwi",2,"response","1",25569.102,26535.613,26552.1639999523,25569.102,26535.613,26552.1639999523,1,25569.102,983.061999952319,0,NA,"Rating Scale","Rating Scale",16,"object-86","BIQ",NA,"SUPTM05489"
"10",1689004093736,"10/07/2023 15:48:13",1689007693736,1,"10/07/2023 17:48:13",137495,33,"questionnaire-uu2n",NA,30599538,9085338,NA,"complete",NA,NA,"computer","Desktop or Laptop","Windows 10","Chrome 114.0.0.0","1536x864","1536x714",NA,NA,NA,"BIQ (Charlotte)",2,"Anxious",132,"In","",2,"BCADKEJFIGH","","","A (JV first)",NA,NA,"Spreadsheet1","Spreadsheet1",1,"BIQ","Screen 3","iz3the",3,"continue","",24273.9510000477,24269.835,24273.9510000477,24273.9510000477,24269.835,24273.9510000477,1,24273.9510000477,0,0,NA,"Click To Continue","Continue Button",22,"object-73","BIQ",NA,"SUPTM05489"
"11",1689004093738,"10/07/2023 15:48:13",1689007693738,1,"10/07/2023 17:48:13",137495,33,"questionnaire-uu2n",NA,30599538,9085338,NA,"complete",NA,NA,"computer","Desktop or Laptop","Windows 10","Chrome 114.0.0.0","1536x864","1536x714",NA,NA,NA,"BIQ (Charlotte)",2,"Anxious",132,"In","",2,"BCADKEJFIGH","","","A (JV first)",NA,NA,"Spreadsheet1","Spreadsheet1",1,"BIQ","Screen 3","iz3the",3,"response","0",8728.09700000001,24269.835,24275.8509999046,8728.09700000001,24269.835,24275.8509999046,1,8728.09700000001,15547.7539999046,0,NA,"Rating Scale","Rating Scale",2,"object-53","BIQ",NA,"SUPTM05489"
"12",1689004093738,"10/07/2023 15:48:13",1689007693738,1,"10/07/2023 17:48:13",137495,33,"questionnaire-uu2n",NA,30599538,9085338,NA,"complete",NA,NA,"computer","Desktop or Laptop","Windows 10","Chrome 114.0.0.0","1536x864","1536x714",NA,NA,NA,"BIQ (Charlotte)",2,"Anxious",132,"In","",2,"BCADKEJFIGH","","","A (JV first)",NA,NA,"Spreadsheet1","Spreadsheet1",1,"BIQ","Screen 3","iz3the",3,"response","0",15207.922,24269.835,24276.150999857,15207.922,24269.835,24276.150999857,1,15207.922,9068.22899985695,0,NA,"Rating Scale","Rating Scale",9,"object-60","BIQ",NA,"SUPTM05489"
"13",1689004093738,"10/07/2023 15:48:13",1689007693738,1,"10/07/2023 17:48:13",137495,33,"questionnaire-uu2n",NA,30599538,9085338,NA,"complete",NA,NA,"computer","Desktop or Laptop","Windows 10","Chrome 114.0.0.0","1536x864","1536x714",NA,NA,NA,"BIQ (Charlotte)",2,"Anxious",132,"In","",2,"BCADKEJFIGH","","","A (JV first)",NA,NA,"Spreadsheet1","Spreadsheet1",1,"BIQ","Screen 3","iz3the",3,"response","0",23237.081,24269.835,24276.3509999046,23237.081,24269.835,24276.3509999046,1,23237.081,1039.26999990463,0,NA,"Rating Scale","Rating Scale",16,"object-67","BIQ",NA,"SUPTM05489"
"14",1689004093741,"10/07/2023 15:48:13",1689007693741,1,"10/07/2023 17:48:13",137495,33,"questionnaire-uu2n",NA,30599538,9085338,NA,"complete",NA,NA,"computer","Desktop or Laptop","Windows 10","Chrome 114.0.0.0","1536x864","1536x714",NA,NA,NA,"BIQ (Charlotte)",2,"Anxious",132,"In","",2,"BCADKEJFIGH","","","A (JV first)",NA,NA,"Spreadsheet1","Spreadsheet1",NA,"","","",NA,"5","END",NA,NA,NA,NA,NA,NA,0,NA,NA,NA,NA,"","",NA,"","",NA,"SUPTM05489"
"1",1689004774084,"10/07/2023 15:59:34",1689008374084,1,"10/07/2023 17:59:34",137495,33,"questionnaire-uu2n",NA,30599732,9085468,NA,"complete",NA,NA,"computer","Desktop or Laptop","Windows 10","Chrome 114.0.0.0","1280x720","1280x720",NA,NA,NA,"BIQ (Charlotte)",2,"Anxious",NA,"In","",NA,"CDBEAFKGJHI","","","B (MDot First)",2,213,"Spreadsheet1","Spreadsheet1",NA,"","","",NA,"5","BEGIN",NA,NA,NA,NA,NA,NA,0,NA,NA,NA,NA,"","",NA,"","",NA,"SUPTM50909"
"2",1689004817954,"10/07/2023 16:00:17",1689008417954,1,"10/07/2023 18:00:17",137495,33,"questionnaire-uu2n",NA,30599732,9085468,NA,"complete",NA,NA,"computer","Desktop or Laptop","Windows 10","Chrome 114.0.0.0","1280x720","1280x720",NA,NA,NA,"BIQ (Charlotte)",2,"Anxious",NA,"In","",NA,"CDBEAFKGJHI","","","B (MDot First)",2,213,"Spreadsheet1","Spreadsheet1",1,"BIQ","Screen 1","9dh6eq",1,"continue","",43894.6249999523,43880.917,43894.6249999523,43894.6249999523,43880.917,43894.6249999523,1,43894.6249999523,0,0,NA,"Click To Continue","Continue Button",23,"object-48","BIQ",NA,"SUPTM50909"
"3",1689004817957,"10/07/2023 16:00:17",1689008417957,1,"10/07/2023 18:00:17",137495,33,"questionnaire-uu2n",NA,30599732,9085468,NA,"complete",NA,NA,"computer","Desktop or Laptop","Windows 10","Chrome 114.0.0.0","1280x720","1280x720",NA,NA,NA,"BIQ (Charlotte)",2,"Anxious",NA,"In","",NA,"CDBEAFKGJHI","","","B (MDot First)",2,213,"Spreadsheet1","Spreadsheet1",1,"BIQ","Screen 1","9dh6eq",1,"response","7",25079.493,43880.917,43897.819,25079.493,43880.917,43897.819,1,25079.493,18818.326,0,NA,"Rating Scale","Rating Scale",3,"object-5","BIQ",NA,"SUPTM50909"
"4",1689004817957,"10/07/2023 16:00:17",1689008417957,1,"10/07/2023 18:00:17",137495,33,"questionnaire-uu2n",NA,30599732,9085468,NA,"complete",NA,NA,"computer","Desktop or Laptop","Windows 10","Chrome 114.0.0.0","1280x720","1280x720",NA,NA,NA,"BIQ (Charlotte)",2,"Anxious",NA,"In","",NA,"CDBEAFKGJHI","","","B (MDot First)",2,213,"Spreadsheet1","Spreadsheet1",1,"BIQ","Screen 1","9dh6eq",1,"response","7",32739.889,43880.917,43897.819,32739.889,43880.917,43897.819,1,32739.889,11157.93,0,NA,"Rating Scale","Rating Scale",10,"object-18","BIQ",NA,"SUPTM50909"
"5",1689004817957,"10/07/2023 16:00:17",1689008417957,1,"10/07/2023 18:00:17",137495,33,"questionnaire-uu2n",NA,30599732,9085468,NA,"complete",NA,NA,"computer","Desktop or Laptop","Windows 10","Chrome 114.0.0.0","1280x720","1280x720",NA,NA,NA,"BIQ (Charlotte)",2,"Anxious",NA,"In","",NA,"CDBEAFKGJHI","","","B (MDot First)",2,213,"Spreadsheet1","Spreadsheet1",1,"BIQ","Screen 1","9dh6eq",1,"response","1",39284.494,43880.917,43897.819,39284.494,43880.917,43897.819,1,39284.494,4613.32499999999,0,NA,"Rating Scale","Rating Scale",17,"object-80","BIQ",NA,"SUPTM50909"
"6",1689004836062,"10/07/2023 16:00:36",1689008436062,1,"10/07/2023 18:00:36",137495,33,"questionnaire-uu2n",NA,30599732,9085468,NA,"complete",NA,NA,"computer","Desktop or Laptop","Windows 10","Chrome 114.0.0.0","1280x720","1280x720",NA,NA,NA,"BIQ (Charlotte)",2,"Anxious",NA,"In","",NA,"CDBEAFKGJHI","","","B (MDot First)",2,213,"Spreadsheet1","Spreadsheet1",1,"BIQ","Screen 2","o21mwi",2,"continue","",18124.908,18118.523,18124.908,18124.908,18118.523,18124.908,1,18124.908,0,0,NA,"Click To Continue","Continue Button",22,"object-50","BIQ",NA,"SUPTM50909"
"7",1689004836064,"10/07/2023 16:00:36",1689008436064,1,"10/07/2023 18:00:36",137495,33,"questionnaire-uu2n",NA,30599732,9085468,NA,"complete",NA,NA,"computer","Desktop or Laptop","Windows 10","Chrome 114.0.0.0","1280x720","1280x720",NA,NA,NA,"BIQ (Charlotte)",2,"Anxious",NA,"In","",NA,"CDBEAFKGJHI","","","B (MDot First)",2,213,"Spreadsheet1","Spreadsheet1",1,"BIQ","Screen 2","o21mwi",2,"response","8",4879.28000000001,18118.523,18127.307999857,4879.28000000001,18118.523,18127.307999857,1,4879.28000000001,13248.0279998569,0,NA,"Rating Scale","Rating Scale",2,"object-259","BIQ",NA,"SUPTM50909"
"8",1689004836065,"10/07/2023 16:00:36",1689008436065,1,"10/07/2023 18:00:36",137495,33,"questionnaire-uu2n",NA,30599732,9085468,NA,"complete",NA,NA,"computer","Desktop or Laptop","Windows 10","Chrome 114.0.0.0","1280x720","1280x720",NA,NA,NA,"BIQ (Charlotte)",2,"Anxious",NA,"In","",NA,"CDBEAFKGJHI","","","B (MDot First)",2,213,"Spreadsheet1","Spreadsheet1",1,"BIQ","Screen 2","o21mwi",2,"response","2",10175.272,18118.523,18127.807999857,10175.272,18118.523,18127.807999857,1,10175.272,7952.53599985695,0,NA,"Rating Scale","Rating Scale",9,"object-36","BIQ",NA,"SUPTM50909"
"9",1689004836065,"10/07/2023 16:00:36",1689008436065,1,"10/07/2023 18:00:36",137495,33,"questionnaire-uu2n",NA,30599732,9085468,NA,"complete",NA,NA,"computer","Desktop or Laptop","Windows 10","Chrome 114.0.0.0","1280x720","1280x720",NA,NA,NA,"BIQ (Charlotte)",2,"Anxious",NA,"In","",NA,"CDBEAFKGJHI","","","B (MDot First)",2,213,"Spreadsheet1","Spreadsheet1",1,"BIQ","Screen 2","o21mwi",2,"response","0",17219.214,18118.523,18128.1079998093,17219.214,18118.523,18128.1079998093,1,17219.214,908.893999809268,0,NA,"Rating Scale","Rating Scale",16,"object-86","BIQ",NA,"SUPTM50909"
"10",1689004865927,"10/07/2023 16:01:05",1689008465927,1,"10/07/2023 18:01:05",137495,33,"questionnaire-uu2n",NA,30599732,9085468,NA,"complete",NA,NA,"computer","Desktop or Laptop","Windows 10","Chrome 114.0.0.0","1280x720","1280x720",NA,NA,NA,"BIQ (Charlotte)",2,"Anxious",NA,"In","",NA,"CDBEAFKGJHI","","","B (MDot First)",2,213,"Spreadsheet1","Spreadsheet1",1,"BIQ","Screen 3","iz3the",3,"continue","",29872.0849998093,29858.479,29872.0849998093,29872.0849998093,29858.479,29872.0849998093,1,29872.0849998093,0,0,NA,"Click To Continue","Continue Button",22,"object-73","BIQ",NA,"SUPTM50909"
"11",1689004865930,"10/07/2023 16:01:05",1689008465930,1,"10/07/2023 18:01:05",137495,33,"questionnaire-uu2n",NA,30599732,9085468,NA,"complete",NA,NA,"computer","Desktop or Laptop","Windows 10","Chrome 114.0.0.0","1280x720","1280x720",NA,NA,NA,"BIQ (Charlotte)",2,"Anxious",NA,"In","",NA,"CDBEAFKGJHI","","","B (MDot First)",2,213,"Spreadsheet1","Spreadsheet1",1,"BIQ","Screen 3","iz3the",3,"response","0",22514.752,29858.479,29874.784999857,22514.752,29858.479,29874.784999857,1,22514.752,7360.03299985695,0,NA,"Rating Scale","Rating Scale",2,"object-53","BIQ",NA,"SUPTM50909"
"12",1689004865930,"10/07/2023 16:01:05",1689008465930,1,"10/07/2023 18:01:05",137495,33,"questionnaire-uu2n",NA,30599732,9085468,NA,"complete",NA,NA,"computer","Desktop or Laptop","Windows 10","Chrome 114.0.0.0","1280x720","1280x720",NA,NA,NA,"BIQ (Charlotte)",2,"Anxious",NA,"In","",NA,"CDBEAFKGJHI","","","B (MDot First)",2,213,"Spreadsheet1","Spreadsheet1",1,"BIQ","Screen 3","iz3the",3,"response","1",25112.407,29858.479,29875.049,25112.407,29858.479,29875.049,1,25112.407,4762.64199999999,0,NA,"Rating Scale","Rating Scale",9,"object-60","BIQ",NA,"SUPTM50909"
"13",1689004865930,"10/07/2023 16:01:05",1689008465930,1,"10/07/2023 18:01:05",137495,33,"questionnaire-uu2n",NA,30599732,9085468,NA,"complete",NA,NA,"computer","Desktop or Laptop","Windows 10","Chrome 114.0.0.0","1280x720","1280x720",NA,NA,NA,"BIQ (Charlotte)",2,"Anxious",NA,"In","",NA,"CDBEAFKGJHI","","","B (MDot First)",2,213,"Spreadsheet1","Spreadsheet1",1,"BIQ","Screen 3","iz3the",3,"response","1",28909.338,29858.479,29875.049,28909.338,29858.479,29875.049,1,28909.338,965.710999999996,0,NA,"Rating Scale","Rating Scale",16,"object-67","BIQ",NA,"SUPTM50909"
"14",1689004865934,"10/07/2023 16:01:05",1689008465934,1,"10/07/2023 18:01:05",137495,33,"questionnaire-uu2n",NA,30599732,9085468,NA,"complete",NA,NA,"computer","Desktop or Laptop","Windows 10","Chrome 114.0.0.0","1280x720","1280x720",NA,NA,NA,"BIQ (Charlotte)",2,"Anxious",NA,"In","",NA,"CDBEAFKGJHI","","","B (MDot First)",2,213,"Spreadsheet1","Spreadsheet1",NA,"","","",NA,"5","END",NA,NA,NA,NA,NA,NA,0,NA,NA,NA,NA,"","",NA,"","",NA,"SUPTM50909"
"1",1689005319768,"10/07/2023 16:08:39",1689008919768,1,"10/07/2023 18:08:39",137495,33,"questionnaire-uu2n",NA,30599844,9085500,NA,"complete",NA,NA,"computer","Desktop or Laptop","Windows 10","Firefox 115.0","1920x1080","958x954",NA,NA,NA,"BIQ (Charlotte)",2,"Anxious",NA,"In","",NA,"DECFBGAHKIJ","","","B (MDot First)",1,231,"Spreadsheet1","Spreadsheet1",NA,"","","",NA,"5","BEGIN",NA,NA,NA,NA,NA,NA,0,NA,NA,NA,NA,"","",NA,"","",NA,"SUPTM05151"
"2",1689005344886,"10/07/2023 16:09:04",1689008944886,1,"10/07/2023 18:09:04",137495,33,"questionnaire-uu2n",NA,30599844,9085500,NA,"complete",NA,NA,"computer","Desktop or Laptop","Windows 10","Firefox 115.0","1920x1080","958x954",NA,NA,NA,"BIQ (Charlotte)",2,"Anxious",NA,"In","",NA,"DECFBGAHKIJ","","","B (MDot First)",1,231,"Spreadsheet1","Spreadsheet1",1,"BIQ","Screen 1","9dh6eq",1,"continue","",25115.62,25098.94,25115.62,25115.62,25098.94,25115.62,1,25115.62,0,0,NA,"Click To Continue","Continue Button",23,"object-48","BIQ",NA,"SUPTM05151"
"3",1689005344888,"10/07/2023 16:09:04",1689008944888,1,"10/07/2023 18:09:04",137495,33,"questionnaire-uu2n",NA,30599844,9085500,NA,"complete",NA,NA,"computer","Desktop or Laptop","Windows 10","Firefox 115.0","1920x1080","958x954",NA,NA,NA,"BIQ (Charlotte)",2,"Anxious",NA,"In","",NA,"DECFBGAHKIJ","","","B (MDot First)",1,231,"Spreadsheet1","Spreadsheet1",1,"BIQ","Screen 1","9dh6eq",1,"response","1",11015.56,25098.94,25115.62,11015.56,25098.94,25115.62,1,11015.56,14100.06,0,NA,"Rating Scale","Rating Scale",3,"object-5","BIQ",NA,"SUPTM05151"
"4",1689005344888,"10/07/2023 16:09:04",1689008944888,1,"10/07/2023 18:09:04",137495,33,"questionnaire-uu2n",NA,30599844,9085500,NA,"complete",NA,NA,"computer","Desktop or Laptop","Windows 10","Firefox 115.0","1920x1080","958x954",NA,NA,NA,"BIQ (Charlotte)",2,"Anxious",NA,"In","",NA,"DECFBGAHKIJ","","","B (MDot First)",1,231,"Spreadsheet1","Spreadsheet1",1,"BIQ","Screen 1","9dh6eq",1,"response","0",13498.9,25098.94,25115.62,13498.9,25098.94,25115.62,1,13498.9,11616.72,0,NA,"Rating Scale","Rating Scale",10,"object-18","BIQ",NA,"SUPTM05151"
"5",1689005344888,"10/07/2023 16:09:04",1689008944888,1,"10/07/2023 18:09:04",137495,33,"questionnaire-uu2n",NA,30599844,9085500,NA,"complete",NA,NA,"computer","Desktop or Laptop","Windows 10","Firefox 115.0","1920x1080","958x954",NA,NA,NA,"BIQ (Charlotte)",2,"Anxious",NA,"In","",NA,"DECFBGAHKIJ","","","B (MDot First)",1,231,"Spreadsheet1","Spreadsheet1",1,"BIQ","Screen 1","9dh6eq",1,"response","8",22615.6,25098.94,25115.62,22615.6,25098.94,25115.62,1,22615.6,2500.02,0,NA,"Rating Scale","Rating Scale",17,"object-80","BIQ",NA,"SUPTM05151"
"6",1689005359220,"10/07/2023 16:09:19",1689008959220,1,"10/07/2023 18:09:19",137495,33,"questionnaire-uu2n",NA,30599844,9085500,NA,"complete",NA,NA,"computer","Desktop or Laptop","Windows 10","Firefox 115.0","1920x1080","958x954",NA,NA,NA,"BIQ (Charlotte)",2,"Anxious",NA,"In","",NA,"DECFBGAHKIJ","","","B (MDot First)",1,231,"Spreadsheet1","Spreadsheet1",1,"BIQ","Screen 2","o21mwi",2,"continue","",14358.3,14349.98,14358.3,14358.3,14349.98,14358.3,1,14358.3,0,0,NA,"Click To Continue","Continue Button",22,"object-50","BIQ",NA,"SUPTM05151"
"7",1689005359221,"10/07/2023 16:09:19",1689008959221,1,"10/07/2023 18:09:19",137495,33,"questionnaire-uu2n",NA,30599844,9085500,NA,"complete",NA,NA,"computer","Desktop or Laptop","Windows 10","Firefox 115.0","1920x1080","958x954",NA,NA,NA,"BIQ (Charlotte)",2,"Anxious",NA,"In","",NA,"DECFBGAHKIJ","","","B (MDot First)",1,231,"Spreadsheet1","Spreadsheet1",1,"BIQ","Screen 2","o21mwi",2,"response","2",2466.66,14349.98,14359.3,2466.66,14349.98,14359.3,1,2466.66,11892.64,0,NA,"Rating Scale","Rating Scale",2,"object-259","BIQ",NA,"SUPTM05151"
"8",1689005359221,"10/07/2023 16:09:19",1689008959221,1,"10/07/2023 18:09:19",137495,33,"questionnaire-uu2n",NA,30599844,9085500,NA,"complete",NA,NA,"computer","Desktop or Laptop","Windows 10","Firefox 115.0","1920x1080","958x954",NA,NA,NA,"BIQ (Charlotte)",2,"Anxious",NA,"In","",NA,"DECFBGAHKIJ","","","B (MDot First)",1,231,"Spreadsheet1","Spreadsheet1",1,"BIQ","Screen 2","o21mwi",2,"response","8",7533.34,14349.98,14359.3,7533.34,14349.98,14359.3,1,7533.34,6825.96,0,NA,"Rating Scale","Rating Scale",9,"object-36","BIQ",NA,"SUPTM05151"
"9",1689005359221,"10/07/2023 16:09:19",1689008959221,1,"10/07/2023 18:09:19",137495,33,"questionnaire-uu2n",NA,30599844,9085500,NA,"complete",NA,NA,"computer","Desktop or Laptop","Windows 10","Firefox 115.0","1920x1080","958x954",NA,NA,NA,"BIQ (Charlotte)",2,"Anxious",NA,"In","",NA,"DECFBGAHKIJ","","","B (MDot First)",1,231,"Spreadsheet1","Spreadsheet1",1,"BIQ","Screen 2","o21mwi",2,"response","8",13666.66,14349.98,14359.3,13666.66,14349.98,14359.3,1,13666.66,692.639999999999,0,NA,"Rating Scale","Rating Scale",16,"object-86","BIQ",NA,"SUPTM05151"
"10",1689005373446,"10/07/2023 16:09:33",1689008973446,1,"10/07/2023 18:09:33",137495,33,"questionnaire-uu2n",NA,30599844,9085500,NA,"complete",NA,NA,"computer","Desktop or Laptop","Windows 10","Firefox 115.0","1920x1080","958x954",NA,NA,NA,"BIQ (Charlotte)",2,"Anxious",NA,"In","",NA,"DECFBGAHKIJ","","","B (MDot First)",1,231,"Spreadsheet1","Spreadsheet1",1,"BIQ","Screen 3","iz3the",3,"continue","",14235.32,14233.34,14235.32,14235.32,14233.34,14235.32,1,14235.32,0,0,NA,"Click To Continue","Continue Button",22,"object-73","BIQ",NA,"SUPTM05151"
"11",1689005373447,"10/07/2023 16:09:33",1689008973447,1,"10/07/2023 18:09:33",137495,33,"questionnaire-uu2n",NA,30599844,9085500,NA,"complete",NA,NA,"computer","Desktop or Laptop","Windows 10","Firefox 115.0","1920x1080","958x954",NA,NA,NA,"BIQ (Charlotte)",2,"Anxious",NA,"In","",NA,"DECFBGAHKIJ","","","B (MDot First)",1,231,"Spreadsheet1","Spreadsheet1",1,"BIQ","Screen 3","iz3the",3,"response","6",7416.68,14233.34,14236.32,7416.68,14233.34,14236.32,1,7416.68,6819.64,0,NA,"Rating Scale","Rating Scale",2,"object-53","BIQ",NA,"SUPTM05151"
"12",1689005373448,"10/07/2023 16:09:33",1689008973448,1,"10/07/2023 18:09:33",137495,33,"questionnaire-uu2n",NA,30599844,9085500,NA,"complete",NA,NA,"computer","Desktop or Laptop","Windows 10","Firefox 115.0","1920x1080","958x954",NA,NA,NA,"BIQ (Charlotte)",2,"Anxious",NA,"In","",NA,"DECFBGAHKIJ","","","B (MDot First)",1,231,"Spreadsheet1","Spreadsheet1",1,"BIQ","Screen 3","iz3the",3,"response","8",9983.34,14233.34,14236.32,9983.34,14233.34,14236.32,1,9983.34,4252.98,0,NA,"Rating Scale","Rating Scale",9,"object-60","BIQ",NA,"SUPTM05151"
"13",1689005373448,"10/07/2023 16:09:33",1689008973448,1,"10/07/2023 18:09:33",137495,33,"questionnaire-uu2n",NA,30599844,9085500,NA,"complete",NA,NA,"computer","Desktop or Laptop","Windows 10","Firefox 115.0","1920x1080","958x954",NA,NA,NA,"BIQ (Charlotte)",2,"Anxious",NA,"In","",NA,"DECFBGAHKIJ","","","B (MDot First)",1,231,"Spreadsheet1","Spreadsheet1",1,"BIQ","Screen 3","iz3the",3,"response","8",13166.68,14233.34,14236.32,13166.68,14233.34,14236.32,1,13166.68,1069.64,0,NA,"Rating Scale","Rating Scale",16,"object-67","BIQ",NA,"SUPTM05151"
"14",1689005373449,"10/07/2023 16:09:33",1689008973449,1,"10/07/2023 18:09:33",137495,33,"questionnaire-uu2n",NA,30599844,9085500,NA,"complete",NA,NA,"computer","Desktop or Laptop","Windows 10","Firefox 115.0","1920x1080","958x954",NA,NA,NA,"BIQ (Charlotte)",2,"Anxious",NA,"In","",NA,"DECFBGAHKIJ","","","B (MDot First)",1,231,"Spreadsheet1","Spreadsheet1",NA,"","","",NA,"5","END",NA,NA,NA,NA,NA,NA,0,NA,NA,NA,NA,"","",NA,"","",NA,"SUPTM05151"
"1",1689009091100,"10/07/2023 17:11:31",1689012691100,1,"10/07/2023 19:11:31",137495,33,"questionnaire-uu2n",NA,30600805,9085742,NA,"complete",NA,NA,"computer","Desktop or Laptop","Windows 10","Chrome 114.0.0.0","1536x864","1536x714",NA,NA,NA,"BIQ (Charlotte)",2,"Anxious",NA,"In","",NA,"EFDGCHBIAJK","","","B (MDot First)",2,123,"Spreadsheet1","Spreadsheet1",NA,"","","",NA,"5","BEGIN",NA,NA,NA,NA,NA,NA,0,NA,NA,NA,NA,"","",NA,"","",NA,"SUPTM31721"
"2",1689009133992,"10/07/2023 17:12:13",1689012733992,1,"10/07/2023 19:12:13",137495,33,"questionnaire-uu2n",NA,30600805,9085742,NA,"complete",NA,NA,"computer","Desktop or Laptop","Windows 10","Chrome 114.0.0.0","1536x864","1536x714",NA,NA,NA,"BIQ (Charlotte)",2,"Anxious",NA,"In","",NA,"EFDGCHBIAJK","","","B (MDot First)",2,123,"Spreadsheet1","Spreadsheet1",1,"BIQ","Screen 1","9dh6eq",1,"continue","",42898.247,42891.303,42898.247,42898.247,42891.303,42898.247,1,42898.247,0,0,NA,"Click To Continue","Continue Button",23,"object-48","BIQ",NA,"SUPTM31721"
"3",1689009133993,"10/07/2023 17:12:13",1689012733993,1,"10/07/2023 19:12:13",137495,33,"questionnaire-uu2n",NA,30600805,9085742,NA,"complete",NA,NA,"computer","Desktop or Laptop","Windows 10","Chrome 114.0.0.0","1536x864","1536x714",NA,NA,NA,"BIQ (Charlotte)",2,"Anxious",NA,"In","",NA,"EFDGCHBIAJK","","","B (MDot First)",2,123,"Spreadsheet1","Spreadsheet1",1,"BIQ","Screen 1","9dh6eq",1,"response","4",23644.732,42891.303,42898.247,23644.732,42891.303,42898.247,1,23644.732,19253.515,0,NA,"Rating Scale","Rating Scale",3,"object-5","BIQ",NA,"SUPTM31721"
"4",1689009133994,"10/07/2023 17:12:13",1689012733994,1,"10/07/2023 19:12:13",137495,33,"questionnaire-uu2n",NA,30600805,9085742,NA,"complete",NA,NA,"computer","Desktop or Laptop","Windows 10","Chrome 114.0.0.0","1536x864","1536x714",NA,NA,NA,"BIQ (Charlotte)",2,"Anxious",NA,"In","",NA,"EFDGCHBIAJK","","","B (MDot First)",2,123,"Spreadsheet1","Spreadsheet1",1,"BIQ","Screen 1","9dh6eq",1,"response","0",31310.61,42891.303,42898.247,31310.61,42891.303,42898.247,1,31310.61,11587.637,0,NA,"Rating Scale","Rating Scale",10,"object-18","BIQ",NA,"SUPTM31721"
"5",1689009133994,"10/07/2023 17:12:13",1689012733994,1,"10/07/2023 19:12:13",137495,33,"questionnaire-uu2n",NA,30600805,9085742,NA,"complete",NA,NA,"computer","Desktop or Laptop","Windows 10","Chrome 114.0.0.0","1536x864","1536x714",NA,NA,NA,"BIQ (Charlotte)",2,"Anxious",NA,"In","",NA,"EFDGCHBIAJK","","","B (MDot First)",2,123,"Spreadsheet1","Spreadsheet1",1,"BIQ","Screen 1","9dh6eq",1,"response","8",38075.712,42891.303,42898.247,38075.712,42891.303,42898.247,1,38075.712,4822.535,0,NA,"Rating Scale","Rating Scale",17,"object-80","BIQ",NA,"SUPTM31721"
"6",1689009163788,"10/07/2023 17:12:43",1689012763788,1,"10/07/2023 19:12:43",137495,33,"questionnaire-uu2n",NA,30600805,9085742,NA,"complete",NA,NA,"computer","Desktop or Laptop","Windows 10","Chrome 114.0.0.0","1536x864","1536x714",NA,NA,NA,"BIQ (Charlotte)",2,"Anxious",NA,"In","",NA,"EFDGCHBIAJK","","","B (MDot First)",2,123,"Spreadsheet1","Spreadsheet1",1,"BIQ","Screen 2","o21mwi",2,"continue","",29806.9750000238,29800.941,29806.9750000238,29806.9750000238,29800.941,29806.9750000238,1,29806.9750000238,0,0,NA,"Click To Continue","Continue Button",22,"object-50","BIQ",NA,"SUPTM31721"
"7",1689009163791,"10/07/2023 17:12:43",1689012763791,1,"10/07/2023 19:12:43",137495,33,"questionnaire-uu2n",NA,30600805,9085742,NA,"complete",NA,NA,"computer","Desktop or Laptop","Windows 10","Chrome 114.0.0.0","1536x864","1536x714",NA,NA,NA,"BIQ (Charlotte)",2,"Anxious",NA,"In","",NA,"EFDGCHBIAJK","","","B (MDot First)",2,123,"Spreadsheet1","Spreadsheet1",1,"BIQ","Screen 2","o21mwi",2,"response","1",7797.971,29800.941,29807.884,7797.971,29800.941,29807.884,1,7797.971,22009.913,0,NA,"Rating Scale","Rating Scale",2,"object-259","BIQ",NA,"SUPTM31721"
"8",1689009163791,"10/07/2023 17:12:43",1689012763791,1,"10/07/2023 19:12:43",137495,33,"questionnaire-uu2n",NA,30600805,9085742,NA,"complete",NA,NA,"computer","Desktop or Laptop","Windows 10","Chrome 114.0.0.0","1536x864","1536x714",NA,NA,NA,"BIQ (Charlotte)",2,"Anxious",NA,"In","",NA,"EFDGCHBIAJK","","","B (MDot First)",2,123,"Spreadsheet1","Spreadsheet1",1,"BIQ","Screen 2","o21mwi",2,"response","8",11655.821,29800.941,29807.884,11655.821,29800.941,29807.884,1,11655.821,18152.063,0,NA,"Rating Scale","Rating Scale",9,"object-36","BIQ",NA,"SUPTM31721"
"9",1689009163791,"10/07/2023 17:12:43",1689012763791,1,"10/07/2023 19:12:43",137495,33,"questionnaire-uu2n",NA,30600805,9085742,NA,"complete",NA,NA,"computer","Desktop or Laptop","Windows 10","Chrome 114.0.0.0","1536x864","1536x714",NA,NA,NA,"BIQ (Charlotte)",2,"Anxious",NA,"In","",NA,"EFDGCHBIAJK","","","B (MDot First)",2,123,"Spreadsheet1","Spreadsheet1",1,"BIQ","Screen 2","o21mwi",2,"response","4",28614.678,29800.941,29807.884,28614.678,29800.941,29807.884,1,28614.678,1193.20600000001,0,NA,"Rating Scale","Rating Scale",16,"object-86","BIQ",NA,"SUPTM31721"
"10",1689009181369,"10/07/2023 17:13:01",1689012781369,1,"10/07/2023 19:13:01",137495,33,"questionnaire-uu2n",NA,30600805,9085742,NA,"complete",NA,NA,"computer","Desktop or Laptop","Windows 10","Chrome 114.0.0.0","1536x864","1536x714",NA,NA,NA,"BIQ (Charlotte)",2,"Anxious",NA,"In","",NA,"EFDGCHBIAJK","","","B (MDot First)",2,123,"Spreadsheet1","Spreadsheet1",1,"BIQ","Screen 3","iz3the",3,"continue","",17586.2340000715,17582.928,17586.2340000715,17586.2340000715,17582.928,17586.2340000715,1,17586.2340000715,0,0,NA,"Click To Continue","Continue Button",22,"object-73","BIQ",NA,"SUPTM31721"
"11",1689009181370,"10/07/2023 17:13:01",1689012781370,1,"10/07/2023 19:13:01",137495,33,"questionnaire-uu2n",NA,30600805,9085742,NA,"complete",NA,NA,"computer","Desktop or Laptop","Windows 10","Chrome 114.0.0.0","1536x864","1536x714",NA,NA,NA,"BIQ (Charlotte)",2,"Anxious",NA,"In","",NA,"EFDGCHBIAJK","","","B (MDot First)",2,123,"Spreadsheet1","Spreadsheet1",1,"BIQ","Screen 3","iz3the",3,"response","8",8916.068,17582.928,17587.7340000715,8916.068,17582.928,17587.7340000715,1,8916.068,8671.66600007152,0,NA,"Rating Scale","Rating Scale",2,"object-53","BIQ",NA,"SUPTM31721"
"12",1689009181370,"10/07/2023 17:13:01",1689012781370,1,"10/07/2023 19:13:01",137495,33,"questionnaire-uu2n",NA,30600805,9085742,NA,"complete",NA,NA,"computer","Desktop or Laptop","Windows 10","Chrome 114.0.0.0","1536x864","1536x714",NA,NA,NA,"BIQ (Charlotte)",2,"Anxious",NA,"In","",NA,"EFDGCHBIAJK","","","B (MDot First)",2,123,"Spreadsheet1","Spreadsheet1",1,"BIQ","Screen 3","iz3the",3,"response","8",12263.722,17582.928,17588.1340000477,12263.722,17582.928,17588.1340000477,1,12263.722,5324.41200004768,0,NA,"Rating Scale","Rating Scale",9,"object-60","BIQ",NA,"SUPTM31721"
"13",1689009181371,"10/07/2023 17:13:01",1689012781371,1,"10/07/2023 19:13:01",137495,33,"questionnaire-uu2n",NA,30600805,9085742,NA,"complete",NA,NA,"computer","Desktop or Laptop","Windows 10","Chrome 114.0.0.0","1536x864","1536x714",NA,NA,NA,"BIQ (Charlotte)",2,"Anxious",NA,"In","",NA,"EFDGCHBIAJK","","","B (MDot First)",2,123,"Spreadsheet1","Spreadsheet1",1,"BIQ","Screen 3","iz3the",3,"response","8",16940.323,17582.928,17588.3340000954,16940.323,17582.928,17588.3340000954,1,16940.323,648.011000095372,0,NA,"Rating Scale","Rating Scale",16,"object-67","BIQ",NA,"SUPTM31721"
"14",1689009181373,"10/07/2023 17:13:01",1689012781373,1,"10/07/2023 19:13:01",137495,33,"questionnaire-uu2n",NA,30600805,9085742,NA,"complete",NA,NA,"computer","Desktop or Laptop","Windows 10","Chrome 114.0.0.0","1536x864","1536x714",NA,NA,NA,"BIQ (Charlotte)",2,"Anxious",NA,"In","",NA,"EFDGCHBIAJK","","","B (MDot First)",2,123,"Spreadsheet1","Spreadsheet1",NA,"","","",NA,"5","END",NA,NA,NA,NA,NA,NA,0,NA,NA,NA,NA,"","",NA,"","",NA,"SUPTM31721"
"1",1689009934491,"10/07/2023 17:25:34",1689013534491,1,"10/07/2023 19:25:34",137495,33,"questionnaire-uu2n",NA,30601090,9085792,NA,"complete",NA,NA,"computer","Desktop or Laptop","Windows 10","Chrome 114.0.0.0","1707x960","1707x809",NA,NA,NA,"BIQ (Charlotte)",2,"NonAnxious",NA,"In","B",NA,"FGEHDICJBKA","A","","",NA,NA,"Spreadsheet1","Spreadsheet1",NA,"","","",NA,"5","BEGIN",NA,NA,NA,NA,NA,NA,0,NA,NA,NA,NA,"","",NA,"","",NA,"SUPTM34679"
"2",1689011683960,"10/07/2023 17:54:43",1689015283960,1,"10/07/2023 19:54:43",137495,33,"questionnaire-uu2n",NA,30601090,9085792,NA,"complete",NA,NA,"computer","Desktop or Laptop","Windows 10","Chrome 114.0.0.0","1707x960","1707x809",NA,NA,NA,"BIQ (Charlotte)",2,"NonAnxious",NA,"In","B",NA,"FGEHDICJBKA","A","","",NA,NA,"Spreadsheet1","Spreadsheet1",1,"BIQ","Screen 1","9dh6eq",1,"continue","",1749485.094,1749468.315,1749485.094,1749485.094,1749468.315,1749485.094,1,1749485.094,0,0,NA,"Click To Continue","Continue Button",23,"object-48","BIQ",NA,"SUPTM34679"
"3",1689011683964,"10/07/2023 17:54:43",1689015283964,1,"10/07/2023 19:54:43",137495,33,"questionnaire-uu2n",NA,30601090,9085792,NA,"complete",NA,NA,"computer","Desktop or Laptop","Windows 10","Chrome 114.0.0.0","1707x960","1707x809",NA,NA,NA,"BIQ (Charlotte)",2,"NonAnxious",NA,"In","B",NA,"FGEHDICJBKA","A","","",NA,NA,"Spreadsheet1","Spreadsheet1",1,"BIQ","Screen 1","9dh6eq",1,"response","2",1734169.335,1749468.315,1749485.094,1734169.335,1749468.315,1749485.094,1,1734169.335,15315.7590000001,0,NA,"Rating Scale","Rating Scale",3,"object-5","BIQ",NA,"SUPTM34679"
"4",1689011683964,"10/07/2023 17:54:43",1689015283964,1,"10/07/2023 19:54:43",137495,33,"questionnaire-uu2n",NA,30601090,9085792,NA,"complete",NA,NA,"computer","Desktop or Laptop","Windows 10","Chrome 114.0.0.0","1707x960","1707x809",NA,NA,NA,"BIQ (Charlotte)",2,"NonAnxious",NA,"In","B",NA,"FGEHDICJBKA","A","","",NA,NA,"Spreadsheet1","Spreadsheet1",1,"BIQ","Screen 1","9dh6eq",1,"response","4",1743418.823,1749468.315,1749485.094,1743418.823,1749468.315,1749485.094,1,1743418.823,6066.27100000018,0,NA,"Rating Scale","Rating Scale",10,"object-18","BIQ",NA,"SUPTM34679"
"5",1689011683965,"10/07/2023 17:54:43",1689015283965,1,"10/07/2023 19:54:43",137495,33,"questionnaire-uu2n",NA,30601090,9085792,NA,"complete",NA,NA,"computer","Desktop or Laptop","Windows 10","Chrome 114.0.0.0","1707x960","1707x809",NA,NA,NA,"BIQ (Charlotte)",2,"NonAnxious",NA,"In","B",NA,"FGEHDICJBKA","A","","",NA,NA,"Spreadsheet1","Spreadsheet1",1,"BIQ","Screen 1","9dh6eq",1,"response","2",1748901.615,1749468.315,1749485.094,1748901.615,1749468.315,1749485.094,1,1748901.615,583.479000000283,0,NA,"Rating Scale","Rating Scale",17,"object-80","BIQ",NA,"SUPTM34679"
"6",1689011703498,"10/07/2023 17:55:03",1689015303498,1,"10/07/2023 19:55:03",137495,33,"questionnaire-uu2n",NA,30601090,9085792,NA,"complete",NA,NA,"computer","Desktop or Laptop","Windows 10","Chrome 114.0.0.0","1707x960","1707x809",NA,NA,NA,"BIQ (Charlotte)",2,"NonAnxious",NA,"In","B",NA,"FGEHDICJBKA","A","","",NA,NA,"Spreadsheet1","Spreadsheet1",1,"BIQ","Screen 2","o21mwi",2,"continue","",19564.5430000953,19548.4709999999,19564.5430000953,19564.5430000953,19548.4709999999,19564.5430000953,1,19564.5430000953,0,0,NA,"Click To Continue","Continue Button",22,"object-50","BIQ",NA,"SUPTM34679"
"7",1689011703500,"10/07/2023 17:55:03",1689015303500,1,"10/07/2023 19:55:03",137495,33,"questionnaire-uu2n",NA,30601090,9085792,NA,"complete",NA,NA,"computer","Desktop or Laptop","Windows 10","Chrome 114.0.0.0","1707x960","1707x809",NA,NA,NA,"BIQ (Charlotte)",2,"NonAnxious",NA,"In","B",NA,"FGEHDICJBKA","A","","",NA,NA,"Spreadsheet1","Spreadsheet1",1,"BIQ","Screen 2","o21mwi",2,"response","1",6149.45600000001,19548.4709999999,19565.1209999998,6149.45600000001,19548.4709999999,19565.1209999998,1,6149.45600000001,13415.6649999998,0,NA,"Rating Scale","Rating Scale",2,"object-259","BIQ",NA,"SUPTM34679"
"8",1689011703501,"10/07/2023 17:55:03",1689015303501,1,"10/07/2023 19:55:03",137495,33,"questionnaire-uu2n",NA,30601090,9085792,NA,"complete",NA,NA,"computer","Desktop or Laptop","Windows 10","Chrome 114.0.0.0","1707x960","1707x809",NA,NA,NA,"BIQ (Charlotte)",2,"NonAnxious",NA,"In","B",NA,"FGEHDICJBKA","A","","",NA,NA,"Spreadsheet1","Spreadsheet1",1,"BIQ","Screen 2","o21mwi",2,"response","6",9865.86199999996,19548.4709999999,19565.1209999998,9865.86199999996,19548.4709999999,19565.1209999998,1,9865.86199999996,9699.25899999985,0,NA,"Rating Scale","Rating Scale",9,"object-36","BIQ",NA,"SUPTM34679"
"9",1689011703501,"10/07/2023 17:55:03",1689015303501,1,"10/07/2023 19:55:03",137495,33,"questionnaire-uu2n",NA,30601090,9085792,NA,"complete",NA,NA,"computer","Desktop or Laptop","Windows 10","Chrome 114.0.0.0","1707x960","1707x809",NA,NA,NA,"BIQ (Charlotte)",2,"NonAnxious",NA,"In","B",NA,"FGEHDICJBKA","A","","",NA,NA,"Spreadsheet1","Spreadsheet1",1,"BIQ","Screen 2","o21mwi",2,"response","6",18831.922,19548.4709999999,19565.1209999998,18831.922,19548.4709999999,19565.1209999998,1,18831.922,733.19899999979,0,NA,"Rating Scale","Rating Scale",16,"object-86","BIQ",NA,"SUPTM34679"
"10",1689011749757,"10/07/2023 17:55:49",1689015349757,1,"10/07/2023 19:55:49",137495,33,"questionnaire-uu2n",NA,30601090,9085792,NA,"complete",NA,NA,"computer","Desktop or Laptop","Windows 10","Chrome 114.0.0.0","1707x960","1707x809",NA,NA,NA,"BIQ (Charlotte)",2,"NonAnxious",NA,"In","B",NA,"FGEHDICJBKA","A","","",NA,NA,"Spreadsheet1","Spreadsheet1",1,"BIQ","Screen 3","iz3the",3,"continue","",46270.7719999047,46254.6189999999,46270.7719999047,46270.7719999047,46254.6189999999,46270.7719999047,1,46270.7719999047,0,0,NA,"Click To Continue","Continue Button",22,"object-73","BIQ",NA,"SUPTM34679"
"11",1689011749759,"10/07/2023 17:55:49",1689015349759,1,"10/07/2023 19:55:49",137495,33,"questionnaire-uu2n",NA,30601090,9085792,NA,"complete",NA,NA,"computer","Desktop or Laptop","Windows 10","Chrome 114.0.0.0","1707x960","1707x809",NA,NA,NA,"BIQ (Charlotte)",2,"NonAnxious",NA,"In","B",NA,"FGEHDICJBKA","A","","",NA,NA,"Spreadsheet1","Spreadsheet1",1,"BIQ","Screen 3","iz3the",3,"response","2",38521.7309999999,46254.6189999999,46271.4119999998,38521.7309999999,46254.6189999999,46271.4119999998,1,38521.7309999999,7749.68099999987,0,NA,"Rating Scale","Rating Scale",2,"object-53","BIQ",NA,"SUPTM34679"
"12",1689011749760,"10/07/2023 17:55:49",1689015349760,1,"10/07/2023 19:55:49",137495,33,"questionnaire-uu2n",NA,30601090,9085792,NA,"complete",NA,NA,"computer","Desktop or Laptop","Windows 10","Chrome 114.0.0.0","1707x960","1707x809",NA,NA,NA,"BIQ (Charlotte)",2,"NonAnxious",NA,"In","B",NA,"FGEHDICJBKA","A","","",NA,NA,"Spreadsheet1","Spreadsheet1",1,"BIQ","Screen 3","iz3the",3,"response","2",42105.264,46254.6189999999,46271.4119999998,42105.264,46254.6189999999,46271.4119999998,1,42105.264,4166.14799999981,0,NA,"Rating Scale","Rating Scale",9,"object-60","BIQ",NA,"SUPTM34679"
"13",1689011749760,"10/07/2023 17:55:49",1689015349760,1,"10/07/2023 19:55:49",137495,33,"questionnaire-uu2n",NA,30601090,9085792,NA,"complete",NA,NA,"computer","Desktop or Laptop","Windows 10","Chrome 114.0.0.0","1707x960","1707x809",NA,NA,NA,"BIQ (Charlotte)",2,"NonAnxious",NA,"In","B",NA,"FGEHDICJBKA","A","","",NA,NA,"Spreadsheet1","Spreadsheet1",1,"BIQ","Screen 3","iz3the",3,"response","2",45354.676,46254.6189999999,46271.4119999998,45354.676,46254.6189999999,46271.4119999998,1,45354.676,916.735999999801,0,NA,"Rating Scale","Rating Scale",16,"object-67","BIQ",NA,"SUPTM34679"
"14",1689011749766,"10/07/2023 17:55:49",1689015349766,1,"10/07/2023 19:55:49",137495,33,"questionnaire-uu2n",NA,30601090,9085792,NA,"complete",NA,NA,"computer","Desktop or Laptop","Windows 10","Chrome 114.0.0.0","1707x960","1707x809",NA,NA,NA,"BIQ (Charlotte)",2,"NonAnxious",NA,"In","B",NA,"FGEHDICJBKA","A","","",NA,NA,"Spreadsheet1","Spreadsheet1",NA,"","","",NA,"5","END",NA,NA,NA,NA,NA,NA,0,NA,NA,NA,NA,"","",NA,"","",NA,"SUPTM34679"
"1",1689016990141,"10/07/2023 19:23:10",1689020590141,1,"10/07/2023 21:23:10",137495,33,"questionnaire-uu2n",NA,30602683,9086165,NA,"complete",NA,NA,"computer","Desktop or Laptop","Windows 10","Chrome 114.0.0.0","1041x586","1157x494",NA,NA,NA,"BIQ (Charlotte)",2,"Anxious",NA,"In","",NA,"GHFIEJDKCAB","","","B (MDot First)",1,213,"Spreadsheet1","Spreadsheet1",NA,"","","",NA,"5","BEGIN",NA,NA,NA,NA,NA,NA,0,NA,NA,NA,NA,"","",NA,"","",NA,"SUPTM84507"
"2",1689017054528,"10/07/2023 19:24:14",1689020654528,1,"10/07/2023 21:24:14",137495,33,"questionnaire-uu2n",NA,30602683,9086165,NA,"complete",NA,NA,"computer","Desktop or Laptop","Windows 10","Chrome 114.0.0.0","1041x586","1157x494",NA,NA,NA,"BIQ (Charlotte)",2,"Anxious",NA,"In","",NA,"GHFIEJDKCAB","","","B (MDot First)",1,213,"Spreadsheet1","Spreadsheet1",1,"BIQ","Screen 1","9dh6eq",1,"continue","",64408.314,64391.633,64408.314,64408.314,64391.633,64408.314,1,64408.314,0,0,NA,"Click To Continue","Continue Button",23,"object-48","BIQ",NA,"SUPTM84507"
"3",1689017054531,"10/07/2023 19:24:14",1689020654531,1,"10/07/2023 21:24:14",137495,33,"questionnaire-uu2n",NA,30602683,9086165,NA,"complete",NA,NA,"computer","Desktop or Laptop","Windows 10","Chrome 114.0.0.0","1041x586","1157x494",NA,NA,NA,"BIQ (Charlotte)",2,"Anxious",NA,"In","",NA,"GHFIEJDKCAB","","","B (MDot First)",1,213,"Spreadsheet1","Spreadsheet1",1,"BIQ","Screen 1","9dh6eq",1,"response","2",41311.277,64391.633,64408.314,41311.277,64391.633,64408.314,1,41311.277,23097.037,0,NA,"Rating Scale","Rating Scale",3,"object-5","BIQ",NA,"SUPTM84507"
"4",1689017054532,"10/07/2023 19:24:14",1689020654532,1,"10/07/2023 21:24:14",137495,33,"questionnaire-uu2n",NA,30602683,9086165,NA,"complete",NA,NA,"computer","Desktop or Laptop","Windows 10","Chrome 114.0.0.0","1041x586","1157x494",NA,NA,NA,"BIQ (Charlotte)",2,"Anxious",NA,"In","",NA,"GHFIEJDKCAB","","","B (MDot First)",1,213,"Spreadsheet1","Spreadsheet1",1,"BIQ","Screen 1","9dh6eq",1,"response","8",58725.85,64391.633,64408.314,58725.85,64391.633,64408.314,1,58725.85,5682.46399999999,0,NA,"Rating Scale","Rating Scale",10,"object-18","BIQ",NA,"SUPTM84507"
"5",1689017054532,"10/07/2023 19:24:14",1689020654532,1,"10/07/2023 21:24:14",137495,33,"questionnaire-uu2n",NA,30602683,9086165,NA,"complete",NA,NA,"computer","Desktop or Laptop","Windows 10","Chrome 114.0.0.0","1041x586","1157x494",NA,NA,NA,"BIQ (Charlotte)",2,"Anxious",NA,"In","",NA,"GHFIEJDKCAB","","","B (MDot First)",1,213,"Spreadsheet1","Spreadsheet1",1,"BIQ","Screen 1","9dh6eq",1,"response","0",63241.756,64391.633,64408.314,63241.756,64391.633,64408.314,1,63241.756,1166.55799999999,0,NA,"Rating Scale","Rating Scale",17,"object-80","BIQ",NA,"SUPTM84507"
"6",1689017070657,"10/07/2023 19:24:30",1689020670657,1,"10/07/2023 21:24:30",137495,33,"questionnaire-uu2n",NA,30602683,9086165,NA,"complete",NA,NA,"computer","Desktop or Laptop","Windows 10","Chrome 114.0.0.0","1041x586","1157x494",NA,NA,NA,"BIQ (Charlotte)",2,"Anxious",NA,"In","",NA,"GHFIEJDKCAB","","","B (MDot First)",1,213,"Spreadsheet1","Spreadsheet1",1,"BIQ","Screen 2","o21mwi",2,"continue","",16151.232,16147.87,16151.232,16151.232,16147.87,16151.232,1,16151.232,0,0,NA,"Click To Continue","Continue Button",22,"object-50","BIQ",NA,"SUPTM84507"
"7",1689017070661,"10/07/2023 19:24:30",1689020670661,1,"10/07/2023 21:24:30",137495,33,"questionnaire-uu2n",NA,30602683,9086165,NA,"complete",NA,NA,"computer","Desktop or Laptop","Windows 10","Chrome 114.0.0.0","1041x586","1157x494",NA,NA,NA,"BIQ (Charlotte)",2,"Anxious",NA,"In","",NA,"GHFIEJDKCAB","","","B (MDot First)",1,213,"Spreadsheet1","Spreadsheet1",1,"BIQ","Screen 2","o21mwi",2,"response","1",5449.29300000001,16147.87,16154.832,5449.29300000001,16147.87,16154.832,1,5449.29300000001,10705.539,0,NA,"Rating Scale","Rating Scale",2,"object-259","BIQ",NA,"SUPTM84507"
"8",1689017070662,"10/07/2023 19:24:30",1689020670662,1,"10/07/2023 21:24:30",137495,33,"questionnaire-uu2n",NA,30602683,9086165,NA,"complete",NA,NA,"computer","Desktop or Laptop","Windows 10","Chrome 114.0.0.0","1041x586","1157x494",NA,NA,NA,"BIQ (Charlotte)",2,"Anxious",NA,"In","",NA,"GHFIEJDKCAB","","","B (MDot First)",1,213,"Spreadsheet1","Spreadsheet1",1,"BIQ","Screen 2","o21mwi",2,"response","0",10881.904,16147.87,16155.532,10881.904,16147.87,16155.532,1,10881.904,5273.628,0,NA,"Rating Scale","Rating Scale",9,"object-36","BIQ",NA,"SUPTM84507"
"9",1689017070662,"10/07/2023 19:24:30",1689020670662,1,"10/07/2023 21:24:30",137495,33,"questionnaire-uu2n",NA,30602683,9086165,NA,"complete",NA,NA,"computer","Desktop or Laptop","Windows 10","Chrome 114.0.0.0","1041x586","1157x494",NA,NA,NA,"BIQ (Charlotte)",2,"Anxious",NA,"In","",NA,"GHFIEJDKCAB","","","B (MDot First)",1,213,"Spreadsheet1","Spreadsheet1",1,"BIQ","Screen 2","o21mwi",2,"response","0",14998.888,16147.87,16156.232,14998.888,16147.87,16156.232,1,14998.888,1157.34400000001,0,NA,"Rating Scale","Rating Scale",16,"object-86","BIQ",NA,"SUPTM84507"
"10",1689017091949,"10/07/2023 19:24:51",1689020691949,1,"10/07/2023 21:24:51",137495,33,"questionnaire-uu2n",NA,30602683,9086165,NA,"complete",NA,NA,"computer","Desktop or Laptop","Windows 10","Chrome 114.0.0.0","1041x586","1157x494",NA,NA,NA,"BIQ (Charlotte)",2,"Anxious",NA,"In","",NA,"GHFIEJDKCAB","","","B (MDot First)",1,213,"Spreadsheet1","Spreadsheet1",1,"BIQ","Screen 3","iz3the",3,"continue","",21294.962,21280.579,21294.962,21294.962,21280.579,21294.962,1,21294.962,0,0,NA,"Click To Continue","Continue Button",22,"object-73","BIQ",NA,"SUPTM84507"
"11",1689017091952,"10/07/2023 19:24:51",1689020691952,1,"10/07/2023 21:24:51",137495,33,"questionnaire-uu2n",NA,30602683,9086165,NA,"complete",NA,NA,"computer","Desktop or Laptop","Windows 10","Chrome 114.0.0.0","1041x586","1157x494",NA,NA,NA,"BIQ (Charlotte)",2,"Anxious",NA,"In","",NA,"GHFIEJDKCAB","","","B (MDot First)",1,213,"Spreadsheet1","Spreadsheet1",1,"BIQ","Screen 3","iz3the",3,"response","0",6799.143,21280.579,21297.252,6799.143,21280.579,21297.252,1,6799.143,14498.109,0,NA,"Rating Scale","Rating Scale",2,"object-53","BIQ",NA,"SUPTM84507"
"12",1689017091953,"10/07/2023 19:24:51",1689020691953,1,"10/07/2023 21:24:51",137495,33,"questionnaire-uu2n",NA,30602683,9086165,NA,"complete",NA,NA,"computer","Desktop or Laptop","Windows 10","Chrome 114.0.0.0","1041x586","1157x494",NA,NA,NA,"BIQ (Charlotte)",2,"Anxious",NA,"In","",NA,"GHFIEJDKCAB","","","B (MDot First)",1,213,"Spreadsheet1","Spreadsheet1",1,"BIQ","Screen 3","iz3the",3,"response","0",16681.164,21280.579,21297.252,16681.164,21280.579,21297.252,1,16681.164,4616.088,0,NA,"Rating Scale","Rating Scale",9,"object-60","BIQ",NA,"SUPTM84507"
"13",1689017091953,"10/07/2023 19:24:51",1689020691953,1,"10/07/2023 21:24:51",137495,33,"questionnaire-uu2n",NA,30602683,9086165,NA,"complete",NA,NA,"computer","Desktop or Laptop","Windows 10","Chrome 114.0.0.0","1041x586","1157x494",NA,NA,NA,"BIQ (Charlotte)",2,"Anxious",NA,"In","",NA,"GHFIEJDKCAB","","","B (MDot First)",1,213,"Spreadsheet1","Spreadsheet1",1,"BIQ","Screen 3","iz3the",3,"response","4",19847.416,21280.579,21297.252,19847.416,21280.579,21297.252,1,19847.416,1449.836,0,NA,"Rating Scale","Rating Scale",16,"object-67","BIQ",NA,"SUPTM84507"
"14",1689017091958,"10/07/2023 19:24:51",1689020691958,1,"10/07/2023 21:24:51",137495,33,"questionnaire-uu2n",NA,30602683,9086165,NA,"complete",NA,NA,"computer","Desktop or Laptop","Windows 10","Chrome 114.0.0.0","1041x586","1157x494",NA,NA,NA,"BIQ (Charlotte)",2,"Anxious",NA,"In","",NA,"GHFIEJDKCAB","","","B (MDot First)",1,213,"Spreadsheet1","Spreadsheet1",NA,"","","",NA,"5","END",NA,NA,NA,NA,NA,NA,0,NA,NA,NA,NA,"","",NA,"","",NA,"SUPTM84507"
"1",1689022573695,"10/07/2023 20:56:13",1689026173695,1,"10/07/2023 22:56:13",137495,33,"questionnaire-uu2n",NA,30603843,9086484,NA,"complete",NA,NA,"computer","Desktop or Laptop","Windows 10","Edge 114.0.1823.67","1536x864","1434x696",NA,NA,NA,"BIQ (Charlotte)",2,"Anxious",NA,"In","",NA,"HIGJFKEADBC","","","B (MDot First)",2,321,"Spreadsheet1","Spreadsheet1",NA,"","","",NA,"5","BEGIN",NA,NA,NA,NA,NA,NA,0,NA,NA,NA,NA,"","",NA,"","",NA,"SUPTM16544"
"2",1689022645624,"10/07/2023 20:57:25",1689026245624,1,"10/07/2023 22:57:25",137495,33,"questionnaire-uu2n",NA,30603843,9086484,NA,"complete",NA,NA,"computer","Desktop or Laptop","Windows 10","Edge 114.0.1823.67","1536x864","1434x696",NA,NA,NA,"BIQ (Charlotte)",2,"Anxious",NA,"In","",NA,"HIGJFKEADBC","","","B (MDot First)",2,321,"Spreadsheet1","Spreadsheet1",1,"BIQ","Screen 1","9dh6eq",1,"continue","",72502.5,72488.12,72502.5,72502.5,72488.12,72502.5,1,72502.5,0,0,NA,"Click To Continue","Continue Button",23,"object-48","BIQ",NA,"SUPTM16544"
"3",1689022645628,"10/07/2023 20:57:25",1689026245628,1,"10/07/2023 22:57:25",137495,33,"questionnaire-uu2n",NA,30603843,9086484,NA,"complete",NA,NA,"computer","Desktop or Laptop","Windows 10","Edge 114.0.1823.67","1536x864","1434x696",NA,NA,NA,"BIQ (Charlotte)",2,"Anxious",NA,"In","",NA,"HIGJFKEADBC","","","B (MDot First)",2,321,"Spreadsheet1","Spreadsheet1",1,"BIQ","Screen 1","9dh6eq",1,"response","5",35559.145,72488.12,72504.79,35559.145,72488.12,72504.79,1,35559.145,36945.645,0,NA,"Rating Scale","Rating Scale",3,"object-5","BIQ",NA,"SUPTM16544"
"4",1689022645628,"10/07/2023 20:57:25",1689026245628,1,"10/07/2023 22:57:25",137495,33,"questionnaire-uu2n",NA,30603843,9086484,NA,"complete",NA,NA,"computer","Desktop or Laptop","Windows 10","Edge 114.0.1823.67","1536x864","1434x696",NA,NA,NA,"BIQ (Charlotte)",2,"Anxious",NA,"In","",NA,"HIGJFKEADBC","","","B (MDot First)",2,321,"Spreadsheet1","Spreadsheet1",1,"BIQ","Screen 1","9dh6eq",1,"response","2",51456.971,72488.12,72504.79,51456.971,72488.12,72504.79,1,51456.971,21047.819,0,NA,"Rating Scale","Rating Scale",10,"object-18","BIQ",NA,"SUPTM16544"
"5",1689022645629,"10/07/2023 20:57:25",1689026245629,1,"10/07/2023 22:57:25",137495,33,"questionnaire-uu2n",NA,30603843,9086484,NA,"complete",NA,NA,"computer","Desktop or Laptop","Windows 10","Edge 114.0.1823.67","1536x864","1434x696",NA,NA,NA,"BIQ (Charlotte)",2,"Anxious",NA,"In","",NA,"HIGJFKEADBC","","","B (MDot First)",2,321,"Spreadsheet1","Spreadsheet1",1,"BIQ","Screen 1","9dh6eq",1,"response","3",69921.75,72488.12,72504.79,69921.75,72488.12,72504.79,1,69921.75,2583.03999999999,0,NA,"Rating Scale","Rating Scale",17,"object-80","BIQ",NA,"SUPTM16544"
"6",1689022692227,"10/07/2023 20:58:12",1689026292227,1,"10/07/2023 22:58:12",137495,33,"questionnaire-uu2n",NA,30603843,9086484,NA,"complete",NA,NA,"computer","Desktop or Laptop","Windows 10","Edge 114.0.1823.67","1536x864","1434x696",NA,NA,NA,"BIQ (Charlotte)",2,"Anxious",NA,"In","",NA,"HIGJFKEADBC","","","B (MDot First)",2,321,"Spreadsheet1","Spreadsheet1",1,"BIQ","Screen 2","o21mwi",2,"continue","",46617.1800001907,46610.717,46617.1800001907,46617.1800001907,46610.717,46617.1800001907,1,46617.1800001907,0,0,NA,"Click To Continue","Continue Button",22,"object-50","BIQ",NA,"SUPTM16544"
"7",1689022692231,"10/07/2023 20:58:12",1689026292231,1,"10/07/2023 22:58:12",137495,33,"questionnaire-uu2n",NA,30603843,9086484,NA,"complete",NA,NA,"computer","Desktop or Laptop","Windows 10","Edge 114.0.1823.67","1536x864","1434x696",NA,NA,NA,"BIQ (Charlotte)",2,"Anxious",NA,"In","",NA,"HIGJFKEADBC","","","B (MDot First)",2,321,"Spreadsheet1","Spreadsheet1",1,"BIQ","Screen 2","o21mwi",2,"response","7",9715.59400000001,46610.717,46621.38,9715.59400000001,46610.717,46621.38,1,9715.59400000001,36905.786,0,NA,"Rating Scale","Rating Scale",2,"object-259","BIQ",NA,"SUPTM16544"
"8",1689022692231,"10/07/2023 20:58:12",1689026292231,1,"10/07/2023 22:58:12",137495,33,"questionnaire-uu2n",NA,30603843,9086484,NA,"complete",NA,NA,"computer","Desktop or Laptop","Windows 10","Edge 114.0.1823.67","1536x864","1434x696",NA,NA,NA,"BIQ (Charlotte)",2,"Anxious",NA,"In","",NA,"HIGJFKEADBC","","","B (MDot First)",2,321,"Spreadsheet1","Spreadsheet1",1,"BIQ","Screen 2","o21mwi",2,"response","5",19014.026,46610.717,46621.7800000954,19014.026,46610.717,46621.7800000954,1,19014.026,27607.7540000954,0,NA,"Rating Scale","Rating Scale",9,"object-36","BIQ",NA,"SUPTM16544"
"9",1689022692231,"10/07/2023 20:58:12",1689026292231,1,"10/07/2023 22:58:12",137495,33,"questionnaire-uu2n",NA,30603843,9086484,NA,"complete",NA,NA,"computer","Desktop or Laptop","Windows 10","Edge 114.0.1823.67","1536x864","1434x696",NA,NA,NA,"BIQ (Charlotte)",2,"Anxious",NA,"In","",NA,"HIGJFKEADBC","","","B (MDot First)",2,321,"Spreadsheet1","Spreadsheet1",1,"BIQ","Screen 2","o21mwi",2,"response","6",45427.534,46610.717,46622.0800002861,45427.534,46610.717,46622.0800002861,1,45427.534,1194.54600028611,0,NA,"Rating Scale","Rating Scale",16,"object-86","BIQ",NA,"SUPTM16544"
"10",1689022740760,"10/07/2023 20:59:00",1689026340760,1,"10/07/2023 22:59:00",137495,33,"questionnaire-uu2n",NA,30603843,9086484,NA,"complete",NA,NA,"computer","Desktop or Laptop","Windows 10","Edge 114.0.1823.67","1536x864","1434x696",NA,NA,NA,"BIQ (Charlotte)",2,"Anxious",NA,"In","",NA,"HIGJFKEADBC","","","B (MDot First)",2,321,"Spreadsheet1","Spreadsheet1",1,"BIQ","Screen 3","iz3the",3,"continue","",48539.5630000954,48527.905,48539.5630000954,48539.5630000954,48527.905,48539.5630000954,1,48539.5630000954,0,0,NA,"Click To Continue","Continue Button",22,"object-73","BIQ",NA,"SUPTM16544"
"11",1689022740762,"10/07/2023 20:59:00",1689026340762,1,"10/07/2023 22:59:00",137495,33,"questionnaire-uu2n",NA,30603843,9086484,NA,"complete",NA,NA,"computer","Desktop or Laptop","Windows 10","Edge 114.0.1823.67","1536x864","1434x696",NA,NA,NA,"BIQ (Charlotte)",2,"Anxious",NA,"In","",NA,"HIGJFKEADBC","","","B (MDot First)",2,321,"Spreadsheet1","Spreadsheet1",1,"BIQ","Screen 3","iz3the",3,"response","2",23230.537,48527.905,48541.663,23230.537,48527.905,48541.663,1,23230.537,25311.126,0,NA,"Rating Scale","Rating Scale",2,"object-53","BIQ",NA,"SUPTM16544"
"12",1689022740762,"10/07/2023 20:59:00",1689026340762,1,"10/07/2023 22:59:00",137495,33,"questionnaire-uu2n",NA,30603843,9086484,NA,"complete",NA,NA,"computer","Desktop or Laptop","Windows 10","Edge 114.0.1823.67","1536x864","1434x696",NA,NA,NA,"BIQ (Charlotte)",2,"Anxious",NA,"In","",NA,"HIGJFKEADBC","","","B (MDot First)",2,321,"Spreadsheet1","Spreadsheet1",1,"BIQ","Screen 3","iz3the",3,"response","5",33913.121,48527.905,48542.0630000954,33913.121,48527.905,48542.0630000954,1,33913.121,14628.9420000954,0,NA,"Rating Scale","Rating Scale",9,"object-60","BIQ",NA,"SUPTM16544"
