"Event.Index","UTC.Timestamp","UTC.Date.and.Time","Local.Timestamp","Local.Timezone","Local.Date.and.Time","Experiment.ID","Experiment.Version","Tree.Node.Key","Repeat.Key","Schedule.ID","Participant.Private.ID","Participant.Starting.Group","Participant.Status","Participant.Completion.Code","Participant.External.Session.ID","Participant.Device.Type","Participant.Device","Participant.OS","Participant.Browser","Participant.Monitor.Size","Participant.Viewport.Size","Checkpoint","Room.ID","Room.Order","Task.Name","Task.Version","branch.ln1a","randomiser.vzsr","branch.hkzp","randomiser.ywar","randomiser.q6ah","order.ot79","randomiser.ahe2","randomiser.ckhi","randomiser.lqqr","randomiser.pobd","randomiser.8gdj","Spreadsheet","Current.Spreadsheet","Trial.Number","Display","Screen","Screen.ID","Screen.Counter","Response.Type","Response","Onset.Time","Clock.Time","Reaction.Time","Absolute.Onset.Time","Absolute.Clock.Time","Absolute.Reaction.Time","Correct","Response.Onset","Response.Duration","Proportion","Tag","Component.Name","Object.Name","Object.Number","Object.ID","Spreadsheet..display","Spreadsheet..stimulus","Manipulation..Spreadsheet","Random_ID"
"1",1689026401219,"10/07/2023 22:00:01",1689030001219,1,"11/07/2023 00:00:01",137495,33,"task-mb68",NA,30604379,9086484,NA,"complete",NA,NA,"computer","Desktop or Laptop","Windows 10","Edge 114.0.1823.67","1536x864","1147x603",NA,NA,NA,"JV Task P1",8,"Anxious",NA,"In",NA,NA,"HIGJFKEADBC",NA,NA,"B (MDot First)",2,321,"SS1","SS1",NA,"","","",NA,"5","BEGIN",NA,NA,NA,NA,NA,NA,0,NA,NA,NA,NA,"","",NA,"","","",NA,"SUPTM16544"
"2",1689026405223,"10/07/2023 22:00:05",1689030005223,1,"11/07/2023 00:00:05",137495,33,"task-mb68",NA,30604379,9086484,NA,"complete",NA,NA,"computer","Desktop or Laptop","Windows 10","Edge 114.0.1823.67","1536x864","1147x603",NA,NA,NA,"JV Task P1",8,"Anxious",NA,"In",NA,NA,"HIGJFKEADBC",NA,NA,"B (MDot First)",2,321,"SS1","SS1",1,"J","Judginess","w2ir4b",1,"continue","",3592.62299980926,3583.249,3592.62299980926,3592.62299980926,3583.249,3592.62299980926,1,3592.62299980926,0,0,NA,"Click To Continue","Continue Button",1,"object-14","J","CFD-WF-031-027-H.jpeg",NA,"SUPTM16544"
"3",1689026405225,"10/07/2023 22:00:05",1689030005225,1,"11/07/2023 00:00:05",137495,33,"task-mb68",NA,30604379,9086484,NA,"complete",NA,NA,"computer","Desktop or Laptop","Windows 10","Edge 114.0.1823.67","1536x864","1147x603",NA,NA,NA,"JV Task P1",8,"Anxious",NA,"In",NA,NA,"HIGJFKEADBC",NA,NA,"B (MDot First)",2,321,"SS1","SS1",1,"J","Judginess","w2ir4b",1,"response","75",2816.663,3583.249,3594.52299990463,2816.663,3583.249,3594.52299990463,1,2816.663,777.859999904633,0,NA,"Slider","J",3,"object-18","J","CFD-WF-031-027-H.jpeg",NA,"SUPTM16544"
"4",1689026406181,"10/07/2023 22:00:06",1689030006181,1,"11/07/2023 00:00:06",137495,33,"task-mb68",NA,30604379,9086484,NA,"complete",NA,NA,"computer","Desktop or Laptop","Windows 10","Edge 114.0.1823.67","1536x864","1147x603",NA,NA,NA,"JV Task P1",8,"Anxious",NA,"In",NA,NA,"HIGJFKEADBC",NA,NA,"B (MDot First)",2,321,"SS1","SS1",1,"J","Fixation","mtm832",2,"continue","",966.554,966.554,966.554,966.554,966.554,966.554,1,966.554,0,0,NA,"Fixation Timing","Fixation",1,"object-65","J","CFD-WF-031-027-H.jpeg",NA,"SUPTM16544"
"5",1689026408771,"10/07/2023 22:00:08",1689030008771,1,"11/07/2023 00:00:08",137495,33,"task-mb68",NA,30604379,9086484,NA,"complete",NA,NA,"computer","Desktop or Laptop","Windows 10","Edge 114.0.1823.67","1536x864","1147x603",NA,NA,NA,"JV Task P1",8,"Anxious",NA,"In",NA,NA,"HIGJFKEADBC",NA,NA,"B (MDot First)",2,321,"SS1","SS1",2,"J","Judginess","w2ir4b",1,"continue","",2591.02000009537,2582.705,2591.02000009537,2591.02000009537,2582.705,2591.02000009537,1,2591.02000009537,0,0,NA,"Click To Continue","Continue Button",1,"object-14","J","CFD-IF-693-172-N.jpg",NA,"SUPTM16544"
"6",1689026408772,"10/07/2023 22:00:08",1689030008772,1,"11/07/2023 00:00:08",137495,33,"task-mb68",NA,30604379,9086484,NA,"complete",NA,NA,"computer","Desktop or Laptop","Windows 10","Edge 114.0.1823.67","1536x864","1147x603",NA,NA,NA,"JV Task P1",8,"Anxious",NA,"In",NA,NA,"HIGJFKEADBC",NA,NA,"B (MDot First)",2,321,"SS1","SS1",2,"J","Judginess","w2ir4b",1,"response","64",1616.114,2582.705,2591.81999980927,1616.114,2582.705,2591.81999980927,1,1616.114,975.705999809265,0,NA,"Slider","J",3,"object-18","J","CFD-IF-693-172-N.jpg",NA,"SUPTM16544"
"7",1689026409730,"10/07/2023 22:00:09",1689030009730,1,"11/07/2023 00:00:09",137495,33,"task-mb68",NA,30604379,9086484,NA,"complete",NA,NA,"computer","Desktop or Laptop","Windows 10","Edge 114.0.1823.67","1536x864","1147x603",NA,NA,NA,"JV Task P1",8,"Anxious",NA,"In",NA,NA,"HIGJFKEADBC",NA,NA,"B (MDot First)",2,321,"SS1","SS1",2,"J","Fixation","mtm832",2,"continue","",966.884,966.884,966.884,966.884,966.884,966.884,1,966.884,0,0,NA,"Fixation Timing","Fixation",1,"object-65","J","CFD-IF-693-172-N.jpg",NA,"SUPTM16544"
"8",1689026413562,"10/07/2023 22:00:13",1689030013562,1,"11/07/2023 00:00:13",137495,33,"task-mb68",NA,30604379,9086484,NA,"complete",NA,NA,"computer","Desktop or Laptop","Windows 10","Edge 114.0.1823.67","1536x864","1147x603",NA,NA,NA,"JV Task P1",8,"Anxious",NA,"In",NA,NA,"HIGJFKEADBC",NA,NA,"B (MDot First)",2,321,"SS1","SS1",3,"J","Judginess","w2ir4b",1,"continue","",3832.63099990463,3816.022,3832.63099990463,3832.63099990463,3816.022,3832.63099990463,1,3832.63099990463,0,0,NA,"Click To Continue","Continue Button",1,"object-14","J","CFD-IM-711-011-H.jpeg",NA,"SUPTM16544"
"9",1689026413570,"10/07/2023 22:00:13",1689030013570,1,"11/07/2023 00:00:13",137495,33,"task-mb68",NA,30604379,9086484,NA,"complete",NA,NA,"computer","Desktop or Laptop","Windows 10","Edge 114.0.1823.67","1536x864","1147x603",NA,NA,NA,"JV Task P1",8,"Anxious",NA,"In",NA,NA,"HIGJFKEADBC",NA,NA,"B (MDot First)",2,321,"SS1","SS1",3,"J","Judginess","w2ir4b",1,"response","79",2766.335,3816.022,3832.839,2766.335,3816.022,3832.839,1,2766.335,1066.504,0,NA,"Slider","J",3,"object-18","J","CFD-IM-711-011-H.jpeg",NA,"SUPTM16544"
"10",1689026414514,"10/07/2023 22:00:14",1689030014514,1,"11/07/2023 00:00:14",137495,33,"task-mb68",NA,30604379,9086484,NA,"complete",NA,NA,"computer","Desktop or Laptop","Windows 10","Edge 114.0.1823.67","1536x864","1147x603",NA,NA,NA,"JV Task P1",8,"Anxious",NA,"In",NA,NA,"HIGJFKEADBC",NA,NA,"B (MDot First)",2,321,"SS1","SS1",3,"J","Fixation","mtm832",2,"continue","",966.721,966.721,966.721,966.721,966.721,966.721,1,966.721,0,0,NA,"Fixation Timing","Fixation",1,"object-65","J","CFD-IM-711-011-H.jpeg",NA,"SUPTM16544"
"11",1689026417522,"10/07/2023 22:00:17",1689030017522,1,"11/07/2023 00:00:17",137495,33,"task-mb68",NA,30604379,9086484,NA,"complete",NA,NA,"computer","Desktop or Laptop","Windows 10","Edge 114.0.1823.67","1536x864","1147x603",NA,NA,NA,"JV Task P1",8,"Anxious",NA,"In",NA,NA,"HIGJFKEADBC",NA,NA,"B (MDot First)",2,321,"SS1","SS1",1,"V","Valence","sn1sjn",1,"continue","",3010.0879997139,2999.258,3010.0879997139,3010.0879997139,2999.258,3010.0879997139,1,3010.0879997139,0,0,NA,"Click To Continue","Continue Button",1,"object-25","V","CFD-BM-028-002-H.jpeg",NA,"SUPTM16544"
"12",1689026417523,"10/07/2023 22:00:17",1689030017523,1,"11/07/2023 00:00:17",137495,33,"task-mb68",NA,30604379,9086484,NA,"complete",NA,NA,"computer","Desktop or Laptop","Windows 10","Edge 114.0.1823.67","1536x864","1147x603",NA,NA,NA,"JV Task P1",8,"Anxious",NA,"In",NA,NA,"HIGJFKEADBC",NA,NA,"B (MDot First)",2,321,"SS1","SS1",1,"V","Valence","sn1sjn",1,"response","60",2232.66,2999.258,3010.5879997139,2232.66,2999.258,3010.5879997139,1,2232.66,777.927999713898,0,NA,"Slider","J",3,"object-27","V","CFD-BM-028-002-H.jpeg",NA,"SUPTM16544"
"13",1689026418479,"10/07/2023 22:00:18",1689030018479,1,"11/07/2023 00:00:18",137495,33,"task-mb68",NA,30604379,9086484,NA,"complete",NA,NA,"computer","Desktop or Laptop","Windows 10","Edge 114.0.1823.67","1536x864","1147x603",NA,NA,NA,"JV Task P1",8,"Anxious",NA,"In",NA,NA,"HIGJFKEADBC",NA,NA,"B (MDot First)",2,321,"SS1","SS1",1,"V","Fixation","aydkg3",2,"continue","",966.789999999997,966.789999999997,966.789999999997,966.789999999997,966.789999999997,966.789999999997,1,966.789999999997,0,0,NA,"Fixation Timing","Fixation",1,"object-21","V","CFD-BM-028-002-H.jpeg",NA,"SUPTM16544"
"14",1689026422418,"10/07/2023 22:00:22",1689030022418,1,"11/07/2023 00:00:22",137495,33,"task-mb68",NA,30604379,9086484,NA,"complete",NA,NA,"computer","Desktop or Laptop","Windows 10","Edge 114.0.1823.67","1536x864","1147x603",NA,NA,NA,"JV Task P1",8,"Anxious",NA,"In",NA,NA,"HIGJFKEADBC",NA,NA,"B (MDot First)",2,321,"SS1","SS1",2,"V","Valence","sn1sjn",1,"continue","",3940.24,3932.613,3940.24,3940.24,3932.613,3940.24,1,3940.24,0,0,NA,"Click To Continue","Continue Button",1,"object-25","V","CFD-WF-006-002-S.jpeg",NA,"SUPTM16544"
"15",1689026422420,"10/07/2023 22:00:22",1689030022420,1,"11/07/2023 00:00:22",137495,33,"task-mb68",NA,30604379,9086484,NA,"complete",NA,NA,"computer","Desktop or Laptop","Windows 10","Edge 114.0.1823.67","1536x864","1147x603",NA,NA,NA,"JV Task P1",8,"Anxious",NA,"In",NA,NA,"HIGJFKEADBC",NA,NA,"B (MDot First)",2,321,"SS1","SS1",2,"V","Valence","sn1sjn",1,"response","10",3133.125,3932.613,3942.14000009537,3133.125,3932.613,3942.14000009537,1,3133.125,809.015000095369,0,NA,"Slider","J",3,"object-27","V","CFD-WF-006-002-S.jpeg",NA,"SUPTM16544"
"16",1689026423379,"10/07/2023 22:00:23",1689030023379,1,"11/07/2023 00:00:23",137495,33,"task-mb68",NA,30604379,9086484,NA,"complete",NA,NA,"computer","Desktop or Laptop","Windows 10","Edge 114.0.1823.67","1536x864","1147x603",NA,NA,NA,"JV Task P1",8,"Anxious",NA,"In",NA,NA,"HIGJFKEADBC",NA,NA,"B (MDot First)",2,321,"SS1","SS1",2,"V","Fixation","aydkg3",2,"continue","",967.023000000001,967.023000000001,967.023000000001,967.023000000001,967.023000000001,967.023000000001,1,967.023000000001,0,0,NA,"Fixation Timing","Fixation",1,"object-21","V","CFD-WF-006-002-S.jpeg",NA,"SUPTM16544"
"17",1689026427757,"10/07/2023 22:00:27",1689030027757,1,"11/07/2023 00:00:27",137495,33,"task-mb68",NA,30604379,9086484,NA,"complete",NA,NA,"computer","Desktop or Laptop","Windows 10","Edge 114.0.1823.67","1536x864","1147x603",NA,NA,NA,"JV Task P1",8,"Anxious",NA,"In",NA,NA,"HIGJFKEADBC",NA,NA,"B (MDot First)",2,321,"SS1","SS1",3,"V","Valence","sn1sjn",1,"continue","",4379.604,4365.987,4379.604,4379.604,4365.987,4379.604,1,4379.604,0,0,NA,"Click To Continue","Continue Button",1,"object-25","V","CFD-AM-220-134-S.jpeg",NA,"SUPTM16544"
"18",1689026427767,"10/07/2023 22:00:27",1689030027767,1,"11/07/2023 00:00:27",137495,33,"task-mb68",NA,30604379,9086484,NA,"complete",NA,NA,"computer","Desktop or Laptop","Windows 10","Edge 114.0.1823.67","1536x864","1147x603",NA,NA,NA,"JV Task P1",8,"Anxious",NA,"In",NA,NA,"HIGJFKEADBC",NA,NA,"B (MDot First)",2,321,"SS1","SS1",3,"V","Valence","sn1sjn",1,"response","34",3399.446,4365.987,4382.636,3399.446,4365.987,4382.636,1,3399.446,983.190000000002,0,NA,"Slider","J",3,"object-27","V","CFD-AM-220-134-S.jpeg",NA,"SUPTM16544"
"19",1689026428711,"10/07/2023 22:00:28",1689030028711,1,"11/07/2023 00:00:28",137495,33,"task-mb68",NA,30604379,9086484,NA,"complete",NA,NA,"computer","Desktop or Laptop","Windows 10","Edge 114.0.1823.67","1536x864","1147x603",NA,NA,NA,"JV Task P1",8,"Anxious",NA,"In",NA,NA,"HIGJFKEADBC",NA,NA,"B (MDot First)",2,321,"SS1","SS1",3,"V","Fixation","aydkg3",2,"continue","",966.610999999997,966.610999999997,966.610999999997,966.610999999997,966.610999999997,966.610999999997,1,966.610999999997,0,0,NA,"Fixation Timing","Fixation",1,"object-21","V","CFD-AM-220-134-S.jpeg",NA,"SUPTM16544"
"20",1689026433869,"10/07/2023 22:00:33",1689030033869,1,"11/07/2023 00:00:33",137495,33,"task-mb68",NA,30604379,9086484,NA,"complete",NA,NA,"computer","Desktop or Laptop","Windows 10","Edge 114.0.1823.67","1536x864","1147x603",NA,NA,NA,"JV Task P1",8,"Anxious",NA,"In",NA,NA,"HIGJFKEADBC",NA,NA,"B (MDot First)",2,321,"SS1","SS1",4,"J","Judginess","w2ir4b",1,"continue","",5158.20599980927,5149.448,5158.20599980927,5158.20599980927,5149.448,5158.20599980927,1,5158.20599980927,0,0,NA,"Click To Continue","Continue Button",1,"object-14","J","CFD-WF-022-017-N.jpg",NA,"SUPTM16544"
"21",1689026433869,"10/07/2023 22:00:33",1689030033869,1,"11/07/2023 00:00:33",137495,33,"task-mb68",NA,30604379,9086484,NA,"complete",NA,NA,"computer","Desktop or Laptop","Windows 10","Edge 114.0.1823.67","1536x864","1147x603",NA,NA,NA,"JV Task P1",8,"Anxious",NA,"In",NA,NA,"HIGJFKEADBC",NA,NA,"B (MDot First)",2,321,"SS1","SS1",4,"J","Judginess","w2ir4b",1,"response","87",4549.488,5149.448,5159.006,4549.488,5149.448,5159.006,1,4549.488,609.517999999996,0,NA,"Slider","J",3,"object-18","J","CFD-WF-022-017-N.jpg",NA,"SUPTM16544"
"22",1689026434827,"10/07/2023 22:00:34",1689030034827,1,"11/07/2023 00:00:34",137495,33,"task-mb68",NA,30604379,9086484,NA,"complete",NA,NA,"computer","Desktop or Laptop","Windows 10","Edge 114.0.1823.67","1536x864","1147x603",NA,NA,NA,"JV Task P1",8,"Anxious",NA,"In",NA,NA,"HIGJFKEADBC",NA,NA,"B (MDot First)",2,321,"SS1","SS1",4,"J","Fixation","mtm832",2,"continue","",966.129999999997,966.129999999997,966.129999999997,966.129999999997,966.129999999997,966.129999999997,1,966.129999999997,0,0,NA,"Fixation Timing","Fixation",1,"object-65","J","CFD-WF-022-017-N.jpg",NA,"SUPTM16544"
"23",1689026436840,"10/07/2023 22:00:36",1689030036840,1,"11/07/2023 00:00:36",137495,33,"task-mb68",NA,30604379,9086484,NA,"complete",NA,NA,"computer","Desktop or Laptop","Windows 10","Edge 114.0.1823.67","1536x864","1147x603",NA,NA,NA,"JV Task P1",8,"Anxious",NA,"In",NA,NA,"HIGJFKEADBC",NA,NA,"B (MDot First)",2,321,"SS1","SS1",5,"J","Judginess","w2ir4b",1,"continue","",2014.2279997139,2000.144,2014.2279997139,2014.2279997139,2000.144,2014.2279997139,1,2014.2279997139,0,0,NA,"Click To Continue","Continue Button",1,"object-14","J","CFD-WM-024-015-H.jpeg",NA,"SUPTM16544"
"24",1689026436841,"10/07/2023 22:00:36",1689030036841,1,"11/07/2023 00:00:36",137495,33,"task-mb68",NA,30604379,9086484,NA,"complete",NA,NA,"computer","Desktop or Laptop","Windows 10","Edge 114.0.1823.67","1536x864","1147x603",NA,NA,NA,"JV Task P1",8,"Anxious",NA,"In",NA,NA,"HIGJFKEADBC",NA,NA,"B (MDot First)",2,321,"SS1","SS1",5,"J","Judginess","w2ir4b",1,"response","75",1516.915,2000.144,2015.12799980927,1516.915,2000.144,2015.12799980927,1,1516.915,498.212999809264,0,NA,"Slider","J",3,"object-18","J","CFD-WM-024-015-H.jpeg",NA,"SUPTM16544"
"25",1689026437793,"10/07/2023 22:00:37",1689030037793,1,"11/07/2023 00:00:37",137495,33,"task-mb68",NA,30604379,9086484,NA,"complete",NA,NA,"computer","Desktop or Laptop","Windows 10","Edge 114.0.1823.67","1536x864","1147x603",NA,NA,NA,"JV Task P1",8,"Anxious",NA,"In",NA,NA,"HIGJFKEADBC",NA,NA,"B (MDot First)",2,321,"SS1","SS1",5,"J","Fixation","mtm832",2,"continue","",966.163,966.163,966.163,966.163,966.163,966.163,1,966.163,0,0,NA,"Fixation Timing","Fixation",1,"object-65","J","CFD-WM-024-015-H.jpeg",NA,"SUPTM16544"
"26",1689026442078,"10/07/2023 22:00:42",1689030042078,1,"11/07/2023 00:00:42",137495,33,"task-mb68",NA,30604379,9086484,NA,"complete",NA,NA,"computer","Desktop or Laptop","Windows 10","Edge 114.0.1823.67","1536x864","1147x603",NA,NA,NA,"JV Task P1",8,"Anxious",NA,"In",NA,NA,"HIGJFKEADBC",NA,NA,"B (MDot First)",2,321,"SS1","SS1",4,"V","Valence","sn1sjn",1,"continue","",4272.32099980926,4266.151,4272.32099980926,4272.32099980926,4266.151,4272.32099980926,1,4272.32099980926,0,0,NA,"Click To Continue","Continue Button",1,"object-25","V","CFD-BF-029-031-H.jpeg",NA,"SUPTM16544"
"27",1689026442079,"10/07/2023 22:00:42",1689030042079,1,"11/07/2023 00:00:42",137495,33,"task-mb68",NA,30604379,9086484,NA,"complete",NA,NA,"computer","Desktop or Laptop","Windows 10","Edge 114.0.1823.67","1536x864","1147x603",NA,NA,NA,"JV Task P1",8,"Anxious",NA,"In",NA,NA,"HIGJFKEADBC",NA,NA,"B (MDot First)",2,321,"SS1","SS1",4,"V","Valence","sn1sjn",1,"response","70",2749.918,4266.151,4273.02100009537,2749.918,4266.151,4273.02100009537,1,2749.918,1523.10300009537,0,NA,"Slider","J",3,"object-27","V","CFD-BF-029-031-H.jpeg",NA,"SUPTM16544"
"28",1689026443039,"10/07/2023 22:00:43",1689030043039,1,"11/07/2023 00:00:43",137495,33,"task-mb68",NA,30604379,9086484,NA,"complete",NA,NA,"computer","Desktop or Laptop","Windows 10","Edge 114.0.1823.67","1536x864","1147x603",NA,NA,NA,"JV Task P1",8,"Anxious",NA,"In",NA,NA,"HIGJFKEADBC",NA,NA,"B (MDot First)",2,321,"SS1","SS1",4,"V","Fixation","aydkg3",2,"continue","",966.817999999999,966.817999999999,966.817999999999,966.817999999999,966.817999999999,966.817999999999,1,966.817999999999,0,0,NA,"Fixation Timing","Fixation",1,"object-21","V","CFD-BF-029-031-H.jpeg",NA,"SUPTM16544"
"29",1689026445793,"10/07/2023 22:00:45",1689030045793,1,"11/07/2023 00:00:45",137495,33,"task-mb68",NA,30604379,9086484,NA,"complete",NA,NA,"computer","Desktop or Laptop","Windows 10","Edge 114.0.1823.67","1536x864","1147x603",NA,NA,NA,"JV Task P1",8,"Anxious",NA,"In",NA,NA,"HIGJFKEADBC",NA,NA,"B (MDot First)",2,321,"SS1","SS1",5,"V","Valence","sn1sjn",1,"continue","",2749.986,2733.177,2749.986,2749.986,2733.177,2749.986,1,2749.986,0,0,NA,"Click To Continue","Continue Button",1,"object-25","V","CFD-WM-034-030-H.jpeg",NA,"SUPTM16544"
"30",1689026445793,"10/07/2023 22:00:45",1689030045793,1,"11/07/2023 00:00:45",137495,33,"task-mb68",NA,30604379,9086484,NA,"complete",NA,NA,"computer","Desktop or Laptop","Windows 10","Edge 114.0.1823.67","1536x864","1147x603",NA,NA,NA,"JV Task P1",8,"Anxious",NA,"In",NA,NA,"HIGJFKEADBC",NA,NA,"B (MDot First)",2,321,"SS1","SS1",5,"V","Valence","sn1sjn",1,"response","80",1899.892,2733.177,2749.986,1899.892,2733.177,2749.986,1,1899.892,850.094000000005,0,NA,"Slider","J",3,"object-27","V","CFD-WM-034-030-H.jpeg",NA,"SUPTM16544"
"31",1689026446739,"10/07/2023 22:00:46",1689030046739,1,"11/07/2023 00:00:46",137495,33,"task-mb68",NA,30604379,9086484,NA,"complete",NA,NA,"computer","Desktop or Laptop","Windows 10","Edge 114.0.1823.67","1536x864","1147x603",NA,NA,NA,"JV Task P1",8,"Anxious",NA,"In",NA,NA,"HIGJFKEADBC",NA,NA,"B (MDot First)",2,321,"SS1","SS1",5,"V","Fixation","aydkg3",2,"continue","",966.116000000002,966.116000000002,966.116000000002,966.116000000002,966.116000000002,966.116000000002,1,966.116000000002,0,0,NA,"Fixation Timing","Fixation",1,"object-21","V","CFD-WM-034-030-H.jpeg",NA,"SUPTM16544"
"32",1689026449697,"10/07/2023 22:00:49",1689030049697,1,"11/07/2023 00:00:49",137495,33,"task-mb68",NA,30604379,9086484,NA,"complete",NA,NA,"computer","Desktop or Laptop","Windows 10","Edge 114.0.1823.67","1536x864","1147x603",NA,NA,NA,"JV Task P1",8,"Anxious",NA,"In",NA,NA,"HIGJFKEADBC",NA,NA,"B (MDot First)",2,321,"SS1","SS1",6,"V","Valence","sn1sjn",1,"continue","",2958.95899990463,2949.89,2958.95899990463,2958.95899990463,2949.89,2958.95899990463,1,2958.95899990463,0,0,NA,"Click To Continue","Continue Button",1,"object-25","V","CFD-IM-695-001-H.jpeg",NA,"SUPTM16544"
"33",1689026449705,"10/07/2023 22:00:49",1689030049705,1,"11/07/2023 00:00:49",137495,33,"task-mb68",NA,30604379,9086484,NA,"complete",NA,NA,"computer","Desktop or Laptop","Windows 10","Edge 114.0.1823.67","1536x864","1147x603",NA,NA,NA,"JV Task P1",8,"Anxious",NA,"In",NA,NA,"HIGJFKEADBC",NA,NA,"B (MDot First)",2,321,"SS1","SS1",6,"V","Valence","sn1sjn",1,"response","90",1566.52499999999,2949.89,2966.718,1566.52499999999,2949.89,2966.718,1,1566.52499999999,1400.19300000001,0,NA,"Slider","J",3,"object-27","V","CFD-IM-695-001-H.jpeg",NA,"SUPTM16544"
"34",1689026450656,"10/07/2023 22:00:50",1689030050656,1,"11/07/2023 00:00:50",137495,33,"task-mb68",NA,30604379,9086484,NA,"complete",NA,NA,"computer","Desktop or Laptop","Windows 10","Edge 114.0.1823.67","1536x864","1147x603",NA,NA,NA,"JV Task P1",8,"Anxious",NA,"In",NA,NA,"HIGJFKEADBC",NA,NA,"B (MDot First)",2,321,"SS1","SS1",6,"V","Fixation","aydkg3",2,"continue","",966.803999999996,966.803999999996,966.803999999996,966.803999999996,966.803999999996,966.803999999996,1,966.803999999996,0,0,NA,"Fixation Timing","Fixation",1,"object-21","V","CFD-IM-695-001-H.jpeg",NA,"SUPTM16544"
"35",1689026455812,"10/07/2023 22:00:55",1689030055812,1,"11/07/2023 00:00:55",137495,33,"task-mb68",NA,30604379,9086484,NA,"complete",NA,NA,"computer","Desktop or Laptop","Windows 10","Edge 114.0.1823.67","1536x864","1147x603",NA,NA,NA,"JV Task P1",8,"Anxious",NA,"In",NA,NA,"HIGJFKEADBC",NA,NA,"B (MDot First)",2,321,"SS1","SS1",7,"V","Valence","sn1sjn",1,"continue","",5157.165,5149.322,5157.165,5157.165,5149.322,5157.165,1,5157.165,0,0,NA,"Click To Continue","Continue Button",1,"object-25","V","CFD-WF-030-002-N.jpg",NA,"SUPTM16544"
"36",1689026455813,"10/07/2023 22:00:55",1689030055813,1,"11/07/2023 00:00:55",137495,33,"task-mb68",NA,30604379,9086484,NA,"complete",NA,NA,"computer","Desktop or Laptop","Windows 10","Edge 114.0.1823.67","1536x864","1147x603",NA,NA,NA,"JV Task P1",8,"Anxious",NA,"In",NA,NA,"HIGJFKEADBC",NA,NA,"B (MDot First)",2,321,"SS1","SS1",7,"V","Valence","sn1sjn",1,"response","41",4399.33,5149.322,5157.86499980927,4399.33,5149.322,5157.86499980927,1,4399.33,758.534999809264,0,NA,"Slider","J",3,"object-27","V","CFD-WF-030-002-N.jpg",NA,"SUPTM16544"
"37",1689026456772,"10/07/2023 22:00:56",1689030056772,1,"11/07/2023 00:00:56",137495,33,"task-mb68",NA,30604379,9086484,NA,"complete",NA,NA,"computer","Desktop or Laptop","Windows 10","Edge 114.0.1823.67","1536x864","1147x603",NA,NA,NA,"JV Task P1",8,"Anxious",NA,"In",NA,NA,"HIGJFKEADBC",NA,NA,"B (MDot First)",2,321,"SS1","SS1",7,"V","Fixation","aydkg3",2,"continue","",966.364000000001,966.364000000001,966.364000000001,966.364000000001,966.364000000001,966.364000000001,1,966.364000000001,0,0,NA,"Fixation Timing","Fixation",1,"object-21","V","CFD-WF-030-002-N.jpg",NA,"SUPTM16544"
"38",1689026459962,"10/07/2023 22:00:59",1689030059962,1,"11/07/2023 00:00:59",137495,33,"task-mb68",NA,30604379,9086484,NA,"complete",NA,NA,"computer","Desktop or Laptop","Windows 10","Edge 114.0.1823.67","1536x864","1147x603",NA,NA,NA,"JV Task P1",8,"Anxious",NA,"In",NA,NA,"HIGJFKEADBC",NA,NA,"B (MDot First)",2,321,"SS1","SS1",8,"V","Valence","sn1sjn",1,"continue","",3191.07899990463,3182.703,3191.07899990463,3191.07899990463,3182.703,3191.07899990463,1,3191.07899990463,0,0,NA,"Click To Continue","Continue Button",1,"object-25","V","CFD-BM-045-004-H.jpeg",NA,"SUPTM16544"
"39",1689026459968,"10/07/2023 22:00:59",1689030059968,1,"11/07/2023 00:00:59",137495,33,"task-mb68",NA,30604379,9086484,NA,"complete",NA,NA,"computer","Desktop or Laptop","Windows 10","Edge 114.0.1823.67","1536x864","1147x603",NA,NA,NA,"JV Task P1",8,"Anxious",NA,"In",NA,NA,"HIGJFKEADBC",NA,NA,"B (MDot First)",2,321,"SS1","SS1",8,"V","Valence","sn1sjn",1,"response","79",2533.221,3182.703,3197.479,2533.221,3182.703,3197.479,1,2533.221,664.258000000002,0,NA,"Slider","J",3,"object-27","V","CFD-BM-045-004-H.jpeg",NA,"SUPTM16544"
"40",1689026460921,"10/07/2023 22:01:00",1689030060921,1,"11/07/2023 00:01:00",137495,33,"task-mb68",NA,30604379,9086484,NA,"complete",NA,NA,"computer","Desktop or Laptop","Windows 10","Edge 114.0.1823.67","1536x864","1147x603",NA,NA,NA,"JV Task P1",8,"Anxious",NA,"In",NA,NA,"HIGJFKEADBC",NA,NA,"B (MDot First)",2,321,"SS1","SS1",8,"V","Fixation","aydkg3",2,"continue","",966.960999999996,966.960999999996,966.960999999996,966.960999999996,966.960999999996,966.960999999996,1,966.960999999996,0,0,NA,"Fixation Timing","Fixation",1,"object-21","V","CFD-BM-045-004-H.jpeg",NA,"SUPTM16544"
"41",1689026464429,"10/07/2023 22:01:04",1689030064429,1,"11/07/2023 00:01:04",137495,33,"task-mb68",NA,30604379,9086484,NA,"complete",NA,NA,"computer","Desktop or Laptop","Windows 10","Edge 114.0.1823.67","1536x864","1147x603",NA,NA,NA,"JV Task P1",8,"Anxious",NA,"In",NA,NA,"HIGJFKEADBC",NA,NA,"B (MDot First)",2,321,"SS1","SS1",9,"V","Valence","sn1sjn",1,"continue","",3508.315,3499.28,3508.315,3508.315,3499.28,3508.315,1,3508.315,0,0,NA,"Click To Continue","Continue Button",1,"object-25","V","CFD-WM-034-030-S.jpeg",NA,"SUPTM16544"
"42",1689026464429,"10/07/2023 22:01:04",1689030064429,1,"11/07/2023 00:01:04",137495,33,"task-mb68",NA,30604379,9086484,NA,"complete",NA,NA,"computer","Desktop or Laptop","Windows 10","Edge 114.0.1823.67","1536x864","1147x603",NA,NA,NA,"JV Task P1",8,"Anxious",NA,"In",NA,NA,"HIGJFKEADBC",NA,NA,"B (MDot First)",2,321,"SS1","SS1",9,"V","Valence","sn1sjn",1,"response","44",1766.286,3499.28,3509.1149997139,1766.286,3499.28,3509.1149997139,1,1766.286,1742.8289997139,0,NA,"Slider","J",3,"object-27","V","CFD-WM-034-030-S.jpeg",NA,"SUPTM16544"
"43",1689026465387,"10/07/2023 22:01:05",1689030065387,1,"11/07/2023 00:01:05",137495,33,"task-mb68",NA,30604379,9086484,NA,"complete",NA,NA,"computer","Desktop or Laptop","Windows 10","Edge 114.0.1823.67","1536x864","1147x603",NA,NA,NA,"JV Task P1",8,"Anxious",NA,"In",NA,NA,"HIGJFKEADBC",NA,NA,"B (MDot First)",2,321,"SS1","SS1",9,"V","Fixation","aydkg3",2,"continue","",966.825000000004,966.825000000004,966.825000000004,966.825000000004,966.825000000004,966.825000000004,1,966.825000000004,0,0,NA,"Fixation Timing","Fixation",1,"object-21","V","CFD-WM-034-030-S.jpeg",NA,"SUPTM16544"
"44",1689026469757,"10/07/2023 22:01:09",1689030069757,1,"11/07/2023 00:01:09",137495,33,"task-mb68",NA,30604379,9086484,NA,"complete",NA,NA,"computer","Desktop or Laptop","Windows 10","Edge 114.0.1823.67","1536x864","1147x603",NA,NA,NA,"JV Task P1",8,"Anxious",NA,"In",NA,NA,"HIGJFKEADBC",NA,NA,"B (MDot First)",2,321,"SS1","SS1",6,"J","Judginess","w2ir4b",1,"continue","",4370.80999990463,4365.741,4370.80999990463,4370.80999990463,4365.741,4370.80999990463,1,4370.80999990463,0,0,NA,"Click To Continue","Continue Button",1,"object-14","J","CFD-IM-695-001-N.jpg",NA,"SUPTM16544"
"45",1689026469757,"10/07/2023 22:01:09",1689030069757,1,"11/07/2023 00:01:09",137495,33,"task-mb68",NA,30604379,9086484,NA,"complete",NA,NA,"computer","Desktop or Laptop","Windows 10","Edge 114.0.1823.67","1536x864","1147x603",NA,NA,NA,"JV Task P1",8,"Anxious",NA,"In",NA,NA,"HIGJFKEADBC",NA,NA,"B (MDot First)",2,321,"SS1","SS1",6,"J","Judginess","w2ir4b",1,"response","74",3449.19,4365.741,4371.11000009537,3449.19,4365.741,4371.11000009537,1,3449.19,921.920000095372,0,NA,"Slider","J",3,"object-18","J","CFD-IM-695-001-N.jpg",NA,"SUPTM16544"
"46",1689026470719,"10/07/2023 22:01:10",1689030070719,1,"11/07/2023 00:01:10",137495,33,"task-mb68",NA,30604379,9086484,NA,"complete",NA,NA,"computer","Desktop or Laptop","Windows 10","Edge 114.0.1823.67","1536x864","1147x603",NA,NA,NA,"JV Task P1",8,"Anxious",NA,"In",NA,NA,"HIGJFKEADBC",NA,NA,"B (MDot First)",2,321,"SS1","SS1",6,"J","Fixation","mtm832",2,"continue","",966.970000000001,966.970000000001,966.970000000001,966.970000000001,966.970000000001,966.970000000001,1,966.970000000001,0,0,NA,"Fixation Timing","Fixation",1,"object-65","J","CFD-IM-695-001-N.jpg",NA,"SUPTM16544"
"47",1689026477649,"10/07/2023 22:01:17",1689030077649,1,"11/07/2023 00:01:17",137495,33,"task-mb68",NA,30604379,9086484,NA,"complete",NA,NA,"computer","Desktop or Laptop","Windows 10","Edge 114.0.1823.67","1536x864","1147x603",NA,NA,NA,"JV Task P1",8,"Anxious",NA,"In",NA,NA,"HIGJFKEADBC",NA,NA,"B (MDot First)",2,321,"SS1","SS1",7,"J","Judginess","w2ir4b",1,"continue","",6929.89900009536,6915.496,6929.89900009536,6929.89900009536,6915.496,6929.89900009536,1,6929.89900009536,0,0,NA,"Click To Continue","Continue Button",1,"object-14","J","CFD-WF-006-002-H.jpeg",NA,"SUPTM16544"
"48",1689026477649,"10/07/2023 22:01:17",1689030077649,1,"11/07/2023 00:01:17",137495,33,"task-mb68",NA,30604379,9086484,NA,"complete",NA,NA,"computer","Desktop or Laptop","Windows 10","Edge 114.0.1823.67","1536x864","1147x603",NA,NA,NA,"JV Task P1",8,"Anxious",NA,"In",NA,NA,"HIGJFKEADBC",NA,NA,"B (MDot First)",2,321,"SS1","SS1",7,"J","Judginess","w2ir4b",1,"response","21",3232.617,6915.496,6930.39900009536,3232.617,6915.496,6930.39900009536,1,3232.617,3697.78200009537,0,NA,"Slider","J",3,"object-18","J","CFD-WF-006-002-H.jpeg",NA,"SUPTM16544"
"49",1689026478602,"10/07/2023 22:01:18",1689030078602,1,"11/07/2023 00:01:18",137495,33,"task-mb68",NA,30604379,9086484,NA,"complete",NA,NA,"computer","Desktop or Laptop","Windows 10","Edge 114.0.1823.67","1536x864","1147x603",NA,NA,NA,"JV Task P1",8,"Anxious",NA,"In",NA,NA,"HIGJFKEADBC",NA,NA,"B (MDot First)",2,321,"SS1","SS1",7,"J","Fixation","mtm832",2,"continue","",966.744999999995,966.744999999995,966.744999999995,966.744999999995,966.744999999995,966.744999999995,1,966.744999999995,0,0,NA,"Fixation Timing","Fixation",1,"object-65","J","CFD-WF-006-002-H.jpeg",NA,"SUPTM16544"
"50",1689026483151,"10/07/2023 22:01:23",1689030083151,1,"11/07/2023 00:01:23",137495,33,"task-mb68",NA,30604379,9086484,NA,"complete",NA,NA,"computer","Desktop or Laptop","Windows 10","Edge 114.0.1823.67","1536x864","1147x603",NA,NA,NA,"JV Task P1",8,"Anxious",NA,"In",NA,NA,"HIGJFKEADBC",NA,NA,"B (MDot First)",2,321,"SS1","SS1",10,"V","Valence","sn1sjn",1,"continue","",4549.325,4532.595,4549.325,4549.325,4532.595,4549.325,1,4549.325,0,0,NA,"Click To Continue","Continue Button",1,"object-25","V","CFD-BM-036-003-S.jpeg",NA,"SUPTM16544"
"51",1689026483156,"10/07/2023 22:01:23",1689030083156,1,"11/07/2023 00:01:23",137495,33,"task-mb68",NA,30604379,9086484,NA,"complete",NA,NA,"computer","Desktop or Laptop","Windows 10","Edge 114.0.1823.67","1536x864","1147x603",NA,NA,NA,"JV Task P1",8,"Anxious",NA,"In",NA,NA,"HIGJFKEADBC",NA,NA,"B (MDot First)",2,321,"SS1","SS1",10,"V","Valence","sn1sjn",1,"response","57",3782.853,4532.595,4549.325,3782.853,4532.595,4549.325,1,3782.853,766.471999999994,0,NA,"Slider","J",3,"object-27","V","CFD-BM-036-003-S.jpeg",NA,"SUPTM16544"
"52",1689026484101,"10/07/2023 22:01:24",1689030084101,1,"11/07/2023 00:01:24",137495,33,"task-mb68",NA,30604379,9086484,NA,"complete",NA,NA,"computer","Desktop or Laptop","Windows 10","Edge 114.0.1823.67","1536x864","1147x603",NA,NA,NA,"JV Task P1",8,"Anxious",NA,"In",NA,NA,"HIGJFKEADBC",NA,NA,"B (MDot First)",2,321,"SS1","SS1",10,"V","Fixation","aydkg3",2,"continue","",966.909,966.909,966.909,966.909,966.909,966.909,1,966.909,0,0,NA,"Fixation Timing","Fixation",1,"object-21","V","CFD-BM-036-003-S.jpeg",NA,"SUPTM16544"
"53",1689026488017,"10/07/2023 22:01:28",1689030088017,1,"11/07/2023 00:01:28",137495,33,"task-mb68",NA,30604379,9086484,NA,"complete",NA,NA,"computer","Desktop or Laptop","Windows 10","Edge 114.0.1823.67","1536x864","1147x603",NA,NA,NA,"JV Task P1",8,"Anxious",NA,"In",NA,NA,"HIGJFKEADBC",NA,NA,"B (MDot First)",2,321,"SS1","SS1",8,"J","Judginess","w2ir4b",1,"continue","",3916.436,3899.448,3916.436,3916.436,3899.448,3916.436,1,3916.436,0,0,NA,"Click To Continue","Continue Button",1,"object-14","J","CFD-BM-036-003-N.jpg",NA,"SUPTM16544"
"54",1689026488018,"10/07/2023 22:01:28",1689030088018,1,"11/07/2023 00:01:28",137495,33,"task-mb68",NA,30604379,9086484,NA,"complete",NA,NA,"computer","Desktop or Laptop","Windows 10","Edge 114.0.1823.67","1536x864","1147x603",NA,NA,NA,"JV Task P1",8,"Anxious",NA,"In",NA,NA,"HIGJFKEADBC",NA,NA,"B (MDot First)",2,321,"SS1","SS1",8,"J","Judginess","w2ir4b",1,"response","75",3149.288,3899.448,3916.436,3149.288,3899.448,3916.436,1,3149.288,767.148000000001,0,NA,"Slider","J",3,"object-18","J","CFD-BM-036-003-N.jpg",NA,"SUPTM16544"
"55",1689026488968,"10/07/2023 22:01:28",1689030088968,1,"11/07/2023 00:01:28",137495,33,"task-mb68",NA,30604379,9086484,NA,"complete",NA,NA,"computer","Desktop or Laptop","Windows 10","Edge 114.0.1823.67","1536x864","1147x603",NA,NA,NA,"JV Task P1",8,"Anxious",NA,"In",NA,NA,"HIGJFKEADBC",NA,NA,"B (MDot First)",2,321,"SS1","SS1",8,"J","Fixation","mtm832",2,"continue","",966.637000000002,966.637000000002,966.637000000002,966.637000000002,966.637000000002,966.637000000002,1,966.637000000002,0,0,NA,"Fixation Timing","Fixation",1,"object-65","J","CFD-BM-036-003-N.jpg",NA,"SUPTM16544"
"56",1689026495097,"10/07/2023 22:01:35",1689030095097,1,"11/07/2023 00:01:35",137495,33,"task-mb68",NA,30604379,9086484,NA,"complete",NA,NA,"computer","Desktop or Laptop","Windows 10","Edge 114.0.1823.67","1536x864","1147x603",NA,NA,NA,"JV Task P1",8,"Anxious",NA,"In",NA,NA,"HIGJFKEADBC",NA,NA,"B (MDot First)",2,321,"SS1","SS1",9,"J","Judginess","w2ir4b",1,"continue","",6130.56900009536,6115.583,6130.56900009536,6130.56900009536,6115.583,6130.56900009536,1,6130.56900009536,0,0,NA,"Click To Continue","Continue Button",1,"object-14","J","CFD-WF-036-023-S.jpeg",NA,"SUPTM16544"
"57",1689026495104,"10/07/2023 22:01:35",1689030095104,1,"11/07/2023 00:01:35",137495,33,"task-mb68",NA,30604379,9086484,NA,"complete",NA,NA,"computer","Desktop or Laptop","Windows 10","Edge 114.0.1823.67","1536x864","1147x603",NA,NA,NA,"JV Task P1",8,"Anxious",NA,"In",NA,NA,"HIGJFKEADBC",NA,NA,"B (MDot First)",2,321,"SS1","SS1",9,"J","Judginess","w2ir4b",1,"response","72",5232.526,6115.583,6132.31,5232.526,6115.583,6132.31,1,5232.526,899.784,0,NA,"Slider","J",3,"object-18","J","CFD-WF-036-023-S.jpeg",NA,"SUPTM16544"
"58",1689026496050,"10/07/2023 22:01:36",1689030096050,1,"11/07/2023 00:01:36",137495,33,"task-mb68",NA,30604379,9086484,NA,"complete",NA,NA,"computer","Desktop or Laptop","Windows 10","Edge 114.0.1823.67","1536x864","1147x603",NA,NA,NA,"JV Task P1",8,"Anxious",NA,"In",NA,NA,"HIGJFKEADBC",NA,NA,"B (MDot First)",2,321,"SS1","SS1",9,"J","Fixation","mtm832",2,"continue","",966.75499999999,966.75499999999,966.75499999999,966.75499999999,966.75499999999,966.75499999999,1,966.75499999999,0,0,NA,"Fixation Timing","Fixation",1,"object-65","J","CFD-WF-036-023-S.jpeg",NA,"SUPTM16544"
"59",1689026499814,"10/07/2023 22:01:39",1689030099814,1,"11/07/2023 00:01:39",137495,33,"task-mb68",NA,30604379,9086484,NA,"complete",NA,NA,"computer","Desktop or Laptop","Windows 10","Edge 114.0.1823.67","1536x864","1147x603",NA,NA,NA,"JV Task P1",8,"Anxious",NA,"In",NA,NA,"HIGJFKEADBC",NA,NA,"B (MDot First)",2,321,"SS1","SS1",11,"V","Valence","sn1sjn",1,"continue","",3777.43099990464,3766.175,3777.43099990464,3777.43099990464,3766.175,3777.43099990464,1,3777.43099990464,0,0,NA,"Click To Continue","Continue Button",1,"object-25","V","CFD-WF-017-003-H.jpeg",NA,"SUPTM16544"
"60",1689026499814,"10/07/2023 22:01:39",1689030099814,1,"11/07/2023 00:01:39",137495,33,"task-mb68",NA,30604379,9086484,NA,"complete",NA,NA,"computer","Desktop or Laptop","Windows 10","Edge 114.0.1823.67","1536x864","1147x603",NA,NA,NA,"JV Task P1",8,"Anxious",NA,"In",NA,NA,"HIGJFKEADBC",NA,NA,"B (MDot First)",2,321,"SS1","SS1",11,"V","Valence","sn1sjn",1,"response","71",2283.05,3766.175,3778.03099980927,2283.05,3766.175,3778.03099980927,1,2283.05,1494.98099980927,0,NA,"Slider","J",3,"object-27","V","CFD-WF-017-003-H.jpeg",NA,"SUPTM16544"
"61",1689026500769,"10/07/2023 22:01:40",1689030100769,1,"11/07/2023 00:01:40",137495,33,"task-mb68",NA,30604379,9086484,NA,"complete",NA,NA,"computer","Desktop or Laptop","Windows 10","Edge 114.0.1823.67","1536x864","1147x603",NA,NA,NA,"JV Task P1",8,"Anxious",NA,"In",NA,NA,"HIGJFKEADBC",NA,NA,"B (MDot First)",2,321,"SS1","SS1",11,"V","Fixation","aydkg3",2,"continue","",966.328999999998,966.328999999998,966.328999999998,966.328999999998,966.328999999998,966.328999999998,1,966.328999999998,0,0,NA,"Fixation Timing","Fixation",1,"object-21","V","CFD-WF-017-003-H.jpeg",NA,"SUPTM16544"
"62",1689026505716,"10/07/2023 22:01:45",1689030105716,1,"11/07/2023 00:01:45",137495,33,"task-mb68",NA,30604379,9086484,NA,"complete",NA,NA,"computer","Desktop or Laptop","Windows 10","Edge 114.0.1823.67","1536x864","1147x603",NA,NA,NA,"JV Task P1",8,"Anxious",NA,"In",NA,NA,"HIGJFKEADBC",NA,NA,"B (MDot First)",2,321,"SS1","SS1",10,"J","Judginess","w2ir4b",1,"continue","",4947.1269997139,4933.18000000001,4947.1269997139,4947.1269997139,4933.18000000001,4947.1269997139,1,4947.1269997139,0,0,NA,"Click To Continue","Continue Button",1,"object-14","J","CFD-AM-225-102-H.jpeg",NA,"SUPTM16544"
"63",1689026505723,"10/07/2023 22:01:45",1689030105723,1,"11/07/2023 00:01:45",137495,33,"task-mb68",NA,30604379,9086484,NA,"complete",NA,NA,"computer","Desktop or Laptop","Windows 10","Edge 114.0.1823.67","1536x864","1147x603",NA,NA,NA,"JV Task P1",8,"Anxious",NA,"In",NA,NA,"HIGJFKEADBC",NA,NA,"B (MDot First)",2,321,"SS1","SS1",10,"J","Judginess","w2ir4b",1,"response","93",3199.68400000001,4933.18000000001,4950.04000000001,3199.68400000001,4933.18000000001,4950.04000000001,1,3199.68400000001,1750.356,0,NA,"Slider","J",3,"object-18","J","CFD-AM-225-102-H.jpeg",NA,"SUPTM16544"
"64",1689026506669,"10/07/2023 22:01:46",1689030106669,1,"11/07/2023 00:01:46",137495,33,"task-mb68",NA,30604379,9086484,NA,"complete",NA,NA,"computer","Desktop or Laptop","Windows 10","Edge 114.0.1823.67","1536x864","1147x603",NA,NA,NA,"JV Task P1",8,"Anxious",NA,"In",NA,NA,"HIGJFKEADBC",NA,NA,"B (MDot First)",2,321,"SS1","SS1",10,"J","Fixation","mtm832",2,"continue","",966.510999999999,966.510999999999,966.510999999999,966.510999999999,966.510999999999,966.510999999999,1,966.510999999999,0,0,NA,"Fixation Timing","Fixation",1,"object-65","J","CFD-AM-225-102-H.jpeg",NA,"SUPTM16544"
"65",1689026512373,"10/07/2023 22:01:52",1689030112373,1,"11/07/2023 00:01:52",137495,33,"task-mb68",NA,30604379,9086484,NA,"complete",NA,NA,"computer","Desktop or Laptop","Windows 10","Edge 114.0.1823.67","1536x864","1147x603",NA,NA,NA,"JV Task P1",8,"Anxious",NA,"In",NA,NA,"HIGJFKEADBC",NA,NA,"B (MDot First)",2,321,"SS1","SS1",12,"V","Valence","sn1sjn",1,"continue","",5704.83599980926,5699.238,5704.83599980926,5704.83599980926,5699.238,5704.83599980926,1,5704.83599980926,0,0,NA,"Click To Continue","Continue Button",1,"object-25","V","CFD-IF-693-172-S.jpeg",NA,"SUPTM16544"
"66",1689026512374,"10/07/2023 22:01:52",1689030112374,1,"11/07/2023 00:01:52",137495,33,"task-mb68",NA,30604379,9086484,NA,"complete",NA,NA,"computer","Desktop or Laptop","Windows 10","Edge 114.0.1823.67","1536x864","1147x603",NA,NA,NA,"JV Task P1",8,"Anxious",NA,"In",NA,NA,"HIGJFKEADBC",NA,NA,"B (MDot First)",2,321,"SS1","SS1",12,"V","Valence","sn1sjn",1,"response","39",5132.76699999999,5699.238,5705.4359997139,5132.76699999999,5699.238,5705.4359997139,1,5132.76699999999,572.668999713904,0,NA,"Slider","J",3,"object-27","V","CFD-IF-693-172-S.jpeg",NA,"SUPTM16544"
"67",1689026513335,"10/07/2023 22:01:53",1689030113335,1,"11/07/2023 00:01:53",137495,33,"task-mb68",NA,30604379,9086484,NA,"complete",NA,NA,"computer","Desktop or Laptop","Windows 10","Edge 114.0.1823.67","1536x864","1147x603",NA,NA,NA,"JV Task P1",8,"Anxious",NA,"In",NA,NA,"HIGJFKEADBC",NA,NA,"B (MDot First)",2,321,"SS1","SS1",12,"V","Fixation","aydkg3",2,"continue","",966.274000000005,966.274000000005,966.274000000005,966.274000000005,966.274000000005,966.274000000005,1,966.274000000005,0,0,NA,"Fixation Timing","Fixation",1,"object-21","V","CFD-IF-693-172-S.jpeg",NA,"SUPTM16544"
"68",1689026517584,"10/07/2023 22:01:57",1689030117584,1,"11/07/2023 00:01:57",137495,33,"task-mb68",NA,30604379,9086484,NA,"complete",NA,NA,"computer","Desktop or Laptop","Windows 10","Edge 114.0.1823.67","1536x864","1147x603",NA,NA,NA,"JV Task P1",8,"Anxious",NA,"In",NA,NA,"HIGJFKEADBC",NA,NA,"B (MDot First)",2,321,"SS1","SS1",11,"J","Judginess","w2ir4b",1,"continue","",4249.06300000001,4232.792,4249.06300000001,4249.06300000001,4232.792,4249.06300000001,1,4249.06300000001,0,0,NA,"Click To Continue","Continue Button",1,"object-14","J","CFD-IF-734-108-H.jpeg",NA,"SUPTM16544"
"69",1689026517591,"10/07/2023 22:01:57",1689030117591,1,"11/07/2023 00:01:57",137495,33,"task-mb68",NA,30604379,9086484,NA,"complete",NA,NA,"computer","Desktop or Laptop","Windows 10","Edge 114.0.1823.67","1536x864","1147x603",NA,NA,NA,"JV Task P1",8,"Anxious",NA,"In",NA,NA,"HIGJFKEADBC",NA,NA,"B (MDot First)",2,321,"SS1","SS1",11,"J","Judginess","w2ir4b",1,"response","67",3366.371,4232.792,4249.06300000001,3366.371,4232.792,4249.06300000001,1,3366.371,882.69200000001,0,NA,"Slider","J",3,"object-18","J","CFD-IF-734-108-H.jpeg",NA,"SUPTM16544"
"70",1689026518535,"10/07/2023 22:01:58",1689030118535,1,"11/07/2023 00:01:58",137495,33,"task-mb68",NA,30604379,9086484,NA,"complete",NA,NA,"computer","Desktop or Laptop","Windows 10","Edge 114.0.1823.67","1536x864","1147x603",NA,NA,NA,"JV Task P1",8,"Anxious",NA,"In",NA,NA,"HIGJFKEADBC",NA,NA,"B (MDot First)",2,321,"SS1","SS1",11,"J","Fixation","mtm832",2,"continue","",966.809999999998,966.809999999998,966.809999999998,966.809999999998,966.809999999998,966.809999999998,1,966.809999999998,0,0,NA,"Fixation Timing","Fixation",1,"object-65","J","CFD-IF-734-108-H.jpeg",NA,"SUPTM16544"
"71",1689026522630,"10/07/2023 22:02:02",1689030122630,1,"11/07/2023 00:02:02",137495,33,"task-mb68",NA,30604379,9086484,NA,"complete",NA,NA,"computer","Desktop or Laptop","Windows 10","Edge 114.0.1823.67","1536x864","1147x603",NA,NA,NA,"JV Task P1",8,"Anxious",NA,"In",NA,NA,"HIGJFKEADBC",NA,NA,"B (MDot First)",2,321,"SS1","SS1",13,"V","Valence","sn1sjn",1,"continue","",4097.12199990463,4083.00899999999,4097.12199990463,4097.12199990463,4083.00899999999,4097.12199990463,1,4097.12199990463,0,0,NA,"Click To Continue","Continue Button",1,"object-25","V","CFD-WM-026-001-S.jpeg",NA,"SUPTM16544"
"72",1689026522631,"10/07/2023 22:02:02",1689030122631,1,"11/07/2023 00:02:02",137495,33,"task-mb68",NA,30604379,9086484,NA,"complete",NA,NA,"computer","Desktop or Laptop","Windows 10","Edge 114.0.1823.67","1536x864","1147x603",NA,NA,NA,"JV Task P1",8,"Anxious",NA,"In",NA,NA,"HIGJFKEADBC",NA,NA,"B (MDot First)",2,321,"SS1","SS1",13,"V","Valence","sn1sjn",1,"response","33",3049.777,4083.00899999999,4097.62199990463,3049.777,4083.00899999999,4097.62199990463,1,3049.777,1047.84499990463,0,NA,"Slider","J",3,"object-27","V","CFD-WM-026-001-S.jpeg",NA,"SUPTM16544"
"73",1689026523583,"10/07/2023 22:02:03",1689030123583,1,"11/07/2023 00:02:03",137495,33,"task-mb68",NA,30604379,9086484,NA,"complete",NA,NA,"computer","Desktop or Laptop","Windows 10","Edge 114.0.1823.67","1536x864","1147x603",NA,NA,NA,"JV Task P1",8,"Anxious",NA,"In",NA,NA,"HIGJFKEADBC",NA,NA,"B (MDot First)",2,321,"SS1","SS1",13,"V","Fixation","aydkg3",2,"continue","",966.462,966.462,966.462,966.462,966.462,966.462,1,966.462,0,0,NA,"Fixation Timing","Fixation",1,"object-21","V","CFD-WM-026-001-S.jpeg",NA,"SUPTM16544"
"74",1689026528374,"10/07/2023 22:02:08",1689030128374,1,"11/07/2023 00:02:08",137495,33,"task-mb68",NA,30604379,9086484,NA,"complete",NA,NA,"computer","Desktop or Laptop","Windows 10","Edge 114.0.1823.67","1536x864","1147x603",NA,NA,NA,"JV Task P1",8,"Anxious",NA,"In",NA,NA,"HIGJFKEADBC",NA,NA,"B (MDot First)",2,321,"SS1","SS1",14,"V","Valence","sn1sjn",1,"continue","",4790.8509997139,4782.853,4790.8509997139,4790.8509997139,4782.853,4790.8509997139,1,4790.8509997139,0,0,NA,"Click To Continue","Continue Button",1,"object-25","V","CFD-WF-012-002-N.jpg",NA,"SUPTM16544"
"75",1689026528382,"10/07/2023 22:02:08",1689030128382,1,"11/07/2023 00:02:08",137495,33,"task-mb68",NA,30604379,9086484,NA,"complete",NA,NA,"computer","Desktop or Laptop","Windows 10","Edge 114.0.1823.67","1536x864","1147x603",NA,NA,NA,"JV Task P1",8,"Anxious",NA,"In",NA,NA,"HIGJFKEADBC",NA,NA,"B (MDot First)",2,321,"SS1","SS1",14,"V","Valence","sn1sjn",1,"response","76",2133.156,4782.853,4798.75099980927,2133.156,4782.853,4798.75099980927,1,2133.156,2665.59499980927,0,NA,"Slider","J",3,"object-27","V","CFD-WF-012-002-N.jpg",NA,"SUPTM16544"
"76",1689026529333,"10/07/2023 22:02:09",1689030129333,1,"11/07/2023 00:02:09",137495,33,"task-mb68",NA,30604379,9086484,NA,"complete",NA,NA,"computer","Desktop or Laptop","Windows 10","Edge 114.0.1823.67","1536x864","1147x603",NA,NA,NA,"JV Task P1",8,"Anxious",NA,"In",NA,NA,"HIGJFKEADBC",NA,NA,"B (MDot First)",2,321,"SS1","SS1",14,"V","Fixation","aydkg3",2,"continue","",966.520000000004,966.520000000004,966.520000000004,966.520000000004,966.520000000004,966.520000000004,1,966.520000000004,0,0,NA,"Fixation Timing","Fixation",1,"object-21","V","CFD-WF-012-002-N.jpg",NA,"SUPTM16544"
"77",1689026533995,"10/07/2023 22:02:13",1689030133995,1,"11/07/2023 00:02:13",137495,33,"task-mb68",NA,30604379,9086484,NA,"complete",NA,NA,"computer","Desktop or Laptop","Windows 10","Edge 114.0.1823.67","1536x864","1147x603",NA,NA,NA,"JV Task P1",8,"Anxious",NA,"In",NA,NA,"HIGJFKEADBC",NA,NA,"B (MDot First)",2,321,"SS1","SS1",15,"V","Valence","sn1sjn",1,"continue","",4663.07800009537,4649.19900000001,4663.07800009537,4663.07800009537,4649.19900000001,4663.07800009537,1,4663.07800009537,0,0,NA,"Click To Continue","Continue Button",1,"object-25","V","CFD-WF-037-029-H.jpeg",NA,"SUPTM16544"
"78",1689026533996,"10/07/2023 22:02:13",1689030133996,1,"11/07/2023 00:02:13",137495,33,"task-mb68",NA,30604379,9086484,NA,"complete",NA,NA,"computer","Desktop or Laptop","Windows 10","Edge 114.0.1823.67","1536x864","1147x603",NA,NA,NA,"JV Task P1",8,"Anxious",NA,"In",NA,NA,"HIGJFKEADBC",NA,NA,"B (MDot First)",2,321,"SS1","SS1",15,"V","Valence","sn1sjn",1,"response","74",3515.855,4649.19900000001,4663.77799990463,3515.855,4649.19900000001,4663.77799990463,1,3515.855,1147.92299990464,0,NA,"Slider","J",3,"object-27","V","CFD-WF-037-029-H.jpeg",NA,"SUPTM16544"
"79",1689026534949,"10/07/2023 22:02:14",1689030134949,1,"11/07/2023 00:02:14",137495,33,"task-mb68",NA,30604379,9086484,NA,"complete",NA,NA,"computer","Desktop or Laptop","Windows 10","Edge 114.0.1823.67","1536x864","1147x603",NA,NA,NA,"JV Task P1",8,"Anxious",NA,"In",NA,NA,"HIGJFKEADBC",NA,NA,"B (MDot First)",2,321,"SS1","SS1",15,"V","Fixation","aydkg3",2,"continue","",966.801999999996,966.801999999996,966.801999999996,966.801999999996,966.801999999996,966.801999999996,1,966.801999999996,0,0,NA,"Fixation Timing","Fixation",1,"object-21","V","CFD-WF-037-029-H.jpeg",NA,"SUPTM16544"
"80",1689026540529,"10/07/2023 22:02:20",1689030140529,1,"11/07/2023 00:02:20",137495,33,"task-mb68",NA,30604379,9086484,NA,"complete",NA,NA,"computer","Desktop or Laptop","Windows 10","Edge 114.0.1823.67","1536x864","1147x603",NA,NA,NA,"JV Task P1",8,"Anxious",NA,"In",NA,NA,"HIGJFKEADBC",NA,NA,"B (MDot First)",2,321,"SS1","SS1",12,"J","Judginess","w2ir4b",1,"continue","",5580.47699971389,5566.04499999998,5580.47699971389,5580.47699971389,5566.04499999998,5580.47699971389,1,5580.47699971389,0,0,NA,"Click To Continue","Continue Button",1,"object-14","J","CFD-WM-015-002-N.jpg",NA,"SUPTM16544"
"81",1689026540536,"10/07/2023 22:02:20",1689030140536,1,"11/07/2023 00:02:20",137495,33,"task-mb68",NA,30604379,9086484,NA,"complete",NA,NA,"computer","Desktop or Laptop","Windows 10","Edge 114.0.1823.67","1536x864","1147x603",NA,NA,NA,"JV Task P1",8,"Anxious",NA,"In",NA,NA,"HIGJFKEADBC",NA,NA,"B (MDot First)",2,321,"SS1","SS1",12,"J","Judginess","w2ir4b",1,"response","23",4949.40899999999,5566.04499999998,5583.13299999997,4949.40899999999,5566.04499999998,5583.13299999997,1,4949.40899999999,633.723999999987,0,NA,"Slider","J",3,"object-18","J","CFD-WM-015-002-N.jpg",NA,"SUPTM16544"
"82",1689026541481,"10/07/2023 22:02:21",1689030141481,1,"11/07/2023 00:02:21",137495,33,"task-mb68",NA,30604379,9086484,NA,"complete",NA,NA,"computer","Desktop or Laptop","Windows 10","Edge 114.0.1823.67","1536x864","1147x603",NA,NA,NA,"JV Task P1",8,"Anxious",NA,"In",NA,NA,"HIGJFKEADBC",NA,NA,"B (MDot First)",2,321,"SS1","SS1",12,"J","Fixation","mtm832",2,"continue","",966.147000000026,966.147000000026,966.147000000026,966.147000000026,966.147000000026,966.147000000026,1,966.147000000026,0,0,NA,"Fixation Timing","Fixation",1,"object-65","J","CFD-WM-015-002-N.jpg",NA,"SUPTM16544"
"83",1689026546470,"10/07/2023 22:02:26",1689030146470,1,"11/07/2023 00:02:26",137495,33,"task-mb68",NA,30604379,9086484,NA,"complete",NA,NA,"computer","Desktop or Laptop","Windows 10","Edge 114.0.1823.67","1536x864","1147x603",NA,NA,NA,"JV Task P1",8,"Anxious",NA,"In",NA,NA,"HIGJFKEADBC",NA,NA,"B (MDot First)",2,321,"SS1","SS1",16,"V","Valence","sn1sjn",1,"continue","",4989.68499980925,4983.14199999999,4989.68499980925,4989.68499980925,4983.14199999999,4989.68499980925,1,4989.68499980925,0,0,NA,"Click To Continue","Continue Button",1,"object-25","V","CFD-BF-040-003-S.jpeg",NA,"SUPTM16544"
"84",1689026546471,"10/07/2023 22:02:26",1689030146471,1,"11/07/2023 00:02:26",137495,33,"task-mb68",NA,30604379,9086484,NA,"complete",NA,NA,"computer","Desktop or Laptop","Windows 10","Edge 114.0.1823.67","1536x864","1147x603",NA,NA,NA,"JV Task P1",8,"Anxious",NA,"In",NA,NA,"HIGJFKEADBC",NA,NA,"B (MDot First)",2,321,"SS1","SS1",16,"V","Valence","sn1sjn",1,"response","33",3899.87699999998,4983.14199999999,4990.18499980925,3899.87699999998,4983.14199999999,4990.18499980925,1,3899.87699999998,1090.30799980927,0,NA,"Slider","J",3,"object-27","V","CFD-BF-040-003-S.jpeg",NA,"SUPTM16544"
"85",1689026547431,"10/07/2023 22:02:27",1689030147431,1,"11/07/2023 00:02:27",137495,33,"task-mb68",NA,30604379,9086484,NA,"complete",NA,NA,"computer","Desktop or Laptop","Windows 10","Edge 114.0.1823.67","1536x864","1147x603",NA,NA,NA,"JV Task P1",8,"Anxious",NA,"In",NA,NA,"HIGJFKEADBC",NA,NA,"B (MDot First)",2,321,"SS1","SS1",16,"V","Fixation","aydkg3",2,"continue","",966.285999999993,966.285999999993,966.285999999993,966.285999999993,966.285999999993,966.285999999993,1,966.285999999993,0,0,NA,"Fixation Timing","Fixation",1,"object-21","V","CFD-BF-040-003-S.jpeg",NA,"SUPTM16544"
"86",1689026553052,"10/07/2023 22:02:33",1689030153052,1,"11/07/2023 00:02:33",137495,33,"task-mb68",NA,30604379,9086484,NA,"complete",NA,NA,"computer","Desktop or Laptop","Windows 10","Edge 114.0.1823.67","1536x864","1147x603",NA,NA,NA,"JV Task P1",8,"Anxious",NA,"In",NA,NA,"HIGJFKEADBC",NA,NA,"B (MDot First)",2,321,"SS1","SS1",17,"V","Valence","sn1sjn",1,"continue","",5622.15699990463,5616.022,5622.15699990463,5622.15699990463,5616.022,5622.15699990463,1,5622.15699990463,0,0,NA,"Click To Continue","Continue Button",1,"object-25","V","CFD-WM-019-003-S.jpeg",NA,"SUPTM16544"
"87",1689026553059,"10/07/2023 22:02:33",1689030153059,1,"11/07/2023 00:02:33",137495,33,"task-mb68",NA,30604379,9086484,NA,"complete",NA,NA,"computer","Desktop or Laptop","Windows 10","Edge 114.0.1823.67","1536x864","1147x603",NA,NA,NA,"JV Task P1",8,"Anxious",NA,"In",NA,NA,"HIGJFKEADBC",NA,NA,"B (MDot First)",2,321,"SS1","SS1",17,"V","Valence","sn1sjn",1,"response","52",4782.55799999999,5616.022,5628.75699980927,4782.55799999999,5616.022,5628.75699980927,1,4782.55799999999,846.198999809276,0,NA,"Slider","J",3,"object-27","V","CFD-WM-019-003-S.jpeg",NA,"SUPTM16544"
"88",1689026554013,"10/07/2023 22:02:34",1689030154013,1,"11/07/2023 00:02:34",137495,33,"task-mb68",NA,30604379,9086484,NA,"complete",NA,NA,"computer","Desktop or Laptop","Windows 10","Edge 114.0.1823.67","1536x864","1147x603",NA,NA,NA,"JV Task P1",8,"Anxious",NA,"In",NA,NA,"HIGJFKEADBC",NA,NA,"B (MDot First)",2,321,"SS1","SS1",17,"V","Fixation","aydkg3",2,"continue","",966.670000000013,966.670000000013,966.670000000013,966.670000000013,966.670000000013,966.670000000013,1,966.670000000013,0,0,NA,"Fixation Timing","Fixation",1,"object-21","V","CFD-WM-019-003-S.jpeg",NA,"SUPTM16544"
"89",1689026559476,"10/07/2023 22:02:39",1689030159476,1,"11/07/2023 00:02:39",137495,33,"task-mb68",NA,30604379,9086484,NA,"complete",NA,NA,"computer","Desktop or Laptop","Windows 10","Edge 114.0.1823.67","1536x864","1147x603",NA,NA,NA,"JV Task P1",8,"Anxious",NA,"In",NA,NA,"HIGJFKEADBC",NA,NA,"B (MDot First)",2,321,"SS1","SS1",13,"J","Judginess","w2ir4b",1,"continue","",5457.96499990462,5449.11799999999,5457.96499990462,5457.96499990462,5449.11799999999,5457.96499990462,1,5457.96499990462,0,0,NA,"Click To Continue","Continue Button",1,"object-14","J","CFD-AF-233-190-S.jpeg",NA,"SUPTM16544"
"90",1689026559476,"10/07/2023 22:02:39",1689030159476,1,"11/07/2023 00:02:39",137495,33,"task-mb68",NA,30604379,9086484,NA,"complete",NA,NA,"computer","Desktop or Laptop","Windows 10","Edge 114.0.1823.67","1536x864","1147x603",NA,NA,NA,"JV Task P1",8,"Anxious",NA,"In",NA,NA,"HIGJFKEADBC",NA,NA,"B (MDot First)",2,321,"SS1","SS1",13,"J","Judginess","w2ir4b",1,"response","66",4665.93799999999,5449.11799999999,5458.76500009536,4665.93799999999,5449.11799999999,5458.76500009536,1,4665.93799999999,792.827000095363,0,NA,"Slider","J",3,"object-18","J","CFD-AF-233-190-S.jpeg",NA,"SUPTM16544"
"91",1689026560435,"10/07/2023 22:02:40",1689030160435,1,"11/07/2023 00:02:40",137495,33,"task-mb68",NA,30604379,9086484,NA,"complete",NA,NA,"computer","Desktop or Laptop","Windows 10","Edge 114.0.1823.67","1536x864","1147x603",NA,NA,NA,"JV Task P1",8,"Anxious",NA,"In",NA,NA,"HIGJFKEADBC",NA,NA,"B (MDot First)",2,321,"SS1","SS1",13,"J","Fixation","mtm832",2,"continue","",966.689000000013,966.689000000013,966.689000000013,966.689000000013,966.689000000013,966.689000000013,1,966.689000000013,0,0,NA,"Fixation Timing","Fixation",1,"object-65","J","CFD-AF-233-190-S.jpeg",NA,"SUPTM16544"
"92",1689026564806,"10/07/2023 22:02:44",1689030164806,1,"11/07/2023 00:02:44",137495,33,"task-mb68",NA,30604379,9086484,NA,"complete",NA,NA,"computer","Desktop or Laptop","Windows 10","Edge 114.0.1823.67","1536x864","1147x603",NA,NA,NA,"JV Task P1",8,"Anxious",NA,"In",NA,NA,"HIGJFKEADBC",NA,NA,"B (MDot First)",2,321,"SS1","SS1",14,"J","Judginess","w2ir4b",1,"continue","",4372.55799999999,4366.318,4372.55799999999,4372.55799999999,4366.318,4372.55799999999,1,4372.55799999999,0,0,NA,"Click To Continue","Continue Button",1,"object-14","J","CFD-MM-313-002-N.jpg",NA,"SUPTM16544"
"93",1689026564813,"10/07/2023 22:02:44",1689030164813,1,"11/07/2023 00:02:44",137495,33,"task-mb68",NA,30604379,9086484,NA,"complete",NA,NA,"computer","Desktop or Laptop","Windows 10","Edge 114.0.1823.67","1536x864","1147x603",NA,NA,NA,"JV Task P1",8,"Anxious",NA,"In",NA,NA,"HIGJFKEADBC",NA,NA,"B (MDot First)",2,321,"SS1","SS1",14,"J","Judginess","w2ir4b",1,"response","63",2249.53,4366.318,4379.35799971389,2249.53,4366.318,4379.35799971389,1,2249.53,2129.82799971389,0,NA,"Slider","J",3,"object-18","J","CFD-MM-313-002-N.jpg",NA,"SUPTM16544"
"94",1689026565767,"10/07/2023 22:02:45",1689030165767,1,"11/07/2023 00:02:45",137495,33,"task-mb68",NA,30604379,9086484,NA,"complete",NA,NA,"computer","Desktop or Laptop","Windows 10","Edge 114.0.1823.67","1536x864","1147x603",NA,NA,NA,"JV Task P1",8,"Anxious",NA,"In",NA,NA,"HIGJFKEADBC",NA,NA,"B (MDot First)",2,321,"SS1","SS1",14,"J","Fixation","mtm832",2,"continue","",966.475999999995,966.475999999995,966.475999999995,966.475999999995,966.475999999995,966.475999999995,1,966.475999999995,0,0,NA,"Fixation Timing","Fixation",1,"object-65","J","CFD-MM-313-002-N.jpg",NA,"SUPTM16544"
"95",1689026569309,"10/07/2023 22:02:49",1689030169309,1,"11/07/2023 00:02:49",137495,33,"task-mb68",NA,30604379,9086484,NA,"complete",NA,NA,"computer","Desktop or Laptop","Windows 10","Edge 114.0.1823.67","1536x864","1147x603",NA,NA,NA,"JV Task P1",8,"Anxious",NA,"In",NA,NA,"HIGJFKEADBC",NA,NA,"B (MDot First)",2,321,"SS1","SS1",18,"V","Valence","sn1sjn",1,"continue","",3542.96399980926,3532.981,3542.96399980926,3542.96399980926,3532.981,3542.96399980926,1,3542.96399980926,0,0,NA,"Click To Continue","Continue Button",1,"object-25","V","CFD-WF-024-003-S.jpeg",NA,"SUPTM16544"
"96",1689026569310,"10/07/2023 22:02:49",1689030169310,1,"11/07/2023 00:02:49",137495,33,"task-mb68",NA,30604379,9086484,NA,"complete",NA,NA,"computer","Desktop or Laptop","Windows 10","Edge 114.0.1823.67","1536x864","1147x603",NA,NA,NA,"JV Task P1",8,"Anxious",NA,"In",NA,NA,"HIGJFKEADBC",NA,NA,"B (MDot First)",2,321,"SS1","SS1",18,"V","Valence","sn1sjn",1,"response","26",3016.37099999998,3532.981,3543.764,3016.37099999998,3532.981,3543.764,1,3016.37099999998,527.393000000011,0,NA,"Slider","J",3,"object-27","V","CFD-WF-024-003-S.jpeg",NA,"SUPTM16544"
"97",1689026570267,"10/07/2023 22:02:50",1689030170267,1,"11/07/2023 00:02:50",137495,33,"task-mb68",NA,30604379,9086484,NA,"complete",NA,NA,"computer","Desktop or Laptop","Windows 10","Edge 114.0.1823.67","1536x864","1147x603",NA,NA,NA,"JV Task P1",8,"Anxious",NA,"In",NA,NA,"HIGJFKEADBC",NA,NA,"B (MDot First)",2,321,"SS1","SS1",18,"V","Fixation","aydkg3",2,"continue","",966.271000000008,966.271000000008,966.271000000008,966.271000000008,966.271000000008,966.271000000008,1,966.271000000008,0,0,NA,"Fixation Timing","Fixation",1,"object-21","V","CFD-WF-024-003-S.jpeg",NA,"SUPTM16544"
"98",1689026572966,"10/07/2023 22:02:52",1689030172966,1,"11/07/2023 00:02:52",137495,33,"task-mb68",NA,30604379,9086484,NA,"complete",NA,NA,"computer","Desktop or Laptop","Windows 10","Edge 114.0.1823.67","1536x864","1147x603",NA,NA,NA,"JV Task P1",8,"Anxious",NA,"In",NA,NA,"HIGJFKEADBC",NA,NA,"B (MDot First)",2,321,"SS1","SS1",19,"V","Valence","sn1sjn",1,"continue","",2700.01199999999,2683.337,2700.01199999999,2700.01199999999,2683.337,2700.01199999999,1,2700.01199999999,0,0,NA,"Click To Continue","Continue Button",1,"object-25","V","CFD-WF-009-001-S.jpeg",NA,"SUPTM16544"
"99",1689026572966,"10/07/2023 22:02:52",1689030172966,1,"11/07/2023 00:02:52",137495,33,"task-mb68",NA,30604379,9086484,NA,"complete",NA,NA,"computer","Desktop or Laptop","Windows 10","Edge 114.0.1823.67","1536x864","1147x603",NA,NA,NA,"JV Task P1",8,"Anxious",NA,"In",NA,NA,"HIGJFKEADBC",NA,NA,"B (MDot First)",2,321,"SS1","SS1",19,"V","Valence","sn1sjn",1,"response","24",2016.70599999998,2683.337,2700.40600000002,2016.70599999998,2683.337,2700.40600000002,1,2016.70599999998,683.700000000041,0,NA,"Slider","J",3,"object-27","V","CFD-WF-009-001-S.jpeg",NA,"SUPTM16544"
"100",1689026573916,"10/07/2023 22:02:53",1689030173916,1,"11/07/2023 00:02:53",137495,33,"task-mb68",NA,30604379,9086484,NA,"complete",NA,NA,"computer","Desktop or Laptop","Windows 10","Edge 114.0.1823.67","1536x864","1147x603",NA,NA,NA,"JV Task P1",8,"Anxious",NA,"In",NA,NA,"HIGJFKEADBC",NA,NA,"B (MDot First)",2,321,"SS1","SS1",19,"V","Fixation","aydkg3",2,"continue","",966.133999999991,966.133999999991,966.133999999991,966.133999999991,966.133999999991,966.133999999991,1,966.133999999991,0,0,NA,"Fixation Timing","Fixation",1,"object-21","V","CFD-WF-009-001-S.jpeg",NA,"SUPTM16544"
"101",1689026578969,"10/07/2023 22:02:58",1689030178969,1,"11/07/2023 00:02:58",137495,33,"task-mb68",NA,30604379,9086484,NA,"complete",NA,NA,"computer","Desktop or Laptop","Windows 10","Edge 114.0.1823.67","1536x864","1147x603",NA,NA,NA,"JV Task P1",8,"Anxious",NA,"In",NA,NA,"HIGJFKEADBC",NA,NA,"B (MDot First)",2,321,"SS1","SS1",20,"V","Valence","sn1sjn",1,"continue","",5054.3409997139,5049.39199999999,5054.3409997139,5054.3409997139,5049.39199999999,5054.3409997139,1,5054.3409997139,0,0,NA,"Click To Continue","Continue Button",1,"object-25","V","CFD-WF-027-003-N.jpg",NA,"SUPTM16544"
"102",1689026578978,"10/07/2023 22:02:58",1689030178978,1,"11/07/2023 00:02:58",137495,33,"task-mb68",NA,30604379,9086484,NA,"complete",NA,NA,"computer","Desktop or Laptop","Windows 10","Edge 114.0.1823.67","1536x864","1147x603",NA,NA,NA,"JV Task P1",8,"Anxious",NA,"In",NA,NA,"HIGJFKEADBC",NA,NA,"B (MDot First)",2,321,"SS1","SS1",20,"V","Valence","sn1sjn",1,"response","70",3949.75200000001,5049.39199999999,5063.24099980926,3949.75200000001,5049.39199999999,5063.24099980926,1,3949.75200000001,1113.48899980925,0,NA,"Slider","J",3,"object-27","V","CFD-WF-027-003-N.jpg",NA,"SUPTM16544"
"103",1689026579932,"10/07/2023 22:02:59",1689030179932,1,"11/07/2023 00:02:59",137495,33,"task-mb68",NA,30604379,9086484,NA,"complete",NA,NA,"computer","Desktop or Laptop","Windows 10","Edge 114.0.1823.67","1536x864","1147x603",NA,NA,NA,"JV Task P1",8,"Anxious",NA,"In",NA,NA,"HIGJFKEADBC",NA,NA,"B (MDot First)",2,321,"SS1","SS1",20,"V","Fixation","aydkg3",2,"continue","",966.800000000017,966.800000000017,966.800000000017,966.800000000017,966.800000000017,966.800000000017,1,966.800000000017,0,0,NA,"Fixation Timing","Fixation",1,"object-21","V","CFD-WF-027-003-N.jpg",NA,"SUPTM16544"
"104",1689026586570,"10/07/2023 22:03:06",1689030186570,1,"11/07/2023 00:03:06",137495,33,"task-mb68",NA,30604379,9086484,NA,"complete",NA,NA,"computer","Desktop or Laptop","Windows 10","Edge 114.0.1823.67","1536x864","1147x603",NA,NA,NA,"JV Task P1",8,"Anxious",NA,"In",NA,NA,"HIGJFKEADBC",NA,NA,"B (MDot First)",2,321,"SS1","SS1",15,"J","Judginess","w2ir4b",1,"continue","",6639.24900009535,6632.288,6639.24900009535,6639.24900009535,6632.288,6639.24900009535,1,6639.24900009535,0,0,NA,"Click To Continue","Continue Button",1,"object-14","J","CFD-WF-011-002-H.jpeg",NA,"SUPTM16544"
"105",1689026586571,"10/07/2023 22:03:06",1689030186571,1,"11/07/2023 00:03:06",137495,33,"task-mb68",NA,30604379,9086484,NA,"complete",NA,NA,"computer","Desktop or Laptop","Windows 10","Edge 114.0.1823.67","1536x864","1147x603",NA,NA,NA,"JV Task P1",8,"Anxious",NA,"In",NA,NA,"HIGJFKEADBC",NA,NA,"B (MDot First)",2,321,"SS1","SS1",15,"J","Judginess","w2ir4b",1,"response","84",5465.98499999999,6632.288,6639.84899999999,5465.98499999999,6632.288,6639.84899999999,1,5465.98499999999,1173.864,0,NA,"Slider","J",3,"object-18","J","CFD-WF-011-002-H.jpeg",NA,"SUPTM16544"
"106",1689026587531,"10/07/2023 22:03:07",1689030187531,1,"11/07/2023 00:03:07",137495,33,"task-mb68",NA,30604379,9086484,NA,"complete",NA,NA,"computer","Desktop or Laptop","Windows 10","Edge 114.0.1823.67","1536x864","1147x603",NA,NA,NA,"JV Task P1",8,"Anxious",NA,"In",NA,NA,"HIGJFKEADBC",NA,NA,"B (MDot First)",2,321,"SS1","SS1",15,"J","Fixation","mtm832",2,"continue","",966.917999999976,966.917999999976,966.917999999976,966.917999999976,966.917999999976,966.917999999976,1,966.917999999976,0,0,NA,"Fixation Timing","Fixation",1,"object-65","J","CFD-WF-011-002-H.jpeg",NA,"SUPTM16544"
"107",1689026596009,"10/07/2023 22:03:16",1689030196009,1,"11/07/2023 00:03:16",137495,33,"task-mb68",NA,30604379,9086484,NA,"complete",NA,NA,"computer","Desktop or Laptop","Windows 10","Edge 114.0.1823.67","1536x864","1147x603",NA,NA,NA,"JV Task P1",8,"Anxious",NA,"In",NA,NA,"HIGJFKEADBC",NA,NA,"B (MDot First)",2,321,"SS1","SS1",21,"V","Valence","sn1sjn",1,"continue","",8478.44299971391,8465.26000000001,8478.44299971391,8478.44299971391,8465.26000000001,8478.44299971391,1,8478.44299971391,0,0,NA,"Click To Continue","Continue Button",1,"object-25","V","CFD-AF-250-200-H.jpeg",NA,"SUPTM16544"
"108",1689026596015,"10/07/2023 22:03:16",1689030196015,1,"11/07/2023 00:03:16",137495,33,"task-mb68",NA,30604379,9086484,NA,"complete",NA,NA,"computer","Desktop or Laptop","Windows 10","Edge 114.0.1823.67","1536x864","1147x603",NA,NA,NA,"JV Task P1",8,"Anxious",NA,"In",NA,NA,"HIGJFKEADBC",NA,NA,"B (MDot First)",2,321,"SS1","SS1",21,"V","Valence","sn1sjn",1,"response","74",6682.21000000002,8465.26000000001,8481.55900000001,6682.21000000002,8465.26000000001,8481.55900000001,1,6682.21000000002,1799.34899999999,0,NA,"Slider","J",3,"object-27","V","CFD-AF-250-200-H.jpeg",NA,"SUPTM16544"
"109",1689026596963,"10/07/2023 22:03:16",1689030196963,1,"11/07/2023 00:03:16",137495,33,"task-mb68",NA,30604379,9086484,NA,"complete",NA,NA,"computer","Desktop or Laptop","Windows 10","Edge 114.0.1823.67","1536x864","1147x603",NA,NA,NA,"JV Task P1",8,"Anxious",NA,"In",NA,NA,"HIGJFKEADBC",NA,NA,"B (MDot First)",2,321,"SS1","SS1",21,"V","Fixation","aydkg3",2,"continue","",966.655999999988,966.655999999988,966.655999999988,966.655999999988,966.655999999988,966.655999999988,1,966.655999999988,0,0,NA,"Fixation Timing","Fixation",1,"object-21","V","CFD-AF-250-200-H.jpeg",NA,"SUPTM16544"
"110",1689026600621,"10/07/2023 22:03:20",1689030200621,1,"11/07/2023 00:03:20",137495,33,"task-mb68",NA,30604379,9086484,NA,"complete",NA,NA,"computer","Desktop or Laptop","Windows 10","Edge 114.0.1823.67","1536x864","1147x603",NA,NA,NA,"JV Task P1",8,"Anxious",NA,"In",NA,NA,"HIGJFKEADBC",NA,NA,"B (MDot First)",2,321,"SS1","SS1",22,"V","Valence","sn1sjn",1,"continue","",3659.12700009538,3649.70400000003,3659.12700009538,3659.12700009538,3649.70400000003,3659.12700009538,1,3659.12700009538,0,0,NA,"Click To Continue","Continue Button",1,"object-25","V","CFD-WF-030-002-H.jpeg",NA,"SUPTM16544"
"111",1689026600622,"10/07/2023 22:03:20",1689030200622,1,"11/07/2023 00:03:20",137495,33,"task-mb68",NA,30604379,9086484,NA,"complete",NA,NA,"computer","Desktop or Laptop","Windows 10","Edge 114.0.1823.67","1536x864","1147x603",NA,NA,NA,"JV Task P1",8,"Anxious",NA,"In",NA,NA,"HIGJFKEADBC",NA,NA,"B (MDot First)",2,321,"SS1","SS1",22,"V","Valence","sn1sjn",1,"response","79",2383.361,3649.70400000003,3659.92699980928,2383.361,3649.70400000003,3659.92699980928,1,2383.361,1276.56599980927,0,NA,"Slider","J",3,"object-27","V","CFD-WF-030-002-H.jpeg",NA,"SUPTM16544"
"112",1689026601579,"10/07/2023 22:03:21",1689030201579,1,"11/07/2023 00:03:21",137495,33,"task-mb68",NA,30604379,9086484,NA,"complete",NA,NA,"computer","Desktop or Laptop","Windows 10","Edge 114.0.1823.67","1536x864","1147x603",NA,NA,NA,"JV Task P1",8,"Anxious",NA,"In",NA,NA,"HIGJFKEADBC",NA,NA,"B (MDot First)",2,321,"SS1","SS1",22,"V","Fixation","aydkg3",2,"continue","",966.708999999973,966.708999999973,966.708999999973,966.708999999973,966.708999999973,966.708999999973,1,966.708999999973,0,0,NA,"Fixation Timing","Fixation",1,"object-21","V","CFD-WF-030-002-H.jpeg",NA,"SUPTM16544"
"113",1689026610946,"10/07/2023 22:03:30",1689030210946,1,"11/07/2023 00:03:30",137495,33,"task-mb68",NA,30604379,9086484,NA,"complete",NA,NA,"computer","Desktop or Laptop","Windows 10","Edge 114.0.1823.67","1536x864","1147x603",NA,NA,NA,"JV Task P1",8,"Anxious",NA,"In",NA,NA,"HIGJFKEADBC",NA,NA,"B (MDot First)",2,321,"SS1","SS1",23,"V","Valence","sn1sjn",1,"continue","",9366.81400000001,9365.16,9366.81400000001,9366.81400000001,9365.16,9366.81400000001,1,9366.81400000001,0,0,NA,"Click To Continue","Continue Button",1,"object-25","V","CFD-IF-693-172-N.jpg",NA,"SUPTM16544"
"114",1689026610952,"10/07/2023 22:03:30",1689030210952,1,"11/07/2023 00:03:30",137495,33,"task-mb68",NA,30604379,9086484,NA,"complete",NA,NA,"computer","Desktop or Laptop","Windows 10","Edge 114.0.1823.67","1536x864","1147x603",NA,NA,NA,"JV Task P1",8,"Anxious",NA,"In",NA,NA,"HIGJFKEADBC",NA,NA,"B (MDot First)",2,321,"SS1","SS1",23,"V","Valence","sn1sjn",1,"response","38",8298.88400000002,9365.16,9373.31400000001,8298.88400000002,9365.16,9373.31400000001,1,8298.88400000002,1074.42999999999,0,NA,"Slider","J",3,"object-27","V","CFD-IF-693-172-N.jpg",NA,"SUPTM16544"
"115",1689026611911,"10/07/2023 22:03:31",1689030211911,1,"11/07/2023 00:03:31",137495,33,"task-mb68",NA,30604379,9086484,NA,"complete",NA,NA,"computer","Desktop or Laptop","Windows 10","Edge 114.0.1823.67","1536x864","1147x603",NA,NA,NA,"JV Task P1",8,"Anxious",NA,"In",NA,NA,"HIGJFKEADBC",NA,NA,"B (MDot First)",2,321,"SS1","SS1",23,"V","Fixation","aydkg3",2,"continue","",966.833000000013,966.833000000013,966.833000000013,966.833000000013,966.833000000013,966.833000000013,1,966.833000000013,0,0,NA,"Fixation Timing","Fixation",1,"object-21","V","CFD-IF-693-172-N.jpg",NA,"SUPTM16544"
"116",1689026616069,"10/07/2023 22:03:36",1689030216069,1,"11/07/2023 00:03:36",137495,33,"task-mb68",NA,30604379,9086484,NA,"complete",NA,NA,"computer","Desktop or Laptop","Windows 10","Edge 114.0.1823.67","1536x864","1147x603",NA,NA,NA,"JV Task P1",8,"Anxious",NA,"In",NA,NA,"HIGJFKEADBC",NA,NA,"B (MDot First)",2,321,"SS1","SS1",24,"V","Valence","sn1sjn",1,"continue","",4158.12099971389,4149.65099999998,4158.12099971389,4158.12099971389,4149.65099999998,4158.12099971389,1,4158.12099971389,0,0,NA,"Click To Continue","Continue Button",1,"object-25","V","CFD-WM-036-031-N.jpg",NA,"SUPTM16544"
"117",1689026616069,"10/07/2023 22:03:36",1689030216069,1,"11/07/2023 00:03:36",137495,33,"task-mb68",NA,30604379,9086484,NA,"complete",NA,NA,"computer","Desktop or Laptop","Windows 10","Edge 114.0.1823.67","1536x864","1147x603",NA,NA,NA,"JV Task P1",8,"Anxious",NA,"In",NA,NA,"HIGJFKEADBC",NA,NA,"B (MDot First)",2,321,"SS1","SS1",24,"V","Valence","sn1sjn",1,"response","61",3082.921,4149.65099999998,4158.72100009536,3082.921,4149.65099999998,4158.72100009536,1,3082.921,1075.80000009536,0,NA,"Slider","J",3,"object-27","V","CFD-WM-036-031-N.jpg",NA,"SUPTM16544"
"118",1689026617027,"10/07/2023 22:03:37",1689030217027,1,"11/07/2023 00:03:37",137495,33,"task-mb68",NA,30604379,9086484,NA,"complete",NA,NA,"computer","Desktop or Laptop","Windows 10","Edge 114.0.1823.67","1536x864","1147x603",NA,NA,NA,"JV Task P1",8,"Anxious",NA,"In",NA,NA,"HIGJFKEADBC",NA,NA,"B (MDot First)",2,321,"SS1","SS1",24,"V","Fixation","aydkg3",2,"continue","",966.40400000001,966.40400000001,966.40400000001,966.40400000001,966.40400000001,966.40400000001,1,966.40400000001,0,0,NA,"Fixation Timing","Fixation",1,"object-21","V","CFD-WM-036-031-N.jpg",NA,"SUPTM16544"
"119",1689026620925,"10/07/2023 22:03:40",1689030220925,1,"11/07/2023 00:03:40",137495,33,"task-mb68",NA,30604379,9086484,NA,"complete",NA,NA,"computer","Desktop or Laptop","Windows 10","Edge 114.0.1823.67","1536x864","1147x603",NA,NA,NA,"JV Task P1",8,"Anxious",NA,"In",NA,NA,"HIGJFKEADBC",NA,NA,"B (MDot First)",2,321,"SS1","SS1",25,"V","Valence","sn1sjn",1,"continue","",3894.66600009537,3882.823,3894.66600009537,3894.66600009537,3882.823,3894.66600009537,1,3894.66600009537,0,0,NA,"Click To Continue","Continue Button",1,"object-25","V","CFD-WF-012-002-N.jpg",NA,"SUPTM16544"
"120",1689026620925,"10/07/2023 22:03:40",1689030220925,1,"11/07/2023 00:03:40",137495,33,"task-mb68",NA,30604379,9086484,NA,"complete",NA,NA,"computer","Desktop or Laptop","Windows 10","Edge 114.0.1823.67","1536x864","1147x603",NA,NA,NA,"JV Task P1",8,"Anxious",NA,"In",NA,NA,"HIGJFKEADBC",NA,NA,"B (MDot First)",2,321,"SS1","SS1",25,"V","Valence","sn1sjn",1,"response","67",3166.42000000001,3882.823,3895.266,3166.42000000001,3882.823,3895.266,1,3166.42000000001,728.84599999999,0,NA,"Slider","J",3,"object-27","V","CFD-WF-012-002-N.jpg",NA,"SUPTM16544"
"121",1689026621880,"10/07/2023 22:03:41",1689030221880,1,"11/07/2023 00:03:41",137495,33,"task-mb68",NA,30604379,9086484,NA,"complete",NA,NA,"computer","Desktop or Laptop","Windows 10","Edge 114.0.1823.67","1536x864","1147x603",NA,NA,NA,"JV Task P1",8,"Anxious",NA,"In",NA,NA,"HIGJFKEADBC",NA,NA,"B (MDot First)",2,321,"SS1","SS1",25,"V","Fixation","aydkg3",2,"continue","",966.369999999995,966.369999999995,966.369999999995,966.369999999995,966.369999999995,966.369999999995,1,966.369999999995,0,0,NA,"Fixation Timing","Fixation",1,"object-21","V","CFD-WF-012-002-N.jpg",NA,"SUPTM16544"
"122",1689026625200,"10/07/2023 22:03:45",1689030225200,1,"11/07/2023 00:03:45",137495,33,"task-mb68",NA,30604379,9086484,NA,"complete",NA,NA,"computer","Desktop or Laptop","Windows 10","Edge 114.0.1823.67","1536x864","1147x603",NA,NA,NA,"JV Task P1",8,"Anxious",NA,"In",NA,NA,"HIGJFKEADBC",NA,NA,"B (MDot First)",2,321,"SS1","SS1",26,"V","Valence","sn1sjn",1,"continue","",3320.573,3316.345,3320.573,3320.573,3316.345,3320.573,1,3320.573,0,0,NA,"Click To Continue","Continue Button",1,"object-25","V","CFD-BF-008-001-H.jpeg",NA,"SUPTM16544"
"123",1689026625200,"10/07/2023 22:03:45",1689030225200,1,"11/07/2023 00:03:45",137495,33,"task-mb68",NA,30604379,9086484,NA,"complete",NA,NA,"computer","Desktop or Laptop","Windows 10","Edge 114.0.1823.67","1536x864","1147x603",NA,NA,NA,"JV Task P1",8,"Anxious",NA,"In",NA,NA,"HIGJFKEADBC",NA,NA,"B (MDot First)",2,321,"SS1","SS1",26,"V","Valence","sn1sjn",1,"response","88",1666.52100000001,3316.345,3320.97300009537,1666.52100000001,3316.345,3320.97300009537,1,1666.52100000001,1654.45200009536,0,NA,"Slider","J",3,"object-27","V","CFD-BF-008-001-H.jpeg",NA,"SUPTM16544"
"124",1689026626163,"10/07/2023 22:03:46",1689030226163,1,"11/07/2023 00:03:46",137495,33,"task-mb68",NA,30604379,9086484,NA,"complete",NA,NA,"computer","Desktop or Laptop","Windows 10","Edge 114.0.1823.67","1536x864","1147x603",NA,NA,NA,"JV Task P1",8,"Anxious",NA,"In",NA,NA,"HIGJFKEADBC",NA,NA,"B (MDot First)",2,321,"SS1","SS1",26,"V","Fixation","aydkg3",2,"continue","",966.448999999993,966.448999999993,966.448999999993,966.448999999993,966.448999999993,966.448999999993,1,966.448999999993,0,0,NA,"Fixation Timing","Fixation",1,"object-21","V","CFD-BF-008-001-H.jpeg",NA,"SUPTM16544"
"125",1689026629919,"10/07/2023 22:03:49",1689030229919,1,"11/07/2023 00:03:49",137495,33,"task-mb68",NA,30604379,9086484,NA,"complete",NA,NA,"computer","Desktop or Laptop","Windows 10","Edge 114.0.1823.67","1536x864","1147x603",NA,NA,NA,"JV Task P1",8,"Anxious",NA,"In",NA,NA,"HIGJFKEADBC",NA,NA,"B (MDot First)",2,321,"SS1","SS1",27,"V","Valence","sn1sjn",1,"continue","",3756.97899980927,3749.60800000001,3756.97899980927,3756.97899980927,3749.60800000001,3756.97899980927,1,3756.97899980927,0,0,NA,"Click To Continue","Continue Button",1,"object-25","V","CFD-WM-028-003-N.jpg",NA,"SUPTM16544"
"126",1689026629920,"10/07/2023 22:03:49",1689030229920,1,"11/07/2023 00:03:49",137495,33,"task-mb68",NA,30604379,9086484,NA,"complete",NA,NA,"computer","Desktop or Laptop","Windows 10","Edge 114.0.1823.67","1536x864","1147x603",NA,NA,NA,"JV Task P1",8,"Anxious",NA,"In",NA,NA,"HIGJFKEADBC",NA,NA,"B (MDot First)",2,321,"SS1","SS1",27,"V","Valence","sn1sjn",1,"response","35",2833.087,3749.60800000001,3757.67900009538,2833.087,3749.60800000001,3757.67900009538,1,2833.087,924.592000095377,0,NA,"Slider","J",3,"object-27","V","CFD-WM-028-003-N.jpg",NA,"SUPTM16544"
"127",1689026630879,"10/07/2023 22:03:50",1689030230879,1,"11/07/2023 00:03:50",137495,33,"task-mb68",NA,30604379,9086484,NA,"complete",NA,NA,"computer","Desktop or Laptop","Windows 10","Edge 114.0.1823.67","1536x864","1147x603",NA,NA,NA,"JV Task P1",8,"Anxious",NA,"In",NA,NA,"HIGJFKEADBC",NA,NA,"B (MDot First)",2,321,"SS1","SS1",27,"V","Fixation","aydkg3",2,"continue","",966.714000000007,966.714000000007,966.714000000007,966.714000000007,966.714000000007,966.714000000007,1,966.714000000007,0,0,NA,"Fixation Timing","Fixation",1,"object-21","V","CFD-WM-028-003-N.jpg",NA,"SUPTM16544"
"128",1689026633840,"10/07/2023 22:03:53",1689030233840,1,"11/07/2023 00:03:53",137495,33,"task-mb68",NA,30604379,9086484,NA,"complete",NA,NA,"computer","Desktop or Laptop","Windows 10","Edge 114.0.1823.67","1536x864","1147x603",NA,NA,NA,"JV Task P1",8,"Anxious",NA,"In",NA,NA,"HIGJFKEADBC",NA,NA,"B (MDot First)",2,321,"SS1","SS1",28,"V","Valence","sn1sjn",1,"continue","",2960.95699999999,2949.451,2960.95699999999,2960.95699999999,2949.451,2960.95699999999,1,2960.95699999999,0,0,NA,"Click To Continue","Continue Button",1,"object-25","V","CFD-AF-211-066-H.jpeg",NA,"SUPTM16544"
"129",1689026633847,"10/07/2023 22:03:53",1689030233847,1,"11/07/2023 00:03:53",137495,33,"task-mb68",NA,30604379,9086484,NA,"complete",NA,NA,"computer","Desktop or Laptop","Windows 10","Edge 114.0.1823.67","1536x864","1147x603",NA,NA,NA,"JV Task P1",8,"Anxious",NA,"In",NA,NA,"HIGJFKEADBC",NA,NA,"B (MDot First)",2,321,"SS1","SS1",28,"V","Valence","sn1sjn",1,"response","85",2099.65299999999,2949.451,2966.11300000001,2099.65299999999,2949.451,2966.11300000001,1,2099.65299999999,866.460000000021,0,NA,"Slider","J",3,"object-27","V","CFD-AF-211-066-H.jpeg",NA,"SUPTM16544"
"130",1689026634795,"10/07/2023 22:03:54",1689030234795,1,"11/07/2023 00:03:54",137495,33,"task-mb68",NA,30604379,9086484,NA,"complete",NA,NA,"computer","Desktop or Laptop","Windows 10","Edge 114.0.1823.67","1536x864","1147x603",NA,NA,NA,"JV Task P1",8,"Anxious",NA,"In",NA,NA,"HIGJFKEADBC",NA,NA,"B (MDot First)",2,321,"SS1","SS1",28,"V","Fixation","aydkg3",2,"continue","",966.883999999991,966.883999999991,966.883999999991,966.883999999991,966.883999999991,966.883999999991,1,966.883999999991,0,0,NA,"Fixation Timing","Fixation",1,"object-21","V","CFD-AF-211-066-H.jpeg",NA,"SUPTM16544"
"131",1689026639975,"10/07/2023 22:03:59",1689030239975,1,"11/07/2023 00:03:59",137495,33,"task-mb68",NA,30604379,9086484,NA,"complete",NA,NA,"computer","Desktop or Laptop","Windows 10","Edge 114.0.1823.67","1536x864","1147x603",NA,NA,NA,"JV Task P1",8,"Anxious",NA,"In",NA,NA,"HIGJFKEADBC",NA,NA,"B (MDot First)",2,321,"SS1","SS1",29,"V","Valence","sn1sjn",1,"continue","",5180.4219997139,5165.96400000001,5180.4219997139,5180.4219997139,5165.96400000001,5180.4219997139,1,5180.4219997139,0,0,NA,"Click To Continue","Continue Button",1,"object-25","V","CFD-BM-028-002-S.jpeg",NA,"SUPTM16544"
"132",1689026639976,"10/07/2023 22:03:59",1689030239976,1,"11/07/2023 00:03:59",137495,33,"task-mb68",NA,30604379,9086484,NA,"complete",NA,NA,"computer","Desktop or Laptop","Windows 10","Edge 114.0.1823.67","1536x864","1147x603",NA,NA,NA,"JV Task P1",8,"Anxious",NA,"In",NA,NA,"HIGJFKEADBC",NA,NA,"B (MDot First)",2,321,"SS1","SS1",29,"V","Valence","sn1sjn",1,"response","19",3866.27100000001,5165.96400000001,5181.4219997139,3866.27100000001,5165.96400000001,5181.4219997139,1,3866.27100000001,1315.15099971389,0,NA,"Slider","J",3,"object-27","V","CFD-BM-028-002-S.jpeg",NA,"SUPTM16544"
"133",1689026640928,"10/07/2023 22:04:00",1689030240928,1,"11/07/2023 00:04:00",137495,33,"task-mb68",NA,30604379,9086484,NA,"complete",NA,NA,"computer","Desktop or Laptop","Windows 10","Edge 114.0.1823.67","1536x864","1147x603",NA,NA,NA,"JV Task P1",8,"Anxious",NA,"In",NA,NA,"HIGJFKEADBC",NA,NA,"B (MDot First)",2,321,"SS1","SS1",29,"V","Fixation","aydkg3",2,"continue","",966.630999999994,966.630999999994,966.630999999994,966.630999999994,966.630999999994,966.630999999994,1,966.630999999994,0,0,NA,"Fixation Timing","Fixation",1,"object-21","V","CFD-BM-028-002-S.jpeg",NA,"SUPTM16544"
"134",1689026644318,"10/07/2023 22:04:04",1689030244318,1,"11/07/2023 00:04:04",137495,33,"task-mb68",NA,30604379,9086484,NA,"complete",NA,NA,"computer","Desktop or Laptop","Windows 10","Edge 114.0.1823.67","1536x864","1147x603",NA,NA,NA,"JV Task P1",8,"Anxious",NA,"In",NA,NA,"HIGJFKEADBC",NA,NA,"B (MDot First)",2,321,"SS1","SS1",16,"J","Judginess","w2ir4b",1,"continue","",3390.527,3382.96100000001,3390.527,3390.527,3382.96100000001,3390.527,1,3390.527,0,0,NA,"Click To Continue","Continue Button",1,"object-14","J","CFD-BM-036-003-H.jpeg",NA,"SUPTM16544"
"135",1689026644325,"10/07/2023 22:04:04",1689030244325,1,"11/07/2023 00:04:04",137495,33,"task-mb68",NA,30604379,9086484,NA,"complete",NA,NA,"computer","Desktop or Laptop","Windows 10","Edge 114.0.1823.67","1536x864","1147x603",NA,NA,NA,"JV Task P1",8,"Anxious",NA,"In",NA,NA,"HIGJFKEADBC",NA,NA,"B (MDot First)",2,321,"SS1","SS1",16,"J","Judginess","w2ir4b",1,"response","78",2616.06899999999,3382.96100000001,3397.8269997139,2616.06899999999,3382.96100000001,3397.8269997139,1,2616.06899999999,781.757999713911,0,NA,"Slider","J",3,"object-18","J","CFD-BM-036-003-H.jpeg",NA,"SUPTM16544"
"136",1689026645277,"10/07/2023 22:04:05",1689030245277,1,"11/07/2023 00:04:05",137495,33,"task-mb68",NA,30604379,9086484,NA,"complete",NA,NA,"computer","Desktop or Laptop","Windows 10","Edge 114.0.1823.67","1536x864","1147x603",NA,NA,NA,"JV Task P1",8,"Anxious",NA,"In",NA,NA,"HIGJFKEADBC",NA,NA,"B (MDot First)",2,321,"SS1","SS1",16,"J","Fixation","mtm832",2,"continue","",966.531999999977,966.531999999977,966.531999999977,966.531999999977,966.531999999977,966.531999999977,1,966.531999999977,0,0,NA,"Fixation Timing","Fixation",1,"object-65","J","CFD-BM-036-003-H.jpeg",NA,"SUPTM16544"
"137",1689026650483,"10/07/2023 22:04:10",1689030250483,1,"11/07/2023 00:04:10",137495,33,"task-mb68",NA,30604379,9086484,NA,"complete",NA,NA,"computer","Desktop or Laptop","Windows 10","Edge 114.0.1823.67","1536x864","1147x603",NA,NA,NA,"JV Task P1",8,"Anxious",NA,"In",NA,NA,"HIGJFKEADBC",NA,NA,"B (MDot First)",2,321,"SS1","SS1",30,"V","Valence","sn1sjn",1,"continue","",5206.33399971391,5198.98700000002,5206.33399971391,5206.33399971391,5198.98700000002,5206.33399971391,1,5206.33399971391,0,0,NA,"Click To Continue","Continue Button",1,"object-25","V","CFD-WM-034-030-N.jpg",NA,"SUPTM16544"
"138",1689026650484,"10/07/2023 22:04:10",1689030250484,1,"11/07/2023 00:04:10",137495,33,"task-mb68",NA,30604379,9086484,NA,"complete",NA,NA,"computer","Desktop or Laptop","Windows 10","Edge 114.0.1823.67","1536x864","1147x603",NA,NA,NA,"JV Task P1",8,"Anxious",NA,"In",NA,NA,"HIGJFKEADBC",NA,NA,"B (MDot First)",2,321,"SS1","SS1",30,"V","Valence","sn1sjn",1,"response","31",4399.35700000002,5198.98700000002,5207.13399990465,4399.35700000002,5198.98700000002,5207.13399990465,1,4399.35700000002,807.776999904629,0,NA,"Slider","J",3,"object-27","V","CFD-WM-034-030-N.jpg",NA,"SUPTM16544"
"139",1689026651443,"10/07/2023 22:04:11",1689030251443,1,"11/07/2023 00:04:11",137495,33,"task-mb68",NA,30604379,9086484,NA,"complete",NA,NA,"computer","Desktop or Laptop","Windows 10","Edge 114.0.1823.67","1536x864","1147x603",NA,NA,NA,"JV Task P1",8,"Anxious",NA,"In",NA,NA,"HIGJFKEADBC",NA,NA,"B (MDot First)",2,321,"SS1","SS1",30,"V","Fixation","aydkg3",2,"continue","",966.944999999978,966.944999999978,966.944999999978,966.944999999978,966.944999999978,966.944999999978,1,966.944999999978,0,0,NA,"Fixation Timing","Fixation",1,"object-21","V","CFD-WM-034-030-N.jpg",NA,"SUPTM16544"
"140",1689026655676,"10/07/2023 22:04:15",1689030255676,1,"11/07/2023 00:04:15",137495,33,"task-mb68",NA,30604379,9086484,NA,"complete",NA,NA,"computer","Desktop or Laptop","Windows 10","Edge 114.0.1823.67","1536x864","1147x603",NA,NA,NA,"JV Task P1",8,"Anxious",NA,"In",NA,NA,"HIGJFKEADBC",NA,NA,"B (MDot First)",2,321,"SS1","SS1",17,"J","Judginess","w2ir4b",1,"continue","",4232.796,4216.17300000001,4232.796,4232.796,4216.17300000001,4232.796,1,4232.796,0,0,NA,"Click To Continue","Continue Button",1,"object-14","J","CFD-MF-315-002-S.jpeg",NA,"SUPTM16544"
"141",1689026655683,"10/07/2023 22:04:15",1689030255683,1,"11/07/2023 00:04:15",137495,33,"task-mb68",NA,30604379,9086484,NA,"complete",NA,NA,"computer","Desktop or Laptop","Windows 10","Edge 114.0.1823.67","1536x864","1147x603",NA,NA,NA,"JV Task P1",8,"Anxious",NA,"In",NA,NA,"HIGJFKEADBC",NA,NA,"B (MDot First)",2,321,"SS1","SS1",17,"J","Judginess","w2ir4b",1,"response","63",3416.13500000001,4216.17300000001,4232.796,3416.13500000001,4216.17300000001,4232.796,1,3416.13500000001,816.660999999993,0,NA,"Slider","J",3,"object-18","J","CFD-MF-315-002-S.jpeg",NA,"SUPTM16544"
"142",1689026656627,"10/07/2023 22:04:16",1689030256627,1,"11/07/2023 00:04:16",137495,33,"task-mb68",NA,30604379,9086484,NA,"complete",NA,NA,"computer","Desktop or Laptop","Windows 10","Edge 114.0.1823.67","1536x864","1147x603",NA,NA,NA,"JV Task P1",8,"Anxious",NA,"In",NA,NA,"HIGJFKEADBC",NA,NA,"B (MDot First)",2,321,"SS1","SS1",17,"J","Fixation","mtm832",2,"continue","",966.222999999998,966.222999999998,966.222999999998,966.222999999998,966.222999999998,966.222999999998,1,966.222999999998,0,0,NA,"Fixation Timing","Fixation",1,"object-65","J","CFD-MF-315-002-S.jpeg",NA,"SUPTM16544"
"143",1689026659747,"10/07/2023 22:04:19",1689030259747,1,"11/07/2023 00:04:19",137495,33,"task-mb68",NA,30604379,9086484,NA,"complete",NA,NA,"computer","Desktop or Laptop","Windows 10","Edge 114.0.1823.67","1536x864","1147x603",NA,NA,NA,"JV Task P1",8,"Anxious",NA,"In",NA,NA,"HIGJFKEADBC",NA,NA,"B (MDot First)",2,321,"SS1","SS1",31,"V","Valence","sn1sjn",1,"continue","",3121.90599980927,3116.33199999999,3121.90599980927,3121.90599980927,3116.33199999999,3121.90599980927,1,3121.90599980927,0,0,NA,"Click To Continue","Continue Button",1,"object-25","V","CFD-WF-037-029-S.jpeg",NA,"SUPTM16544"
"144",1689026659748,"10/07/2023 22:04:19",1689030259748,1,"11/07/2023 00:04:19",137495,33,"task-mb68",NA,30604379,9086484,NA,"complete",NA,NA,"computer","Desktop or Laptop","Windows 10","Edge 114.0.1823.67","1536x864","1147x603",NA,NA,NA,"JV Task P1",8,"Anxious",NA,"In",NA,NA,"HIGJFKEADBC",NA,NA,"B (MDot First)",2,321,"SS1","SS1",31,"V","Valence","sn1sjn",1,"response","32",1949.96799999999,3116.33199999999,3122.40599980927,1949.96799999999,3116.33199999999,3122.40599980927,1,1949.96799999999,1172.43799980928,0,NA,"Slider","J",3,"object-27","V","CFD-WF-037-029-S.jpeg",NA,"SUPTM16544"
"145",1689026660709,"10/07/2023 22:04:20",1689030260709,1,"11/07/2023 00:04:20",137495,33,"task-mb68",NA,30604379,9086484,NA,"complete",NA,NA,"computer","Desktop or Laptop","Windows 10","Edge 114.0.1823.67","1536x864","1147x603",NA,NA,NA,"JV Task P1",8,"Anxious",NA,"In",NA,NA,"HIGJFKEADBC",NA,NA,"B (MDot First)",2,321,"SS1","SS1",31,"V","Fixation","aydkg3",2,"continue","",966.477000000014,966.477000000014,966.477000000014,966.477000000014,966.477000000014,966.477000000014,1,966.477000000014,0,0,NA,"Fixation Timing","Fixation",1,"object-21","V","CFD-WF-037-029-S.jpeg",NA,"SUPTM16544"
"146",1689026666329,"10/07/2023 22:04:26",1689030266329,1,"11/07/2023 00:04:26",137495,33,"task-mb68",NA,30604379,9086484,NA,"complete",NA,NA,"computer","Desktop or Laptop","Windows 10","Edge 114.0.1823.67","1536x864","1147x603",NA,NA,NA,"JV Task P1",8,"Anxious",NA,"In",NA,NA,"HIGJFKEADBC",NA,NA,"B (MDot First)",2,321,"SS1","SS1",32,"V","Valence","sn1sjn",1,"continue","",5620.79700009536,5616.00400000002,5620.79700009536,5620.79700009536,5616.00400000002,5620.79700009536,1,5620.79700009536,0,0,NA,"Click To Continue","Continue Button",1,"object-25","V","CFD-AM-223-138-N.jpg",NA,"SUPTM16544"
"147",1689026666335,"10/07/2023 22:04:26",1689030266335,1,"11/07/2023 00:04:26",137495,33,"task-mb68",NA,30604379,9086484,NA,"complete",NA,NA,"computer","Desktop or Laptop","Windows 10","Edge 114.0.1823.67","1536x864","1147x603",NA,NA,NA,"JV Task P1",8,"Anxious",NA,"In",NA,NA,"HIGJFKEADBC",NA,NA,"B (MDot First)",2,321,"SS1","SS1",32,"V","Valence","sn1sjn",1,"response","24",4599.66999999998,5616.00400000002,5627.19699971389,4599.66999999998,5616.00400000002,5627.19699971389,1,4599.66999999998,1027.52699971391,0,NA,"Slider","J",3,"object-27","V","CFD-AM-223-138-N.jpg",NA,"SUPTM16544"
"148",1689026667292,"10/07/2023 22:04:27",1689030267292,1,"11/07/2023 00:04:27",137495,33,"task-mb68",NA,30604379,9086484,NA,"complete",NA,NA,"computer","Desktop or Laptop","Windows 10","Edge 114.0.1823.67","1536x864","1147x603",NA,NA,NA,"JV Task P1",8,"Anxious",NA,"In",NA,NA,"HIGJFKEADBC",NA,NA,"B (MDot First)",2,321,"SS1","SS1",32,"V","Fixation","aydkg3",2,"continue","",966.680999999982,966.680999999982,966.680999999982,966.680999999982,966.680999999982,966.680999999982,1,966.680999999982,0,0,NA,"Fixation Timing","Fixation",1,"object-21","V","CFD-AM-223-138-N.jpg",NA,"SUPTM16544"
"149",1689026676189,"10/07/2023 22:04:36",1689030276189,1,"11/07/2023 00:04:36",137495,33,"task-mb68",NA,30604379,9086484,NA,"complete",NA,NA,"computer","Desktop or Laptop","Windows 10","Edge 114.0.1823.67","1536x864","1147x603",NA,NA,NA,"JV Task P1",8,"Anxious",NA,"In",NA,NA,"HIGJFKEADBC",NA,NA,"B (MDot First)",2,321,"SS1","SS1",33,"V","Valence","sn1sjn",1,"continue","",8897.91199980926,8882.34499999997,8897.91199980926,8897.91199980926,8882.34499999997,8897.91199980926,1,8897.91199980926,0,0,NA,"Click To Continue","Continue Button",1,"object-25","V","CFD-WF-006-002-H.jpeg",NA,"SUPTM16544"
"150",1689026676189,"10/07/2023 22:04:36",1689030276189,1,"11/07/2023 00:04:36",137495,33,"task-mb68",NA,30604379,9086484,NA,"complete",NA,NA,"computer","Desktop or Laptop","Windows 10","Edge 114.0.1823.67","1536x864","1147x603",NA,NA,NA,"JV Task P1",8,"Anxious",NA,"In",NA,NA,"HIGJFKEADBC",NA,NA,"B (MDot First)",2,321,"SS1","SS1",33,"V","Valence","sn1sjn",1,"response","77",7865.63400000002,8882.34499999997,8898.61200009537,7865.63400000002,8882.34499999997,8898.61200009537,1,7865.63400000002,1032.97800009535,0,NA,"Slider","J",3,"object-27","V","CFD-WF-006-002-H.jpeg",NA,"SUPTM16544"
"151",1689026677141,"10/07/2023 22:04:37",1689030277141,1,"11/07/2023 00:04:37",137495,33,"task-mb68",NA,30604379,9086484,NA,"complete",NA,NA,"computer","Desktop or Laptop","Windows 10","Edge 114.0.1823.67","1536x864","1147x603",NA,NA,NA,"JV Task P1",8,"Anxious",NA,"In",NA,NA,"HIGJFKEADBC",NA,NA,"B (MDot First)",2,321,"SS1","SS1",33,"V","Fixation","aydkg3",2,"continue","",966.538,966.538,966.538,966.538,966.538,966.538,1,966.538,0,0,NA,"Fixation Timing","Fixation",1,"object-21","V","CFD-WF-006-002-H.jpeg",NA,"SUPTM16544"
"152",1689026685642,"10/07/2023 22:04:45",1689030285642,1,"11/07/2023 00:04:45",137495,33,"task-mb68",NA,30604379,9086484,NA,"complete",NA,NA,"computer","Desktop or Laptop","Windows 10","Edge 114.0.1823.67","1536x864","1147x603",NA,NA,NA,"JV Task P1",8,"Anxious",NA,"In",NA,NA,"HIGJFKEADBC",NA,NA,"B (MDot First)",2,321,"SS1","SS1",18,"J","Judginess","w2ir4b",1,"continue","",8507.82900000003,8499.18900000001,8507.82900000003,8507.82900000003,8499.18900000001,8507.82900000003,1,8507.82900000003,0,0,NA,"Click To Continue","Continue Button",1,"object-14","J","CFD-BF-030-002-H.jpeg",NA,"SUPTM16544"
"153",1689026685643,"10/07/2023 22:04:45",1689030285643,1,"11/07/2023 00:04:45",137495,33,"task-mb68",NA,30604379,9086484,NA,"complete",NA,NA,"computer","Desktop or Laptop","Windows 10","Edge 114.0.1823.67","1536x864","1147x603",NA,NA,NA,"JV Task P1",8,"Anxious",NA,"In",NA,NA,"HIGJFKEADBC",NA,NA,"B (MDot First)",2,321,"SS1","SS1",18,"J","Judginess","w2ir4b",1,"response","71",7249.28600000002,8499.18900000001,8508.32900000003,7249.28600000002,8499.18900000001,8508.32900000003,1,7249.28600000002,1259.04300000001,0,NA,"Slider","J",3,"object-18","J","CFD-BF-030-002-H.jpeg",NA,"SUPTM16544"
"154",1689026686601,"10/07/2023 22:04:46",1689030286601,1,"11/07/2023 00:04:46",137495,33,"task-mb68",NA,30604379,9086484,NA,"complete",NA,NA,"computer","Desktop or Laptop","Windows 10","Edge 114.0.1823.67","1536x864","1147x603",NA,NA,NA,"JV Task P1",8,"Anxious",NA,"In",NA,NA,"HIGJFKEADBC",NA,NA,"B (MDot First)",2,321,"SS1","SS1",18,"J","Fixation","mtm832",2,"continue","",966.361000000034,966.361000000034,966.361000000034,966.361000000034,966.361000000034,966.361000000034,1,966.361000000034,0,0,NA,"Fixation Timing","Fixation",1,"object-65","J","CFD-BF-030-002-H.jpeg",NA,"SUPTM16544"
"155",1689026690075,"10/07/2023 22:04:50",1689030290075,1,"11/07/2023 00:04:50",137495,33,"task-mb68",NA,30604379,9086484,NA,"complete",NA,NA,"computer","Desktop or Laptop","Windows 10","Edge 114.0.1823.67","1536x864","1147x603",NA,NA,NA,"JV Task P1",8,"Anxious",NA,"In",NA,NA,"HIGJFKEADBC",NA,NA,"B (MDot First)",2,321,"SS1","SS1",34,"V","Valence","sn1sjn",1,"continue","",3475.67900009535,3466.26299999998,3475.67900009535,3475.67900009535,3466.26299999998,3475.67900009535,1,3475.67900009535,0,0,NA,"Click To Continue","Continue Button",1,"object-25","V","CFD-WM-001-014-N.jpg",NA,"SUPTM16544"
"156",1689026690080,"10/07/2023 22:04:50",1689030290080,1,"11/07/2023 00:04:50",137495,33,"task-mb68",NA,30604379,9086484,NA,"complete",NA,NA,"computer","Desktop or Laptop","Windows 10","Edge 114.0.1823.67","1536x864","1147x603",NA,NA,NA,"JV Task P1",8,"Anxious",NA,"In",NA,NA,"HIGJFKEADBC",NA,NA,"B (MDot First)",2,321,"SS1","SS1",34,"V","Valence","sn1sjn",1,"response","37",2799.84599999996,3466.26299999998,3480.37899990461,2799.84599999996,3466.26299999998,3480.37899990461,1,2799.84599999996,680.532999904652,0,NA,"Slider","J",3,"object-27","V","CFD-WM-001-014-N.jpg",NA,"SUPTM16544"
"157",1689026691034,"10/07/2023 22:04:51",1689030291034,1,"11/07/2023 00:04:51",137495,33,"task-mb68",NA,30604379,9086484,NA,"complete",NA,NA,"computer","Desktop or Laptop","Windows 10","Edge 114.0.1823.67","1536x864","1147x603",NA,NA,NA,"JV Task P1",8,"Anxious",NA,"In",NA,NA,"HIGJFKEADBC",NA,NA,"B (MDot First)",2,321,"SS1","SS1",34,"V","Fixation","aydkg3",2,"continue","",966.685999999987,966.685999999987,966.685999999987,966.685999999987,966.685999999987,966.685999999987,1,966.685999999987,0,0,NA,"Fixation Timing","Fixation",1,"object-21","V","CFD-WM-001-014-N.jpg",NA,"SUPTM16544"
"158",1689026693540,"10/07/2023 22:04:53",1689030293540,1,"11/07/2023 00:04:53",137495,33,"task-mb68",NA,30604379,9086484,NA,"complete",NA,NA,"computer","Desktop or Laptop","Windows 10","Edge 114.0.1823.67","1536x864","1147x603",NA,NA,NA,"JV Task P1",8,"Anxious",NA,"In",NA,NA,"HIGJFKEADBC",NA,NA,"B (MDot First)",2,321,"SS1","SS1",19,"J","Judginess","w2ir4b",1,"continue","",2507.33000000002,2499.54800000001,2507.33000000002,2507.33000000002,2499.54800000001,2507.33000000002,1,2507.33000000002,0,0,NA,"Click To Continue","Continue Button",1,"object-14","J","CFD-WM-001-014-H.jpeg",NA,"SUPTM16544"
"159",1689026693540,"10/07/2023 22:04:53",1689030293540,1,"11/07/2023 00:04:53",137495,33,"task-mb68",NA,30604379,9086484,NA,"complete",NA,NA,"computer","Desktop or Laptop","Windows 10","Edge 114.0.1823.67","1536x864","1147x603",NA,NA,NA,"JV Task P1",8,"Anxious",NA,"In",NA,NA,"HIGJFKEADBC",NA,NA,"B (MDot First)",2,321,"SS1","SS1",19,"J","Judginess","w2ir4b",1,"response","71",1816.049,2499.54800000001,2507.83000000002,1816.049,2499.54800000001,2507.83000000002,1,1816.049,691.781000000017,0,NA,"Slider","J",3,"object-18","J","CFD-WM-001-014-H.jpeg",NA,"SUPTM16544"
"160",1689026694500,"10/07/2023 22:04:54",1689030294500,1,"11/07/2023 00:04:54",137495,33,"task-mb68",NA,30604379,9086484,NA,"complete",NA,NA,"computer","Desktop or Laptop","Windows 10","Edge 114.0.1823.67","1536x864","1147x603",NA,NA,NA,"JV Task P1",8,"Anxious",NA,"In",NA,NA,"HIGJFKEADBC",NA,NA,"B (MDot First)",2,321,"SS1","SS1",19,"J","Fixation","mtm832",2,"continue","",966.709000000032,966.709000000032,966.709000000032,966.709000000032,966.709000000032,966.709000000032,1,966.709000000032,0,0,NA,"Fixation Timing","Fixation",1,"object-65","J","CFD-WM-001-014-H.jpeg",NA,"SUPTM16544"
"161",1689026701106,"10/07/2023 22:05:01",1689030301106,1,"11/07/2023 00:05:01",137495,33,"task-mb68",NA,30604379,9086484,NA,"complete",NA,NA,"computer","Desktop or Laptop","Windows 10","Edge 114.0.1823.67","1536x864","1147x603",NA,NA,NA,"JV Task P1",8,"Anxious",NA,"In",NA,NA,"HIGJFKEADBC",NA,NA,"B (MDot First)",2,321,"SS1","SS1",35,"V","Valence","sn1sjn",1,"continue","",6606.87299971387,6598.81999999995,6606.87299971387,6606.87299971387,6598.81999999995,6606.87299971387,1,6606.87299971387,0,0,NA,"Click To Continue","Continue Button",1,"object-25","V","CFD-WM-035-032-N.jpg",NA,"SUPTM16544"
"162",1689026701112,"10/07/2023 22:05:01",1689030301112,1,"11/07/2023 00:05:01",137495,33,"task-mb68",NA,30604379,9086484,NA,"complete",NA,NA,"computer","Desktop or Laptop","Windows 10","Edge 114.0.1823.67","1536x864","1147x603",NA,NA,NA,"JV Task P1",8,"Anxious",NA,"In",NA,NA,"HIGJFKEADBC",NA,NA,"B (MDot First)",2,321,"SS1","SS1",35,"V","Valence","sn1sjn",1,"response","27",5582.261,6598.81999999995,6613.27299980924,5582.261,6598.81999999995,6613.27299980924,1,5582.261,1031.01199980924,0,NA,"Slider","J",3,"object-27","V","CFD-WM-035-032-N.jpg",NA,"SUPTM16544"
"163",1689026702066,"10/07/2023 22:05:02",1689030302066,1,"11/07/2023 00:05:02",137495,33,"task-mb68",NA,30604379,9086484,NA,"complete",NA,NA,"computer","Desktop or Laptop","Windows 10","Edge 114.0.1823.67","1536x864","1147x603",NA,NA,NA,"JV Task P1",8,"Anxious",NA,"In",NA,NA,"HIGJFKEADBC",NA,NA,"B (MDot First)",2,321,"SS1","SS1",35,"V","Fixation","aydkg3",2,"continue","",966.551000000036,966.551000000036,966.551000000036,966.551000000036,966.551000000036,966.551000000036,1,966.551000000036,0,0,NA,"Fixation Timing","Fixation",1,"object-21","V","CFD-WM-035-032-N.jpg",NA,"SUPTM16544"
"164",1689026706805,"10/07/2023 22:05:06",1689030306805,1,"11/07/2023 00:05:06",137495,33,"task-mb68",NA,30604379,9086484,NA,"complete",NA,NA,"computer","Desktop or Laptop","Windows 10","Edge 114.0.1823.67","1536x864","1147x603",NA,NA,NA,"JV Task P1",8,"Anxious",NA,"In",NA,NA,"HIGJFKEADBC",NA,NA,"B (MDot First)",2,321,"SS1","SS1",36,"V","Valence","sn1sjn",1,"continue","",4740.40199980926,4732.79300000001,4740.40199980926,4740.40199980926,4732.79300000001,4740.40199980926,1,4740.40199980926,0,0,NA,"Click To Continue","Continue Button",1,"object-25","V","CFD-WM-031-003-N.jpg",NA,"SUPTM16544"
"165",1689026706805,"10/07/2023 22:05:06",1689030306805,1,"11/07/2023 00:05:06",137495,33,"task-mb68",NA,30604379,9086484,NA,"complete",NA,NA,"computer","Desktop or Laptop","Windows 10","Edge 114.0.1823.67","1536x864","1147x603",NA,NA,NA,"JV Task P1",8,"Anxious",NA,"In",NA,NA,"HIGJFKEADBC",NA,NA,"B (MDot First)",2,321,"SS1","SS1",36,"V","Valence","sn1sjn",1,"response","51",4166.402,4732.79300000001,4741.10200009536,4166.402,4732.79300000001,4741.10200009536,1,4166.402,574.700000095356,0,NA,"Slider","J",3,"object-27","V","CFD-WM-031-003-N.jpg",NA,"SUPTM16544"
"166",1689026707765,"10/07/2023 22:05:07",1689030307765,1,"11/07/2023 00:05:07",137495,33,"task-mb68",NA,30604379,9086484,NA,"complete",NA,NA,"computer","Desktop or Laptop","Windows 10","Edge 114.0.1823.67","1536x864","1147x603",NA,NA,NA,"JV Task P1",8,"Anxious",NA,"In",NA,NA,"HIGJFKEADBC",NA,NA,"B (MDot First)",2,321,"SS1","SS1",36,"V","Fixation","aydkg3",2,"continue","",966.902999999991,966.902999999991,966.902999999991,966.902999999991,966.902999999991,966.902999999991,1,966.902999999991,0,0,NA,"Fixation Timing","Fixation",1,"object-21","V","CFD-WM-031-003-N.jpg",NA,"SUPTM16544"
"167",1689026711366,"10/07/2023 22:05:11",1689030311366,1,"11/07/2023 00:05:11",137495,33,"task-mb68",NA,30604379,9086484,NA,"complete",NA,NA,"computer","Desktop or Laptop","Windows 10","Edge 114.0.1823.67","1536x864","1147x603",NA,NA,NA,"JV Task P1",8,"Anxious",NA,"In",NA,NA,"HIGJFKEADBC",NA,NA,"B (MDot First)",2,321,"SS1","SS1",37,"V","Valence","sn1sjn",1,"continue","",3602.30599971389,3599.22499999998,3602.30599971389,3602.30599971389,3599.22499999998,3602.30599971389,1,3602.30599971389,0,0,NA,"Click To Continue","Continue Button",1,"object-25","V","CFD-WF-030-002-H.jpeg",NA,"SUPTM16544"
"168",1689026711373,"10/07/2023 22:05:11",1689030311373,1,"11/07/2023 00:05:11",137495,33,"task-mb68",NA,30604379,9086484,NA,"complete",NA,NA,"computer","Desktop or Laptop","Windows 10","Edge 114.0.1823.67","1536x864","1147x603",NA,NA,NA,"JV Task P1",8,"Anxious",NA,"In",NA,NA,"HIGJFKEADBC",NA,NA,"B (MDot First)",2,321,"SS1","SS1",37,"V","Valence","sn1sjn",1,"response","75",2616.02000000002,3599.22499999998,3608.60599990463,2616.02000000002,3599.22499999998,3608.60599990463,1,2616.02000000002,992.585999904608,0,NA,"Slider","J",3,"object-27","V","CFD-WF-030-002-H.jpeg",NA,"SUPTM16544"
"169",1689026712330,"10/07/2023 22:05:12",1689030312330,1,"11/07/2023 00:05:12",137495,33,"task-mb68",NA,30604379,9086484,NA,"complete",NA,NA,"computer","Desktop or Laptop","Windows 10","Edge 114.0.1823.67","1536x864","1147x603",NA,NA,NA,"JV Task P1",8,"Anxious",NA,"In",NA,NA,"HIGJFKEADBC",NA,NA,"B (MDot First)",2,321,"SS1","SS1",37,"V","Fixation","aydkg3",2,"continue","",966.754000000015,966.754000000015,966.754000000015,966.754000000015,966.754000000015,966.754000000015,1,966.754000000015,0,0,NA,"Fixation Timing","Fixation",1,"object-21","V","CFD-WF-030-002-H.jpeg",NA,"SUPTM16544"
"170",1689026717371,"10/07/2023 22:05:17",1689030317371,1,"11/07/2023 00:05:17",137495,33,"task-mb68",NA,30604379,9086484,NA,"complete",NA,NA,"computer","Desktop or Laptop","Windows 10","Edge 114.0.1823.67","1536x864","1147x603",NA,NA,NA,"JV Task P1",8,"Anxious",NA,"In",NA,NA,"HIGJFKEADBC",NA,NA,"B (MDot First)",2,321,"SS1","SS1",20,"J","Judginess","w2ir4b",1,"continue","",5041.027,5032.625,5041.027,5041.027,5032.625,5041.027,1,5041.027,0,0,NA,"Click To Continue","Continue Button",1,"object-14","J","CFD-BM-036-003-H.jpeg",NA,"SUPTM16544"
"171",1689026717372,"10/07/2023 22:05:17",1689030317372,1,"11/07/2023 00:05:17",137495,33,"task-mb68",NA,30604379,9086484,NA,"complete",NA,NA,"computer","Desktop or Laptop","Windows 10","Edge 114.0.1823.67","1536x864","1147x603",NA,NA,NA,"JV Task P1",8,"Anxious",NA,"In",NA,NA,"HIGJFKEADBC",NA,NA,"B (MDot First)",2,321,"SS1","SS1",20,"J","Judginess","w2ir4b",1,"response","78",3349.59999999998,5032.625,5041.62699990463,3349.59999999998,5032.625,5041.62699990463,1,3349.59999999998,1692.02699990466,0,NA,"Slider","J",3,"object-18","J","CFD-BM-036-003-H.jpeg",NA,"SUPTM16544"
"172",1689026718330,"10/07/2023 22:05:18",1689030318330,1,"11/07/2023 00:05:18",137495,33,"task-mb68",NA,30604379,9086484,NA,"complete",NA,NA,"computer","Desktop or Laptop","Windows 10","Edge 114.0.1823.67","1536x864","1147x603",NA,NA,NA,"JV Task P1",8,"Anxious",NA,"In",NA,NA,"HIGJFKEADBC",NA,NA,"B (MDot First)",2,321,"SS1","SS1",20,"J","Fixation","mtm832",2,"continue","",966.501999999979,966.501999999979,966.501999999979,966.501999999979,966.501999999979,966.501999999979,1,966.501999999979,0,0,NA,"Fixation Timing","Fixation",1,"object-65","J","CFD-BM-036-003-H.jpeg",NA,"SUPTM16544"
