"Event.Index","UTC.Timestamp","UTC.Date.and.Time","Local.Timestamp","Local.Timezone","Local.Date.and.Time","Experiment.ID","Experiment.Version","Tree.Node.Key","Repeat.Key","Schedule.ID","Participant.Private.ID","Participant.Starting.Group","Participant.Status","Participant.Completion.Code","Participant.External.Session.ID","Participant.Device.Type","Participant.Device","Participant.OS","Participant.Browser","Participant.Monitor.Size","Participant.Viewport.Size","Checkpoint","Room.ID","Room.Order","Task.Name","Task.Version","branch.ln1a","randomiser.vzsr","branch.hkzp","randomiser.ywar","randomiser.q6ah","order.ot79","randomiser.ahe2","randomiser.ckhi","randomiser.lqqr","randomiser.pobd","randomiser.8gdj","Spreadsheet","Current.Spreadsheet","Trial.Number","Display","Screen","Screen.ID","Screen.Counter","Response.Type","Response","Onset.Time","Clock.Time","Reaction.Time","Absolute.Onset.Time","Absolute.Clock.Time","Absolute.Reaction.Time","Correct","Response.Onset","Response.Duration","Proportion","Tag","Component.Name","Object.Name","Object.Number","Object.ID","Spreadsheet..display","Spreadsheet..stimulus","Manipulation..Spreadsheet","Random_ID"
"1",1689005155459,"10/07/2023 16:05:55",1689008755459,1,"10/07/2023 18:05:55",137495,33,"task-9nhz",NA,30599811,9085338,NA,"complete",NA,NA,"computer","Desktop or Laptop","Windows 10","Chrome 114.0.0.0","1536x864","1536x714",NA,NA,NA,"JV Task P3 (Updated)",4,"Anxious",132,"In",NA,2,"BCADKEJFIGH",NA,NA,"A (JV first)",NA,NA,"SS1","SS1",NA,"","","",NA,"5","BEGIN",NA,NA,NA,NA,NA,NA,0,NA,NA,NA,NA,"","",NA,"","","",NA,"SUPTM05489"
"2",1689005166942,"10/07/2023 16:06:06",1689008766942,1,"10/07/2023 18:06:06",137495,33,"task-9nhz",NA,30599811,9085338,NA,"complete",NA,NA,"computer","Desktop or Laptop","Windows 10","Chrome 114.0.0.0","1536x864","1536x714",NA,NA,NA,"JV Task P3 (Updated)",4,"Anxious",132,"In",NA,2,"BCADKEJFIGH",NA,NA,"A (JV first)",NA,NA,"SS1","SS1",1,"J","Judginess","y8ii7g",1,"continue","",10496.4329999523,10494.261,10496.4329999523,10496.4329999523,10494.261,10496.4329999523,1,10496.4329999523,0,0,NA,"Click To Continue","Continue Button",1,"object-14","J","CFD-WF-024-003-N.jpg",NA,"SUPTM05489"
"3",1689005166944,"10/07/2023 16:06:06",1689008766944,1,"10/07/2023 18:06:06",137495,33,"task-9nhz",NA,30599811,9085338,NA,"complete",NA,NA,"computer","Desktop or Laptop","Windows 10","Chrome 114.0.0.0","1536x864","1536x714",NA,NA,NA,"JV Task P3 (Updated)",4,"Anxious",132,"In",NA,2,"BCADKEJFIGH",NA,NA,"A (JV first)",NA,NA,"SS1","SS1",1,"J","Judginess","y8ii7g",1,"response","60",8978.775,10494.261,10499.133,8978.775,10494.261,10499.133,1,8978.775,1520.358,0,NA,"Slider","J",3,"object-18","J","CFD-WF-024-003-N.jpg",NA,"SUPTM05489"
"4",1689005167907,"10/07/2023 16:06:07",1689008767907,1,"10/07/2023 18:06:07",137495,33,"task-9nhz",NA,30599811,9085338,NA,"complete",NA,NA,"computer","Desktop or Laptop","Windows 10","Chrome 114.0.0.0","1536x864","1536x714",NA,NA,NA,"JV Task P3 (Updated)",4,"Anxious",132,"In",NA,2,"BCADKEJFIGH",NA,NA,"A (JV first)",NA,NA,"SS1","SS1",1,"J","Fixation","w9zir9",2,"continue","",966.102999999999,966.102999999999,966.102999999999,966.102999999999,966.102999999999,966.102999999999,1,966.102999999999,0,0,NA,"Fixation Timing","Fixation",1,"object-65","J","CFD-WF-024-003-N.jpg",NA,"SUPTM05489"
"5",1689005180000,"10/07/2023 16:06:20",1689008780000,1,"10/07/2023 18:06:20",137495,33,"task-9nhz",NA,30599811,9085338,NA,"complete",NA,NA,"computer","Desktop or Laptop","Windows 10","Chrome 114.0.0.0","1536x864","1536x714",NA,NA,NA,"JV Task P3 (Updated)",4,"Anxious",132,"In",NA,2,"BCADKEJFIGH",NA,NA,"A (JV first)",NA,NA,"SS1","SS1",1,"V","Valence","xyoebq",1,"continue","",12093.383,12076.733,12093.383,12093.383,12076.733,12093.383,1,12093.383,0,0,NA,"Click To Continue","Continue Button",1,"object-25","V","CFD-WF-037-029-H.jpeg",NA,"SUPTM05489"
"6",1689005180002,"10/07/2023 16:06:20",1689008780002,1,"10/07/2023 18:06:20",137495,33,"task-9nhz",NA,30599811,9085338,NA,"complete",NA,NA,"computer","Desktop or Laptop","Windows 10","Chrome 114.0.0.0","1536x864","1536x714",NA,NA,NA,"JV Task P3 (Updated)",4,"Anxious",132,"In",NA,2,"BCADKEJFIGH",NA,NA,"A (JV first)",NA,NA,"SS1","SS1",1,"V","Valence","xyoebq",1,"response","70",9994.821,12076.733,12093.383,9994.821,12076.733,12093.383,1,9994.821,2098.562,0,NA,"Slider","J",3,"object-27","V","CFD-WF-037-029-H.jpeg",NA,"SUPTM05489"
"7",1689005180949,"10/07/2023 16:06:20",1689008780949,1,"10/07/2023 18:06:20",137495,33,"task-9nhz",NA,30599811,9085338,NA,"complete",NA,NA,"computer","Desktop or Laptop","Windows 10","Chrome 114.0.0.0","1536x864","1536x714",NA,NA,NA,"JV Task P3 (Updated)",4,"Anxious",132,"In",NA,2,"BCADKEJFIGH",NA,NA,"A (JV first)",NA,NA,"SS1","SS1",1,"V","Fixation","68owkj",2,"continue","",966.382000000001,966.382000000001,966.382000000001,966.382000000001,966.382000000001,966.382000000001,1,966.382000000001,0,0,NA,"Fixation Timing","Fixation",1,"object-21","V","CFD-WF-037-029-H.jpeg",NA,"SUPTM05489"
"8",1689005184247,"10/07/2023 16:06:24",1689008784247,1,"10/07/2023 18:06:24",137495,33,"task-9nhz",NA,30599811,9085338,NA,"complete",NA,NA,"computer","Desktop or Laptop","Windows 10","Chrome 114.0.0.0","1536x864","1536x714",NA,NA,NA,"JV Task P3 (Updated)",4,"Anxious",132,"In",NA,2,"BCADKEJFIGH",NA,NA,"A (JV first)",NA,NA,"SS1","SS1",2,"J","Judginess","y8ii7g",1,"continue","",3297.85400004768,3281.577,3297.85400004768,3297.85400004768,3281.577,3297.85400004768,1,3297.85400004768,0,0,NA,"Click To Continue","Continue Button",1,"object-14","J","CFD-MF-315-002-S.jpeg",NA,"SUPTM05489"
"9",1689005184247,"10/07/2023 16:06:24",1689008784247,1,"10/07/2023 18:06:24",137495,33,"task-9nhz",NA,30599811,9085338,NA,"complete",NA,NA,"computer","Desktop or Laptop","Windows 10","Chrome 114.0.0.0","1536x864","1536x714",NA,NA,NA,"JV Task P3 (Updated)",4,"Anxious",132,"In",NA,2,"BCADKEJFIGH",NA,NA,"A (JV first)",NA,NA,"SS1","SS1",2,"J","Judginess","y8ii7g",1,"response","43",2232.127,3281.577,3298.27799999999,2232.127,3281.577,3298.27799999999,1,2232.127,1066.15099999999,0,NA,"Slider","J",3,"object-18","J","CFD-MF-315-002-S.jpeg",NA,"SUPTM05489"
"10",1689005185197,"10/07/2023 16:06:25",1689008785197,1,"10/07/2023 18:06:25",137495,33,"task-9nhz",NA,30599811,9085338,NA,"complete",NA,NA,"computer","Desktop or Laptop","Windows 10","Chrome 114.0.0.0","1536x864","1536x714",NA,NA,NA,"JV Task P3 (Updated)",4,"Anxious",132,"In",NA,2,"BCADKEJFIGH",NA,NA,"A (JV first)",NA,NA,"SS1","SS1",2,"J","Fixation","w9zir9",2,"continue","",965.819,965.819,965.819,965.819,965.819,965.819,1,965.819,0,0,NA,"Fixation Timing","Fixation",1,"object-65","J","CFD-MF-315-002-S.jpeg",NA,"SUPTM05489"
"11",1689005189796,"10/07/2023 16:06:29",1689008789796,1,"10/07/2023 18:06:29",137495,33,"task-9nhz",NA,30599811,9085338,NA,"complete",NA,NA,"computer","Desktop or Laptop","Windows 10","Chrome 114.0.0.0","1536x864","1536x714",NA,NA,NA,"JV Task P3 (Updated)",4,"Anxious",132,"In",NA,2,"BCADKEJFIGH",NA,NA,"A (JV first)",NA,NA,"SS1","SS1",3,"J","Judginess","y8ii7g",1,"continue","",4599.758,4597.466,4599.758,4599.758,4597.466,4599.758,1,4599.758,0,0,NA,"Click To Continue","Continue Button",1,"object-14","J","CFD-WF-009-001-S.jpeg",NA,"SUPTM05489"
"12",1689005189796,"10/07/2023 16:06:29",1689008789796,1,"10/07/2023 18:06:29",137495,33,"task-9nhz",NA,30599811,9085338,NA,"complete",NA,NA,"computer","Desktop or Laptop","Windows 10","Chrome 114.0.0.0","1536x864","1536x714",NA,NA,NA,"JV Task P3 (Updated)",4,"Anxious",132,"In",NA,2,"BCADKEJFIGH",NA,NA,"A (JV first)",NA,NA,"SS1","SS1",3,"J","Judginess","y8ii7g",1,"response","45",3814.584,4597.466,4600.35800014305,3814.584,4597.466,4600.35800014305,1,3814.584,785.77400014305,0,NA,"Slider","J",3,"object-18","J","CFD-WF-009-001-S.jpeg",NA,"SUPTM05489"
"13",1689005190760,"10/07/2023 16:06:30",1689008790760,1,"10/07/2023 18:06:30",137495,33,"task-9nhz",NA,30599811,9085338,NA,"complete",NA,NA,"computer","Desktop or Laptop","Windows 10","Chrome 114.0.0.0","1536x864","1536x714",NA,NA,NA,"JV Task P3 (Updated)",4,"Anxious",132,"In",NA,2,"BCADKEJFIGH",NA,NA,"A (JV first)",NA,NA,"SS1","SS1",3,"J","Fixation","w9zir9",2,"continue","",966.353000000003,966.353000000003,966.353000000003,966.353000000003,966.353000000003,966.353000000003,1,966.353000000003,0,0,NA,"Fixation Timing","Fixation",1,"object-65","J","CFD-WF-009-001-S.jpeg",NA,"SUPTM05489"
"14",1689005197984,"10/07/2023 16:06:37",1689008797984,1,"10/07/2023 18:06:37",137495,33,"task-9nhz",NA,30599811,9085338,NA,"complete",NA,NA,"computer","Desktop or Laptop","Windows 10","Chrome 114.0.0.0","1536x864","1536x714",NA,NA,NA,"JV Task P3 (Updated)",4,"Anxious",132,"In",NA,2,"BCADKEJFIGH",NA,NA,"A (JV first)",NA,NA,"SS1","SS1",4,"J","Judginess","y8ii7g",1,"continue","",7224.439,7212.768,7224.439,7224.439,7212.768,7224.439,1,7224.439,0,0,NA,"Click To Continue","Continue Button",1,"object-14","J","CFD-WM-025-002-S.jpeg",NA,"SUPTM05489"
"15",1689005197984,"10/07/2023 16:06:37",1689008797984,1,"10/07/2023 18:06:37",137495,33,"task-9nhz",NA,30599811,9085338,NA,"complete",NA,NA,"computer","Desktop or Laptop","Windows 10","Chrome 114.0.0.0","1536x864","1536x714",NA,NA,NA,"JV Task P3 (Updated)",4,"Anxious",132,"In",NA,2,"BCADKEJFIGH",NA,NA,"A (JV first)",NA,NA,"SS1","SS1",4,"J","Judginess","y8ii7g",1,"response","44",6246.648,7212.768,7224.73899995231,6246.648,7212.768,7224.73899995231,1,6246.648,978.090999952314,0,NA,"Slider","J",3,"object-18","J","CFD-WM-025-002-S.jpeg",NA,"SUPTM05489"
"16",1689005198939,"10/07/2023 16:06:38",1689008798939,1,"10/07/2023 18:06:38",137495,33,"task-9nhz",NA,30599811,9085338,NA,"complete",NA,NA,"computer","Desktop or Laptop","Windows 10","Chrome 114.0.0.0","1536x864","1536x714",NA,NA,NA,"JV Task P3 (Updated)",4,"Anxious",132,"In",NA,2,"BCADKEJFIGH",NA,NA,"A (JV first)",NA,NA,"SS1","SS1",4,"J","Fixation","w9zir9",2,"continue","",966.160000000003,966.160000000003,966.160000000003,966.160000000003,966.160000000003,966.160000000003,1,966.160000000003,0,0,NA,"Fixation Timing","Fixation",1,"object-65","J","CFD-WM-025-002-S.jpeg",NA,"SUPTM05489"
"17",1689005204278,"10/07/2023 16:06:44",1689008804278,1,"10/07/2023 18:06:44",137495,33,"task-9nhz",NA,30599811,9085338,NA,"complete",NA,NA,"computer","Desktop or Laptop","Windows 10","Chrome 114.0.0.0","1536x864","1536x714",NA,NA,NA,"JV Task P3 (Updated)",4,"Anxious",132,"In",NA,2,"BCADKEJFIGH",NA,NA,"A (JV first)",NA,NA,"SS1","SS1",2,"V","Valence","xyoebq",1,"continue","",5338.81099995231,5330.093,5338.81099995231,5338.81099995231,5330.093,5338.81099995231,1,5338.81099995231,0,0,NA,"Click To Continue","Continue Button",1,"object-25","V","CFD-WM-019-003-N.jpg",NA,"SUPTM05489"
"18",1689005204279,"10/07/2023 16:06:44",1689008804279,1,"10/07/2023 18:06:44",137495,33,"task-9nhz",NA,30599811,9085338,NA,"complete",NA,NA,"computer","Desktop or Laptop","Windows 10","Chrome 114.0.0.0","1536x864","1536x714",NA,NA,NA,"JV Task P3 (Updated)",4,"Anxious",132,"In",NA,2,"BCADKEJFIGH",NA,NA,"A (JV first)",NA,NA,"SS1","SS1",2,"V","Valence","xyoebq",1,"response","37",4247.437,5330.093,5340.71100004768,4247.437,5330.093,5340.71100004768,1,4247.437,1093.27400004768,0,NA,"Slider","J",3,"object-27","V","CFD-WM-019-003-N.jpg",NA,"SUPTM05489"
"19",1689005205236,"10/07/2023 16:06:45",1689008805236,1,"10/07/2023 18:06:45",137495,33,"task-9nhz",NA,30599811,9085338,NA,"complete",NA,NA,"computer","Desktop or Laptop","Windows 10","Chrome 114.0.0.0","1536x864","1536x714",NA,NA,NA,"JV Task P3 (Updated)",4,"Anxious",132,"In",NA,2,"BCADKEJFIGH",NA,NA,"A (JV first)",NA,NA,"SS1","SS1",2,"V","Fixation","68owkj",2,"continue","",966.394,966.394,966.394,966.394,966.394,966.394,1,966.394,0,0,NA,"Fixation Timing","Fixation",1,"object-21","V","CFD-WM-019-003-N.jpg",NA,"SUPTM05489"
"20",1689005214442,"10/07/2023 16:06:54",1689008814442,1,"10/07/2023 18:06:54",137495,33,"task-9nhz",NA,30599811,9085338,NA,"complete",NA,NA,"computer","Desktop or Laptop","Windows 10","Chrome 114.0.0.0","1536x864","1536x714",NA,NA,NA,"JV Task P3 (Updated)",4,"Anxious",132,"In",NA,2,"BCADKEJFIGH",NA,NA,"A (JV first)",NA,NA,"SS1","SS1",5,"J","Judginess","y8ii7g",1,"continue","",9206.42400009537,9194.679,9206.42400009537,9206.42400009537,9194.679,9206.42400009537,1,9206.42400009537,0,0,NA,"Click To Continue","Continue Button",1,"object-14","J","CFD-WF-039-025-H.jpeg",NA,"SUPTM05489"
"21",1689005214444,"10/07/2023 16:06:54",1689008814444,1,"10/07/2023 18:06:54",137495,33,"task-9nhz",NA,30599811,9085338,NA,"complete",NA,NA,"computer","Desktop or Laptop","Windows 10","Chrome 114.0.0.0","1536x864","1536x714",NA,NA,NA,"JV Task P3 (Updated)",4,"Anxious",132,"In",NA,2,"BCADKEJFIGH",NA,NA,"A (JV first)",NA,NA,"SS1","SS1",5,"J","Judginess","y8ii7g",1,"response","57",8645.00999999999,9194.679,9208.524,8645.00999999999,9194.679,9208.524,1,8645.00999999999,563.514000000003,0,NA,"Slider","J",3,"object-18","J","CFD-WF-039-025-H.jpeg",NA,"SUPTM05489"
"22",1689005215397,"10/07/2023 16:06:55",1689008815397,1,"10/07/2023 18:06:55",137495,33,"task-9nhz",NA,30599811,9085338,NA,"complete",NA,NA,"computer","Desktop or Laptop","Windows 10","Chrome 114.0.0.0","1536x864","1536x714",NA,NA,NA,"JV Task P3 (Updated)",4,"Anxious",132,"In",NA,2,"BCADKEJFIGH",NA,NA,"A (JV first)",NA,NA,"SS1","SS1",5,"J","Fixation","w9zir9",2,"continue","",966.135999999999,966.135999999999,966.135999999999,966.135999999999,966.135999999999,966.135999999999,1,966.135999999999,0,0,NA,"Fixation Timing","Fixation",1,"object-65","J","CFD-WF-039-025-H.jpeg",NA,"SUPTM05489"
"23",1689005225839,"10/07/2023 16:07:05",1689008825839,1,"10/07/2023 18:07:05",137495,33,"task-9nhz",NA,30599811,9085338,NA,"complete",NA,NA,"computer","Desktop or Laptop","Windows 10","Chrome 114.0.0.0","1536x864","1536x714",NA,NA,NA,"JV Task P3 (Updated)",4,"Anxious",132,"In",NA,2,"BCADKEJFIGH",NA,NA,"A (JV first)",NA,NA,"SS1","SS1",6,"J","Judginess","y8ii7g",1,"continue","",10432.5089999523,10427.9,10432.5089999523,10432.5089999523,10427.9,10432.5089999523,1,10432.5089999523,0,0,NA,"Click To Continue","Continue Button",1,"object-14","J","CFD-BM-045-004-H.jpeg",NA,"SUPTM05489"
"24",1689005225840,"10/07/2023 16:07:05",1689008825840,1,"10/07/2023 18:07:05",137495,33,"task-9nhz",NA,30599811,9085338,NA,"complete",NA,NA,"computer","Desktop or Laptop","Windows 10","Chrome 114.0.0.0","1536x864","1536x714",NA,NA,NA,"JV Task P3 (Updated)",4,"Anxious",132,"In",NA,2,"BCADKEJFIGH",NA,NA,"A (JV first)",NA,NA,"SS1","SS1",6,"J","Judginess","y8ii7g",1,"response","46",9511.773,10427.9,10433.8090001431,9511.773,10427.9,10433.8090001431,1,9511.773,922.036000143053,0,NA,"Slider","J",3,"object-18","J","CFD-BM-045-004-H.jpeg",NA,"SUPTM05489"
"25",1689005226801,"10/07/2023 16:07:06",1689008826801,1,"10/07/2023 18:07:06",137495,33,"task-9nhz",NA,30599811,9085338,NA,"complete",NA,NA,"computer","Desktop or Laptop","Windows 10","Chrome 114.0.0.0","1536x864","1536x714",NA,NA,NA,"JV Task P3 (Updated)",4,"Anxious",132,"In",NA,2,"BCADKEJFIGH",NA,NA,"A (JV first)",NA,NA,"SS1","SS1",6,"J","Fixation","w9zir9",2,"continue","",966.157999999996,966.157999999996,966.157999999996,966.157999999996,966.157999999996,966.157999999996,1,966.157999999996,0,0,NA,"Fixation Timing","Fixation",1,"object-65","J","CFD-BM-045-004-H.jpeg",NA,"SUPTM05489"
"26",1689005229981,"10/07/2023 16:07:09",1689008829981,1,"10/07/2023 18:07:09",137495,33,"task-9nhz",NA,30599811,9085338,NA,"complete",NA,NA,"computer","Desktop or Laptop","Windows 10","Chrome 114.0.0.0","1536x864","1536x714",NA,NA,NA,"JV Task P3 (Updated)",4,"Anxious",132,"In",NA,2,"BCADKEJFIGH",NA,NA,"A (JV first)",NA,NA,"SS1","SS1",7,"J","Judginess","y8ii7g",1,"continue","",3180.25100014305,3164.558,3180.25100014305,3180.25100014305,3164.558,3180.25100014305,1,3180.25100014305,0,0,NA,"Click To Continue","Continue Button",1,"object-14","J","CFD-WF-022-017-H.jpeg",NA,"SUPTM05489"
"27",1689005229981,"10/07/2023 16:07:09",1689008829981,1,"10/07/2023 18:07:09",137495,33,"task-9nhz",NA,30599811,9085338,NA,"complete",NA,NA,"computer","Desktop or Laptop","Windows 10","Chrome 114.0.0.0","1536x864","1536x714",NA,NA,NA,"JV Task P3 (Updated)",4,"Anxious",132,"In",NA,2,"BCADKEJFIGH",NA,NA,"A (JV first)",NA,NA,"SS1","SS1",7,"J","Judginess","y8ii7g",1,"response","56",2698.30499999999,3164.558,3180.651,2698.30499999999,3164.558,3180.651,1,2698.30499999999,482.346000000005,0,NA,"Slider","J",3,"object-18","J","CFD-WF-022-017-H.jpeg",NA,"SUPTM05489"
"28",1689005230932,"10/07/2023 16:07:10",1689008830932,1,"10/07/2023 18:07:10",137495,33,"task-9nhz",NA,30599811,9085338,NA,"complete",NA,NA,"computer","Desktop or Laptop","Windows 10","Chrome 114.0.0.0","1536x864","1536x714",NA,NA,NA,"JV Task P3 (Updated)",4,"Anxious",132,"In",NA,2,"BCADKEJFIGH",NA,NA,"A (JV first)",NA,NA,"SS1","SS1",7,"J","Fixation","w9zir9",2,"continue","",966.489999999991,966.489999999991,966.489999999991,966.489999999991,966.489999999991,966.489999999991,1,966.489999999991,0,0,NA,"Fixation Timing","Fixation",1,"object-65","J","CFD-WF-022-017-H.jpeg",NA,"SUPTM05489"
"29",1689005236802,"10/07/2023 16:07:16",1689008836802,1,"10/07/2023 18:07:16",137495,33,"task-9nhz",NA,30599811,9085338,NA,"complete",NA,NA,"computer","Desktop or Laptop","Windows 10","Chrome 114.0.0.0","1536x864","1536x714",NA,NA,NA,"JV Task P3 (Updated)",4,"Anxious",132,"In",NA,2,"BCADKEJFIGH",NA,NA,"A (JV first)",NA,NA,"SS1","SS1",3,"V","Valence","xyoebq",1,"continue","",5870.40299995232,5863.44500000001,5870.40299995232,5870.40299995232,5863.44500000001,5870.40299995232,1,5870.40299995232,0,0,NA,"Click To Continue","Continue Button",1,"object-25","V","CFD-WM-015-002-S.jpeg",NA,"SUPTM05489"
"30",1689005236805,"10/07/2023 16:07:16",1689008836805,1,"10/07/2023 18:07:16",137495,33,"task-9nhz",NA,30599811,9085338,NA,"complete",NA,NA,"computer","Desktop or Laptop","Windows 10","Chrome 114.0.0.0","1536x864","1536x714",NA,NA,NA,"JV Task P3 (Updated)",4,"Anxious",132,"In",NA,2,"BCADKEJFIGH",NA,NA,"A (JV first)",NA,NA,"SS1","SS1",3,"V","Valence","xyoebq",1,"response","39",3980.921,5863.44500000001,5872.80300004769,3980.921,5863.44500000001,5872.80300004769,1,3980.921,1891.88200004768,0,NA,"Slider","J",3,"object-27","V","CFD-WM-015-002-S.jpeg",NA,"SUPTM05489"
"31",1689005237762,"10/07/2023 16:07:17",1689008837762,1,"10/07/2023 18:07:17",137495,33,"task-9nhz",NA,30599811,9085338,NA,"complete",NA,NA,"computer","Desktop or Laptop","Windows 10","Chrome 114.0.0.0","1536x864","1536x714",NA,NA,NA,"JV Task P3 (Updated)",4,"Anxious",132,"In",NA,2,"BCADKEJFIGH",NA,NA,"A (JV first)",NA,NA,"SS1","SS1",3,"V","Fixation","68owkj",2,"continue","",965.849000000002,965.849000000002,965.849000000002,965.849000000002,965.849000000002,965.849000000002,1,965.849000000002,0,0,NA,"Fixation Timing","Fixation",1,"object-21","V","CFD-WM-015-002-S.jpeg",NA,"SUPTM05489"
"32",1689005241632,"10/07/2023 16:07:21",1689008841632,1,"10/07/2023 18:07:21",137495,33,"task-9nhz",NA,30599811,9085338,NA,"complete",NA,NA,"computer","Desktop or Laptop","Windows 10","Chrome 114.0.0.0","1536x864","1536x714",NA,NA,NA,"JV Task P3 (Updated)",4,"Anxious",132,"In",NA,2,"BCADKEJFIGH",NA,NA,"A (JV first)",NA,NA,"SS1","SS1",8,"J","Judginess","y8ii7g",1,"continue","",3870.80899999999,3864.61,3870.80899999999,3870.80899999999,3864.61,3870.80899999999,1,3870.80899999999,0,0,NA,"Click To Continue","Continue Button",1,"object-14","J","CFD-WM-009-002-N.jpg",NA,"SUPTM05489"
"33",1689005241632,"10/07/2023 16:07:21",1689008841632,1,"10/07/2023 18:07:21",137495,33,"task-9nhz",NA,30599811,9085338,NA,"complete",NA,NA,"computer","Desktop or Laptop","Windows 10","Chrome 114.0.0.0","1536x864","1536x714",NA,NA,NA,"JV Task P3 (Updated)",4,"Anxious",132,"In",NA,2,"BCADKEJFIGH",NA,NA,"A (JV first)",NA,NA,"SS1","SS1",8,"J","Judginess","y8ii7g",1,"response","52",3115.23599999999,3864.61,3871.10899995231,3115.23599999999,3864.61,3871.10899995231,1,3115.23599999999,755.87299995232,0,NA,"Slider","J",3,"object-18","J","CFD-WM-009-002-N.jpg",NA,"SUPTM05489"
"34",1689005242592,"10/07/2023 16:07:22",1689008842592,1,"10/07/2023 18:07:22",137495,33,"task-9nhz",NA,30599811,9085338,NA,"complete",NA,NA,"computer","Desktop or Laptop","Windows 10","Chrome 114.0.0.0","1536x864","1536x714",NA,NA,NA,"JV Task P3 (Updated)",4,"Anxious",132,"In",NA,2,"BCADKEJFIGH",NA,NA,"A (JV first)",NA,NA,"SS1","SS1",8,"J","Fixation","w9zir9",2,"continue","",966.135999999999,966.135999999999,966.135999999999,966.135999999999,966.135999999999,966.135999999999,1,966.135999999999,0,0,NA,"Fixation Timing","Fixation",1,"object-65","J","CFD-WM-009-002-N.jpg",NA,"SUPTM05489"
"35",1689005252122,"10/07/2023 16:07:32",1689008852122,1,"10/07/2023 18:07:32",137495,33,"task-9nhz",NA,30599811,9085338,NA,"complete",NA,NA,"computer","Desktop or Laptop","Windows 10","Chrome 114.0.0.0","1536x864","1536x714",NA,NA,NA,"JV Task P3 (Updated)",4,"Anxious",132,"In",NA,2,"BCADKEJFIGH",NA,NA,"A (JV first)",NA,NA,"SS1","SS1",9,"J","Judginess","y8ii7g",1,"continue","",9530.46300009536,9528.31299999999,9530.46300009536,9530.46300009536,9528.31299999999,9530.46300009536,1,9530.46300009536,0,0,NA,"Click To Continue","Continue Button",1,"object-14","J","CFD-IM-711-011-H.jpeg",NA,"SUPTM05489"
"36",1689005252125,"10/07/2023 16:07:32",1689008852125,1,"10/07/2023 18:07:32",137495,33,"task-9nhz",NA,30599811,9085338,NA,"complete",NA,NA,"computer","Desktop or Laptop","Windows 10","Chrome 114.0.0.0","1536x864","1536x714",NA,NA,NA,"JV Task P3 (Updated)",4,"Anxious",132,"In",NA,2,"BCADKEJFIGH",NA,NA,"A (JV first)",NA,NA,"SS1","SS1",9,"J","Judginess","y8ii7g",1,"response","56",6196.48199999999,9528.31299999999,9533.46300009536,6196.48199999999,9528.31299999999,9533.46300009536,1,6196.48199999999,3336.98100009537,0,NA,"Slider","J",3,"object-18","J","CFD-IM-711-011-H.jpeg",NA,"SUPTM05489"
"37",1689005253087,"10/07/2023 16:07:33",1689008853087,1,"10/07/2023 18:07:33",137495,33,"task-9nhz",NA,30599811,9085338,NA,"complete",NA,NA,"computer","Desktop or Laptop","Windows 10","Chrome 114.0.0.0","1536x864","1536x714",NA,NA,NA,"JV Task P3 (Updated)",4,"Anxious",132,"In",NA,2,"BCADKEJFIGH",NA,NA,"A (JV first)",NA,NA,"SS1","SS1",9,"J","Fixation","w9zir9",2,"continue","",966.149999999994,966.149999999994,966.149999999994,966.149999999994,966.149999999994,966.149999999994,1,966.149999999994,0,0,NA,"Fixation Timing","Fixation",1,"object-65","J","CFD-IM-711-011-H.jpeg",NA,"SUPTM05489"
"38",1689005257081,"10/07/2023 16:07:37",1689008857081,1,"10/07/2023 18:07:37",137495,33,"task-9nhz",NA,30599811,9085338,NA,"complete",NA,NA,"computer","Desktop or Laptop","Windows 10","Chrome 114.0.0.0","1536x864","1536x714",NA,NA,NA,"JV Task P3 (Updated)",4,"Anxious",132,"In",NA,2,"BCADKEJFIGH",NA,NA,"A (JV first)",NA,NA,"SS1","SS1",10,"J","Judginess","y8ii7g",1,"continue","",3994.50000009537,3980.864,3994.50000009537,3994.50000009537,3980.864,3994.50000009537,1,3994.50000009537,0,0,NA,"Click To Continue","Continue Button",1,"object-14","J","CFD-WF-006-002-N.jpg",NA,"SUPTM05489"
"39",1689005257081,"10/07/2023 16:07:37",1689008857081,1,"10/07/2023 18:07:37",137495,33,"task-9nhz",NA,30599811,9085338,NA,"complete",NA,NA,"computer","Desktop or Laptop","Windows 10","Chrome 114.0.0.0","1536x864","1536x714",NA,NA,NA,"JV Task P3 (Updated)",4,"Anxious",132,"In",NA,2,"BCADKEJFIGH",NA,NA,"A (JV first)",NA,NA,"SS1","SS1",10,"J","Judginess","y8ii7g",1,"response","55",3014.989,3980.864,3994.80000004769,3014.989,3980.864,3994.80000004769,1,3014.989,979.811000047688,0,NA,"Slider","J",3,"object-18","J","CFD-WF-006-002-N.jpg",NA,"SUPTM05489"
"40",1689005258035,"10/07/2023 16:07:38",1689008858035,1,"10/07/2023 18:07:38",137495,33,"task-9nhz",NA,30599811,9085338,NA,"complete",NA,NA,"computer","Desktop or Laptop","Windows 10","Chrome 114.0.0.0","1536x864","1536x714",NA,NA,NA,"JV Task P3 (Updated)",4,"Anxious",132,"In",NA,2,"BCADKEJFIGH",NA,NA,"A (JV first)",NA,NA,"SS1","SS1",10,"J","Fixation","w9zir9",2,"continue","",966.415000000008,966.415000000008,966.415000000008,966.415000000008,966.415000000008,966.415000000008,1,966.415000000008,0,0,NA,"Fixation Timing","Fixation",1,"object-65","J","CFD-WF-006-002-N.jpg",NA,"SUPTM05489"
"41",1689005263502,"10/07/2023 16:07:43",1689008863502,1,"10/07/2023 18:07:43",137495,33,"task-9nhz",NA,30599811,9085338,NA,"complete",NA,NA,"computer","Desktop or Laptop","Windows 10","Chrome 114.0.0.0","1536x864","1536x714",NA,NA,NA,"JV Task P3 (Updated)",4,"Anxious",132,"In",NA,2,"BCADKEJFIGH",NA,NA,"A (JV first)",NA,NA,"SS1","SS1",11,"J","Judginess","y8ii7g",1,"continue","",5468.52100004768,5463.77399999999,5468.52100004768,5468.52100004768,5463.77399999999,5468.52100004768,1,5468.52100004768,0,0,NA,"Click To Continue","Continue Button",1,"object-14","J","CFD-MM-308-001-S.jpeg",NA,"SUPTM05489"
"42",1689005263504,"10/07/2023 16:07:43",1689008863504,1,"10/07/2023 18:07:43",137495,33,"task-9nhz",NA,30599811,9085338,NA,"complete",NA,NA,"computer","Desktop or Laptop","Windows 10","Chrome 114.0.0.0","1536x864","1536x714",NA,NA,NA,"JV Task P3 (Updated)",4,"Anxious",132,"In",NA,2,"BCADKEJFIGH",NA,NA,"A (JV first)",NA,NA,"SS1","SS1",11,"J","Judginess","y8ii7g",1,"response","54",3314.841,5463.77399999999,5470.321,3314.841,5463.77399999999,5470.321,1,3314.841,2155.48,0,NA,"Slider","J",3,"object-18","J","CFD-MM-308-001-S.jpeg",NA,"SUPTM05489"
"43",1689005264464,"10/07/2023 16:07:44",1689008864464,1,"10/07/2023 18:07:44",137495,33,"task-9nhz",NA,30599811,9085338,NA,"complete",NA,NA,"computer","Desktop or Laptop","Windows 10","Chrome 114.0.0.0","1536x864","1536x714",NA,NA,NA,"JV Task P3 (Updated)",4,"Anxious",132,"In",NA,2,"BCADKEJFIGH",NA,NA,"A (JV first)",NA,NA,"SS1","SS1",11,"J","Fixation","w9zir9",2,"continue","",965.979000000007,965.979000000007,965.979000000007,965.979000000007,965.979000000007,965.979000000007,1,965.979000000007,0,0,NA,"Fixation Timing","Fixation",1,"object-65","J","CFD-MM-308-001-S.jpeg",NA,"SUPTM05489"
"44",1689005269724,"10/07/2023 16:07:49",1689008869724,1,"10/07/2023 18:07:49",137495,33,"task-9nhz",NA,30599811,9085338,NA,"complete",NA,NA,"computer","Desktop or Laptop","Windows 10","Chrome 114.0.0.0","1536x864","1536x714",NA,NA,NA,"JV Task P3 (Updated)",4,"Anxious",132,"In",NA,2,"BCADKEJFIGH",NA,NA,"A (JV first)",NA,NA,"SS1","SS1",12,"J","Judginess","y8ii7g",1,"continue","",5260.96800009537,5247.16,5260.96800009537,5260.96800009537,5247.16,5260.96800009537,1,5260.96800009537,0,0,NA,"Click To Continue","Continue Button",1,"object-14","J","CFD-WF-011-002-H.jpeg",NA,"SUPTM05489"
"45",1689005269724,"10/07/2023 16:07:49",1689008869724,1,"10/07/2023 18:07:49",137495,33,"task-9nhz",NA,30599811,9085338,NA,"complete",NA,NA,"computer","Desktop or Laptop","Windows 10","Chrome 114.0.0.0","1536x864","1536x714",NA,NA,NA,"JV Task P3 (Updated)",4,"Anxious",132,"In",NA,2,"BCADKEJFIGH",NA,NA,"A (JV first)",NA,NA,"SS1","SS1",12,"J","Judginess","y8ii7g",1,"response","56",3598.054,5247.16,5261.16800014305,3598.054,5247.16,5261.16800014305,1,3598.054,1663.11400014305,0,NA,"Slider","J",3,"object-18","J","CFD-WF-011-002-H.jpeg",NA,"SUPTM05489"
"46",1689005270677,"10/07/2023 16:07:50",1689008870677,1,"10/07/2023 18:07:50",137495,33,"task-9nhz",NA,30599811,9085338,NA,"complete",NA,NA,"computer","Desktop or Laptop","Windows 10","Chrome 114.0.0.0","1536x864","1536x714",NA,NA,NA,"JV Task P3 (Updated)",4,"Anxious",132,"In",NA,2,"BCADKEJFIGH",NA,NA,"A (JV first)",NA,NA,"SS1","SS1",12,"J","Fixation","w9zir9",2,"continue","",966.12999999999,966.12999999999,966.12999999999,966.12999999999,966.12999999999,966.12999999999,1,966.12999999999,0,0,NA,"Fixation Timing","Fixation",1,"object-65","J","CFD-WF-011-002-H.jpeg",NA,"SUPTM05489"
"47",1689005277368,"10/07/2023 16:07:57",1689008877368,1,"10/07/2023 18:07:57",137495,33,"task-9nhz",NA,30599811,9085338,NA,"complete",NA,NA,"computer","Desktop or Laptop","Windows 10","Chrome 114.0.0.0","1536x864","1536x714",NA,NA,NA,"JV Task P3 (Updated)",4,"Anxious",132,"In",NA,2,"BCADKEJFIGH",NA,NA,"A (JV first)",NA,NA,"SS1","SS1",13,"J","Judginess","y8ii7g",1,"continue","",6691.07799995232,6679.375,6691.07799995232,6691.07799995232,6679.375,6691.07799995232,1,6691.07799995232,0,0,NA,"Click To Continue","Continue Button",1,"object-14","J","CFD-BF-040-003-N.jpg",NA,"SUPTM05489"
"48",1689005277370,"10/07/2023 16:07:57",1689008877370,1,"10/07/2023 18:07:57",137495,33,"task-9nhz",NA,30599811,9085338,NA,"complete",NA,NA,"computer","Desktop or Laptop","Windows 10","Chrome 114.0.0.0","1536x864","1536x714",NA,NA,NA,"JV Task P3 (Updated)",4,"Anxious",132,"In",NA,2,"BCADKEJFIGH",NA,NA,"A (JV first)",NA,NA,"SS1","SS1",13,"J","Judginess","y8ii7g",1,"response","45",5146.93800000001,6679.375,6693.57799995232,5146.93800000001,6679.375,6693.57799995232,1,5146.93800000001,1546.63999995231,0,NA,"Slider","J",3,"object-18","J","CFD-BF-040-003-N.jpg",NA,"SUPTM05489"
"49",1689005278323,"10/07/2023 16:07:58",1689008878323,1,"10/07/2023 18:07:58",137495,33,"task-9nhz",NA,30599811,9085338,NA,"complete",NA,NA,"computer","Desktop or Laptop","Windows 10","Chrome 114.0.0.0","1536x864","1536x714",NA,NA,NA,"JV Task P3 (Updated)",4,"Anxious",132,"In",NA,2,"BCADKEJFIGH",NA,NA,"A (JV first)",NA,NA,"SS1","SS1",13,"J","Fixation","w9zir9",2,"continue","",966.119000000006,966.119000000006,966.119000000006,966.119000000006,966.119000000006,966.119000000006,1,966.119000000006,0,0,NA,"Fixation Timing","Fixation",1,"object-65","J","CFD-BF-040-003-N.jpg",NA,"SUPTM05489"
"50",1689005288364,"10/07/2023 16:08:08",1689008888364,1,"10/07/2023 18:08:08",137495,33,"task-9nhz",NA,30599811,9085338,NA,"complete",NA,NA,"computer","Desktop or Laptop","Windows 10","Chrome 114.0.0.0","1536x864","1536x714",NA,NA,NA,"JV Task P3 (Updated)",4,"Anxious",132,"In",NA,2,"BCADKEJFIGH",NA,NA,"A (JV first)",NA,NA,"SS1","SS1",14,"J","Judginess","y8ii7g",1,"continue","",10032.8840001431,10028.118,10032.8840001431,10032.8840001431,10028.118,10032.8840001431,1,10032.8840001431,0,0,NA,"Click To Continue","Continue Button",1,"object-14","J","CFD-WF-027-003-S.jpeg",NA,"SUPTM05489"
"51",1689005288366,"10/07/2023 16:08:08",1689008888366,1,"10/07/2023 18:08:08",137495,33,"task-9nhz",NA,30599811,9085338,NA,"complete",NA,NA,"computer","Desktop or Laptop","Windows 10","Chrome 114.0.0.0","1536x864","1536x714",NA,NA,NA,"JV Task P3 (Updated)",4,"Anxious",132,"In",NA,2,"BCADKEJFIGH",NA,NA,"A (JV first)",NA,NA,"SS1","SS1",14,"J","Judginess","y8ii7g",1,"response","35",5847.083,10028.118,10034.5839999523,5847.083,10028.118,10034.5839999523,1,5847.083,4187.50099995232,0,NA,"Slider","J",3,"object-18","J","CFD-WF-027-003-S.jpeg",NA,"SUPTM05489"
"52",1689005289326,"10/07/2023 16:08:09",1689008889326,1,"10/07/2023 18:08:09",137495,33,"task-9nhz",NA,30599811,9085338,NA,"complete",NA,NA,"computer","Desktop or Laptop","Windows 10","Chrome 114.0.0.0","1536x864","1536x714",NA,NA,NA,"JV Task P3 (Updated)",4,"Anxious",132,"In",NA,2,"BCADKEJFIGH",NA,NA,"A (JV first)",NA,NA,"SS1","SS1",14,"J","Fixation","w9zir9",2,"continue","",965.761999999988,965.761999999988,965.761999999988,965.761999999988,965.761999999988,965.761999999988,1,965.761999999988,0,0,NA,"Fixation Timing","Fixation",1,"object-65","J","CFD-WF-027-003-S.jpeg",NA,"SUPTM05489"
"53",1689005304421,"10/07/2023 16:08:24",1689008904421,1,"10/07/2023 18:08:24",137495,33,"task-9nhz",NA,30599811,9085338,NA,"complete",NA,NA,"computer","Desktop or Laptop","Windows 10","Chrome 114.0.0.0","1536x864","1536x714",NA,NA,NA,"JV Task P3 (Updated)",4,"Anxious",132,"In",NA,2,"BCADKEJFIGH",NA,NA,"A (JV first)",NA,NA,"SS1","SS1",15,"J","Judginess","y8ii7g",1,"continue","",15095.3040000954,15092.085,15095.3040000954,15095.3040000954,15092.085,15095.3040000954,1,15095.3040000954,0,0,NA,"Click To Continue","Continue Button",1,"object-14","J","CFD-IF-734-108-N.jpg",NA,"SUPTM05489"
"54",1689005304422,"10/07/2023 16:08:24",1689008904422,1,"10/07/2023 18:08:24",137495,33,"task-9nhz",NA,30599811,9085338,NA,"complete",NA,NA,"computer","Desktop or Laptop","Windows 10","Chrome 114.0.0.0","1536x864","1536x714",NA,NA,NA,"JV Task P3 (Updated)",4,"Anxious",132,"In",NA,2,"BCADKEJFIGH",NA,NA,"A (JV first)",NA,NA,"SS1","SS1",15,"J","Judginess","y8ii7g",1,"response","58",12160.345,15092.085,15096.5040001431,12160.345,15092.085,15096.5040001431,1,12160.345,2936.15900014306,0,NA,"Slider","J",3,"object-18","J","CFD-IF-734-108-N.jpg",NA,"SUPTM05489"
"55",1689005305385,"10/07/2023 16:08:25",1689008905385,1,"10/07/2023 18:08:25",137495,33,"task-9nhz",NA,30599811,9085338,NA,"complete",NA,NA,"computer","Desktop or Laptop","Windows 10","Chrome 114.0.0.0","1536x864","1536x714",NA,NA,NA,"JV Task P3 (Updated)",4,"Anxious",132,"In",NA,2,"BCADKEJFIGH",NA,NA,"A (JV first)",NA,NA,"SS1","SS1",15,"J","Fixation","w9zir9",2,"continue","",966.133999999991,966.133999999991,966.133999999991,966.133999999991,966.133999999991,966.133999999991,1,966.133999999991,0,0,NA,"Fixation Timing","Fixation",1,"object-65","J","CFD-IF-734-108-N.jpg",NA,"SUPTM05489"
"56",1689005312986,"10/07/2023 16:08:32",1689008912986,1,"10/07/2023 18:08:32",137495,33,"task-9nhz",NA,30599811,9085338,NA,"complete",NA,NA,"computer","Desktop or Laptop","Windows 10","Chrome 114.0.0.0","1536x864","1536x714",NA,NA,NA,"JV Task P3 (Updated)",4,"Anxious",132,"In",NA,2,"BCADKEJFIGH",NA,NA,"A (JV first)",NA,NA,"SS1","SS1",16,"J","Judginess","y8ii7g",1,"continue","",7602.48499995231,7595.88099999999,7602.48499995231,7602.48499995231,7595.88099999999,7602.48499995231,1,7602.48499995231,0,0,NA,"Click To Continue","Continue Button",1,"object-14","J","CFD-WM-025-002-N.jpg",NA,"SUPTM05489"
"57",1689005312986,"10/07/2023 16:08:32",1689008912986,1,"10/07/2023 18:08:32",137495,33,"task-9nhz",NA,30599811,9085338,NA,"complete",NA,NA,"computer","Desktop or Laptop","Windows 10","Chrome 114.0.0.0","1536x864","1536x714",NA,NA,NA,"JV Task P3 (Updated)",4,"Anxious",132,"In",NA,2,"BCADKEJFIGH",NA,NA,"A (JV first)",NA,NA,"SS1","SS1",16,"J","Judginess","y8ii7g",1,"response","45",6212.92300000001,7595.88099999999,7602.685,6212.92300000001,7595.88099999999,7602.685,1,6212.92300000001,1389.76199999999,0,NA,"Slider","J",3,"object-18","J","CFD-WM-025-002-N.jpg",NA,"SUPTM05489"
"58",1689005313946,"10/07/2023 16:08:33",1689008913946,1,"10/07/2023 18:08:33",137495,33,"task-9nhz",NA,30599811,9085338,NA,"complete",NA,NA,"computer","Desktop or Laptop","Windows 10","Chrome 114.0.0.0","1536x864","1536x714",NA,NA,NA,"JV Task P3 (Updated)",4,"Anxious",132,"In",NA,2,"BCADKEJFIGH",NA,NA,"A (JV first)",NA,NA,"SS1","SS1",16,"J","Fixation","w9zir9",2,"continue","",966.064000000013,966.064000000013,966.064000000013,966.064000000013,966.064000000013,966.064000000013,1,966.064000000013,0,0,NA,"Fixation Timing","Fixation",1,"object-65","J","CFD-WM-025-002-N.jpg",NA,"SUPTM05489"
"59",1689005324333,"10/07/2023 16:08:44",1689008924333,1,"10/07/2023 18:08:44",137495,33,"task-9nhz",NA,30599811,9085338,NA,"complete",NA,NA,"computer","Desktop or Laptop","Windows 10","Chrome 114.0.0.0","1536x864","1536x714",NA,NA,NA,"JV Task P3 (Updated)",4,"Anxious",132,"In",NA,2,"BCADKEJFIGH",NA,NA,"A (JV first)",NA,NA,"SS1","SS1",4,"V","Valence","xyoebq",1,"continue","",10387.74,10377.697,10387.74,10387.74,10377.697,10387.74,1,10387.74,0,0,NA,"Click To Continue","Continue Button",1,"object-25","V","CFD-WM-035-032-S.jpeg",NA,"SUPTM05489"
"60",1689005324336,"10/07/2023 16:08:44",1689008924336,1,"10/07/2023 18:08:44",137495,33,"task-9nhz",NA,30599811,9085338,NA,"complete",NA,NA,"computer","Desktop or Laptop","Windows 10","Chrome 114.0.0.0","1536x864","1536x714",NA,NA,NA,"JV Task P3 (Updated)",4,"Anxious",132,"In",NA,2,"BCADKEJFIGH",NA,NA,"A (JV first)",NA,NA,"SS1","SS1",4,"V","Valence","xyoebq",1,"response","34",8112.37399999998,10377.697,10390.24,8112.37399999998,10377.697,10390.24,1,8112.37399999998,2277.86600000001,0,NA,"Slider","J",3,"object-27","V","CFD-WM-035-032-S.jpeg",NA,"SUPTM05489"
"61",1689005325290,"10/07/2023 16:08:45",1689008925290,1,"10/07/2023 18:08:45",137495,33,"task-9nhz",NA,30599811,9085338,NA,"complete",NA,NA,"computer","Desktop or Laptop","Windows 10","Chrome 114.0.0.0","1536x864","1536x714",NA,NA,NA,"JV Task P3 (Updated)",4,"Anxious",132,"In",NA,2,"BCADKEJFIGH",NA,NA,"A (JV first)",NA,NA,"SS1","SS1",4,"V","Fixation","68owkj",2,"continue","",966.167000000016,966.167000000016,966.167000000016,966.167000000016,966.167000000016,966.167000000016,1,966.167000000016,0,0,NA,"Fixation Timing","Fixation",1,"object-21","V","CFD-WM-035-032-S.jpeg",NA,"SUPTM05489"
"62",1689005329115,"10/07/2023 16:08:49",1689008929115,1,"10/07/2023 18:08:49",137495,33,"task-9nhz",NA,30599811,9085338,NA,"complete",NA,NA,"computer","Desktop or Laptop","Windows 10","Chrome 114.0.0.0","1536x864","1536x714",NA,NA,NA,"JV Task P3 (Updated)",4,"Anxious",132,"In",NA,2,"BCADKEJFIGH",NA,NA,"A (JV first)",NA,NA,"SS1","SS1",5,"V","Valence","xyoebq",1,"continue","",3826.07600004767,3814.15899999999,3826.07600004767,3826.07600004767,3814.15899999999,3826.07600004767,1,3826.07600004767,0,0,NA,"Click To Continue","Continue Button",1,"object-25","V","CFD-WF-022-017-S.jpeg",NA,"SUPTM05489"
"63",1689005329116,"10/07/2023 16:08:49",1689008929116,1,"10/07/2023 18:08:49",137495,33,"task-9nhz",NA,30599811,9085338,NA,"complete",NA,NA,"computer","Desktop or Laptop","Windows 10","Chrome 114.0.0.0","1536x864","1536x714",NA,NA,NA,"JV Task P3 (Updated)",4,"Anxious",132,"In",NA,2,"BCADKEJFIGH",NA,NA,"A (JV first)",NA,NA,"SS1","SS1",5,"V","Valence","xyoebq",1,"response","39",3264.83299999998,3814.15899999999,3826.37599999999,3264.83299999998,3814.15899999999,3826.37599999999,1,3264.83299999998,561.543000000005,0,NA,"Slider","J",3,"object-27","V","CFD-WF-022-017-S.jpeg",NA,"SUPTM05489"
"64",1689005330071,"10/07/2023 16:08:50",1689008930071,1,"10/07/2023 18:08:50",137495,33,"task-9nhz",NA,30599811,9085338,NA,"complete",NA,NA,"computer","Desktop or Laptop","Windows 10","Chrome 114.0.0.0","1536x864","1536x714",NA,NA,NA,"JV Task P3 (Updated)",4,"Anxious",132,"In",NA,2,"BCADKEJFIGH",NA,NA,"A (JV first)",NA,NA,"SS1","SS1",5,"V","Fixation","68owkj",2,"continue","",966.493000000017,966.493000000017,966.493000000017,966.493000000017,966.493000000017,966.493000000017,1,966.493000000017,0,0,NA,"Fixation Timing","Fixation",1,"object-21","V","CFD-WF-022-017-S.jpeg",NA,"SUPTM05489"
"65",1689005335257,"10/07/2023 16:08:55",1689008935257,1,"10/07/2023 18:08:55",137495,33,"task-9nhz",NA,30599811,9085338,NA,"complete",NA,NA,"computer","Desktop or Laptop","Windows 10","Chrome 114.0.0.0","1536x864","1536x714",NA,NA,NA,"JV Task P3 (Updated)",4,"Anxious",132,"In",NA,2,"BCADKEJFIGH",NA,NA,"A (JV first)",NA,NA,"SS1","SS1",6,"V","Valence","xyoebq",1,"continue","",5186.62400009535,5180.23199999999,5186.62400009535,5186.62400009535,5180.23199999999,5186.62400009535,1,5186.62400009535,0,0,NA,"Click To Continue","Continue Button",1,"object-25","V","CFD-BF-008-001-S.jpeg",NA,"SUPTM05489"
"66",1689005335259,"10/07/2023 16:08:55",1689008935259,1,"10/07/2023 18:08:55",137495,33,"task-9nhz",NA,30599811,9085338,NA,"complete",NA,NA,"computer","Desktop or Laptop","Windows 10","Chrome 114.0.0.0","1536x864","1536x714",NA,NA,NA,"JV Task P3 (Updated)",4,"Anxious",132,"In",NA,2,"BCADKEJFIGH",NA,NA,"A (JV first)",NA,NA,"SS1","SS1",6,"V","Valence","xyoebq",1,"response","29",4097.71899999998,5180.23199999999,5189.42400004767,4097.71899999998,5180.23199999999,5189.42400004767,1,4097.71899999998,1091.70500004769,0,NA,"Slider","J",3,"object-27","V","CFD-BF-008-001-S.jpeg",NA,"SUPTM05489"
"67",1689005336217,"10/07/2023 16:08:56",1689008936217,1,"10/07/2023 18:08:56",137495,33,"task-9nhz",NA,30599811,9085338,NA,"complete",NA,NA,"computer","Desktop or Laptop","Windows 10","Chrome 114.0.0.0","1536x864","1536x714",NA,NA,NA,"JV Task P3 (Updated)",4,"Anxious",132,"In",NA,2,"BCADKEJFIGH",NA,NA,"A (JV first)",NA,NA,"SS1","SS1",6,"V","Fixation","68owkj",2,"continue","",966.117999999988,966.117999999988,966.117999999988,966.117999999988,966.117999999988,966.117999999988,1,966.117999999988,0,0,NA,"Fixation Timing","Fixation",1,"object-21","V","CFD-BF-008-001-S.jpeg",NA,"SUPTM05489"
"68",1689005338624,"10/07/2023 16:08:58",1689008938624,1,"10/07/2023 18:08:58",137495,33,"task-9nhz",NA,30599811,9085338,NA,"complete",NA,NA,"computer","Desktop or Laptop","Windows 10","Chrome 114.0.0.0","1536x864","1536x714",NA,NA,NA,"JV Task P3 (Updated)",4,"Anxious",132,"In",NA,2,"BCADKEJFIGH",NA,NA,"A (JV first)",NA,NA,"SS1","SS1",7,"V","Valence","xyoebq",1,"continue","",2407.57400004769,2398.587,2407.57400004769,2407.57400004769,2398.587,2407.57400004769,1,2407.57400004769,0,0,NA,"Click To Continue","Continue Button",1,"object-25","V","CFD-WF-036-023-S.jpeg",NA,"SUPTM05489"
"69",1689005338624,"10/07/2023 16:08:58",1689008938624,1,"10/07/2023 18:08:58",137495,33,"task-9nhz",NA,30599811,9085338,NA,"complete",NA,NA,"computer","Desktop or Laptop","Windows 10","Chrome 114.0.0.0","1536x864","1536x714",NA,NA,NA,"JV Task P3 (Updated)",4,"Anxious",132,"In",NA,2,"BCADKEJFIGH",NA,NA,"A (JV first)",NA,NA,"SS1","SS1",7,"V","Valence","xyoebq",1,"response","33",1732.61500000002,2398.587,2407.87400000001,1732.61500000002,2398.587,2407.87400000001,1,1732.61500000002,675.258999999991,0,NA,"Slider","J",3,"object-27","V","CFD-WF-036-023-S.jpeg",NA,"SUPTM05489"
"70",1689005339582,"10/07/2023 16:08:59",1689008939582,1,"10/07/2023 18:08:59",137495,33,"task-9nhz",NA,30599811,9085338,NA,"complete",NA,NA,"computer","Desktop or Laptop","Windows 10","Chrome 114.0.0.0","1536x864","1536x714",NA,NA,NA,"JV Task P3 (Updated)",4,"Anxious",132,"In",NA,2,"BCADKEJFIGH",NA,NA,"A (JV first)",NA,NA,"SS1","SS1",7,"V","Fixation","68owkj",2,"continue","",966.169000000024,966.169000000024,966.169000000024,966.169000000024,966.169000000024,966.169000000024,1,966.169000000024,0,0,NA,"Fixation Timing","Fixation",1,"object-21","V","CFD-WF-036-023-S.jpeg",NA,"SUPTM05489"
"71",1689005341885,"10/07/2023 16:09:01",1689008941885,1,"10/07/2023 18:09:01",137495,33,"task-9nhz",NA,30599811,9085338,NA,"complete",NA,NA,"computer","Desktop or Laptop","Windows 10","Chrome 114.0.0.0","1536x864","1536x714",NA,NA,NA,"JV Task P3 (Updated)",4,"Anxious",132,"In",NA,2,"BCADKEJFIGH",NA,NA,"A (JV first)",NA,NA,"SS1","SS1",8,"V","Valence","xyoebq",1,"continue","",2304.21800014304,2298.75699999998,2304.21800014304,2304.21800014304,2298.75699999998,2304.21800014304,1,2304.21800014304,0,0,NA,"Click To Continue","Continue Button",1,"object-25","V","CFD-IM-695-001-S.jpeg",NA,"SUPTM05489"
"72",1689005341886,"10/07/2023 16:09:01",1689008941886,1,"10/07/2023 18:09:01",137495,33,"task-9nhz",NA,30599811,9085338,NA,"complete",NA,NA,"computer","Desktop or Laptop","Windows 10","Chrome 114.0.0.0","1536x864","1536x714",NA,NA,NA,"JV Task P3 (Updated)",4,"Anxious",132,"In",NA,2,"BCADKEJFIGH",NA,NA,"A (JV first)",NA,NA,"SS1","SS1",8,"V","Valence","xyoebq",1,"response","45",1616.10199999998,2298.75699999998,2304.61799999999,1616.10199999998,2298.75699999998,2304.61799999999,1,1616.10199999998,688.516000000003,0,NA,"Slider","J",3,"object-27","V","CFD-IM-695-001-S.jpeg",NA,"SUPTM05489"
"73",1689005342857,"10/07/2023 16:09:02",1689008942857,1,"10/07/2023 18:09:02",137495,33,"task-9nhz",NA,30599811,9085338,NA,"complete",NA,NA,"computer","Desktop or Laptop","Windows 10","Chrome 114.0.0.0","1536x864","1536x714",NA,NA,NA,"JV Task P3 (Updated)",4,"Anxious",132,"In",NA,2,"BCADKEJFIGH",NA,NA,"A (JV first)",NA,NA,"SS1","SS1",8,"V","Fixation","68owkj",2,"continue","",966.121000000014,966.121000000014,966.121000000014,966.121000000014,966.121000000014,966.121000000014,1,966.121000000014,0,0,NA,"Fixation Timing","Fixation",1,"object-21","V","CFD-IM-695-001-S.jpeg",NA,"SUPTM05489"
"74",1689005348125,"10/07/2023 16:09:08",1689008948125,1,"10/07/2023 18:09:08",137495,33,"task-9nhz",NA,30599811,9085338,NA,"complete",NA,NA,"computer","Desktop or Laptop","Windows 10","Chrome 114.0.0.0","1536x864","1536x714",NA,NA,NA,"JV Task P3 (Updated)",4,"Anxious",132,"In",NA,2,"BCADKEJFIGH",NA,NA,"A (JV first)",NA,NA,"SS1","SS1",17,"J","Judginess","y8ii7g",1,"continue","",5267.84000014304,5263.889,5267.84000014304,5267.84000014304,5263.889,5267.84000014304,1,5267.84000014304,0,0,NA,"Click To Continue","Continue Button",1,"object-14","J","CFD-AF-211-066-N.jpg",NA,"SUPTM05489"
"75",1689005348127,"10/07/2023 16:09:08",1689008948127,1,"10/07/2023 18:09:08",137495,33,"task-9nhz",NA,30599811,9085338,NA,"complete",NA,NA,"computer","Desktop or Laptop","Windows 10","Chrome 114.0.0.0","1536x864","1536x714",NA,NA,NA,"JV Task P3 (Updated)",4,"Anxious",132,"In",NA,2,"BCADKEJFIGH",NA,NA,"A (JV first)",NA,NA,"SS1","SS1",17,"J","Judginess","y8ii7g",1,"response","58",3747.90299999999,5263.889,5270.23999999999,3747.90299999999,5263.889,5270.23999999999,1,3747.90299999999,1522.337,0,NA,"Slider","J",3,"object-18","J","CFD-AF-211-066-N.jpg",NA,"SUPTM05489"
"76",1689005349088,"10/07/2023 16:09:09",1689008949088,1,"10/07/2023 18:09:09",137495,33,"task-9nhz",NA,30599811,9085338,NA,"complete",NA,NA,"computer","Desktop or Laptop","Windows 10","Chrome 114.0.0.0","1536x864","1536x714",NA,NA,NA,"JV Task P3 (Updated)",4,"Anxious",132,"In",NA,2,"BCADKEJFIGH",NA,NA,"A (JV first)",NA,NA,"SS1","SS1",17,"J","Fixation","w9zir9",2,"continue","",966.328000000009,966.328000000009,966.328000000009,966.328000000009,966.328000000009,966.328000000009,1,966.328000000009,0,0,NA,"Fixation Timing","Fixation",1,"object-65","J","CFD-AF-211-066-N.jpg",NA,"SUPTM05489"
"77",1689005352540,"10/07/2023 16:09:12",1689008952540,1,"10/07/2023 18:09:12",137495,33,"task-9nhz",NA,30599811,9085338,NA,"complete",NA,NA,"computer","Desktop or Laptop","Windows 10","Chrome 114.0.0.0","1536x864","1536x714",NA,NA,NA,"JV Task P3 (Updated)",4,"Anxious",132,"In",NA,2,"BCADKEJFIGH",NA,NA,"A (JV first)",NA,NA,"SS1","SS1",18,"J","Judginess","y8ii7g",1,"continue","",3453.3229999523,3448.09299999999,3453.3229999523,3453.3229999523,3448.09299999999,3453.3229999523,1,3453.3229999523,0,0,NA,"Click To Continue","Continue Button",1,"object-14","J","CFD-BF-008-001-N.jpg",NA,"SUPTM05489"
"78",1689005352541,"10/07/2023 16:09:12",1689008952541,1,"10/07/2023 18:09:12",137495,33,"task-9nhz",NA,30599811,9085338,NA,"complete",NA,NA,"computer","Desktop or Laptop","Windows 10","Chrome 114.0.0.0","1536x864","1536x714",NA,NA,NA,"JV Task P3 (Updated)",4,"Anxious",132,"In",NA,2,"BCADKEJFIGH",NA,NA,"A (JV first)",NA,NA,"SS1","SS1",18,"J","Judginess","y8ii7g",1,"response","58",2315.13099999999,3448.09299999999,3453.62300014304,2315.13099999999,3448.09299999999,3453.62300014304,1,2315.13099999999,1138.49200014304,0,NA,"Slider","J",3,"object-18","J","CFD-BF-008-001-N.jpg",NA,"SUPTM05489"
"79",1689005353502,"10/07/2023 16:09:13",1689008953502,1,"10/07/2023 18:09:13",137495,33,"task-9nhz",NA,30599811,9085338,NA,"complete",NA,NA,"computer","Desktop or Laptop","Windows 10","Chrome 114.0.0.0","1536x864","1536x714",NA,NA,NA,"JV Task P3 (Updated)",4,"Anxious",132,"In",NA,2,"BCADKEJFIGH",NA,NA,"A (JV first)",NA,NA,"SS1","SS1",18,"J","Fixation","w9zir9",2,"continue","",966.136999999988,966.136999999988,966.136999999988,966.136999999988,966.136999999988,966.136999999988,1,966.136999999988,0,0,NA,"Fixation Timing","Fixation",1,"object-65","J","CFD-BF-008-001-N.jpg",NA,"SUPTM05489"
"80",1689005358730,"10/07/2023 16:09:18",1689008958730,1,"10/07/2023 18:09:18",137495,33,"task-9nhz",NA,30599811,9085338,NA,"complete",NA,NA,"computer","Desktop or Laptop","Windows 10","Chrome 114.0.0.0","1536x864","1536x714",NA,NA,NA,"JV Task P3 (Updated)",4,"Anxious",132,"In",NA,2,"BCADKEJFIGH",NA,NA,"A (JV first)",NA,NA,"SS1","SS1",9,"V","Valence","xyoebq",1,"continue","",5228.29300000001,5213.75400000002,5228.29300000001,5228.29300000001,5213.75400000002,5228.29300000001,1,5228.29300000001,0,0,NA,"Click To Continue","Continue Button",1,"object-25","V","CFD-WF-022-017-S.jpeg",NA,"SUPTM05489"
"81",1689005358732,"10/07/2023 16:09:18",1689008958732,1,"10/07/2023 18:09:18",137495,33,"task-9nhz",NA,30599811,9085338,NA,"complete",NA,NA,"computer","Desktop or Laptop","Windows 10","Chrome 114.0.0.0","1536x864","1536x714",NA,NA,NA,"JV Task P3 (Updated)",4,"Anxious",132,"In",NA,2,"BCADKEJFIGH",NA,NA,"A (JV first)",NA,NA,"SS1","SS1",9,"V","Valence","xyoebq",1,"response","38",4464.19500000001,5213.75400000002,5230.36800000002,4464.19500000001,5213.75400000002,5230.36800000002,1,4464.19500000001,766.17300000001,0,NA,"Slider","J",3,"object-27","V","CFD-WF-022-017-S.jpeg",NA,"SUPTM05489"
"82",1689005359682,"10/07/2023 16:09:19",1689008959682,1,"10/07/2023 18:09:19",137495,33,"task-9nhz",NA,30599811,9085338,NA,"complete",NA,NA,"computer","Desktop or Laptop","Windows 10","Chrome 114.0.0.0","1536x864","1536x714",NA,NA,NA,"JV Task P3 (Updated)",4,"Anxious",132,"In",NA,2,"BCADKEJFIGH",NA,NA,"A (JV first)",NA,NA,"SS1","SS1",9,"V","Fixation","68owkj",2,"continue","",965.926999999996,965.926999999996,965.926999999996,965.926999999996,965.926999999996,965.926999999996,1,965.926999999996,0,0,NA,"Fixation Timing","Fixation",1,"object-21","V","CFD-WF-022-017-S.jpeg",NA,"SUPTM05489"
"83",1689005366557,"10/07/2023 16:09:26",1689008966557,1,"10/07/2023 18:09:26",137495,33,"task-9nhz",NA,30599811,9085338,NA,"complete",NA,NA,"computer","Desktop or Laptop","Windows 10","Chrome 114.0.0.0","1536x864","1536x714",NA,NA,NA,"JV Task P3 (Updated)",4,"Anxious",132,"In",NA,2,"BCADKEJFIGH",NA,NA,"A (JV first)",NA,NA,"SS1","SS1",19,"J","Judginess","y8ii7g",1,"continue","",6876.41199995231,6863.15599999999,6876.41199995231,6876.41199995231,6863.15599999999,6876.41199995231,1,6876.41199995231,0,0,NA,"Click To Continue","Continue Button",1,"object-14","J","CFD-MM-313-002-H.jpeg",NA,"SUPTM05489"
"84",1689005366558,"10/07/2023 16:09:26",1689008966558,1,"10/07/2023 18:09:26",137495,33,"task-9nhz",NA,30599811,9085338,NA,"complete",NA,NA,"computer","Desktop or Laptop","Windows 10","Chrome 114.0.0.0","1536x864","1536x714",NA,NA,NA,"JV Task P3 (Updated)",4,"Anxious",132,"In",NA,2,"BCADKEJFIGH",NA,NA,"A (JV first)",NA,NA,"SS1","SS1",19,"J","Judginess","y8ii7g",1,"response","62",3947.93399999998,6863.15599999999,6876.81200004768,3947.93399999998,6863.15599999999,6876.81200004768,1,3947.93399999998,2928.8780000477,0,NA,"Slider","J",3,"object-18","J","CFD-MM-313-002-H.jpeg",NA,"SUPTM05489"
"85",1689005367511,"10/07/2023 16:09:27",1689008967511,1,"10/07/2023 18:09:27",137495,33,"task-9nhz",NA,30599811,9085338,NA,"complete",NA,NA,"computer","Desktop or Laptop","Windows 10","Chrome 114.0.0.0","1536x864","1536x714",NA,NA,NA,"JV Task P3 (Updated)",4,"Anxious",132,"In",NA,2,"BCADKEJFIGH",NA,NA,"A (JV first)",NA,NA,"SS1","SS1",19,"J","Fixation","w9zir9",2,"continue","",966.126000000018,966.126000000018,966.126000000018,966.126000000018,966.126000000018,966.126000000018,1,966.126000000018,0,0,NA,"Fixation Timing","Fixation",1,"object-65","J","CFD-MM-313-002-H.jpeg",NA,"SUPTM05489"
"86",1689005372243,"10/07/2023 16:09:32",1689008972243,1,"10/07/2023 18:09:32",137495,33,"task-9nhz",NA,30599811,9085338,NA,"complete",NA,NA,"computer","Desktop or Laptop","Windows 10","Chrome 114.0.0.0","1536x864","1536x714",NA,NA,NA,"JV Task P3 (Updated)",4,"Anxious",132,"In",NA,2,"BCADKEJFIGH",NA,NA,"A (JV first)",NA,NA,"SS1","SS1",10,"V","Valence","xyoebq",1,"continue","",4732.6299999523,4730.42299999998,4732.6299999523,4732.6299999523,4730.42299999998,4732.6299999523,1,4732.6299999523,0,0,NA,"Click To Continue","Continue Button",1,"object-25","V","CFD-WF-024-003-S.jpeg",NA,"SUPTM05489"
"87",1689005372245,"10/07/2023 16:09:32",1689008972245,1,"10/07/2023 18:09:32",137495,33,"task-9nhz",NA,30599811,9085338,NA,"complete",NA,NA,"computer","Desktop or Laptop","Windows 10","Chrome 114.0.0.0","1536x864","1536x714",NA,NA,NA,"JV Task P3 (Updated)",4,"Anxious",132,"In",NA,2,"BCADKEJFIGH",NA,NA,"A (JV first)",NA,NA,"SS1","SS1",10,"V","Valence","xyoebq",1,"response","42",3848.212,4730.42299999998,4735.1299999523,3848.212,4730.42299999998,4735.1299999523,1,3848.212,886.917999952304,0,NA,"Slider","J",3,"object-27","V","CFD-WF-024-003-S.jpeg",NA,"SUPTM05489"
"88",1689005373208,"10/07/2023 16:09:33",1689008973208,1,"10/07/2023 18:09:33",137495,33,"task-9nhz",NA,30599811,9085338,NA,"complete",NA,NA,"computer","Desktop or Laptop","Windows 10","Chrome 114.0.0.0","1536x864","1536x714",NA,NA,NA,"JV Task P3 (Updated)",4,"Anxious",132,"In",NA,2,"BCADKEJFIGH",NA,NA,"A (JV first)",NA,NA,"SS1","SS1",10,"V","Fixation","68owkj",2,"continue","",966.17300000001,966.17300000001,966.17300000001,966.17300000001,966.17300000001,966.17300000001,1,966.17300000001,0,0,NA,"Fixation Timing","Fixation",1,"object-21","V","CFD-WF-024-003-S.jpeg",NA,"SUPTM05489"
"89",1689005380065,"10/07/2023 16:09:40",1689008980065,1,"10/07/2023 18:09:40",137495,33,"task-9nhz",NA,30599811,9085338,NA,"complete",NA,NA,"computer","Desktop or Laptop","Windows 10","Chrome 114.0.0.0","1536x864","1536x714",NA,NA,NA,"JV Task P3 (Updated)",4,"Anxious",132,"In",NA,2,"BCADKEJFIGH",NA,NA,"A (JV first)",NA,NA,"SS1","SS1",11,"V","Valence","xyoebq",1,"continue","",6857.63400009536,6846.38999999998,6857.63400009536,6857.63400009536,6846.38999999998,6857.63400009536,1,6857.63400009536,0,0,NA,"Click To Continue","Continue Button",1,"object-25","V","CFD-AM-220-134-H.jpeg",NA,"SUPTM05489"
"90",1689005380065,"10/07/2023 16:09:40",1689008980065,1,"10/07/2023 18:09:40",137495,33,"task-9nhz",NA,30599811,9085338,NA,"complete",NA,NA,"computer","Desktop or Laptop","Windows 10","Chrome 114.0.0.0","1536x864","1536x714",NA,NA,NA,"JV Task P3 (Updated)",4,"Anxious",132,"In",NA,2,"BCADKEJFIGH",NA,NA,"A (JV first)",NA,NA,"SS1","SS1",11,"V","Valence","xyoebq",1,"response","74",3698.01499999998,6846.38999999998,6858.234,3698.01499999998,6846.38999999998,6858.234,1,3698.01499999998,3160.21900000001,0,NA,"Slider","J",3,"object-27","V","CFD-AM-220-134-H.jpeg",NA,"SUPTM05489"
"91",1689005381020,"10/07/2023 16:09:41",1689008981020,1,"10/07/2023 18:09:41",137495,33,"task-9nhz",NA,30599811,9085338,NA,"complete",NA,NA,"computer","Desktop or Laptop","Windows 10","Chrome 114.0.0.0","1536x864","1536x714",NA,NA,NA,"JV Task P3 (Updated)",4,"Anxious",132,"In",NA,2,"BCADKEJFIGH",NA,NA,"A (JV first)",NA,NA,"SS1","SS1",11,"V","Fixation","68owkj",2,"continue","",966.031000000017,966.031000000017,966.031000000017,966.031000000017,966.031000000017,966.031000000017,1,966.031000000017,0,0,NA,"Fixation Timing","Fixation",1,"object-21","V","CFD-AM-220-134-H.jpeg",NA,"SUPTM05489"
"92",1689005384198,"10/07/2023 16:09:44",1689008984198,1,"10/07/2023 18:09:44",137495,33,"task-9nhz",NA,30599811,9085338,NA,"complete",NA,NA,"computer","Desktop or Laptop","Windows 10","Chrome 114.0.0.0","1536x864","1536x714",NA,NA,NA,"JV Task P3 (Updated)",4,"Anxious",132,"In",NA,2,"BCADKEJFIGH",NA,NA,"A (JV first)",NA,NA,"SS1","SS1",12,"V","Valence","xyoebq",1,"continue","",3179.01300004768,3164.84099999999,3179.01300004768,3179.01300004768,3164.84099999999,3179.01300004768,1,3179.01300004768,0,0,NA,"Click To Continue","Continue Button",1,"object-25","V","CFD-AF-233-190-H.jpeg",NA,"SUPTM05489"
"93",1689005384200,"10/07/2023 16:09:44",1689008984200,1,"10/07/2023 18:09:44",137495,33,"task-9nhz",NA,30599811,9085338,NA,"complete",NA,NA,"computer","Desktop or Laptop","Windows 10","Chrome 114.0.0.0","1536x864","1536x714",NA,NA,NA,"JV Task P3 (Updated)",4,"Anxious",132,"In",NA,2,"BCADKEJFIGH",NA,NA,"A (JV first)",NA,NA,"SS1","SS1",12,"V","Valence","xyoebq",1,"response","75",2298.67499999999,3164.84099999999,3181.01300004768,2298.67499999999,3164.84099999999,3181.01300004768,1,2298.67499999999,882.33800004769,0,NA,"Slider","J",3,"object-27","V","CFD-AF-233-190-H.jpeg",NA,"SUPTM05489"
"94",1689005385151,"10/07/2023 16:09:45",1689008985151,1,"10/07/2023 18:09:45",137495,33,"task-9nhz",NA,30599811,9085338,NA,"complete",NA,NA,"computer","Desktop or Laptop","Windows 10","Chrome 114.0.0.0","1536x864","1536x714",NA,NA,NA,"JV Task P3 (Updated)",4,"Anxious",132,"In",NA,2,"BCADKEJFIGH",NA,NA,"A (JV first)",NA,NA,"SS1","SS1",12,"V","Fixation","68owkj",2,"continue","",966.437999999995,966.437999999995,966.437999999995,966.437999999995,966.437999999995,966.437999999995,1,966.437999999995,0,0,NA,"Fixation Timing","Fixation",1,"object-21","V","CFD-AF-233-190-H.jpeg",NA,"SUPTM05489"
"95",1689005391499,"10/07/2023 16:09:51",1689008991499,1,"10/07/2023 18:09:51",137495,33,"task-9nhz",NA,30599811,9085338,NA,"complete",NA,NA,"computer","Desktop or Laptop","Windows 10","Chrome 114.0.0.0","1536x864","1536x714",NA,NA,NA,"JV Task P3 (Updated)",4,"Anxious",132,"In",NA,2,"BCADKEJFIGH",NA,NA,"A (JV first)",NA,NA,"SS1","SS1",13,"V","Valence","xyoebq",1,"continue","",6348.33399995233,6346.31800000003,6348.33399995233,6348.33399995233,6346.31800000003,6348.33399995233,1,6348.33399995233,0,0,NA,"Click To Continue","Continue Button",1,"object-25","V","CFD-WF-017-003-H.jpeg",NA,"SUPTM05489"
"96",1689005391499,"10/07/2023 16:09:51",1689008991499,1,"10/07/2023 18:09:51",137495,33,"task-9nhz",NA,30599811,9085338,NA,"complete",NA,NA,"computer","Desktop or Laptop","Windows 10","Chrome 114.0.0.0","1536x864","1536x714",NA,NA,NA,"JV Task P3 (Updated)",4,"Anxious",132,"In",NA,2,"BCADKEJFIGH",NA,NA,"A (JV first)",NA,NA,"SS1","SS1",13,"V","Valence","xyoebq",1,"response","65",3031.45000000001,6346.31800000003,6348.63400014307,3031.45000000001,6346.31800000003,6348.63400014307,1,3031.45000000001,3317.18400014305,0,NA,"Slider","J",3,"object-27","V","CFD-WF-017-003-H.jpeg",NA,"SUPTM05489"
"97",1689005392464,"10/07/2023 16:09:52",1689008992464,1,"10/07/2023 18:09:52",137495,33,"task-9nhz",NA,30599811,9085338,NA,"complete",NA,NA,"computer","Desktop or Laptop","Windows 10","Chrome 114.0.0.0","1536x864","1536x714",NA,NA,NA,"JV Task P3 (Updated)",4,"Anxious",132,"In",NA,2,"BCADKEJFIGH",NA,NA,"A (JV first)",NA,NA,"SS1","SS1",13,"V","Fixation","68owkj",2,"continue","",966.119999999995,966.119999999995,966.119999999995,966.119999999995,966.119999999995,966.119999999995,1,966.119999999995,0,0,NA,"Fixation Timing","Fixation",1,"object-21","V","CFD-WF-017-003-H.jpeg",NA,"SUPTM05489"
"98",1689005398296,"10/07/2023 16:09:58",1689008998296,1,"10/07/2023 18:09:58",137495,33,"task-9nhz",NA,30599811,9085338,NA,"complete",NA,NA,"computer","Desktop or Laptop","Windows 10","Chrome 114.0.0.0","1536x864","1536x714",NA,NA,NA,"JV Task P3 (Updated)",4,"Anxious",132,"In",NA,2,"BCADKEJFIGH",NA,NA,"A (JV first)",NA,NA,"SS1","SS1",20,"J","Judginess","y8ii7g",1,"continue","",5832.89599995231,5830.34899999999,5832.89599995231,5832.89599995231,5830.34899999999,5832.89599995231,1,5832.89599995231,0,0,NA,"Click To Continue","Continue Button",1,"object-14","J","CFD-WM-015-002-H.jpeg",NA,"SUPTM05489"
"99",1689005398298,"10/07/2023 16:09:58",1689008998298,1,"10/07/2023 18:09:58",137495,33,"task-9nhz",NA,30599811,9085338,NA,"complete",NA,NA,"computer","Desktop or Laptop","Windows 10","Chrome 114.0.0.0","1536x864","1536x714",NA,NA,NA,"JV Task P3 (Updated)",4,"Anxious",132,"In",NA,2,"BCADKEJFIGH",NA,NA,"A (JV first)",NA,NA,"SS1","SS1",20,"J","Judginess","y8ii7g",1,"response","57",1782.587,5830.34899999999,5834.99600009536,1782.587,5830.34899999999,5834.99600009536,1,1782.587,4052.40900009536,0,NA,"Slider","J",3,"object-18","J","CFD-WM-015-002-H.jpeg",NA,"SUPTM05489"
"100",1689005399262,"10/07/2023 16:09:59",1689008999262,1,"10/07/2023 18:09:59",137495,33,"task-9nhz",NA,30599811,9085338,NA,"complete",NA,NA,"computer","Desktop or Laptop","Windows 10","Chrome 114.0.0.0","1536x864","1536x714",NA,NA,NA,"JV Task P3 (Updated)",4,"Anxious",132,"In",NA,2,"BCADKEJFIGH",NA,NA,"A (JV first)",NA,NA,"SS1","SS1",20,"J","Fixation","w9zir9",2,"continue","",965.847000000009,965.847000000009,965.847000000009,965.847000000009,965.847000000009,965.847000000009,1,965.847000000009,0,0,NA,"Fixation Timing","Fixation",1,"object-65","J","CFD-WM-015-002-H.jpeg",NA,"SUPTM05489"
"101",1689005404871,"10/07/2023 16:10:04",1689009004871,1,"10/07/2023 18:10:04",137495,33,"task-9nhz",NA,30599811,9085338,NA,"complete",NA,NA,"computer","Desktop or Laptop","Windows 10","Chrome 114.0.0.0","1536x864","1536x714",NA,NA,NA,"JV Task P3 (Updated)",4,"Anxious",132,"In",NA,2,"BCADKEJFIGH",NA,NA,"A (JV first)",NA,NA,"SS1","SS1",21,"J","Judginess","y8ii7g",1,"continue","",5602.19999995231,5596.894,5602.19999995231,5602.19999995231,5596.894,5602.19999995231,1,5602.19999995231,0,0,NA,"Click To Continue","Continue Button",1,"object-14","J","CFD-WM-031-003-H.jpeg",NA,"SUPTM05489"
"102",1689005404871,"10/07/2023 16:10:04",1689009004871,1,"10/07/2023 18:10:04",137495,33,"task-9nhz",NA,30599811,9085338,NA,"complete",NA,NA,"computer","Desktop or Laptop","Windows 10","Chrome 114.0.0.0","1536x864","1536x714",NA,NA,NA,"JV Task P3 (Updated)",4,"Anxious",132,"In",NA,2,"BCADKEJFIGH",NA,NA,"A (JV first)",NA,NA,"SS1","SS1",21,"J","Judginess","y8ii7g",1,"response","59",1948.96099999998,5596.894,5602.60000004768,1948.96099999998,5596.894,5602.60000004768,1,1948.96099999998,3653.6390000477,0,NA,"Slider","J",3,"object-18","J","CFD-WM-031-003-H.jpeg",NA,"SUPTM05489"
"103",1689005405833,"10/07/2023 16:10:05",1689009005833,1,"10/07/2023 18:10:05",137495,33,"task-9nhz",NA,30599811,9085338,NA,"complete",NA,NA,"computer","Desktop or Laptop","Windows 10","Chrome 114.0.0.0","1536x864","1536x714",NA,NA,NA,"JV Task P3 (Updated)",4,"Anxious",132,"In",NA,2,"BCADKEJFIGH",NA,NA,"A (JV first)",NA,NA,"SS1","SS1",21,"J","Fixation","w9zir9",2,"continue","",966.437000000005,966.437000000005,966.437000000005,966.437000000005,966.437000000005,966.437000000005,1,966.437000000005,0,0,NA,"Fixation Timing","Fixation",1,"object-65","J","CFD-WM-031-003-H.jpeg",NA,"SUPTM05489"
"104",1689005413194,"10/07/2023 16:10:13",1689009013194,1,"10/07/2023 18:10:13",137495,33,"task-9nhz",NA,30599811,9085338,NA,"complete",NA,NA,"computer","Desktop or Laptop","Windows 10","Chrome 114.0.0.0","1536x864","1536x714",NA,NA,NA,"JV Task P3 (Updated)",4,"Anxious",132,"In",NA,2,"BCADKEJFIGH",NA,NA,"A (JV first)",NA,NA,"SS1","SS1",14,"V","Valence","xyoebq",1,"continue","",7362.23899999997,7345.64299999998,7362.23899999997,7362.23899999997,7345.64299999998,7362.23899999997,1,7362.23899999997,0,0,NA,"Click To Continue","Continue Button",1,"object-25","V","CFD-AF-233-190-S.jpeg",NA,"SUPTM05489"
"105",1689005413196,"10/07/2023 16:10:13",1689009013196,1,"10/07/2023 18:10:13",137495,33,"task-9nhz",NA,30599811,9085338,NA,"complete",NA,NA,"computer","Desktop or Laptop","Windows 10","Chrome 114.0.0.0","1536x864","1536x714",NA,NA,NA,"JV Task P3 (Updated)",4,"Anxious",132,"In",NA,2,"BCADKEJFIGH",NA,NA,"A (JV first)",NA,NA,"SS1","SS1",14,"V","Valence","xyoebq",1,"response","39",6313.228,7345.64299999998,7362.23899999997,6313.228,7345.64299999998,7362.23899999997,1,6313.228,1049.01099999997,0,NA,"Slider","J",3,"object-27","V","CFD-AF-233-190-S.jpeg",NA,"SUPTM05489"
"106",1689005414144,"10/07/2023 16:10:14",1689009014144,1,"10/07/2023 18:10:14",137495,33,"task-9nhz",NA,30599811,9085338,NA,"complete",NA,NA,"computer","Desktop or Laptop","Windows 10","Chrome 114.0.0.0","1536x864","1536x714",NA,NA,NA,"JV Task P3 (Updated)",4,"Anxious",132,"In",NA,2,"BCADKEJFIGH",NA,NA,"A (JV first)",NA,NA,"SS1","SS1",14,"V","Fixation","68owkj",2,"continue","",966.247000000003,966.247000000003,966.247000000003,966.247000000003,966.247000000003,966.247000000003,1,966.247000000003,0,0,NA,"Fixation Timing","Fixation",1,"object-21","V","CFD-AF-233-190-S.jpeg",NA,"SUPTM05489"
"107",1689005418273,"10/07/2023 16:10:18",1689009018273,1,"10/07/2023 18:10:18",137495,33,"task-9nhz",NA,30599811,9085338,NA,"complete",NA,NA,"computer","Desktop or Laptop","Windows 10","Chrome 114.0.0.0","1536x864","1536x714",NA,NA,NA,"JV Task P3 (Updated)",4,"Anxious",132,"In",NA,2,"BCADKEJFIGH",NA,NA,"A (JV first)",NA,NA,"SS1","SS1",22,"J","Judginess","y8ii7g",1,"continue","",4129.27900014305,4114.625,4129.27900014305,4129.27900014305,4114.625,4129.27900014305,1,4129.27900014305,0,0,NA,"Click To Continue","Continue Button",1,"object-14","J","CFD-BM-045-004-S.jpeg",NA,"SUPTM05489"
"108",1689005418274,"10/07/2023 16:10:18",1689009018274,1,"10/07/2023 18:10:18",137495,33,"task-9nhz",NA,30599811,9085338,NA,"complete",NA,NA,"computer","Desktop or Laptop","Windows 10","Chrome 114.0.0.0","1536x864","1536x714",NA,NA,NA,"JV Task P3 (Updated)",4,"Anxious",132,"In",NA,2,"BCADKEJFIGH",NA,NA,"A (JV first)",NA,NA,"SS1","SS1",22,"J","Judginess","y8ii7g",1,"response","32",3365.07699999999,4114.625,4129.87900004769,3365.07699999999,4114.625,4129.87900004769,1,3365.07699999999,764.802000047697,0,NA,"Slider","J",3,"object-18","J","CFD-BM-045-004-S.jpeg",NA,"SUPTM05489"
"109",1689005419225,"10/07/2023 16:10:19",1689009019225,1,"10/07/2023 18:10:19",137495,33,"task-9nhz",NA,30599811,9085338,NA,"complete",NA,NA,"computer","Desktop or Laptop","Windows 10","Chrome 114.0.0.0","1536x864","1536x714",NA,NA,NA,"JV Task P3 (Updated)",4,"Anxious",132,"In",NA,2,"BCADKEJFIGH",NA,NA,"A (JV first)",NA,NA,"SS1","SS1",22,"J","Fixation","w9zir9",2,"continue","",965.847000000009,965.847000000009,965.847000000009,965.847000000009,965.847000000009,965.847000000009,1,965.847000000009,0,0,NA,"Fixation Timing","Fixation",1,"object-65","J","CFD-BM-045-004-S.jpeg",NA,"SUPTM05489"
"110",1689005425614,"10/07/2023 16:10:25",1689009025614,1,"10/07/2023 18:10:25",137495,33,"task-9nhz",NA,30599811,9085338,NA,"complete",NA,NA,"computer","Desktop or Laptop","Windows 10","Chrome 114.0.0.0","1536x864","1536x714",NA,NA,NA,"JV Task P3 (Updated)",4,"Anxious",132,"In",NA,2,"BCADKEJFIGH",NA,NA,"A (JV first)",NA,NA,"SS1","SS1",15,"V","Valence","xyoebq",1,"continue","",6389.30700014305,6379.88,6389.30700014305,6389.30700014305,6379.88,6389.30700014305,1,6389.30700014305,0,0,NA,"Click To Continue","Continue Button",1,"object-25","V","CFD-WF-024-003-H.jpeg",NA,"SUPTM05489"
"111",1689005425616,"10/07/2023 16:10:25",1689009025616,1,"10/07/2023 18:10:25",137495,33,"task-9nhz",NA,30599811,9085338,NA,"complete",NA,NA,"computer","Desktop or Laptop","Windows 10","Chrome 114.0.0.0","1536x864","1536x714",NA,NA,NA,"JV Task P3 (Updated)",4,"Anxious",132,"In",NA,2,"BCADKEJFIGH",NA,NA,"A (JV first)",NA,NA,"SS1","SS1",15,"V","Valence","xyoebq",1,"response","72",5547.25,6379.88,6391.50699995231,5547.25,6379.88,6391.50699995231,1,5547.25,844.256999952311,0,NA,"Slider","J",3,"object-27","V","CFD-WF-024-003-H.jpeg",NA,"SUPTM05489"
"112",1689005426571,"10/07/2023 16:10:26",1689009026571,1,"10/07/2023 18:10:26",137495,33,"task-9nhz",NA,30599811,9085338,NA,"complete",NA,NA,"computer","Desktop or Laptop","Windows 10","Chrome 114.0.0.0","1536x864","1536x714",NA,NA,NA,"JV Task P3 (Updated)",4,"Anxious",132,"In",NA,2,"BCADKEJFIGH",NA,NA,"A (JV first)",NA,NA,"SS1","SS1",15,"V","Fixation","68owkj",2,"continue","",966.270000000019,966.270000000019,966.270000000019,966.270000000019,966.270000000019,966.270000000019,1,966.270000000019,0,0,NA,"Fixation Timing","Fixation",1,"object-21","V","CFD-WF-024-003-H.jpeg",NA,"SUPTM05489"
"113",1689005450426,"10/07/2023 16:10:50",1689009050426,1,"10/07/2023 18:10:50",137495,33,"task-9nhz",NA,30599811,9085338,NA,"complete",NA,NA,"computer","Desktop or Laptop","Windows 10","Chrome 114.0.0.0","1536x864","1536x714",NA,NA,NA,"JV Task P3 (Updated)",4,"Anxious",132,"In",NA,2,"BCADKEJFIGH",NA,NA,"A (JV first)",NA,NA,"SS1","SS1",16,"V","Valence","xyoebq",1,"continue","",23855.7570000477,23853.348,23855.7570000477,23855.7570000477,23853.348,23855.7570000477,1,23855.7570000477,0,0,NA,"Click To Continue","Continue Button",1,"object-25","V","CFD-WF-011-002-N.jpg",NA,"SUPTM05489"
"114",1689005450428,"10/07/2023 16:10:50",1689009050428,1,"10/07/2023 18:10:50",137495,33,"task-9nhz",NA,30599811,9085338,NA,"complete",NA,NA,"computer","Desktop or Laptop","Windows 10","Chrome 114.0.0.0","1536x864","1536x714",NA,NA,NA,"JV Task P3 (Updated)",4,"Anxious",132,"In",NA,2,"BCADKEJFIGH",NA,NA,"A (JV first)",NA,NA,"SS1","SS1",16,"V","Valence","xyoebq",1,"response","43",23187.346,23853.348,23857.657000143,23187.346,23853.348,23857.657000143,1,23187.346,670.311000143061,0,NA,"Slider","J",3,"object-27","V","CFD-WF-011-002-N.jpg",NA,"SUPTM05489"
"115",1689005451391,"10/07/2023 16:10:51",1689009051391,1,"10/07/2023 18:10:51",137495,33,"task-9nhz",NA,30599811,9085338,NA,"complete",NA,NA,"computer","Desktop or Laptop","Windows 10","Chrome 114.0.0.0","1536x864","1536x714",NA,NA,NA,"JV Task P3 (Updated)",4,"Anxious",132,"In",NA,2,"BCADKEJFIGH",NA,NA,"A (JV first)",NA,NA,"SS1","SS1",16,"V","Fixation","68owkj",2,"continue","",966.311999999976,966.311999999976,966.311999999976,966.311999999976,966.311999999976,966.311999999976,1,966.311999999976,0,0,NA,"Fixation Timing","Fixation",1,"object-21","V","CFD-WF-011-002-N.jpg",NA,"SUPTM05489"
"116",1689005455969,"10/07/2023 16:10:55",1689009055969,1,"10/07/2023 18:10:55",137495,33,"task-9nhz",NA,30599811,9085338,NA,"complete",NA,NA,"computer","Desktop or Laptop","Windows 10","Chrome 114.0.0.0","1536x864","1536x714",NA,NA,NA,"JV Task P3 (Updated)",4,"Anxious",132,"In",NA,2,"BCADKEJFIGH",NA,NA,"A (JV first)",NA,NA,"SS1","SS1",23,"J","Judginess","y8ii7g",1,"continue","",4578.69699995231,4564.01899999997,4578.69699995231,4578.69699995231,4564.01899999997,4578.69699995231,1,4578.69699995231,0,0,NA,"Click To Continue","Continue Button",1,"object-14","J","CFD-AF-233-190-N.jpg",NA,"SUPTM05489"
"117",1689005455969,"10/07/2023 16:10:55",1689009055969,1,"10/07/2023 18:10:55",137495,33,"task-9nhz",NA,30599811,9085338,NA,"complete",NA,NA,"computer","Desktop or Laptop","Windows 10","Chrome 114.0.0.0","1536x864","1536x714",NA,NA,NA,"JV Task P3 (Updated)",4,"Anxious",132,"In",NA,2,"BCADKEJFIGH",NA,NA,"A (JV first)",NA,NA,"SS1","SS1",23,"J","Judginess","y8ii7g",1,"response","66",2482.07299999997,4564.01899999997,4578.99700014305,2482.07299999997,4564.01899999997,4578.99700014305,1,2482.07299999997,2096.92400014307,0,NA,"Slider","J",3,"object-18","J","CFD-AF-233-190-N.jpg",NA,"SUPTM05489"
"118",1689005456921,"10/07/2023 16:10:56",1689009056921,1,"10/07/2023 18:10:56",137495,33,"task-9nhz",NA,30599811,9085338,NA,"complete",NA,NA,"computer","Desktop or Laptop","Windows 10","Chrome 114.0.0.0","1536x864","1536x714",NA,NA,NA,"JV Task P3 (Updated)",4,"Anxious",132,"In",NA,2,"BCADKEJFIGH",NA,NA,"A (JV first)",NA,NA,"SS1","SS1",23,"J","Fixation","w9zir9",2,"continue","",966.088000000047,966.088000000047,966.088000000047,966.088000000047,966.088000000047,966.088000000047,1,966.088000000047,0,0,NA,"Fixation Timing","Fixation",1,"object-65","J","CFD-AF-233-190-N.jpg",NA,"SUPTM05489"
"119",1689005460711,"10/07/2023 16:11:00",1689009060711,1,"10/07/2023 18:11:00",137495,33,"task-9nhz",NA,30599811,9085338,NA,"complete",NA,NA,"computer","Desktop or Laptop","Windows 10","Chrome 114.0.0.0","1536x864","1536x714",NA,NA,NA,"JV Task P3 (Updated)",4,"Anxious",132,"In",NA,2,"BCADKEJFIGH",NA,NA,"A (JV first)",NA,NA,"SS1","SS1",24,"J","Judginess","y8ii7g",1,"continue","",3790.39000014303,3781.56399999995,3790.39000014303,3790.39000014303,3781.56399999995,3790.39000014303,1,3790.39000014303,0,0,NA,"Click To Continue","Continue Button",1,"object-14","J","CFD-AF-211-066-H.jpeg",NA,"SUPTM05489"
"120",1689005460713,"10/07/2023 16:11:00",1689009060713,1,"10/07/2023 18:11:00",137495,33,"task-9nhz",NA,30599811,9085338,NA,"complete",NA,NA,"computer","Desktop or Laptop","Windows 10","Chrome 114.0.0.0","1536x864","1536x714",NA,NA,NA,"JV Task P3 (Updated)",4,"Anxious",132,"In",NA,2,"BCADKEJFIGH",NA,NA,"A (JV first)",NA,NA,"SS1","SS1",24,"J","Judginess","y8ii7g",1,"response","65",2298.79099999997,3781.56399999995,3792.39000014303,2298.79099999997,3781.56399999995,3792.39000014303,1,2298.79099999997,1493.59900014306,0,NA,"Slider","J",3,"object-18","J","CFD-AF-211-066-H.jpeg",NA,"SUPTM05489"
"121",1689005461669,"10/07/2023 16:11:01",1689009061669,1,"10/07/2023 18:11:01",137495,33,"task-9nhz",NA,30599811,9085338,NA,"complete",NA,NA,"computer","Desktop or Laptop","Windows 10","Chrome 114.0.0.0","1536x864","1536x714",NA,NA,NA,"JV Task P3 (Updated)",4,"Anxious",132,"In",NA,2,"BCADKEJFIGH",NA,NA,"A (JV first)",NA,NA,"SS1","SS1",24,"J","Fixation","w9zir9",2,"continue","",966.146000000008,966.146000000008,966.146000000008,966.146000000008,966.146000000008,966.146000000008,1,966.146000000008,0,0,NA,"Fixation Timing","Fixation",1,"object-65","J","CFD-AF-211-066-H.jpeg",NA,"SUPTM05489"
"122",1689005478776,"10/07/2023 16:11:18",1689009078776,1,"10/07/2023 18:11:18",137495,33,"task-9nhz",NA,30599811,9085338,NA,"complete",NA,NA,"computer","Desktop or Laptop","Windows 10","Chrome 114.0.0.0","1536x864","1536x714",NA,NA,NA,"JV Task P3 (Updated)",4,"Anxious",132,"In",NA,2,"BCADKEJFIGH",NA,NA,"A (JV first)",NA,NA,"SS1","SS1",25,"J","Judginess","y8ii7g",1,"continue","",17098.9800000954,17090.576,17098.9800000954,17098.9800000954,17090.576,17098.9800000954,1,17098.9800000954,0,0,NA,"Click To Continue","Continue Button",1,"object-14","J","CFD-WF-035-024-S.jpeg",NA,"SUPTM05489"
"123",1689005478778,"10/07/2023 16:11:18",1689009078778,1,"10/07/2023 18:11:18",137495,33,"task-9nhz",NA,30599811,9085338,NA,"complete",NA,NA,"computer","Desktop or Laptop","Windows 10","Chrome 114.0.0.0","1536x864","1536x714",NA,NA,NA,"JV Task P3 (Updated)",4,"Anxious",132,"In",NA,2,"BCADKEJFIGH",NA,NA,"A (JV first)",NA,NA,"SS1","SS1",25,"J","Judginess","y8ii7g",1,"response","40",10144.075,17090.576,17101.1800001431,10144.075,17090.576,17101.1800001431,1,10144.075,6957.10500014306,0,NA,"Slider","J",3,"object-18","J","CFD-WF-035-024-S.jpeg",NA,"SUPTM05489"
"124",1689005479734,"10/07/2023 16:11:19",1689009079734,1,"10/07/2023 18:11:19",137495,33,"task-9nhz",NA,30599811,9085338,NA,"complete",NA,NA,"computer","Desktop or Laptop","Windows 10","Chrome 114.0.0.0","1536x864","1536x714",NA,NA,NA,"JV Task P3 (Updated)",4,"Anxious",132,"In",NA,2,"BCADKEJFIGH",NA,NA,"A (JV first)",NA,NA,"SS1","SS1",25,"J","Fixation","w9zir9",2,"continue","",966.161000000022,966.161000000022,966.161000000022,966.161000000022,966.161000000022,966.161000000022,1,966.161000000022,0,0,NA,"Fixation Timing","Fixation",1,"object-65","J","CFD-WF-035-024-S.jpeg",NA,"SUPTM05489"
"125",1689005484284,"10/07/2023 16:11:24",1689009084284,1,"10/07/2023 18:11:24",137495,33,"task-9nhz",NA,30599811,9085338,NA,"complete",NA,NA,"computer","Desktop or Laptop","Windows 10","Chrome 114.0.0.0","1536x864","1536x714",NA,NA,NA,"JV Task P3 (Updated)",4,"Anxious",132,"In",NA,2,"BCADKEJFIGH",NA,NA,"A (JV first)",NA,NA,"SS1","SS1",17,"V","Valence","xyoebq",1,"continue","",4550.14299995231,4547.20699999999,4550.14299995231,4550.14299995231,4547.20699999999,4550.14299995231,1,4550.14299995231,0,0,NA,"Click To Continue","Continue Button",1,"object-25","V","CFD-BF-040-003-N.jpg",NA,"SUPTM05489"
"126",1689005484284,"10/07/2023 16:11:24",1689009084284,1,"10/07/2023 18:11:24",137495,33,"task-9nhz",NA,30599811,9085338,NA,"complete",NA,NA,"computer","Desktop or Laptop","Windows 10","Chrome 114.0.0.0","1536x864","1536x714",NA,NA,NA,"JV Task P3 (Updated)",4,"Anxious",132,"In",NA,2,"BCADKEJFIGH",NA,NA,"A (JV first)",NA,NA,"SS1","SS1",17,"V","Valence","xyoebq",1,"response","42",3964.462,4547.20699999999,4550.24300009536,3964.462,4547.20699999999,4550.24300009536,1,3964.462,585.781000095361,0,NA,"Slider","J",3,"object-27","V","CFD-BF-040-003-N.jpg",NA,"SUPTM05489"
"127",1689005485247,"10/07/2023 16:11:25",1689009085247,1,"10/07/2023 18:11:25",137495,33,"task-9nhz",NA,30599811,9085338,NA,"complete",NA,NA,"computer","Desktop or Laptop","Windows 10","Chrome 114.0.0.0","1536x864","1536x714",NA,NA,NA,"JV Task P3 (Updated)",4,"Anxious",132,"In",NA,2,"BCADKEJFIGH",NA,NA,"A (JV first)",NA,NA,"SS1","SS1",17,"V","Fixation","68owkj",2,"continue","",966.083999999973,966.083999999973,966.083999999973,966.083999999973,966.083999999973,966.083999999973,1,966.083999999973,0,0,NA,"Fixation Timing","Fixation",1,"object-21","V","CFD-BF-040-003-N.jpg",NA,"SUPTM05489"
"128",1689005489955,"10/07/2023 16:11:29",1689009089955,1,"10/07/2023 18:11:29",137495,33,"task-9nhz",NA,30599811,9085338,NA,"complete",NA,NA,"computer","Desktop or Laptop","Windows 10","Chrome 114.0.0.0","1536x864","1536x714",NA,NA,NA,"JV Task P3 (Updated)",4,"Anxious",132,"In",NA,2,"BCADKEJFIGH",NA,NA,"A (JV first)",NA,NA,"SS1","SS1",26,"J","Judginess","y8ii7g",1,"continue","",4707.65200014308,4697.45600000001,4707.65200014308,4707.65200014308,4697.45600000001,4707.65200014308,1,4707.65200014308,0,0,NA,"Click To Continue","Continue Button",1,"object-14","J","CFD-MF-315-002-H.jpeg",NA,"SUPTM05489"
"129",1689005489957,"10/07/2023 16:11:29",1689009089957,1,"10/07/2023 18:11:29",137495,33,"task-9nhz",NA,30599811,9085338,NA,"complete",NA,NA,"computer","Desktop or Laptop","Windows 10","Chrome 114.0.0.0","1536x864","1536x714",NA,NA,NA,"JV Task P3 (Updated)",4,"Anxious",132,"In",NA,2,"BCADKEJFIGH",NA,NA,"A (JV first)",NA,NA,"SS1","SS1",26,"J","Judginess","y8ii7g",1,"response","72",3448.20600000001,4697.45600000001,4710.15200014308,3448.20600000001,4697.45600000001,4710.15200014308,1,3448.20600000001,1261.94600014307,0,NA,"Slider","J",3,"object-18","J","CFD-MF-315-002-H.jpeg",NA,"SUPTM05489"
"130",1689005490911,"10/07/2023 16:11:30",1689009090911,1,"10/07/2023 18:11:30",137495,33,"task-9nhz",NA,30599811,9085338,NA,"complete",NA,NA,"computer","Desktop or Laptop","Windows 10","Chrome 114.0.0.0","1536x864","1536x714",NA,NA,NA,"JV Task P3 (Updated)",4,"Anxious",132,"In",NA,2,"BCADKEJFIGH",NA,NA,"A (JV first)",NA,NA,"SS1","SS1",26,"J","Fixation","w9zir9",2,"continue","",966.409000000043,966.409000000043,966.409000000043,966.409000000043,966.409000000043,966.409000000043,1,966.409000000043,0,0,NA,"Fixation Timing","Fixation",1,"object-65","J","CFD-MF-315-002-H.jpeg",NA,"SUPTM05489"
"131",1689005496296,"10/07/2023 16:11:36",1689009096296,1,"10/07/2023 18:11:36",137495,33,"task-9nhz",NA,30599811,9085338,NA,"complete",NA,NA,"computer","Desktop or Laptop","Windows 10","Chrome 114.0.0.0","1536x864","1536x714",NA,NA,NA,"JV Task P3 (Updated)",4,"Anxious",132,"In",NA,2,"BCADKEJFIGH",NA,NA,"A (JV first)",NA,NA,"SS1","SS1",27,"J","Judginess","y8ii7g",1,"continue","",5385.18699999998,5380.39499999996,5385.18699999998,5385.18699999998,5380.39499999996,5385.18699999998,1,5385.18699999998,0,0,NA,"Click To Continue","Continue Button",1,"object-14","J","CFD-AM-220-134-N.jpg",NA,"SUPTM05489"
"132",1689005496296,"10/07/2023 16:11:36",1689009096296,1,"10/07/2023 18:11:36",137495,33,"task-9nhz",NA,30599811,9085338,NA,"complete",NA,NA,"computer","Desktop or Laptop","Windows 10","Chrome 114.0.0.0","1536x864","1536x714",NA,NA,NA,"JV Task P3 (Updated)",4,"Anxious",132,"In",NA,2,"BCADKEJFIGH",NA,NA,"A (JV first)",NA,NA,"SS1","SS1",27,"J","Judginess","y8ii7g",1,"response","56",4247.46499999997,5380.39499999996,5385.48699995229,4247.46499999997,5380.39499999996,5385.48699995229,1,4247.46499999997,1138.02199995233,0,NA,"Slider","J",3,"object-18","J","CFD-AM-220-134-N.jpg",NA,"SUPTM05489"
"133",1689005497259,"10/07/2023 16:11:37",1689009097259,1,"10/07/2023 18:11:37",137495,33,"task-9nhz",NA,30599811,9085338,NA,"complete",NA,NA,"computer","Desktop or Laptop","Windows 10","Chrome 114.0.0.0","1536x864","1536x714",NA,NA,NA,"JV Task P3 (Updated)",4,"Anxious",132,"In",NA,2,"BCADKEJFIGH",NA,NA,"A (JV first)",NA,NA,"SS1","SS1",27,"J","Fixation","w9zir9",2,"continue","",966.170000000042,966.170000000042,966.170000000042,966.170000000042,966.170000000042,966.170000000042,1,966.170000000042,0,0,NA,"Fixation Timing","Fixation",1,"object-65","J","CFD-AM-220-134-N.jpg",NA,"SUPTM05489"
"134",1689005500765,"10/07/2023 16:11:40",1689009100765,1,"10/07/2023 18:11:40",137495,33,"task-9nhz",NA,30599811,9085338,NA,"complete",NA,NA,"computer","Desktop or Laptop","Windows 10","Chrome 114.0.0.0","1536x864","1536x714",NA,NA,NA,"JV Task P3 (Updated)",4,"Anxious",132,"In",NA,2,"BCADKEJFIGH",NA,NA,"A (JV first)",NA,NA,"SS1","SS1",28,"J","Judginess","y8ii7g",1,"continue","",3507.62199999997,3498.05299999996,3507.62199999997,3507.62199999997,3498.05299999996,3507.62199999997,1,3507.62199999997,0,0,NA,"Click To Continue","Continue Button",1,"object-14","J","CFD-WF-031-027-N.jpg",NA,"SUPTM05489"
"135",1689005500767,"10/07/2023 16:11:40",1689009100767,1,"10/07/2023 18:11:40",137495,33,"task-9nhz",NA,30599811,9085338,NA,"complete",NA,NA,"computer","Desktop or Laptop","Windows 10","Chrome 114.0.0.0","1536x864","1536x714",NA,NA,NA,"JV Task P3 (Updated)",4,"Anxious",132,"In",NA,2,"BCADKEJFIGH",NA,NA,"A (JV first)",NA,NA,"SS1","SS1",28,"J","Judginess","y8ii7g",1,"response","64",2748.55799999996,3498.05299999996,3509.32200004766,2748.55799999996,3498.05299999996,3509.32200004766,1,2748.55799999996,760.764000047697,0,NA,"Slider","J",3,"object-18","J","CFD-WF-031-027-N.jpg",NA,"SUPTM05489"
"136",1689005501722,"10/07/2023 16:11:41",1689009101722,1,"10/07/2023 18:11:41",137495,33,"task-9nhz",NA,30599811,9085338,NA,"complete",NA,NA,"computer","Desktop or Laptop","Windows 10","Chrome 114.0.0.0","1536x864","1536x714",NA,NA,NA,"JV Task P3 (Updated)",4,"Anxious",132,"In",NA,2,"BCADKEJFIGH",NA,NA,"A (JV first)",NA,NA,"SS1","SS1",28,"J","Fixation","w9zir9",2,"continue","",966.140000000014,966.140000000014,966.140000000014,966.140000000014,966.140000000014,966.140000000014,1,966.140000000014,0,0,NA,"Fixation Timing","Fixation",1,"object-65","J","CFD-WF-031-027-N.jpg",NA,"SUPTM05489"
"137",1689005507203,"10/07/2023 16:11:47",1689009107203,1,"10/07/2023 18:11:47",137495,33,"task-9nhz",NA,30599811,9085338,NA,"complete",NA,NA,"computer","Desktop or Laptop","Windows 10","Chrome 114.0.0.0","1536x864","1536x714",NA,NA,NA,"JV Task P3 (Updated)",4,"Anxious",132,"In",NA,2,"BCADKEJFIGH",NA,NA,"A (JV first)",NA,NA,"SS1","SS1",18,"V","Valence","xyoebq",1,"continue","",5479.89000000001,5463.44500000001,5479.89000000001,5479.89000000001,5463.44500000001,5479.89000000001,1,5479.89000000001,0,0,NA,"Click To Continue","Continue Button",1,"object-25","V","CFD-IF-734-108-S.jpeg",NA,"SUPTM05489"
"138",1689005507203,"10/07/2023 16:11:47",1689009107203,1,"10/07/2023 18:11:47",137495,33,"task-9nhz",NA,30599811,9085338,NA,"complete",NA,NA,"computer","Desktop or Laptop","Windows 10","Chrome 114.0.0.0","1536x864","1536x714",NA,NA,NA,"JV Task P3 (Updated)",4,"Anxious",132,"In",NA,2,"BCADKEJFIGH",NA,NA,"A (JV first)",NA,NA,"SS1","SS1",18,"V","Valence","xyoebq",1,"response","49",4147.72999999998,5463.44500000001,5479.89000000001,4147.72999999998,5463.44500000001,5479.89000000001,1,4147.72999999998,1332.16000000003,0,NA,"Slider","J",3,"object-27","V","CFD-IF-734-108-S.jpeg",NA,"SUPTM05489"
"139",1689005508152,"10/07/2023 16:11:48",1689009108152,1,"10/07/2023 18:11:48",137495,33,"task-9nhz",NA,30599811,9085338,NA,"complete",NA,NA,"computer","Desktop or Laptop","Windows 10","Chrome 114.0.0.0","1536x864","1536x714",NA,NA,NA,"JV Task P3 (Updated)",4,"Anxious",132,"In",NA,2,"BCADKEJFIGH",NA,NA,"A (JV first)",NA,NA,"SS1","SS1",18,"V","Fixation","68owkj",2,"continue","",966.287000000011,966.287000000011,966.287000000011,966.287000000011,966.287000000011,966.287000000011,1,966.287000000011,0,0,NA,"Fixation Timing","Fixation",1,"object-21","V","CFD-IF-734-108-S.jpeg",NA,"SUPTM05489"
"140",1689005514287,"10/07/2023 16:11:54",1689009114287,1,"10/07/2023 18:11:54",137495,33,"task-9nhz",NA,30599811,9085338,NA,"complete",NA,NA,"computer","Desktop or Laptop","Windows 10","Chrome 114.0.0.0","1536x864","1536x714",NA,NA,NA,"JV Task P3 (Updated)",4,"Anxious",132,"In",NA,2,"BCADKEJFIGH",NA,NA,"A (JV first)",NA,NA,"SS1","SS1",29,"J","Judginess","y8ii7g",1,"continue","",6135.79700014304,6130.10499999998,6135.79700014304,6135.79700014304,6130.10499999998,6135.79700014304,1,6135.79700014304,0,0,NA,"Click To Continue","Continue Button",1,"object-14","J","CFD-IF-734-108-N.jpg",NA,"SUPTM05489"
"141",1689005514289,"10/07/2023 16:11:54",1689009114289,1,"10/07/2023 18:11:54",137495,33,"task-9nhz",NA,30599811,9085338,NA,"complete",NA,NA,"computer","Desktop or Laptop","Windows 10","Chrome 114.0.0.0","1536x864","1536x714",NA,NA,NA,"JV Task P3 (Updated)",4,"Anxious",132,"In",NA,2,"BCADKEJFIGH",NA,NA,"A (JV first)",NA,NA,"SS1","SS1",29,"J","Judginess","y8ii7g",1,"response","59",3031.44799999997,6130.10499999998,6138.09700009535,3031.44799999997,6130.10499999998,6138.09700009535,1,3031.44799999997,3106.64900009538,0,NA,"Slider","J",3,"object-18","J","CFD-IF-734-108-N.jpg",NA,"SUPTM05489"
"142",1689005515248,"10/07/2023 16:11:55",1689009115248,1,"10/07/2023 18:11:55",137495,33,"task-9nhz",NA,30599811,9085338,NA,"complete",NA,NA,"computer","Desktop or Laptop","Windows 10","Chrome 114.0.0.0","1536x864","1536x714",NA,NA,NA,"JV Task P3 (Updated)",4,"Anxious",132,"In",NA,2,"BCADKEJFIGH",NA,NA,"A (JV first)",NA,NA,"SS1","SS1",29,"J","Fixation","w9zir9",2,"continue","",966.053000000014,966.053000000014,966.053000000014,966.053000000014,966.053000000014,966.053000000014,1,966.053000000014,0,0,NA,"Fixation Timing","Fixation",1,"object-65","J","CFD-IF-734-108-N.jpg",NA,"SUPTM05489"
"143",1689005520462,"10/07/2023 16:12:00",1689009120462,1,"10/07/2023 18:12:00",137495,33,"task-9nhz",NA,30599811,9085338,NA,"complete",NA,NA,"computer","Desktop or Laptop","Windows 10","Chrome 114.0.0.0","1536x864","1536x714",NA,NA,NA,"JV Task P3 (Updated)",4,"Anxious",132,"In",NA,2,"BCADKEJFIGH",NA,NA,"A (JV first)",NA,NA,"SS1","SS1",30,"J","Judginess","y8ii7g",1,"continue","",5214.09600000002,5197.17300000001,5214.09600000002,5214.09600000002,5197.17300000001,5214.09600000002,1,5214.09600000002,0,0,NA,"Click To Continue","Continue Button",1,"object-14","J","CFD-WF-035-024-H.jpeg",NA,"SUPTM05489"
"144",1689005520462,"10/07/2023 16:12:00",1689009120462,1,"10/07/2023 18:12:00",137495,33,"task-9nhz",NA,30599811,9085338,NA,"complete",NA,NA,"computer","Desktop or Laptop","Windows 10","Chrome 114.0.0.0","1536x864","1536x714",NA,NA,NA,"JV Task P3 (Updated)",4,"Anxious",132,"In",NA,2,"BCADKEJFIGH",NA,NA,"A (JV first)",NA,NA,"SS1","SS1",30,"J","Judginess","y8ii7g",1,"response","69",2415.03399999999,5197.17300000001,5214.09600000002,2415.03399999999,5197.17300000001,5214.09600000002,1,2415.03399999999,2799.06200000003,0,NA,"Slider","J",3,"object-18","J","CFD-WF-035-024-H.jpeg",NA,"SUPTM05489"
"145",1689005521411,"10/07/2023 16:12:01",1689009121411,1,"10/07/2023 18:12:01",137495,33,"task-9nhz",NA,30599811,9085338,NA,"complete",NA,NA,"computer","Desktop or Laptop","Windows 10","Chrome 114.0.0.0","1536x864","1536x714",NA,NA,NA,"JV Task P3 (Updated)",4,"Anxious",132,"In",NA,2,"BCADKEJFIGH",NA,NA,"A (JV first)",NA,NA,"SS1","SS1",30,"J","Fixation","w9zir9",2,"continue","",966.247999999963,966.247999999963,966.247999999963,966.247999999963,966.247999999963,966.247999999963,1,966.247999999963,0,0,NA,"Fixation Timing","Fixation",1,"object-65","J","CFD-WF-035-024-H.jpeg",NA,"SUPTM05489"
"146",1689005528633,"10/07/2023 16:12:08",1689009128633,1,"10/07/2023 18:12:08",137495,33,"task-9nhz",NA,30599811,9085338,NA,"complete",NA,NA,"computer","Desktop or Laptop","Windows 10","Chrome 114.0.0.0","1536x864","1536x714",NA,NA,NA,"JV Task P3 (Updated)",4,"Anxious",132,"In",NA,2,"BCADKEJFIGH",NA,NA,"A (JV first)",NA,NA,"SS1","SS1",31,"J","Judginess","y8ii7g",1,"continue","",7214.41799995233,7212.25400000002,7214.41799995233,7214.41799995233,7212.25400000002,7214.41799995233,1,7214.41799995233,0,0,NA,"Click To Continue","Continue Button",1,"object-14","J","CFD-AM-225-102-S.jpeg",NA,"SUPTM05489"
"147",1689005528636,"10/07/2023 16:12:08",1689009128636,1,"10/07/2023 18:12:08",137495,33,"task-9nhz",NA,30599811,9085338,NA,"complete",NA,NA,"computer","Desktop or Laptop","Windows 10","Chrome 114.0.0.0","1536x864","1536x714",NA,NA,NA,"JV Task P3 (Updated)",4,"Anxious",132,"In",NA,2,"BCADKEJFIGH",NA,NA,"A (JV first)",NA,NA,"SS1","SS1",31,"J","Judginess","y8ii7g",1,"response","58",5629.92999999999,7212.25400000002,7217.11800000002,5629.92999999999,7212.25400000002,7217.11800000002,1,5629.92999999999,1587.18800000002,0,NA,"Slider","J",3,"object-18","J","CFD-AM-225-102-S.jpeg",NA,"SUPTM05489"
"148",1689005529598,"10/07/2023 16:12:09",1689009129598,1,"10/07/2023 18:12:09",137495,33,"task-9nhz",NA,30599811,9085338,NA,"complete",NA,NA,"computer","Desktop or Laptop","Windows 10","Chrome 114.0.0.0","1536x864","1536x714",NA,NA,NA,"JV Task P3 (Updated)",4,"Anxious",132,"In",NA,2,"BCADKEJFIGH",NA,NA,"A (JV first)",NA,NA,"SS1","SS1",31,"J","Fixation","w9zir9",2,"continue","",966.155000000028,966.155000000028,966.155000000028,966.155000000028,966.155000000028,966.155000000028,1,966.155000000028,0,0,NA,"Fixation Timing","Fixation",1,"object-65","J","CFD-AM-225-102-S.jpeg",NA,"SUPTM05489"
"149",1689005540484,"10/07/2023 16:12:20",1689009140484,1,"10/07/2023 18:12:20",137495,33,"task-9nhz",NA,30599811,9085338,NA,"complete",NA,NA,"computer","Desktop or Laptop","Windows 10","Chrome 114.0.0.0","1536x864","1536x714",NA,NA,NA,"JV Task P3 (Updated)",4,"Anxious",132,"In",NA,2,"BCADKEJFIGH",NA,NA,"A (JV first)",NA,NA,"SS1","SS1",32,"J","Judginess","y8ii7g",1,"continue","",10886.809000143,10877.403,10886.809000143,10886.809000143,10877.403,10886.809000143,1,10886.809000143,0,0,NA,"Click To Continue","Continue Button",1,"object-14","J","CFD-BF-040-003-H.jpeg",NA,"SUPTM05489"
"150",1689005540486,"10/07/2023 16:12:20",1689009140486,1,"10/07/2023 18:12:20",137495,33,"task-9nhz",NA,30599811,9085338,NA,"complete",NA,NA,"computer","Desktop or Laptop","Windows 10","Chrome 114.0.0.0","1536x864","1536x714",NA,NA,NA,"JV Task P3 (Updated)",4,"Anxious",132,"In",NA,2,"BCADKEJFIGH",NA,NA,"A (JV first)",NA,NA,"SS1","SS1",32,"J","Judginess","y8ii7g",1,"response","54",9344.89399999997,10877.403,10888.5089999523,9344.89399999997,10877.403,10888.5089999523,1,9344.89399999997,1543.61499995232,0,NA,"Slider","J",3,"object-18","J","CFD-BF-040-003-H.jpeg",NA,"SUPTM05489"
"151",1689005541441,"10/07/2023 16:12:21",1689009141441,1,"10/07/2023 18:12:21",137495,33,"task-9nhz",NA,30599811,9085338,NA,"complete",NA,NA,"computer","Desktop or Laptop","Windows 10","Chrome 114.0.0.0","1536x864","1536x714",NA,NA,NA,"JV Task P3 (Updated)",4,"Anxious",132,"In",NA,2,"BCADKEJFIGH",NA,NA,"A (JV first)",NA,NA,"SS1","SS1",32,"J","Fixation","w9zir9",2,"continue","",966.119999999995,966.119999999995,966.119999999995,966.119999999995,966.119999999995,966.119999999995,1,966.119999999995,0,0,NA,"Fixation Timing","Fixation",1,"object-65","J","CFD-BF-040-003-H.jpeg",NA,"SUPTM05489"
"152",1689005544795,"10/07/2023 16:12:24",1689009144795,1,"10/07/2023 18:12:24",137495,33,"task-9nhz",NA,30599811,9085338,NA,"complete",NA,NA,"computer","Desktop or Laptop","Windows 10","Chrome 114.0.0.0","1536x864","1536x714",NA,NA,NA,"JV Task P3 (Updated)",4,"Anxious",132,"In",NA,2,"BCADKEJFIGH",NA,NA,"A (JV first)",NA,NA,"SS1","SS1",33,"J","Judginess","y8ii7g",1,"continue","",3353.9859999523,3348.44399999996,3353.9859999523,3353.9859999523,3348.44399999996,3353.9859999523,1,3353.9859999523,0,0,NA,"Click To Continue","Continue Button",1,"object-14","J","CFD-WF-031-027-N.jpg",NA,"SUPTM05489"
"153",1689005544795,"10/07/2023 16:12:24",1689009144795,1,"10/07/2023 18:12:24",137495,33,"task-9nhz",NA,30599811,9085338,NA,"complete",NA,NA,"computer","Desktop or Laptop","Windows 10","Chrome 114.0.0.0","1536x864","1536x714",NA,NA,NA,"JV Task P3 (Updated)",4,"Anxious",132,"In",NA,2,"BCADKEJFIGH",NA,NA,"A (JV first)",NA,NA,"SS1","SS1",33,"J","Judginess","y8ii7g",1,"response","60",2182.48199999996,3348.44399999996,3354.38600004767,2182.48199999996,3348.44399999996,3354.38600004767,1,2182.48199999996,1171.90400004771,0,NA,"Slider","J",3,"object-18","J","CFD-WF-031-027-N.jpg",NA,"SUPTM05489"
"154",1689005545756,"10/07/2023 16:12:25",1689009145756,1,"10/07/2023 18:12:25",137495,33,"task-9nhz",NA,30599811,9085338,NA,"complete",NA,NA,"computer","Desktop or Laptop","Windows 10","Chrome 114.0.0.0","1536x864","1536x714",NA,NA,NA,"JV Task P3 (Updated)",4,"Anxious",132,"In",NA,2,"BCADKEJFIGH",NA,NA,"A (JV first)",NA,NA,"SS1","SS1",33,"J","Fixation","w9zir9",2,"continue","",966.239000000001,966.239000000001,966.239000000001,966.239000000001,966.239000000001,966.239000000001,1,966.239000000001,0,0,NA,"Fixation Timing","Fixation",1,"object-65","J","CFD-WF-031-027-N.jpg",NA,"SUPTM05489"
"155",1689005550080,"10/07/2023 16:12:30",1689009150080,1,"10/07/2023 18:12:30",137495,33,"task-9nhz",NA,30599811,9085338,NA,"complete",NA,NA,"computer","Desktop or Laptop","Windows 10","Chrome 114.0.0.0","1536x864","1536x714",NA,NA,NA,"JV Task P3 (Updated)",4,"Anxious",132,"In",NA,2,"BCADKEJFIGH",NA,NA,"A (JV first)",NA,NA,"SS1","SS1",34,"J","Judginess","y8ii7g",1,"continue","",4325.00300000003,4313.92300000001,4325.00300000003,4325.00300000003,4313.92300000001,4325.00300000003,1,4325.00300000003,0,0,NA,"Click To Continue","Continue Button",1,"object-14","J","CFD-WF-035-024-N.jpg",NA,"SUPTM05489"
"156",1689005550081,"10/07/2023 16:12:30",1689009150081,1,"10/07/2023 18:12:30",137495,33,"task-9nhz",NA,30599811,9085338,NA,"complete",NA,NA,"computer","Desktop or Laptop","Windows 10","Chrome 114.0.0.0","1536x864","1536x714",NA,NA,NA,"JV Task P3 (Updated)",4,"Anxious",132,"In",NA,2,"BCADKEJFIGH",NA,NA,"A (JV first)",NA,NA,"SS1","SS1",34,"J","Judginess","y8ii7g",1,"response","41",3797.42800000001,4313.92300000001,4325.60300014308,3797.42800000001,4313.92300000001,4325.60300014308,1,3797.42800000001,528.175000143063,0,NA,"Slider","J",3,"object-18","J","CFD-WF-035-024-N.jpg",NA,"SUPTM05489"
"157",1689005551037,"10/07/2023 16:12:31",1689009151037,1,"10/07/2023 18:12:31",137495,33,"task-9nhz",NA,30599811,9085338,NA,"complete",NA,NA,"computer","Desktop or Laptop","Windows 10","Chrome 114.0.0.0","1536x864","1536x714",NA,NA,NA,"JV Task P3 (Updated)",4,"Anxious",132,"In",NA,2,"BCADKEJFIGH",NA,NA,"A (JV first)",NA,NA,"SS1","SS1",34,"J","Fixation","w9zir9",2,"continue","",966.418000000005,966.418000000005,966.418000000005,966.418000000005,966.418000000005,966.418000000005,1,966.418000000005,0,0,NA,"Fixation Timing","Fixation",1,"object-65","J","CFD-WF-035-024-N.jpg",NA,"SUPTM05489"
"158",1689005556333,"10/07/2023 16:12:36",1689009156333,1,"10/07/2023 18:12:36",137495,33,"task-9nhz",NA,30599811,9085338,NA,"complete",NA,NA,"computer","Desktop or Laptop","Windows 10","Chrome 114.0.0.0","1536x864","1536x714",NA,NA,NA,"JV Task P3 (Updated)",4,"Anxious",132,"In",NA,2,"BCADKEJFIGH",NA,NA,"A (JV first)",NA,NA,"SS1","SS1",19,"V","Valence","xyoebq",1,"continue","",5297.13500000001,5280.326,5297.13500000001,5297.13500000001,5280.326,5297.13500000001,1,5297.13500000001,0,0,NA,"Click To Continue","Continue Button",1,"object-25","V","CFD-WM-037-025-S.jpeg",NA,"SUPTM05489"
"159",1689005556333,"10/07/2023 16:12:36",1689009156333,1,"10/07/2023 18:12:36",137495,33,"task-9nhz",NA,30599811,9085338,NA,"complete",NA,NA,"computer","Desktop or Laptop","Windows 10","Chrome 114.0.0.0","1536x864","1536x714",NA,NA,NA,"JV Task P3 (Updated)",4,"Anxious",132,"In",NA,2,"BCADKEJFIGH",NA,NA,"A (JV first)",NA,NA,"SS1","SS1",19,"V","Valence","xyoebq",1,"response","31",2265.04800000001,5280.326,5297.13500000001,2265.04800000001,5280.326,5297.13500000001,1,2265.04800000001,3032.087,0,NA,"Slider","J",3,"object-27","V","CFD-WM-037-025-S.jpeg",NA,"SUPTM05489"
"160",1689005557283,"10/07/2023 16:12:37",1689009157283,1,"10/07/2023 18:12:37",137495,33,"task-9nhz",NA,30599811,9085338,NA,"complete",NA,NA,"computer","Desktop or Laptop","Windows 10","Chrome 114.0.0.0","1536x864","1536x714",NA,NA,NA,"JV Task P3 (Updated)",4,"Anxious",132,"In",NA,2,"BCADKEJFIGH",NA,NA,"A (JV first)",NA,NA,"SS1","SS1",19,"V","Fixation","68owkj",2,"continue","",966.348999999987,966.348999999987,966.348999999987,966.348999999987,966.348999999987,966.348999999987,1,966.348999999987,0,0,NA,"Fixation Timing","Fixation",1,"object-21","V","CFD-WM-037-025-S.jpeg",NA,"SUPTM05489"
"161",1689005560772,"10/07/2023 16:12:40",1689009160772,1,"10/07/2023 18:12:40",137495,33,"task-9nhz",NA,30599811,9085338,NA,"complete",NA,NA,"computer","Desktop or Laptop","Windows 10","Chrome 114.0.0.0","1536x864","1536x714",NA,NA,NA,"JV Task P3 (Updated)",4,"Anxious",132,"In",NA,2,"BCADKEJFIGH",NA,NA,"A (JV first)",NA,NA,"SS1","SS1",35,"J","Judginess","y8ii7g",1,"continue","",3489.38700009539,3480.95000000001,3489.38700009539,3489.38700009539,3480.95000000001,3489.38700009539,1,3489.38700009539,0,0,NA,"Click To Continue","Continue Button",1,"object-14","J","CFD-AF-211-066-N.jpg",NA,"SUPTM05489"
"162",1689005560772,"10/07/2023 16:12:40",1689009160772,1,"10/07/2023 18:12:40",137495,33,"task-9nhz",NA,30599811,9085338,NA,"complete",NA,NA,"computer","Desktop or Laptop","Windows 10","Chrome 114.0.0.0","1536x864","1536x714",NA,NA,NA,"JV Task P3 (Updated)",4,"Anxious",132,"In",NA,2,"BCADKEJFIGH",NA,NA,"A (JV first)",NA,NA,"SS1","SS1",35,"J","Judginess","y8ii7g",1,"response","62",2565.10600000003,3480.95000000001,3489.88700009539,2565.10600000003,3480.95000000001,3489.88700009539,1,2565.10600000003,924.781000095361,0,NA,"Slider","J",3,"object-18","J","CFD-AF-211-066-N.jpg",NA,"SUPTM05489"
"163",1689005561730,"10/07/2023 16:12:41",1689009161730,1,"10/07/2023 18:12:41",137495,33,"task-9nhz",NA,30599811,9085338,NA,"complete",NA,NA,"computer","Desktop or Laptop","Windows 10","Chrome 114.0.0.0","1536x864","1536x714",NA,NA,NA,"JV Task P3 (Updated)",4,"Anxious",132,"In",NA,2,"BCADKEJFIGH",NA,NA,"A (JV first)",NA,NA,"SS1","SS1",35,"J","Fixation","w9zir9",2,"continue","",966.429000000004,966.429000000004,966.429000000004,966.429000000004,966.429000000004,966.429000000004,1,966.429000000004,0,0,NA,"Fixation Timing","Fixation",1,"object-65","J","CFD-AF-211-066-N.jpg",NA,"SUPTM05489"
"164",1689005564537,"10/07/2023 16:12:44",1689009164537,1,"10/07/2023 18:12:44",137495,33,"task-9nhz",NA,30599811,9085338,NA,"complete",NA,NA,"computer","Desktop or Laptop","Windows 10","Chrome 114.0.0.0","1536x864","1536x714",NA,NA,NA,"JV Task P3 (Updated)",4,"Anxious",132,"In",NA,2,"BCADKEJFIGH",NA,NA,"A (JV first)",NA,NA,"SS1","SS1",20,"V","Valence","xyoebq",1,"continue","",2807.40799995232,2798.49599999998,2807.40799995232,2807.40799995232,2798.49599999998,2807.40799995232,1,2807.40799995232,0,0,NA,"Click To Continue","Continue Button",1,"object-25","V","CFD-BF-040-003-H.jpeg",NA,"SUPTM05489"
"165",1689005564537,"10/07/2023 16:12:44",1689009164537,1,"10/07/2023 18:12:44",137495,33,"task-9nhz",NA,30599811,9085338,NA,"complete",NA,NA,"computer","Desktop or Laptop","Windows 10","Chrome 114.0.0.0","1536x864","1536x714",NA,NA,NA,"JV Task P3 (Updated)",4,"Anxious",132,"In",NA,2,"BCADKEJFIGH",NA,NA,"A (JV first)",NA,NA,"SS1","SS1",20,"V","Valence","xyoebq",1,"response","72",2049.01400000002,2798.49599999998,2807.70800014306,2049.01400000002,2798.49599999998,2807.70800014306,1,2049.01400000002,758.694000143034,0,NA,"Slider","J",3,"object-27","V","CFD-BF-040-003-H.jpeg",NA,"SUPTM05489"
"166",1689005565495,"10/07/2023 16:12:45",1689009165495,1,"10/07/2023 18:12:45",137495,33,"task-9nhz",NA,30599811,9085338,NA,"complete",NA,NA,"computer","Desktop or Laptop","Windows 10","Chrome 114.0.0.0","1536x864","1536x714",NA,NA,NA,"JV Task P3 (Updated)",4,"Anxious",132,"In",NA,2,"BCADKEJFIGH",NA,NA,"A (JV first)",NA,NA,"SS1","SS1",20,"V","Fixation","68owkj",2,"continue","",966.133000000031,966.133000000031,966.133000000031,966.133000000031,966.133000000031,966.133000000031,1,966.133000000031,0,0,NA,"Fixation Timing","Fixation",1,"object-21","V","CFD-BF-040-003-H.jpeg",NA,"SUPTM05489"
"167",1689005570080,"10/07/2023 16:12:50",1689009170080,1,"10/07/2023 18:12:50",137495,33,"task-9nhz",NA,30599811,9085338,NA,"complete",NA,NA,"computer","Desktop or Laptop","Windows 10","Chrome 114.0.0.0","1536x864","1536x714",NA,NA,NA,"JV Task P3 (Updated)",4,"Anxious",132,"In",NA,2,"BCADKEJFIGH",NA,NA,"A (JV first)",NA,NA,"SS1","SS1",36,"J","Judginess","y8ii7g",1,"continue","",4585.67900004768,4580.57899999997,4585.67900004768,4585.67900004768,4580.57899999997,4585.67900004768,1,4585.67900004768,0,0,NA,"Click To Continue","Continue Button",1,"object-14","J","CFD-WM-025-002-N.jpg",NA,"SUPTM05489"
"168",1689005570081,"10/07/2023 16:12:50",1689009170081,1,"10/07/2023 18:12:50",137495,33,"task-9nhz",NA,30599811,9085338,NA,"complete",NA,NA,"computer","Desktop or Laptop","Windows 10","Chrome 114.0.0.0","1536x864","1536x714",NA,NA,NA,"JV Task P3 (Updated)",4,"Anxious",132,"In",NA,2,"BCADKEJFIGH",NA,NA,"A (JV first)",NA,NA,"SS1","SS1",36,"J","Judginess","y8ii7g",1,"response","40",3614.46299999999,4580.57899999997,4586.27899995231,3614.46299999999,4580.57899999997,4586.27899995231,1,3614.46299999999,971.81599995232,0,NA,"Slider","J",3,"object-18","J","CFD-WM-025-002-N.jpg",NA,"SUPTM05489"
