"Event.Index","UTC.Timestamp","UTC.Date.and.Time","Local.Timestamp","Local.Timezone","Local.Date.and.Time","Experiment.ID","Experiment.Version","Tree.Node.Key","Repeat.Key","Schedule.ID","Participant.Private.ID","Participant.Starting.Group","Participant.Status","Participant.Completion.Code","Participant.External.Session.ID","Participant.Device.Type","Participant.Device","Participant.OS","Participant.Browser","Participant.Monitor.Size","Participant.Viewport.Size","Checkpoint","Room.ID","Room.Order","Task.Name","Task.Version","branch.ln1a","randomiser.vzsr","branch.hkzp","randomiser.ywar","randomiser.q6ah","order.ot79","randomiser.ahe2","randomiser.ckhi","randomiser.lqqr","randomiser.pobd","randomiser.8gdj","Spreadsheet","Current.Spreadsheet","Trial.Number","Display","Screen","Screen.ID","Screen.Counter","Response.Type","Response","Onset.Time","Clock.Time","Reaction.Time","Absolute.Onset.Time","Absolute.Clock.Time","Absolute.Reaction.Time","Correct","Response.Onset","Response.Duration","Proportion","Tag","Component.Name","Object.Name","Object.Number","Object.ID","Spreadsheet..display","Spreadsheet..stimulus","Manipulation..Spreadsheet","Random_ID"
"1",1689025809012,"10/07/2023 21:50:09",1689029409012,1,"10/07/2023 23:50:09",137495,33,"task-o9u1",NA,30604302,9086484,NA,"complete",NA,NA,"computer","Desktop or Laptop","Windows 10","Edge 114.0.1823.67","1536x864","1147x603",NA,NA,NA,"JV Task P2",11,"Anxious",NA,"In",NA,NA,"HIGJFKEADBC",NA,NA,"B (MDot First)",2,321,"SS1","SS1",NA,"","","",NA,"5","BEGIN",NA,NA,NA,NA,NA,NA,0,NA,NA,NA,NA,"","",NA,"","","",NA,"SUPTM16544"
"2",1689025814635,"10/07/2023 21:50:14",1689029414635,1,"10/07/2023 23:50:14",137495,33,"task-o9u1",NA,30604302,9086484,NA,"complete",NA,NA,"computer","Desktop or Laptop","Windows 10","Edge 114.0.1823.67","1536x864","1147x603",NA,NA,NA,"JV Task P2",11,"Anxious",NA,"In",NA,NA,"HIGJFKEADBC",NA,NA,"B (MDot First)",2,321,"SS1","SS1",1,"V","Valence","xyoebq",1,"continue","",5360.53700009537,5348.829,5360.53700009537,5360.53700009537,5348.829,5360.53700009537,1,5360.53700009537,0,0,NA,"Click To Continue","Continue Button",1,"object-25","V","CFD-MF-309-002-N.jpg",NA,"SUPTM16544"
"3",1689025814636,"10/07/2023 21:50:14",1689029414636,1,"10/07/2023 23:50:14",137495,33,"task-o9u1",NA,30604302,9086484,NA,"complete",NA,NA,"computer","Desktop or Laptop","Windows 10","Edge 114.0.1823.67","1536x864","1147x603",NA,NA,NA,"JV Task P2",11,"Anxious",NA,"In",NA,NA,"HIGJFKEADBC",NA,NA,"B (MDot First)",2,321,"SS1","SS1",1,"V","Valence","xyoebq",1,"response","35",4648.924,5348.829,5361.83699980926,4648.924,5348.829,5361.83699980926,1,4648.924,712.912999809265,0,NA,"Slider","J",3,"object-27","V","CFD-MF-309-002-N.jpg",NA,"SUPTM16544"
"4",1689025815590,"10/07/2023 21:50:15",1689029415590,1,"10/07/2023 23:50:15",137495,33,"task-o9u1",NA,30604302,9086484,NA,"complete",NA,NA,"computer","Desktop or Laptop","Windows 10","Edge 114.0.1823.67","1536x864","1147x603",NA,NA,NA,"JV Task P2",11,"Anxious",NA,"In",NA,NA,"HIGJFKEADBC",NA,NA,"B (MDot First)",2,321,"SS1","SS1",1,"V","Fixation","68owkj",2,"continue","",966.534,966.534,966.534,966.534,966.534,966.534,1,966.534,0,0,NA,"Fixation Timing","Fixation",1,"object-21","V","CFD-MF-309-002-N.jpg",NA,"SUPTM16544"
"5",1689025819564,"10/07/2023 21:50:19",1689029419564,1,"10/07/2023 23:50:19",137495,33,"task-o9u1",NA,30604302,9086484,NA,"complete",NA,NA,"computer","Desktop or Laptop","Windows 10","Edge 114.0.1823.67","1536x864","1147x603",NA,NA,NA,"JV Task P2",11,"Anxious",NA,"In",NA,NA,"HIGJFKEADBC",NA,NA,"B (MDot First)",2,321,"SS1","SS1",1,"J","Judginess","y8ii7g",1,"continue","",3974.17400009537,3966.233,3974.17400009537,3974.17400009537,3966.233,3974.17400009537,1,3974.17400009537,0,0,NA,"Click To Continue","Continue Button",1,"object-14","J","CFD-IM-711-011-N.jpg",NA,"SUPTM16544"
"6",1689025819569,"10/07/2023 21:50:19",1689029419569,1,"10/07/2023 23:50:19",137495,33,"task-o9u1",NA,30604302,9086484,NA,"complete",NA,NA,"computer","Desktop or Laptop","Windows 10","Edge 114.0.1823.67","1536x864","1147x603",NA,NA,NA,"JV Task P2",11,"Anxious",NA,"In",NA,NA,"HIGJFKEADBC",NA,NA,"B (MDot First)",2,321,"SS1","SS1",1,"J","Judginess","y8ii7g",1,"response","52",1616.747,3966.233,3979.37399990463,1616.747,3966.233,3979.37399990463,1,1616.747,2362.62699990463,0,NA,"Slider","J",3,"object-18","J","CFD-IM-711-011-N.jpg",NA,"SUPTM16544"
"7",1689025820524,"10/07/2023 21:50:20",1689029420524,1,"10/07/2023 23:50:20",137495,33,"task-o9u1",NA,30604302,9086484,NA,"complete",NA,NA,"computer","Desktop or Laptop","Windows 10","Edge 114.0.1823.67","1536x864","1147x603",NA,NA,NA,"JV Task P2",11,"Anxious",NA,"In",NA,NA,"HIGJFKEADBC",NA,NA,"B (MDot First)",2,321,"SS1","SS1",1,"J","Fixation","w9zir9",2,"continue","",966.653999999999,966.653999999999,966.653999999999,966.653999999999,966.653999999999,966.653999999999,1,966.653999999999,0,0,NA,"Fixation Timing","Fixation",1,"object-65","J","CFD-IM-711-011-N.jpg",NA,"SUPTM16544"
"8",1689025822826,"10/07/2023 21:50:22",1689029422826,1,"10/07/2023 23:50:22",137495,33,"task-o9u1",NA,30604302,9086484,NA,"complete",NA,NA,"computer","Desktop or Laptop","Windows 10","Edge 114.0.1823.67","1536x864","1147x603",NA,NA,NA,"JV Task P2",11,"Anxious",NA,"In",NA,NA,"HIGJFKEADBC",NA,NA,"B (MDot First)",2,321,"SS1","SS1",2,"V","Valence","xyoebq",1,"continue","",2303.6869997139,2299.726,2303.6869997139,2303.6869997139,2299.726,2303.6869997139,1,2303.6869997139,0,0,NA,"Click To Continue","Continue Button",1,"object-25","V","CFD-WM-031-003-S.jpeg",NA,"SUPTM16544"
"9",1689025822827,"10/07/2023 21:50:22",1689029422827,1,"10/07/2023 23:50:22",137495,33,"task-o9u1",NA,30604302,9086484,NA,"complete",NA,NA,"computer","Desktop or Laptop","Windows 10","Edge 114.0.1823.67","1536x864","1147x603",NA,NA,NA,"JV Task P2",11,"Anxious",NA,"In",NA,NA,"HIGJFKEADBC",NA,NA,"B (MDot First)",2,321,"SS1","SS1",2,"V","Valence","xyoebq",1,"response","27",1533.063,2299.726,2304.387,1533.063,2299.726,2304.387,1,1533.063,771.324000000001,0,NA,"Slider","J",3,"object-27","V","CFD-WM-031-003-S.jpeg",NA,"SUPTM16544"
"10",1689025823790,"10/07/2023 21:50:23",1689029423790,1,"10/07/2023 23:50:23",137495,33,"task-o9u1",NA,30604302,9086484,NA,"complete",NA,NA,"computer","Desktop or Laptop","Windows 10","Edge 114.0.1823.67","1536x864","1147x603",NA,NA,NA,"JV Task P2",11,"Anxious",NA,"In",NA,NA,"HIGJFKEADBC",NA,NA,"B (MDot First)",2,321,"SS1","SS1",2,"V","Fixation","68owkj",2,"continue","",966.708000000001,966.708000000001,966.708000000001,966.708000000001,966.708000000001,966.708000000001,1,966.708000000001,0,0,NA,"Fixation Timing","Fixation",1,"object-21","V","CFD-WM-031-003-S.jpeg",NA,"SUPTM16544"
"11",1689025827399,"10/07/2023 21:50:27",1689029427399,1,"10/07/2023 23:50:27",137495,33,"task-o9u1",NA,30604302,9086484,NA,"complete",NA,NA,"computer","Desktop or Laptop","Windows 10","Edge 114.0.1823.67","1536x864","1147x603",NA,NA,NA,"JV Task P2",11,"Anxious",NA,"In",NA,NA,"HIGJFKEADBC",NA,NA,"B (MDot First)",2,321,"SS1","SS1",3,"V","Valence","xyoebq",1,"continue","",3610.65299980926,3599.695,3610.65299980926,3610.65299980926,3599.695,3610.65299980926,1,3610.65299980926,0,0,NA,"Click To Continue","Continue Button",1,"object-25","V","CFD-WF-036-023-H.jpeg",NA,"SUPTM16544"
"12",1689025827400,"10/07/2023 21:50:27",1689029427400,1,"10/07/2023 23:50:27",137495,33,"task-o9u1",NA,30604302,9086484,NA,"complete",NA,NA,"computer","Desktop or Laptop","Windows 10","Edge 114.0.1823.67","1536x864","1147x603",NA,NA,NA,"JV Task P2",11,"Anxious",NA,"In",NA,NA,"HIGJFKEADBC",NA,NA,"B (MDot First)",2,321,"SS1","SS1",3,"V","Valence","xyoebq",1,"response","94",2616.192,3599.695,3611.55299990463,2616.192,3599.695,3611.55299990463,1,2616.192,995.360999904631,0,NA,"Slider","J",3,"object-27","V","CFD-WF-036-023-H.jpeg",NA,"SUPTM16544"
"13",1689025828356,"10/07/2023 21:50:28",1689029428356,1,"10/07/2023 23:50:28",137495,33,"task-o9u1",NA,30604302,9086484,NA,"complete",NA,NA,"computer","Desktop or Laptop","Windows 10","Edge 114.0.1823.67","1536x864","1147x603",NA,NA,NA,"JV Task P2",11,"Anxious",NA,"In",NA,NA,"HIGJFKEADBC",NA,NA,"B (MDot First)",2,321,"SS1","SS1",3,"V","Fixation","68owkj",2,"continue","",966.558000000001,966.558000000001,966.558000000001,966.558000000001,966.558000000001,966.558000000001,1,966.558000000001,0,0,NA,"Fixation Timing","Fixation",1,"object-21","V","CFD-WF-036-023-H.jpeg",NA,"SUPTM16544"
"14",1689025833930,"10/07/2023 21:50:33",1689029433930,1,"10/07/2023 23:50:33",137495,33,"task-o9u1",NA,30604302,9086484,NA,"complete",NA,NA,"computer","Desktop or Laptop","Windows 10","Edge 114.0.1823.67","1536x864","1147x603",NA,NA,NA,"JV Task P2",11,"Anxious",NA,"In",NA,NA,"HIGJFKEADBC",NA,NA,"B (MDot First)",2,321,"SS1","SS1",2,"J","Judginess","y8ii7g",1,"continue","",5575.2,5565.988,5575.2,5575.2,5565.988,5575.2,1,5575.2,0,0,NA,"Click To Continue","Continue Button",1,"object-14","J","CFD-WM-026-001-N.jpg",NA,"SUPTM16544"
"15",1689025833945,"10/07/2023 21:50:33",1689029433945,1,"10/07/2023 23:50:33",137495,33,"task-o9u1",NA,30604302,9086484,NA,"complete",NA,NA,"computer","Desktop or Laptop","Windows 10","Edge 114.0.1823.67","1536x864","1147x603",NA,NA,NA,"JV Task P2",11,"Anxious",NA,"In",NA,NA,"HIGJFKEADBC",NA,NA,"B (MDot First)",2,321,"SS1","SS1",2,"J","Judginess","y8ii7g",1,"response","37",4749.033,5565.988,5582.607,4749.033,5565.988,5582.607,1,4749.033,833.574000000001,0,NA,"Slider","J",3,"object-18","J","CFD-WM-026-001-N.jpg",NA,"SUPTM16544"
"16",1689025834889,"10/07/2023 21:50:34",1689029434889,1,"10/07/2023 23:50:34",137495,33,"task-o9u1",NA,30604302,9086484,NA,"complete",NA,NA,"computer","Desktop or Laptop","Windows 10","Edge 114.0.1823.67","1536x864","1147x603",NA,NA,NA,"JV Task P2",11,"Anxious",NA,"In",NA,NA,"HIGJFKEADBC",NA,NA,"B (MDot First)",2,321,"SS1","SS1",2,"J","Fixation","w9zir9",2,"continue","",966.147000000001,966.147000000001,966.147000000001,966.147000000001,966.147000000001,966.147000000001,1,966.147000000001,0,0,NA,"Fixation Timing","Fixation",1,"object-65","J","CFD-WM-026-001-N.jpg",NA,"SUPTM16544"
"17",1689025840246,"10/07/2023 21:50:40",1689029440246,1,"10/07/2023 23:50:40",137495,33,"task-o9u1",NA,30604302,9086484,NA,"complete",NA,NA,"computer","Desktop or Laptop","Windows 10","Edge 114.0.1823.67","1536x864","1147x603",NA,NA,NA,"JV Task P2",11,"Anxious",NA,"In",NA,NA,"HIGJFKEADBC",NA,NA,"B (MDot First)",2,321,"SS1","SS1",4,"V","Valence","xyoebq",1,"continue","",5352.565,5349.381,5352.565,5352.565,5349.381,5352.565,1,5352.565,0,0,NA,"Click To Continue","Continue Button",1,"object-25","V","CFD-MM-313-002-S.jpeg",NA,"SUPTM16544"
"18",1689025840246,"10/07/2023 21:50:40",1689029440246,1,"10/07/2023 23:50:40",137495,33,"task-o9u1",NA,30604302,9086484,NA,"complete",NA,NA,"computer","Desktop or Laptop","Windows 10","Edge 114.0.1823.67","1536x864","1147x603",NA,NA,NA,"JV Task P2",11,"Anxious",NA,"In",NA,NA,"HIGJFKEADBC",NA,NA,"B (MDot First)",2,321,"SS1","SS1",4,"V","Valence","xyoebq",1,"response","40",4132.846,5349.381,5353.065,4132.846,5349.381,5353.065,1,4132.846,1220.219,0,NA,"Slider","J",3,"object-27","V","CFD-MM-313-002-S.jpeg",NA,"SUPTM16544"
"19",1689025841211,"10/07/2023 21:50:41",1689029441211,1,"10/07/2023 23:50:41",137495,33,"task-o9u1",NA,30604302,9086484,NA,"complete",NA,NA,"computer","Desktop or Laptop","Windows 10","Edge 114.0.1823.67","1536x864","1147x603",NA,NA,NA,"JV Task P2",11,"Anxious",NA,"In",NA,NA,"HIGJFKEADBC",NA,NA,"B (MDot First)",2,321,"SS1","SS1",4,"V","Fixation","68owkj",2,"continue","",966.987999999998,966.987999999998,966.987999999998,966.987999999998,966.987999999998,966.987999999998,1,966.987999999998,0,0,NA,"Fixation Timing","Fixation",1,"object-21","V","CFD-MM-313-002-S.jpeg",NA,"SUPTM16544"
"20",1689025845397,"10/07/2023 21:50:45",1689029445397,1,"10/07/2023 23:50:45",137495,33,"task-o9u1",NA,30604302,9086484,NA,"complete",NA,NA,"computer","Desktop or Laptop","Windows 10","Edge 114.0.1823.67","1536x864","1147x603",NA,NA,NA,"JV Task P2",11,"Anxious",NA,"In",NA,NA,"HIGJFKEADBC",NA,NA,"B (MDot First)",2,321,"SS1","SS1",3,"J","Judginess","y8ii7g",1,"continue","",4187.696,4182.402,4187.696,4187.696,4182.402,4187.696,1,4187.696,0,0,NA,"Click To Continue","Continue Button",1,"object-14","J","CFD-WM-028-003-N.jpg",NA,"SUPTM16544"
"21",1689025845400,"10/07/2023 21:50:45",1689029445400,1,"10/07/2023 23:50:45",137495,33,"task-o9u1",NA,30604302,9086484,NA,"complete",NA,NA,"computer","Desktop or Laptop","Windows 10","Edge 114.0.1823.67","1536x864","1147x603",NA,NA,NA,"JV Task P2",11,"Anxious",NA,"In",NA,NA,"HIGJFKEADBC",NA,NA,"B (MDot First)",2,321,"SS1","SS1",3,"J","Judginess","y8ii7g",1,"response","21",3265.83,4182.402,4190.79599990464,3265.83,4182.402,4190.79599990464,1,3265.83,924.965999904634,0,NA,"Slider","J",3,"object-18","J","CFD-WM-028-003-N.jpg",NA,"SUPTM16544"
"22",1689025846361,"10/07/2023 21:50:46",1689029446361,1,"10/07/2023 23:50:46",137495,33,"task-o9u1",NA,30604302,9086484,NA,"complete",NA,NA,"computer","Desktop or Laptop","Windows 10","Edge 114.0.1823.67","1536x864","1147x603",NA,NA,NA,"JV Task P2",11,"Anxious",NA,"In",NA,NA,"HIGJFKEADBC",NA,NA,"B (MDot First)",2,321,"SS1","SS1",3,"J","Fixation","w9zir9",2,"continue","",966.913,966.913,966.913,966.913,966.913,966.913,1,966.913,0,0,NA,"Fixation Timing","Fixation",1,"object-65","J","CFD-WM-028-003-N.jpg",NA,"SUPTM16544"
"23",1689025849878,"10/07/2023 21:50:49",1689029449878,1,"10/07/2023 23:50:49",137495,33,"task-o9u1",NA,30604302,9086484,NA,"complete",NA,NA,"computer","Desktop or Laptop","Windows 10","Edge 114.0.1823.67","1536x864","1147x603",NA,NA,NA,"JV Task P2",11,"Anxious",NA,"In",NA,NA,"HIGJFKEADBC",NA,NA,"B (MDot First)",2,321,"SS1","SS1",5,"V","Valence","xyoebq",1,"continue","",3519.381,3515.873,3519.381,3519.381,3515.873,3519.381,1,3519.381,0,0,NA,"Click To Continue","Continue Button",1,"object-25","V","CFD-WM-015-002-N.jpg",NA,"SUPTM16544"
"24",1689025849879,"10/07/2023 21:50:49",1689029449879,1,"10/07/2023 23:50:49",137495,33,"task-o9u1",NA,30604302,9086484,NA,"complete",NA,NA,"computer","Desktop or Laptop","Windows 10","Edge 114.0.1823.67","1536x864","1147x603",NA,NA,NA,"JV Task P2",11,"Anxious",NA,"In",NA,NA,"HIGJFKEADBC",NA,NA,"B (MDot First)",2,321,"SS1","SS1",5,"V","Valence","xyoebq",1,"response","38",2766.294,3515.873,3519.98099990463,2766.294,3515.873,3519.98099990463,1,2766.294,753.686999904632,0,NA,"Slider","J",3,"object-27","V","CFD-WM-015-002-N.jpg",NA,"SUPTM16544"
"25",1689025850842,"10/07/2023 21:50:50",1689029450842,1,"10/07/2023 23:50:50",137495,33,"task-o9u1",NA,30604302,9086484,NA,"complete",NA,NA,"computer","Desktop or Laptop","Windows 10","Edge 114.0.1823.67","1536x864","1147x603",NA,NA,NA,"JV Task P2",11,"Anxious",NA,"In",NA,NA,"HIGJFKEADBC",NA,NA,"B (MDot First)",2,321,"SS1","SS1",5,"V","Fixation","68owkj",2,"continue","",966.938999999998,966.938999999998,966.938999999998,966.938999999998,966.938999999998,966.938999999998,1,966.938999999998,0,0,NA,"Fixation Timing","Fixation",1,"object-21","V","CFD-WM-015-002-N.jpg",NA,"SUPTM16544"
"26",1689025857832,"10/07/2023 21:50:57",1689029457832,1,"10/07/2023 23:50:57",137495,33,"task-o9u1",NA,30604302,9086484,NA,"complete",NA,NA,"computer","Desktop or Laptop","Windows 10","Edge 114.0.1823.67","1536x864","1147x603",NA,NA,NA,"JV Task P2",11,"Anxious",NA,"In",NA,NA,"HIGJFKEADBC",NA,NA,"B (MDot First)",2,321,"SS1","SS1",4,"J","Judginess","y8ii7g",1,"continue","",6990.26899980927,6982.118,6990.26899980927,6990.26899980927,6982.118,6990.26899980927,1,6990.26899980927,0,0,NA,"Click To Continue","Continue Button",1,"object-14","J","CFD-AM-223-138-S.jpeg",NA,"SUPTM16544"
"27",1689025857838,"10/07/2023 21:50:57",1689029457838,1,"10/07/2023 23:50:57",137495,33,"task-o9u1",NA,30604302,9086484,NA,"complete",NA,NA,"computer","Desktop or Laptop","Windows 10","Edge 114.0.1823.67","1536x864","1147x603",NA,NA,NA,"JV Task P2",11,"Anxious",NA,"In",NA,NA,"HIGJFKEADBC",NA,NA,"B (MDot First)",2,321,"SS1","SS1",4,"J","Judginess","y8ii7g",1,"response","22",3532.961,6982.118,6996.16899990464,3532.961,6982.118,6996.16899990464,1,3532.961,3463.20799990463,0,NA,"Slider","J",3,"object-18","J","CFD-AM-223-138-S.jpeg",NA,"SUPTM16544"
"28",1689025858792,"10/07/2023 21:50:58",1689029458792,1,"10/07/2023 23:50:58",137495,33,"task-o9u1",NA,30604302,9086484,NA,"complete",NA,NA,"computer","Desktop or Laptop","Windows 10","Edge 114.0.1823.67","1536x864","1147x603",NA,NA,NA,"JV Task P2",11,"Anxious",NA,"In",NA,NA,"HIGJFKEADBC",NA,NA,"B (MDot First)",2,321,"SS1","SS1",4,"J","Fixation","w9zir9",2,"continue","",966.809000000001,966.809000000001,966.809000000001,966.809000000001,966.809000000001,966.809000000001,1,966.809000000001,0,0,NA,"Fixation Timing","Fixation",1,"object-65","J","CFD-AM-223-138-S.jpeg",NA,"SUPTM16544"
"29",1689025862863,"10/07/2023 21:51:02",1689029462863,1,"10/07/2023 23:51:02",137495,33,"task-o9u1",NA,30604302,9086484,NA,"complete",NA,NA,"computer","Desktop or Laptop","Windows 10","Edge 114.0.1823.67","1536x864","1147x603",NA,NA,NA,"JV Task P2",11,"Anxious",NA,"In",NA,NA,"HIGJFKEADBC",NA,NA,"B (MDot First)",2,321,"SS1","SS1",5,"J","Judginess","y8ii7g",1,"continue","",4072.642,4066.357,4072.642,4072.642,4066.357,4072.642,1,4072.642,0,0,NA,"Click To Continue","Continue Button",1,"object-14","J","CFD-WM-028-003-H.jpeg",NA,"SUPTM16544"
"30",1689025862864,"10/07/2023 21:51:02",1689029462864,1,"10/07/2023 23:51:02",137495,33,"task-o9u1",NA,30604302,9086484,NA,"complete",NA,NA,"computer","Desktop or Laptop","Windows 10","Edge 114.0.1823.67","1536x864","1147x603",NA,NA,NA,"JV Task P2",11,"Anxious",NA,"In",NA,NA,"HIGJFKEADBC",NA,NA,"B (MDot First)",2,321,"SS1","SS1",5,"J","Judginess","y8ii7g",1,"response","67",3032.754,4066.357,4073.24199990463,3032.754,4066.357,4073.24199990463,1,3032.754,1040.48799990463,0,NA,"Slider","J",3,"object-18","J","CFD-WM-028-003-H.jpeg",NA,"SUPTM16544"
"31",1689025863825,"10/07/2023 21:51:03",1689029463825,1,"10/07/2023 23:51:03",137495,33,"task-o9u1",NA,30604302,9086484,NA,"complete",NA,NA,"computer","Desktop or Laptop","Windows 10","Edge 114.0.1823.67","1536x864","1147x603",NA,NA,NA,"JV Task P2",11,"Anxious",NA,"In",NA,NA,"HIGJFKEADBC",NA,NA,"B (MDot First)",2,321,"SS1","SS1",5,"J","Fixation","w9zir9",2,"continue","",966.349000000002,966.349000000002,966.349000000002,966.349000000002,966.349000000002,966.349000000002,1,966.349000000002,0,0,NA,"Fixation Timing","Fixation",1,"object-65","J","CFD-WM-028-003-H.jpeg",NA,"SUPTM16544"
"32",1689025868615,"10/07/2023 21:51:08",1689029468615,1,"10/07/2023 23:51:08",137495,33,"task-o9u1",NA,30604302,9086484,NA,"complete",NA,NA,"computer","Desktop or Laptop","Windows 10","Edge 114.0.1823.67","1536x864","1147x603",NA,NA,NA,"JV Task P2",11,"Anxious",NA,"In",NA,NA,"HIGJFKEADBC",NA,NA,"B (MDot First)",2,321,"SS1","SS1",6,"J","Judginess","y8ii7g",1,"continue","",4791.03599990463,4782.968,4791.03599990463,4791.03599990463,4782.968,4791.03599990463,1,4791.03599990463,0,0,NA,"Click To Continue","Continue Button",1,"object-14","J","CFD-WM-009-002-S.jpeg",NA,"SUPTM16544"
"33",1689025868621,"10/07/2023 21:51:08",1689029468621,1,"10/07/2023 23:51:08",137495,33,"task-o9u1",NA,30604302,9086484,NA,"complete",NA,NA,"computer","Desktop or Laptop","Windows 10","Edge 114.0.1823.67","1536x864","1147x603",NA,NA,NA,"JV Task P2",11,"Anxious",NA,"In",NA,NA,"HIGJFKEADBC",NA,NA,"B (MDot First)",2,321,"SS1","SS1",6,"J","Judginess","y8ii7g",1,"response","18",3765.972,4782.968,4797.7359997139,3765.972,4782.968,4797.7359997139,1,3765.972,1031.7639997139,0,NA,"Slider","J",3,"object-18","J","CFD-WM-009-002-S.jpeg",NA,"SUPTM16544"
"34",1689025869574,"10/07/2023 21:51:09",1689029469574,1,"10/07/2023 23:51:09",137495,33,"task-o9u1",NA,30604302,9086484,NA,"complete",NA,NA,"computer","Desktop or Laptop","Windows 10","Edge 114.0.1823.67","1536x864","1147x603",NA,NA,NA,"JV Task P2",11,"Anxious",NA,"In",NA,NA,"HIGJFKEADBC",NA,NA,"B (MDot First)",2,321,"SS1","SS1",6,"J","Fixation","w9zir9",2,"continue","",966.506000000001,966.506000000001,966.506000000001,966.506000000001,966.506000000001,966.506000000001,1,966.506000000001,0,0,NA,"Fixation Timing","Fixation",1,"object-65","J","CFD-WM-009-002-S.jpeg",NA,"SUPTM16544"
"35",1689025874157,"10/07/2023 21:51:14",1689029474157,1,"10/07/2023 23:51:14",137495,33,"task-o9u1",NA,30604302,9086484,NA,"complete",NA,NA,"computer","Desktop or Laptop","Windows 10","Edge 114.0.1823.67","1536x864","1147x603",NA,NA,NA,"JV Task P2",11,"Anxious",NA,"In",NA,NA,"HIGJFKEADBC",NA,NA,"B (MDot First)",2,321,"SS1","SS1",7,"J","Judginess","y8ii7g",1,"continue","",4582.183,4565.755,4582.183,4582.183,4565.755,4582.183,1,4582.183,0,0,NA,"Click To Continue","Continue Button",1,"object-14","J","CFD-WF-035-024-H.jpeg",NA,"SUPTM16544"
"36",1689025874158,"10/07/2023 21:51:14",1689029474158,1,"10/07/2023 23:51:14",137495,33,"task-o9u1",NA,30604302,9086484,NA,"complete",NA,NA,"computer","Desktop or Laptop","Windows 10","Edge 114.0.1823.67","1536x864","1147x603",NA,NA,NA,"JV Task P2",11,"Anxious",NA,"In",NA,NA,"HIGJFKEADBC",NA,NA,"B (MDot First)",2,321,"SS1","SS1",7,"J","Judginess","y8ii7g",1,"response","64",2399.322,4565.755,4582.183,2399.322,4565.755,4582.183,1,2399.322,2182.861,0,NA,"Slider","J",3,"object-18","J","CFD-WF-035-024-H.jpeg",NA,"SUPTM16544"
"37",1689025875106,"10/07/2023 21:51:15",1689029475106,1,"10/07/2023 23:51:15",137495,33,"task-o9u1",NA,30604302,9086484,NA,"complete",NA,NA,"computer","Desktop or Laptop","Windows 10","Edge 114.0.1823.67","1536x864","1147x603",NA,NA,NA,"JV Task P2",11,"Anxious",NA,"In",NA,NA,"HIGJFKEADBC",NA,NA,"B (MDot First)",2,321,"SS1","SS1",7,"J","Fixation","w9zir9",2,"continue","",966.77399999999,966.77399999999,966.77399999999,966.77399999999,966.77399999999,966.77399999999,1,966.77399999999,0,0,NA,"Fixation Timing","Fixation",1,"object-65","J","CFD-WF-035-024-H.jpeg",NA,"SUPTM16544"
"38",1689025882028,"10/07/2023 21:51:22",1689029482028,1,"10/07/2023 23:51:22",137495,33,"task-o9u1",NA,30604302,9086484,NA,"complete",NA,NA,"computer","Desktop or Laptop","Windows 10","Edge 114.0.1823.67","1536x864","1147x603",NA,NA,NA,"JV Task P2",11,"Anxious",NA,"In",NA,NA,"HIGJFKEADBC",NA,NA,"B (MDot First)",2,321,"SS1","SS1",8,"J","Judginess","y8ii7g",1,"continue","",6922.7329997139,6915.838,6922.7329997139,6922.7329997139,6915.838,6922.7329997139,1,6922.7329997139,0,0,NA,"Click To Continue","Continue Button",1,"object-14","J","CFD-WF-009-001-H.jpeg",NA,"SUPTM16544"
"39",1689025882035,"10/07/2023 21:51:22",1689029482035,1,"10/07/2023 23:51:22",137495,33,"task-o9u1",NA,30604302,9086484,NA,"complete",NA,NA,"computer","Desktop or Laptop","Windows 10","Edge 114.0.1823.67","1536x864","1147x603",NA,NA,NA,"JV Task P2",11,"Anxious",NA,"In",NA,NA,"HIGJFKEADBC",NA,NA,"B (MDot First)",2,321,"SS1","SS1",8,"J","Judginess","y8ii7g",1,"response","35",3416.23000000001,6915.838,6929.433,3416.23000000001,6915.838,6929.433,1,3416.23000000001,3513.20299999999,0,NA,"Slider","J",3,"object-18","J","CFD-WF-009-001-H.jpeg",NA,"SUPTM16544"
"40",1689025882989,"10/07/2023 21:51:22",1689029482989,1,"10/07/2023 23:51:22",137495,33,"task-o9u1",NA,30604302,9086484,NA,"complete",NA,NA,"computer","Desktop or Laptop","Windows 10","Edge 114.0.1823.67","1536x864","1147x603",NA,NA,NA,"JV Task P2",11,"Anxious",NA,"In",NA,NA,"HIGJFKEADBC",NA,NA,"B (MDot First)",2,321,"SS1","SS1",8,"J","Fixation","w9zir9",2,"continue","",966.561000000002,966.561000000002,966.561000000002,966.561000000002,966.561000000002,966.561000000002,1,966.561000000002,0,0,NA,"Fixation Timing","Fixation",1,"object-65","J","CFD-WF-009-001-H.jpeg",NA,"SUPTM16544"
"41",1689025886267,"10/07/2023 21:51:26",1689029486267,1,"10/07/2023 23:51:26",137495,33,"task-o9u1",NA,30604302,9086484,NA,"complete",NA,NA,"computer","Desktop or Laptop","Windows 10","Edge 114.0.1823.67","1536x864","1147x603",NA,NA,NA,"JV Task P2",11,"Anxious",NA,"In",NA,NA,"HIGJFKEADBC",NA,NA,"B (MDot First)",2,321,"SS1","SS1",9,"J","Judginess","y8ii7g",1,"continue","",3278.8339997139,3266.36500000001,3278.8339997139,3278.8339997139,3266.36500000001,3278.8339997139,1,3278.8339997139,0,0,NA,"Click To Continue","Continue Button",1,"object-14","J","CFD-MM-313-002-H.jpeg",NA,"SUPTM16544"
"42",1689025886267,"10/07/2023 21:51:26",1689029486267,1,"10/07/2023 23:51:26",137495,33,"task-o9u1",NA,30604302,9086484,NA,"complete",NA,NA,"computer","Desktop or Laptop","Windows 10","Edge 114.0.1823.67","1536x864","1147x603",NA,NA,NA,"JV Task P2",11,"Anxious",NA,"In",NA,NA,"HIGJFKEADBC",NA,NA,"B (MDot First)",2,321,"SS1","SS1",9,"J","Judginess","y8ii7g",1,"response","20",2366.394,3266.36500000001,3279.63399990463,2366.394,3266.36500000001,3279.63399990463,1,2366.394,913.239999904632,0,NA,"Slider","J",3,"object-18","J","CFD-MM-313-002-H.jpeg",NA,"SUPTM16544"
"43",1689025887221,"10/07/2023 21:51:27",1689029487221,1,"10/07/2023 23:51:27",137495,33,"task-o9u1",NA,30604302,9086484,NA,"complete",NA,NA,"computer","Desktop or Laptop","Windows 10","Edge 114.0.1823.67","1536x864","1147x603",NA,NA,NA,"JV Task P2",11,"Anxious",NA,"In",NA,NA,"HIGJFKEADBC",NA,NA,"B (MDot First)",2,321,"SS1","SS1",9,"J","Fixation","w9zir9",2,"continue","",966.331999999995,966.331999999995,966.331999999995,966.331999999995,966.331999999995,966.331999999995,1,966.331999999995,0,0,NA,"Fixation Timing","Fixation",1,"object-65","J","CFD-MM-313-002-H.jpeg",NA,"SUPTM16544"
"44",1689025891649,"10/07/2023 21:51:31",1689029491649,1,"10/07/2023 23:51:31",137495,33,"task-o9u1",NA,30604302,9086484,NA,"complete",NA,NA,"computer","Desktop or Laptop","Windows 10","Edge 114.0.1823.67","1536x864","1147x603",NA,NA,NA,"JV Task P2",11,"Anxious",NA,"In",NA,NA,"HIGJFKEADBC",NA,NA,"B (MDot First)",2,321,"SS1","SS1",6,"V","Valence","xyoebq",1,"continue","",4428.53699980926,4416.27499999999,4428.53699980926,4428.53699980926,4416.27499999999,4428.53699980926,1,4428.53699980926,0,0,NA,"Click To Continue","Continue Button",1,"object-25","V","CFD-AF-250-200-N.jpg",NA,"SUPTM16544"
"45",1689025891650,"10/07/2023 21:51:31",1689029491650,1,"10/07/2023 23:51:31",137495,33,"task-o9u1",NA,30604302,9086484,NA,"complete",NA,NA,"computer","Desktop or Laptop","Windows 10","Edge 114.0.1823.67","1536x864","1147x603",NA,NA,NA,"JV Task P2",11,"Anxious",NA,"In",NA,NA,"HIGJFKEADBC",NA,NA,"B (MDot First)",2,321,"SS1","SS1",6,"V","Valence","xyoebq",1,"response","60",3366.149,4416.27499999999,4429.1369997139,3366.149,4416.27499999999,4429.1369997139,1,3366.149,1062.98799971389,0,NA,"Slider","J",3,"object-27","V","CFD-AF-250-200-N.jpg",NA,"SUPTM16544"
"46",1689025892604,"10/07/2023 21:51:32",1689029492604,1,"10/07/2023 23:51:32",137495,33,"task-o9u1",NA,30604302,9086484,NA,"complete",NA,NA,"computer","Desktop or Laptop","Windows 10","Edge 114.0.1823.67","1536x864","1147x603",NA,NA,NA,"JV Task P2",11,"Anxious",NA,"In",NA,NA,"HIGJFKEADBC",NA,NA,"B (MDot First)",2,321,"SS1","SS1",6,"V","Fixation","68owkj",2,"continue","",966.521000000008,966.521000000008,966.521000000008,966.521000000008,966.521000000008,966.521000000008,1,966.521000000008,0,0,NA,"Fixation Timing","Fixation",1,"object-21","V","CFD-AF-250-200-N.jpg",NA,"SUPTM16544"
"47",1689025897610,"10/07/2023 21:51:37",1689029497610,1,"10/07/2023 23:51:37",137495,33,"task-o9u1",NA,30604302,9086484,NA,"complete",NA,NA,"computer","Desktop or Laptop","Windows 10","Edge 114.0.1823.67","1536x864","1147x603",NA,NA,NA,"JV Task P2",11,"Anxious",NA,"In",NA,NA,"HIGJFKEADBC",NA,NA,"B (MDot First)",2,321,"SS1","SS1",7,"V","Valence","xyoebq",1,"continue","",5006.64099990463,4999.45,5006.64099990463,5006.64099990463,4999.45,5006.64099990463,1,5006.64099990463,0,0,NA,"Click To Continue","Continue Button",1,"object-25","V","CFD-BF-029-031-H.jpeg",NA,"SUPTM16544"
"48",1689025897610,"10/07/2023 21:51:37",1689029497610,1,"10/07/2023 23:51:37",137495,33,"task-o9u1",NA,30604302,9086484,NA,"complete",NA,NA,"computer","Desktop or Laptop","Windows 10","Edge 114.0.1823.67","1536x864","1147x603",NA,NA,NA,"JV Task P2",11,"Anxious",NA,"In",NA,NA,"HIGJFKEADBC",NA,NA,"B (MDot First)",2,321,"SS1","SS1",7,"V","Valence","xyoebq",1,"response","91",4049.42,4999.45,5007.041,4049.42,4999.45,5007.041,1,4049.42,957.620999999999,0,NA,"Slider","J",3,"object-27","V","CFD-BF-029-031-H.jpeg",NA,"SUPTM16544"
"49",1689025898557,"10/07/2023 21:51:38",1689029498557,1,"10/07/2023 23:51:38",137495,33,"task-o9u1",NA,30604302,9086484,NA,"complete",NA,NA,"computer","Desktop or Laptop","Windows 10","Edge 114.0.1823.67","1536x864","1147x603",NA,NA,NA,"JV Task P2",11,"Anxious",NA,"In",NA,NA,"HIGJFKEADBC",NA,NA,"B (MDot First)",2,321,"SS1","SS1",7,"V","Fixation","68owkj",2,"continue","",966.661000000007,966.661000000007,966.661000000007,966.661000000007,966.661000000007,966.661000000007,1,966.661000000007,0,0,NA,"Fixation Timing","Fixation",1,"object-21","V","CFD-BF-029-031-H.jpeg",NA,"SUPTM16544"
"50",1689025902470,"10/07/2023 21:51:42",1689029502470,1,"10/07/2023 23:51:42",137495,33,"task-o9u1",NA,30604302,9086484,NA,"complete",NA,NA,"computer","Desktop or Laptop","Windows 10","Edge 114.0.1823.67","1536x864","1147x603",NA,NA,NA,"JV Task P2",11,"Anxious",NA,"In",NA,NA,"HIGJFKEADBC",NA,NA,"B (MDot First)",2,321,"SS1","SS1",10,"J","Judginess","y8ii7g",1,"continue","",3913.42999999999,3899.16099999999,3913.42999999999,3913.42999999999,3899.16099999999,3913.42999999999,1,3913.42999999999,0,0,NA,"Click To Continue","Continue Button",1,"object-14","J","CFD-MM-313-002-S.jpeg",NA,"SUPTM16544"
"51",1689025902470,"10/07/2023 21:51:42",1689029502470,1,"10/07/2023 23:51:42",137495,33,"task-o9u1",NA,30604302,9086484,NA,"complete",NA,NA,"computer","Desktop or Laptop","Windows 10","Edge 114.0.1823.67","1536x864","1147x603",NA,NA,NA,"JV Task P2",11,"Anxious",NA,"In",NA,NA,"HIGJFKEADBC",NA,NA,"B (MDot First)",2,321,"SS1","SS1",10,"J","Judginess","y8ii7g",1,"response","25",2632.67199999999,3899.16099999999,3914.02999990463,2632.67199999999,3899.16099999999,3914.02999990463,1,2632.67199999999,1281.35799990463,0,NA,"Slider","J",3,"object-18","J","CFD-MM-313-002-S.jpeg",NA,"SUPTM16544"
"52",1689025903423,"10/07/2023 21:51:43",1689029503423,1,"10/07/2023 23:51:43",137495,33,"task-o9u1",NA,30604302,9086484,NA,"complete",NA,NA,"computer","Desktop or Laptop","Windows 10","Edge 114.0.1823.67","1536x864","1147x603",NA,NA,NA,"JV Task P2",11,"Anxious",NA,"In",NA,NA,"HIGJFKEADBC",NA,NA,"B (MDot First)",2,321,"SS1","SS1",10,"J","Fixation","w9zir9",2,"continue","",966.782000000007,966.782000000007,966.782000000007,966.782000000007,966.782000000007,966.782000000007,1,966.782000000007,0,0,NA,"Fixation Timing","Fixation",1,"object-65","J","CFD-MM-313-002-S.jpeg",NA,"SUPTM16544"
"53",1689025909063,"10/07/2023 21:51:49",1689029509063,1,"10/07/2023 23:51:49",137495,33,"task-o9u1",NA,30604302,9086484,NA,"complete",NA,NA,"computer","Desktop or Laptop","Windows 10","Edge 114.0.1823.67","1536x864","1147x603",NA,NA,NA,"JV Task P2",11,"Anxious",NA,"In",NA,NA,"HIGJFKEADBC",NA,NA,"B (MDot First)",2,321,"SS1","SS1",8,"V","Valence","xyoebq",1,"continue","",5640.78699971389,5632.81,5640.78699971389,5640.78699971389,5632.81,5640.78699971389,1,5640.78699971389,0,0,NA,"Click To Continue","Continue Button",1,"object-25","V","CFD-WM-009-002-H.jpeg",NA,"SUPTM16544"
"54",1689025909063,"10/07/2023 21:51:49",1689029509063,1,"10/07/2023 23:51:49",137495,33,"task-o9u1",NA,30604302,9086484,NA,"complete",NA,NA,"computer","Desktop or Laptop","Windows 10","Edge 114.0.1823.67","1536x864","1147x603",NA,NA,NA,"JV Task P2",11,"Anxious",NA,"In",NA,NA,"HIGJFKEADBC",NA,NA,"B (MDot First)",2,321,"SS1","SS1",8,"V","Valence","xyoebq",1,"response","86",4615.871,5632.81,5641.28699971389,4615.871,5632.81,5641.28699971389,1,4615.871,1025.41599971389,0,NA,"Slider","J",3,"object-27","V","CFD-WM-009-002-H.jpeg",NA,"SUPTM16544"
"55",1689025910024,"10/07/2023 21:51:50",1689029510024,1,"10/07/2023 23:51:50",137495,33,"task-o9u1",NA,30604302,9086484,NA,"complete",NA,NA,"computer","Desktop or Laptop","Windows 10","Edge 114.0.1823.67","1536x864","1147x603",NA,NA,NA,"JV Task P2",11,"Anxious",NA,"In",NA,NA,"HIGJFKEADBC",NA,NA,"B (MDot First)",2,321,"SS1","SS1",8,"V","Fixation","68owkj",2,"continue","",966.212999999989,966.212999999989,966.212999999989,966.212999999989,966.212999999989,966.212999999989,1,966.212999999989,0,0,NA,"Fixation Timing","Fixation",1,"object-21","V","CFD-WM-009-002-H.jpeg",NA,"SUPTM16544"
"56",1689025917051,"10/07/2023 21:51:57",1689029517051,1,"10/07/2023 23:51:57",137495,33,"task-o9u1",NA,30604302,9086484,NA,"complete",NA,NA,"computer","Desktop or Laptop","Windows 10","Edge 114.0.1823.67","1536x864","1147x603",NA,NA,NA,"JV Task P2",11,"Anxious",NA,"In",NA,NA,"HIGJFKEADBC",NA,NA,"B (MDot First)",2,321,"SS1","SS1",11,"J","Judginess","y8ii7g",1,"continue","",7029.7639997139,7015.99100000001,7029.7639997139,7029.7639997139,7015.99100000001,7029.7639997139,1,7029.7639997139,0,0,NA,"Click To Continue","Continue Button",1,"object-14","J","CFD-BF-030-002-S.jpeg",NA,"SUPTM16544"
"57",1689025917056,"10/07/2023 21:51:57",1689029517056,1,"10/07/2023 23:51:57",137495,33,"task-o9u1",NA,30604302,9086484,NA,"complete",NA,NA,"computer","Desktop or Laptop","Windows 10","Edge 114.0.1823.67","1536x864","1147x603",NA,NA,NA,"JV Task P2",11,"Anxious",NA,"In",NA,NA,"HIGJFKEADBC",NA,NA,"B (MDot First)",2,321,"SS1","SS1",11,"J","Judginess","y8ii7g",1,"response","61",4383.179,7015.99100000001,7032.89000000001,4383.179,7015.99100000001,7032.89000000001,1,4383.179,2649.71100000001,0,NA,"Slider","J",3,"object-18","J","CFD-BF-030-002-S.jpeg",NA,"SUPTM16544"
"58",1689025918005,"10/07/2023 21:51:58",1689029518005,1,"10/07/2023 23:51:58",137495,33,"task-o9u1",NA,30604302,9086484,NA,"complete",NA,NA,"computer","Desktop or Laptop","Windows 10","Edge 114.0.1823.67","1536x864","1147x603",NA,NA,NA,"JV Task P2",11,"Anxious",NA,"In",NA,NA,"HIGJFKEADBC",NA,NA,"B (MDot First)",2,321,"SS1","SS1",11,"J","Fixation","w9zir9",2,"continue","",966.433000000005,966.433000000005,966.433000000005,966.433000000005,966.433000000005,966.433000000005,1,966.433000000005,0,0,NA,"Fixation Timing","Fixation",1,"object-65","J","CFD-BF-030-002-S.jpeg",NA,"SUPTM16544"
"59",1689025923380,"10/07/2023 21:52:03",1689029523380,1,"10/07/2023 23:52:03",137495,33,"task-o9u1",NA,30604302,9086484,NA,"complete",NA,NA,"computer","Desktop or Laptop","Windows 10","Edge 114.0.1823.67","1536x864","1147x603",NA,NA,NA,"JV Task P2",11,"Anxious",NA,"In",NA,NA,"HIGJFKEADBC",NA,NA,"B (MDot First)",2,321,"SS1","SS1",12,"J","Judginess","y8ii7g",1,"continue","",5376.53999999999,5366.33399999999,5376.53999999999,5376.53999999999,5366.33399999999,5376.53999999999,1,5376.53999999999,0,0,NA,"Click To Continue","Continue Button",1,"object-14","J","CFD-WM-009-002-H.jpeg",NA,"SUPTM16544"
"60",1689025923381,"10/07/2023 21:52:03",1689029523381,1,"10/07/2023 23:52:03",137495,33,"task-o9u1",NA,30604302,9086484,NA,"complete",NA,NA,"computer","Desktop or Laptop","Windows 10","Edge 114.0.1823.67","1536x864","1147x603",NA,NA,NA,"JV Task P2",11,"Anxious",NA,"In",NA,NA,"HIGJFKEADBC",NA,NA,"B (MDot First)",2,321,"SS1","SS1",12,"J","Judginess","y8ii7g",1,"response","82",4432.68399999999,5366.33399999999,5377.03999999999,4432.68399999999,5366.33399999999,5377.03999999999,1,4432.68399999999,944.356,0,NA,"Slider","J",3,"object-18","J","CFD-WM-009-002-H.jpeg",NA,"SUPTM16544"
"61",1689025924337,"10/07/2023 21:52:04",1689029524337,1,"10/07/2023 23:52:04",137495,33,"task-o9u1",NA,30604302,9086484,NA,"complete",NA,NA,"computer","Desktop or Laptop","Windows 10","Edge 114.0.1823.67","1536x864","1147x603",NA,NA,NA,"JV Task P2",11,"Anxious",NA,"In",NA,NA,"HIGJFKEADBC",NA,NA,"B (MDot First)",2,321,"SS1","SS1",12,"J","Fixation","w9zir9",2,"continue","",966.131000000008,966.131000000008,966.131000000008,966.131000000008,966.131000000008,966.131000000008,1,966.131000000008,0,0,NA,"Fixation Timing","Fixation",1,"object-65","J","CFD-WM-009-002-H.jpeg",NA,"SUPTM16544"
"62",1689025928863,"10/07/2023 21:52:08",1689029528863,1,"10/07/2023 23:52:08",137495,33,"task-o9u1",NA,30604302,9086484,NA,"complete",NA,NA,"computer","Desktop or Laptop","Windows 10","Edge 114.0.1823.67","1536x864","1147x603",NA,NA,NA,"JV Task P2",11,"Anxious",NA,"In",NA,NA,"HIGJFKEADBC",NA,NA,"B (MDot First)",2,321,"SS1","SS1",13,"J","Judginess","y8ii7g",1,"continue","",4526.47500009536,4516.42199999999,4526.47500009536,4526.47500009536,4516.42199999999,4526.47500009536,1,4526.47500009536,0,0,NA,"Click To Continue","Continue Button",1,"object-14","J","CFD-WM-034-030-N.jpg",NA,"SUPTM16544"
"63",1689025928869,"10/07/2023 21:52:08",1689029528869,1,"10/07/2023 23:52:08",137495,33,"task-o9u1",NA,30604302,9086484,NA,"complete",NA,NA,"computer","Desktop or Laptop","Windows 10","Edge 114.0.1823.67","1536x864","1147x603",NA,NA,NA,"JV Task P2",11,"Anxious",NA,"In",NA,NA,"HIGJFKEADBC",NA,NA,"B (MDot First)",2,321,"SS1","SS1",13,"J","Judginess","y8ii7g",1,"response","10",3383.174,4516.42199999999,4532.575,3383.174,4516.42199999999,4532.575,1,3383.174,1149.401,0,NA,"Slider","J",3,"object-18","J","CFD-WM-034-030-N.jpg",NA,"SUPTM16544"
"64",1689025929820,"10/07/2023 21:52:09",1689029529820,1,"10/07/2023 23:52:09",137495,33,"task-o9u1",NA,30604302,9086484,NA,"complete",NA,NA,"computer","Desktop or Laptop","Windows 10","Edge 114.0.1823.67","1536x864","1147x603",NA,NA,NA,"JV Task P2",11,"Anxious",NA,"In",NA,NA,"HIGJFKEADBC",NA,NA,"B (MDot First)",2,321,"SS1","SS1",13,"J","Fixation","w9zir9",2,"continue","",966.654999999999,966.654999999999,966.654999999999,966.654999999999,966.654999999999,966.654999999999,1,966.654999999999,0,0,NA,"Fixation Timing","Fixation",1,"object-65","J","CFD-WM-034-030-N.jpg",NA,"SUPTM16544"
"65",1689025934361,"10/07/2023 21:52:14",1689029534361,1,"10/07/2023 23:52:14",137495,33,"task-o9u1",NA,30604302,9086484,NA,"complete",NA,NA,"computer","Desktop or Laptop","Windows 10","Edge 114.0.1823.67","1536x864","1147x603",NA,NA,NA,"JV Task P2",11,"Anxious",NA,"In",NA,NA,"HIGJFKEADBC",NA,NA,"B (MDot First)",2,321,"SS1","SS1",9,"V","Valence","xyoebq",1,"continue","",4541.7979997139,4532.65400000001,4541.7979997139,4541.7979997139,4532.65400000001,4541.7979997139,1,4541.7979997139,0,0,NA,"Click To Continue","Continue Button",1,"object-25","V","CFD-WF-035-024-S.jpeg",NA,"SUPTM16544"
"66",1689025934361,"10/07/2023 21:52:14",1689029534361,1,"10/07/2023 23:52:14",137495,33,"task-o9u1",NA,30604302,9086484,NA,"complete",NA,NA,"computer","Desktop or Laptop","Windows 10","Edge 114.0.1823.67","1536x864","1147x603",NA,NA,NA,"JV Task P2",11,"Anxious",NA,"In",NA,NA,"HIGJFKEADBC",NA,NA,"B (MDot First)",2,321,"SS1","SS1",9,"V","Valence","xyoebq",1,"response","14",3232.94500000001,4532.65400000001,4542.39800009537,3232.94500000001,4532.65400000001,4542.39800009537,1,3232.94500000001,1309.45300009537,0,NA,"Slider","J",3,"object-27","V","CFD-WF-035-024-S.jpeg",NA,"SUPTM16544"
"67",1689025935319,"10/07/2023 21:52:15",1689029535319,1,"10/07/2023 23:52:15",137495,33,"task-o9u1",NA,30604302,9086484,NA,"complete",NA,NA,"computer","Desktop or Laptop","Windows 10","Edge 114.0.1823.67","1536x864","1147x603",NA,NA,NA,"JV Task P2",11,"Anxious",NA,"In",NA,NA,"HIGJFKEADBC",NA,NA,"B (MDot First)",2,321,"SS1","SS1",9,"V","Fixation","68owkj",2,"continue","",966.536999999997,966.536999999997,966.536999999997,966.536999999997,966.536999999997,966.536999999997,1,966.536999999997,0,0,NA,"Fixation Timing","Fixation",1,"object-21","V","CFD-WF-035-024-S.jpeg",NA,"SUPTM16544"
"68",1689025942337,"10/07/2023 21:52:22",1689029542337,1,"10/07/2023 23:52:22",137495,33,"task-o9u1",NA,30604302,9086484,NA,"complete",NA,NA,"computer","Desktop or Laptop","Windows 10","Edge 114.0.1823.67","1536x864","1147x603",NA,NA,NA,"JV Task P2",11,"Anxious",NA,"In",NA,NA,"HIGJFKEADBC",NA,NA,"B (MDot First)",2,321,"SS1","SS1",14,"J","Judginess","y8ii7g",1,"continue","",7018.70700009537,7015.584,7018.70700009537,7018.70700009537,7015.584,7018.70700009537,1,7018.70700009537,0,0,NA,"Click To Continue","Continue Button",1,"object-14","J","CFD-WM-019-003-H.jpeg",NA,"SUPTM16544"
"69",1689025942343,"10/07/2023 21:52:22",1689029542343,1,"10/07/2023 23:52:22",137495,33,"task-o9u1",NA,30604302,9086484,NA,"complete",NA,NA,"computer","Desktop or Laptop","Windows 10","Edge 114.0.1823.67","1536x864","1147x603",NA,NA,NA,"JV Task P2",11,"Anxious",NA,"In",NA,NA,"HIGJFKEADBC",NA,NA,"B (MDot First)",2,321,"SS1","SS1",14,"J","Judginess","y8ii7g",1,"response","27",6082.76699999999,7015.584,7025.1069997139,6082.76699999999,7015.584,7025.1069997139,1,6082.76699999999,942.339999713906,0,NA,"Slider","J",3,"object-18","J","CFD-WM-019-003-H.jpeg",NA,"SUPTM16544"
"70",1689025943301,"10/07/2023 21:52:23",1689029543301,1,"10/07/2023 23:52:23",137495,33,"task-o9u1",NA,30604302,9086484,NA,"complete",NA,NA,"computer","Desktop or Laptop","Windows 10","Edge 114.0.1823.67","1536x864","1147x603",NA,NA,NA,"JV Task P2",11,"Anxious",NA,"In",NA,NA,"HIGJFKEADBC",NA,NA,"B (MDot First)",2,321,"SS1","SS1",14,"J","Fixation","w9zir9",2,"continue","",966.576000000001,966.576000000001,966.576000000001,966.576000000001,966.576000000001,966.576000000001,1,966.576000000001,0,0,NA,"Fixation Timing","Fixation",1,"object-65","J","CFD-WM-019-003-H.jpeg",NA,"SUPTM16544"
"71",1689025947767,"10/07/2023 21:52:27",1689029547767,1,"10/07/2023 23:52:27",137495,33,"task-o9u1",NA,30604302,9086484,NA,"complete",NA,NA,"computer","Desktop or Laptop","Windows 10","Edge 114.0.1823.67","1536x864","1147x603",NA,NA,NA,"JV Task P2",11,"Anxious",NA,"In",NA,NA,"HIGJFKEADBC",NA,NA,"B (MDot First)",2,321,"SS1","SS1",15,"J","Judginess","y8ii7g",1,"continue","",4466.639,4449.742,4466.639,4466.639,4449.742,4466.639,1,4466.639,0,0,NA,"Click To Continue","Continue Button",1,"object-14","J","CFD-BF-008-001-S.jpeg",NA,"SUPTM16544"
"72",1689025947768,"10/07/2023 21:52:27",1689029547768,1,"10/07/2023 23:52:27",137495,33,"task-o9u1",NA,30604302,9086484,NA,"complete",NA,NA,"computer","Desktop or Laptop","Windows 10","Edge 114.0.1823.67","1536x864","1147x603",NA,NA,NA,"JV Task P2",11,"Anxious",NA,"In",NA,NA,"HIGJFKEADBC",NA,NA,"B (MDot First)",2,321,"SS1","SS1",15,"J","Judginess","y8ii7g",1,"response","35",3166.65400000001,4449.742,4466.639,3166.65400000001,4449.742,4466.639,1,3166.65400000001,1299.98499999999,0,NA,"Slider","J",3,"object-18","J","CFD-BF-008-001-S.jpeg",NA,"SUPTM16544"
"73",1689025948718,"10/07/2023 21:52:28",1689029548718,1,"10/07/2023 23:52:28",137495,33,"task-o9u1",NA,30604302,9086484,NA,"complete",NA,NA,"computer","Desktop or Laptop","Windows 10","Edge 114.0.1823.67","1536x864","1147x603",NA,NA,NA,"JV Task P2",11,"Anxious",NA,"In",NA,NA,"HIGJFKEADBC",NA,NA,"B (MDot First)",2,321,"SS1","SS1",15,"J","Fixation","w9zir9",2,"continue","",966.320999999996,966.320999999996,966.320999999996,966.320999999996,966.320999999996,966.320999999996,1,966.320999999996,0,0,NA,"Fixation Timing","Fixation",1,"object-65","J","CFD-BF-008-001-S.jpeg",NA,"SUPTM16544"
"74",1689025955507,"10/07/2023 21:52:35",1689029555507,1,"10/07/2023 23:52:35",137495,33,"task-o9u1",NA,30604302,9086484,NA,"complete",NA,NA,"computer","Desktop or Laptop","Windows 10","Edge 114.0.1823.67","1536x864","1147x603",NA,NA,NA,"JV Task P2",11,"Anxious",NA,"In",NA,NA,"HIGJFKEADBC",NA,NA,"B (MDot First)",2,321,"SS1","SS1",10,"V","Valence","xyoebq",1,"continue","",6790.98400009537,6782.454,6790.98400009537,6790.98400009537,6782.454,6790.98400009537,1,6790.98400009537,0,0,NA,"Click To Continue","Continue Button",1,"object-25","V","CFD-BM-045-004-S.jpeg",NA,"SUPTM16544"
"75",1689025955514,"10/07/2023 21:52:35",1689029555514,1,"10/07/2023 23:52:35",137495,33,"task-o9u1",NA,30604302,9086484,NA,"complete",NA,NA,"computer","Desktop or Laptop","Windows 10","Edge 114.0.1823.67","1536x864","1147x603",NA,NA,NA,"JV Task P2",11,"Anxious",NA,"In",NA,NA,"HIGJFKEADBC",NA,NA,"B (MDot First)",2,321,"SS1","SS1",10,"V","Valence","xyoebq",1,"response","26",4116.12900000002,6782.454,6797.18399990464,4116.12900000002,6782.454,6797.18399990464,1,4116.12900000002,2681.05499990462,0,NA,"Slider","J",3,"object-27","V","CFD-BM-045-004-S.jpeg",NA,"SUPTM16544"
"76",1689025956467,"10/07/2023 21:52:36",1689029556467,1,"10/07/2023 23:52:36",137495,33,"task-o9u1",NA,30604302,9086484,NA,"complete",NA,NA,"computer","Desktop or Laptop","Windows 10","Edge 114.0.1823.67","1536x864","1147x603",NA,NA,NA,"JV Task P2",11,"Anxious",NA,"In",NA,NA,"HIGJFKEADBC",NA,NA,"B (MDot First)",2,321,"SS1","SS1",10,"V","Fixation","68owkj",2,"continue","",966.951000000001,966.951000000001,966.951000000001,966.951000000001,966.951000000001,966.951000000001,1,966.951000000001,0,0,NA,"Fixation Timing","Fixation",1,"object-21","V","CFD-BM-045-004-S.jpeg",NA,"SUPTM16544"
"77",1689025962579,"10/07/2023 21:52:42",1689029562579,1,"10/07/2023 23:52:42",137495,33,"task-o9u1",NA,30604302,9086484,NA,"complete",NA,NA,"computer","Desktop or Laptop","Windows 10","Edge 114.0.1823.67","1536x864","1147x603",NA,NA,NA,"JV Task P2",11,"Anxious",NA,"In",NA,NA,"HIGJFKEADBC",NA,NA,"B (MDot First)",2,321,"SS1","SS1",11,"V","Valence","xyoebq",1,"continue","",6105.9789997139,6098.927,6105.9789997139,6105.9789997139,6098.927,6105.9789997139,1,6105.9789997139,0,0,NA,"Click To Continue","Continue Button",1,"object-25","V","CFD-MF-315-002-N.jpg",NA,"SUPTM16544"
"78",1689025962580,"10/07/2023 21:52:42",1689029562580,1,"10/07/2023 23:52:42",137495,33,"task-o9u1",NA,30604302,9086484,NA,"complete",NA,NA,"computer","Desktop or Laptop","Windows 10","Edge 114.0.1823.67","1536x864","1147x603",NA,NA,NA,"JV Task P2",11,"Anxious",NA,"In",NA,NA,"HIGJFKEADBC",NA,NA,"B (MDot First)",2,321,"SS1","SS1",11,"V","Valence","xyoebq",1,"response","55",2932.65600000002,6098.927,6106.37899980927,2932.65600000002,6098.927,6106.37899980927,1,2932.65600000002,3173.72299980925,0,NA,"Slider","J",3,"object-27","V","CFD-MF-315-002-N.jpg",NA,"SUPTM16544"
"79",1689025963539,"10/07/2023 21:52:43",1689029563539,1,"10/07/2023 23:52:43",137495,33,"task-o9u1",NA,30604302,9086484,NA,"complete",NA,NA,"computer","Desktop or Laptop","Windows 10","Edge 114.0.1823.67","1536x864","1147x603",NA,NA,NA,"JV Task P2",11,"Anxious",NA,"In",NA,NA,"HIGJFKEADBC",NA,NA,"B (MDot First)",2,321,"SS1","SS1",11,"V","Fixation","68owkj",2,"continue","",966.54700000002,966.54700000002,966.54700000002,966.54700000002,966.54700000002,966.54700000002,1,966.54700000002,0,0,NA,"Fixation Timing","Fixation",1,"object-21","V","CFD-MF-315-002-N.jpg",NA,"SUPTM16544"
"80",1689025970614,"10/07/2023 21:52:50",1689029570614,1,"10/07/2023 23:52:50",137495,33,"task-o9u1",NA,30604302,9086484,NA,"complete",NA,NA,"computer","Desktop or Laptop","Windows 10","Edge 114.0.1823.67","1536x864","1147x603",NA,NA,NA,"JV Task P2",11,"Anxious",NA,"In",NA,NA,"HIGJFKEADBC",NA,NA,"B (MDot First)",2,321,"SS1","SS1",16,"J","Judginess","y8ii7g",1,"continue","",7075.50499971388,7066.174,7075.50499971388,7075.50499971388,7066.174,7075.50499971388,1,7075.50499971388,0,0,NA,"Click To Continue","Continue Button",1,"object-14","J","CFD-MM-313-002-N.jpg",NA,"SUPTM16544"
"81",1689025970621,"10/07/2023 21:52:50",1689029570621,1,"10/07/2023 23:52:50",137495,33,"task-o9u1",NA,30604302,9086484,NA,"complete",NA,NA,"computer","Desktop or Laptop","Windows 10","Edge 114.0.1823.67","1536x864","1147x603",NA,NA,NA,"JV Task P2",11,"Anxious",NA,"In",NA,NA,"HIGJFKEADBC",NA,NA,"B (MDot First)",2,321,"SS1","SS1",16,"J","Judginess","y8ii7g",1,"response","13",6149.215,7066.174,7081.90499980925,6149.215,7066.174,7081.90499980925,1,6149.215,932.689999809256,0,NA,"Slider","J",3,"object-18","J","CFD-MM-313-002-N.jpg",NA,"SUPTM16544"
"82",1689025971573,"10/07/2023 21:52:51",1689029571573,1,"10/07/2023 23:52:51",137495,33,"task-o9u1",NA,30604302,9086484,NA,"complete",NA,NA,"computer","Desktop or Laptop","Windows 10","Edge 114.0.1823.67","1536x864","1147x603",NA,NA,NA,"JV Task P2",11,"Anxious",NA,"In",NA,NA,"HIGJFKEADBC",NA,NA,"B (MDot First)",2,321,"SS1","SS1",16,"J","Fixation","w9zir9",2,"continue","",966.532999999996,966.532999999996,966.532999999996,966.532999999996,966.532999999996,966.532999999996,1,966.532999999996,0,0,NA,"Fixation Timing","Fixation",1,"object-65","J","CFD-MM-313-002-N.jpg",NA,"SUPTM16544"
"83",1689025975426,"10/07/2023 21:52:55",1689029575426,1,"10/07/2023 23:52:55",137495,33,"task-o9u1",NA,30604302,9086484,NA,"complete",NA,NA,"computer","Desktop or Laptop","Windows 10","Edge 114.0.1823.67","1536x864","1147x603",NA,NA,NA,"JV Task P2",11,"Anxious",NA,"In",NA,NA,"HIGJFKEADBC",NA,NA,"B (MDot First)",2,321,"SS1","SS1",17,"J","Judginess","y8ii7g",1,"continue","",3854.29799971389,3849.18700000001,3854.29799971389,3854.29799971389,3849.18700000001,3854.29799971389,1,3854.29799971389,0,0,NA,"Click To Continue","Continue Button",1,"object-14","J","CFD-WM-025-002-H.jpeg",NA,"SUPTM16544"
"84",1689025975426,"10/07/2023 21:52:55",1689029575426,1,"10/07/2023 23:52:55",137495,33,"task-o9u1",NA,30604302,9086484,NA,"complete",NA,NA,"computer","Desktop or Laptop","Windows 10","Edge 114.0.1823.67","1536x864","1147x603",NA,NA,NA,"JV Task P2",11,"Anxious",NA,"In",NA,NA,"HIGJFKEADBC",NA,NA,"B (MDot First)",2,321,"SS1","SS1",17,"J","Judginess","y8ii7g",1,"response","85",2865.94899999999,3849.18700000001,3854.89800009536,2865.94899999999,3849.18700000001,3854.89800009536,1,2865.94899999999,988.949000095367,0,NA,"Slider","J",3,"object-18","J","CFD-WM-025-002-H.jpeg",NA,"SUPTM16544"
"85",1689025976388,"10/07/2023 21:52:56",1689029576388,1,"10/07/2023 23:52:56",137495,33,"task-o9u1",NA,30604302,9086484,NA,"complete",NA,NA,"computer","Desktop or Laptop","Windows 10","Edge 114.0.1823.67","1536x864","1147x603",NA,NA,NA,"JV Task P2",11,"Anxious",NA,"In",NA,NA,"HIGJFKEADBC",NA,NA,"B (MDot First)",2,321,"SS1","SS1",17,"J","Fixation","w9zir9",2,"continue","",966.800999999978,966.800999999978,966.800999999978,966.800999999978,966.800999999978,966.800999999978,1,966.800999999978,0,0,NA,"Fixation Timing","Fixation",1,"object-65","J","CFD-WM-025-002-H.jpeg",NA,"SUPTM16544"
"86",1689025979678,"10/07/2023 21:52:59",1689029579678,1,"10/07/2023 23:52:59",137495,33,"task-o9u1",NA,30604302,9086484,NA,"complete",NA,NA,"computer","Desktop or Laptop","Windows 10","Edge 114.0.1823.67","1536x864","1147x603",NA,NA,NA,"JV Task P2",11,"Anxious",NA,"In",NA,NA,"HIGJFKEADBC",NA,NA,"B (MDot First)",2,321,"SS1","SS1",18,"J","Judginess","y8ii7g",1,"continue","",3290.41000009538,3283.09700000001,3290.41000009538,3290.41000009538,3283.09700000001,3290.41000009538,1,3290.41000009538,0,0,NA,"Click To Continue","Continue Button",1,"object-14","J","CFD-AF-233-190-H.jpeg",NA,"SUPTM16544"
"87",1689025979678,"10/07/2023 21:52:59",1689029579678,1,"10/07/2023 23:52:59",137495,33,"task-o9u1",NA,30604302,9086484,NA,"complete",NA,NA,"computer","Desktop or Laptop","Windows 10","Edge 114.0.1823.67","1536x864","1147x603",NA,NA,NA,"JV Task P2",11,"Anxious",NA,"In",NA,NA,"HIGJFKEADBC",NA,NA,"B (MDot First)",2,321,"SS1","SS1",18,"J","Judginess","y8ii7g",1,"response","95",2316.5,3283.09700000001,3291.10999990464,2316.5,3283.09700000001,3291.10999990464,1,2316.5,974.609999904642,0,NA,"Slider","J",3,"object-18","J","CFD-AF-233-190-H.jpeg",NA,"SUPTM16544"
"88",1689025980638,"10/07/2023 21:53:00",1689029580638,1,"10/07/2023 23:53:00",137495,33,"task-o9u1",NA,30604302,9086484,NA,"complete",NA,NA,"computer","Desktop or Laptop","Windows 10","Edge 114.0.1823.67","1536x864","1147x603",NA,NA,NA,"JV Task P2",11,"Anxious",NA,"In",NA,NA,"HIGJFKEADBC",NA,NA,"B (MDot First)",2,321,"SS1","SS1",18,"J","Fixation","w9zir9",2,"continue","",966.377999999997,966.377999999997,966.377999999997,966.377999999997,966.377999999997,966.377999999997,1,966.377999999997,0,0,NA,"Fixation Timing","Fixation",1,"object-65","J","CFD-AF-233-190-H.jpeg",NA,"SUPTM16544"
"89",1689025985198,"10/07/2023 21:53:05",1689029585198,1,"10/07/2023 23:53:05",137495,33,"task-o9u1",NA,30604302,9086484,NA,"complete",NA,NA,"computer","Desktop or Laptop","Windows 10","Edge 114.0.1823.67","1536x864","1147x603",NA,NA,NA,"JV Task P2",11,"Anxious",NA,"In",NA,NA,"HIGJFKEADBC",NA,NA,"B (MDot First)",2,321,"SS1","SS1",19,"J","Judginess","y8ii7g",1,"continue","",4560.73499980927,4549.59100000001,4560.73499980927,4560.73499980927,4549.59100000001,4560.73499980927,1,4560.73499980927,0,0,NA,"Click To Continue","Continue Button",1,"object-14","J","CFD-AM-225-102-N.jpg",NA,"SUPTM16544"
"90",1689025985198,"10/07/2023 21:53:05",1689029585198,1,"10/07/2023 23:53:05",137495,33,"task-o9u1",NA,30604302,9086484,NA,"complete",NA,NA,"computer","Desktop or Laptop","Windows 10","Edge 114.0.1823.67","1536x864","1147x603",NA,NA,NA,"JV Task P2",11,"Anxious",NA,"In",NA,NA,"HIGJFKEADBC",NA,NA,"B (MDot First)",2,321,"SS1","SS1",19,"J","Judginess","y8ii7g",1,"response","21",3699.60000000001,4549.59100000001,4561.3349997139,3699.60000000001,4549.59100000001,4561.3349997139,1,3699.60000000001,861.734999713895,0,NA,"Slider","J",3,"object-18","J","CFD-AM-225-102-N.jpg",NA,"SUPTM16544"
"91",1689025986154,"10/07/2023 21:53:06",1689029586154,1,"10/07/2023 23:53:06",137495,33,"task-o9u1",NA,30604302,9086484,NA,"complete",NA,NA,"computer","Desktop or Laptop","Windows 10","Edge 114.0.1823.67","1536x864","1147x603",NA,NA,NA,"JV Task P2",11,"Anxious",NA,"In",NA,NA,"HIGJFKEADBC",NA,NA,"B (MDot First)",2,321,"SS1","SS1",19,"J","Fixation","w9zir9",2,"continue","",966.436999999976,966.436999999976,966.436999999976,966.436999999976,966.436999999976,966.436999999976,1,966.436999999976,0,0,NA,"Fixation Timing","Fixation",1,"object-65","J","CFD-AM-225-102-N.jpg",NA,"SUPTM16544"
"92",1689025989709,"10/07/2023 21:53:09",1689029589709,1,"10/07/2023 23:53:09",137495,33,"task-o9u1",NA,30604302,9086484,NA,"complete",NA,NA,"computer","Desktop or Laptop","Windows 10","Edge 114.0.1823.67","1536x864","1147x603",NA,NA,NA,"JV Task P2",11,"Anxious",NA,"In",NA,NA,"HIGJFKEADBC",NA,NA,"B (MDot First)",2,321,"SS1","SS1",20,"J","Judginess","y8ii7g",1,"continue","",3555.90700009538,3549.40400000001,3555.90700009538,3555.90700009538,3549.40400000001,3555.90700009538,1,3555.90700009538,0,0,NA,"Click To Continue","Continue Button",1,"object-14","J","CFD-BM-028-002-N.jpg",NA,"SUPTM16544"
"93",1689025989710,"10/07/2023 21:53:09",1689029589710,1,"10/07/2023 23:53:09",137495,33,"task-o9u1",NA,30604302,9086484,NA,"complete",NA,NA,"computer","Desktop or Laptop","Windows 10","Edge 114.0.1823.67","1536x864","1147x603",NA,NA,NA,"JV Task P2",11,"Anxious",NA,"In",NA,NA,"HIGJFKEADBC",NA,NA,"B (MDot First)",2,321,"SS1","SS1",20,"J","Judginess","y8ii7g",1,"response","72",2366.49100000001,3549.40400000001,3556.70699980928,2366.49100000001,3549.40400000001,3556.70699980928,1,2366.49100000001,1190.21599980927,0,NA,"Slider","J",3,"object-18","J","CFD-BM-028-002-N.jpg",NA,"SUPTM16544"
"94",1689025990671,"10/07/2023 21:53:10",1689029590671,1,"10/07/2023 23:53:10",137495,33,"task-o9u1",NA,30604302,9086484,NA,"complete",NA,NA,"computer","Desktop or Laptop","Windows 10","Edge 114.0.1823.67","1536x864","1147x603",NA,NA,NA,"JV Task P2",11,"Anxious",NA,"In",NA,NA,"HIGJFKEADBC",NA,NA,"B (MDot First)",2,321,"SS1","SS1",20,"J","Fixation","w9zir9",2,"continue","",966.915000000008,966.915000000008,966.915000000008,966.915000000008,966.915000000008,966.915000000008,1,966.915000000008,0,0,NA,"Fixation Timing","Fixation",1,"object-65","J","CFD-BM-028-002-N.jpg",NA,"SUPTM16544"
"95",1689025994729,"10/07/2023 21:53:14",1689029594729,1,"10/07/2023 23:53:14",137495,33,"task-o9u1",NA,30604302,9086484,NA,"complete",NA,NA,"computer","Desktop or Laptop","Windows 10","Edge 114.0.1823.67","1536x864","1147x603",NA,NA,NA,"JV Task P2",11,"Anxious",NA,"In",NA,NA,"HIGJFKEADBC",NA,NA,"B (MDot First)",2,321,"SS1","SS1",21,"J","Judginess","y8ii7g",1,"continue","",4059.98799971389,4049.09,4059.98799971389,4059.98799971389,4049.09,4059.98799971389,1,4059.98799971389,0,0,NA,"Click To Continue","Continue Button",1,"object-14","J","CFD-WF-027-003-N.jpg",NA,"SUPTM16544"
"96",1689025994730,"10/07/2023 21:53:14",1689029594730,1,"10/07/2023 23:53:14",137495,33,"task-o9u1",NA,30604302,9086484,NA,"complete",NA,NA,"computer","Desktop or Laptop","Windows 10","Edge 114.0.1823.67","1536x864","1147x603",NA,NA,NA,"JV Task P2",11,"Anxious",NA,"In",NA,NA,"HIGJFKEADBC",NA,NA,"B (MDot First)",2,321,"SS1","SS1",21,"J","Judginess","y8ii7g",1,"response","59",3082.883,4049.09,4060.38799980926,3082.883,4049.09,4060.38799980926,1,3082.883,977.504999809258,0,NA,"Slider","J",3,"object-18","J","CFD-WF-027-003-N.jpg",NA,"SUPTM16544"
"97",1689025995686,"10/07/2023 21:53:15",1689029595686,1,"10/07/2023 23:53:15",137495,33,"task-o9u1",NA,30604302,9086484,NA,"complete",NA,NA,"computer","Desktop or Laptop","Windows 10","Edge 114.0.1823.67","1536x864","1147x603",NA,NA,NA,"JV Task P2",11,"Anxious",NA,"In",NA,NA,"HIGJFKEADBC",NA,NA,"B (MDot First)",2,321,"SS1","SS1",21,"J","Fixation","w9zir9",2,"continue","",966.937999999995,966.937999999995,966.937999999995,966.937999999995,966.937999999995,966.937999999995,1,966.937999999995,0,0,NA,"Fixation Timing","Fixation",1,"object-65","J","CFD-WF-027-003-N.jpg",NA,"SUPTM16544"
"98",1689026003022,"10/07/2023 21:53:23",1689029603022,1,"10/07/2023 23:53:23",137495,33,"task-o9u1",NA,30604302,9086484,NA,"complete",NA,NA,"computer","Desktop or Laptop","Windows 10","Edge 114.0.1823.67","1536x864","1147x603",NA,NA,NA,"JV Task P2",11,"Anxious",NA,"In",NA,NA,"HIGJFKEADBC",NA,NA,"B (MDot First)",2,321,"SS1","SS1",12,"V","Valence","xyoebq",1,"continue","",7336.56000009537,7332.10399999999,7336.56000009537,7336.56000009537,7332.10399999999,7336.56000009537,1,7336.56000009537,0,0,NA,"Click To Continue","Continue Button",1,"object-25","V","CFD-BF-029-031-S.jpeg",NA,"SUPTM16544"
"99",1689026003026,"10/07/2023 21:53:23",1689029603026,1,"10/07/2023 23:53:23",137495,33,"task-o9u1",NA,30604302,9086484,NA,"complete",NA,NA,"computer","Desktop or Laptop","Windows 10","Edge 114.0.1823.67","1536x864","1147x603",NA,NA,NA,"JV Task P2",11,"Anxious",NA,"In",NA,NA,"HIGJFKEADBC",NA,NA,"B (MDot First)",2,321,"SS1","SS1",12,"V","Valence","xyoebq",1,"response","23",5015.71400000001,7332.10399999999,7340.75999990464,5015.71400000001,7332.10399999999,7340.75999990464,1,5015.71400000001,2325.04599990463,0,NA,"Slider","J",3,"object-27","V","CFD-BF-029-031-S.jpeg",NA,"SUPTM16544"
"100",1689026003985,"10/07/2023 21:53:23",1689029603985,1,"10/07/2023 23:53:23",137495,33,"task-o9u1",NA,30604302,9086484,NA,"complete",NA,NA,"computer","Desktop or Laptop","Windows 10","Edge 114.0.1823.67","1536x864","1147x603",NA,NA,NA,"JV Task P2",11,"Anxious",NA,"In",NA,NA,"HIGJFKEADBC",NA,NA,"B (MDot First)",2,321,"SS1","SS1",12,"V","Fixation","68owkj",2,"continue","",966.872000000003,966.872000000003,966.872000000003,966.872000000003,966.872000000003,966.872000000003,1,966.872000000003,0,0,NA,"Fixation Timing","Fixation",1,"object-21","V","CFD-BF-029-031-S.jpeg",NA,"SUPTM16544"
"101",1689026008078,"10/07/2023 21:53:28",1689029608078,1,"10/07/2023 23:53:28",137495,33,"task-o9u1",NA,30604302,9086484,NA,"complete",NA,NA,"computer","Desktop or Laptop","Windows 10","Edge 114.0.1823.67","1536x864","1147x603",NA,NA,NA,"JV Task P2",11,"Anxious",NA,"In",NA,NA,"HIGJFKEADBC",NA,NA,"B (MDot First)",2,321,"SS1","SS1",13,"V","Valence","xyoebq",1,"continue","",4093.38399980927,4082.53900000002,4093.38399980927,4093.38399980927,4082.53900000002,4093.38399980927,1,4093.38399980927,0,0,NA,"Click To Continue","Continue Button",1,"object-25","V","CFD-WM-019-003-H.jpeg",NA,"SUPTM16544"
"102",1689026008078,"10/07/2023 21:53:28",1689029608078,1,"10/07/2023 23:53:28",137495,33,"task-o9u1",NA,30604302,9086484,NA,"complete",NA,NA,"computer","Desktop or Laptop","Windows 10","Edge 114.0.1823.67","1536x864","1147x603",NA,NA,NA,"JV Task P2",11,"Anxious",NA,"In",NA,NA,"HIGJFKEADBC",NA,NA,"B (MDot First)",2,321,"SS1","SS1",13,"V","Valence","xyoebq",1,"response","84",3216.274,4082.53900000002,4093.98399971391,3216.274,4082.53900000002,4093.98399971391,1,3216.274,877.709999713901,0,NA,"Slider","J",3,"object-27","V","CFD-WM-019-003-H.jpeg",NA,"SUPTM16544"
"103",1689026009034,"10/07/2023 21:53:29",1689029609034,1,"10/07/2023 23:53:29",137495,33,"task-o9u1",NA,30604302,9086484,NA,"complete",NA,NA,"computer","Desktop or Laptop","Windows 10","Edge 114.0.1823.67","1536x864","1147x603",NA,NA,NA,"JV Task P2",11,"Anxious",NA,"In",NA,NA,"HIGJFKEADBC",NA,NA,"B (MDot First)",2,321,"SS1","SS1",13,"V","Fixation","68owkj",2,"continue","",966.842999999993,966.842999999993,966.842999999993,966.842999999993,966.842999999993,966.842999999993,1,966.842999999993,0,0,NA,"Fixation Timing","Fixation",1,"object-21","V","CFD-WM-019-003-H.jpeg",NA,"SUPTM16544"
"104",1689026012286,"10/07/2023 21:53:32",1689029612286,1,"10/07/2023 23:53:32",137495,33,"task-o9u1",NA,30604302,9086484,NA,"complete",NA,NA,"computer","Desktop or Laptop","Windows 10","Edge 114.0.1823.67","1536x864","1147x603",NA,NA,NA,"JV Task P2",11,"Anxious",NA,"In",NA,NA,"HIGJFKEADBC",NA,NA,"B (MDot First)",2,321,"SS1","SS1",14,"V","Valence","xyoebq",1,"continue","",3252.60199971389,3249.33799999999,3252.60199971389,3252.60199971389,3249.33799999999,3252.60199971389,1,3252.60199971389,0,0,NA,"Click To Continue","Continue Button",1,"object-25","V","CFD-BF-029-031-N.jpg",NA,"SUPTM16544"
"105",1689026012287,"10/07/2023 21:53:32",1689029612287,1,"10/07/2023 23:53:32",137495,33,"task-o9u1",NA,30604302,9086484,NA,"complete",NA,NA,"computer","Desktop or Laptop","Windows 10","Edge 114.0.1823.67","1536x864","1147x603",NA,NA,NA,"JV Task P2",11,"Anxious",NA,"In",NA,NA,"HIGJFKEADBC",NA,NA,"B (MDot First)",2,321,"SS1","SS1",14,"V","Valence","xyoebq",1,"response","24",2399.70699999999,3249.33799999999,3253.50199980926,2399.70699999999,3249.33799999999,3253.50199980926,1,2399.70699999999,853.794999809266,0,NA,"Slider","J",3,"object-27","V","CFD-BF-029-031-N.jpg",NA,"SUPTM16544"
"106",1689026013250,"10/07/2023 21:53:33",1689029613250,1,"10/07/2023 23:53:33",137495,33,"task-o9u1",NA,30604302,9086484,NA,"complete",NA,NA,"computer","Desktop or Laptop","Windows 10","Edge 114.0.1823.67","1536x864","1147x603",NA,NA,NA,"JV Task P2",11,"Anxious",NA,"In",NA,NA,"HIGJFKEADBC",NA,NA,"B (MDot First)",2,321,"SS1","SS1",14,"V","Fixation","68owkj",2,"continue","",966.769,966.769,966.769,966.769,966.769,966.769,1,966.769,0,0,NA,"Fixation Timing","Fixation",1,"object-21","V","CFD-BF-029-031-N.jpg",NA,"SUPTM16544"
"107",1689026017785,"10/07/2023 21:53:37",1689029617785,1,"10/07/2023 23:53:37",137495,33,"task-o9u1",NA,30604302,9086484,NA,"complete",NA,NA,"computer","Desktop or Laptop","Windows 10","Edge 114.0.1823.67","1536x864","1147x603",NA,NA,NA,"JV Task P2",11,"Anxious",NA,"In",NA,NA,"HIGJFKEADBC",NA,NA,"B (MDot First)",2,321,"SS1","SS1",15,"V","Valence","xyoebq",1,"continue","",4535.19500000001,4532.478,4535.19500000001,4535.19500000001,4532.478,4535.19500000001,1,4535.19500000001,0,0,NA,"Click To Continue","Continue Button",1,"object-25","V","CFD-WF-030-002-S.jpeg",NA,"SUPTM16544"
"108",1689026017785,"10/07/2023 21:53:37",1689029617785,1,"10/07/2023 23:53:37",137495,33,"task-o9u1",NA,30604302,9086484,NA,"complete",NA,NA,"computer","Desktop or Laptop","Windows 10","Edge 114.0.1823.67","1536x864","1147x603",NA,NA,NA,"JV Task P2",11,"Anxious",NA,"In",NA,NA,"HIGJFKEADBC",NA,NA,"B (MDot First)",2,321,"SS1","SS1",15,"V","Valence","xyoebq",1,"response","33",3899.421,4532.478,4535.69500000001,3899.421,4532.478,4535.69500000001,1,3899.421,636.274000000005,0,NA,"Slider","J",3,"object-27","V","CFD-WF-030-002-S.jpeg",NA,"SUPTM16544"
"109",1689026018756,"10/07/2023 21:53:38",1689029618756,1,"10/07/2023 23:53:38",137495,33,"task-o9u1",NA,30604302,9086484,NA,"complete",NA,NA,"computer","Desktop or Laptop","Windows 10","Edge 114.0.1823.67","1536x864","1147x603",NA,NA,NA,"JV Task P2",11,"Anxious",NA,"In",NA,NA,"HIGJFKEADBC",NA,NA,"B (MDot First)",2,321,"SS1","SS1",15,"V","Fixation","68owkj",2,"continue","",966.929999999993,966.929999999993,966.929999999993,966.929999999993,966.929999999993,966.929999999993,1,966.929999999993,0,0,NA,"Fixation Timing","Fixation",1,"object-21","V","CFD-WF-030-002-S.jpeg",NA,"SUPTM16544"
"110",1689026022988,"10/07/2023 21:53:42",1689029622988,1,"10/07/2023 23:53:42",137495,33,"task-o9u1",NA,30604302,9086484,NA,"complete",NA,NA,"computer","Desktop or Laptop","Windows 10","Edge 114.0.1823.67","1536x864","1147x603",NA,NA,NA,"JV Task P2",11,"Anxious",NA,"In",NA,NA,"HIGJFKEADBC",NA,NA,"B (MDot First)",2,321,"SS1","SS1",16,"V","Valence","xyoebq",1,"continue","",4232.87300000002,4216.19100000002,4232.87300000002,4232.87300000002,4216.19100000002,4232.87300000002,1,4232.87300000002,0,0,NA,"Click To Continue","Continue Button",1,"object-25","V","CFD-WM-001-014-S.jpeg",NA,"SUPTM16544"
"111",1689026022989,"10/07/2023 21:53:42",1689029622989,1,"10/07/2023 23:53:42",137495,33,"task-o9u1",NA,30604302,9086484,NA,"complete",NA,NA,"computer","Desktop or Laptop","Windows 10","Edge 114.0.1823.67","1536x864","1147x603",NA,NA,NA,"JV Task P2",11,"Anxious",NA,"In",NA,NA,"HIGJFKEADBC",NA,NA,"B (MDot First)",2,321,"SS1","SS1",16,"V","Valence","xyoebq",1,"response","30",3582.902,4216.19100000002,4232.87300000002,3582.902,4216.19100000002,4232.87300000002,1,3582.902,649.97100000002,0,NA,"Slider","J",3,"object-27","V","CFD-WM-001-014-S.jpeg",NA,"SUPTM16544"
"112",1689026023938,"10/07/2023 21:53:43",1689029623938,1,"10/07/2023 23:53:43",137495,33,"task-o9u1",NA,30604302,9086484,NA,"complete",NA,NA,"computer","Desktop or Laptop","Windows 10","Edge 114.0.1823.67","1536x864","1147x603",NA,NA,NA,"JV Task P2",11,"Anxious",NA,"In",NA,NA,"HIGJFKEADBC",NA,NA,"B (MDot First)",2,321,"SS1","SS1",16,"V","Fixation","68owkj",2,"continue","",966.443999999989,966.443999999989,966.443999999989,966.443999999989,966.443999999989,966.443999999989,1,966.443999999989,0,0,NA,"Fixation Timing","Fixation",1,"object-21","V","CFD-WM-001-014-S.jpeg",NA,"SUPTM16544"
"113",1689026028962,"10/07/2023 21:53:48",1689029628962,1,"10/07/2023 23:53:48",137495,33,"task-o9u1",NA,30604302,9086484,NA,"complete",NA,NA,"computer","Desktop or Laptop","Windows 10","Edge 114.0.1823.67","1536x864","1147x603",NA,NA,NA,"JV Task P2",11,"Anxious",NA,"In",NA,NA,"HIGJFKEADBC",NA,NA,"B (MDot First)",2,321,"SS1","SS1",22,"J","Judginess","y8ii7g",1,"continue","",5024.152,5015.978,5024.152,5024.152,5015.978,5024.152,1,5024.152,0,0,NA,"Click To Continue","Continue Button",1,"object-14","J","CFD-WF-039-025-N.jpg",NA,"SUPTM16544"
"114",1689026028962,"10/07/2023 21:53:48",1689029628962,1,"10/07/2023 23:53:48",137495,33,"task-o9u1",NA,30604302,9086484,NA,"complete",NA,NA,"computer","Desktop or Laptop","Windows 10","Edge 114.0.1823.67","1536x864","1147x603",NA,NA,NA,"JV Task P2",11,"Anxious",NA,"In",NA,NA,"HIGJFKEADBC",NA,NA,"B (MDot First)",2,321,"SS1","SS1",22,"J","Judginess","y8ii7g",1,"response","7",2816.005,5015.978,5024.75199990463,2816.005,5015.978,5024.75199990463,1,2816.005,2208.74699990463,0,NA,"Slider","J",3,"object-18","J","CFD-WF-039-025-N.jpg",NA,"SUPTM16544"
"115",1689026029921,"10/07/2023 21:53:49",1689029629921,1,"10/07/2023 23:53:49",137495,33,"task-o9u1",NA,30604302,9086484,NA,"complete",NA,NA,"computer","Desktop or Laptop","Windows 10","Edge 114.0.1823.67","1536x864","1147x603",NA,NA,NA,"JV Task P2",11,"Anxious",NA,"In",NA,NA,"HIGJFKEADBC",NA,NA,"B (MDot First)",2,321,"SS1","SS1",22,"J","Fixation","w9zir9",2,"continue","",966.592999999993,966.592999999993,966.592999999993,966.592999999993,966.592999999993,966.592999999993,1,966.592999999993,0,0,NA,"Fixation Timing","Fixation",1,"object-65","J","CFD-WF-039-025-N.jpg",NA,"SUPTM16544"
"116",1689026036443,"10/07/2023 21:53:56",1689029636443,1,"10/07/2023 23:53:56",137495,33,"task-o9u1",NA,30604302,9086484,NA,"complete",NA,NA,"computer","Desktop or Laptop","Windows 10","Edge 114.0.1823.67","1536x864","1147x603",NA,NA,NA,"JV Task P2",11,"Anxious",NA,"In",NA,NA,"HIGJFKEADBC",NA,NA,"B (MDot First)",2,321,"SS1","SS1",17,"V","Valence","xyoebq",1,"continue","",6522.58100000001,6515.89300000001,6522.58100000001,6522.58100000001,6515.89300000001,6522.58100000001,1,6522.58100000001,0,0,NA,"Click To Continue","Continue Button",1,"object-25","V","CFD-AM-225-102-N.jpg",NA,"SUPTM16544"
"117",1689026036448,"10/07/2023 21:53:56",1689029636448,1,"10/07/2023 23:53:56",137495,33,"task-o9u1",NA,30604302,9086484,NA,"complete",NA,NA,"computer","Desktop or Laptop","Windows 10","Edge 114.0.1823.67","1536x864","1147x603",NA,NA,NA,"JV Task P2",11,"Anxious",NA,"In",NA,NA,"HIGJFKEADBC",NA,NA,"B (MDot First)",2,321,"SS1","SS1",17,"V","Valence","xyoebq",1,"response","30",5249.49900000001,6515.89300000001,6527.48100009537,5249.49900000001,6515.89300000001,6527.48100009537,1,5249.49900000001,1277.98200009536,0,NA,"Slider","J",3,"object-27","V","CFD-AM-225-102-N.jpg",NA,"SUPTM16544"
"118",1689026037403,"10/07/2023 21:53:57",1689029637403,1,"10/07/2023 23:53:57",137495,33,"task-o9u1",NA,30604302,9086484,NA,"complete",NA,NA,"computer","Desktop or Laptop","Windows 10","Edge 114.0.1823.67","1536x864","1147x603",NA,NA,NA,"JV Task P2",11,"Anxious",NA,"In",NA,NA,"HIGJFKEADBC",NA,NA,"B (MDot First)",2,321,"SS1","SS1",17,"V","Fixation","68owkj",2,"continue","",966.673999999999,966.673999999999,966.673999999999,966.673999999999,966.673999999999,966.673999999999,1,966.673999999999,0,0,NA,"Fixation Timing","Fixation",1,"object-21","V","CFD-AM-225-102-N.jpg",NA,"SUPTM16544"
"119",1689026041474,"10/07/2023 21:54:01",1689029641474,1,"10/07/2023 23:54:01",137495,33,"task-o9u1",NA,30604302,9086484,NA,"complete",NA,NA,"computer","Desktop or Laptop","Windows 10","Edge 114.0.1823.67","1536x864","1147x603",NA,NA,NA,"JV Task P2",11,"Anxious",NA,"In",NA,NA,"HIGJFKEADBC",NA,NA,"B (MDot First)",2,321,"SS1","SS1",23,"J","Judginess","y8ii7g",1,"continue","",4063.31399971389,4049.31,4063.31399971389,4063.31399971389,4049.31,4063.31399971389,1,4063.31399971389,0,0,NA,"Click To Continue","Continue Button",1,"object-14","J","CFD-WM-028-003-S.jpeg",NA,"SUPTM16544"
"120",1689026042306,"10/07/2023 21:54:02",1689029642306,1,"10/07/2023 23:54:02",137495,33,"task-o9u1",NA,30604302,9086484,NA,"complete",NA,NA,"computer","Desktop or Laptop","Windows 10","Edge 114.0.1823.67","1536x864","1147x603",NA,NA,NA,"JV Task P2",11,"Anxious",NA,"In",NA,NA,"HIGJFKEADBC",NA,NA,"B (MDot First)",2,321,"SS1","SS1",23,"J","Judginess","y8ii7g",1,"continue","",4903.514,4899.36199999999,4903.514,4903.514,4899.36199999999,4903.514,1,4903.514,0,0,NA,"Click To Continue","Continue Button",1,"object-14","J","CFD-WM-028-003-S.jpeg",NA,"SUPTM16544"
"121",1689026045268,"10/07/2023 21:54:05",1689029645268,1,"10/07/2023 23:54:05",137495,33,"task-o9u1",NA,30604302,9086484,NA,"complete",NA,NA,"computer","Desktop or Laptop","Windows 10","Edge 114.0.1823.67","1536x864","1147x603",NA,NA,NA,"JV Task P2",11,"Anxious",NA,"In",NA,NA,"HIGJFKEADBC",NA,NA,"B (MDot First)",2,321,"SS1","SS1",23,"J","Judginess","y8ii7g",1,"continue","",7865.21399980926,7848.91399999999,7865.21399980926,7865.21399980926,7848.91399999999,7865.21399980926,1,7865.21399980926,0,0,NA,"Click To Continue","Continue Button",1,"object-14","J","CFD-WM-028-003-S.jpeg",NA,"SUPTM16544"
"122",1689026045269,"10/07/2023 21:54:05",1689029645269,1,"10/07/2023 23:54:05",137495,33,"task-o9u1",NA,30604302,9086484,NA,"complete",NA,NA,"computer","Desktop or Laptop","Windows 10","Edge 114.0.1823.67","1536x864","1147x603",NA,NA,NA,"JV Task P2",11,"Anxious",NA,"In",NA,NA,"HIGJFKEADBC",NA,NA,"B (MDot First)",2,321,"SS1","SS1",23,"J","Judginess","y8ii7g",1,"response","51",6582.52299999999,7848.91399999999,7865.82699999999,6582.52299999999,7848.91399999999,7865.82699999999,1,6582.52299999999,1283.304,0,NA,"Slider","J",3,"object-18","J","CFD-WM-028-003-S.jpeg",NA,"SUPTM16544"
"123",1689026046220,"10/07/2023 21:54:06",1689029646220,1,"10/07/2023 23:54:06",137495,33,"task-o9u1",NA,30604302,9086484,NA,"complete",NA,NA,"computer","Desktop or Laptop","Windows 10","Edge 114.0.1823.67","1536x864","1147x603",NA,NA,NA,"JV Task P2",11,"Anxious",NA,"In",NA,NA,"HIGJFKEADBC",NA,NA,"B (MDot First)",2,321,"SS1","SS1",23,"J","Fixation","w9zir9",2,"continue","",966.687999999995,966.687999999995,966.687999999995,966.687999999995,966.687999999995,966.687999999995,1,966.687999999995,0,0,NA,"Fixation Timing","Fixation",1,"object-65","J","CFD-WM-028-003-S.jpeg",NA,"SUPTM16544"
"124",1689026051594,"10/07/2023 21:54:11",1689029651594,1,"10/07/2023 23:54:11",137495,33,"task-o9u1",NA,30604302,9086484,NA,"complete",NA,NA,"computer","Desktop or Laptop","Windows 10","Edge 114.0.1823.67","1536x864","1147x603",NA,NA,NA,"JV Task P2",11,"Anxious",NA,"In",NA,NA,"HIGJFKEADBC",NA,NA,"B (MDot First)",2,321,"SS1","SS1",18,"V","Valence","xyoebq",1,"continue","",5376.01199990464,5365.71500000003,5376.01199990464,5376.01199990464,5365.71500000003,5376.01199990464,1,5376.01199990464,0,0,NA,"Click To Continue","Continue Button",1,"object-25","V","CFD-WM-035-032-H.jpeg",NA,"SUPTM16544"
"125",1689026051607,"10/07/2023 21:54:11",1689029651607,1,"10/07/2023 23:54:11",137495,33,"task-o9u1",NA,30604302,9086484,NA,"complete",NA,NA,"computer","Desktop or Laptop","Windows 10","Edge 114.0.1823.67","1536x864","1147x603",NA,NA,NA,"JV Task P2",11,"Anxious",NA,"In",NA,NA,"HIGJFKEADBC",NA,NA,"B (MDot First)",2,321,"SS1","SS1",18,"V","Valence","xyoebq",1,"response","90",2599.40100000001,5365.71500000003,5382.25400000004,2599.40100000001,5365.71500000003,5382.25400000004,1,2599.40100000001,2782.85300000003,0,NA,"Slider","J",3,"object-27","V","CFD-WM-035-032-H.jpeg",NA,"SUPTM16544"
"126",1689026052552,"10/07/2023 21:54:12",1689029652552,1,"10/07/2023 23:54:12",137495,33,"task-o9u1",NA,30604302,9086484,NA,"complete",NA,NA,"computer","Desktop or Laptop","Windows 10","Edge 114.0.1823.67","1536x864","1147x603",NA,NA,NA,"JV Task P2",11,"Anxious",NA,"In",NA,NA,"HIGJFKEADBC",NA,NA,"B (MDot First)",2,321,"SS1","SS1",18,"V","Fixation","68owkj",2,"continue","",966.568999999989,966.568999999989,966.568999999989,966.568999999989,966.568999999989,966.568999999989,1,966.568999999989,0,0,NA,"Fixation Timing","Fixation",1,"object-21","V","CFD-WM-035-032-H.jpeg",NA,"SUPTM16544"
"127",1689026056925,"10/07/2023 21:54:16",1689029656925,1,"10/07/2023 23:54:16",137495,33,"task-o9u1",NA,30604302,9086484,NA,"complete",NA,NA,"computer","Desktop or Laptop","Windows 10","Edge 114.0.1823.67","1536x864","1147x603",NA,NA,NA,"JV Task P2",11,"Anxious",NA,"In",NA,NA,"HIGJFKEADBC",NA,NA,"B (MDot First)",2,321,"SS1","SS1",24,"J","Judginess","y8ii7g",1,"continue","",4374.02800009536,4366.11900000001,4374.02800009536,4374.02800009536,4366.11900000001,4374.02800009536,1,4374.02800009536,0,0,NA,"Click To Continue","Continue Button",1,"object-14","J","CFD-BF-030-002-S.jpeg",NA,"SUPTM16544"
"128",1689026056925,"10/07/2023 21:54:16",1689029656925,1,"10/07/2023 23:54:16",137495,33,"task-o9u1",NA,30604302,9086484,NA,"complete",NA,NA,"computer","Desktop or Laptop","Windows 10","Edge 114.0.1823.67","1536x864","1147x603",NA,NA,NA,"JV Task P2",11,"Anxious",NA,"In",NA,NA,"HIGJFKEADBC",NA,NA,"B (MDot First)",2,321,"SS1","SS1",24,"J","Judginess","y8ii7g",1,"response","22",3199.90299999999,4366.11900000001,4374.628,3199.90299999999,4366.11900000001,4374.628,1,3199.90299999999,1174.72500000001,0,NA,"Slider","J",3,"object-18","J","CFD-BF-030-002-S.jpeg",NA,"SUPTM16544"
"129",1689026057885,"10/07/2023 21:54:17",1689029657885,1,"10/07/2023 23:54:17",137495,33,"task-o9u1",NA,30604302,9086484,NA,"complete",NA,NA,"computer","Desktop or Laptop","Windows 10","Edge 114.0.1823.67","1536x864","1147x603",NA,NA,NA,"JV Task P2",11,"Anxious",NA,"In",NA,NA,"HIGJFKEADBC",NA,NA,"B (MDot First)",2,321,"SS1","SS1",24,"J","Fixation","w9zir9",2,"continue","",966.878999999986,966.878999999986,966.878999999986,966.878999999986,966.878999999986,966.878999999986,1,966.878999999986,0,0,NA,"Fixation Timing","Fixation",1,"object-65","J","CFD-BF-030-002-S.jpeg",NA,"SUPTM16544"
"130",1689026061793,"10/07/2023 21:54:21",1689029661793,1,"10/07/2023 23:54:21",137495,33,"task-o9u1",NA,30604302,9086484,NA,"complete",NA,NA,"computer","Desktop or Laptop","Windows 10","Edge 114.0.1823.67","1536x864","1147x603",NA,NA,NA,"JV Task P2",11,"Anxious",NA,"In",NA,NA,"HIGJFKEADBC",NA,NA,"B (MDot First)",2,321,"SS1","SS1",19,"V","Valence","xyoebq",1,"continue","",3909.03000009537,3899.424,3909.03000009537,3909.03000009537,3899.424,3909.03000009537,1,3909.03000009537,0,0,NA,"Click To Continue","Continue Button",1,"object-25","V","CFD-WF-036-023-N.jpg",NA,"SUPTM16544"
"131",1689026061799,"10/07/2023 21:54:21",1689029661799,1,"10/07/2023 23:54:21",137495,33,"task-o9u1",NA,30604302,9086484,NA,"complete",NA,NA,"computer","Desktop or Laptop","Windows 10","Edge 114.0.1823.67","1536x864","1147x603",NA,NA,NA,"JV Task P2",11,"Anxious",NA,"In",NA,NA,"HIGJFKEADBC",NA,NA,"B (MDot First)",2,321,"SS1","SS1",19,"V","Valence","xyoebq",1,"response","39",2149.33800000002,3899.424,3915.13,2149.33800000002,3899.424,3915.13,1,2149.33800000002,1765.79199999999,0,NA,"Slider","J",3,"object-27","V","CFD-WF-036-023-N.jpg",NA,"SUPTM16544"
"132",1689026062750,"10/07/2023 21:54:22",1689029662750,1,"10/07/2023 23:54:22",137495,33,"task-o9u1",NA,30604302,9086484,NA,"complete",NA,NA,"computer","Desktop or Laptop","Windows 10","Edge 114.0.1823.67","1536x864","1147x603",NA,NA,NA,"JV Task P2",11,"Anxious",NA,"In",NA,NA,"HIGJFKEADBC",NA,NA,"B (MDot First)",2,321,"SS1","SS1",19,"V","Fixation","68owkj",2,"continue","",966.301999999996,966.301999999996,966.301999999996,966.301999999996,966.301999999996,966.301999999996,1,966.301999999996,0,0,NA,"Fixation Timing","Fixation",1,"object-21","V","CFD-WF-036-023-N.jpg",NA,"SUPTM16544"
"133",1689026068221,"10/07/2023 21:54:28",1689029668221,1,"10/07/2023 23:54:28",137495,33,"task-o9u1",NA,30604302,9086484,NA,"complete",NA,NA,"computer","Desktop or Laptop","Windows 10","Edge 114.0.1823.67","1536x864","1147x603",NA,NA,NA,"JV Task P2",11,"Anxious",NA,"In",NA,NA,"HIGJFKEADBC",NA,NA,"B (MDot First)",2,321,"SS1","SS1",25,"J","Judginess","y8ii7g",1,"continue","",5471.20399971391,5465.984,5471.20399971391,5471.20399971391,5465.984,5471.20399971391,1,5471.20399971391,0,0,NA,"Click To Continue","Continue Button",1,"object-14","J","CFD-WF-011-002-S.jpeg",NA,"SUPTM16544"
"134",1689026068221,"10/07/2023 21:54:28",1689029668221,1,"10/07/2023 23:54:28",137495,33,"task-o9u1",NA,30604302,9086484,NA,"complete",NA,NA,"computer","Desktop or Laptop","Windows 10","Edge 114.0.1823.67","1536x864","1147x603",NA,NA,NA,"JV Task P2",11,"Anxious",NA,"In",NA,NA,"HIGJFKEADBC",NA,NA,"B (MDot First)",2,321,"SS1","SS1",25,"J","Judginess","y8ii7g",1,"response","18",4483.14200000002,5465.984,5472.00399990464,4483.14200000002,5465.984,5472.00399990464,1,4483.14200000002,988.86199990462,0,NA,"Slider","J",3,"object-18","J","CFD-WF-011-002-S.jpeg",NA,"SUPTM16544"
"135",1689026069184,"10/07/2023 21:54:29",1689029669184,1,"10/07/2023 23:54:29",137495,33,"task-o9u1",NA,30604302,9086484,NA,"complete",NA,NA,"computer","Desktop or Laptop","Windows 10","Edge 114.0.1823.67","1536x864","1147x603",NA,NA,NA,"JV Task P2",11,"Anxious",NA,"In",NA,NA,"HIGJFKEADBC",NA,NA,"B (MDot First)",2,321,"SS1","SS1",25,"J","Fixation","w9zir9",2,"continue","",966.934000000008,966.934000000008,966.934000000008,966.934000000008,966.934000000008,966.934000000008,1,966.934000000008,0,0,NA,"Fixation Timing","Fixation",1,"object-65","J","CFD-WF-011-002-S.jpeg",NA,"SUPTM16544"
"136",1689026079616,"10/07/2023 21:54:39",1689029679616,1,"10/07/2023 23:54:39",137495,33,"task-o9u1",NA,30604302,9086484,NA,"complete",NA,NA,"computer","Desktop or Laptop","Windows 10","Edge 114.0.1823.67","1536x864","1147x603",NA,NA,NA,"JV Task P2",11,"Anxious",NA,"In",NA,NA,"HIGJFKEADBC",NA,NA,"B (MDot First)",2,321,"SS1","SS1",26,"J","Judginess","y8ii7g",1,"continue","",10442.7859997139,10431.938,10442.7859997139,10442.7859997139,10431.938,10442.7859997139,1,10442.7859997139,0,0,NA,"Click To Continue","Continue Button",1,"object-14","J","CFD-WF-037-029-N.jpg",NA,"SUPTM16544"
"137",1689026079626,"10/07/2023 21:54:39",1689029679626,1,"10/07/2023 23:54:39",137495,33,"task-o9u1",NA,30604302,9086484,NA,"complete",NA,NA,"computer","Desktop or Laptop","Windows 10","Edge 114.0.1823.67","1536x864","1147x603",NA,NA,NA,"JV Task P2",11,"Anxious",NA,"In",NA,NA,"HIGJFKEADBC",NA,NA,"B (MDot First)",2,321,"SS1","SS1",26,"J","Judginess","y8ii7g",1,"response","70",8965.27800000002,10431.938,10448.642,8965.27800000002,10431.938,10448.642,1,8965.27800000002,1483.36399999994,0,NA,"Slider","J",3,"object-18","J","CFD-WF-037-029-N.jpg",NA,"SUPTM16544"
"138",1689026080572,"10/07/2023 21:54:40",1689029680572,1,"10/07/2023 23:54:40",137495,33,"task-o9u1",NA,30604302,9086484,NA,"complete",NA,NA,"computer","Desktop or Laptop","Windows 10","Edge 114.0.1823.67","1536x864","1147x603",NA,NA,NA,"JV Task P2",11,"Anxious",NA,"In",NA,NA,"HIGJFKEADBC",NA,NA,"B (MDot First)",2,321,"SS1","SS1",26,"J","Fixation","w9zir9",2,"continue","",966.695000000007,966.695000000007,966.695000000007,966.695000000007,966.695000000007,966.695000000007,1,966.695000000007,0,0,NA,"Fixation Timing","Fixation",1,"object-65","J","CFD-WF-037-029-N.jpg",NA,"SUPTM16544"
"139",1689026084007,"10/07/2023 21:54:44",1689029684007,1,"10/07/2023 23:54:44",137495,33,"task-o9u1",NA,30604302,9086484,NA,"complete",NA,NA,"computer","Desktop or Laptop","Windows 10","Edge 114.0.1823.67","1536x864","1147x603",NA,NA,NA,"JV Task P2",11,"Anxious",NA,"In",NA,NA,"HIGJFKEADBC",NA,NA,"B (MDot First)",2,321,"SS1","SS1",27,"J","Judginess","y8ii7g",1,"continue","",3434.95299990464,3432.54499999998,3434.95299990464,3434.95299990464,3432.54499999998,3434.95299990464,1,3434.95299990464,0,0,NA,"Click To Continue","Continue Button",1,"object-14","J","CFD-WM-037-025-S.jpeg",NA,"SUPTM16544"
"140",1689026084007,"10/07/2023 21:54:44",1689029684007,1,"10/07/2023 23:54:44",137495,33,"task-o9u1",NA,30604302,9086484,NA,"complete",NA,NA,"computer","Desktop or Laptop","Windows 10","Edge 114.0.1823.67","1536x864","1147x603",NA,NA,NA,"JV Task P2",11,"Anxious",NA,"In",NA,NA,"HIGJFKEADBC",NA,NA,"B (MDot First)",2,321,"SS1","SS1",27,"J","Judginess","y8ii7g",1,"response","27",2633.01900000003,3432.54499999998,3435.45299990464,2633.01900000003,3432.54499999998,3435.45299990464,1,2633.01900000003,802.433999904606,0,NA,"Slider","J",3,"object-18","J","CFD-WM-037-025-S.jpeg",NA,"SUPTM16544"
"141",1689026084973,"10/07/2023 21:54:44",1689029684973,1,"10/07/2023 23:54:44",137495,33,"task-o9u1",NA,30604302,9086484,NA,"complete",NA,NA,"computer","Desktop or Laptop","Windows 10","Edge 114.0.1823.67","1536x864","1147x603",NA,NA,NA,"JV Task P2",11,"Anxious",NA,"In",NA,NA,"HIGJFKEADBC",NA,NA,"B (MDot First)",2,321,"SS1","SS1",27,"J","Fixation","w9zir9",2,"continue","",966.936000000045,966.936000000045,966.936000000045,966.936000000045,966.936000000045,966.936000000045,1,966.936000000045,0,0,NA,"Fixation Timing","Fixation",1,"object-65","J","CFD-WM-037-025-S.jpeg",NA,"SUPTM16544"
"142",1689026088678,"10/07/2023 21:54:48",1689029688678,1,"10/07/2023 23:54:48",137495,33,"task-o9u1",NA,30604302,9086484,NA,"complete",NA,NA,"computer","Desktop or Laptop","Windows 10","Edge 114.0.1823.67","1536x864","1147x603",NA,NA,NA,"JV Task P2",11,"Anxious",NA,"In",NA,NA,"HIGJFKEADBC",NA,NA,"B (MDot First)",2,321,"SS1","SS1",20,"V","Valence","xyoebq",1,"continue","",3707.07199980924,3699.18899999995,3707.07199980924,3707.07199980924,3699.18899999995,3707.07199980924,1,3707.07199980924,0,0,NA,"Click To Continue","Continue Button",1,"object-25","V","CFD-WM-036-031-S.jpeg",NA,"SUPTM16544"
"143",1689026088679,"10/07/2023 21:54:48",1689029688679,1,"10/07/2023 23:54:48",137495,33,"task-o9u1",NA,30604302,9086484,NA,"complete",NA,NA,"computer","Desktop or Laptop","Windows 10","Edge 114.0.1823.67","1536x864","1147x603",NA,NA,NA,"JV Task P2",11,"Anxious",NA,"In",NA,NA,"HIGJFKEADBC",NA,NA,"B (MDot First)",2,321,"SS1","SS1",20,"V","Valence","xyoebq",1,"response","40",2282.91999999998,3699.18899999995,3707.77200009534,2282.91999999998,3699.18899999995,3707.77200009534,1,2282.91999999998,1424.85200009536,0,NA,"Slider","J",3,"object-27","V","CFD-WM-036-031-S.jpeg",NA,"SUPTM16544"
"144",1689026089638,"10/07/2023 21:54:49",1689029689638,1,"10/07/2023 23:54:49",137495,33,"task-o9u1",NA,30604302,9086484,NA,"complete",NA,NA,"computer","Desktop or Laptop","Windows 10","Edge 114.0.1823.67","1536x864","1147x603",NA,NA,NA,"JV Task P2",11,"Anxious",NA,"In",NA,NA,"HIGJFKEADBC",NA,NA,"B (MDot First)",2,321,"SS1","SS1",20,"V","Fixation","68owkj",2,"continue","",966.785000000033,966.785000000033,966.785000000033,966.785000000033,966.785000000033,966.785000000033,1,966.785000000033,0,0,NA,"Fixation Timing","Fixation",1,"object-21","V","CFD-WM-036-031-S.jpeg",NA,"SUPTM16544"
"145",1689026094583,"10/07/2023 21:54:54",1689029694583,1,"10/07/2023 23:54:54",137495,33,"task-o9u1",NA,30604302,9086484,NA,"complete",NA,NA,"computer","Desktop or Laptop","Windows 10","Edge 114.0.1823.67","1536x864","1147x603",NA,NA,NA,"JV Task P2",11,"Anxious",NA,"In",NA,NA,"HIGJFKEADBC",NA,NA,"B (MDot First)",2,321,"SS1","SS1",21,"V","Valence","xyoebq",1,"continue","",4945.59799980925,4932.50799999997,4945.59799980925,4945.59799980925,4932.50799999997,4945.59799980925,1,4945.59799980925,0,0,NA,"Click To Continue","Continue Button",1,"object-25","V","CFD-WM-001-014-S.jpeg",NA,"SUPTM16544"
"146",1689026094583,"10/07/2023 21:54:54",1689029694583,1,"10/07/2023 23:54:54",137495,33,"task-o9u1",NA,30604302,9086484,NA,"complete",NA,NA,"computer","Desktop or Laptop","Windows 10","Edge 114.0.1823.67","1536x864","1147x603",NA,NA,NA,"JV Task P2",11,"Anxious",NA,"In",NA,NA,"HIGJFKEADBC",NA,NA,"B (MDot First)",2,321,"SS1","SS1",21,"V","Valence","xyoebq",1,"response","26",3816.24900000001,4932.50799999997,4946.09799980925,3816.24900000001,4932.50799999997,4946.09799980925,1,3816.24900000001,1129.84899980924,0,NA,"Slider","J",3,"object-27","V","CFD-WM-001-014-S.jpeg",NA,"SUPTM16544"
"147",1689026095537,"10/07/2023 21:54:55",1689029695537,1,"10/07/2023 23:54:55",137495,33,"task-o9u1",NA,30604302,9086484,NA,"complete",NA,NA,"computer","Desktop or Laptop","Windows 10","Edge 114.0.1823.67","1536x864","1147x603",NA,NA,NA,"JV Task P2",11,"Anxious",NA,"In",NA,NA,"HIGJFKEADBC",NA,NA,"B (MDot First)",2,321,"SS1","SS1",21,"V","Fixation","68owkj",2,"continue","",966.608000000007,966.608000000007,966.608000000007,966.608000000007,966.608000000007,966.608000000007,1,966.608000000007,0,0,NA,"Fixation Timing","Fixation",1,"object-21","V","CFD-WM-001-014-S.jpeg",NA,"SUPTM16544"
"148",1689026100382,"10/07/2023 21:55:00",1689029700382,1,"10/07/2023 23:55:00",137495,33,"task-o9u1",NA,30604302,9086484,NA,"complete",NA,NA,"computer","Desktop or Laptop","Windows 10","Edge 114.0.1823.67","1536x864","1147x603",NA,NA,NA,"JV Task P2",11,"Anxious",NA,"In",NA,NA,"HIGJFKEADBC",NA,NA,"B (MDot First)",2,321,"SS1","SS1",28,"J","Judginess","y8ii7g",1,"continue","",4845.88199990464,4833.07799999998,4845.88199990464,4845.88199990464,4833.07799999998,4845.88199990464,1,4845.88199990464,0,0,NA,"Click To Continue","Continue Button",1,"object-14","J","CFD-BF-008-001-H.jpeg",NA,"SUPTM16544"
"149",1689026100387,"10/07/2023 21:55:00",1689029700387,1,"10/07/2023 23:55:00",137495,33,"task-o9u1",NA,30604302,9086484,NA,"complete",NA,NA,"computer","Desktop or Laptop","Windows 10","Edge 114.0.1823.67","1536x864","1147x603",NA,NA,NA,"JV Task P2",11,"Anxious",NA,"In",NA,NA,"HIGJFKEADBC",NA,NA,"B (MDot First)",2,321,"SS1","SS1",28,"J","Judginess","y8ii7g",1,"response","71",3816.38300000003,4833.07799999998,4849.74899999995,3816.38300000003,4833.07799999998,4849.74899999995,1,3816.38300000003,1033.36599999992,0,NA,"Slider","J",3,"object-18","J","CFD-BF-008-001-H.jpeg",NA,"SUPTM16544"
"150",1689026101337,"10/07/2023 21:55:01",1689029701337,1,"10/07/2023 23:55:01",137495,33,"task-o9u1",NA,30604302,9086484,NA,"complete",NA,NA,"computer","Desktop or Laptop","Windows 10","Edge 114.0.1823.67","1536x864","1147x603",NA,NA,NA,"JV Task P2",11,"Anxious",NA,"In",NA,NA,"HIGJFKEADBC",NA,NA,"B (MDot First)",2,321,"SS1","SS1",28,"J","Fixation","w9zir9",2,"continue","",966.209000000032,966.209000000032,966.209000000032,966.209000000032,966.209000000032,966.209000000032,1,966.209000000032,0,0,NA,"Fixation Timing","Fixation",1,"object-65","J","CFD-BF-008-001-H.jpeg",NA,"SUPTM16544"
"151",1689026105343,"10/07/2023 21:55:05",1689029705343,1,"10/07/2023 23:55:05",137495,33,"task-o9u1",NA,30604302,9086484,NA,"complete",NA,NA,"computer","Desktop or Laptop","Windows 10","Edge 114.0.1823.67","1536x864","1147x603",NA,NA,NA,"JV Task P2",11,"Anxious",NA,"In",NA,NA,"HIGJFKEADBC",NA,NA,"B (MDot First)",2,321,"SS1","SS1",29,"J","Judginess","y8ii7g",1,"continue","",4007.79499971389,3999.54200000002,4007.79499971389,4007.79499971389,3999.54200000002,4007.79499971389,1,4007.79499971389,0,0,NA,"Click To Continue","Continue Button",1,"object-14","J","CFD-WM-034-030-H.jpeg",NA,"SUPTM16544"
"152",1689026105344,"10/07/2023 21:55:05",1689029705344,1,"10/07/2023 23:55:05",137495,33,"task-o9u1",NA,30604302,9086484,NA,"complete",NA,NA,"computer","Desktop or Laptop","Windows 10","Edge 114.0.1823.67","1536x864","1147x603",NA,NA,NA,"JV Task P2",11,"Anxious",NA,"In",NA,NA,"HIGJFKEADBC",NA,NA,"B (MDot First)",2,321,"SS1","SS1",29,"J","Judginess","y8ii7g",1,"response","26",2516.41599999997,3999.54200000002,4008.39500009536,2516.41599999997,3999.54200000002,4008.39500009536,1,2516.41599999997,1491.97900009539,0,NA,"Slider","J",3,"object-18","J","CFD-WM-034-030-H.jpeg",NA,"SUPTM16544"
"153",1689026106303,"10/07/2023 21:55:06",1689029706303,1,"10/07/2023 23:55:06",137495,33,"task-o9u1",NA,30604302,9086484,NA,"complete",NA,NA,"computer","Desktop or Laptop","Windows 10","Edge 114.0.1823.67","1536x864","1147x603",NA,NA,NA,"JV Task P2",11,"Anxious",NA,"In",NA,NA,"HIGJFKEADBC",NA,NA,"B (MDot First)",2,321,"SS1","SS1",29,"J","Fixation","w9zir9",2,"continue","",966.463999999978,966.463999999978,966.463999999978,966.463999999978,966.463999999978,966.463999999978,1,966.463999999978,0,0,NA,"Fixation Timing","Fixation",1,"object-65","J","CFD-WM-034-030-H.jpeg",NA,"SUPTM16544"
"154",1689026111932,"10/07/2023 21:55:11",1689029711932,1,"10/07/2023 23:55:11",137495,33,"task-o9u1",NA,30604302,9086484,NA,"complete",NA,NA,"computer","Desktop or Laptop","Windows 10","Edge 114.0.1823.67","1536x864","1147x603",NA,NA,NA,"JV Task P2",11,"Anxious",NA,"In",NA,NA,"HIGJFKEADBC",NA,NA,"B (MDot First)",2,321,"SS1","SS1",30,"J","Judginess","y8ii7g",1,"continue","",5630.489,5616.326,5630.489,5630.489,5616.326,5630.489,1,5630.489,0,0,NA,"Click To Continue","Continue Button",1,"object-14","J","CFD-AM-223-138-H.jpeg",NA,"SUPTM16544"
"155",1689026111938,"10/07/2023 21:55:11",1689029711938,1,"10/07/2023 23:55:11",137495,33,"task-o9u1",NA,30604302,9086484,NA,"complete",NA,NA,"computer","Desktop or Laptop","Windows 10","Edge 114.0.1823.67","1536x864","1147x603",NA,NA,NA,"JV Task P2",11,"Anxious",NA,"In",NA,NA,"HIGJFKEADBC",NA,NA,"B (MDot First)",2,321,"SS1","SS1",30,"J","Judginess","y8ii7g",1,"response","30",4382.93800000002,5616.326,5632.90600000002,4382.93800000002,5616.326,5632.90600000002,1,4382.93800000002,1249.96799999999,0,NA,"Slider","J",3,"object-18","J","CFD-AM-223-138-H.jpeg",NA,"SUPTM16544"
"156",1689026112886,"10/07/2023 21:55:12",1689029712886,1,"10/07/2023 23:55:12",137495,33,"task-o9u1",NA,30604302,9086484,NA,"complete",NA,NA,"computer","Desktop or Laptop","Windows 10","Edge 114.0.1823.67","1536x864","1147x603",NA,NA,NA,"JV Task P2",11,"Anxious",NA,"In",NA,NA,"HIGJFKEADBC",NA,NA,"B (MDot First)",2,321,"SS1","SS1",30,"J","Fixation","w9zir9",2,"continue","",966.608000000007,966.608000000007,966.608000000007,966.608000000007,966.608000000007,966.608000000007,1,966.608000000007,0,0,NA,"Fixation Timing","Fixation",1,"object-65","J","CFD-AM-223-138-H.jpeg",NA,"SUPTM16544"
"157",1689026116790,"10/07/2023 21:55:16",1689029716790,1,"10/07/2023 23:55:16",137495,33,"task-o9u1",NA,30604302,9086484,NA,"complete",NA,NA,"computer","Desktop or Laptop","Windows 10","Edge 114.0.1823.67","1536x864","1147x603",NA,NA,NA,"JV Task P2",11,"Anxious",NA,"In",NA,NA,"HIGJFKEADBC",NA,NA,"B (MDot First)",2,321,"SS1","SS1",22,"V","Valence","xyoebq",1,"continue","",3905.25499980926,3899.15299999999,3905.25499980926,3905.25499980926,3899.15299999999,3905.25499980926,1,3905.25499980926,0,0,NA,"Click To Continue","Continue Button",1,"object-25","V","CFD-BF-029-031-S.jpeg",NA,"SUPTM16544"
"158",1689026116790,"10/07/2023 21:55:16",1689029716790,1,"10/07/2023 23:55:16",137495,33,"task-o9u1",NA,30604302,9086484,NA,"complete",NA,NA,"computer","Desktop or Laptop","Windows 10","Edge 114.0.1823.67","1536x864","1147x603",NA,NA,NA,"JV Task P2",11,"Anxious",NA,"In",NA,NA,"HIGJFKEADBC",NA,NA,"B (MDot First)",2,321,"SS1","SS1",22,"V","Valence","xyoebq",1,"response","28",2965.91999999998,3899.15299999999,3905.65499990463,2965.91999999998,3899.15299999999,3905.65499990463,1,2965.91999999998,939.734999904642,0,NA,"Slider","J",3,"object-27","V","CFD-BF-029-031-S.jpeg",NA,"SUPTM16544"
"159",1689026117751,"10/07/2023 21:55:17",1689029717751,1,"10/07/2023 23:55:17",137495,33,"task-o9u1",NA,30604302,9086484,NA,"complete",NA,NA,"computer","Desktop or Laptop","Windows 10","Edge 114.0.1823.67","1536x864","1147x603",NA,NA,NA,"JV Task P2",11,"Anxious",NA,"In",NA,NA,"HIGJFKEADBC",NA,NA,"B (MDot First)",2,321,"SS1","SS1",22,"V","Fixation","68owkj",2,"continue","",966.522999999986,966.522999999986,966.522999999986,966.522999999986,966.522999999986,966.522999999986,1,966.522999999986,0,0,NA,"Fixation Timing","Fixation",1,"object-21","V","CFD-BF-029-031-S.jpeg",NA,"SUPTM16544"
"160",1689026125923,"10/07/2023 21:55:25",1689029725923,1,"10/07/2023 23:55:25",137495,33,"task-o9u1",NA,30604302,9086484,NA,"complete",NA,NA,"computer","Desktop or Laptop","Windows 10","Edge 114.0.1823.67","1536x864","1147x603",NA,NA,NA,"JV Task P2",11,"Anxious",NA,"In",NA,NA,"HIGJFKEADBC",NA,NA,"B (MDot First)",2,321,"SS1","SS1",31,"J","Judginess","y8ii7g",1,"continue","",8172.67899971391,8165.81,8172.67899971391,8172.67899971391,8165.81,8172.67899971391,1,8172.67899971391,0,0,NA,"Click To Continue","Continue Button",1,"object-14","J","CFD-WM-037-025-N.jpg",NA,"SUPTM16544"
"161",1689026125926,"10/07/2023 21:55:25",1689029725926,1,"10/07/2023 23:55:25",137495,33,"task-o9u1",NA,30604302,9086484,NA,"complete",NA,NA,"computer","Desktop or Laptop","Windows 10","Edge 114.0.1823.67","1536x864","1147x603",NA,NA,NA,"JV Task P2",11,"Anxious",NA,"In",NA,NA,"HIGJFKEADBC",NA,NA,"B (MDot First)",2,321,"SS1","SS1",31,"J","Judginess","y8ii7g",1,"response","35",7349.40100000001,8165.81,8175.87900000002,7349.40100000001,8165.81,8175.87900000002,1,7349.40100000001,826.478000000003,0,NA,"Slider","J",3,"object-18","J","CFD-WM-037-025-N.jpg",NA,"SUPTM16544"
"162",1689026126884,"10/07/2023 21:55:26",1689029726884,1,"10/07/2023 23:55:26",137495,33,"task-o9u1",NA,30604302,9086484,NA,"complete",NA,NA,"computer","Desktop or Laptop","Windows 10","Edge 114.0.1823.67","1536x864","1147x603",NA,NA,NA,"JV Task P2",11,"Anxious",NA,"In",NA,NA,"HIGJFKEADBC",NA,NA,"B (MDot First)",2,321,"SS1","SS1",31,"J","Fixation","w9zir9",2,"continue","",966.487000000023,966.487000000023,966.487000000023,966.487000000023,966.487000000023,966.487000000023,1,966.487000000023,0,0,NA,"Fixation Timing","Fixation",1,"object-65","J","CFD-WM-037-025-N.jpg",NA,"SUPTM16544"
"163",1689026128775,"10/07/2023 21:55:28",1689029728775,1,"10/07/2023 23:55:28",137495,33,"task-o9u1",NA,30604302,9086484,NA,"complete",NA,NA,"computer","Desktop or Laptop","Windows 10","Edge 114.0.1823.67","1536x864","1147x603",NA,NA,NA,"JV Task P2",11,"Anxious",NA,"In",NA,NA,"HIGJFKEADBC",NA,NA,"B (MDot First)",2,321,"SS1","SS1",32,"J","Judginess","y8ii7g",1,"continue","",1892.38199971389,1883.35499999998,1892.38199971389,1892.38199971389,1883.35499999998,1892.38199971389,1,1892.38199971389,0,0,NA,"Click To Continue","Continue Button",1,"object-14","J","CFD-AM-225-102-S.jpeg",NA,"SUPTM16544"
"164",1689026128775,"10/07/2023 21:55:28",1689029728775,1,"10/07/2023 23:55:28",137495,33,"task-o9u1",NA,30604302,9086484,NA,"complete",NA,NA,"computer","Desktop or Laptop","Windows 10","Edge 114.0.1823.67","1536x864","1147x603",NA,NA,NA,"JV Task P2",11,"Anxious",NA,"In",NA,NA,"HIGJFKEADBC",NA,NA,"B (MDot First)",2,321,"SS1","SS1",32,"J","Judginess","y8ii7g",1,"response","63",1266.87900000002,1883.35499999998,1892.88199971389,1266.87900000002,1883.35499999998,1892.88199971389,1,1266.87900000002,626.002999713877,0,NA,"Slider","J",3,"object-18","J","CFD-AM-225-102-S.jpeg",NA,"SUPTM16544"
"165",1689026129734,"10/07/2023 21:55:29",1689029729734,1,"10/07/2023 23:55:29",137495,33,"task-o9u1",NA,30604302,9086484,NA,"complete",NA,NA,"computer","Desktop or Laptop","Windows 10","Edge 114.0.1823.67","1536x864","1147x603",NA,NA,NA,"JV Task P2",11,"Anxious",NA,"In",NA,NA,"HIGJFKEADBC",NA,NA,"B (MDot First)",2,321,"SS1","SS1",32,"J","Fixation","w9zir9",2,"continue","",966.554000000004,966.554000000004,966.554000000004,966.554000000004,966.554000000004,966.554000000004,1,966.554000000004,0,0,NA,"Fixation Timing","Fixation",1,"object-65","J","CFD-AM-225-102-S.jpeg",NA,"SUPTM16544"
"166",1689026134145,"10/07/2023 21:55:34",1689029734145,1,"10/07/2023 23:55:34",137495,33,"task-o9u1",NA,30604302,9086484,NA,"complete",NA,NA,"computer","Desktop or Laptop","Windows 10","Edge 114.0.1823.67","1536x864","1147x603",NA,NA,NA,"JV Task P2",11,"Anxious",NA,"In",NA,NA,"HIGJFKEADBC",NA,NA,"B (MDot First)",2,321,"SS1","SS1",33,"J","Judginess","y8ii7g",1,"continue","",4412.87299980927,4399.47100000002,4412.87299980927,4412.87299980927,4399.47100000002,4412.87299980927,1,4412.87299980927,0,0,NA,"Click To Continue","Continue Button",1,"object-14","J","CFD-WF-035-024-N.jpg",NA,"SUPTM16544"
"167",1689026134146,"10/07/2023 21:55:34",1689029734146,1,"10/07/2023 23:55:34",137495,33,"task-o9u1",NA,30604302,9086484,NA,"complete",NA,NA,"computer","Desktop or Laptop","Windows 10","Edge 114.0.1823.67","1536x864","1147x603",NA,NA,NA,"JV Task P2",11,"Anxious",NA,"In",NA,NA,"HIGJFKEADBC",NA,NA,"B (MDot First)",2,321,"SS1","SS1",33,"J","Judginess","y8ii7g",1,"response","12",1732.95300000004,4399.47100000002,4413.47299971391,1732.95300000004,4399.47100000002,4413.47299971391,1,1732.95300000004,2680.51999971387,0,NA,"Slider","J",3,"object-18","J","CFD-WF-035-024-N.jpg",NA,"SUPTM16544"
"168",1689026135099,"10/07/2023 21:55:35",1689029735099,1,"10/07/2023 23:55:35",137495,33,"task-o9u1",NA,30604302,9086484,NA,"complete",NA,NA,"computer","Desktop or Laptop","Windows 10","Edge 114.0.1823.67","1536x864","1147x603",NA,NA,NA,"JV Task P2",11,"Anxious",NA,"In",NA,NA,"HIGJFKEADBC",NA,NA,"B (MDot First)",2,321,"SS1","SS1",33,"J","Fixation","w9zir9",2,"continue","",966.521000000008,966.521000000008,966.521000000008,966.521000000008,966.521000000008,966.521000000008,1,966.521000000008,0,0,NA,"Fixation Timing","Fixation",1,"object-65","J","CFD-WF-035-024-N.jpg",NA,"SUPTM16544"
"169",1689026138039,"10/07/2023 21:55:38",1689029738039,1,"10/07/2023 23:55:38",137495,33,"task-o9u1",NA,30604302,9086484,NA,"complete",NA,NA,"computer","Desktop or Laptop","Windows 10","Edge 114.0.1823.67","1536x864","1147x603",NA,NA,NA,"JV Task P2",11,"Anxious",NA,"In",NA,NA,"HIGJFKEADBC",NA,NA,"B (MDot First)",2,321,"SS1","SS1",34,"J","Judginess","y8ii7g",1,"continue","",2940.48099971388,2933.17099999997,2940.48099971388,2940.48099971388,2933.17099999997,2940.48099971388,1,2940.48099971388,0,0,NA,"Click To Continue","Continue Button",1,"object-14","J","CFD-WF-027-003-S.jpeg",NA,"SUPTM16544"
"170",1689026138050,"10/07/2023 21:55:38",1689029738050,1,"10/07/2023 23:55:38",137495,33,"task-o9u1",NA,30604302,9086484,NA,"complete",NA,NA,"computer","Desktop or Laptop","Windows 10","Edge 114.0.1823.67","1536x864","1147x603",NA,NA,NA,"JV Task P2",11,"Anxious",NA,"In",NA,NA,"HIGJFKEADBC",NA,NA,"B (MDot First)",2,321,"SS1","SS1",34,"J","Judginess","y8ii7g",1,"response","64",1999.94500000001,2933.17099999997,2950.20599999995,1999.94500000001,2933.17099999997,2950.20599999995,1,1999.94500000001,950.26099999994,0,NA,"Slider","J",3,"object-18","J","CFD-WF-027-003-S.jpeg",NA,"SUPTM16544"
