"Event.Index","UTC.Timestamp","UTC.Date.and.Time","Local.Timestamp","Local.Timezone","Local.Date.and.Time","Experiment.ID","Experiment.Version","Tree.Node.Key","Repeat.Key","Schedule.ID","Participant.Private.ID","Participant.Starting.Group","Participant.Status","Participant.Completion.Code","Participant.External.Session.ID","Participant.Device.Type","Participant.Device","Participant.OS","Participant.Browser","Participant.Monitor.Size","Participant.Viewport.Size","Checkpoint","Room.ID","Room.Order","Task.Name","Task.Version","branch.ln1a","randomiser.vzsr","branch.hkzp","randomiser.ywar","randomiser.q6ah","order.ot79","randomiser.ahe2","randomiser.ckhi","randomiser.lqqr","randomiser.pobd","randomiser.8gdj","Spreadsheet","Current.Spreadsheet","Trial.Number","Display","Screen","Screen.ID","Screen.Counter","Response.Type","Response","Onset.Time","Clock.Time","Reaction.Time","Absolute.Onset.Time","Absolute.Clock.Time","Absolute.Reaction.Time","Correct","Response.Onset","Response.Duration","Proportion","Tag","Component.Name","Object.Name","Object.Number","Object.ID","Spreadsheet..display","Spreadsheet..stimulus","Manipulation..Spreadsheet","Random_ID"
"1",1689012169325,"10/07/2023 18:02:49",1689015769325,1,"10/07/2023 20:02:49",137495,33,"task-wuat",NA,30601717,9085742,NA,"complete",NA,NA,"computer","Desktop or Laptop","Windows 10","Chrome 114.0.0.0","1536x864","1536x714",NA,NA,NA,"JV Task P3 (Updated)",4,"Anxious",NA,"In",NA,NA,"EFDGCHBIAJK",NA,NA,"B (MDot First)",2,123,"SS1","SS1",NA,"","","",NA,"5","BEGIN",NA,NA,NA,NA,NA,NA,0,NA,NA,NA,NA,"","",NA,"","","",NA,"SUPTM31721"
"2",1689012171866,"10/07/2023 18:02:51",1689015771866,1,"10/07/2023 20:02:51",137495,33,"task-wuat",NA,30601717,9085742,NA,"complete",NA,NA,"computer","Desktop or Laptop","Windows 10","Chrome 114.0.0.0","1536x864","1536x714",NA,NA,NA,"JV Task P3 (Updated)",4,"Anxious",NA,"In",NA,NA,"EFDGCHBIAJK",NA,NA,"B (MDot First)",2,123,"SS1","SS1",1,"V","Valence","xyoebq",1,"continue","",2215.06200009537,2212.168,2215.06200009537,2215.06200009537,2212.168,2215.06200009537,1,2215.06200009537,0,0,NA,"Click To Continue","Continue Button",1,"object-25","V","CFD-WM-035-032-S.jpeg",NA,"SUPTM31721"
"3",1689012171867,"10/07/2023 18:02:51",1689015771867,1,"10/07/2023 20:02:51",137495,33,"task-wuat",NA,30601717,9085742,NA,"complete",NA,NA,"computer","Desktop or Laptop","Windows 10","Chrome 114.0.0.0","1536x864","1536x714",NA,NA,NA,"JV Task P3 (Updated)",4,"Anxious",NA,"In",NA,NA,"EFDGCHBIAJK",NA,NA,"B (MDot First)",2,123,"SS1","SS1",1,"V","Valence","xyoebq",1,"response","0",1571.983,2212.168,2215.56200009537,1571.983,2212.168,2215.56200009537,1,1571.983,643.579000095368,0,NA,"Slider","J",3,"object-27","V","CFD-WM-035-032-S.jpeg",NA,"SUPTM31721"
"4",1689012172854,"10/07/2023 18:02:52",1689015772854,1,"10/07/2023 20:02:52",137495,33,"task-wuat",NA,30601717,9085742,NA,"complete",NA,NA,"computer","Desktop or Laptop","Windows 10","Chrome 114.0.0.0","1536x864","1536x714",NA,NA,NA,"JV Task P3 (Updated)",4,"Anxious",NA,"In",NA,NA,"EFDGCHBIAJK",NA,NA,"B (MDot First)",2,123,"SS1","SS1",1,"V","Fixation","68owkj",2,"continue","",989.033,989.033,989.033,989.033,989.033,989.033,1,989.033,0,0,NA,"Fixation Timing","Fixation",1,"object-21","V","CFD-WM-035-032-S.jpeg",NA,"SUPTM31721"
"5",1689012175450,"10/07/2023 18:02:55",1689015775450,1,"10/07/2023 20:02:55",137495,33,"task-wuat",NA,30601717,9085742,NA,"complete",NA,NA,"computer","Desktop or Laptop","Windows 10","Chrome 114.0.0.0","1536x864","1536x714",NA,NA,NA,"JV Task P3 (Updated)",4,"Anxious",NA,"In",NA,NA,"EFDGCHBIAJK",NA,NA,"B (MDot First)",2,123,"SS1","SS1",1,"J","Judginess","y8ii7g",1,"continue","",2597.961,2594.488,2597.961,2597.961,2594.488,2597.961,1,2597.961,0,0,NA,"Click To Continue","Continue Button",1,"object-14","J","CFD-WF-015-006-H.jpeg",NA,"SUPTM31721"
"6",1689012175450,"10/07/2023 18:02:55",1689015775450,1,"10/07/2023 20:02:55",137495,33,"task-wuat",NA,30601717,9085742,NA,"complete",NA,NA,"computer","Desktop or Laptop","Windows 10","Chrome 114.0.0.0","1536x864","1536x714",NA,NA,NA,"JV Task P3 (Updated)",4,"Anxious",NA,"In",NA,NA,"EFDGCHBIAJK",NA,NA,"B (MDot First)",2,123,"SS1","SS1",1,"J","Judginess","y8ii7g",1,"response","72",1895.261,2594.488,2598.16100004768,1895.261,2594.488,2598.16100004768,1,1895.261,702.900000047684,0,NA,"Slider","J",3,"object-18","J","CFD-WF-015-006-H.jpeg",NA,"SUPTM31721"
"7",1689012176430,"10/07/2023 18:02:56",1689015776430,1,"10/07/2023 20:02:56",137495,33,"task-wuat",NA,30601717,9085742,NA,"complete",NA,NA,"computer","Desktop or Laptop","Windows 10","Chrome 114.0.0.0","1536x864","1536x714",NA,NA,NA,"JV Task P3 (Updated)",4,"Anxious",NA,"In",NA,NA,"EFDGCHBIAJK",NA,NA,"B (MDot First)",2,123,"SS1","SS1",1,"J","Fixation","w9zir9",2,"continue","",981.914,981.914,981.914,981.914,981.914,981.914,1,981.914,0,0,NA,"Fixation Timing","Fixation",1,"object-65","J","CFD-WF-015-006-H.jpeg",NA,"SUPTM31721"
"8",1689012177939,"10/07/2023 18:02:57",1689015777939,1,"10/07/2023 20:02:57",137495,33,"task-wuat",NA,30601717,9085742,NA,"complete",NA,NA,"computer","Desktop or Laptop","Windows 10","Chrome 114.0.0.0","1536x864","1536x714",NA,NA,NA,"JV Task P3 (Updated)",4,"Anxious",NA,"In",NA,NA,"EFDGCHBIAJK",NA,NA,"B (MDot First)",2,123,"SS1","SS1",2,"V","Valence","xyoebq",1,"continue","",1509.95900009537,1506.533,1509.95900009537,1509.95900009537,1506.533,1509.95900009537,1,1509.95900009537,0,0,NA,"Click To Continue","Continue Button",1,"object-25","V","CFD-WF-036-023-S.jpeg",NA,"SUPTM31721"
"9",1689012177939,"10/07/2023 18:02:57",1689015777939,1,"10/07/2023 20:02:57",137495,33,"task-wuat",NA,30601717,9085742,NA,"complete",NA,NA,"computer","Desktop or Laptop","Windows 10","Chrome 114.0.0.0","1536x864","1536x714",NA,NA,NA,"JV Task P3 (Updated)",4,"Anxious",NA,"In",NA,NA,"EFDGCHBIAJK",NA,NA,"B (MDot First)",2,123,"SS1","SS1",2,"V","Valence","xyoebq",1,"response","0",770.742000000001,1506.533,1510.25900004768,770.742000000001,1506.533,1510.25900004768,1,770.742000000001,739.517000047683,0,NA,"Slider","J",3,"object-27","V","CFD-WF-036-023-S.jpeg",NA,"SUPTM31721"
"10",1689012178916,"10/07/2023 18:02:58",1689015778916,1,"10/07/2023 20:02:58",137495,33,"task-wuat",NA,30601717,9085742,NA,"complete",NA,NA,"computer","Desktop or Laptop","Windows 10","Chrome 114.0.0.0","1536x864","1536x714",NA,NA,NA,"JV Task P3 (Updated)",4,"Anxious",NA,"In",NA,NA,"EFDGCHBIAJK",NA,NA,"B (MDot First)",2,123,"SS1","SS1",2,"V","Fixation","68owkj",2,"continue","",980.079,980.079,980.079,980.079,980.079,980.079,1,980.079,0,0,NA,"Fixation Timing","Fixation",1,"object-21","V","CFD-WF-036-023-S.jpeg",NA,"SUPTM31721"
"11",1689012180953,"10/07/2023 18:03:00",1689015780953,1,"10/07/2023 20:03:00",137495,33,"task-wuat",NA,30601717,9085742,NA,"complete",NA,NA,"computer","Desktop or Laptop","Windows 10","Chrome 114.0.0.0","1536x864","1536x714",NA,NA,NA,"JV Task P3 (Updated)",4,"Anxious",NA,"In",NA,NA,"EFDGCHBIAJK",NA,NA,"B (MDot First)",2,123,"SS1","SS1",2,"J","Judginess","y8ii7g",1,"continue","",2037.54700002384,2031.53,2037.54700002384,2037.54700002384,2031.53,2037.54700002384,1,2037.54700002384,0,0,NA,"Click To Continue","Continue Button",1,"object-14","J","CFD-AF-233-190-H.jpeg",NA,"SUPTM31721"
"12",1689012180955,"10/07/2023 18:03:00",1689015780955,1,"10/07/2023 20:03:00",137495,33,"task-wuat",NA,30601717,9085742,NA,"complete",NA,NA,"computer","Desktop or Laptop","Windows 10","Chrome 114.0.0.0","1536x864","1536x714",NA,NA,NA,"JV Task P3 (Updated)",4,"Anxious",NA,"In",NA,NA,"EFDGCHBIAJK",NA,NA,"B (MDot First)",2,123,"SS1","SS1",2,"J","Judginess","y8ii7g",1,"response","65",797.897000000001,2031.53,2038.689,797.897000000001,2031.53,2038.689,1,797.897000000001,1240.792,0,NA,"Slider","J",3,"object-18","J","CFD-AF-233-190-H.jpeg",NA,"SUPTM31721"
"13",1689012181932,"10/07/2023 18:03:01",1689015781932,1,"10/07/2023 20:03:01",137495,33,"task-wuat",NA,30601717,9085742,NA,"complete",NA,NA,"computer","Desktop or Laptop","Windows 10","Chrome 114.0.0.0","1536x864","1536x714",NA,NA,NA,"JV Task P3 (Updated)",4,"Anxious",NA,"In",NA,NA,"EFDGCHBIAJK",NA,NA,"B (MDot First)",2,123,"SS1","SS1",2,"J","Fixation","w9zir9",2,"continue","",984.718999999999,984.718999999999,984.718999999999,984.718999999999,984.718999999999,984.718999999999,1,984.718999999999,0,0,NA,"Fixation Timing","Fixation",1,"object-65","J","CFD-AF-233-190-H.jpeg",NA,"SUPTM31721"
"14",1689012183980,"10/07/2023 18:03:03",1689015783980,1,"10/07/2023 20:03:03",137495,33,"task-wuat",NA,30601717,9085742,NA,"complete",NA,NA,"computer","Desktop or Laptop","Windows 10","Chrome 114.0.0.0","1536x864","1536x714",NA,NA,NA,"JV Task P3 (Updated)",4,"Anxious",NA,"In",NA,NA,"EFDGCHBIAJK",NA,NA,"B (MDot First)",2,123,"SS1","SS1",3,"V","Valence","xyoebq",1,"continue","",2047.696,2040.753,2047.696,2047.696,2040.753,2047.696,1,2047.696,0,0,NA,"Click To Continue","Continue Button",1,"object-25","V","CFD-BM-036-003-S.jpeg",NA,"SUPTM31721"
"15",1689012183980,"10/07/2023 18:03:03",1689015783980,1,"10/07/2023 20:03:03",137495,33,"task-wuat",NA,30601717,9085742,NA,"complete",NA,NA,"computer","Desktop or Laptop","Windows 10","Chrome 114.0.0.0","1536x864","1536x714",NA,NA,NA,"JV Task P3 (Updated)",4,"Anxious",NA,"In",NA,NA,"EFDGCHBIAJK",NA,NA,"B (MDot First)",2,123,"SS1","SS1",3,"V","Valence","xyoebq",1,"response","1",781.388000000001,2040.753,2047.696,781.388000000001,2040.753,2047.696,1,781.388000000001,1266.308,0,NA,"Slider","J",3,"object-27","V","CFD-BM-036-003-S.jpeg",NA,"SUPTM31721"
"16",1689012184964,"10/07/2023 18:03:04",1689015784964,1,"10/07/2023 20:03:04",137495,33,"task-wuat",NA,30601717,9085742,NA,"complete",NA,NA,"computer","Desktop or Laptop","Windows 10","Chrome 114.0.0.0","1536x864","1536x714",NA,NA,NA,"JV Task P3 (Updated)",4,"Anxious",NA,"In",NA,NA,"EFDGCHBIAJK",NA,NA,"B (MDot First)",2,123,"SS1","SS1",3,"V","Fixation","68owkj",2,"continue","",990.664000000001,990.664000000001,990.664000000001,990.664000000001,990.664000000001,990.664000000001,1,990.664000000001,0,0,NA,"Fixation Timing","Fixation",1,"object-21","V","CFD-BM-036-003-S.jpeg",NA,"SUPTM31721"
"17",1689012187905,"10/07/2023 18:03:07",1689015787905,1,"10/07/2023 20:03:07",137495,33,"task-wuat",NA,30601717,9085742,NA,"complete",NA,NA,"computer","Desktop or Laptop","Windows 10","Chrome 114.0.0.0","1536x864","1536x714",NA,NA,NA,"JV Task P3 (Updated)",4,"Anxious",NA,"In",NA,NA,"EFDGCHBIAJK",NA,NA,"B (MDot First)",2,123,"SS1","SS1",4,"V","Valence","xyoebq",1,"continue","",2942.38100002384,2940.842,2942.38100002384,2942.38100002384,2940.842,2942.38100002384,1,2942.38100002384,0,0,NA,"Click To Continue","Continue Button",1,"object-25","V","CFD-WF-022-017-S.jpeg",NA,"SUPTM31721"
"18",1689012187905,"10/07/2023 18:03:07",1689015787905,1,"10/07/2023 20:03:07",137495,33,"task-wuat",NA,30601717,9085742,NA,"complete",NA,NA,"computer","Desktop or Laptop","Windows 10","Chrome 114.0.0.0","1536x864","1536x714",NA,NA,NA,"JV Task P3 (Updated)",4,"Anxious",NA,"In",NA,NA,"EFDGCHBIAJK",NA,NA,"B (MDot First)",2,123,"SS1","SS1",4,"V","Valence","xyoebq",1,"response","0",944.609,2940.842,2942.68100009537,944.609,2940.842,2942.68100009537,1,944.609,1998.07200009537,0,NA,"Slider","J",3,"object-27","V","CFD-WF-022-017-S.jpeg",NA,"SUPTM31721"
"19",1689012188888,"10/07/2023 18:03:08",1689015788888,1,"10/07/2023 20:03:08",137495,33,"task-wuat",NA,30601717,9085742,NA,"complete",NA,NA,"computer","Desktop or Laptop","Windows 10","Chrome 114.0.0.0","1536x864","1536x714",NA,NA,NA,"JV Task P3 (Updated)",4,"Anxious",NA,"In",NA,NA,"EFDGCHBIAJK",NA,NA,"B (MDot First)",2,123,"SS1","SS1",4,"V","Fixation","68owkj",2,"continue","",983.742999999999,983.742999999999,983.742999999999,983.742999999999,983.742999999999,983.742999999999,1,983.742999999999,0,0,NA,"Fixation Timing","Fixation",1,"object-21","V","CFD-WF-022-017-S.jpeg",NA,"SUPTM31721"
"20",1689012195111,"10/07/2023 18:03:15",1689015795111,1,"10/07/2023 20:03:15",137495,33,"task-wuat",NA,30601717,9085742,NA,"complete",NA,NA,"computer","Desktop or Laptop","Windows 10","Chrome 114.0.0.0","1536x864","1536x714",NA,NA,NA,"JV Task P3 (Updated)",4,"Anxious",NA,"In",NA,NA,"EFDGCHBIAJK",NA,NA,"B (MDot First)",2,123,"SS1","SS1",5,"V","Valence","xyoebq",1,"continue","",6223.49600007153,6220.929,6223.49600007153,6223.49600007153,6220.929,6223.49600007153,1,6223.49600007153,0,0,NA,"Click To Continue","Continue Button",1,"object-25","V","CFD-WM-024-015-N.jpg",NA,"SUPTM31721"
"21",1689012195116,"10/07/2023 18:03:15",1689015795116,1,"10/07/2023 20:03:15",137495,33,"task-wuat",NA,30601717,9085742,NA,"complete",NA,NA,"computer","Desktop or Laptop","Windows 10","Chrome 114.0.0.0","1536x864","1536x714",NA,NA,NA,"JV Task P3 (Updated)",4,"Anxious",NA,"In",NA,NA,"EFDGCHBIAJK",NA,NA,"B (MDot First)",2,123,"SS1","SS1",5,"V","Valence","xyoebq",1,"response","42",3766.622,6220.929,6227.869,3766.622,6220.929,6227.869,1,3766.622,2461.247,0,NA,"Slider","J",3,"object-27","V","CFD-WM-024-015-N.jpg",NA,"SUPTM31721"
"22",1689012196094,"10/07/2023 18:03:16",1689015796094,1,"10/07/2023 20:03:16",137495,33,"task-wuat",NA,30601717,9085742,NA,"complete",NA,NA,"computer","Desktop or Laptop","Windows 10","Chrome 114.0.0.0","1536x864","1536x714",NA,NA,NA,"JV Task P3 (Updated)",4,"Anxious",NA,"In",NA,NA,"EFDGCHBIAJK",NA,NA,"B (MDot First)",2,123,"SS1","SS1",5,"V","Fixation","68owkj",2,"continue","",984.978999999999,984.978999999999,984.978999999999,984.978999999999,984.978999999999,984.978999999999,1,984.978999999999,0,0,NA,"Fixation Timing","Fixation",1,"object-21","V","CFD-WM-024-015-N.jpg",NA,"SUPTM31721"
"23",1689012198410,"10/07/2023 18:03:18",1689015798410,1,"10/07/2023 20:03:18",137495,33,"task-wuat",NA,30601717,9085742,NA,"complete",NA,NA,"computer","Desktop or Laptop","Windows 10","Chrome 114.0.0.0","1536x864","1536x714",NA,NA,NA,"JV Task P3 (Updated)",4,"Anxious",NA,"In",NA,NA,"EFDGCHBIAJK",NA,NA,"B (MDot First)",2,123,"SS1","SS1",3,"J","Judginess","y8ii7g",1,"continue","",2316.288,2313.068,2316.288,2316.288,2313.068,2316.288,1,2316.288,0,0,NA,"Click To Continue","Continue Button",1,"object-14","J","CFD-IM-711-011-S.jpeg",NA,"SUPTM31721"
"24",1689012198410,"10/07/2023 18:03:18",1689015798410,1,"10/07/2023 20:03:18",137495,33,"task-wuat",NA,30601717,9085742,NA,"complete",NA,NA,"computer","Desktop or Laptop","Windows 10","Chrome 114.0.0.0","1536x864","1536x714",NA,NA,NA,"JV Task P3 (Updated)",4,"Anxious",NA,"In",NA,NA,"EFDGCHBIAJK",NA,NA,"B (MDot First)",2,123,"SS1","SS1",3,"J","Judginess","y8ii7g",1,"response","0",1848.593,2313.068,2316.48800004768,1848.593,2313.068,2316.48800004768,1,1848.593,467.895000047683,0,NA,"Slider","J",3,"object-18","J","CFD-IM-711-011-S.jpeg",NA,"SUPTM31721"
"25",1689012199338,"10/07/2023 18:03:19",1689015799338,1,"10/07/2023 20:03:19",137495,33,"task-wuat",NA,30601717,9085742,NA,"complete",NA,NA,"computer","Desktop or Laptop","Windows 10","Chrome 114.0.0.0","1536x864","1536x714",NA,NA,NA,"JV Task P3 (Updated)",4,"Anxious",NA,"In",NA,NA,"EFDGCHBIAJK",NA,NA,"B (MDot First)",2,123,"SS1","SS1",3,"J","Fixation","w9zir9",2,"continue","",931.416000000001,931.416000000001,931.416000000001,931.416000000001,931.416000000001,931.416000000001,1,931.416000000001,0,0,NA,"Fixation Timing","Fixation",1,"object-65","J","CFD-IM-711-011-S.jpeg",NA,"SUPTM31721"
"26",1689012202087,"10/07/2023 18:03:22",1689015802087,1,"10/07/2023 20:03:22",137495,33,"task-wuat",NA,30601717,9085742,NA,"complete",NA,NA,"computer","Desktop or Laptop","Windows 10","Chrome 114.0.0.0","1536x864","1536x714",NA,NA,NA,"JV Task P3 (Updated)",4,"Anxious",NA,"In",NA,NA,"EFDGCHBIAJK",NA,NA,"B (MDot First)",2,123,"SS1","SS1",4,"J","Judginess","y8ii7g",1,"continue","",2749.60400007153,2743.807,2749.60400007153,2749.60400007153,2743.807,2749.60400007153,1,2749.60400007153,0,0,NA,"Click To Continue","Continue Button",1,"object-14","J","CFD-WF-012-002-S.jpeg",NA,"SUPTM31721"
"27",1689012202088,"10/07/2023 18:03:22",1689015802088,1,"10/07/2023 20:03:22",137495,33,"task-wuat",NA,30601717,9085742,NA,"complete",NA,NA,"computer","Desktop or Laptop","Windows 10","Chrome 114.0.0.0","1536x864","1536x714",NA,NA,NA,"JV Task P3 (Updated)",4,"Anxious",NA,"In",NA,NA,"EFDGCHBIAJK",NA,NA,"B (MDot First)",2,123,"SS1","SS1",4,"J","Judginess","y8ii7g",1,"response","0",1589.739,2743.807,2750.00400004768,1589.739,2743.807,2750.00400004768,1,1589.739,1160.26500004768,0,NA,"Slider","J",3,"object-18","J","CFD-WF-012-002-S.jpeg",NA,"SUPTM31721"
"28",1689012203067,"10/07/2023 18:03:23",1689015803067,1,"10/07/2023 20:03:23",137495,33,"task-wuat",NA,30601717,9085742,NA,"complete",NA,NA,"computer","Desktop or Laptop","Windows 10","Chrome 114.0.0.0","1536x864","1536x714",NA,NA,NA,"JV Task P3 (Updated)",4,"Anxious",NA,"In",NA,NA,"EFDGCHBIAJK",NA,NA,"B (MDot First)",2,123,"SS1","SS1",4,"J","Fixation","w9zir9",2,"continue","",985.020000000004,985.020000000004,985.020000000004,985.020000000004,985.020000000004,985.020000000004,1,985.020000000004,0,0,NA,"Fixation Timing","Fixation",1,"object-65","J","CFD-WF-012-002-S.jpeg",NA,"SUPTM31721"
"29",1689012206275,"10/07/2023 18:03:26",1689015806275,1,"10/07/2023 20:03:26",137495,33,"task-wuat",NA,30601717,9085742,NA,"complete",NA,NA,"computer","Desktop or Laptop","Windows 10","Chrome 114.0.0.0","1536x864","1536x714",NA,NA,NA,"JV Task P3 (Updated)",4,"Anxious",NA,"In",NA,NA,"EFDGCHBIAJK",NA,NA,"B (MDot First)",2,123,"SS1","SS1",5,"J","Judginess","y8ii7g",1,"continue","",3208.413,3201.47,3208.413,3208.413,3201.47,3208.413,1,3208.413,0,0,NA,"Click To Continue","Continue Button",1,"object-14","J","CFD-BM-028-002-H.jpeg",NA,"SUPTM31721"
"30",1689012206278,"10/07/2023 18:03:26",1689015806278,1,"10/07/2023 20:03:26",137495,33,"task-wuat",NA,30601717,9085742,NA,"complete",NA,NA,"computer","Desktop or Laptop","Windows 10","Chrome 114.0.0.0","1536x864","1536x714",NA,NA,NA,"JV Task P3 (Updated)",4,"Anxious",NA,"In",NA,NA,"EFDGCHBIAJK",NA,NA,"B (MDot First)",2,123,"SS1","SS1",5,"J","Judginess","y8ii7g",1,"response","67",757,3201.47,3208.413,757,3201.47,3208.413,1,757,2451.413,0,NA,"Slider","J",3,"object-18","J","CFD-BM-028-002-H.jpeg",NA,"SUPTM31721"
"31",1689012207249,"10/07/2023 18:03:27",1689015807249,1,"10/07/2023 20:03:27",137495,33,"task-wuat",NA,30601717,9085742,NA,"complete",NA,NA,"computer","Desktop or Laptop","Windows 10","Chrome 114.0.0.0","1536x864","1536x714",NA,NA,NA,"JV Task P3 (Updated)",4,"Anxious",NA,"In",NA,NA,"EFDGCHBIAJK",NA,NA,"B (MDot First)",2,123,"SS1","SS1",5,"J","Fixation","w9zir9",2,"continue","",979.244999999995,979.244999999995,979.244999999995,979.244999999995,979.244999999995,979.244999999995,1,979.244999999995,0,0,NA,"Fixation Timing","Fixation",1,"object-65","J","CFD-BM-028-002-H.jpeg",NA,"SUPTM31721"
"32",1689012217351,"10/07/2023 18:03:37",1689015817351,1,"10/07/2023 20:03:37",137495,33,"task-wuat",NA,30601717,9085742,NA,"complete",NA,NA,"computer","Desktop or Laptop","Windows 10","Chrome 114.0.0.0","1536x864","1536x714",NA,NA,NA,"JV Task P3 (Updated)",4,"Anxious",NA,"In",NA,NA,"EFDGCHBIAJK",NA,NA,"B (MDot First)",2,123,"SS1","SS1",6,"J","Judginess","y8ii7g",1,"continue","",10103.262,10097.534,10103.262,10103.262,10097.534,10103.262,1,10103.262,0,0,NA,"Click To Continue","Continue Button",1,"object-14","J","CFD-BF-040-003-N.jpg",NA,"SUPTM31721"
"33",1689012217353,"10/07/2023 18:03:37",1689015817353,1,"10/07/2023 20:03:37",137495,33,"task-wuat",NA,30601717,9085742,NA,"complete",NA,NA,"computer","Desktop or Laptop","Windows 10","Chrome 114.0.0.0","1536x864","1536x714",NA,NA,NA,"JV Task P3 (Updated)",4,"Anxious",NA,"In",NA,NA,"EFDGCHBIAJK",NA,NA,"B (MDot First)",2,123,"SS1","SS1",6,"J","Judginess","y8ii7g",1,"response","58",8909.315,10097.534,10104.477,8909.315,10097.534,10104.477,1,8909.315,1195.162,0,NA,"Slider","J",3,"object-18","J","CFD-BF-040-003-N.jpg",NA,"SUPTM31721"
"34",1689012218337,"10/07/2023 18:03:38",1689015818337,1,"10/07/2023 20:03:38",137495,33,"task-wuat",NA,30601717,9085742,NA,"complete",NA,NA,"computer","Desktop or Laptop","Windows 10","Chrome 114.0.0.0","1536x864","1536x714",NA,NA,NA,"JV Task P3 (Updated)",4,"Anxious",NA,"In",NA,NA,"EFDGCHBIAJK",NA,NA,"B (MDot First)",2,123,"SS1","SS1",6,"J","Fixation","w9zir9",2,"continue","",990.844000000005,990.844000000005,990.844000000005,990.844000000005,990.844000000005,990.844000000005,1,990.844000000005,0,0,NA,"Fixation Timing","Fixation",1,"object-65","J","CFD-BF-040-003-N.jpg",NA,"SUPTM31721"
"35",1689012220710,"10/07/2023 18:03:40",1689015820710,1,"10/07/2023 20:03:40",137495,33,"task-wuat",NA,30601717,9085742,NA,"complete",NA,NA,"computer","Desktop or Laptop","Windows 10","Chrome 114.0.0.0","1536x864","1536x714",NA,NA,NA,"JV Task P3 (Updated)",4,"Anxious",NA,"In",NA,NA,"EFDGCHBIAJK",NA,NA,"B (MDot First)",2,123,"SS1","SS1",6,"V","Valence","xyoebq",1,"continue","",2374.78400009537,2371.554,2374.78400009537,2374.78400009537,2371.554,2374.78400009537,1,2374.78400009537,0,0,NA,"Click To Continue","Continue Button",1,"object-25","V","CFD-AF-211-066-S.jpeg",NA,"SUPTM31721"
"36",1689012220711,"10/07/2023 18:03:40",1689015820711,1,"10/07/2023 20:03:40",137495,33,"task-wuat",NA,30601717,9085742,NA,"complete",NA,NA,"computer","Desktop or Laptop","Windows 10","Chrome 114.0.0.0","1536x864","1536x714",NA,NA,NA,"JV Task P3 (Updated)",4,"Anxious",NA,"In",NA,NA,"EFDGCHBIAJK",NA,NA,"B (MDot First)",2,123,"SS1","SS1",6,"V","Valence","xyoebq",1,"response","0",1418.115,2371.554,2374.98400002384,1418.115,2371.554,2374.98400002384,1,1418.115,956.869000023842,0,NA,"Slider","J",3,"object-27","V","CFD-AF-211-066-S.jpeg",NA,"SUPTM31721"
"37",1689012221693,"10/07/2023 18:03:41",1689015821693,1,"10/07/2023 20:03:41",137495,33,"task-wuat",NA,30601717,9085742,NA,"complete",NA,NA,"computer","Desktop or Laptop","Windows 10","Chrome 114.0.0.0","1536x864","1536x714",NA,NA,NA,"JV Task P3 (Updated)",4,"Anxious",NA,"In",NA,NA,"EFDGCHBIAJK",NA,NA,"B (MDot First)",2,123,"SS1","SS1",6,"V","Fixation","68owkj",2,"continue","",984.039000000004,984.039000000004,984.039000000004,984.039000000004,984.039000000004,984.039000000004,1,984.039000000004,0,0,NA,"Fixation Timing","Fixation",1,"object-21","V","CFD-AF-211-066-S.jpeg",NA,"SUPTM31721"
"38",1689012224027,"10/07/2023 18:03:44",1689015824027,1,"10/07/2023 20:03:44",137495,33,"task-wuat",NA,30601717,9085742,NA,"complete",NA,NA,"computer","Desktop or Laptop","Windows 10","Chrome 114.0.0.0","1536x864","1536x714",NA,NA,NA,"JV Task P3 (Updated)",4,"Anxious",NA,"In",NA,NA,"EFDGCHBIAJK",NA,NA,"B (MDot First)",2,123,"SS1","SS1",7,"J","Judginess","y8ii7g",1,"continue","",2335.89100002384,2333.99,2335.89100002384,2335.89100002384,2333.99,2335.89100002384,1,2335.89100002384,0,0,NA,"Click To Continue","Continue Button",1,"object-14","J","CFD-WM-025-002-N.jpg",NA,"SUPTM31721"
"39",1689012224027,"10/07/2023 18:03:44",1689015824027,1,"10/07/2023 20:03:44",137495,33,"task-wuat",NA,30601717,9085742,NA,"complete",NA,NA,"computer","Desktop or Laptop","Windows 10","Chrome 114.0.0.0","1536x864","1536x714",NA,NA,NA,"JV Task P3 (Updated)",4,"Anxious",NA,"In",NA,NA,"EFDGCHBIAJK",NA,NA,"B (MDot First)",2,123,"SS1","SS1",7,"J","Judginess","y8ii7g",1,"response","27",1482.408,2333.99,2336.09100007152,1482.408,2333.99,2336.09100007152,1,1482.408,853.683000071527,0,NA,"Slider","J",3,"object-18","J","CFD-WM-025-002-N.jpg",NA,"SUPTM31721"
"40",1689012225017,"10/07/2023 18:03:45",1689015825017,1,"10/07/2023 20:03:45",137495,33,"task-wuat",NA,30601717,9085742,NA,"complete",NA,NA,"computer","Desktop or Laptop","Windows 10","Chrome 114.0.0.0","1536x864","1536x714",NA,NA,NA,"JV Task P3 (Updated)",4,"Anxious",NA,"In",NA,NA,"EFDGCHBIAJK",NA,NA,"B (MDot First)",2,123,"SS1","SS1",7,"J","Fixation","w9zir9",2,"continue","",990.248999999996,990.248999999996,990.248999999996,990.248999999996,990.248999999996,990.248999999996,1,990.248999999996,0,0,NA,"Fixation Timing","Fixation",1,"object-65","J","CFD-WM-025-002-N.jpg",NA,"SUPTM31721"
"41",1689012228431,"10/07/2023 18:03:48",1689015828431,1,"10/07/2023 20:03:48",137495,33,"task-wuat",NA,30601717,9085742,NA,"complete",NA,NA,"computer","Desktop or Laptop","Windows 10","Chrome 114.0.0.0","1536x864","1536x714",NA,NA,NA,"JV Task P3 (Updated)",4,"Anxious",NA,"In",NA,NA,"EFDGCHBIAJK",NA,NA,"B (MDot First)",2,123,"SS1","SS1",8,"J","Judginess","y8ii7g",1,"continue","",3415.052,3411.927,3415.052,3415.052,3411.927,3415.052,1,3415.052,0,0,NA,"Click To Continue","Continue Button",1,"object-14","J","CFD-WF-031-027-N.jpg",NA,"SUPTM31721"
"42",1689012228433,"10/07/2023 18:03:48",1689015828433,1,"10/07/2023 20:03:48",137495,33,"task-wuat",NA,30601717,9085742,NA,"complete",NA,NA,"computer","Desktop or Laptop","Windows 10","Chrome 114.0.0.0","1536x864","1536x714",NA,NA,NA,"JV Task P3 (Updated)",4,"Anxious",NA,"In",NA,NA,"EFDGCHBIAJK",NA,NA,"B (MDot First)",2,123,"SS1","SS1",8,"J","Judginess","y8ii7g",1,"response","21",1785.898,3411.927,3417.75200004769,1785.898,3411.927,3417.75200004769,1,1785.898,1631.85400004769,0,NA,"Slider","J",3,"object-18","J","CFD-WF-031-027-N.jpg",NA,"SUPTM31721"
"43",1689012229408,"10/07/2023 18:03:49",1689015829408,1,"10/07/2023 20:03:49",137495,33,"task-wuat",NA,30601717,9085742,NA,"complete",NA,NA,"computer","Desktop or Laptop","Windows 10","Chrome 114.0.0.0","1536x864","1536x714",NA,NA,NA,"JV Task P3 (Updated)",4,"Anxious",NA,"In",NA,NA,"EFDGCHBIAJK",NA,NA,"B (MDot First)",2,123,"SS1","SS1",8,"J","Fixation","w9zir9",2,"continue","",978.745999999999,978.745999999999,978.745999999999,978.745999999999,978.745999999999,978.745999999999,1,978.745999999999,0,0,NA,"Fixation Timing","Fixation",1,"object-65","J","CFD-WF-031-027-N.jpg",NA,"SUPTM31721"
"44",1689012230771,"10/07/2023 18:03:50",1689015830771,1,"10/07/2023 20:03:50",137495,33,"task-wuat",NA,30601717,9085742,NA,"complete",NA,NA,"computer","Desktop or Laptop","Windows 10","Chrome 114.0.0.0","1536x864","1536x714",NA,NA,NA,"JV Task P3 (Updated)",4,"Anxious",NA,"In",NA,NA,"EFDGCHBIAJK",NA,NA,"B (MDot First)",2,123,"SS1","SS1",9,"J","Judginess","y8ii7g",1,"continue","",1364.97900002384,1362.369,1364.97900002384,1364.97900002384,1362.369,1364.97900002384,1,1364.97900002384,0,0,NA,"Click To Continue","Continue Button",1,"object-14","J","CFD-IM-695-001-S.jpeg",NA,"SUPTM31721"
"45",1689012230771,"10/07/2023 18:03:50",1689015830771,1,"10/07/2023 20:03:50",137495,33,"task-wuat",NA,30601717,9085742,NA,"complete",NA,NA,"computer","Desktop or Laptop","Windows 10","Chrome 114.0.0.0","1536x864","1536x714",NA,NA,NA,"JV Task P3 (Updated)",4,"Anxious",NA,"In",NA,NA,"EFDGCHBIAJK",NA,NA,"B (MDot First)",2,123,"SS1","SS1",9,"J","Judginess","y8ii7g",1,"response","0",958.715000000004,1362.369,1365.17900007153,958.715000000004,1362.369,1365.17900007153,1,958.715000000004,406.464000071523,0,NA,"Slider","J",3,"object-18","J","CFD-IM-695-001-S.jpeg",NA,"SUPTM31721"
"46",1689012231754,"10/07/2023 18:03:51",1689015831754,1,"10/07/2023 20:03:51",137495,33,"task-wuat",NA,30601717,9085742,NA,"complete",NA,NA,"computer","Desktop or Laptop","Windows 10","Chrome 114.0.0.0","1536x864","1536x714",NA,NA,NA,"JV Task P3 (Updated)",4,"Anxious",NA,"In",NA,NA,"EFDGCHBIAJK",NA,NA,"B (MDot First)",2,123,"SS1","SS1",9,"J","Fixation","w9zir9",2,"continue","",984.870000000003,984.870000000003,984.870000000003,984.870000000003,984.870000000003,984.870000000003,1,984.870000000003,0,0,NA,"Fixation Timing","Fixation",1,"object-65","J","CFD-IM-695-001-S.jpeg",NA,"SUPTM31721"
"47",1689012233005,"10/07/2023 18:03:53",1689015833005,1,"10/07/2023 20:03:53",137495,33,"task-wuat",NA,30601717,9085742,NA,"complete",NA,NA,"computer","Desktop or Laptop","Windows 10","Chrome 114.0.0.0","1536x864","1536x714",NA,NA,NA,"JV Task P3 (Updated)",4,"Anxious",NA,"In",NA,NA,"EFDGCHBIAJK",NA,NA,"B (MDot First)",2,123,"SS1","SS1",10,"J","Judginess","y8ii7g",1,"continue","",1251.74000002384,1250.02,1251.74000002384,1251.74000002384,1250.02,1251.74000002384,1,1251.74000002384,0,0,NA,"Click To Continue","Continue Button",1,"object-14","J","CFD-MF-309-002-S.jpeg",NA,"SUPTM31721"
"48",1689012233005,"10/07/2023 18:03:53",1689015833005,1,"10/07/2023 20:03:53",137495,33,"task-wuat",NA,30601717,9085742,NA,"complete",NA,NA,"computer","Desktop or Laptop","Windows 10","Chrome 114.0.0.0","1536x864","1536x714",NA,NA,NA,"JV Task P3 (Updated)",4,"Anxious",NA,"In",NA,NA,"EFDGCHBIAJK",NA,NA,"B (MDot First)",2,123,"SS1","SS1",10,"J","Judginess","y8ii7g",1,"response","0",849.292999999998,1250.02,1252.04000009537,849.292999999998,1250.02,1252.04000009537,1,849.292999999998,402.747000095369,0,NA,"Slider","J",3,"object-18","J","CFD-MF-309-002-S.jpeg",NA,"SUPTM31721"
"49",1689012233984,"10/07/2023 18:03:53",1689015833984,1,"10/07/2023 20:03:53",137495,33,"task-wuat",NA,30601717,9085742,NA,"complete",NA,NA,"computer","Desktop or Laptop","Windows 10","Chrome 114.0.0.0","1536x864","1536x714",NA,NA,NA,"JV Task P3 (Updated)",4,"Anxious",NA,"In",NA,NA,"EFDGCHBIAJK",NA,NA,"B (MDot First)",2,123,"SS1","SS1",10,"J","Fixation","w9zir9",2,"continue","",979.201999999997,979.201999999997,979.201999999997,979.201999999997,979.201999999997,979.201999999997,1,979.201999999997,0,0,NA,"Fixation Timing","Fixation",1,"object-65","J","CFD-MF-309-002-S.jpeg",NA,"SUPTM31721"
"50",1689012236118,"10/07/2023 18:03:56",1689015836118,1,"10/07/2023 20:03:56",137495,33,"task-wuat",NA,30601717,9085742,NA,"complete",NA,NA,"computer","Desktop or Laptop","Windows 10","Chrome 114.0.0.0","1536x864","1536x714",NA,NA,NA,"JV Task P3 (Updated)",4,"Anxious",NA,"In",NA,NA,"EFDGCHBIAJK",NA,NA,"B (MDot First)",2,123,"SS1","SS1",11,"J","Judginess","y8ii7g",1,"continue","",2135.01800002385,2131.872,2135.01800002385,2135.01800002385,2131.872,2135.01800002385,1,2135.01800002385,0,0,NA,"Click To Continue","Continue Button",1,"object-14","J","CFD-WF-037-029-S.jpeg",NA,"SUPTM31721"
"51",1689012236118,"10/07/2023 18:03:56",1689015836118,1,"10/07/2023 20:03:56",137495,33,"task-wuat",NA,30601717,9085742,NA,"complete",NA,NA,"computer","Desktop or Laptop","Windows 10","Chrome 114.0.0.0","1536x864","1536x714",NA,NA,NA,"JV Task P3 (Updated)",4,"Anxious",NA,"In",NA,NA,"EFDGCHBIAJK",NA,NA,"B (MDot First)",2,123,"SS1","SS1",11,"J","Judginess","y8ii7g",1,"response","0",1492.52,2131.872,2135.41800000001,1492.52,2131.872,2135.41800000001,1,1492.52,642.898000000001,0,NA,"Slider","J",3,"object-18","J","CFD-WF-037-029-S.jpeg",NA,"SUPTM31721"
"52",1689012237095,"10/07/2023 18:03:57",1689015837095,1,"10/07/2023 20:03:57",137495,33,"task-wuat",NA,30601717,9085742,NA,"complete",NA,NA,"computer","Desktop or Laptop","Windows 10","Chrome 114.0.0.0","1536x864","1536x714",NA,NA,NA,"JV Task P3 (Updated)",4,"Anxious",NA,"In",NA,NA,"EFDGCHBIAJK",NA,NA,"B (MDot First)",2,123,"SS1","SS1",11,"J","Fixation","w9zir9",2,"continue","",979.150000000009,979.150000000009,979.150000000009,979.150000000009,979.150000000009,979.150000000009,1,979.150000000009,0,0,NA,"Fixation Timing","Fixation",1,"object-65","J","CFD-WF-037-029-S.jpeg",NA,"SUPTM31721"
"53",1689012239052,"10/07/2023 18:03:59",1689015839052,1,"10/07/2023 20:03:59",137495,33,"task-wuat",NA,30601717,9085742,NA,"complete",NA,NA,"computer","Desktop or Laptop","Windows 10","Chrome 114.0.0.0","1536x864","1536x714",NA,NA,NA,"JV Task P3 (Updated)",4,"Anxious",NA,"In",NA,NA,"EFDGCHBIAJK",NA,NA,"B (MDot First)",2,123,"SS1","SS1",7,"V","Valence","xyoebq",1,"continue","",1958.39599999999,1956.712,1958.39599999999,1958.39599999999,1956.712,1958.39599999999,1,1958.39599999999,0,0,NA,"Click To Continue","Continue Button",1,"object-25","V","CFD-MM-308-001-H.jpeg",NA,"SUPTM31721"
"54",1689012239055,"10/07/2023 18:03:59",1689015839055,1,"10/07/2023 20:03:59",137495,33,"task-wuat",NA,30601717,9085742,NA,"complete",NA,NA,"computer","Desktop or Laptop","Windows 10","Chrome 114.0.0.0","1536x864","1536x714",NA,NA,NA,"JV Task P3 (Updated)",4,"Anxious",NA,"In",NA,NA,"EFDGCHBIAJK",NA,NA,"B (MDot First)",2,123,"SS1","SS1",7,"V","Valence","xyoebq",1,"response","83",930.620999999999,1956.712,1961.19600007152,930.620999999999,1956.712,1961.19600007152,1,930.620999999999,1030.57500007152,0,NA,"Slider","J",3,"object-27","V","CFD-MM-308-001-H.jpeg",NA,"SUPTM31721"
"55",1689012240032,"10/07/2023 18:04:00",1689015840032,1,"10/07/2023 20:04:00",137495,33,"task-wuat",NA,30601717,9085742,NA,"complete",NA,NA,"computer","Desktop or Laptop","Windows 10","Chrome 114.0.0.0","1536x864","1536x714",NA,NA,NA,"JV Task P3 (Updated)",4,"Anxious",NA,"In",NA,NA,"EFDGCHBIAJK",NA,NA,"B (MDot First)",2,123,"SS1","SS1",7,"V","Fixation","68owkj",2,"continue","",980.692999999999,980.692999999999,980.692999999999,980.692999999999,980.692999999999,980.692999999999,1,980.692999999999,0,0,NA,"Fixation Timing","Fixation",1,"object-21","V","CFD-MM-308-001-H.jpeg",NA,"SUPTM31721"
"56",1689012242016,"10/07/2023 18:04:02",1689015842016,1,"10/07/2023 20:04:02",137495,33,"task-wuat",NA,30601717,9085742,NA,"complete",NA,NA,"computer","Desktop or Laptop","Windows 10","Chrome 114.0.0.0","1536x864","1536x714",NA,NA,NA,"JV Task P3 (Updated)",4,"Anxious",NA,"In",NA,NA,"EFDGCHBIAJK",NA,NA,"B (MDot First)",2,123,"SS1","SS1",8,"V","Valence","xyoebq",1,"continue","",1984.99099999999,1979.061,1984.99099999999,1984.99099999999,1979.061,1984.99099999999,1,1984.99099999999,0,0,NA,"Click To Continue","Continue Button",1,"object-25","V","CFD-MM-308-001-H.jpeg",NA,"SUPTM31721"
"57",1689012242016,"10/07/2023 18:04:02",1689015842016,1,"10/07/2023 20:04:02",137495,33,"task-wuat",NA,30601717,9085742,NA,"complete",NA,NA,"computer","Desktop or Laptop","Windows 10","Chrome 114.0.0.0","1536x864","1536x714",NA,NA,NA,"JV Task P3 (Updated)",4,"Anxious",NA,"In",NA,NA,"EFDGCHBIAJK",NA,NA,"B (MDot First)",2,123,"SS1","SS1",8,"V","Valence","xyoebq",1,"response","87",899.330000000002,1979.061,1985.19100004768,899.330000000002,1979.061,1985.19100004768,1,899.330000000002,1085.86100004768,0,NA,"Slider","J",3,"object-27","V","CFD-MM-308-001-H.jpeg",NA,"SUPTM31721"
"58",1689012242997,"10/07/2023 18:04:02",1689015842997,1,"10/07/2023 20:04:02",137495,33,"task-wuat",NA,30601717,9085742,NA,"complete",NA,NA,"computer","Desktop or Laptop","Windows 10","Chrome 114.0.0.0","1536x864","1536x714",NA,NA,NA,"JV Task P3 (Updated)",4,"Anxious",NA,"In",NA,NA,"EFDGCHBIAJK",NA,NA,"B (MDot First)",2,123,"SS1","SS1",8,"V","Fixation","68owkj",2,"continue","",986.021999999997,986.021999999997,986.021999999997,986.021999999997,986.021999999997,986.021999999997,1,986.021999999997,0,0,NA,"Fixation Timing","Fixation",1,"object-21","V","CFD-MM-308-001-H.jpeg",NA,"SUPTM31721"
"59",1689012245060,"10/07/2023 18:04:05",1689015845060,1,"10/07/2023 20:04:05",137495,33,"task-wuat",NA,30601717,9085742,NA,"complete",NA,NA,"computer","Desktop or Laptop","Windows 10","Chrome 114.0.0.0","1536x864","1536x714",NA,NA,NA,"JV Task P3 (Updated)",4,"Anxious",NA,"In",NA,NA,"EFDGCHBIAJK",NA,NA,"B (MDot First)",2,123,"SS1","SS1",12,"J","Judginess","y8ii7g",1,"continue","",2063.20800007152,2058.18799999999,2063.20800007152,2063.20800007152,2058.18799999999,2063.20800007152,1,2063.20800007152,0,0,NA,"Click To Continue","Continue Button",1,"object-14","J","CFD-WF-039-025-H.jpeg",NA,"SUPTM31721"
"60",1689012245060,"10/07/2023 18:04:05",1689015845060,1,"10/07/2023 20:04:05",137495,33,"task-wuat",NA,30601717,9085742,NA,"complete",NA,NA,"computer","Desktop or Laptop","Windows 10","Chrome 114.0.0.0","1536x864","1536x714",NA,NA,NA,"JV Task P3 (Updated)",4,"Anxious",NA,"In",NA,NA,"EFDGCHBIAJK",NA,NA,"B (MDot First)",2,123,"SS1","SS1",12,"J","Judginess","y8ii7g",1,"response","76",812.627999999997,2058.18799999999,2063.60800004768,812.627999999997,2058.18799999999,2063.60800004768,1,812.627999999997,1250.98000004768,0,NA,"Slider","J",3,"object-18","J","CFD-WF-039-025-H.jpeg",NA,"SUPTM31721"
"61",1689012246039,"10/07/2023 18:04:06",1689015846039,1,"10/07/2023 20:04:06",137495,33,"task-wuat",NA,30601717,9085742,NA,"complete",NA,NA,"computer","Desktop or Laptop","Windows 10","Chrome 114.0.0.0","1536x864","1536x714",NA,NA,NA,"JV Task P3 (Updated)",4,"Anxious",NA,"In",NA,NA,"EFDGCHBIAJK",NA,NA,"B (MDot First)",2,123,"SS1","SS1",12,"J","Fixation","w9zir9",2,"continue","",983.449999999997,983.449999999997,983.449999999997,983.449999999997,983.449999999997,983.449999999997,1,983.449999999997,0,0,NA,"Fixation Timing","Fixation",1,"object-65","J","CFD-WF-039-025-H.jpeg",NA,"SUPTM31721"
"62",1689012247366,"10/07/2023 18:04:07",1689015847366,1,"10/07/2023 20:04:07",137495,33,"task-wuat",NA,30601717,9085742,NA,"complete",NA,NA,"computer","Desktop or Laptop","Windows 10","Chrome 114.0.0.0","1536x864","1536x714",NA,NA,NA,"JV Task P3 (Updated)",4,"Anxious",NA,"In",NA,NA,"EFDGCHBIAJK",NA,NA,"B (MDot First)",2,123,"SS1","SS1",9,"V","Valence","xyoebq",1,"continue","",1328.37000002385,1324.94200000001,1328.37000002385,1328.37000002385,1324.94200000001,1328.37000002385,1,1328.37000002385,0,0,NA,"Click To Continue","Continue Button",1,"object-25","V","CFD-WM-019-003-S.jpeg",NA,"SUPTM31721"
"63",1689012247367,"10/07/2023 18:04:07",1689015847367,1,"10/07/2023 20:04:07",137495,33,"task-wuat",NA,30601717,9085742,NA,"complete",NA,NA,"computer","Desktop or Laptop","Windows 10","Chrome 114.0.0.0","1536x864","1536x714",NA,NA,NA,"JV Task P3 (Updated)",4,"Anxious",NA,"In",NA,NA,"EFDGCHBIAJK",NA,NA,"B (MDot First)",2,123,"SS1","SS1",9,"V","Valence","xyoebq",1,"response","0",777.635999999999,1324.94200000001,1328.67000009537,777.635999999999,1324.94200000001,1328.67000009537,1,777.635999999999,551.034000095373,0,NA,"Slider","J",3,"object-27","V","CFD-WM-019-003-S.jpeg",NA,"SUPTM31721"
"64",1689012248351,"10/07/2023 18:04:08",1689015848351,1,"10/07/2023 20:04:08",137495,33,"task-wuat",NA,30601717,9085742,NA,"complete",NA,NA,"computer","Desktop or Laptop","Windows 10","Chrome 114.0.0.0","1536x864","1536x714",NA,NA,NA,"JV Task P3 (Updated)",4,"Anxious",NA,"In",NA,NA,"EFDGCHBIAJK",NA,NA,"B (MDot First)",2,123,"SS1","SS1",9,"V","Fixation","68owkj",2,"continue","",987.443999999989,987.443999999989,987.443999999989,987.443999999989,987.443999999989,987.443999999989,1,987.443999999989,0,0,NA,"Fixation Timing","Fixation",1,"object-21","V","CFD-WM-019-003-S.jpeg",NA,"SUPTM31721"
"65",1689012250446,"10/07/2023 18:04:10",1689015850446,1,"10/07/2023 20:04:10",137495,33,"task-wuat",NA,30601717,9085742,NA,"complete",NA,NA,"computer","Desktop or Laptop","Windows 10","Chrome 114.0.0.0","1536x864","1536x714",NA,NA,NA,"JV Task P3 (Updated)",4,"Anxious",NA,"In",NA,NA,"EFDGCHBIAJK",NA,NA,"B (MDot First)",2,123,"SS1","SS1",10,"V","Valence","xyoebq",1,"continue","",2096.18400007153,2092.90100000001,2096.18400007153,2096.18400007153,2092.90100000001,2096.18400007153,1,2096.18400007153,0,0,NA,"Click To Continue","Continue Button",1,"object-25","V","CFD-WF-035-024-S.jpeg",NA,"SUPTM31721"
"66",1689012250449,"10/07/2023 18:04:10",1689015850449,1,"10/07/2023 20:04:10",137495,33,"task-wuat",NA,30601717,9085742,NA,"complete",NA,NA,"computer","Desktop or Laptop","Windows 10","Chrome 114.0.0.0","1536x864","1536x714",NA,NA,NA,"JV Task P3 (Updated)",4,"Anxious",NA,"In",NA,NA,"EFDGCHBIAJK",NA,NA,"B (MDot First)",2,123,"SS1","SS1",10,"V","Valence","xyoebq",1,"response","0",1009.79800000001,2092.90100000001,2098.88400000001,1009.79800000001,2092.90100000001,2098.88400000001,1,1009.79800000001,1089.086,0,NA,"Slider","J",3,"object-27","V","CFD-WF-035-024-S.jpeg",NA,"SUPTM31721"
"67",1689012251428,"10/07/2023 18:04:11",1689015851428,1,"10/07/2023 20:04:11",137495,33,"task-wuat",NA,30601717,9085742,NA,"complete",NA,NA,"computer","Desktop or Laptop","Windows 10","Chrome 114.0.0.0","1536x864","1536x714",NA,NA,NA,"JV Task P3 (Updated)",4,"Anxious",NA,"In",NA,NA,"EFDGCHBIAJK",NA,NA,"B (MDot First)",2,123,"SS1","SS1",10,"V","Fixation","68owkj",2,"continue","",983.368999999992,983.368999999992,983.368999999992,983.368999999992,983.368999999992,983.368999999992,1,983.368999999992,0,0,NA,"Fixation Timing","Fixation",1,"object-21","V","CFD-WF-035-024-S.jpeg",NA,"SUPTM31721"
"68",1689012254135,"10/07/2023 18:04:14",1689015854135,1,"10/07/2023 20:04:14",137495,33,"task-wuat",NA,30601717,9085742,NA,"complete",NA,NA,"computer","Desktop or Laptop","Windows 10","Chrome 114.0.0.0","1536x864","1536x714",NA,NA,NA,"JV Task P3 (Updated)",4,"Anxious",NA,"In",NA,NA,"EFDGCHBIAJK",NA,NA,"B (MDot First)",2,123,"SS1","SS1",13,"J","Judginess","y8ii7g",1,"continue","",2706.26700000001,2699.296,2706.26700000001,2706.26700000001,2699.296,2706.26700000001,1,2706.26700000001,0,0,NA,"Click To Continue","Continue Button",1,"object-14","J","CFD-WF-031-027-N.jpg",NA,"SUPTM31721"
"69",1689012254135,"10/07/2023 18:04:14",1689015854135,1,"10/07/2023 20:04:14",137495,33,"task-wuat",NA,30601717,9085742,NA,"complete",NA,NA,"computer","Desktop or Laptop","Windows 10","Chrome 114.0.0.0","1536x864","1536x714",NA,NA,NA,"JV Task P3 (Updated)",4,"Anxious",NA,"In",NA,NA,"EFDGCHBIAJK",NA,NA,"B (MDot First)",2,123,"SS1","SS1",13,"J","Judginess","y8ii7g",1,"response","43",1784.545,2699.296,2706.26700000001,1784.545,2699.296,2706.26700000001,1,1784.545,921.722000000009,0,NA,"Slider","J",3,"object-18","J","CFD-WF-031-027-N.jpg",NA,"SUPTM31721"
"70",1689012255108,"10/07/2023 18:04:15",1689015855108,1,"10/07/2023 20:04:15",137495,33,"task-wuat",NA,30601717,9085742,NA,"complete",NA,NA,"computer","Desktop or Laptop","Windows 10","Chrome 114.0.0.0","1536x864","1536x714",NA,NA,NA,"JV Task P3 (Updated)",4,"Anxious",NA,"In",NA,NA,"EFDGCHBIAJK",NA,NA,"B (MDot First)",2,123,"SS1","SS1",13,"J","Fixation","w9zir9",2,"continue","",981.199999999997,981.199999999997,981.199999999997,981.199999999997,981.199999999997,981.199999999997,1,981.199999999997,0,0,NA,"Fixation Timing","Fixation",1,"object-65","J","CFD-WF-031-027-N.jpg",NA,"SUPTM31721"
"71",1689012257503,"10/07/2023 18:04:17",1689015857503,1,"10/07/2023 20:04:17",137495,33,"task-wuat",NA,30601717,9085742,NA,"complete",NA,NA,"computer","Desktop or Laptop","Windows 10","Chrome 114.0.0.0","1536x864","1536x714",NA,NA,NA,"JV Task P3 (Updated)",4,"Anxious",NA,"In",NA,NA,"EFDGCHBIAJK",NA,NA,"B (MDot First)",2,123,"SS1","SS1",14,"J","Judginess","y8ii7g",1,"continue","",2395.71800002384,2394.211,2395.71800002384,2395.71800002384,2394.211,2395.71800002384,1,2395.71800002384,0,0,NA,"Click To Continue","Continue Button",1,"object-14","J","CFD-AF-211-066-H.jpeg",NA,"SUPTM31721"
"72",1689012257503,"10/07/2023 18:04:17",1689015857503,1,"10/07/2023 20:04:17",137495,33,"task-wuat",NA,30601717,9085742,NA,"complete",NA,NA,"computer","Desktop or Laptop","Windows 10","Chrome 114.0.0.0","1536x864","1536x714",NA,NA,NA,"JV Task P3 (Updated)",4,"Anxious",NA,"In",NA,NA,"EFDGCHBIAJK",NA,NA,"B (MDot First)",2,123,"SS1","SS1",14,"J","Judginess","y8ii7g",1,"response","100",1741.431,2394.211,2396.118,1741.431,2394.211,2396.118,1,1741.431,654.687000000005,0,NA,"Slider","J",3,"object-18","J","CFD-AF-211-066-H.jpeg",NA,"SUPTM31721"
"73",1689012258485,"10/07/2023 18:04:18",1689015858485,1,"10/07/2023 20:04:18",137495,33,"task-wuat",NA,30601717,9085742,NA,"complete",NA,NA,"computer","Desktop or Laptop","Windows 10","Chrome 114.0.0.0","1536x864","1536x714",NA,NA,NA,"JV Task P3 (Updated)",4,"Anxious",NA,"In",NA,NA,"EFDGCHBIAJK",NA,NA,"B (MDot First)",2,123,"SS1","SS1",14,"J","Fixation","w9zir9",2,"continue","",982.497000000003,982.497000000003,982.497000000003,982.497000000003,982.497000000003,982.497000000003,1,982.497000000003,0,0,NA,"Fixation Timing","Fixation",1,"object-65","J","CFD-AF-211-066-H.jpeg",NA,"SUPTM31721"
"74",1689012259949,"10/07/2023 18:04:19",1689015859949,1,"10/07/2023 20:04:19",137495,33,"task-wuat",NA,30601717,9085742,NA,"complete",NA,NA,"computer","Desktop or Laptop","Windows 10","Chrome 114.0.0.0","1536x864","1536x714",NA,NA,NA,"JV Task P3 (Updated)",4,"Anxious",NA,"In",NA,NA,"EFDGCHBIAJK",NA,NA,"B (MDot First)",2,123,"SS1","SS1",15,"J","Judginess","y8ii7g",1,"continue","",1464.81000009537,1463.477,1464.81000009537,1464.81000009537,1463.477,1464.81000009537,1,1464.81000009537,0,0,NA,"Click To Continue","Continue Button",1,"object-14","J","CFD-WM-019-003-N.jpg",NA,"SUPTM31721"
"75",1689012259949,"10/07/2023 18:04:19",1689015859949,1,"10/07/2023 20:04:19",137495,33,"task-wuat",NA,30601717,9085742,NA,"complete",NA,NA,"computer","Desktop or Laptop","Windows 10","Chrome 114.0.0.0","1536x864","1536x714",NA,NA,NA,"JV Task P3 (Updated)",4,"Anxious",NA,"In",NA,NA,"EFDGCHBIAJK",NA,NA,"B (MDot First)",2,123,"SS1","SS1",15,"J","Judginess","y8ii7g",1,"response","0",995.528000000006,1463.477,1465.11000004769,995.528000000006,1463.477,1465.11000004769,1,995.528000000006,469.582000047682,0,NA,"Slider","J",3,"object-18","J","CFD-WM-019-003-N.jpg",NA,"SUPTM31721"
"76",1689012260929,"10/07/2023 18:04:20",1689015860929,1,"10/07/2023 20:04:20",137495,33,"task-wuat",NA,30601717,9085742,NA,"complete",NA,NA,"computer","Desktop or Laptop","Windows 10","Chrome 114.0.0.0","1536x864","1536x714",NA,NA,NA,"JV Task P3 (Updated)",4,"Anxious",NA,"In",NA,NA,"EFDGCHBIAJK",NA,NA,"B (MDot First)",2,123,"SS1","SS1",15,"J","Fixation","w9zir9",2,"continue","",980.471000000005,980.471000000005,980.471000000005,980.471000000005,980.471000000005,980.471000000005,1,980.471000000005,0,0,NA,"Fixation Timing","Fixation",1,"object-65","J","CFD-WM-019-003-N.jpg",NA,"SUPTM31721"
"77",1689012263612,"10/07/2023 18:04:23",1689015863612,1,"10/07/2023 20:04:23",137495,33,"task-wuat",NA,30601717,9085742,NA,"complete",NA,NA,"computer","Desktop or Laptop","Windows 10","Chrome 114.0.0.0","1536x864","1536x714",NA,NA,NA,"JV Task P3 (Updated)",4,"Anxious",NA,"In",NA,NA,"EFDGCHBIAJK",NA,NA,"B (MDot First)",2,123,"SS1","SS1",16,"J","Judginess","y8ii7g",1,"continue","",2684.56200002384,2680.484,2684.56200002384,2684.56200002384,2680.484,2684.56200002384,1,2684.56200002384,0,0,NA,"Click To Continue","Continue Button",1,"object-14","J","CFD-AF-211-066-S.jpeg",NA,"SUPTM31721"
"78",1689012263613,"10/07/2023 18:04:23",1689015863613,1,"10/07/2023 20:04:23",137495,33,"task-wuat",NA,30601717,9085742,NA,"complete",NA,NA,"computer","Desktop or Laptop","Windows 10","Chrome 114.0.0.0","1536x864","1536x714",NA,NA,NA,"JV Task P3 (Updated)",4,"Anxious",NA,"In",NA,NA,"EFDGCHBIAJK",NA,NA,"B (MDot First)",2,123,"SS1","SS1",16,"J","Judginess","y8ii7g",1,"response","29",1825.427,2680.484,2684.86200009537,1825.427,2680.484,2684.86200009537,1,1825.427,859.435000095371,0,NA,"Slider","J",3,"object-18","J","CFD-AF-211-066-S.jpeg",NA,"SUPTM31721"
"79",1689012264595,"10/07/2023 18:04:24",1689015864595,1,"10/07/2023 20:04:24",137495,33,"task-wuat",NA,30601717,9085742,NA,"complete",NA,NA,"computer","Desktop or Laptop","Windows 10","Chrome 114.0.0.0","1536x864","1536x714",NA,NA,NA,"JV Task P3 (Updated)",4,"Anxious",NA,"In",NA,NA,"EFDGCHBIAJK",NA,NA,"B (MDot First)",2,123,"SS1","SS1",16,"J","Fixation","w9zir9",2,"continue","",984.502999999997,984.502999999997,984.502999999997,984.502999999997,984.502999999997,984.502999999997,1,984.502999999997,0,0,NA,"Fixation Timing","Fixation",1,"object-65","J","CFD-AF-211-066-S.jpeg",NA,"SUPTM31721"
"80",1689012267384,"10/07/2023 18:04:27",1689015867384,1,"10/07/2023 20:04:27",137495,33,"task-wuat",NA,30601717,9085742,NA,"complete",NA,NA,"computer","Desktop or Laptop","Windows 10","Chrome 114.0.0.0","1536x864","1536x714",NA,NA,NA,"JV Task P3 (Updated)",4,"Anxious",NA,"In",NA,NA,"EFDGCHBIAJK",NA,NA,"B (MDot First)",2,123,"SS1","SS1",17,"J","Judginess","y8ii7g",1,"continue","",2790.77500007153,2786.19200000001,2790.77500007153,2790.77500007153,2786.19200000001,2790.77500007153,1,2790.77500007153,0,0,NA,"Click To Continue","Continue Button",1,"object-14","J","CFD-WF-011-002-H.jpeg",NA,"SUPTM31721"
"81",1689012267384,"10/07/2023 18:04:27",1689015867384,1,"10/07/2023 20:04:27",137495,33,"task-wuat",NA,30601717,9085742,NA,"complete",NA,NA,"computer","Desktop or Laptop","Windows 10","Chrome 114.0.0.0","1536x864","1536x714",NA,NA,NA,"JV Task P3 (Updated)",4,"Anxious",NA,"In",NA,NA,"EFDGCHBIAJK",NA,NA,"B (MDot First)",2,123,"SS1","SS1",17,"J","Judginess","y8ii7g",1,"response","55",2103.99900000001,2786.19200000001,2791.07500002385,2103.99900000001,2786.19200000001,2791.07500002385,1,2103.99900000001,687.076000023837,0,NA,"Slider","J",3,"object-18","J","CFD-WF-011-002-H.jpeg",NA,"SUPTM31721"
"82",1689012268361,"10/07/2023 18:04:28",1689015868361,1,"10/07/2023 20:04:28",137495,33,"task-wuat",NA,30601717,9085742,NA,"complete",NA,NA,"computer","Desktop or Laptop","Windows 10","Chrome 114.0.0.0","1536x864","1536x714",NA,NA,NA,"JV Task P3 (Updated)",4,"Anxious",NA,"In",NA,NA,"EFDGCHBIAJK",NA,NA,"B (MDot First)",2,123,"SS1","SS1",17,"J","Fixation","w9zir9",2,"continue","",981.479999999996,981.479999999996,981.479999999996,981.479999999996,981.479999999996,981.479999999996,1,981.479999999996,0,0,NA,"Fixation Timing","Fixation",1,"object-65","J","CFD-WF-011-002-H.jpeg",NA,"SUPTM31721"
"83",1689012269858,"10/07/2023 18:04:29",1689015869858,1,"10/07/2023 20:04:29",137495,33,"task-wuat",NA,30601717,9085742,NA,"complete",NA,NA,"computer","Desktop or Laptop","Windows 10","Chrome 114.0.0.0","1536x864","1536x714",NA,NA,NA,"JV Task P3 (Updated)",4,"Anxious",NA,"In",NA,NA,"EFDGCHBIAJK",NA,NA,"B (MDot First)",2,123,"SS1","SS1",18,"J","Judginess","y8ii7g",1,"continue","",1498.00300004768,1492.27099999999,1498.00300004768,1498.00300004768,1492.27099999999,1498.00300004768,1,1498.00300004768,0,0,NA,"Click To Continue","Continue Button",1,"object-14","J","CFD-WM-035-032-H.jpeg",NA,"SUPTM31721"
"84",1689012269859,"10/07/2023 18:04:29",1689015869859,1,"10/07/2023 20:04:29",137495,33,"task-wuat",NA,30601717,9085742,NA,"complete",NA,NA,"computer","Desktop or Laptop","Windows 10","Chrome 114.0.0.0","1536x864","1536x714",NA,NA,NA,"JV Task P3 (Updated)",4,"Anxious",NA,"In",NA,NA,"EFDGCHBIAJK",NA,NA,"B (MDot First)",2,123,"SS1","SS1",18,"J","Judginess","y8ii7g",1,"response","63",832.837,1492.27099999999,1498.303,832.837,1492.27099999999,1498.303,1,832.837,665.466,0,NA,"Slider","J",3,"object-18","J","CFD-WM-035-032-H.jpeg",NA,"SUPTM31721"
"85",1689012270845,"10/07/2023 18:04:30",1689015870845,1,"10/07/2023 20:04:30",137495,33,"task-wuat",NA,30601717,9085742,NA,"complete",NA,NA,"computer","Desktop or Laptop","Windows 10","Chrome 114.0.0.0","1536x864","1536x714",NA,NA,NA,"JV Task P3 (Updated)",4,"Anxious",NA,"In",NA,NA,"EFDGCHBIAJK",NA,NA,"B (MDot First)",2,123,"SS1","SS1",18,"J","Fixation","w9zir9",2,"continue","",992.128000000012,992.128000000012,992.128000000012,992.128000000012,992.128000000012,992.128000000012,1,992.128000000012,0,0,NA,"Fixation Timing","Fixation",1,"object-65","J","CFD-WM-035-032-H.jpeg",NA,"SUPTM31721"
"86",1689012272801,"10/07/2023 18:04:32",1689015872801,1,"10/07/2023 20:04:32",137495,33,"task-wuat",NA,30601717,9085742,NA,"complete",NA,NA,"computer","Desktop or Laptop","Windows 10","Chrome 114.0.0.0","1536x864","1536x714",NA,NA,NA,"JV Task P3 (Updated)",4,"Anxious",NA,"In",NA,NA,"EFDGCHBIAJK",NA,NA,"B (MDot First)",2,123,"SS1","SS1",19,"J","Judginess","y8ii7g",1,"continue","",1956.00400002384,1952.34199999999,1956.00400002384,1956.00400002384,1952.34199999999,1956.00400002384,1,1956.00400002384,0,0,NA,"Click To Continue","Continue Button",1,"object-14","J","CFD-WM-036-031-H.jpeg",NA,"SUPTM31721"
"87",1689012272804,"10/07/2023 18:04:32",1689015872804,1,"10/07/2023 20:04:32",137495,33,"task-wuat",NA,30601717,9085742,NA,"complete",NA,NA,"computer","Desktop or Laptop","Windows 10","Chrome 114.0.0.0","1536x864","1536x714",NA,NA,NA,"JV Task P3 (Updated)",4,"Anxious",NA,"In",NA,NA,"EFDGCHBIAJK",NA,NA,"B (MDot First)",2,123,"SS1","SS1",19,"J","Judginess","y8ii7g",1,"response","84",914.489000000001,1952.34199999999,1959.00400002384,914.489000000001,1952.34199999999,1959.00400002384,1,914.489000000001,1044.51500002384,0,NA,"Slider","J",3,"object-18","J","CFD-WM-036-031-H.jpeg",NA,"SUPTM31721"
"88",1689012273782,"10/07/2023 18:04:33",1689015873782,1,"10/07/2023 20:04:33",137495,33,"task-wuat",NA,30601717,9085742,NA,"complete",NA,NA,"computer","Desktop or Laptop","Windows 10","Chrome 114.0.0.0","1536x864","1536x714",NA,NA,NA,"JV Task P3 (Updated)",4,"Anxious",NA,"In",NA,NA,"EFDGCHBIAJK",NA,NA,"B (MDot First)",2,123,"SS1","SS1",19,"J","Fixation","w9zir9",2,"continue","",983.467000000004,983.467000000004,983.467000000004,983.467000000004,983.467000000004,983.467000000004,1,983.467000000004,0,0,NA,"Fixation Timing","Fixation",1,"object-65","J","CFD-WM-036-031-H.jpeg",NA,"SUPTM31721"
"89",1689012275639,"10/07/2023 18:04:35",1689015875639,1,"10/07/2023 20:04:35",137495,33,"task-wuat",NA,30601717,9085742,NA,"complete",NA,NA,"computer","Desktop or Laptop","Windows 10","Chrome 114.0.0.0","1536x864","1536x714",NA,NA,NA,"JV Task P3 (Updated)",4,"Anxious",NA,"In",NA,NA,"EFDGCHBIAJK",NA,NA,"B (MDot First)",2,123,"SS1","SS1",11,"V","Valence","xyoebq",1,"continue","",1858.39500007153,1854.591,1858.39500007153,1858.39500007153,1854.591,1858.39500007153,1,1858.39500007153,0,0,NA,"Click To Continue","Continue Button",1,"object-25","V","CFD-AF-250-200-H.jpeg",NA,"SUPTM31721"
"90",1689012275639,"10/07/2023 18:04:35",1689015875639,1,"10/07/2023 20:04:35",137495,33,"task-wuat",NA,30601717,9085742,NA,"complete",NA,NA,"computer","Desktop or Laptop","Windows 10","Chrome 114.0.0.0","1536x864","1536x714",NA,NA,NA,"JV Task P3 (Updated)",4,"Anxious",NA,"In",NA,NA,"EFDGCHBIAJK",NA,NA,"B (MDot First)",2,123,"SS1","SS1",11,"V","Valence","xyoebq",1,"response","64",1191.59600000001,1854.591,1858.69500002384,1191.59600000001,1854.591,1858.69500002384,1,1191.59600000001,667.099000023838,0,NA,"Slider","J",3,"object-27","V","CFD-AF-250-200-H.jpeg",NA,"SUPTM31721"
"91",1689012276618,"10/07/2023 18:04:36",1689015876618,1,"10/07/2023 20:04:36",137495,33,"task-wuat",NA,30601717,9085742,NA,"complete",NA,NA,"computer","Desktop or Laptop","Windows 10","Chrome 114.0.0.0","1536x864","1536x714",NA,NA,NA,"JV Task P3 (Updated)",4,"Anxious",NA,"In",NA,NA,"EFDGCHBIAJK",NA,NA,"B (MDot First)",2,123,"SS1","SS1",11,"V","Fixation","68owkj",2,"continue","",981.486999999994,981.486999999994,981.486999999994,981.486999999994,981.486999999994,981.486999999994,1,981.486999999994,0,0,NA,"Fixation Timing","Fixation",1,"object-21","V","CFD-AF-250-200-H.jpeg",NA,"SUPTM31721"
"92",1689012278220,"10/07/2023 18:04:38",1689015878220,1,"10/07/2023 20:04:38",137495,33,"task-wuat",NA,30601717,9085742,NA,"complete",NA,NA,"computer","Desktop or Laptop","Windows 10","Chrome 114.0.0.0","1536x864","1536x714",NA,NA,NA,"JV Task P3 (Updated)",4,"Anxious",NA,"In",NA,NA,"EFDGCHBIAJK",NA,NA,"B (MDot First)",2,123,"SS1","SS1",12,"V","Valence","xyoebq",1,"continue","",1602.88200000001,1595.91100000001,1602.88200000001,1602.88200000001,1595.91100000001,1602.88200000001,1,1602.88200000001,0,0,NA,"Click To Continue","Continue Button",1,"object-25","V","CFD-BM-016-036-H.jpeg",NA,"SUPTM31721"
"93",1689012278221,"10/07/2023 18:04:38",1689015878221,1,"10/07/2023 20:04:38",137495,33,"task-wuat",NA,30601717,9085742,NA,"complete",NA,NA,"computer","Desktop or Laptop","Windows 10","Chrome 114.0.0.0","1536x864","1536x714",NA,NA,NA,"JV Task P3 (Updated)",4,"Anxious",NA,"In",NA,NA,"EFDGCHBIAJK",NA,NA,"B (MDot First)",2,123,"SS1","SS1",12,"V","Valence","xyoebq",1,"response","66",1010.19100000001,1595.91100000001,1602.88200000001,1010.19100000001,1595.91100000001,1602.88200000001,1,1010.19100000001,592.691000000006,0,NA,"Slider","J",3,"object-27","V","CFD-BM-016-036-H.jpeg",NA,"SUPTM31721"
"94",1689012279202,"10/07/2023 18:04:39",1689015879202,1,"10/07/2023 20:04:39",137495,33,"task-wuat",NA,30601717,9085742,NA,"complete",NA,NA,"computer","Desktop or Laptop","Windows 10","Chrome 114.0.0.0","1536x864","1536x714",NA,NA,NA,"JV Task P3 (Updated)",4,"Anxious",NA,"In",NA,NA,"EFDGCHBIAJK",NA,NA,"B (MDot First)",2,123,"SS1","SS1",12,"V","Fixation","68owkj",2,"continue","",987.279999999999,987.279999999999,987.279999999999,987.279999999999,987.279999999999,987.279999999999,1,987.279999999999,0,0,NA,"Fixation Timing","Fixation",1,"object-21","V","CFD-BM-016-036-H.jpeg",NA,"SUPTM31721"
"95",1689012281193,"10/07/2023 18:04:41",1689015881193,1,"10/07/2023 20:04:41",137495,33,"task-wuat",NA,30601717,9085742,NA,"complete",NA,NA,"computer","Desktop or Laptop","Windows 10","Chrome 114.0.0.0","1536x864","1536x714",NA,NA,NA,"JV Task P3 (Updated)",4,"Anxious",NA,"In",NA,NA,"EFDGCHBIAJK",NA,NA,"B (MDot First)",2,123,"SS1","SS1",20,"J","Judginess","y8ii7g",1,"continue","",1993.326,1991.061,1993.326,1993.326,1991.061,1993.326,1,1993.326,0,0,NA,"Click To Continue","Continue Button",1,"object-14","J","CFD-WM-026-001-H.jpeg",NA,"SUPTM31721"
"96",1689012281193,"10/07/2023 18:04:41",1689015881193,1,"10/07/2023 20:04:41",137495,33,"task-wuat",NA,30601717,9085742,NA,"complete",NA,NA,"computer","Desktop or Laptop","Windows 10","Chrome 114.0.0.0","1536x864","1536x714",NA,NA,NA,"JV Task P3 (Updated)",4,"Anxious",NA,"In",NA,NA,"EFDGCHBIAJK",NA,NA,"B (MDot First)",2,123,"SS1","SS1",20,"J","Judginess","y8ii7g",1,"response","82",1156.101,1991.061,1993.52600004768,1156.101,1991.061,1993.52600004768,1,1156.101,837.42500004769,0,NA,"Slider","J",3,"object-18","J","CFD-WM-026-001-H.jpeg",NA,"SUPTM31721"
"97",1689012282169,"10/07/2023 18:04:42",1689015882169,1,"10/07/2023 20:04:42",137495,33,"task-wuat",NA,30601717,9085742,NA,"complete",NA,NA,"computer","Desktop or Laptop","Windows 10","Chrome 114.0.0.0","1536x864","1536x714",NA,NA,NA,"JV Task P3 (Updated)",4,"Anxious",NA,"In",NA,NA,"EFDGCHBIAJK",NA,NA,"B (MDot First)",2,123,"SS1","SS1",20,"J","Fixation","w9zir9",2,"continue","",977.929999999993,977.929999999993,977.929999999993,977.929999999993,977.929999999993,977.929999999993,1,977.929999999993,0,0,NA,"Fixation Timing","Fixation",1,"object-65","J","CFD-WM-026-001-H.jpeg",NA,"SUPTM31721"
"98",1689012283897,"10/07/2023 18:04:43",1689015883897,1,"10/07/2023 20:04:43",137495,33,"task-wuat",NA,30601717,9085742,NA,"complete",NA,NA,"computer","Desktop or Laptop","Windows 10","Chrome 114.0.0.0","1536x864","1536x714",NA,NA,NA,"JV Task P3 (Updated)",4,"Anxious",NA,"In",NA,NA,"EFDGCHBIAJK",NA,NA,"B (MDot First)",2,123,"SS1","SS1",21,"J","Judginess","y8ii7g",1,"continue","",1728.43500002385,1724.607,1728.43500002385,1728.43500002385,1724.607,1728.43500002385,1,1728.43500002385,0,0,NA,"Click To Continue","Continue Button",1,"object-14","J","CFD-WM-037-025-S.jpeg",NA,"SUPTM31721"
"99",1689012283901,"10/07/2023 18:04:43",1689015883901,1,"10/07/2023 20:04:43",137495,33,"task-wuat",NA,30601717,9085742,NA,"complete",NA,NA,"computer","Desktop or Laptop","Windows 10","Chrome 114.0.0.0","1536x864","1536x714",NA,NA,NA,"JV Task P3 (Updated)",4,"Anxious",NA,"In",NA,NA,"EFDGCHBIAJK",NA,NA,"B (MDot First)",2,123,"SS1","SS1",21,"J","Judginess","y8ii7g",1,"response","5",1000.523,1724.607,1731.55,1000.523,1724.607,1731.55,1,1000.523,731.027000000002,0,NA,"Slider","J",3,"object-18","J","CFD-WM-037-025-S.jpeg",NA,"SUPTM31721"
"100",1689012284878,"10/07/2023 18:04:44",1689015884878,1,"10/07/2023 20:04:44",137495,33,"task-wuat",NA,30601717,9085742,NA,"complete",NA,NA,"computer","Desktop or Laptop","Windows 10","Chrome 114.0.0.0","1536x864","1536x714",NA,NA,NA,"JV Task P3 (Updated)",4,"Anxious",NA,"In",NA,NA,"EFDGCHBIAJK",NA,NA,"B (MDot First)",2,123,"SS1","SS1",21,"J","Fixation","w9zir9",2,"continue","",983.627000000008,983.627000000008,983.627000000008,983.627000000008,983.627000000008,983.627000000008,1,983.627000000008,0,0,NA,"Fixation Timing","Fixation",1,"object-65","J","CFD-WM-037-025-S.jpeg",NA,"SUPTM31721"
"101",1689012287334,"10/07/2023 18:04:47",1689015887334,1,"10/07/2023 20:04:47",137495,33,"task-wuat",NA,30601717,9085742,NA,"complete",NA,NA,"computer","Desktop or Laptop","Windows 10","Chrome 114.0.0.0","1536x864","1536x714",NA,NA,NA,"JV Task P3 (Updated)",4,"Anxious",NA,"In",NA,NA,"EFDGCHBIAJK",NA,NA,"B (MDot First)",2,123,"SS1","SS1",22,"J","Judginess","y8ii7g",1,"continue","",2456.52300000002,2449.58,2456.52300000002,2456.52300000002,2449.58,2456.52300000002,1,2456.52300000002,0,0,NA,"Click To Continue","Continue Button",1,"object-14","J","CFD-WM-031-003-H.jpeg",NA,"SUPTM31721"
"102",1689012287335,"10/07/2023 18:04:47",1689015887335,1,"10/07/2023 20:04:47",137495,33,"task-wuat",NA,30601717,9085742,NA,"complete",NA,NA,"computer","Desktop or Laptop","Windows 10","Chrome 114.0.0.0","1536x864","1536x714",NA,NA,NA,"JV Task P3 (Updated)",4,"Anxious",NA,"In",NA,NA,"EFDGCHBIAJK",NA,NA,"B (MDot First)",2,123,"SS1","SS1",22,"J","Judginess","y8ii7g",1,"response","62",1513.159,2449.58,2456.52300000002,1513.159,2449.58,2456.52300000002,1,1513.159,943.364000000016,0,NA,"Slider","J",3,"object-18","J","CFD-WM-031-003-H.jpeg",NA,"SUPTM31721"
"103",1689012288308,"10/07/2023 18:04:48",1689015888308,1,"10/07/2023 20:04:48",137495,33,"task-wuat",NA,30601717,9085742,NA,"complete",NA,NA,"computer","Desktop or Laptop","Windows 10","Chrome 114.0.0.0","1536x864","1536x714",NA,NA,NA,"JV Task P3 (Updated)",4,"Anxious",NA,"In",NA,NA,"EFDGCHBIAJK",NA,NA,"B (MDot First)",2,123,"SS1","SS1",22,"J","Fixation","w9zir9",2,"continue","",980.832999999999,980.832999999999,980.832999999999,980.832999999999,980.832999999999,980.832999999999,1,980.832999999999,0,0,NA,"Fixation Timing","Fixation",1,"object-65","J","CFD-WM-031-003-H.jpeg",NA,"SUPTM31721"
"104",1689012290750,"10/07/2023 18:04:50",1689015890750,1,"10/07/2023 20:04:50",137495,33,"task-wuat",NA,30601717,9085742,NA,"complete",NA,NA,"computer","Desktop or Laptop","Windows 10","Chrome 114.0.0.0","1536x864","1536x714",NA,NA,NA,"JV Task P3 (Updated)",4,"Anxious",NA,"In",NA,NA,"EFDGCHBIAJK",NA,NA,"B (MDot First)",2,123,"SS1","SS1",13,"V","Valence","xyoebq",1,"continue","",2442.58800009536,2439.864,2442.58800009536,2442.58800009536,2439.864,2442.58800009536,1,2442.58800009536,0,0,NA,"Click To Continue","Continue Button",1,"object-25","V","CFD-WM-009-002-N.jpg",NA,"SUPTM31721"
"105",1689012290750,"10/07/2023 18:04:50",1689015890750,1,"10/07/2023 20:04:50",137495,33,"task-wuat",NA,30601717,9085742,NA,"complete",NA,NA,"computer","Desktop or Laptop","Windows 10","Chrome 114.0.0.0","1536x864","1536x714",NA,NA,NA,"JV Task P3 (Updated)",4,"Anxious",NA,"In",NA,NA,"EFDGCHBIAJK",NA,NA,"B (MDot First)",2,123,"SS1","SS1",13,"V","Valence","xyoebq",1,"response","20",606.956999999995,2439.864,2442.88800004768,606.956999999995,2439.864,2442.88800004768,1,606.956999999995,1835.93100004768,0,NA,"Slider","J",3,"object-27","V","CFD-WM-009-002-N.jpg",NA,"SUPTM31721"
"106",1689012291732,"10/07/2023 18:04:51",1689015891732,1,"10/07/2023 20:04:51",137495,33,"task-wuat",NA,30601717,9085742,NA,"complete",NA,NA,"computer","Desktop or Laptop","Windows 10","Chrome 114.0.0.0","1536x864","1536x714",NA,NA,NA,"JV Task P3 (Updated)",4,"Anxious",NA,"In",NA,NA,"EFDGCHBIAJK",NA,NA,"B (MDot First)",2,123,"SS1","SS1",13,"V","Fixation","68owkj",2,"continue","",983.469999999987,983.469999999987,983.469999999987,983.469999999987,983.469999999987,983.469999999987,1,983.469999999987,0,0,NA,"Fixation Timing","Fixation",1,"object-21","V","CFD-WM-009-002-N.jpg",NA,"SUPTM31721"
"107",1689012294609,"10/07/2023 18:04:54",1689015894609,1,"10/07/2023 20:04:54",137495,33,"task-wuat",NA,30601717,9085742,NA,"complete",NA,NA,"computer","Desktop or Laptop","Windows 10","Chrome 114.0.0.0","1536x864","1536x714",NA,NA,NA,"JV Task P3 (Updated)",4,"Anxious",NA,"In",NA,NA,"EFDGCHBIAJK",NA,NA,"B (MDot First)",2,123,"SS1","SS1",14,"V","Valence","xyoebq",1,"continue","",2878.45400002385,2874.40700000001,2878.45400002385,2878.45400002385,2874.40700000001,2878.45400002385,1,2878.45400002385,0,0,NA,"Click To Continue","Continue Button",1,"object-25","V","CFD-IF-734-108-N.jpg",NA,"SUPTM31721"
"108",1689012294613,"10/07/2023 18:04:54",1689015894613,1,"10/07/2023 20:04:54",137495,33,"task-wuat",NA,30601717,9085742,NA,"complete",NA,NA,"computer","Desktop or Laptop","Windows 10","Chrome 114.0.0.0","1536x864","1536x714",NA,NA,NA,"JV Task P3 (Updated)",4,"Anxious",NA,"In",NA,NA,"EFDGCHBIAJK",NA,NA,"B (MDot First)",2,123,"SS1","SS1",14,"V","Valence","xyoebq",1,"response","59",2360.625,2874.40700000001,2881.542,2360.625,2874.40700000001,2881.542,1,2360.625,520.917000000001,0,NA,"Slider","J",3,"object-27","V","CFD-IF-734-108-N.jpg",NA,"SUPTM31721"
"109",1689012295593,"10/07/2023 18:04:55",1689015895593,1,"10/07/2023 20:04:55",137495,33,"task-wuat",NA,30601717,9085742,NA,"complete",NA,NA,"computer","Desktop or Laptop","Windows 10","Chrome 114.0.0.0","1536x864","1536x714",NA,NA,NA,"JV Task P3 (Updated)",4,"Anxious",NA,"In",NA,NA,"EFDGCHBIAJK",NA,NA,"B (MDot First)",2,123,"SS1","SS1",14,"V","Fixation","68owkj",2,"continue","",986.686000000002,986.686000000002,986.686000000002,986.686000000002,986.686000000002,986.686000000002,1,986.686000000002,0,0,NA,"Fixation Timing","Fixation",1,"object-21","V","CFD-IF-734-108-N.jpg",NA,"SUPTM31721"
"110",1689012299402,"10/07/2023 18:04:59",1689015899402,1,"10/07/2023 20:04:59",137495,33,"task-wuat",NA,30601717,9085742,NA,"complete",NA,NA,"computer","Desktop or Laptop","Windows 10","Chrome 114.0.0.0","1536x864","1536x714",NA,NA,NA,"JV Task P3 (Updated)",4,"Anxious",NA,"In",NA,NA,"EFDGCHBIAJK",NA,NA,"B (MDot First)",2,123,"SS1","SS1",23,"J","Judginess","y8ii7g",1,"continue","",3809.56100007152,3806.391,3809.56100007152,3809.56100007152,3806.391,3809.56100007152,1,3809.56100007152,0,0,NA,"Click To Continue","Continue Button",1,"object-14","J","CFD-IF-734-108-S.jpeg",NA,"SUPTM31721"
"111",1689012299402,"10/07/2023 18:04:59",1689015899402,1,"10/07/2023 20:04:59",137495,33,"task-wuat",NA,30601717,9085742,NA,"complete",NA,NA,"computer","Desktop or Laptop","Windows 10","Chrome 114.0.0.0","1536x864","1536x714",NA,NA,NA,"JV Task P3 (Updated)",4,"Anxious",NA,"In",NA,NA,"EFDGCHBIAJK",NA,NA,"B (MDot First)",2,123,"SS1","SS1",23,"J","Judginess","y8ii7g",1,"response","46",2863.807,3806.391,3809.86100002384,2863.807,3806.391,3809.86100002384,1,2863.807,946.05400002384,0,NA,"Slider","J",3,"object-18","J","CFD-IF-734-108-S.jpeg",NA,"SUPTM31721"
"112",1689012300379,"10/07/2023 18:05:00",1689015900379,1,"10/07/2023 20:05:00",137495,33,"task-wuat",NA,30601717,9085742,NA,"complete",NA,NA,"computer","Desktop or Laptop","Windows 10","Chrome 114.0.0.0","1536x864","1536x714",NA,NA,NA,"JV Task P3 (Updated)",4,"Anxious",NA,"In",NA,NA,"EFDGCHBIAJK",NA,NA,"B (MDot First)",2,123,"SS1","SS1",23,"J","Fixation","w9zir9",2,"continue","",979.093999999983,979.093999999983,979.093999999983,979.093999999983,979.093999999983,979.093999999983,1,979.093999999983,0,0,NA,"Fixation Timing","Fixation",1,"object-65","J","CFD-IF-734-108-S.jpeg",NA,"SUPTM31721"
"113",1689012304257,"10/07/2023 18:05:04",1689015904257,1,"10/07/2023 20:05:04",137495,33,"task-wuat",NA,30601717,9085742,NA,"complete",NA,NA,"computer","Desktop or Laptop","Windows 10","Chrome 114.0.0.0","1536x864","1536x714",NA,NA,NA,"JV Task P3 (Updated)",4,"Anxious",NA,"In",NA,NA,"EFDGCHBIAJK",NA,NA,"B (MDot First)",2,123,"SS1","SS1",24,"J","Judginess","y8ii7g",1,"continue","",3879.4760000477,3873.83100000001,3879.4760000477,3879.4760000477,3873.83100000001,3879.4760000477,1,3879.4760000477,0,0,NA,"Click To Continue","Continue Button",1,"object-14","J","CFD-WF-017-003-S.jpeg",NA,"SUPTM31721"
"114",1689012304257,"10/07/2023 18:05:04",1689015904257,1,"10/07/2023 20:05:04",137495,33,"task-wuat",NA,30601717,9085742,NA,"complete",NA,NA,"computer","Desktop or Laptop","Windows 10","Chrome 114.0.0.0","1536x864","1536x714",NA,NA,NA,"JV Task P3 (Updated)",4,"Anxious",NA,"In",NA,NA,"EFDGCHBIAJK",NA,NA,"B (MDot First)",2,123,"SS1","SS1",24,"J","Judginess","y8ii7g",1,"response","0",3147.08000000002,3873.83100000001,3879.77600000001,3147.08000000002,3873.83100000001,3879.77600000001,1,3147.08000000002,732.695999999996,0,NA,"Slider","J",3,"object-18","J","CFD-WF-017-003-S.jpeg",NA,"SUPTM31721"
"115",1689012305232,"10/07/2023 18:05:05",1689015905232,1,"10/07/2023 20:05:05",137495,33,"task-wuat",NA,30601717,9085742,NA,"complete",NA,NA,"computer","Desktop or Laptop","Windows 10","Chrome 114.0.0.0","1536x864","1536x714",NA,NA,NA,"JV Task P3 (Updated)",4,"Anxious",NA,"In",NA,NA,"EFDGCHBIAJK",NA,NA,"B (MDot First)",2,123,"SS1","SS1",24,"J","Fixation","w9zir9",2,"continue","",979.539000000019,979.539000000019,979.539000000019,979.539000000019,979.539000000019,979.539000000019,1,979.539000000019,0,0,NA,"Fixation Timing","Fixation",1,"object-65","J","CFD-WF-017-003-S.jpeg",NA,"SUPTM31721"
"116",1689012310242,"10/07/2023 18:05:10",1689015910242,1,"10/07/2023 20:05:10",137495,33,"task-wuat",NA,30601717,9085742,NA,"complete",NA,NA,"computer","Desktop or Laptop","Windows 10","Chrome 114.0.0.0","1536x864","1536x714",NA,NA,NA,"JV Task P3 (Updated)",4,"Anxious",NA,"In",NA,NA,"EFDGCHBIAJK",NA,NA,"B (MDot First)",2,123,"SS1","SS1",25,"J","Judginess","y8ii7g",1,"continue","",5011.10600004767,5007.51199999999,5011.10600004767,5011.10600004767,5007.51199999999,5011.10600004767,1,5011.10600004767,0,0,NA,"Click To Continue","Continue Button",1,"object-14","J","CFD-WM-015-002-H.jpeg",NA,"SUPTM31721"
"117",1689012310242,"10/07/2023 18:05:10",1689015910242,1,"10/07/2023 20:05:10",137495,33,"task-wuat",NA,30601717,9085742,NA,"complete",NA,NA,"computer","Desktop or Laptop","Windows 10","Chrome 114.0.0.0","1536x864","1536x714",NA,NA,NA,"JV Task P3 (Updated)",4,"Anxious",NA,"In",NA,NA,"EFDGCHBIAJK",NA,NA,"B (MDot First)",2,123,"SS1","SS1",25,"J","Judginess","y8ii7g",1,"response","64",2249.851,5007.51199999999,5011.40599999999,2249.851,5007.51199999999,5011.40599999999,1,2249.851,2761.55499999999,0,NA,"Slider","J",3,"object-18","J","CFD-WM-015-002-H.jpeg",NA,"SUPTM31721"
"118",1689012311222,"10/07/2023 18:05:11",1689015911222,1,"10/07/2023 20:05:11",137495,33,"task-wuat",NA,30601717,9085742,NA,"complete",NA,NA,"computer","Desktop or Laptop","Windows 10","Chrome 114.0.0.0","1536x864","1536x714",NA,NA,NA,"JV Task P3 (Updated)",4,"Anxious",NA,"In",NA,NA,"EFDGCHBIAJK",NA,NA,"B (MDot First)",2,123,"SS1","SS1",25,"J","Fixation","w9zir9",2,"continue","",982.829999999987,982.829999999987,982.829999999987,982.829999999987,982.829999999987,982.829999999987,1,982.829999999987,0,0,NA,"Fixation Timing","Fixation",1,"object-65","J","CFD-WM-015-002-H.jpeg",NA,"SUPTM31721"
"119",1689012314534,"10/07/2023 18:05:14",1689015914534,1,"10/07/2023 20:05:14",137495,33,"task-wuat",NA,30601717,9085742,NA,"complete",NA,NA,"computer","Desktop or Laptop","Windows 10","Chrome 114.0.0.0","1536x864","1536x714",NA,NA,NA,"JV Task P3 (Updated)",4,"Anxious",NA,"In",NA,NA,"EFDGCHBIAJK",NA,NA,"B (MDot First)",2,123,"SS1","SS1",15,"V","Valence","xyoebq",1,"continue","",3312.96400009538,3310.83200000002,3312.96400009538,3312.96400009538,3310.83200000002,3312.96400009538,1,3312.96400009538,0,0,NA,"Click To Continue","Continue Button",1,"object-25","V","CFD-WF-024-003-N.jpg",NA,"SUPTM31721"
"120",1689012314534,"10/07/2023 18:05:14",1689015914534,1,"10/07/2023 20:05:14",137495,33,"task-wuat",NA,30601717,9085742,NA,"complete",NA,NA,"computer","Desktop or Laptop","Windows 10","Chrome 114.0.0.0","1536x864","1536x714",NA,NA,NA,"JV Task P3 (Updated)",4,"Anxious",NA,"In",NA,NA,"EFDGCHBIAJK",NA,NA,"B (MDot First)",2,123,"SS1","SS1",15,"V","Valence","xyoebq",1,"response","35",1168.467,3310.83200000002,3313.16400002385,1168.467,3310.83200000002,3313.16400002385,1,1168.467,2144.69700002385,0,NA,"Slider","J",3,"object-27","V","CFD-WF-024-003-N.jpg",NA,"SUPTM31721"
"121",1689012315516,"10/07/2023 18:05:15",1689015915516,1,"10/07/2023 20:05:15",137495,33,"task-wuat",NA,30601717,9085742,NA,"complete",NA,NA,"computer","Desktop or Laptop","Windows 10","Chrome 114.0.0.0","1536x864","1536x714",NA,NA,NA,"JV Task P3 (Updated)",4,"Anxious",NA,"In",NA,NA,"EFDGCHBIAJK",NA,NA,"B (MDot First)",2,123,"SS1","SS1",15,"V","Fixation","68owkj",2,"continue","",983.782999999996,983.782999999996,983.782999999996,983.782999999996,983.782999999996,983.782999999996,1,983.782999999996,0,0,NA,"Fixation Timing","Fixation",1,"object-21","V","CFD-WF-024-003-N.jpg",NA,"SUPTM31721"
"122",1689012318076,"10/07/2023 18:05:18",1689015918076,1,"10/07/2023 20:05:18",137495,33,"task-wuat",NA,30601717,9085742,NA,"complete",NA,NA,"computer","Desktop or Laptop","Windows 10","Chrome 114.0.0.0","1536x864","1536x714",NA,NA,NA,"JV Task P3 (Updated)",4,"Anxious",NA,"In",NA,NA,"EFDGCHBIAJK",NA,NA,"B (MDot First)",2,123,"SS1","SS1",26,"J","Judginess","y8ii7g",1,"continue","",2559.84900009536,2557.448,2559.84900009536,2559.84900009536,2557.448,2559.84900009536,1,2559.84900009536,0,0,NA,"Click To Continue","Continue Button",1,"object-14","J","CFD-AF-211-066-N.jpg",NA,"SUPTM31721"
"123",1689012318076,"10/07/2023 18:05:18",1689015918076,1,"10/07/2023 20:05:18",137495,33,"task-wuat",NA,30601717,9085742,NA,"complete",NA,NA,"computer","Desktop or Laptop","Windows 10","Chrome 114.0.0.0","1536x864","1536x714",NA,NA,NA,"JV Task P3 (Updated)",4,"Anxious",NA,"In",NA,NA,"EFDGCHBIAJK",NA,NA,"B (MDot First)",2,123,"SS1","SS1",26,"J","Judginess","y8ii7g",1,"response","28",1082.617,2557.448,2560.14900004768,1082.617,2557.448,2560.14900004768,1,1082.617,1477.53200004768,0,NA,"Slider","J",3,"object-18","J","CFD-AF-211-066-N.jpg",NA,"SUPTM31721"
"124",1689012319060,"10/07/2023 18:05:19",1689015919060,1,"10/07/2023 20:05:19",137495,33,"task-wuat",NA,30601717,9085742,NA,"complete",NA,NA,"computer","Desktop or Laptop","Windows 10","Chrome 114.0.0.0","1536x864","1536x714",NA,NA,NA,"JV Task P3 (Updated)",4,"Anxious",NA,"In",NA,NA,"EFDGCHBIAJK",NA,NA,"B (MDot First)",2,123,"SS1","SS1",26,"J","Fixation","w9zir9",2,"continue","",986.802999999985,986.802999999985,986.802999999985,986.802999999985,986.802999999985,986.802999999985,1,986.802999999985,0,0,NA,"Fixation Timing","Fixation",1,"object-65","J","CFD-AF-211-066-N.jpg",NA,"SUPTM31721"
"125",1689012320977,"10/07/2023 18:05:20",1689015920977,1,"10/07/2023 20:05:20",137495,33,"task-wuat",NA,30601717,9085742,NA,"complete",NA,NA,"computer","Desktop or Laptop","Windows 10","Chrome 114.0.0.0","1536x864","1536x714",NA,NA,NA,"JV Task P3 (Updated)",4,"Anxious",NA,"In",NA,NA,"EFDGCHBIAJK",NA,NA,"B (MDot First)",2,123,"SS1","SS1",16,"V","Valence","xyoebq",1,"continue","",1916.89800004769,1912.861,1916.89800004769,1916.89800004769,1912.861,1916.89800004769,1,1916.89800004769,0,0,NA,"Click To Continue","Continue Button",1,"object-25","V","CFD-BM-045-004-N.jpg",NA,"SUPTM31721"
"126",1689012320977,"10/07/2023 18:05:20",1689015920977,1,"10/07/2023 20:05:20",137495,33,"task-wuat",NA,30601717,9085742,NA,"complete",NA,NA,"computer","Desktop or Laptop","Windows 10","Chrome 114.0.0.0","1536x864","1536x714",NA,NA,NA,"JV Task P3 (Updated)",4,"Anxious",NA,"In",NA,NA,"EFDGCHBIAJK",NA,NA,"B (MDot First)",2,123,"SS1","SS1",16,"V","Valence","xyoebq",1,"response","7",1111.45800000001,1912.861,1917.29800002385,1111.45800000001,1912.861,1917.29800002385,1,1111.45800000001,805.840000023833,0,NA,"Slider","J",3,"object-27","V","CFD-BM-045-004-N.jpg",NA,"SUPTM31721"
"127",1689012321958,"10/07/2023 18:05:21",1689015921958,1,"10/07/2023 20:05:21",137495,33,"task-wuat",NA,30601717,9085742,NA,"complete",NA,NA,"computer","Desktop or Laptop","Windows 10","Chrome 114.0.0.0","1536x864","1536x714",NA,NA,NA,"JV Task P3 (Updated)",4,"Anxious",NA,"In",NA,NA,"EFDGCHBIAJK",NA,NA,"B (MDot First)",2,123,"SS1","SS1",16,"V","Fixation","68owkj",2,"continue","",985.100999999995,985.100999999995,985.100999999995,985.100999999995,985.100999999995,985.100999999995,1,985.100999999995,0,0,NA,"Fixation Timing","Fixation",1,"object-21","V","CFD-BM-045-004-N.jpg",NA,"SUPTM31721"
"128",1689012324036,"10/07/2023 18:05:24",1689015924036,1,"10/07/2023 20:05:24",137495,33,"task-wuat",NA,30601717,9085742,NA,"complete",NA,NA,"computer","Desktop or Laptop","Windows 10","Chrome 114.0.0.0","1536x864","1536x714",NA,NA,NA,"JV Task P3 (Updated)",4,"Anxious",NA,"In",NA,NA,"EFDGCHBIAJK",NA,NA,"B (MDot First)",2,123,"SS1","SS1",17,"V","Valence","xyoebq",1,"continue","",2078.43600004769,2074.394,2078.43600004769,2078.43600004769,2074.394,2078.43600004769,1,2078.43600004769,0,0,NA,"Click To Continue","Continue Button",1,"object-25","V","CFD-WF-017-003-N.jpg",NA,"SUPTM31721"
"129",1689012324037,"10/07/2023 18:05:24",1689015924037,1,"10/07/2023 20:05:24",137495,33,"task-wuat",NA,30601717,9085742,NA,"complete",NA,NA,"computer","Desktop or Laptop","Windows 10","Chrome 114.0.0.0","1536x864","1536x714",NA,NA,NA,"JV Task P3 (Updated)",4,"Anxious",NA,"In",NA,NA,"EFDGCHBIAJK",NA,NA,"B (MDot First)",2,123,"SS1","SS1",17,"V","Valence","xyoebq",1,"response","19",1055.745,2074.394,2078.736,1055.745,2074.394,2078.736,1,1055.745,1022.99100000001,0,NA,"Slider","J",3,"object-27","V","CFD-WF-017-003-N.jpg",NA,"SUPTM31721"
"130",1689012325015,"10/07/2023 18:05:25",1689015925015,1,"10/07/2023 20:05:25",137495,33,"task-wuat",NA,30601717,9085742,NA,"complete",NA,NA,"computer","Desktop or Laptop","Windows 10","Chrome 114.0.0.0","1536x864","1536x714",NA,NA,NA,"JV Task P3 (Updated)",4,"Anxious",NA,"In",NA,NA,"EFDGCHBIAJK",NA,NA,"B (MDot First)",2,123,"SS1","SS1",17,"V","Fixation","68owkj",2,"continue","",982.409000000014,982.409000000014,982.409000000014,982.409000000014,982.409000000014,982.409000000014,1,982.409000000014,0,0,NA,"Fixation Timing","Fixation",1,"object-21","V","CFD-WF-017-003-N.jpg",NA,"SUPTM31721"
"131",1689012326875,"10/07/2023 18:05:26",1689015926875,1,"10/07/2023 20:05:26",137495,33,"task-wuat",NA,30601717,9085742,NA,"complete",NA,NA,"computer","Desktop or Laptop","Windows 10","Chrome 114.0.0.0","1536x864","1536x714",NA,NA,NA,"JV Task P3 (Updated)",4,"Anxious",NA,"In",NA,NA,"EFDGCHBIAJK",NA,NA,"B (MDot First)",2,123,"SS1","SS1",18,"V","Valence","xyoebq",1,"continue","",1860.33300009536,1855.11899999998,1860.33300009536,1860.33300009536,1855.11899999998,1860.33300009536,1,1860.33300009536,0,0,NA,"Click To Continue","Continue Button",1,"object-25","V","CFD-WF-039-025-S.jpeg",NA,"SUPTM31721"
"132",1689012326878,"10/07/2023 18:05:26",1689015926878,1,"10/07/2023 20:05:26",137495,33,"task-wuat",NA,30601717,9085742,NA,"complete",NA,NA,"computer","Desktop or Laptop","Windows 10","Chrome 114.0.0.0","1536x864","1536x714",NA,NA,NA,"JV Task P3 (Updated)",4,"Anxious",NA,"In",NA,NA,"EFDGCHBIAJK",NA,NA,"B (MDot First)",2,123,"SS1","SS1",18,"V","Valence","xyoebq",1,"response","20",1078.59999999998,1855.11899999998,1862.05999999997,1078.59999999998,1855.11899999998,1862.05999999997,1,1078.59999999998,783.459999999992,0,NA,"Slider","J",3,"object-27","V","CFD-WF-039-025-S.jpeg",NA,"SUPTM31721"
"133",1689012327862,"10/07/2023 18:05:27",1689015927862,1,"10/07/2023 20:05:27",137495,33,"task-wuat",NA,30601717,9085742,NA,"complete",NA,NA,"computer","Desktop or Laptop","Windows 10","Chrome 114.0.0.0","1536x864","1536x714",NA,NA,NA,"JV Task P3 (Updated)",4,"Anxious",NA,"In",NA,NA,"EFDGCHBIAJK",NA,NA,"B (MDot First)",2,123,"SS1","SS1",18,"V","Fixation","68owkj",2,"continue","",991.803000000014,991.803000000014,991.803000000014,991.803000000014,991.803000000014,991.803000000014,1,991.803000000014,0,0,NA,"Fixation Timing","Fixation",1,"object-21","V","CFD-WF-039-025-S.jpeg",NA,"SUPTM31721"
"134",1689012331841,"10/07/2023 18:05:31",1689015931841,1,"10/07/2023 20:05:31",137495,33,"task-wuat",NA,30601717,9085742,NA,"complete",NA,NA,"computer","Desktop or Laptop","Windows 10","Chrome 114.0.0.0","1536x864","1536x714",NA,NA,NA,"JV Task P3 (Updated)",4,"Anxious",NA,"In",NA,NA,"EFDGCHBIAJK",NA,NA,"B (MDot First)",2,123,"SS1","SS1",27,"J","Judginess","y8ii7g",1,"continue","",3977.25699999998,3970.31299999999,3977.25699999998,3977.25699999998,3970.31299999999,3977.25699999998,1,3977.25699999998,0,0,NA,"Click To Continue","Continue Button",1,"object-14","J","CFD-WM-015-002-S.jpeg",NA,"SUPTM31721"
"135",1689012331841,"10/07/2023 18:05:31",1689015931841,1,"10/07/2023 20:05:31",137495,33,"task-wuat",NA,30601717,9085742,NA,"complete",NA,NA,"computer","Desktop or Laptop","Windows 10","Chrome 114.0.0.0","1536x864","1536x714",NA,NA,NA,"JV Task P3 (Updated)",4,"Anxious",NA,"In",NA,NA,"EFDGCHBIAJK",NA,NA,"B (MDot First)",2,123,"SS1","SS1",27,"J","Judginess","y8ii7g",1,"response","24",516.318999999989,3970.31299999999,3977.25699999998,516.318999999989,3970.31299999999,3977.25699999998,1,516.318999999989,3460.93799999999,0,NA,"Slider","J",3,"object-18","J","CFD-WM-015-002-S.jpeg",NA,"SUPTM31721"
"136",1689012332821,"10/07/2023 18:05:32",1689015932821,1,"10/07/2023 20:05:32",137495,33,"task-wuat",NA,30601717,9085742,NA,"complete",NA,NA,"computer","Desktop or Laptop","Windows 10","Chrome 114.0.0.0","1536x864","1536x714",NA,NA,NA,"JV Task P3 (Updated)",4,"Anxious",NA,"In",NA,NA,"EFDGCHBIAJK",NA,NA,"B (MDot First)",2,123,"SS1","SS1",27,"J","Fixation","w9zir9",2,"continue","",988.035000000003,988.035000000003,988.035000000003,988.035000000003,988.035000000003,988.035000000003,1,988.035000000003,0,0,NA,"Fixation Timing","Fixation",1,"object-65","J","CFD-WM-015-002-S.jpeg",NA,"SUPTM31721"
"137",1689012338150,"10/07/2023 18:05:38",1689015938150,1,"10/07/2023 20:05:38",137495,33,"task-wuat",NA,30601717,9085742,NA,"complete",NA,NA,"computer","Desktop or Laptop","Windows 10","Chrome 114.0.0.0","1536x864","1536x714",NA,NA,NA,"JV Task P3 (Updated)",4,"Anxious",NA,"In",NA,NA,"EFDGCHBIAJK",NA,NA,"B (MDot First)",2,123,"SS1","SS1",28,"J","Judginess","y8ii7g",1,"continue","",5329.55599999998,5322.61199999999,5329.55599999998,5329.55599999998,5322.61199999999,5329.55599999998,1,5329.55599999998,0,0,NA,"Click To Continue","Continue Button",1,"object-14","J","CFD-IF-734-108-N.jpg",NA,"SUPTM31721"
"138",1689012338153,"10/07/2023 18:05:38",1689015938153,1,"10/07/2023 20:05:38",137495,33,"task-wuat",NA,30601717,9085742,NA,"complete",NA,NA,"computer","Desktop or Laptop","Windows 10","Chrome 114.0.0.0","1536x864","1536x714",NA,NA,NA,"JV Task P3 (Updated)",4,"Anxious",NA,"In",NA,NA,"EFDGCHBIAJK",NA,NA,"B (MDot First)",2,123,"SS1","SS1",28,"J","Judginess","y8ii7g",1,"response","61",2553.32000000001,5322.61199999999,5329.55599999998,2553.32000000001,5322.61199999999,5329.55599999998,1,2553.32000000001,2776.23599999998,0,NA,"Slider","J",3,"object-18","J","CFD-IF-734-108-N.jpg",NA,"SUPTM31721"
"139",1689012339128,"10/07/2023 18:05:39",1689015939128,1,"10/07/2023 20:05:39",137495,33,"task-wuat",NA,30601717,9085742,NA,"complete",NA,NA,"computer","Desktop or Laptop","Windows 10","Chrome 114.0.0.0","1536x864","1536x714",NA,NA,NA,"JV Task P3 (Updated)",4,"Anxious",NA,"In",NA,NA,"EFDGCHBIAJK",NA,NA,"B (MDot First)",2,123,"SS1","SS1",28,"J","Fixation","w9zir9",2,"continue","",984.271000000008,984.271000000008,984.271000000008,984.271000000008,984.271000000008,984.271000000008,1,984.271000000008,0,0,NA,"Fixation Timing","Fixation",1,"object-65","J","CFD-IF-734-108-N.jpg",NA,"SUPTM31721"
"140",1689012341653,"10/07/2023 18:05:41",1689015941653,1,"10/07/2023 20:05:41",137495,33,"task-wuat",NA,30601717,9085742,NA,"complete",NA,NA,"computer","Desktop or Laptop","Windows 10","Chrome 114.0.0.0","1536x864","1536x714",NA,NA,NA,"JV Task P3 (Updated)",4,"Anxious",NA,"In",NA,NA,"EFDGCHBIAJK",NA,NA,"B (MDot First)",2,123,"SS1","SS1",29,"J","Judginess","y8ii7g",1,"continue","",2525.88500000004,2518.93100000001,2525.88500000004,2525.88500000004,2518.93100000001,2525.88500000004,1,2525.88500000004,0,0,NA,"Click To Continue","Continue Button",1,"object-14","J","CFD-BF-040-003-N.jpg",NA,"SUPTM31721"
"141",1689012341653,"10/07/2023 18:05:41",1689015941653,1,"10/07/2023 20:05:41",137495,33,"task-wuat",NA,30601717,9085742,NA,"complete",NA,NA,"computer","Desktop or Laptop","Windows 10","Chrome 114.0.0.0","1536x864","1536x714",NA,NA,NA,"JV Task P3 (Updated)",4,"Anxious",NA,"In",NA,NA,"EFDGCHBIAJK",NA,NA,"B (MDot First)",2,123,"SS1","SS1",29,"J","Judginess","y8ii7g",1,"response","21",1271.45000000001,2518.93100000001,2525.88500000004,1271.45000000001,2518.93100000001,2525.88500000004,1,1271.45000000001,1254.43500000003,0,NA,"Slider","J",3,"object-18","J","CFD-BF-040-003-N.jpg",NA,"SUPTM31721"
"142",1689012342632,"10/07/2023 18:05:42",1689015942632,1,"10/07/2023 20:05:42",137495,33,"task-wuat",NA,30601717,9085742,NA,"complete",NA,NA,"computer","Desktop or Laptop","Windows 10","Chrome 114.0.0.0","1536x864","1536x714",NA,NA,NA,"JV Task P3 (Updated)",4,"Anxious",NA,"In",NA,NA,"EFDGCHBIAJK",NA,NA,"B (MDot First)",2,123,"SS1","SS1",29,"J","Fixation","w9zir9",2,"continue","",985.193999999989,985.193999999989,985.193999999989,985.193999999989,985.193999999989,985.193999999989,1,985.193999999989,0,0,NA,"Fixation Timing","Fixation",1,"object-65","J","CFD-BF-040-003-N.jpg",NA,"SUPTM31721"
"143",1689012345938,"10/07/2023 18:05:45",1689015945938,1,"10/07/2023 20:05:45",137495,33,"task-wuat",NA,30601717,9085742,NA,"complete",NA,NA,"computer","Desktop or Laptop","Windows 10","Chrome 114.0.0.0","1536x864","1536x714",NA,NA,NA,"JV Task P3 (Updated)",4,"Anxious",NA,"In",NA,NA,"EFDGCHBIAJK",NA,NA,"B (MDot First)",2,123,"SS1","SS1",30,"J","Judginess","y8ii7g",1,"continue","",3306.45500007152,3304.26499999998,3306.45500007152,3306.45500007152,3304.26499999998,3306.45500007152,1,3306.45500007152,0,0,NA,"Click To Continue","Continue Button",1,"object-14","J","CFD-WF-035-024-H.jpeg",NA,"SUPTM31721"
"144",1689012345938,"10/07/2023 18:05:45",1689015945938,1,"10/07/2023 20:05:45",137495,33,"task-wuat",NA,30601717,9085742,NA,"complete",NA,NA,"computer","Desktop or Laptop","Windows 10","Chrome 114.0.0.0","1536x864","1536x714",NA,NA,NA,"JV Task P3 (Updated)",4,"Anxious",NA,"In",NA,NA,"EFDGCHBIAJK",NA,NA,"B (MDot First)",2,123,"SS1","SS1",30,"J","Judginess","y8ii7g",1,"response","60",1766.902,3304.26499999998,3307.155,1766.902,3304.26499999998,3307.155,1,1766.902,1540.253,0,NA,"Slider","J",3,"object-18","J","CFD-WF-035-024-H.jpeg",NA,"SUPTM31721"
"145",1689012346925,"10/07/2023 18:05:46",1689015946925,1,"10/07/2023 20:05:46",137495,33,"task-wuat",NA,30601717,9085742,NA,"complete",NA,NA,"computer","Desktop or Laptop","Windows 10","Chrome 114.0.0.0","1536x864","1536x714",NA,NA,NA,"JV Task P3 (Updated)",4,"Anxious",NA,"In",NA,NA,"EFDGCHBIAJK",NA,NA,"B (MDot First)",2,123,"SS1","SS1",30,"J","Fixation","w9zir9",2,"continue","",988.747000000003,988.747000000003,988.747000000003,988.747000000003,988.747000000003,988.747000000003,1,988.747000000003,0,0,NA,"Fixation Timing","Fixation",1,"object-65","J","CFD-WF-035-024-H.jpeg",NA,"SUPTM31721"
"146",1689012350762,"10/07/2023 18:05:50",1689015950762,1,"10/07/2023 20:05:50",137495,33,"task-wuat",NA,30601717,9085742,NA,"complete",NA,NA,"computer","Desktop or Laptop","Windows 10","Chrome 114.0.0.0","1536x864","1536x714",NA,NA,NA,"JV Task P3 (Updated)",4,"Anxious",NA,"In",NA,NA,"EFDGCHBIAJK",NA,NA,"B (MDot First)",2,123,"SS1","SS1",19,"V","Valence","xyoebq",1,"continue","",3837.84300004769,3833.29200000002,3837.84300004769,3837.84300004769,3833.29200000002,3837.84300004769,1,3837.84300004769,0,0,NA,"Click To Continue","Continue Button",1,"object-25","V","CFD-WF-011-002-N.jpg",NA,"SUPTM31721"
"147",1689012350764,"10/07/2023 18:05:50",1689015950764,1,"10/07/2023 20:05:50",137495,33,"task-wuat",NA,30601717,9085742,NA,"complete",NA,NA,"computer","Desktop or Laptop","Windows 10","Chrome 114.0.0.0","1536x864","1536x714",NA,NA,NA,"JV Task P3 (Updated)",4,"Anxious",NA,"In",NA,NA,"EFDGCHBIAJK",NA,NA,"B (MDot First)",2,123,"SS1","SS1",19,"V","Valence","xyoebq",1,"response","45",1020.359,3833.29200000002,3840.23400000003,1020.359,3833.29200000002,3840.23400000003,1,1020.359,2819.87500000003,0,NA,"Slider","J",3,"object-27","V","CFD-WF-011-002-N.jpg",NA,"SUPTM31721"
"148",1689012351736,"10/07/2023 18:05:51",1689015951736,1,"10/07/2023 20:05:51",137495,33,"task-wuat",NA,30601717,9085742,NA,"complete",NA,NA,"computer","Desktop or Laptop","Windows 10","Chrome 114.0.0.0","1536x864","1536x714",NA,NA,NA,"JV Task P3 (Updated)",4,"Anxious",NA,"In",NA,NA,"EFDGCHBIAJK",NA,NA,"B (MDot First)",2,123,"SS1","SS1",19,"V","Fixation","68owkj",2,"continue","",978.796000000002,978.796000000002,978.796000000002,978.796000000002,978.796000000002,978.796000000002,1,978.796000000002,0,0,NA,"Fixation Timing","Fixation",1,"object-21","V","CFD-WF-011-002-N.jpg",NA,"SUPTM31721"
"149",1689012353970,"10/07/2023 18:05:53",1689015953970,1,"10/07/2023 20:05:53",137495,33,"task-wuat",NA,30601717,9085742,NA,"complete",NA,NA,"computer","Desktop or Laptop","Windows 10","Chrome 114.0.0.0","1536x864","1536x714",NA,NA,NA,"JV Task P3 (Updated)",4,"Anxious",NA,"In",NA,NA,"EFDGCHBIAJK",NA,NA,"B (MDot First)",2,123,"SS1","SS1",31,"J","Judginess","y8ii7g",1,"continue","",2234.15500002383,2229.38099999999,2234.15500002383,2234.15500002383,2229.38099999999,2234.15500002383,1,2234.15500002383,0,0,NA,"Click To Continue","Continue Button",1,"object-14","J","CFD-MF-315-002-S.jpeg",NA,"SUPTM31721"
"150",1689012353970,"10/07/2023 18:05:53",1689015953970,1,"10/07/2023 20:05:53",137495,33,"task-wuat",NA,30601717,9085742,NA,"complete",NA,NA,"computer","Desktop or Laptop","Windows 10","Chrome 114.0.0.0","1536x864","1536x714",NA,NA,NA,"JV Task P3 (Updated)",4,"Anxious",NA,"In",NA,NA,"EFDGCHBIAJK",NA,NA,"B (MDot First)",2,123,"SS1","SS1",31,"J","Judginess","y8ii7g",1,"response","0",1374.67999999999,2229.38099999999,2234.35500007152,1374.67999999999,2229.38099999999,2234.35500007152,1,1374.67999999999,859.675000071526,0,NA,"Slider","J",3,"object-18","J","CFD-MF-315-002-S.jpeg",NA,"SUPTM31721"
"151",1689012354945,"10/07/2023 18:05:54",1689015954945,1,"10/07/2023 20:05:54",137495,33,"task-wuat",NA,30601717,9085742,NA,"complete",NA,NA,"computer","Desktop or Laptop","Windows 10","Chrome 114.0.0.0","1536x864","1536x714",NA,NA,NA,"JV Task P3 (Updated)",4,"Anxious",NA,"In",NA,NA,"EFDGCHBIAJK",NA,NA,"B (MDot First)",2,123,"SS1","SS1",31,"J","Fixation","w9zir9",2,"continue","",979.331000000006,979.331000000006,979.331000000006,979.331000000006,979.331000000006,979.331000000006,1,979.331000000006,0,0,NA,"Fixation Timing","Fixation",1,"object-65","J","CFD-MF-315-002-S.jpeg",NA,"SUPTM31721"
"152",1689012358213,"10/07/2023 18:05:58",1689015958213,1,"10/07/2023 20:05:58",137495,33,"task-wuat",NA,30601717,9085742,NA,"complete",NA,NA,"computer","Desktop or Laptop","Windows 10","Chrome 114.0.0.0","1536x864","1536x714",NA,NA,NA,"JV Task P3 (Updated)",4,"Anxious",NA,"In",NA,NA,"EFDGCHBIAJK",NA,NA,"B (MDot First)",2,123,"SS1","SS1",20,"V","Valence","xyoebq",1,"continue","",3268.64300007152,3266.73699999999,3268.64300007152,3268.64300007152,3266.73699999999,3268.64300007152,1,3268.64300007152,0,0,NA,"Click To Continue","Continue Button",1,"object-25","V","CFD-WM-026-001-S.jpeg",NA,"SUPTM31721"
"153",1689012358214,"10/07/2023 18:05:58",1689015958214,1,"10/07/2023 20:05:58",137495,33,"task-wuat",NA,30601717,9085742,NA,"complete",NA,NA,"computer","Desktop or Laptop","Windows 10","Chrome 114.0.0.0","1536x864","1536x714",NA,NA,NA,"JV Task P3 (Updated)",4,"Anxious",NA,"In",NA,NA,"EFDGCHBIAJK",NA,NA,"B (MDot First)",2,123,"SS1","SS1",20,"V","Valence","xyoebq",1,"response","21",2486.68799999999,3266.73699999999,3268.94300002384,2486.68799999999,3266.73699999999,3268.94300002384,1,2486.68799999999,782.255000023841,0,NA,"Slider","J",3,"object-27","V","CFD-WM-026-001-S.jpeg",NA,"SUPTM31721"
"154",1689012359198,"10/07/2023 18:05:59",1689015959198,1,"10/07/2023 20:05:59",137495,33,"task-wuat",NA,30601717,9085742,NA,"complete",NA,NA,"computer","Desktop or Laptop","Windows 10","Chrome 114.0.0.0","1536x864","1536x714",NA,NA,NA,"JV Task P3 (Updated)",4,"Anxious",NA,"In",NA,NA,"EFDGCHBIAJK",NA,NA,"B (MDot First)",2,123,"SS1","SS1",20,"V","Fixation","68owkj",2,"continue","",986.375,986.375,986.375,986.375,986.375,986.375,1,986.375,0,0,NA,"Fixation Timing","Fixation",1,"object-21","V","CFD-WM-026-001-S.jpeg",NA,"SUPTM31721"
"155",1689012361928,"10/07/2023 18:06:01",1689015961928,1,"10/07/2023 20:06:01",137495,33,"task-wuat",NA,30601717,9085742,NA,"complete",NA,NA,"computer","Desktop or Laptop","Windows 10","Chrome 114.0.0.0","1536x864","1536x714",NA,NA,NA,"JV Task P3 (Updated)",4,"Anxious",NA,"In",NA,NA,"EFDGCHBIAJK",NA,NA,"B (MDot First)",2,123,"SS1","SS1",32,"J","Judginess","y8ii7g",1,"continue","",2729.63100009537,2723.33600000001,2729.63100009537,2729.63100009537,2723.33600000001,2729.63100009537,1,2729.63100009537,0,0,NA,"Click To Continue","Continue Button",1,"object-14","J","CFD-WF-017-003-H.jpeg",NA,"SUPTM31721"
"156",1689012361931,"10/07/2023 18:06:01",1689015961931,1,"10/07/2023 20:06:01",137495,33,"task-wuat",NA,30601717,9085742,NA,"complete",NA,NA,"computer","Desktop or Laptop","Windows 10","Chrome 114.0.0.0","1536x864","1536x714",NA,NA,NA,"JV Task P3 (Updated)",4,"Anxious",NA,"In",NA,NA,"EFDGCHBIAJK",NA,NA,"B (MDot First)",2,123,"SS1","SS1",32,"J","Judginess","y8ii7g",1,"response","54",2030.67499999999,2723.33600000001,2730.27900000001,2030.67499999999,2723.33600000001,2730.27900000001,1,2030.67499999999,699.604000000021,0,NA,"Slider","J",3,"object-18","J","CFD-WF-017-003-H.jpeg",NA,"SUPTM31721"
"157",1689012362903,"10/07/2023 18:06:02",1689015962903,1,"10/07/2023 20:06:02",137495,33,"task-wuat",NA,30601717,9085742,NA,"complete",NA,NA,"computer","Desktop or Laptop","Windows 10","Chrome 114.0.0.0","1536x864","1536x714",NA,NA,NA,"JV Task P3 (Updated)",4,"Anxious",NA,"In",NA,NA,"EFDGCHBIAJK",NA,NA,"B (MDot First)",2,123,"SS1","SS1",32,"J","Fixation","w9zir9",2,"continue","",980.790999999997,980.790999999997,980.790999999997,980.790999999997,980.790999999997,980.790999999997,1,980.790999999997,0,0,NA,"Fixation Timing","Fixation",1,"object-65","J","CFD-WF-017-003-H.jpeg",NA,"SUPTM31721"
"158",1689012364975,"10/07/2023 18:06:04",1689015964975,1,"10/07/2023 20:06:04",137495,33,"task-wuat",NA,30601717,9085742,NA,"complete",NA,NA,"computer","Desktop or Laptop","Windows 10","Chrome 114.0.0.0","1536x864","1536x714",NA,NA,NA,"JV Task P3 (Updated)",4,"Anxious",NA,"In",NA,NA,"EFDGCHBIAJK",NA,NA,"B (MDot First)",2,123,"SS1","SS1",21,"V","Valence","xyoebq",1,"continue","",2072.80400004768,2067.65599999999,2072.80400004768,2072.80400004768,2067.65599999999,2072.80400004768,1,2072.80400004768,0,0,NA,"Click To Continue","Continue Button",1,"object-25","V","CFD-WF-031-027-H.jpeg",NA,"SUPTM31721"
"159",1689012364975,"10/07/2023 18:06:04",1689015964975,1,"10/07/2023 20:06:04",137495,33,"task-wuat",NA,30601717,9085742,NA,"complete",NA,NA,"computer","Desktop or Laptop","Windows 10","Chrome 114.0.0.0","1536x864","1536x714",NA,NA,NA,"JV Task P3 (Updated)",4,"Anxious",NA,"In",NA,NA,"EFDGCHBIAJK",NA,NA,"B (MDot First)",2,123,"SS1","SS1",21,"V","Valence","xyoebq",1,"response","61",1166.997,2067.65599999999,2073.00400009536,1166.997,2067.65599999999,2073.00400009536,1,1166.997,906.007000095356,0,NA,"Slider","J",3,"object-27","V","CFD-WF-031-027-H.jpeg",NA,"SUPTM31721"
"160",1689012365953,"10/07/2023 18:06:05",1689015965953,1,"10/07/2023 20:06:05",137495,33,"task-wuat",NA,30601717,9085742,NA,"complete",NA,NA,"computer","Desktop or Laptop","Windows 10","Chrome 114.0.0.0","1536x864","1536x714",NA,NA,NA,"JV Task P3 (Updated)",4,"Anxious",NA,"In",NA,NA,"EFDGCHBIAJK",NA,NA,"B (MDot First)",2,123,"SS1","SS1",21,"V","Fixation","68owkj",2,"continue","",981.401000000013,981.401000000013,981.401000000013,981.401000000013,981.401000000013,981.401000000013,1,981.401000000013,0,0,NA,"Fixation Timing","Fixation",1,"object-21","V","CFD-WF-031-027-H.jpeg",NA,"SUPTM31721"
"161",1689012367361,"10/07/2023 18:06:07",1689015967361,1,"10/07/2023 20:06:07",137495,33,"task-wuat",NA,30601717,9085742,NA,"complete",NA,NA,"computer","Desktop or Laptop","Windows 10","Chrome 114.0.0.0","1536x864","1536x714",NA,NA,NA,"JV Task P3 (Updated)",4,"Anxious",NA,"In",NA,NA,"EFDGCHBIAJK",NA,NA,"B (MDot First)",2,123,"SS1","SS1",33,"J","Judginess","y8ii7g",1,"continue","",1410.14700002383,1407.85799999998,1410.14700002383,1410.14700002383,1407.85799999998,1410.14700002383,1,1410.14700002383,0,0,NA,"Click To Continue","Continue Button",1,"object-14","J","CFD-WM-034-030-S.jpeg",NA,"SUPTM31721"
"162",1689012367362,"10/07/2023 18:06:07",1689015967362,1,"10/07/2023 20:06:07",137495,33,"task-wuat",NA,30601717,9085742,NA,"complete",NA,NA,"computer","Desktop or Laptop","Windows 10","Chrome 114.0.0.0","1536x864","1536x714",NA,NA,NA,"JV Task P3 (Updated)",4,"Anxious",NA,"In",NA,NA,"EFDGCHBIAJK",NA,NA,"B (MDot First)",2,123,"SS1","SS1",33,"J","Judginess","y8ii7g",1,"response","0",868.894,1407.85799999998,1410.44700009536,868.894,1407.85799999998,1410.44700009536,1,868.894,541.553000095359,0,NA,"Slider","J",3,"object-18","J","CFD-WM-034-030-S.jpeg",NA,"SUPTM31721"
"163",1689012368340,"10/07/2023 18:06:08",1689015968340,1,"10/07/2023 20:06:08",137495,33,"task-wuat",NA,30601717,9085742,NA,"complete",NA,NA,"computer","Desktop or Laptop","Windows 10","Chrome 114.0.0.0","1536x864","1536x714",NA,NA,NA,"JV Task P3 (Updated)",4,"Anxious",NA,"In",NA,NA,"EFDGCHBIAJK",NA,NA,"B (MDot First)",2,123,"SS1","SS1",33,"J","Fixation","w9zir9",2,"continue","",980.381000000023,980.381000000023,980.381000000023,980.381000000023,980.381000000023,980.381000000023,1,980.381000000023,0,0,NA,"Fixation Timing","Fixation",1,"object-65","J","CFD-WM-034-030-S.jpeg",NA,"SUPTM31721"
"164",1689012373749,"10/07/2023 18:06:13",1689015973749,1,"10/07/2023 20:06:13",137495,33,"task-wuat",NA,30601717,9085742,NA,"complete",NA,NA,"computer","Desktop or Laptop","Windows 10","Chrome 114.0.0.0","1536x864","1536x714",NA,NA,NA,"JV Task P3 (Updated)",4,"Anxious",NA,"In",NA,NA,"EFDGCHBIAJK",NA,NA,"B (MDot First)",2,123,"SS1","SS1",34,"J","Judginess","y8ii7g",1,"continue","",5409.50800004767,5403.44099999999,5409.50800004767,5409.50800004767,5403.44099999999,5409.50800004767,1,5409.50800004767,0,0,NA,"Click To Continue","Continue Button",1,"object-14","J","CFD-WF-037-029-H.jpeg",NA,"SUPTM31721"
"165",1689012373752,"10/07/2023 18:06:13",1689015973752,1,"10/07/2023 20:06:13",137495,33,"task-wuat",NA,30601717,9085742,NA,"complete",NA,NA,"computer","Desktop or Laptop","Windows 10","Chrome 114.0.0.0","1536x864","1536x714",NA,NA,NA,"JV Task P3 (Updated)",4,"Anxious",NA,"In",NA,NA,"EFDGCHBIAJK",NA,NA,"B (MDot First)",2,123,"SS1","SS1",34,"J","Judginess","y8ii7g",1,"response","53",3805.071,5403.44099999999,5410.38399999999,3805.071,5403.44099999999,5410.38399999999,1,3805.071,1605.31299999999,0,NA,"Slider","J",3,"object-18","J","CFD-WF-037-029-H.jpeg",NA,"SUPTM31721"
"166",1689012374723,"10/07/2023 18:06:14",1689015974723,1,"10/07/2023 20:06:14",137495,33,"task-wuat",NA,30601717,9085742,NA,"complete",NA,NA,"computer","Desktop or Laptop","Windows 10","Chrome 114.0.0.0","1536x864","1536x714",NA,NA,NA,"JV Task P3 (Updated)",4,"Anxious",NA,"In",NA,NA,"EFDGCHBIAJK",NA,NA,"B (MDot First)",2,123,"SS1","SS1",34,"J","Fixation","w9zir9",2,"continue","",978.910999999993,978.910999999993,978.910999999993,978.910999999993,978.910999999993,978.910999999993,1,978.910999999993,0,0,NA,"Fixation Timing","Fixation",1,"object-65","J","CFD-WF-037-029-H.jpeg",NA,"SUPTM31721"
"167",1689012376985,"10/07/2023 18:06:16",1689015976985,1,"10/07/2023 20:06:16",137495,33,"task-wuat",NA,30601717,9085742,NA,"complete",NA,NA,"computer","Desktop or Laptop","Windows 10","Chrome 114.0.0.0","1536x864","1536x714",NA,NA,NA,"JV Task P3 (Updated)",4,"Anxious",NA,"In",NA,NA,"EFDGCHBIAJK",NA,NA,"B (MDot First)",2,123,"SS1","SS1",22,"V","Valence","xyoebq",1,"continue","",2263.55600002385,2258.424,2263.55600002385,2263.55600002385,2258.424,2263.55600002385,1,2263.55600002385,0,0,NA,"Click To Continue","Continue Button",1,"object-25","V","CFD-MM-308-001-S.jpeg",NA,"SUPTM31721"
"168",1689012376985,"10/07/2023 18:06:16",1689015976985,1,"10/07/2023 20:06:16",137495,33,"task-wuat",NA,30601717,9085742,NA,"complete",NA,NA,"computer","Desktop or Laptop","Windows 10","Chrome 114.0.0.0","1536x864","1536x714",NA,NA,NA,"JV Task P3 (Updated)",4,"Anxious",NA,"In",NA,NA,"EFDGCHBIAJK",NA,NA,"B (MDot First)",2,123,"SS1","SS1",22,"V","Valence","xyoebq",1,"response","0",1438.973,2258.424,2263.75600007153,1438.973,2258.424,2263.75600007153,1,1438.973,824.783000071533,0,NA,"Slider","J",3,"object-27","V","CFD-MM-308-001-S.jpeg",NA,"SUPTM31721"
"169",1689012377958,"10/07/2023 18:06:17",1689015977958,1,"10/07/2023 20:06:17",137495,33,"task-wuat",NA,30601717,9085742,NA,"complete",NA,NA,"computer","Desktop or Laptop","Windows 10","Chrome 114.0.0.0","1536x864","1536x714",NA,NA,NA,"JV Task P3 (Updated)",4,"Anxious",NA,"In",NA,NA,"EFDGCHBIAJK",NA,NA,"B (MDot First)",2,123,"SS1","SS1",22,"V","Fixation","68owkj",2,"continue","",977.899000000005,977.899000000005,977.899000000005,977.899000000005,977.899000000005,977.899000000005,1,977.899000000005,0,0,NA,"Fixation Timing","Fixation",1,"object-21","V","CFD-MM-308-001-S.jpeg",NA,"SUPTM31721"
