"Event.Index","UTC.Timestamp","UTC.Date.and.Time","Local.Timestamp","Local.Timezone","Local.Date.and.Time","Experiment.ID","Experiment.Version","Tree.Node.Key","Repeat.Key","Schedule.ID","Participant.Private.ID","Participant.Starting.Group","Participant.Status","Participant.Completion.Code","Participant.External.Session.ID","Participant.Device.Type","Participant.Device","Participant.OS","Participant.Browser","Participant.Monitor.Size","Participant.Viewport.Size","Checkpoint","Room.ID","Room.Order","Task.Name","Task.Version","branch.ln1a","randomiser.vzsr","branch.hkzp","randomiser.ywar","randomiser.q6ah","order.ot79","randomiser.ahe2","randomiser.ckhi","randomiser.lqqr","randomiser.pobd","randomiser.8gdj","Spreadsheet","Current.Spreadsheet","Trial.Number","Display","Screen","Screen.ID","Screen.Counter","Response.Type","Response","Onset.Time","Clock.Time","Reaction.Time","Absolute.Onset.Time","Absolute.Clock.Time","Absolute.Reaction.Time","Correct","Response.Onset","Response.Duration","Proportion","Tag","Component.Name","Object.Name","Object.Number","Object.ID","Spreadsheet..display","Spreadsheet..stimulus","Manipulation..Spreadsheet","Random_ID"
"1",1689004316841,"10/07/2023 15:51:56",1688989916841,-4,"10/07/2023 07:51:56",137495,33,"task-x17x",NA,30599620,9084322,NA,"complete",NA,NA,"computer","Desktop or Laptop","Windows 10","Chrome 114.0.0.0","1370x703","1366x699",NA,NA,NA,"JV Task P1",8,"Anxious",NA,"In",NA,NA,"IJHKGAFBECD",NA,NA,"B (MDot First)",1,231,"SS1","SS1",NA,"","","",NA,"5","BEGIN",NA,NA,NA,NA,NA,NA,0,NA,NA,NA,NA,"","",NA,"","","",NA,"SUPTM96648"
"2",1689004332261,"10/07/2023 15:52:12",1688989932261,-4,"10/07/2023 07:52:12",137495,33,"task-x17x",NA,30599620,9084322,NA,"complete",NA,NA,"computer","Desktop or Laptop","Windows 10","Chrome 114.0.0.0","1370x703","1366x699",NA,NA,NA,"JV Task P1",8,"Anxious",NA,"In",NA,NA,"IJHKGAFBECD",NA,NA,"B (MDot First)",1,231,"SS1","SS1",1,"V","Valence","sn1sjn",1,"continue","",8085,8068,8085,8085,8068,8085,1,8085,0,0,NA,"Click To Continue","Continue Button",1,"object-25","V","CFD-AM-223-138-N.jpg",NA,"SUPTM96648"
"3",1689004332264,"10/07/2023 15:52:12",1688989932264,-4,"10/07/2023 07:52:12",137495,33,"task-x17x",NA,30599620,9084322,NA,"complete",NA,NA,"computer","Desktop or Laptop","Windows 10","Chrome 114.0.0.0","1370x703","1366x699",NA,NA,NA,"JV Task P1",8,"Anxious",NA,"In",NA,NA,"IJHKGAFBECD",NA,NA,"B (MDot First)",1,231,"SS1","SS1",1,"V","Valence","sn1sjn",1,"response","41",6071,8068,8085,6071,8068,8085,1,6071,2014,0,NA,"Slider","J",3,"object-27","V","CFD-AM-223-138-N.jpg",NA,"SUPTM96648"
"4",1689004333207,"10/07/2023 15:52:13",1688989933207,-4,"10/07/2023 07:52:13",137495,33,"task-x17x",NA,30599620,9084322,NA,"complete",NA,NA,"computer","Desktop or Laptop","Windows 10","Chrome 114.0.0.0","1370x703","1366x699",NA,NA,NA,"JV Task P1",8,"Anxious",NA,"In",NA,NA,"IJHKGAFBECD",NA,NA,"B (MDot First)",1,231,"SS1","SS1",1,"V","Fixation","aydkg3",2,"continue","",964,964,964,964,964,964,1,964,0,0,NA,"Fixation Timing","Fixation",1,"object-21","V","CFD-AM-223-138-N.jpg",NA,"SUPTM96648"
"5",1689004341099,"10/07/2023 15:52:21",1688989941099,-4,"10/07/2023 07:52:21",137495,33,"task-x17x",NA,30599620,9084322,NA,"complete",NA,NA,"computer","Desktop or Laptop","Windows 10","Chrome 114.0.0.0","1370x703","1366x699",NA,NA,NA,"JV Task P1",8,"Anxious",NA,"In",NA,NA,"IJHKGAFBECD",NA,NA,"B (MDot First)",1,231,"SS1","SS1",2,"V","Valence","sn1sjn",1,"continue","",4665,4657,4665,4665,4657,4665,1,4665,0,0,NA,"Click To Continue","Continue Button",1,"object-25","V","CFD-MF-315-002-N.jpg",NA,"SUPTM96648"
"6",1689004341100,"10/07/2023 15:52:21",1688989941100,-4,"10/07/2023 07:52:21",137495,33,"task-x17x",NA,30599620,9084322,NA,"complete",NA,NA,"computer","Desktop or Laptop","Windows 10","Chrome 114.0.0.0","1370x703","1366x699",NA,NA,NA,"JV Task P1",8,"Anxious",NA,"In",NA,NA,"IJHKGAFBECD",NA,NA,"B (MDot First)",1,231,"SS1","SS1",2,"V","Valence","sn1sjn",1,"response","64",2711,4657,4666,2711,4657,4666,1,2711,1955,0,NA,"Slider","J",3,"object-27","V","CFD-MF-315-002-N.jpg",NA,"SUPTM96648"
"7",1689004342058,"10/07/2023 15:52:22",1688989942058,-4,"10/07/2023 07:52:22",137495,33,"task-x17x",NA,30599620,9084322,NA,"complete",NA,NA,"computer","Desktop or Laptop","Windows 10","Chrome 114.0.0.0","1370x703","1366x699",NA,NA,NA,"JV Task P1",8,"Anxious",NA,"In",NA,NA,"IJHKGAFBECD",NA,NA,"B (MDot First)",1,231,"SS1","SS1",2,"V","Fixation","aydkg3",2,"continue","",965,965,965,965,965,965,1,965,0,0,NA,"Fixation Timing","Fixation",1,"object-21","V","CFD-MF-315-002-N.jpg",NA,"SUPTM96648"
"8",1689004344603,"10/07/2023 15:52:24",1688989944603,-4,"10/07/2023 07:52:24",137495,33,"task-x17x",NA,30599620,9084322,NA,"complete",NA,NA,"computer","Desktop or Laptop","Windows 10","Chrome 114.0.0.0","1370x703","1366x699",NA,NA,NA,"JV Task P1",8,"Anxious",NA,"In",NA,NA,"IJHKGAFBECD",NA,NA,"B (MDot First)",1,231,"SS1","SS1",1,"J","Judginess","w2ir4b",1,"continue","",2544,2528,2544,2544,2528,2544,1,2544,0,0,NA,"Click To Continue","Continue Button",1,"object-14","J","CFD-BM-016-036-N.jpg",NA,"SUPTM96648"
"9",1689004344608,"10/07/2023 15:52:24",1688989944608,-4,"10/07/2023 07:52:24",137495,33,"task-x17x",NA,30599620,9084322,NA,"complete",NA,NA,"computer","Desktop or Laptop","Windows 10","Chrome 114.0.0.0","1370x703","1366x699",NA,NA,NA,"JV Task P1",8,"Anxious",NA,"In",NA,NA,"IJHKGAFBECD",NA,NA,"B (MDot First)",1,231,"SS1","SS1",1,"J","Judginess","w2ir4b",1,"response","37",1397,2528,2544,1397,2528,2544,1,1397,1147,0,NA,"Slider","J",3,"object-18","J","CFD-BM-016-036-N.jpg",NA,"SUPTM96648"
"10",1689004345549,"10/07/2023 15:52:25",1688989945549,-4,"10/07/2023 07:52:25",137495,33,"task-x17x",NA,30599620,9084322,NA,"complete",NA,NA,"computer","Desktop or Laptop","Windows 10","Chrome 114.0.0.0","1370x703","1366x699",NA,NA,NA,"JV Task P1",8,"Anxious",NA,"In",NA,NA,"IJHKGAFBECD",NA,NA,"B (MDot First)",1,231,"SS1","SS1",1,"J","Fixation","mtm832",2,"continue","",965,965,965,965,965,965,1,965,0,0,NA,"Fixation Timing","Fixation",1,"object-65","J","CFD-BM-016-036-N.jpg",NA,"SUPTM96648"
"11",1689004349068,"10/07/2023 15:52:29",1688989949068,-4,"10/07/2023 07:52:29",137495,33,"task-x17x",NA,30599620,9084322,NA,"complete",NA,NA,"computer","Desktop or Laptop","Windows 10","Chrome 114.0.0.0","1370x703","1366x699",NA,NA,NA,"JV Task P1",8,"Anxious",NA,"In",NA,NA,"IJHKGAFBECD",NA,NA,"B (MDot First)",1,231,"SS1","SS1",3,"V","Valence","sn1sjn",1,"continue","",3519,3510,3519,3519,3510,3519,1,3519,0,0,NA,"Click To Continue","Continue Button",1,"object-25","V","CFD-WF-024-003-S.jpeg",NA,"SUPTM96648"
"12",1689004349069,"10/07/2023 15:52:29",1688989949069,-4,"10/07/2023 07:52:29",137495,33,"task-x17x",NA,30599620,9084322,NA,"complete",NA,NA,"computer","Desktop or Laptop","Windows 10","Chrome 114.0.0.0","1370x703","1366x699",NA,NA,NA,"JV Task P1",8,"Anxious",NA,"In",NA,NA,"IJHKGAFBECD",NA,NA,"B (MDot First)",1,231,"SS1","SS1",3,"V","Valence","sn1sjn",1,"response","36",2063,3510,3520,2063,3510,3520,1,2063,1457,0,NA,"Slider","J",3,"object-27","V","CFD-WF-024-003-S.jpeg",NA,"SUPTM96648"
"13",1689004350024,"10/07/2023 15:52:30",1688989950024,-4,"10/07/2023 07:52:30",137495,33,"task-x17x",NA,30599620,9084322,NA,"complete",NA,NA,"computer","Desktop or Laptop","Windows 10","Chrome 114.0.0.0","1370x703","1366x699",NA,NA,NA,"JV Task P1",8,"Anxious",NA,"In",NA,NA,"IJHKGAFBECD",NA,NA,"B (MDot First)",1,231,"SS1","SS1",3,"V","Fixation","aydkg3",2,"continue","",965,965,965,965,965,965,1,965,0,0,NA,"Fixation Timing","Fixation",1,"object-21","V","CFD-WF-024-003-S.jpeg",NA,"SUPTM96648"
"14",1689004354613,"10/07/2023 15:52:34",1688989954613,-4,"10/07/2023 07:52:34",137495,33,"task-x17x",NA,30599620,9084322,NA,"complete",NA,NA,"computer","Desktop or Laptop","Windows 10","Chrome 114.0.0.0","1370x703","1366x699",NA,NA,NA,"JV Task P1",8,"Anxious",NA,"In",NA,NA,"IJHKGAFBECD",NA,NA,"B (MDot First)",1,231,"SS1","SS1",4,"V","Valence","sn1sjn",1,"continue","",3923,3910,3923,3923,3910,3923,1,3923,0,0,NA,"Click To Continue","Continue Button",1,"object-25","V","CFD-WM-036-031-H.jpeg",NA,"SUPTM96648"
"15",1689004354620,"10/07/2023 15:52:34",1688989954620,-4,"10/07/2023 07:52:34",137495,33,"task-x17x",NA,30599620,9084322,NA,"complete",NA,NA,"computer","Desktop or Laptop","Windows 10","Chrome 114.0.0.0","1370x703","1366x699",NA,NA,NA,"JV Task P1",8,"Anxious",NA,"In",NA,NA,"IJHKGAFBECD",NA,NA,"B (MDot First)",1,231,"SS1","SS1",4,"V","Valence","sn1sjn",1,"response","69",1281,3910,3927,1281,3910,3927,1,1281,2646,0,NA,"Slider","J",3,"object-27","V","CFD-WM-036-031-H.jpeg",NA,"SUPTM96648"
"16",1689004355563,"10/07/2023 15:52:35",1688989955563,-4,"10/07/2023 07:52:35",137495,33,"task-x17x",NA,30599620,9084322,NA,"complete",NA,NA,"computer","Desktop or Laptop","Windows 10","Chrome 114.0.0.0","1370x703","1366x699",NA,NA,NA,"JV Task P1",8,"Anxious",NA,"In",NA,NA,"IJHKGAFBECD",NA,NA,"B (MDot First)",1,231,"SS1","SS1",4,"V","Fixation","aydkg3",2,"continue","",964,964,964,964,964,964,1,964,0,0,NA,"Fixation Timing","Fixation",1,"object-21","V","CFD-WM-036-031-H.jpeg",NA,"SUPTM96648"
"17",1689004358135,"10/07/2023 15:52:38",1688989958135,-4,"10/07/2023 07:52:38",137495,33,"task-x17x",NA,30599620,9084322,NA,"complete",NA,NA,"computer","Desktop or Laptop","Windows 10","Chrome 114.0.0.0","1370x703","1366x699",NA,NA,NA,"JV Task P1",8,"Anxious",NA,"In",NA,NA,"IJHKGAFBECD",NA,NA,"B (MDot First)",1,231,"SS1","SS1",5,"V","Valence","sn1sjn",1,"continue","",2573,2562,2573,2573,2562,2573,1,2573,0,0,NA,"Click To Continue","Continue Button",1,"object-25","V","CFD-WF-027-003-H.jpeg",NA,"SUPTM96648"
"18",1689004358136,"10/07/2023 15:52:38",1688989958136,-4,"10/07/2023 07:52:38",137495,33,"task-x17x",NA,30599620,9084322,NA,"complete",NA,NA,"computer","Desktop or Laptop","Windows 10","Chrome 114.0.0.0","1370x703","1366x699",NA,NA,NA,"JV Task P1",8,"Anxious",NA,"In",NA,NA,"IJHKGAFBECD",NA,NA,"B (MDot First)",1,231,"SS1","SS1",5,"V","Valence","sn1sjn",1,"response","68",1381,2562,2573,1381,2562,2573,1,1381,1192,0,NA,"Slider","J",3,"object-27","V","CFD-WF-027-003-H.jpeg",NA,"SUPTM96648"
"19",1689004359090,"10/07/2023 15:52:39",1688989959090,-4,"10/07/2023 07:52:39",137495,33,"task-x17x",NA,30599620,9084322,NA,"complete",NA,NA,"computer","Desktop or Laptop","Windows 10","Chrome 114.0.0.0","1370x703","1366x699",NA,NA,NA,"JV Task P1",8,"Anxious",NA,"In",NA,NA,"IJHKGAFBECD",NA,NA,"B (MDot First)",1,231,"SS1","SS1",5,"V","Fixation","aydkg3",2,"continue","",965,965,965,965,965,965,1,965,0,0,NA,"Fixation Timing","Fixation",1,"object-21","V","CFD-WF-027-003-H.jpeg",NA,"SUPTM96648"
"20",1689004362800,"10/07/2023 15:52:42",1688989962800,-4,"10/07/2023 07:52:42",137495,33,"task-x17x",NA,30599620,9084322,NA,"complete",NA,NA,"computer","Desktop or Laptop","Windows 10","Chrome 114.0.0.0","1370x703","1366x699",NA,NA,NA,"JV Task P1",8,"Anxious",NA,"In",NA,NA,"IJHKGAFBECD",NA,NA,"B (MDot First)",1,231,"SS1","SS1",6,"V","Valence","sn1sjn",1,"continue","",3709,3693,3709,3709,3693,3709,1,3709,0,0,NA,"Click To Continue","Continue Button",1,"object-25","V","CFD-BM-028-002-H.jpeg",NA,"SUPTM96648"
"21",1689004362801,"10/07/2023 15:52:42",1688989962801,-4,"10/07/2023 07:52:42",137495,33,"task-x17x",NA,30599620,9084322,NA,"complete",NA,NA,"computer","Desktop or Laptop","Windows 10","Chrome 114.0.0.0","1370x703","1366x699",NA,NA,NA,"JV Task P1",8,"Anxious",NA,"In",NA,NA,"IJHKGAFBECD",NA,NA,"B (MDot First)",1,231,"SS1","SS1",6,"V","Valence","sn1sjn",1,"response","71",1597,3693,3709,1597,3693,3709,1,1597,2112,0,NA,"Slider","J",3,"object-27","V","CFD-BM-028-002-H.jpeg",NA,"SUPTM96648"
"22",1689004363748,"10/07/2023 15:52:43",1688989963748,-4,"10/07/2023 07:52:43",137495,33,"task-x17x",NA,30599620,9084322,NA,"complete",NA,NA,"computer","Desktop or Laptop","Windows 10","Chrome 114.0.0.0","1370x703","1366x699",NA,NA,NA,"JV Task P1",8,"Anxious",NA,"In",NA,NA,"IJHKGAFBECD",NA,NA,"B (MDot First)",1,231,"SS1","SS1",6,"V","Fixation","aydkg3",2,"continue","",964,964,964,964,964,964,1,964,0,0,NA,"Fixation Timing","Fixation",1,"object-21","V","CFD-BM-028-002-H.jpeg",NA,"SUPTM96648"
"23",1689004366731,"10/07/2023 15:52:46",1688989966731,-4,"10/07/2023 07:52:46",137495,33,"task-x17x",NA,30599620,9084322,NA,"complete",NA,NA,"computer","Desktop or Laptop","Windows 10","Chrome 114.0.0.0","1370x703","1366x699",NA,NA,NA,"JV Task P1",8,"Anxious",NA,"In",NA,NA,"IJHKGAFBECD",NA,NA,"B (MDot First)",1,231,"SS1","SS1",7,"V","Valence","sn1sjn",1,"continue","",2984,2978,2984,2984,2978,2984,1,2984,0,0,NA,"Click To Continue","Continue Button",1,"object-25","V","CFD-WM-034-030-S.jpeg",NA,"SUPTM96648"
"24",1689004366739,"10/07/2023 15:52:46",1688989966739,-4,"10/07/2023 07:52:46",137495,33,"task-x17x",NA,30599620,9084322,NA,"complete",NA,NA,"computer","Desktop or Laptop","Windows 10","Chrome 114.0.0.0","1370x703","1366x699",NA,NA,NA,"JV Task P1",8,"Anxious",NA,"In",NA,NA,"IJHKGAFBECD",NA,NA,"B (MDot First)",1,231,"SS1","SS1",7,"V","Valence","sn1sjn",1,"response","42",1913,2978,2992,1913,2978,2992,1,1913,1079,0,NA,"Slider","J",3,"object-27","V","CFD-WM-034-030-S.jpeg",NA,"SUPTM96648"
"25",1689004367690,"10/07/2023 15:52:47",1688989967690,-4,"10/07/2023 07:52:47",137495,33,"task-x17x",NA,30599620,9084322,NA,"complete",NA,NA,"computer","Desktop or Laptop","Windows 10","Chrome 114.0.0.0","1370x703","1366x699",NA,NA,NA,"JV Task P1",8,"Anxious",NA,"In",NA,NA,"IJHKGAFBECD",NA,NA,"B (MDot First)",1,231,"SS1","SS1",7,"V","Fixation","aydkg3",2,"continue","",965,965,965,965,965,965,1,965,0,0,NA,"Fixation Timing","Fixation",1,"object-21","V","CFD-WM-034-030-S.jpeg",NA,"SUPTM96648"
"26",1689004370579,"10/07/2023 15:52:50",1688989970579,-4,"10/07/2023 07:52:50",137495,33,"task-x17x",NA,30599620,9084322,NA,"complete",NA,NA,"computer","Desktop or Laptop","Windows 10","Chrome 114.0.0.0","1370x703","1366x699",NA,NA,NA,"JV Task P1",8,"Anxious",NA,"In",NA,NA,"IJHKGAFBECD",NA,NA,"B (MDot First)",1,231,"SS1","SS1",2,"J","Judginess","w2ir4b",1,"continue","",2889,2878,2889,2889,2878,2889,1,2889,0,0,NA,"Click To Continue","Continue Button",1,"object-14","J","CFD-WF-037-029-H.jpeg",NA,"SUPTM96648"
"27",1689004370580,"10/07/2023 15:52:50",1688989970580,-4,"10/07/2023 07:52:50",137495,33,"task-x17x",NA,30599620,9084322,NA,"complete",NA,NA,"computer","Desktop or Laptop","Windows 10","Chrome 114.0.0.0","1370x703","1366x699",NA,NA,NA,"JV Task P1",8,"Anxious",NA,"In",NA,NA,"IJHKGAFBECD",NA,NA,"B (MDot First)",1,231,"SS1","SS1",2,"J","Judginess","w2ir4b",1,"response","67",1647,2878,2889,1647,2878,2889,1,1647,1242,0,NA,"Slider","J",3,"object-18","J","CFD-WF-037-029-H.jpeg",NA,"SUPTM96648"
"28",1689004371533,"10/07/2023 15:52:51",1688989971533,-4,"10/07/2023 07:52:51",137495,33,"task-x17x",NA,30599620,9084322,NA,"complete",NA,NA,"computer","Desktop or Laptop","Windows 10","Chrome 114.0.0.0","1370x703","1366x699",NA,NA,NA,"JV Task P1",8,"Anxious",NA,"In",NA,NA,"IJHKGAFBECD",NA,NA,"B (MDot First)",1,231,"SS1","SS1",2,"J","Fixation","mtm832",2,"continue","",964,964,964,964,964,964,1,964,0,0,NA,"Fixation Timing","Fixation",1,"object-65","J","CFD-WF-037-029-H.jpeg",NA,"SUPTM96648"
"29",1689004375245,"10/07/2023 15:52:55",1688989975245,-4,"10/07/2023 07:52:55",137495,33,"task-x17x",NA,30599620,9084322,NA,"complete",NA,NA,"computer","Desktop or Laptop","Windows 10","Chrome 114.0.0.0","1370x703","1366x699",NA,NA,NA,"JV Task P1",8,"Anxious",NA,"In",NA,NA,"IJHKGAFBECD",NA,NA,"B (MDot First)",1,231,"SS1","SS1",3,"J","Judginess","w2ir4b",1,"continue","",3709,3693,3709,3709,3693,3709,1,3709,0,0,NA,"Click To Continue","Continue Button",1,"object-14","J","CFD-BM-036-003-H.jpeg",NA,"SUPTM96648"
"30",1689004375246,"10/07/2023 15:52:55",1688989975246,-4,"10/07/2023 07:52:55",137495,33,"task-x17x",NA,30599620,9084322,NA,"complete",NA,NA,"computer","Desktop or Laptop","Windows 10","Chrome 114.0.0.0","1370x703","1366x699",NA,NA,NA,"JV Task P1",8,"Anxious",NA,"In",NA,NA,"IJHKGAFBECD",NA,NA,"B (MDot First)",1,231,"SS1","SS1",3,"J","Judginess","w2ir4b",1,"response","68",1115,3693,3709,1115,3693,3709,1,1115,2594,0,NA,"Slider","J",3,"object-18","J","CFD-BM-036-003-H.jpeg",NA,"SUPTM96648"
"31",1689004376191,"10/07/2023 15:52:56",1688989976191,-4,"10/07/2023 07:52:56",137495,33,"task-x17x",NA,30599620,9084322,NA,"complete",NA,NA,"computer","Desktop or Laptop","Windows 10","Chrome 114.0.0.0","1370x703","1366x699",NA,NA,NA,"JV Task P1",8,"Anxious",NA,"In",NA,NA,"IJHKGAFBECD",NA,NA,"B (MDot First)",1,231,"SS1","SS1",3,"J","Fixation","mtm832",2,"continue","",965,965,965,965,965,965,1,965,0,0,NA,"Fixation Timing","Fixation",1,"object-65","J","CFD-BM-036-003-H.jpeg",NA,"SUPTM96648"
"32",1689004378608,"10/07/2023 15:52:58",1688989978608,-4,"10/07/2023 07:52:58",137495,33,"task-x17x",NA,30599620,9084322,NA,"complete",NA,NA,"computer","Desktop or Laptop","Windows 10","Chrome 114.0.0.0","1370x703","1366x699",NA,NA,NA,"JV Task P1",8,"Anxious",NA,"In",NA,NA,"IJHKGAFBECD",NA,NA,"B (MDot First)",1,231,"SS1","SS1",8,"V","Valence","sn1sjn",1,"continue","",2418,2413,2418,2418,2413,2418,1,2418,0,0,NA,"Click To Continue","Continue Button",1,"object-25","V","CFD-BM-036-003-S.jpeg",NA,"SUPTM96648"
"33",1689004378615,"10/07/2023 15:52:58",1688989978615,-4,"10/07/2023 07:52:58",137495,33,"task-x17x",NA,30599620,9084322,NA,"complete",NA,NA,"computer","Desktop or Laptop","Windows 10","Chrome 114.0.0.0","1370x703","1366x699",NA,NA,NA,"JV Task P1",8,"Anxious",NA,"In",NA,NA,"IJHKGAFBECD",NA,NA,"B (MDot First)",1,231,"SS1","SS1",8,"V","Valence","sn1sjn",1,"response","37",1381,2413,2424,1381,2413,2424,1,1381,1043,0,NA,"Slider","J",3,"object-27","V","CFD-BM-036-003-S.jpeg",NA,"SUPTM96648"
"34",1689004379568,"10/07/2023 15:52:59",1688989979568,-4,"10/07/2023 07:52:59",137495,33,"task-x17x",NA,30599620,9084322,NA,"complete",NA,NA,"computer","Desktop or Laptop","Windows 10","Chrome 114.0.0.0","1370x703","1366x699",NA,NA,NA,"JV Task P1",8,"Anxious",NA,"In",NA,NA,"IJHKGAFBECD",NA,NA,"B (MDot First)",1,231,"SS1","SS1",8,"V","Fixation","aydkg3",2,"continue","",964,964,964,964,964,964,1,964,0,0,NA,"Fixation Timing","Fixation",1,"object-21","V","CFD-BM-036-003-S.jpeg",NA,"SUPTM96648"
"35",1689004382005,"10/07/2023 15:53:02",1688989982005,-4,"10/07/2023 07:53:02",137495,33,"task-x17x",NA,30599620,9084322,NA,"complete",NA,NA,"computer","Desktop or Laptop","Windows 10","Chrome 114.0.0.0","1370x703","1366x699",NA,NA,NA,"JV Task P1",8,"Anxious",NA,"In",NA,NA,"IJHKGAFBECD",NA,NA,"B (MDot First)",1,231,"SS1","SS1",9,"V","Valence","sn1sjn",1,"continue","",2438,2429,2438,2438,2429,2438,1,2438,0,0,NA,"Click To Continue","Continue Button",1,"object-25","V","CFD-BM-036-003-H.jpeg",NA,"SUPTM96648"
"36",1689004382006,"10/07/2023 15:53:02",1688989982006,-4,"10/07/2023 07:53:02",137495,33,"task-x17x",NA,30599620,9084322,NA,"complete",NA,NA,"computer","Desktop or Laptop","Windows 10","Chrome 114.0.0.0","1370x703","1366x699",NA,NA,NA,"JV Task P1",8,"Anxious",NA,"In",NA,NA,"IJHKGAFBECD",NA,NA,"B (MDot First)",1,231,"SS1","SS1",9,"V","Valence","sn1sjn",1,"response","33",1098,2429,2438,1098,2429,2438,1,1098,1340,0,NA,"Slider","J",3,"object-27","V","CFD-BM-036-003-H.jpeg",NA,"SUPTM96648"
"37",1689004382961,"10/07/2023 15:53:02",1688989982961,-4,"10/07/2023 07:53:02",137495,33,"task-x17x",NA,30599620,9084322,NA,"complete",NA,NA,"computer","Desktop or Laptop","Windows 10","Chrome 114.0.0.0","1370x703","1366x699",NA,NA,NA,"JV Task P1",8,"Anxious",NA,"In",NA,NA,"IJHKGAFBECD",NA,NA,"B (MDot First)",1,231,"SS1","SS1",9,"V","Fixation","aydkg3",2,"continue","",964,964,964,964,964,964,1,964,0,0,NA,"Fixation Timing","Fixation",1,"object-21","V","CFD-BM-036-003-H.jpeg",NA,"SUPTM96648"
"38",1689004385795,"10/07/2023 15:53:05",1688989985795,-4,"10/07/2023 07:53:05",137495,33,"task-x17x",NA,30599620,9084322,NA,"complete",NA,NA,"computer","Desktop or Laptop","Windows 10","Chrome 114.0.0.0","1370x703","1366x699",NA,NA,NA,"JV Task P1",8,"Anxious",NA,"In",NA,NA,"IJHKGAFBECD",NA,NA,"B (MDot First)",1,231,"SS1","SS1",4,"J","Judginess","w2ir4b",1,"continue","",2835,2828,2835,2835,2828,2835,1,2835,0,0,NA,"Click To Continue","Continue Button",1,"object-14","J","CFD-AM-225-102-H.jpeg",NA,"SUPTM96648"
"39",1689004385796,"10/07/2023 15:53:05",1688989985796,-4,"10/07/2023 07:53:05",137495,33,"task-x17x",NA,30599620,9084322,NA,"complete",NA,NA,"computer","Desktop or Laptop","Windows 10","Chrome 114.0.0.0","1370x703","1366x699",NA,NA,NA,"JV Task P1",8,"Anxious",NA,"In",NA,NA,"IJHKGAFBECD",NA,NA,"B (MDot First)",1,231,"SS1","SS1",4,"J","Judginess","w2ir4b",1,"response","71",1015,2828,2836,1015,2828,2836,1,1015,1821,0,NA,"Slider","J",3,"object-18","J","CFD-AM-225-102-H.jpeg",NA,"SUPTM96648"
"40",1689004386754,"10/07/2023 15:53:06",1688989986754,-4,"10/07/2023 07:53:06",137495,33,"task-x17x",NA,30599620,9084322,NA,"complete",NA,NA,"computer","Desktop or Laptop","Windows 10","Chrome 114.0.0.0","1370x703","1366x699",NA,NA,NA,"JV Task P1",8,"Anxious",NA,"In",NA,NA,"IJHKGAFBECD",NA,NA,"B (MDot First)",1,231,"SS1","SS1",4,"J","Fixation","mtm832",2,"continue","",965,965,965,965,965,965,1,965,0,0,NA,"Fixation Timing","Fixation",1,"object-65","J","CFD-AM-225-102-H.jpeg",NA,"SUPTM96648"
"41",1689004389439,"10/07/2023 15:53:09",1688989989439,-4,"10/07/2023 07:53:09",137495,33,"task-x17x",NA,30599620,9084322,NA,"complete",NA,NA,"computer","Desktop or Laptop","Windows 10","Chrome 114.0.0.0","1370x703","1366x699",NA,NA,NA,"JV Task P1",8,"Anxious",NA,"In",NA,NA,"IJHKGAFBECD",NA,NA,"B (MDot First)",1,231,"SS1","SS1",10,"V","Valence","sn1sjn",1,"continue","",2685,2678,2685,2685,2678,2685,1,2685,0,0,NA,"Click To Continue","Continue Button",1,"object-25","V","CFD-AM-223-138-S.jpeg",NA,"SUPTM96648"
"42",1689004389446,"10/07/2023 15:53:09",1688989989446,-4,"10/07/2023 07:53:09",137495,33,"task-x17x",NA,30599620,9084322,NA,"complete",NA,NA,"computer","Desktop or Laptop","Windows 10","Chrome 114.0.0.0","1370x703","1366x699",NA,NA,NA,"JV Task P1",8,"Anxious",NA,"In",NA,NA,"IJHKGAFBECD",NA,NA,"B (MDot First)",1,231,"SS1","SS1",10,"V","Valence","sn1sjn",1,"response","36",948,2678,2692,948,2678,2692,1,948,1744,0,NA,"Slider","J",3,"object-27","V","CFD-AM-223-138-S.jpeg",NA,"SUPTM96648"
"43",1689004390396,"10/07/2023 15:53:10",1688989990396,-4,"10/07/2023 07:53:10",137495,33,"task-x17x",NA,30599620,9084322,NA,"complete",NA,NA,"computer","Desktop or Laptop","Windows 10","Chrome 114.0.0.0","1370x703","1366x699",NA,NA,NA,"JV Task P1",8,"Anxious",NA,"In",NA,NA,"IJHKGAFBECD",NA,NA,"B (MDot First)",1,231,"SS1","SS1",10,"V","Fixation","aydkg3",2,"continue","",965,965,965,965,965,965,1,965,0,0,NA,"Fixation Timing","Fixation",1,"object-21","V","CFD-AM-223-138-S.jpeg",NA,"SUPTM96648"
"44",1689004392262,"10/07/2023 15:53:12",1688989992262,-4,"10/07/2023 07:53:12",137495,33,"task-x17x",NA,30599620,9084322,NA,"complete",NA,NA,"computer","Desktop or Laptop","Windows 10","Chrome 114.0.0.0","1370x703","1366x699",NA,NA,NA,"JV Task P1",8,"Anxious",NA,"In",NA,NA,"IJHKGAFBECD",NA,NA,"B (MDot First)",1,231,"SS1","SS1",11,"V","Valence","sn1sjn",1,"continue","",1862,1846,1862,1862,1846,1862,1,1862,0,0,NA,"Click To Continue","Continue Button",1,"object-25","V","CFD-WF-037-029-S.jpeg",NA,"SUPTM96648"
"45",1689004392263,"10/07/2023 15:53:12",1688989992263,-4,"10/07/2023 07:53:12",137495,33,"task-x17x",NA,30599620,9084322,NA,"complete",NA,NA,"computer","Desktop or Laptop","Windows 10","Chrome 114.0.0.0","1370x703","1366x699",NA,NA,NA,"JV Task P1",8,"Anxious",NA,"In",NA,NA,"IJHKGAFBECD",NA,NA,"B (MDot First)",1,231,"SS1","SS1",11,"V","Valence","sn1sjn",1,"response","36",1114,1846,1862,1114,1846,1862,1,1114,748,0,NA,"Slider","J",3,"object-27","V","CFD-WF-037-029-S.jpeg",NA,"SUPTM96648"
"46",1689004393209,"10/07/2023 15:53:13",1688989993209,-4,"10/07/2023 07:53:13",137495,33,"task-x17x",NA,30599620,9084322,NA,"complete",NA,NA,"computer","Desktop or Laptop","Windows 10","Chrome 114.0.0.0","1370x703","1366x699",NA,NA,NA,"JV Task P1",8,"Anxious",NA,"In",NA,NA,"IJHKGAFBECD",NA,NA,"B (MDot First)",1,231,"SS1","SS1",11,"V","Fixation","aydkg3",2,"continue","",965,965,965,965,965,965,1,965,0,0,NA,"Fixation Timing","Fixation",1,"object-21","V","CFD-WF-037-029-S.jpeg",NA,"SUPTM96648"
"47",1689004399409,"10/07/2023 15:53:19",1688989999409,-4,"10/07/2023 07:53:19",137495,33,"task-x17x",NA,30599620,9084322,NA,"complete",NA,NA,"computer","Desktop or Laptop","Windows 10","Chrome 114.0.0.0","1370x703","1366x699",NA,NA,NA,"JV Task P1",8,"Anxious",NA,"In",NA,NA,"IJHKGAFBECD",NA,NA,"B (MDot First)",1,231,"SS1","SS1",12,"V","Valence","sn1sjn",1,"continue","",3208,3195,3208,3208,3195,3208,1,3208,0,0,NA,"Click To Continue","Continue Button",1,"object-25","V","CFD-MM-308-001-N.jpg",NA,"SUPTM96648"
"48",1689004399410,"10/07/2023 15:53:19",1688989999410,-4,"10/07/2023 07:53:19",137495,33,"task-x17x",NA,30599620,9084322,NA,"complete",NA,NA,"computer","Desktop or Laptop","Windows 10","Chrome 114.0.0.0","1370x703","1366x699",NA,NA,NA,"JV Task P1",8,"Anxious",NA,"In",NA,NA,"IJHKGAFBECD",NA,NA,"B (MDot First)",1,231,"SS1","SS1",12,"V","Valence","sn1sjn",1,"response","39",2296,3195,3209,2296,3195,3209,1,2296,913,0,NA,"Slider","J",3,"object-27","V","CFD-MM-308-001-N.jpg",NA,"SUPTM96648"
"49",1689004400362,"10/07/2023 15:53:20",1688990000362,-4,"10/07/2023 07:53:20",137495,33,"task-x17x",NA,30599620,9084322,NA,"complete",NA,NA,"computer","Desktop or Laptop","Windows 10","Chrome 114.0.0.0","1370x703","1366x699",NA,NA,NA,"JV Task P1",8,"Anxious",NA,"In",NA,NA,"IJHKGAFBECD",NA,NA,"B (MDot First)",1,231,"SS1","SS1",12,"V","Fixation","aydkg3",2,"continue","",965,965,965,965,965,965,1,965,0,0,NA,"Fixation Timing","Fixation",1,"object-21","V","CFD-MM-308-001-N.jpg",NA,"SUPTM96648"
"50",1689004404339,"10/07/2023 15:53:24",1688990004339,-4,"10/07/2023 07:53:24",137495,33,"task-x17x",NA,30599620,9084322,NA,"complete",NA,NA,"computer","Desktop or Laptop","Windows 10","Chrome 114.0.0.0","1370x703","1366x699",NA,NA,NA,"JV Task P1",8,"Anxious",NA,"In",NA,NA,"IJHKGAFBECD",NA,NA,"B (MDot First)",1,231,"SS1","SS1",5,"J","Judginess","w2ir4b",1,"continue","",3975,3958,3975,3975,3958,3975,1,3975,0,0,NA,"Click To Continue","Continue Button",1,"object-14","J","CFD-WM-026-001-S.jpeg",NA,"SUPTM96648"
"51",1689004404339,"10/07/2023 15:53:24",1688990004339,-4,"10/07/2023 07:53:24",137495,33,"task-x17x",NA,30599620,9084322,NA,"complete",NA,NA,"computer","Desktop or Laptop","Windows 10","Chrome 114.0.0.0","1370x703","1366x699",NA,NA,NA,"JV Task P1",8,"Anxious",NA,"In",NA,NA,"IJHKGAFBECD",NA,NA,"B (MDot First)",1,231,"SS1","SS1",5,"J","Judginess","w2ir4b",1,"response","40",2045,3958,3975,2045,3958,3975,1,2045,1930,0,NA,"Slider","J",3,"object-18","J","CFD-WM-026-001-S.jpeg",NA,"SUPTM96648"
"52",1689004405284,"10/07/2023 15:53:25",1688990005284,-4,"10/07/2023 07:53:25",137495,33,"task-x17x",NA,30599620,9084322,NA,"complete",NA,NA,"computer","Desktop or Laptop","Windows 10","Chrome 114.0.0.0","1370x703","1366x699",NA,NA,NA,"JV Task P1",8,"Anxious",NA,"In",NA,NA,"IJHKGAFBECD",NA,NA,"B (MDot First)",1,231,"SS1","SS1",5,"J","Fixation","mtm832",2,"continue","",965,965,965,965,965,965,1,965,0,0,NA,"Fixation Timing","Fixation",1,"object-65","J","CFD-WM-026-001-S.jpeg",NA,"SUPTM96648"
"53",1689004408982,"10/07/2023 15:53:28",1688990008982,-4,"10/07/2023 07:53:28",137495,33,"task-x17x",NA,30599620,9084322,NA,"complete",NA,NA,"computer","Desktop or Laptop","Windows 10","Chrome 114.0.0.0","1370x703","1366x699",NA,NA,NA,"JV Task P1",8,"Anxious",NA,"In",NA,NA,"IJHKGAFBECD",NA,NA,"B (MDot First)",1,231,"SS1","SS1",6,"J","Judginess","w2ir4b",1,"continue","",3698,3693,3698,3698,3693,3698,1,3698,0,0,NA,"Click To Continue","Continue Button",1,"object-14","J","CFD-BF-040-003-S.jpeg",NA,"SUPTM96648"
"54",1689004408983,"10/07/2023 15:53:28",1688990008983,-4,"10/07/2023 07:53:28",137495,33,"task-x17x",NA,30599620,9084322,NA,"complete",NA,NA,"computer","Desktop or Laptop","Windows 10","Chrome 114.0.0.0","1370x703","1366x699",NA,NA,NA,"JV Task P1",8,"Anxious",NA,"In",NA,NA,"IJHKGAFBECD",NA,NA,"B (MDot First)",1,231,"SS1","SS1",6,"J","Judginess","w2ir4b",1,"response","39",2029,3693,3699,2029,3693,3699,1,2029,1670,0,NA,"Slider","J",3,"object-18","J","CFD-BF-040-003-S.jpeg",NA,"SUPTM96648"
"55",1689004409943,"10/07/2023 15:53:29",1688990009943,-4,"10/07/2023 07:53:29",137495,33,"task-x17x",NA,30599620,9084322,NA,"complete",NA,NA,"computer","Desktop or Laptop","Windows 10","Chrome 114.0.0.0","1370x703","1366x699",NA,NA,NA,"JV Task P1",8,"Anxious",NA,"In",NA,NA,"IJHKGAFBECD",NA,NA,"B (MDot First)",1,231,"SS1","SS1",6,"J","Fixation","mtm832",2,"continue","",965,965,965,965,965,965,1,965,0,0,NA,"Fixation Timing","Fixation",1,"object-65","J","CFD-BF-040-003-S.jpeg",NA,"SUPTM96648"
"56",1689004415531,"10/07/2023 15:53:35",1688990015531,-4,"10/07/2023 07:53:35",137495,33,"task-x17x",NA,30599620,9084322,NA,"complete",NA,NA,"computer","Desktop or Laptop","Windows 10","Chrome 114.0.0.0","1370x703","1366x699",NA,NA,NA,"JV Task P1",8,"Anxious",NA,"In",NA,NA,"IJHKGAFBECD",NA,NA,"B (MDot First)",1,231,"SS1","SS1",7,"J","Judginess","w2ir4b",1,"continue","",5589,5572,5589,5589,5572,5589,1,5589,0,0,NA,"Click To Continue","Continue Button",1,"object-14","J","CFD-WM-031-003-N.jpg",NA,"SUPTM96648"
"57",1689004415537,"10/07/2023 15:53:35",1688990015537,-4,"10/07/2023 07:53:35",137495,33,"task-x17x",NA,30599620,9084322,NA,"complete",NA,NA,"computer","Desktop or Laptop","Windows 10","Chrome 114.0.0.0","1370x703","1366x699",NA,NA,NA,"JV Task P1",8,"Anxious",NA,"In",NA,NA,"IJHKGAFBECD",NA,NA,"B (MDot First)",1,231,"SS1","SS1",7,"J","Judginess","w2ir4b",1,"response","42",2644,5572,5589,2644,5572,5589,1,2644,2945,0,NA,"Slider","J",3,"object-18","J","CFD-WM-031-003-N.jpg",NA,"SUPTM96648"
"58",1689004416479,"10/07/2023 15:53:36",1688990016479,-4,"10/07/2023 07:53:36",137495,33,"task-x17x",NA,30599620,9084322,NA,"complete",NA,NA,"computer","Desktop or Laptop","Windows 10","Chrome 114.0.0.0","1370x703","1366x699",NA,NA,NA,"JV Task P1",8,"Anxious",NA,"In",NA,NA,"IJHKGAFBECD",NA,NA,"B (MDot First)",1,231,"SS1","SS1",7,"J","Fixation","mtm832",2,"continue","",965,965,965,965,965,965,1,965,0,0,NA,"Fixation Timing","Fixation",1,"object-65","J","CFD-WM-031-003-N.jpg",NA,"SUPTM96648"
"59",1689004421346,"10/07/2023 15:53:41",1688990021346,-4,"10/07/2023 07:53:41",137495,33,"task-x17x",NA,30599620,9084322,NA,"complete",NA,NA,"computer","Desktop or Laptop","Windows 10","Chrome 114.0.0.0","1370x703","1366x699",NA,NA,NA,"JV Task P1",8,"Anxious",NA,"In",NA,NA,"IJHKGAFBECD",NA,NA,"B (MDot First)",1,231,"SS1","SS1",8,"J","Judginess","w2ir4b",1,"continue","",4866,4857,4866,4866,4857,4866,1,4866,0,0,NA,"Click To Continue","Continue Button",1,"object-14","J","CFD-AF-211-066-H.jpeg",NA,"SUPTM96648"
"60",1689004421346,"10/07/2023 15:53:41",1688990021346,-4,"10/07/2023 07:53:41",137495,33,"task-x17x",NA,30599620,9084322,NA,"complete",NA,NA,"computer","Desktop or Laptop","Windows 10","Chrome 114.0.0.0","1370x703","1366x699",NA,NA,NA,"JV Task P1",8,"Anxious",NA,"In",NA,NA,"IJHKGAFBECD",NA,NA,"B (MDot First)",1,231,"SS1","SS1",8,"J","Judginess","w2ir4b",1,"response","63",2661,4857,4867,2661,4857,4867,1,2661,2206,0,NA,"Slider","J",3,"object-18","J","CFD-AF-211-066-H.jpeg",NA,"SUPTM96648"
"61",1689004422302,"10/07/2023 15:53:42",1688990022302,-4,"10/07/2023 07:53:42",137495,33,"task-x17x",NA,30599620,9084322,NA,"complete",NA,NA,"computer","Desktop or Laptop","Windows 10","Chrome 114.0.0.0","1370x703","1366x699",NA,NA,NA,"JV Task P1",8,"Anxious",NA,"In",NA,NA,"IJHKGAFBECD",NA,NA,"B (MDot First)",1,231,"SS1","SS1",8,"J","Fixation","mtm832",2,"continue","",965,965,965,965,965,965,1,965,0,0,NA,"Fixation Timing","Fixation",1,"object-65","J","CFD-AF-211-066-H.jpeg",NA,"SUPTM96648"
"62",1689004425815,"10/07/2023 15:53:45",1688990025815,-4,"10/07/2023 07:53:45",137495,33,"task-x17x",NA,30599620,9084322,NA,"complete",NA,NA,"computer","Desktop or Laptop","Windows 10","Chrome 114.0.0.0","1370x703","1366x699",NA,NA,NA,"JV Task P1",8,"Anxious",NA,"In",NA,NA,"IJHKGAFBECD",NA,NA,"B (MDot First)",1,231,"SS1","SS1",13,"V","Valence","sn1sjn",1,"continue","",3514,3510,3514,3514,3510,3514,1,3514,0,0,NA,"Click To Continue","Continue Button",1,"object-25","V","CFD-MM-308-001-S.jpeg",NA,"SUPTM96648"
"63",1689004425826,"10/07/2023 15:53:45",1688990025826,-4,"10/07/2023 07:53:45",137495,33,"task-x17x",NA,30599620,9084322,NA,"complete",NA,NA,"computer","Desktop or Laptop","Windows 10","Chrome 114.0.0.0","1370x703","1366x699",NA,NA,NA,"JV Task P1",8,"Anxious",NA,"In",NA,NA,"IJHKGAFBECD",NA,NA,"B (MDot First)",1,231,"SS1","SS1",13,"V","Valence","sn1sjn",1,"response","40",2279,3510,3526,2279,3510,3526,1,2279,1247,0,NA,"Slider","J",3,"object-27","V","CFD-MM-308-001-S.jpeg",NA,"SUPTM96648"
"64",1689004426776,"10/07/2023 15:53:46",1688990026776,-4,"10/07/2023 07:53:46",137495,33,"task-x17x",NA,30599620,9084322,NA,"complete",NA,NA,"computer","Desktop or Laptop","Windows 10","Chrome 114.0.0.0","1370x703","1366x699",NA,NA,NA,"JV Task P1",8,"Anxious",NA,"In",NA,NA,"IJHKGAFBECD",NA,NA,"B (MDot First)",1,231,"SS1","SS1",13,"V","Fixation","aydkg3",2,"continue","",965,965,965,965,965,965,1,965,0,0,NA,"Fixation Timing","Fixation",1,"object-21","V","CFD-MM-308-001-S.jpeg",NA,"SUPTM96648"
"65",1689004436095,"10/07/2023 15:53:56",1688990036095,-4,"10/07/2023 07:53:56",137495,33,"task-x17x",NA,30599620,9084322,NA,"complete",NA,NA,"computer","Desktop or Laptop","Windows 10","Chrome 114.0.0.0","1370x703","1366x699",NA,NA,NA,"JV Task P1",8,"Anxious",NA,"In",NA,NA,"IJHKGAFBECD",NA,NA,"B (MDot First)",1,231,"SS1","SS1",9,"J","Judginess","w2ir4b",1,"continue","",9314,9298,9314,9314,9298,9314,1,9314,0,0,NA,"Click To Continue","Continue Button",1,"object-14","J","CFD-BM-028-002-S.jpeg",NA,"SUPTM96648"
"66",1689004436099,"10/07/2023 15:53:56",1688990036099,-4,"10/07/2023 07:53:56",137495,33,"task-x17x",NA,30599620,9084322,NA,"complete",NA,NA,"computer","Desktop or Laptop","Windows 10","Chrome 114.0.0.0","1370x703","1366x699",NA,NA,NA,"JV Task P1",8,"Anxious",NA,"In",NA,NA,"IJHKGAFBECD",NA,NA,"B (MDot First)",1,231,"SS1","SS1",9,"J","Judginess","w2ir4b",1,"response","39",7219,9298,9314,7219,9298,9314,1,7219,2095,0,NA,"Slider","J",3,"object-18","J","CFD-BM-028-002-S.jpeg",NA,"SUPTM96648"
"67",1689004437039,"10/07/2023 15:53:57",1688990037039,-4,"10/07/2023 07:53:57",137495,33,"task-x17x",NA,30599620,9084322,NA,"complete",NA,NA,"computer","Desktop or Laptop","Windows 10","Chrome 114.0.0.0","1370x703","1366x699",NA,NA,NA,"JV Task P1",8,"Anxious",NA,"In",NA,NA,"IJHKGAFBECD",NA,NA,"B (MDot First)",1,231,"SS1","SS1",9,"J","Fixation","mtm832",2,"continue","",965,965,965,965,965,965,1,965,0,0,NA,"Fixation Timing","Fixation",1,"object-65","J","CFD-BM-028-002-S.jpeg",NA,"SUPTM96648"
"68",1689004441431,"10/07/2023 15:54:01",1688990041431,-4,"10/07/2023 07:54:01",137495,33,"task-x17x",NA,30599620,9084322,NA,"complete",NA,NA,"computer","Desktop or Laptop","Windows 10","Chrome 114.0.0.0","1370x703","1366x699",NA,NA,NA,"JV Task P1",8,"Anxious",NA,"In",NA,NA,"IJHKGAFBECD",NA,NA,"B (MDot First)",1,231,"SS1","SS1",14,"V","Valence","sn1sjn",1,"continue","",4392,4375,4392,4392,4375,4392,1,4392,0,0,NA,"Click To Continue","Continue Button",1,"object-25","V","CFD-WM-028-003-S.jpeg",NA,"SUPTM96648"
"69",1689004441435,"10/07/2023 15:54:01",1688990041435,-4,"10/07/2023 07:54:01",137495,33,"task-x17x",NA,30599620,9084322,NA,"complete",NA,NA,"computer","Desktop or Laptop","Windows 10","Chrome 114.0.0.0","1370x703","1366x699",NA,NA,NA,"JV Task P1",8,"Anxious",NA,"In",NA,NA,"IJHKGAFBECD",NA,NA,"B (MDot First)",1,231,"SS1","SS1",14,"V","Valence","sn1sjn",1,"response","39",2711,4375,4392,2711,4375,4392,1,2711,1681,0,NA,"Slider","J",3,"object-27","V","CFD-WM-028-003-S.jpeg",NA,"SUPTM96648"
"70",1689004442379,"10/07/2023 15:54:02",1688990042379,-4,"10/07/2023 07:54:02",137495,33,"task-x17x",NA,30599620,9084322,NA,"complete",NA,NA,"computer","Desktop or Laptop","Windows 10","Chrome 114.0.0.0","1370x703","1366x699",NA,NA,NA,"JV Task P1",8,"Anxious",NA,"In",NA,NA,"IJHKGAFBECD",NA,NA,"B (MDot First)",1,231,"SS1","SS1",14,"V","Fixation","aydkg3",2,"continue","",965,965,965,965,965,965,1,965,0,0,NA,"Fixation Timing","Fixation",1,"object-21","V","CFD-WM-028-003-S.jpeg",NA,"SUPTM96648"
"71",1689004445179,"10/07/2023 15:54:05",1688990045179,-4,"10/07/2023 07:54:05",137495,33,"task-x17x",NA,30599620,9084322,NA,"complete",NA,NA,"computer","Desktop or Laptop","Windows 10","Chrome 114.0.0.0","1370x703","1366x699",NA,NA,NA,"JV Task P1",8,"Anxious",NA,"In",NA,NA,"IJHKGAFBECD",NA,NA,"B (MDot First)",1,231,"SS1","SS1",15,"V","Valence","sn1sjn",1,"continue","",2800,2795,2800,2800,2795,2800,1,2800,0,0,NA,"Click To Continue","Continue Button",1,"object-25","V","CFD-WM-028-003-N.jpg",NA,"SUPTM96648"
"72",1689004445180,"10/07/2023 15:54:05",1688990045180,-4,"10/07/2023 07:54:05",137495,33,"task-x17x",NA,30599620,9084322,NA,"complete",NA,NA,"computer","Desktop or Laptop","Windows 10","Chrome 114.0.0.0","1370x703","1366x699",NA,NA,NA,"JV Task P1",8,"Anxious",NA,"In",NA,NA,"IJHKGAFBECD",NA,NA,"B (MDot First)",1,231,"SS1","SS1",15,"V","Valence","sn1sjn",1,"response","58",1863,2795,2800,1863,2795,2800,1,1863,937,0,NA,"Slider","J",3,"object-27","V","CFD-WM-028-003-N.jpg",NA,"SUPTM96648"
"73",1689004446139,"10/07/2023 15:54:06",1688990046139,-4,"10/07/2023 07:54:06",137495,33,"task-x17x",NA,30599620,9084322,NA,"complete",NA,NA,"computer","Desktop or Laptop","Windows 10","Chrome 114.0.0.0","1370x703","1366x699",NA,NA,NA,"JV Task P1",8,"Anxious",NA,"In",NA,NA,"IJHKGAFBECD",NA,NA,"B (MDot First)",1,231,"SS1","SS1",15,"V","Fixation","aydkg3",2,"continue","",964,964,964,964,964,964,1,964,0,0,NA,"Fixation Timing","Fixation",1,"object-21","V","CFD-WM-028-003-N.jpg",NA,"SUPTM96648"
"74",1689004448609,"10/07/2023 15:54:08",1688990048609,-4,"10/07/2023 07:54:08",137495,33,"task-x17x",NA,30599620,9084322,NA,"complete",NA,NA,"computer","Desktop or Laptop","Windows 10","Chrome 114.0.0.0","1370x703","1366x699",NA,NA,NA,"JV Task P1",8,"Anxious",NA,"In",NA,NA,"IJHKGAFBECD",NA,NA,"B (MDot First)",1,231,"SS1","SS1",16,"V","Valence","sn1sjn",1,"continue","",2471,2462,2471,2471,2462,2471,1,2471,0,0,NA,"Click To Continue","Continue Button",1,"object-25","V","CFD-IF-734-108-H.jpeg",NA,"SUPTM96648"
"75",1689004448610,"10/07/2023 15:54:08",1688990048610,-4,"10/07/2023 07:54:08",137495,33,"task-x17x",NA,30599620,9084322,NA,"complete",NA,NA,"computer","Desktop or Laptop","Windows 10","Chrome 114.0.0.0","1370x703","1366x699",NA,NA,NA,"JV Task P1",8,"Anxious",NA,"In",NA,NA,"IJHKGAFBECD",NA,NA,"B (MDot First)",1,231,"SS1","SS1",16,"V","Valence","sn1sjn",1,"response","39",1364,2462,2473,1364,2462,2473,1,1364,1109,0,NA,"Slider","J",3,"object-27","V","CFD-IF-734-108-H.jpeg",NA,"SUPTM96648"
"76",1689004449565,"10/07/2023 15:54:09",1688990049565,-4,"10/07/2023 07:54:09",137495,33,"task-x17x",NA,30599620,9084322,NA,"complete",NA,NA,"computer","Desktop or Laptop","Windows 10","Chrome 114.0.0.0","1370x703","1366x699",NA,NA,NA,"JV Task P1",8,"Anxious",NA,"In",NA,NA,"IJHKGAFBECD",NA,NA,"B (MDot First)",1,231,"SS1","SS1",16,"V","Fixation","aydkg3",2,"continue","",965,965,965,965,965,965,1,965,0,0,NA,"Fixation Timing","Fixation",1,"object-21","V","CFD-IF-734-108-H.jpeg",NA,"SUPTM96648"
"77",1689004452249,"10/07/2023 15:54:12",1688990052249,-4,"10/07/2023 07:54:12",137495,33,"task-x17x",NA,30599620,9084322,NA,"complete",NA,NA,"computer","Desktop or Laptop","Windows 10","Chrome 114.0.0.0","1370x703","1366x699",NA,NA,NA,"JV Task P1",8,"Anxious",NA,"In",NA,NA,"IJHKGAFBECD",NA,NA,"B (MDot First)",1,231,"SS1","SS1",17,"V","Valence","sn1sjn",1,"continue","",2685,2680,2685,2685,2680,2685,1,2685,0,0,NA,"Click To Continue","Continue Button",1,"object-25","V","CFD-IF-693-172-S.jpeg",NA,"SUPTM96648"
"78",1689004452250,"10/07/2023 15:54:12",1688990052250,-4,"10/07/2023 07:54:12",137495,33,"task-x17x",NA,30599620,9084322,NA,"complete",NA,NA,"computer","Desktop or Laptop","Windows 10","Chrome 114.0.0.0","1370x703","1366x699",NA,NA,NA,"JV Task P1",8,"Anxious",NA,"In",NA,NA,"IJHKGAFBECD",NA,NA,"B (MDot First)",1,231,"SS1","SS1",17,"V","Valence","sn1sjn",1,"response","39",1530,2680,2685,1530,2680,2685,1,1530,1155,0,NA,"Slider","J",3,"object-27","V","CFD-IF-693-172-S.jpeg",NA,"SUPTM96648"
"79",1689004453210,"10/07/2023 15:54:13",1688990053210,-4,"10/07/2023 07:54:13",137495,33,"task-x17x",NA,30599620,9084322,NA,"complete",NA,NA,"computer","Desktop or Laptop","Windows 10","Chrome 114.0.0.0","1370x703","1366x699",NA,NA,NA,"JV Task P1",8,"Anxious",NA,"In",NA,NA,"IJHKGAFBECD",NA,NA,"B (MDot First)",1,231,"SS1","SS1",17,"V","Fixation","aydkg3",2,"continue","",963,963,963,963,963,963,1,963,0,0,NA,"Fixation Timing","Fixation",1,"object-21","V","CFD-IF-693-172-S.jpeg",NA,"SUPTM96648"
"80",1689004455579,"10/07/2023 15:54:15",1688990055579,-4,"10/07/2023 07:54:15",137495,33,"task-x17x",NA,30599620,9084322,NA,"complete",NA,NA,"computer","Desktop or Laptop","Windows 10","Chrome 114.0.0.0","1370x703","1366x699",NA,NA,NA,"JV Task P1",8,"Anxious",NA,"In",NA,NA,"IJHKGAFBECD",NA,NA,"B (MDot First)",1,231,"SS1","SS1",10,"J","Judginess","w2ir4b",1,"continue","",2370,2362,2370,2370,2362,2370,1,2370,0,0,NA,"Click To Continue","Continue Button",1,"object-14","J","CFD-IM-711-011-H.jpeg",NA,"SUPTM96648"
"81",1689004455579,"10/07/2023 15:54:15",1688990055579,-4,"10/07/2023 07:54:15",137495,33,"task-x17x",NA,30599620,9084322,NA,"complete",NA,NA,"computer","Desktop or Laptop","Windows 10","Chrome 114.0.0.0","1370x703","1366x699",NA,NA,NA,"JV Task P1",8,"Anxious",NA,"In",NA,NA,"IJHKGAFBECD",NA,NA,"B (MDot First)",1,231,"SS1","SS1",10,"J","Judginess","w2ir4b",1,"response","61",1181,2362,2371,1181,2362,2371,1,1181,1190,0,NA,"Slider","J",3,"object-18","J","CFD-IM-711-011-H.jpeg",NA,"SUPTM96648"
"82",1689004456535,"10/07/2023 15:54:16",1688990056535,-4,"10/07/2023 07:54:16",137495,33,"task-x17x",NA,30599620,9084322,NA,"complete",NA,NA,"computer","Desktop or Laptop","Windows 10","Chrome 114.0.0.0","1370x703","1366x699",NA,NA,NA,"JV Task P1",8,"Anxious",NA,"In",NA,NA,"IJHKGAFBECD",NA,NA,"B (MDot First)",1,231,"SS1","SS1",10,"J","Fixation","mtm832",2,"continue","",965,965,965,965,965,965,1,965,0,0,NA,"Fixation Timing","Fixation",1,"object-65","J","CFD-IM-711-011-H.jpeg",NA,"SUPTM96648"
"83",1689004468990,"10/07/2023 15:54:28",1688990068990,-4,"10/07/2023 07:54:28",137495,33,"task-x17x",NA,30599620,9084322,NA,"complete",NA,NA,"computer","Desktop or Laptop","Windows 10","Chrome 114.0.0.0","1370x703","1366x699",NA,NA,NA,"JV Task P1",8,"Anxious",NA,"In",NA,NA,"IJHKGAFBECD",NA,NA,"B (MDot First)",1,231,"SS1","SS1",11,"J","Judginess","w2ir4b",1,"continue","",8511,8499,8511,8511,8499,8511,1,8511,0,0,NA,"Click To Continue","Continue Button",1,"object-14","J","CFD-WF-022-017-N.jpg",NA,"SUPTM96648"
"84",1689004468993,"10/07/2023 15:54:28",1688990068993,-4,"10/07/2023 07:54:28",137495,33,"task-x17x",NA,30599620,9084322,NA,"complete",NA,NA,"computer","Desktop or Laptop","Windows 10","Chrome 114.0.0.0","1370x703","1366x699",NA,NA,NA,"JV Task P1",8,"Anxious",NA,"In",NA,NA,"IJHKGAFBECD",NA,NA,"B (MDot First)",1,231,"SS1","SS1",11,"J","Judginess","w2ir4b",1,"response","58",6353,8499,8514,6353,8499,8514,1,6353,2161,0,NA,"Slider","J",3,"object-18","J","CFD-WF-022-017-N.jpg",NA,"SUPTM96648"
"85",1689004469943,"10/07/2023 15:54:29",1688990069943,-4,"10/07/2023 07:54:29",137495,33,"task-x17x",NA,30599620,9084322,NA,"complete",NA,NA,"computer","Desktop or Laptop","Windows 10","Chrome 114.0.0.0","1370x703","1366x699",NA,NA,NA,"JV Task P1",8,"Anxious",NA,"In",NA,NA,"IJHKGAFBECD",NA,NA,"B (MDot First)",1,231,"SS1","SS1",11,"J","Fixation","mtm832",2,"continue","",964,964,964,964,964,964,1,964,0,0,NA,"Fixation Timing","Fixation",1,"object-65","J","CFD-WF-022-017-N.jpg",NA,"SUPTM96648"
"86",1689004483465,"10/07/2023 15:54:43",1688990083465,-4,"10/07/2023 07:54:43",137495,33,"task-x17x",NA,30599620,9084322,NA,"complete",NA,NA,"computer","Desktop or Laptop","Windows 10","Chrome 114.0.0.0","1370x703","1366x699",NA,NA,NA,"JV Task P1",8,"Anxious",NA,"In",NA,NA,"IJHKGAFBECD",NA,NA,"B (MDot First)",1,231,"SS1","SS1",18,"V","Valence","sn1sjn",1,"continue","",13523,13508,13523,13523,13508,13523,1,13523,0,0,NA,"Click To Continue","Continue Button",1,"object-25","V","CFD-WM-035-032-N.jpg",NA,"SUPTM96648"
"87",1689004483472,"10/07/2023 15:54:43",1688990083472,-4,"10/07/2023 07:54:43",137495,33,"task-x17x",NA,30599620,9084322,NA,"complete",NA,NA,"computer","Desktop or Laptop","Windows 10","Chrome 114.0.0.0","1370x703","1366x699",NA,NA,NA,"JV Task P1",8,"Anxious",NA,"In",NA,NA,"IJHKGAFBECD",NA,NA,"B (MDot First)",1,231,"SS1","SS1",18,"V","Valence","sn1sjn",1,"response","49",2978,13508,13525,2978,13508,13525,1,2978,10547,0,NA,"Slider","J",3,"object-27","V","CFD-WM-035-032-N.jpg",NA,"SUPTM96648"
"88",1689004484415,"10/07/2023 15:54:44",1688990084415,-4,"10/07/2023 07:54:44",137495,33,"task-x17x",NA,30599620,9084322,NA,"complete",NA,NA,"computer","Desktop or Laptop","Windows 10","Chrome 114.0.0.0","1370x703","1366x699",NA,NA,NA,"JV Task P1",8,"Anxious",NA,"In",NA,NA,"IJHKGAFBECD",NA,NA,"B (MDot First)",1,231,"SS1","SS1",18,"V","Fixation","aydkg3",2,"continue","",964,964,964,964,964,964,1,964,0,0,NA,"Fixation Timing","Fixation",1,"object-21","V","CFD-WM-035-032-N.jpg",NA,"SUPTM96648"
"89",1689004488446,"10/07/2023 15:54:48",1688990088446,-4,"10/07/2023 07:54:48",137495,33,"task-x17x",NA,30599620,9084322,NA,"complete",NA,NA,"computer","Desktop or Laptop","Windows 10","Chrome 114.0.0.0","1370x703","1366x699",NA,NA,NA,"JV Task P1",8,"Anxious",NA,"In",NA,NA,"IJHKGAFBECD",NA,NA,"B (MDot First)",1,231,"SS1","SS1",19,"V","Valence","sn1sjn",1,"continue","",4032,4026,4032,4032,4026,4032,1,4032,0,0,NA,"Click To Continue","Continue Button",1,"object-25","V","CFD-BM-036-003-N.jpg",NA,"SUPTM96648"
"90",1689004488446,"10/07/2023 15:54:48",1688990088446,-4,"10/07/2023 07:54:48",137495,33,"task-x17x",NA,30599620,9084322,NA,"complete",NA,NA,"computer","Desktop or Laptop","Windows 10","Chrome 114.0.0.0","1370x703","1366x699",NA,NA,NA,"JV Task P1",8,"Anxious",NA,"In",NA,NA,"IJHKGAFBECD",NA,NA,"B (MDot First)",1,231,"SS1","SS1",19,"V","Valence","sn1sjn",1,"response","54",2229,4026,4033,2229,4026,4033,1,2229,1804,0,NA,"Slider","J",3,"object-27","V","CFD-BM-036-003-N.jpg",NA,"SUPTM96648"
"91",1689004489404,"10/07/2023 15:54:49",1688990089404,-4,"10/07/2023 07:54:49",137495,33,"task-x17x",NA,30599620,9084322,NA,"complete",NA,NA,"computer","Desktop or Laptop","Windows 10","Chrome 114.0.0.0","1370x703","1366x699",NA,NA,NA,"JV Task P1",8,"Anxious",NA,"In",NA,NA,"IJHKGAFBECD",NA,NA,"B (MDot First)",1,231,"SS1","SS1",19,"V","Fixation","aydkg3",2,"continue","",965,965,965,965,965,965,1,965,0,0,NA,"Fixation Timing","Fixation",1,"object-21","V","CFD-BM-036-003-N.jpg",NA,"SUPTM96648"
"92",1689004492204,"10/07/2023 15:54:52",1688990092204,-4,"10/07/2023 07:54:52",137495,33,"task-x17x",NA,30599620,9084322,NA,"complete",NA,NA,"computer","Desktop or Laptop","Windows 10","Chrome 114.0.0.0","1370x703","1366x699",NA,NA,NA,"JV Task P1",8,"Anxious",NA,"In",NA,NA,"IJHKGAFBECD",NA,NA,"B (MDot First)",1,231,"SS1","SS1",20,"V","Valence","sn1sjn",1,"continue","",2800,2794,2800,2800,2794,2800,1,2800,0,0,NA,"Click To Continue","Continue Button",1,"object-25","V","CFD-WF-006-002-N.jpg",NA,"SUPTM96648"
"93",1689004492205,"10/07/2023 15:54:52",1688990092205,-4,"10/07/2023 07:54:52",137495,33,"task-x17x",NA,30599620,9084322,NA,"complete",NA,NA,"computer","Desktop or Laptop","Windows 10","Chrome 114.0.0.0","1370x703","1366x699",NA,NA,NA,"JV Task P1",8,"Anxious",NA,"In",NA,NA,"IJHKGAFBECD",NA,NA,"B (MDot First)",1,231,"SS1","SS1",20,"V","Valence","sn1sjn",1,"response","39",1447,2794,2800,1447,2794,2800,1,1447,1353,0,NA,"Slider","J",3,"object-27","V","CFD-WF-006-002-N.jpg",NA,"SUPTM96648"
"94",1689004493166,"10/07/2023 15:54:53",1688990093166,-4,"10/07/2023 07:54:53",137495,33,"task-x17x",NA,30599620,9084322,NA,"complete",NA,NA,"computer","Desktop or Laptop","Windows 10","Chrome 114.0.0.0","1370x703","1366x699",NA,NA,NA,"JV Task P1",8,"Anxious",NA,"In",NA,NA,"IJHKGAFBECD",NA,NA,"B (MDot First)",1,231,"SS1","SS1",20,"V","Fixation","aydkg3",2,"continue","",965,965,965,965,965,965,1,965,0,0,NA,"Fixation Timing","Fixation",1,"object-21","V","CFD-WF-006-002-N.jpg",NA,"SUPTM96648"
"95",1689004517659,"10/07/2023 15:55:17",1688990117659,-4,"10/07/2023 07:55:17",137495,33,"task-x17x",NA,30599620,9084322,NA,"complete",NA,NA,"computer","Desktop or Laptop","Windows 10","Chrome 114.0.0.0","1370x703","1366x699",NA,NA,NA,"JV Task P1",8,"Anxious",NA,"In",NA,NA,"IJHKGAFBECD",NA,NA,"B (MDot First)",1,231,"SS1","SS1",21,"V","Valence","sn1sjn",1,"continue","",20619,20610,20619,20619,20610,20619,1,20619,0,0,NA,"Click To Continue","Continue Button",1,"object-25","V","CFD-WM-024-015-N.jpg",NA,"SUPTM96648"
"96",1689004517668,"10/07/2023 15:55:17",1688990117668,-4,"10/07/2023 07:55:17",137495,33,"task-x17x",NA,30599620,9084322,NA,"complete",NA,NA,"computer","Desktop or Laptop","Windows 10","Chrome 114.0.0.0","1370x703","1366x699",NA,NA,NA,"JV Task P1",8,"Anxious",NA,"In",NA,NA,"IJHKGAFBECD",NA,NA,"B (MDot First)",1,231,"SS1","SS1",21,"V","Valence","sn1sjn",1,"response","43",19612,20610,20626,19612,20610,20626,1,19612,1014,0,NA,"Slider","J",3,"object-27","V","CFD-WM-024-015-N.jpg",NA,"SUPTM96648"
"97",1689004518615,"10/07/2023 15:55:18",1688990118615,-4,"10/07/2023 07:55:18",137495,33,"task-x17x",NA,30599620,9084322,NA,"complete",NA,NA,"computer","Desktop or Laptop","Windows 10","Chrome 114.0.0.0","1370x703","1366x699",NA,NA,NA,"JV Task P1",8,"Anxious",NA,"In",NA,NA,"IJHKGAFBECD",NA,NA,"B (MDot First)",1,231,"SS1","SS1",21,"V","Fixation","aydkg3",2,"continue","",965,965,965,965,965,965,1,965,0,0,NA,"Fixation Timing","Fixation",1,"object-21","V","CFD-WM-024-015-N.jpg",NA,"SUPTM96648"
"98",1689004536411,"10/07/2023 15:55:36",1688990136411,-4,"10/07/2023 07:55:36",137495,33,"task-x17x",NA,30599620,9084322,NA,"complete",NA,NA,"computer","Desktop or Laptop","Windows 10","Chrome 114.0.0.0","1370x703","1366x699",NA,NA,NA,"JV Task P1",8,"Anxious",NA,"In",NA,NA,"IJHKGAFBECD",NA,NA,"B (MDot First)",1,231,"SS1","SS1",12,"J","Judginess","w2ir4b",1,"continue","",17797,17782,17797,17797,17782,17797,1,17797,0,0,NA,"Click To Continue","Continue Button",1,"object-14","J","CFD-WM-001-014-H.jpeg",NA,"SUPTM96648"
"99",1689004536416,"10/07/2023 15:55:36",1688990136416,-4,"10/07/2023 07:55:36",137495,33,"task-x17x",NA,30599620,9084322,NA,"complete",NA,NA,"computer","Desktop or Laptop","Windows 10","Chrome 114.0.0.0","1370x703","1366x699",NA,NA,NA,"JV Task P1",8,"Anxious",NA,"In",NA,NA,"IJHKGAFBECD",NA,NA,"B (MDot First)",1,231,"SS1","SS1",12,"J","Judginess","w2ir4b",1,"response","69",9448,17782,17798,9448,17782,17798,1,9448,8350,0,NA,"Slider","J",3,"object-18","J","CFD-WM-001-014-H.jpeg",NA,"SUPTM96648"
"100",1689004537362,"10/07/2023 15:55:37",1688990137362,-4,"10/07/2023 07:55:37",137495,33,"task-x17x",NA,30599620,9084322,NA,"complete",NA,NA,"computer","Desktop or Laptop","Windows 10","Chrome 114.0.0.0","1370x703","1366x699",NA,NA,NA,"JV Task P1",8,"Anxious",NA,"In",NA,NA,"IJHKGAFBECD",NA,NA,"B (MDot First)",1,231,"SS1","SS1",12,"J","Fixation","mtm832",2,"continue","",965,965,965,965,965,965,1,965,0,0,NA,"Fixation Timing","Fixation",1,"object-65","J","CFD-WM-001-014-H.jpeg",NA,"SUPTM96648"
"101",1689004548489,"10/07/2023 15:55:48",1688990148489,-4,"10/07/2023 07:55:48",137495,33,"task-x17x",NA,30599620,9084322,NA,"complete",NA,NA,"computer","Desktop or Laptop","Windows 10","Chrome 114.0.0.0","1370x703","1366x699",NA,NA,NA,"JV Task P1",8,"Anxious",NA,"In",NA,NA,"IJHKGAFBECD",NA,NA,"B (MDot First)",1,231,"SS1","SS1",13,"J","Judginess","w2ir4b",1,"continue","",11128,11112,11128,11128,11112,11128,1,11128,0,0,NA,"Click To Continue","Continue Button",1,"object-14","J","CFD-WF-030-002-H.jpeg",NA,"SUPTM96648"
"102",1689004548494,"10/07/2023 15:55:48",1688990148494,-4,"10/07/2023 07:55:48",137495,33,"task-x17x",NA,30599620,9084322,NA,"complete",NA,NA,"computer","Desktop or Laptop","Windows 10","Chrome 114.0.0.0","1370x703","1366x699",NA,NA,NA,"JV Task P1",8,"Anxious",NA,"In",NA,NA,"IJHKGAFBECD",NA,NA,"B (MDot First)",1,231,"SS1","SS1",13,"J","Judginess","w2ir4b",1,"response","65",10180,11112,11129,10180,11112,11129,1,10180,949,0,NA,"Slider","J",3,"object-18","J","CFD-WF-030-002-H.jpeg",NA,"SUPTM96648"
"103",1689004549439,"10/07/2023 15:55:49",1688990149439,-4,"10/07/2023 07:55:49",137495,33,"task-x17x",NA,30599620,9084322,NA,"complete",NA,NA,"computer","Desktop or Laptop","Windows 10","Chrome 114.0.0.0","1370x703","1366x699",NA,NA,NA,"JV Task P1",8,"Anxious",NA,"In",NA,NA,"IJHKGAFBECD",NA,NA,"B (MDot First)",1,231,"SS1","SS1",13,"J","Fixation","mtm832",2,"continue","",965,965,965,965,965,965,1,965,0,0,NA,"Fixation Timing","Fixation",1,"object-65","J","CFD-WF-030-002-H.jpeg",NA,"SUPTM96648"
"104",1689004555006,"10/07/2023 15:55:55",1688990155006,-4,"10/07/2023 07:55:55",137495,33,"task-x17x",NA,30599620,9084322,NA,"complete",NA,NA,"computer","Desktop or Laptop","Windows 10","Chrome 114.0.0.0","1370x703","1366x699",NA,NA,NA,"JV Task P1",8,"Anxious",NA,"In",NA,NA,"IJHKGAFBECD",NA,NA,"B (MDot First)",1,231,"SS1","SS1",22,"V","Valence","sn1sjn",1,"continue","",5567,5556,5567,5567,5556,5567,1,5567,0,0,NA,"Click To Continue","Continue Button",1,"object-25","V","CFD-WF-009-001-H.jpeg",NA,"SUPTM96648"
"105",1689004555007,"10/07/2023 15:55:55",1688990155007,-4,"10/07/2023 07:55:55",137495,33,"task-x17x",NA,30599620,9084322,NA,"complete",NA,NA,"computer","Desktop or Laptop","Windows 10","Chrome 114.0.0.0","1370x703","1366x699",NA,NA,NA,"JV Task P1",8,"Anxious",NA,"In",NA,NA,"IJHKGAFBECD",NA,NA,"B (MDot First)",1,231,"SS1","SS1",22,"V","Valence","sn1sjn",1,"response","70",3792,5556,5567,3792,5556,5567,1,3792,1775,0,NA,"Slider","J",3,"object-27","V","CFD-WF-009-001-H.jpeg",NA,"SUPTM96648"
"106",1689004555959,"10/07/2023 15:55:55",1688990155959,-4,"10/07/2023 07:55:55",137495,33,"task-x17x",NA,30599620,9084322,NA,"complete",NA,NA,"computer","Desktop or Laptop","Windows 10","Chrome 114.0.0.0","1370x703","1366x699",NA,NA,NA,"JV Task P1",8,"Anxious",NA,"In",NA,NA,"IJHKGAFBECD",NA,NA,"B (MDot First)",1,231,"SS1","SS1",22,"V","Fixation","aydkg3",2,"continue","",965,965,965,965,965,965,1,965,0,0,NA,"Fixation Timing","Fixation",1,"object-21","V","CFD-WF-009-001-H.jpeg",NA,"SUPTM96648"
"107",1689004567725,"10/07/2023 15:56:07",1688990167725,-4,"10/07/2023 07:56:07",137495,33,"task-x17x",NA,30599620,9084322,NA,"complete",NA,NA,"computer","Desktop or Laptop","Windows 10","Chrome 114.0.0.0","1370x703","1366x699",NA,NA,NA,"JV Task P1",8,"Anxious",NA,"In",NA,NA,"IJHKGAFBECD",NA,NA,"B (MDot First)",1,231,"SS1","SS1",23,"V","Valence","sn1sjn",1,"continue","",11765,11761,11765,11765,11761,11765,1,11765,0,0,NA,"Click To Continue","Continue Button",1,"object-25","V","CFD-AF-233-190-S.jpeg",NA,"SUPTM96648"
"108",1689004567731,"10/07/2023 15:56:07",1688990167731,-4,"10/07/2023 07:56:07",137495,33,"task-x17x",NA,30599620,9084322,NA,"complete",NA,NA,"computer","Desktop or Laptop","Windows 10","Chrome 114.0.0.0","1370x703","1366x699",NA,NA,NA,"JV Task P1",8,"Anxious",NA,"In",NA,NA,"IJHKGAFBECD",NA,NA,"B (MDot First)",1,231,"SS1","SS1",23,"V","Valence","sn1sjn",1,"response","43",4840,11761,11772,4840,11761,11772,1,4840,6932,0,NA,"Slider","J",3,"object-27","V","CFD-AF-233-190-S.jpeg",NA,"SUPTM96648"
"109",1689004568685,"10/07/2023 15:56:08",1688990168685,-4,"10/07/2023 07:56:08",137495,33,"task-x17x",NA,30599620,9084322,NA,"complete",NA,NA,"computer","Desktop or Laptop","Windows 10","Chrome 114.0.0.0","1370x703","1366x699",NA,NA,NA,"JV Task P1",8,"Anxious",NA,"In",NA,NA,"IJHKGAFBECD",NA,NA,"B (MDot First)",1,231,"SS1","SS1",23,"V","Fixation","aydkg3",2,"continue","",964,964,964,964,964,964,1,964,0,0,NA,"Fixation Timing","Fixation",1,"object-21","V","CFD-AF-233-190-S.jpeg",NA,"SUPTM96648"
"110",1689004577623,"10/07/2023 15:56:17",1688990177623,-4,"10/07/2023 07:56:17",137495,33,"task-x17x",NA,30599620,9084322,NA,"complete",NA,NA,"computer","Desktop or Laptop","Windows 10","Chrome 114.0.0.0","1370x703","1366x699",NA,NA,NA,"JV Task P1",8,"Anxious",NA,"In",NA,NA,"IJHKGAFBECD",NA,NA,"B (MDot First)",1,231,"SS1","SS1",24,"V","Valence","sn1sjn",1,"continue","",8938,8933,8938,8938,8933,8938,1,8938,0,0,NA,"Click To Continue","Continue Button",1,"object-25","V","CFD-MM-313-002-N.jpg",NA,"SUPTM96648"
"111",1689004577623,"10/07/2023 15:56:17",1688990177623,-4,"10/07/2023 07:56:17",137495,33,"task-x17x",NA,30599620,9084322,NA,"complete",NA,NA,"computer","Desktop or Laptop","Windows 10","Chrome 114.0.0.0","1370x703","1366x699",NA,NA,NA,"JV Task P1",8,"Anxious",NA,"In",NA,NA,"IJHKGAFBECD",NA,NA,"B (MDot First)",1,231,"SS1","SS1",24,"V","Valence","sn1sjn",1,"response","61",2894,8933,8939,2894,8933,8939,1,2894,6045,0,NA,"Slider","J",3,"object-27","V","CFD-MM-313-002-N.jpg",NA,"SUPTM96648"
"112",1689004578582,"10/07/2023 15:56:18",1688990178582,-4,"10/07/2023 07:56:18",137495,33,"task-x17x",NA,30599620,9084322,NA,"complete",NA,NA,"computer","Desktop or Laptop","Windows 10","Chrome 114.0.0.0","1370x703","1366x699",NA,NA,NA,"JV Task P1",8,"Anxious",NA,"In",NA,NA,"IJHKGAFBECD",NA,NA,"B (MDot First)",1,231,"SS1","SS1",24,"V","Fixation","aydkg3",2,"continue","",965,965,965,965,965,965,1,965,0,0,NA,"Fixation Timing","Fixation",1,"object-21","V","CFD-MM-313-002-N.jpg",NA,"SUPTM96648"
"113",1689004583528,"10/07/2023 15:56:23",1688990183528,-4,"10/07/2023 07:56:23",137495,33,"task-x17x",NA,30599620,9084322,NA,"complete",NA,NA,"computer","Desktop or Laptop","Windows 10","Chrome 114.0.0.0","1370x703","1366x699",NA,NA,NA,"JV Task P1",8,"Anxious",NA,"In",NA,NA,"IJHKGAFBECD",NA,NA,"B (MDot First)",1,231,"SS1","SS1",14,"J","Judginess","w2ir4b",1,"continue","",4946,4940,4946,4946,4940,4946,1,4946,0,0,NA,"Click To Continue","Continue Button",1,"object-14","J","CFD-AM-223-138-H.jpeg",NA,"SUPTM96648"
"114",1689004583529,"10/07/2023 15:56:23",1688990183529,-4,"10/07/2023 07:56:23",137495,33,"task-x17x",NA,30599620,9084322,NA,"complete",NA,NA,"computer","Desktop or Laptop","Windows 10","Chrome 114.0.0.0","1370x703","1366x699",NA,NA,NA,"JV Task P1",8,"Anxious",NA,"In",NA,NA,"IJHKGAFBECD",NA,NA,"B (MDot First)",1,231,"SS1","SS1",14,"J","Judginess","w2ir4b",1,"response","65",2711,4940,4947,2711,4940,4947,1,2711,2236,0,NA,"Slider","J",3,"object-18","J","CFD-AM-223-138-H.jpeg",NA,"SUPTM96648"
"115",1689004584488,"10/07/2023 15:56:24",1688990184488,-4,"10/07/2023 07:56:24",137495,33,"task-x17x",NA,30599620,9084322,NA,"complete",NA,NA,"computer","Desktop or Laptop","Windows 10","Chrome 114.0.0.0","1370x703","1366x699",NA,NA,NA,"JV Task P1",8,"Anxious",NA,"In",NA,NA,"IJHKGAFBECD",NA,NA,"B (MDot First)",1,231,"SS1","SS1",14,"J","Fixation","mtm832",2,"continue","",965,965,965,965,965,965,1,965,0,0,NA,"Fixation Timing","Fixation",1,"object-65","J","CFD-AM-223-138-H.jpeg",NA,"SUPTM96648"
"116",1689004595826,"10/07/2023 15:56:35",1688990195826,-4,"10/07/2023 07:56:35",137495,33,"task-x17x",NA,30599620,9084322,NA,"complete",NA,NA,"computer","Desktop or Laptop","Windows 10","Chrome 114.0.0.0","1370x703","1366x699",NA,NA,NA,"JV Task P1",8,"Anxious",NA,"In",NA,NA,"IJHKGAFBECD",NA,NA,"B (MDot First)",1,231,"SS1","SS1",25,"V","Valence","sn1sjn",1,"continue","",11339,11328,11339,11339,11328,11339,1,11339,0,0,NA,"Click To Continue","Continue Button",1,"object-25","V","CFD-WM-035-032-S.jpeg",NA,"SUPTM96648"
"117",1689004595831,"10/07/2023 15:56:35",1688990195831,-4,"10/07/2023 07:56:35",137495,33,"task-x17x",NA,30599620,9084322,NA,"complete",NA,NA,"computer","Desktop or Laptop","Windows 10","Chrome 114.0.0.0","1370x703","1366x699",NA,NA,NA,"JV Task P1",8,"Anxious",NA,"In",NA,NA,"IJHKGAFBECD",NA,NA,"B (MDot First)",1,231,"SS1","SS1",25,"V","Valence","sn1sjn",1,"response","40",1630,11328,11343,1630,11328,11343,1,1630,9713,0,NA,"Slider","J",3,"object-27","V","CFD-WM-035-032-S.jpeg",NA,"SUPTM96648"
"118",1689004596781,"10/07/2023 15:56:36",1688990196781,-4,"10/07/2023 07:56:36",137495,33,"task-x17x",NA,30599620,9084322,NA,"complete",NA,NA,"computer","Desktop or Laptop","Windows 10","Chrome 114.0.0.0","1370x703","1366x699",NA,NA,NA,"JV Task P1",8,"Anxious",NA,"In",NA,NA,"IJHKGAFBECD",NA,NA,"B (MDot First)",1,231,"SS1","SS1",25,"V","Fixation","aydkg3",2,"continue","",965,965,965,965,965,965,1,965,0,0,NA,"Fixation Timing","Fixation",1,"object-21","V","CFD-WM-035-032-S.jpeg",NA,"SUPTM96648"
"119",1689004603606,"10/07/2023 15:56:43",1688990203606,-4,"10/07/2023 07:56:43",137495,33,"task-x17x",NA,30599620,9084322,NA,"complete",NA,NA,"computer","Desktop or Laptop","Windows 10","Chrome 114.0.0.0","1370x703","1366x699",NA,NA,NA,"JV Task P1",8,"Anxious",NA,"In",NA,NA,"IJHKGAFBECD",NA,NA,"B (MDot First)",1,231,"SS1","SS1",15,"J","Judginess","w2ir4b",1,"continue","",6826,6820,6826,6826,6820,6826,1,6826,0,0,NA,"Click To Continue","Continue Button",1,"object-14","J","CFD-WF-011-002-H.jpeg",NA,"SUPTM96648"
"120",1689004603607,"10/07/2023 15:56:43",1688990203607,-4,"10/07/2023 07:56:43",137495,33,"task-x17x",NA,30599620,9084322,NA,"complete",NA,NA,"computer","Desktop or Laptop","Windows 10","Chrome 114.0.0.0","1370x703","1366x699",NA,NA,NA,"JV Task P1",8,"Anxious",NA,"In",NA,NA,"IJHKGAFBECD",NA,NA,"B (MDot First)",1,231,"SS1","SS1",15,"J","Judginess","w2ir4b",1,"response","66",5639,6820,6826,5639,6820,6826,1,5639,1187,0,NA,"Slider","J",3,"object-18","J","CFD-WF-011-002-H.jpeg",NA,"SUPTM96648"
"121",1689004604566,"10/07/2023 15:56:44",1688990204566,-4,"10/07/2023 07:56:44",137495,33,"task-x17x",NA,30599620,9084322,NA,"complete",NA,NA,"computer","Desktop or Laptop","Windows 10","Chrome 114.0.0.0","1370x703","1366x699",NA,NA,NA,"JV Task P1",8,"Anxious",NA,"In",NA,NA,"IJHKGAFBECD",NA,NA,"B (MDot First)",1,231,"SS1","SS1",15,"J","Fixation","mtm832",2,"continue","",965,965,965,965,965,965,1,965,0,0,NA,"Fixation Timing","Fixation",1,"object-65","J","CFD-WF-011-002-H.jpeg",NA,"SUPTM96648"
"122",1689004608293,"10/07/2023 15:56:48",1688990208293,-4,"10/07/2023 07:56:48",137495,33,"task-x17x",NA,30599620,9084322,NA,"complete",NA,NA,"computer","Desktop or Laptop","Windows 10","Chrome 114.0.0.0","1370x703","1366x699",NA,NA,NA,"JV Task P1",8,"Anxious",NA,"In",NA,NA,"IJHKGAFBECD",NA,NA,"B (MDot First)",1,231,"SS1","SS1",26,"V","Valence","sn1sjn",1,"continue","",3725,3709,3725,3725,3709,3725,1,3725,0,0,NA,"Click To Continue","Continue Button",1,"object-25","V","CFD-WF-006-002-H.jpeg",NA,"SUPTM96648"
"123",1689004608298,"10/07/2023 15:56:48",1688990208298,-4,"10/07/2023 07:56:48",137495,33,"task-x17x",NA,30599620,9084322,NA,"complete",NA,NA,"computer","Desktop or Laptop","Windows 10","Chrome 114.0.0.0","1370x703","1366x699",NA,NA,NA,"JV Task P1",8,"Anxious",NA,"In",NA,NA,"IJHKGAFBECD",NA,NA,"B (MDot First)",1,231,"SS1","SS1",26,"V","Valence","sn1sjn",1,"response","65",1746,3709,3725,1746,3709,3725,1,1746,1979,0,NA,"Slider","J",3,"object-27","V","CFD-WF-006-002-H.jpeg",NA,"SUPTM96648"
"124",1689004609240,"10/07/2023 15:56:49",1688990209240,-4,"10/07/2023 07:56:49",137495,33,"task-x17x",NA,30599620,9084322,NA,"complete",NA,NA,"computer","Desktop or Laptop","Windows 10","Chrome 114.0.0.0","1370x703","1366x699",NA,NA,NA,"JV Task P1",8,"Anxious",NA,"In",NA,NA,"IJHKGAFBECD",NA,NA,"B (MDot First)",1,231,"SS1","SS1",26,"V","Fixation","aydkg3",2,"continue","",965,965,965,965,965,965,1,965,0,0,NA,"Fixation Timing","Fixation",1,"object-21","V","CFD-WF-006-002-H.jpeg",NA,"SUPTM96648"
"125",1689004613027,"10/07/2023 15:56:53",1688990213027,-4,"10/07/2023 07:56:53",137495,33,"task-x17x",NA,30599620,9084322,NA,"complete",NA,NA,"computer","Desktop or Laptop","Windows 10","Chrome 114.0.0.0","1370x703","1366x699",NA,NA,NA,"JV Task P1",8,"Anxious",NA,"In",NA,NA,"IJHKGAFBECD",NA,NA,"B (MDot First)",1,231,"SS1","SS1",16,"J","Judginess","w2ir4b",1,"continue","",3788,3776,3788,3788,3776,3788,1,3788,0,0,NA,"Click To Continue","Continue Button",1,"object-14","J","CFD-AF-250-200-S.jpeg",NA,"SUPTM96648"
"126",1689004613028,"10/07/2023 15:56:53",1688990213028,-4,"10/07/2023 07:56:53",137495,33,"task-x17x",NA,30599620,9084322,NA,"complete",NA,NA,"computer","Desktop or Laptop","Windows 10","Chrome 114.0.0.0","1370x703","1366x699",NA,NA,NA,"JV Task P1",8,"Anxious",NA,"In",NA,NA,"IJHKGAFBECD",NA,NA,"B (MDot First)",1,231,"SS1","SS1",16,"J","Judginess","w2ir4b",1,"response","40",1697,3776,3789,1697,3776,3789,1,1697,2092,0,NA,"Slider","J",3,"object-18","J","CFD-AF-250-200-S.jpeg",NA,"SUPTM96648"
"127",1689004613981,"10/07/2023 15:56:53",1688990213981,-4,"10/07/2023 07:56:53",137495,33,"task-x17x",NA,30599620,9084322,NA,"complete",NA,NA,"computer","Desktop or Laptop","Windows 10","Chrome 114.0.0.0","1370x703","1366x699",NA,NA,NA,"JV Task P1",8,"Anxious",NA,"In",NA,NA,"IJHKGAFBECD",NA,NA,"B (MDot First)",1,231,"SS1","SS1",16,"J","Fixation","mtm832",2,"continue","",965,965,965,965,965,965,1,965,0,0,NA,"Fixation Timing","Fixation",1,"object-65","J","CFD-AF-250-200-S.jpeg",NA,"SUPTM96648"
"128",1689004617050,"10/07/2023 15:56:57",1688990217050,-4,"10/07/2023 07:56:57",137495,33,"task-x17x",NA,30599620,9084322,NA,"complete",NA,NA,"computer","Desktop or Laptop","Windows 10","Chrome 114.0.0.0","1370x703","1366x699",NA,NA,NA,"JV Task P1",8,"Anxious",NA,"In",NA,NA,"IJHKGAFBECD",NA,NA,"B (MDot First)",1,231,"SS1","SS1",27,"V","Valence","sn1sjn",1,"continue","",3069,3061,3069,3069,3061,3069,1,3069,0,0,NA,"Click To Continue","Continue Button",1,"object-25","V","CFD-IM-695-001-H.jpeg",NA,"SUPTM96648"
"129",1689004617051,"10/07/2023 15:56:57",1688990217051,-4,"10/07/2023 07:56:57",137495,33,"task-x17x",NA,30599620,9084322,NA,"complete",NA,NA,"computer","Desktop or Laptop","Windows 10","Chrome 114.0.0.0","1370x703","1366x699",NA,NA,NA,"JV Task P1",8,"Anxious",NA,"In",NA,NA,"IJHKGAFBECD",NA,NA,"B (MDot First)",1,231,"SS1","SS1",27,"V","Valence","sn1sjn",1,"response","59",1830,3061,3070,1830,3061,3070,1,1830,1240,0,NA,"Slider","J",3,"object-27","V","CFD-IM-695-001-H.jpeg",NA,"SUPTM96648"
"130",1689004618006,"10/07/2023 15:56:58",1688990218006,-4,"10/07/2023 07:56:58",137495,33,"task-x17x",NA,30599620,9084322,NA,"complete",NA,NA,"computer","Desktop or Laptop","Windows 10","Chrome 114.0.0.0","1370x703","1366x699",NA,NA,NA,"JV Task P1",8,"Anxious",NA,"In",NA,NA,"IJHKGAFBECD",NA,NA,"B (MDot First)",1,231,"SS1","SS1",27,"V","Fixation","aydkg3",2,"continue","",964,964,964,964,964,964,1,964,0,0,NA,"Fixation Timing","Fixation",1,"object-21","V","CFD-IM-695-001-H.jpeg",NA,"SUPTM96648"
"131",1689004653738,"10/07/2023 15:57:33",1688990253738,-4,"10/07/2023 07:57:33",137495,33,"task-x17x",NA,30599620,9084322,NA,"complete",NA,NA,"computer","Desktop or Laptop","Windows 10","Chrome 114.0.0.0","1370x703","1366x699",NA,NA,NA,"JV Task P1",8,"Anxious",NA,"In",NA,NA,"IJHKGAFBECD",NA,NA,"B (MDot First)",1,231,"SS1","SS1",28,"V","Valence","sn1sjn",1,"continue","",35732,35715,35732,35732,35715,35732,1,35732,0,0,NA,"Click To Continue","Continue Button",1,"object-25","V","CFD-MF-309-002-S.jpeg",NA,"SUPTM96648"
"132",1689004653746,"10/07/2023 15:57:33",1688990253746,-4,"10/07/2023 07:57:33",137495,33,"task-x17x",NA,30599620,9084322,NA,"complete",NA,NA,"computer","Desktop or Laptop","Windows 10","Chrome 114.0.0.0","1370x703","1366x699",NA,NA,NA,"JV Task P1",8,"Anxious",NA,"In",NA,NA,"IJHKGAFBECD",NA,NA,"B (MDot First)",1,231,"SS1","SS1",28,"V","Valence","sn1sjn",1,"response","38",34168,35715,35732,34168,35715,35732,1,34168,1564,0,NA,"Slider","J",3,"object-27","V","CFD-MF-309-002-S.jpeg",NA,"SUPTM96648"
"133",1689004654685,"10/07/2023 15:57:34",1688990254685,-4,"10/07/2023 07:57:34",137495,33,"task-x17x",NA,30599620,9084322,NA,"complete",NA,NA,"computer","Desktop or Laptop","Windows 10","Chrome 114.0.0.0","1370x703","1366x699",NA,NA,NA,"JV Task P1",8,"Anxious",NA,"In",NA,NA,"IJHKGAFBECD",NA,NA,"B (MDot First)",1,231,"SS1","SS1",28,"V","Fixation","aydkg3",2,"continue","",964,964,964,964,964,964,1,964,0,0,NA,"Fixation Timing","Fixation",1,"object-21","V","CFD-MF-309-002-S.jpeg",NA,"SUPTM96648"
"134",1689004657965,"10/07/2023 15:57:37",1688990257965,-4,"10/07/2023 07:57:37",137495,33,"task-x17x",NA,30599620,9084322,NA,"complete",NA,NA,"computer","Desktop or Laptop","Windows 10","Chrome 114.0.0.0","1370x703","1366x699",NA,NA,NA,"JV Task P1",8,"Anxious",NA,"In",NA,NA,"IJHKGAFBECD",NA,NA,"B (MDot First)",1,231,"SS1","SS1",29,"V","Valence","sn1sjn",1,"continue","",3277,3261,3277,3277,3261,3277,1,3277,0,0,NA,"Click To Continue","Continue Button",1,"object-25","V","CFD-WF-030-002-S.jpeg",NA,"SUPTM96648"
"135",1689004657965,"10/07/2023 15:57:37",1688990257965,-4,"10/07/2023 07:57:37",137495,33,"task-x17x",NA,30599620,9084322,NA,"complete",NA,NA,"computer","Desktop or Laptop","Windows 10","Chrome 114.0.0.0","1370x703","1366x699",NA,NA,NA,"JV Task P1",8,"Anxious",NA,"In",NA,NA,"IJHKGAFBECD",NA,NA,"B (MDot First)",1,231,"SS1","SS1",29,"V","Valence","sn1sjn",1,"response","39",2346,3261,3277,2346,3261,3277,1,2346,931,0,NA,"Slider","J",3,"object-27","V","CFD-WF-030-002-S.jpeg",NA,"SUPTM96648"
"136",1689004658911,"10/07/2023 15:57:38",1688990258911,-4,"10/07/2023 07:57:38",137495,33,"task-x17x",NA,30599620,9084322,NA,"complete",NA,NA,"computer","Desktop or Laptop","Windows 10","Chrome 114.0.0.0","1370x703","1366x699",NA,NA,NA,"JV Task P1",8,"Anxious",NA,"In",NA,NA,"IJHKGAFBECD",NA,NA,"B (MDot First)",1,231,"SS1","SS1",29,"V","Fixation","aydkg3",2,"continue","",965,965,965,965,965,965,1,965,0,0,NA,"Fixation Timing","Fixation",1,"object-21","V","CFD-WF-030-002-S.jpeg",NA,"SUPTM96648"
"137",1689004661815,"10/07/2023 15:57:41",1688990261815,-4,"10/07/2023 07:57:41",137495,33,"task-x17x",NA,30599620,9084322,NA,"complete",NA,NA,"computer","Desktop or Laptop","Windows 10","Chrome 114.0.0.0","1370x703","1366x699",NA,NA,NA,"JV Task P1",8,"Anxious",NA,"In",NA,NA,"IJHKGAFBECD",NA,NA,"B (MDot First)",1,231,"SS1","SS1",30,"V","Valence","sn1sjn",1,"continue","",2905,2894,2905,2905,2894,2905,1,2905,0,0,NA,"Click To Continue","Continue Button",1,"object-25","V","CFD-WM-024-015-H.jpeg",NA,"SUPTM96648"
"138",1689004661816,"10/07/2023 15:57:41",1688990261816,-4,"10/07/2023 07:57:41",137495,33,"task-x17x",NA,30599620,9084322,NA,"complete",NA,NA,"computer","Desktop or Laptop","Windows 10","Chrome 114.0.0.0","1370x703","1366x699",NA,NA,NA,"JV Task P1",8,"Anxious",NA,"In",NA,NA,"IJHKGAFBECD",NA,NA,"B (MDot First)",1,231,"SS1","SS1",30,"V","Valence","sn1sjn",1,"response","65",1863,2894,2905,1863,2894,2905,1,1863,1042,0,NA,"Slider","J",3,"object-27","V","CFD-WM-024-015-H.jpeg",NA,"SUPTM96648"
"139",1689004662770,"10/07/2023 15:57:42",1688990262770,-4,"10/07/2023 07:57:42",137495,33,"task-x17x",NA,30599620,9084322,NA,"complete",NA,NA,"computer","Desktop or Laptop","Windows 10","Chrome 114.0.0.0","1370x703","1366x699",NA,NA,NA,"JV Task P1",8,"Anxious",NA,"In",NA,NA,"IJHKGAFBECD",NA,NA,"B (MDot First)",1,231,"SS1","SS1",30,"V","Fixation","aydkg3",2,"continue","",965,965,965,965,965,965,1,965,0,0,NA,"Fixation Timing","Fixation",1,"object-21","V","CFD-WM-024-015-H.jpeg",NA,"SUPTM96648"
"140",1689004667602,"10/07/2023 15:57:47",1688990267602,-4,"10/07/2023 07:57:47",137495,33,"task-x17x",NA,30599620,9084322,NA,"complete",NA,NA,"computer","Desktop or Laptop","Windows 10","Chrome 114.0.0.0","1370x703","1366x699",NA,NA,NA,"JV Task P1",8,"Anxious",NA,"In",NA,NA,"IJHKGAFBECD",NA,NA,"B (MDot First)",1,231,"SS1","SS1",17,"J","Judginess","w2ir4b",1,"continue","",4832,4824,4832,4832,4824,4832,1,4832,0,0,NA,"Click To Continue","Continue Button",1,"object-14","J","CFD-WM-015-002-N.jpg",NA,"SUPTM96648"
"141",1689004667609,"10/07/2023 15:57:47",1688990267609,-4,"10/07/2023 07:57:47",137495,33,"task-x17x",NA,30599620,9084322,NA,"complete",NA,NA,"computer","Desktop or Laptop","Windows 10","Chrome 114.0.0.0","1370x703","1366x699",NA,NA,NA,"JV Task P1",8,"Anxious",NA,"In",NA,NA,"IJHKGAFBECD",NA,NA,"B (MDot First)",1,231,"SS1","SS1",17,"J","Judginess","w2ir4b",1,"response","33",1564,4824,4839,1564,4824,4839,1,1564,3275,0,NA,"Slider","J",3,"object-18","J","CFD-WM-015-002-N.jpg",NA,"SUPTM96648"
"142",1689004668559,"10/07/2023 15:57:48",1688990268559,-4,"10/07/2023 07:57:48",137495,33,"task-x17x",NA,30599620,9084322,NA,"complete",NA,NA,"computer","Desktop or Laptop","Windows 10","Chrome 114.0.0.0","1370x703","1366x699",NA,NA,NA,"JV Task P1",8,"Anxious",NA,"In",NA,NA,"IJHKGAFBECD",NA,NA,"B (MDot First)",1,231,"SS1","SS1",17,"J","Fixation","mtm832",2,"continue","",965,965,965,965,965,965,1,965,0,0,NA,"Fixation Timing","Fixation",1,"object-65","J","CFD-WM-015-002-N.jpg",NA,"SUPTM96648"
"143",1689004672063,"10/07/2023 15:57:52",1688990272063,-4,"10/07/2023 07:57:52",137495,33,"task-x17x",NA,30599620,9084322,NA,"complete",NA,NA,"computer","Desktop or Laptop","Windows 10","Chrome 114.0.0.0","1370x703","1366x699",NA,NA,NA,"JV Task P1",8,"Anxious",NA,"In",NA,NA,"IJHKGAFBECD",NA,NA,"B (MDot First)",1,231,"SS1","SS1",18,"J","Judginess","w2ir4b",1,"continue","",3504,3493,3504,3504,3493,3504,1,3504,0,0,NA,"Click To Continue","Continue Button",1,"object-14","J","CFD-MF-315-002-H.jpeg",NA,"SUPTM96648"
"144",1689004672064,"10/07/2023 15:57:52",1688990272064,-4,"10/07/2023 07:57:52",137495,33,"task-x17x",NA,30599620,9084322,NA,"complete",NA,NA,"computer","Desktop or Laptop","Windows 10","Chrome 114.0.0.0","1370x703","1366x699",NA,NA,NA,"JV Task P1",8,"Anxious",NA,"In",NA,NA,"IJHKGAFBECD",NA,NA,"B (MDot First)",1,231,"SS1","SS1",18,"J","Judginess","w2ir4b",1,"response","67",2528,3493,3505,2528,3493,3505,1,2528,977,0,NA,"Slider","J",3,"object-18","J","CFD-MF-315-002-H.jpeg",NA,"SUPTM96648"
"145",1689004673017,"10/07/2023 15:57:53",1688990273017,-4,"10/07/2023 07:57:53",137495,33,"task-x17x",NA,30599620,9084322,NA,"complete",NA,NA,"computer","Desktop or Laptop","Windows 10","Chrome 114.0.0.0","1370x703","1366x699",NA,NA,NA,"JV Task P1",8,"Anxious",NA,"In",NA,NA,"IJHKGAFBECD",NA,NA,"B (MDot First)",1,231,"SS1","SS1",18,"J","Fixation","mtm832",2,"continue","",965,965,965,965,965,965,1,965,0,0,NA,"Fixation Timing","Fixation",1,"object-65","J","CFD-MF-315-002-H.jpeg",NA,"SUPTM96648"
"146",1689004676516,"10/07/2023 15:57:56",1688990276516,-4,"10/07/2023 07:57:56",137495,33,"task-x17x",NA,30599620,9084322,NA,"complete",NA,NA,"computer","Desktop or Laptop","Windows 10","Chrome 114.0.0.0","1370x703","1366x699",NA,NA,NA,"JV Task P1",8,"Anxious",NA,"In",NA,NA,"IJHKGAFBECD",NA,NA,"B (MDot First)",1,231,"SS1","SS1",31,"V","Valence","sn1sjn",1,"continue","",3499,3493,3499,3499,3493,3499,1,3499,0,0,NA,"Click To Continue","Continue Button",1,"object-25","V","CFD-WF-036-023-S.jpeg",NA,"SUPTM96648"
"147",1689004676517,"10/07/2023 15:57:56",1688990276517,-4,"10/07/2023 07:57:56",137495,33,"task-x17x",NA,30599620,9084322,NA,"complete",NA,NA,"computer","Desktop or Laptop","Windows 10","Chrome 114.0.0.0","1370x703","1366x699",NA,NA,NA,"JV Task P1",8,"Anxious",NA,"In",NA,NA,"IJHKGAFBECD",NA,NA,"B (MDot First)",1,231,"SS1","SS1",31,"V","Valence","sn1sjn",1,"response","32",1414,3493,3500,1414,3493,3500,1,1414,2086,0,NA,"Slider","J",3,"object-27","V","CFD-WF-036-023-S.jpeg",NA,"SUPTM96648"
"148",1689004677475,"10/07/2023 15:57:57",1688990277475,-4,"10/07/2023 07:57:57",137495,33,"task-x17x",NA,30599620,9084322,NA,"complete",NA,NA,"computer","Desktop or Laptop","Windows 10","Chrome 114.0.0.0","1370x703","1366x699",NA,NA,NA,"JV Task P1",8,"Anxious",NA,"In",NA,NA,"IJHKGAFBECD",NA,NA,"B (MDot First)",1,231,"SS1","SS1",31,"V","Fixation","aydkg3",2,"continue","",965,965,965,965,965,965,1,965,0,0,NA,"Fixation Timing","Fixation",1,"object-21","V","CFD-WF-036-023-S.jpeg",NA,"SUPTM96648"
"149",1689004680886,"10/07/2023 15:58:00",1688990280886,-4,"10/07/2023 07:58:00",137495,33,"task-x17x",NA,30599620,9084322,NA,"complete",NA,NA,"computer","Desktop or Laptop","Windows 10","Chrome 114.0.0.0","1370x703","1366x699",NA,NA,NA,"JV Task P1",8,"Anxious",NA,"In",NA,NA,"IJHKGAFBECD",NA,NA,"B (MDot First)",1,231,"SS1","SS1",32,"V","Valence","sn1sjn",1,"continue","",3409,3393,3409,3409,3393,3409,1,3409,0,0,NA,"Click To Continue","Continue Button",1,"object-25","V","CFD-BF-030-002-N.jpg",NA,"SUPTM96648"
"150",1689004680895,"10/07/2023 15:58:00",1688990280895,-4,"10/07/2023 07:58:00",137495,33,"task-x17x",NA,30599620,9084322,NA,"complete",NA,NA,"computer","Desktop or Laptop","Windows 10","Chrome 114.0.0.0","1370x703","1366x699",NA,NA,NA,"JV Task P1",8,"Anxious",NA,"In",NA,NA,"IJHKGAFBECD",NA,NA,"B (MDot First)",1,231,"SS1","SS1",32,"V","Valence","sn1sjn",1,"response","60",1747,3393,3409,1747,3393,3409,1,1747,1662,0,NA,"Slider","J",3,"object-27","V","CFD-BF-030-002-N.jpg",NA,"SUPTM96648"
"151",1689004681833,"10/07/2023 15:58:01",1688990281833,-4,"10/07/2023 07:58:01",137495,33,"task-x17x",NA,30599620,9084322,NA,"complete",NA,NA,"computer","Desktop or Laptop","Windows 10","Chrome 114.0.0.0","1370x703","1366x699",NA,NA,NA,"JV Task P1",8,"Anxious",NA,"In",NA,NA,"IJHKGAFBECD",NA,NA,"B (MDot First)",1,231,"SS1","SS1",32,"V","Fixation","aydkg3",2,"continue","",965,965,965,965,965,965,1,965,0,0,NA,"Fixation Timing","Fixation",1,"object-21","V","CFD-BF-030-002-N.jpg",NA,"SUPTM96648"
"152",1689004690472,"10/07/2023 15:58:10",1688990290472,-4,"10/07/2023 07:58:10",137495,33,"task-x17x",NA,30599620,9084322,NA,"complete",NA,NA,"computer","Desktop or Laptop","Windows 10","Chrome 114.0.0.0","1370x703","1366x699",NA,NA,NA,"JV Task P1",8,"Anxious",NA,"In",NA,NA,"IJHKGAFBECD",NA,NA,"B (MDot First)",1,231,"SS1","SS1",33,"V","Valence","sn1sjn",1,"continue","",8640,8633,8640,8640,8633,8640,1,8640,0,0,NA,"Click To Continue","Continue Button",1,"object-25","V","CFD-WM-034-030-H.jpeg",NA,"SUPTM96648"
"153",1689004690473,"10/07/2023 15:58:10",1688990290473,-4,"10/07/2023 07:58:10",137495,33,"task-x17x",NA,30599620,9084322,NA,"complete",NA,NA,"computer","Desktop or Laptop","Windows 10","Chrome 114.0.0.0","1370x703","1366x699",NA,NA,NA,"JV Task P1",8,"Anxious",NA,"In",NA,NA,"IJHKGAFBECD",NA,NA,"B (MDot First)",1,231,"SS1","SS1",33,"V","Valence","sn1sjn",1,"response","66",2345,8633,8641,2345,8633,8641,1,2345,6296,0,NA,"Slider","J",3,"object-27","V","CFD-WM-034-030-H.jpeg",NA,"SUPTM96648"
"154",1689004691431,"10/07/2023 15:58:11",1688990291431,-4,"10/07/2023 07:58:11",137495,33,"task-x17x",NA,30599620,9084322,NA,"complete",NA,NA,"computer","Desktop or Laptop","Windows 10","Chrome 114.0.0.0","1370x703","1366x699",NA,NA,NA,"JV Task P1",8,"Anxious",NA,"In",NA,NA,"IJHKGAFBECD",NA,NA,"B (MDot First)",1,231,"SS1","SS1",33,"V","Fixation","aydkg3",2,"continue","",965,965,965,965,965,965,1,965,0,0,NA,"Fixation Timing","Fixation",1,"object-21","V","CFD-WM-034-030-H.jpeg",NA,"SUPTM96648"
"155",1689004704242,"10/07/2023 15:58:24",1688990304242,-4,"10/07/2023 07:58:24",137495,33,"task-x17x",NA,30599620,9084322,NA,"complete",NA,NA,"computer","Desktop or Laptop","Windows 10","Chrome 114.0.0.0","1370x703","1366x699",NA,NA,NA,"JV Task P1",8,"Anxious",NA,"In",NA,NA,"IJHKGAFBECD",NA,NA,"B (MDot First)",1,231,"SS1","SS1",19,"J","Judginess","w2ir4b",1,"continue","",12808,12792,12808,12808,12792,12808,1,12808,0,0,NA,"Click To Continue","Continue Button",1,"object-14","J","CFD-MF-315-002-S.jpeg",NA,"SUPTM96648"
"156",1689004704245,"10/07/2023 15:58:24",1688990304245,-4,"10/07/2023 07:58:24",137495,33,"task-x17x",NA,30599620,9084322,NA,"complete",NA,NA,"computer","Desktop or Laptop","Windows 10","Chrome 114.0.0.0","1370x703","1366x699",NA,NA,NA,"JV Task P1",8,"Anxious",NA,"In",NA,NA,"IJHKGAFBECD",NA,NA,"B (MDot First)",1,231,"SS1","SS1",19,"J","Judginess","w2ir4b",1,"response","35",8085,12792,12808,8085,12792,12808,1,8085,4723,0,NA,"Slider","J",3,"object-18","J","CFD-MF-315-002-S.jpeg",NA,"SUPTM96648"
"157",1689004705188,"10/07/2023 15:58:25",1688990305188,-4,"10/07/2023 07:58:25",137495,33,"task-x17x",NA,30599620,9084322,NA,"complete",NA,NA,"computer","Desktop or Laptop","Windows 10","Chrome 114.0.0.0","1370x703","1366x699",NA,NA,NA,"JV Task P1",8,"Anxious",NA,"In",NA,NA,"IJHKGAFBECD",NA,NA,"B (MDot First)",1,231,"SS1","SS1",19,"J","Fixation","mtm832",2,"continue","",965,965,965,965,965,965,1,965,0,0,NA,"Fixation Timing","Fixation",1,"object-65","J","CFD-MF-315-002-S.jpeg",NA,"SUPTM96648"
"158",1689004712746,"10/07/2023 15:58:32",1688990312746,-4,"10/07/2023 07:58:32",137495,33,"task-x17x",NA,30599620,9084322,NA,"complete",NA,NA,"computer","Desktop or Laptop","Windows 10","Chrome 114.0.0.0","1370x703","1366x699",NA,NA,NA,"JV Task P1",8,"Anxious",NA,"In",NA,NA,"IJHKGAFBECD",NA,NA,"B (MDot First)",1,231,"SS1","SS1",20,"J","Judginess","w2ir4b",1,"continue","",7558,7553,7558,7558,7553,7558,1,7558,0,0,NA,"Click To Continue","Continue Button",1,"object-14","J","CFD-BF-008-001-N.jpg",NA,"SUPTM96648"
"159",1689004712747,"10/07/2023 15:58:32",1688990312747,-4,"10/07/2023 07:58:32",137495,33,"task-x17x",NA,30599620,9084322,NA,"complete",NA,NA,"computer","Desktop or Laptop","Windows 10","Chrome 114.0.0.0","1370x703","1366x699",NA,NA,NA,"JV Task P1",8,"Anxious",NA,"In",NA,NA,"IJHKGAFBECD",NA,NA,"B (MDot First)",1,231,"SS1","SS1",20,"J","Judginess","w2ir4b",1,"response","57",5007,7553,7559,5007,7553,7559,1,5007,2552,0,NA,"Slider","J",3,"object-18","J","CFD-BF-008-001-N.jpg",NA,"SUPTM96648"
"160",1689004713705,"10/07/2023 15:58:33",1688990313705,-4,"10/07/2023 07:58:33",137495,33,"task-x17x",NA,30599620,9084322,NA,"complete",NA,NA,"computer","Desktop or Laptop","Windows 10","Chrome 114.0.0.0","1370x703","1366x699",NA,NA,NA,"JV Task P1",8,"Anxious",NA,"In",NA,NA,"IJHKGAFBECD",NA,NA,"B (MDot First)",1,231,"SS1","SS1",20,"J","Fixation","mtm832",2,"continue","",964,964,964,964,964,964,1,964,0,0,NA,"Fixation Timing","Fixation",1,"object-65","J","CFD-BF-008-001-N.jpg",NA,"SUPTM96648"
"161",1689004716503,"10/07/2023 15:58:36",1688990316503,-4,"10/07/2023 07:58:36",137495,33,"task-x17x",NA,30599620,9084322,NA,"complete",NA,NA,"computer","Desktop or Laptop","Windows 10","Chrome 114.0.0.0","1370x703","1366x699",NA,NA,NA,"JV Task P1",8,"Anxious",NA,"In",NA,NA,"IJHKGAFBECD",NA,NA,"B (MDot First)",1,231,"SS1","SS1",34,"V","Valence","sn1sjn",1,"continue","",2798,2795,2798,2798,2795,2798,1,2798,0,0,NA,"Click To Continue","Continue Button",1,"object-25","V","CFD-AM-225-102-H.jpeg",NA,"SUPTM96648"
"162",1689004716509,"10/07/2023 15:58:36",1688990316509,-4,"10/07/2023 07:58:36",137495,33,"task-x17x",NA,30599620,9084322,NA,"complete",NA,NA,"computer","Desktop or Laptop","Windows 10","Chrome 114.0.0.0","1370x703","1366x699",NA,NA,NA,"JV Task P1",8,"Anxious",NA,"In",NA,NA,"IJHKGAFBECD",NA,NA,"B (MDot First)",1,231,"SS1","SS1",34,"V","Valence","sn1sjn",1,"response","62",1946,2795,2804,1946,2795,2804,1,1946,858,0,NA,"Slider","J",3,"object-27","V","CFD-AM-225-102-H.jpeg",NA,"SUPTM96648"
"163",1689004717464,"10/07/2023 15:58:37",1688990317464,-4,"10/07/2023 07:58:37",137495,33,"task-x17x",NA,30599620,9084322,NA,"complete",NA,NA,"computer","Desktop or Laptop","Windows 10","Chrome 114.0.0.0","1370x703","1366x699",NA,NA,NA,"JV Task P1",8,"Anxious",NA,"In",NA,NA,"IJHKGAFBECD",NA,NA,"B (MDot First)",1,231,"SS1","SS1",34,"V","Fixation","aydkg3",2,"continue","",964,964,964,964,964,964,1,964,0,0,NA,"Fixation Timing","Fixation",1,"object-21","V","CFD-AM-225-102-H.jpeg",NA,"SUPTM96648"
"164",1689004721362,"10/07/2023 15:58:41",1688990321362,-4,"10/07/2023 07:58:41",137495,33,"task-x17x",NA,30599620,9084322,NA,"complete",NA,NA,"computer","Desktop or Laptop","Windows 10","Chrome 114.0.0.0","1370x703","1366x699",NA,NA,NA,"JV Task P1",8,"Anxious",NA,"In",NA,NA,"IJHKGAFBECD",NA,NA,"B (MDot First)",1,231,"SS1","SS1",21,"J","Judginess","w2ir4b",1,"continue","",3898,3893,3898,3898,3893,3898,1,3898,0,0,NA,"Click To Continue","Continue Button",1,"object-14","J","CFD-BM-028-002-N.jpg",NA,"SUPTM96648"
"165",1689004721363,"10/07/2023 15:58:41",1688990321363,-4,"10/07/2023 07:58:41",137495,33,"task-x17x",NA,30599620,9084322,NA,"complete",NA,NA,"computer","Desktop or Laptop","Windows 10","Chrome 114.0.0.0","1370x703","1366x699",NA,NA,NA,"JV Task P1",8,"Anxious",NA,"In",NA,NA,"IJHKGAFBECD",NA,NA,"B (MDot First)",1,231,"SS1","SS1",21,"J","Judginess","w2ir4b",1,"response","62",1680,3893,3898,1680,3893,3898,1,1680,2218,0,NA,"Slider","J",3,"object-18","J","CFD-BM-028-002-N.jpg",NA,"SUPTM96648"
"166",1689004722322,"10/07/2023 15:58:42",1688990322322,-4,"10/07/2023 07:58:42",137495,33,"task-x17x",NA,30599620,9084322,NA,"complete",NA,NA,"computer","Desktop or Laptop","Windows 10","Chrome 114.0.0.0","1370x703","1366x699",NA,NA,NA,"JV Task P1",8,"Anxious",NA,"In",NA,NA,"IJHKGAFBECD",NA,NA,"B (MDot First)",1,231,"SS1","SS1",21,"J","Fixation","mtm832",2,"continue","",965,965,965,965,965,965,1,965,0,0,NA,"Fixation Timing","Fixation",1,"object-65","J","CFD-BM-028-002-N.jpg",NA,"SUPTM96648"
"167",1689004728612,"10/07/2023 15:58:48",1688990328612,-4,"10/07/2023 07:58:48",137495,33,"task-x17x",NA,30599620,9084322,NA,"complete",NA,NA,"computer","Desktop or Laptop","Windows 10","Chrome 114.0.0.0","1370x703","1366x699",NA,NA,NA,"JV Task P1",8,"Anxious",NA,"In",NA,NA,"IJHKGAFBECD",NA,NA,"B (MDot First)",1,231,"SS1","SS1",35,"V","Valence","sn1sjn",1,"continue","",6288,6271,6288,6288,6271,6288,1,6288,0,0,NA,"Click To Continue","Continue Button",1,"object-25","V","CFD-WM-034-030-N.jpg",NA,"SUPTM96648"
"168",1689004728618,"10/07/2023 15:58:48",1688990328618,-4,"10/07/2023 07:58:48",137495,33,"task-x17x",NA,30599620,9084322,NA,"complete",NA,NA,"computer","Desktop or Laptop","Windows 10","Chrome 114.0.0.0","1370x703","1366x699",NA,NA,NA,"JV Task P1",8,"Anxious",NA,"In",NA,NA,"IJHKGAFBECD",NA,NA,"B (MDot First)",1,231,"SS1","SS1",35,"V","Valence","sn1sjn",1,"response","52",1630,6271,6288,1630,6271,6288,1,1630,4658,0,NA,"Slider","J",3,"object-27","V","CFD-WM-034-030-N.jpg",NA,"SUPTM96648"
"169",1689004729557,"10/07/2023 15:58:49",1688990329557,-4,"10/07/2023 07:58:49",137495,33,"task-x17x",NA,30599620,9084322,NA,"complete",NA,NA,"computer","Desktop or Laptop","Windows 10","Chrome 114.0.0.0","1370x703","1366x699",NA,NA,NA,"JV Task P1",8,"Anxious",NA,"In",NA,NA,"IJHKGAFBECD",NA,NA,"B (MDot First)",1,231,"SS1","SS1",35,"V","Fixation","aydkg3",2,"continue","",965,965,965,965,965,965,1,965,0,0,NA,"Fixation Timing","Fixation",1,"object-21","V","CFD-WM-034-030-N.jpg",NA,"SUPTM96648"
"170",1689004734070,"10/07/2023 15:58:54",1688990334070,-4,"10/07/2023 07:58:54",137495,33,"task-x17x",NA,30599620,9084322,NA,"complete",NA,NA,"computer","Desktop or Laptop","Windows 10","Chrome 114.0.0.0","1370x703","1366x699",NA,NA,NA,"JV Task P1",8,"Anxious",NA,"In",NA,NA,"IJHKGAFBECD",NA,NA,"B (MDot First)",1,231,"SS1","SS1",36,"V","Valence","sn1sjn",1,"continue","",4512,4508,4512,4512,4508,4512,1,4512,0,0,NA,"Click To Continue","Continue Button",1,"object-25","V","CFD-WF-036-023-N.jpg",NA,"SUPTM96648"
"171",1689004734071,"10/07/2023 15:58:54",1688990334071,-4,"10/07/2023 07:58:54",137495,33,"task-x17x",NA,30599620,9084322,NA,"complete",NA,NA,"computer","Desktop or Laptop","Windows 10","Chrome 114.0.0.0","1370x703","1366x699",NA,NA,NA,"JV Task P1",8,"Anxious",NA,"In",NA,NA,"IJHKGAFBECD",NA,NA,"B (MDot First)",1,231,"SS1","SS1",36,"V","Valence","sn1sjn",1,"response","52",1796,4508,4513,1796,4508,4513,1,1796,2717,0,NA,"Slider","J",3,"object-27","V","CFD-WF-036-023-N.jpg",NA,"SUPTM96648"
"172",1689004735030,"10/07/2023 15:58:55",1688990335030,-4,"10/07/2023 07:58:55",137495,33,"task-x17x",NA,30599620,9084322,NA,"complete",NA,NA,"computer","Desktop or Laptop","Windows 10","Chrome 114.0.0.0","1370x703","1366x699",NA,NA,NA,"JV Task P1",8,"Anxious",NA,"In",NA,NA,"IJHKGAFBECD",NA,NA,"B (MDot First)",1,231,"SS1","SS1",36,"V","Fixation","aydkg3",2,"continue","",964,964,964,964,964,964,1,964,0,0,NA,"Fixation Timing","Fixation",1,"object-21","V","CFD-WF-036-023-N.jpg",NA,"SUPTM96648"
"173",1689004737259,"10/07/2023 15:58:57",1688990337259,-4,"10/07/2023 07:58:57",137495,33,"task-x17x",NA,30599620,9084322,NA,"complete",NA,NA,"computer","Desktop or Laptop","Windows 10","Chrome 114.0.0.0","1370x703","1366x699",NA,NA,NA,"JV Task P1",8,"Anxious",NA,"In",NA,NA,"IJHKGAFBECD",NA,NA,"B (MDot First)",1,231,"SS1","SS1",22,"J","Judginess","w2ir4b",1,"continue","",2230,2213,2230,2230,2213,2230,1,2230,0,0,NA,"Click To Continue","Continue Button",1,"object-14","J","CFD-IF-693-172-S.jpeg",NA,"SUPTM96648"
"174",1689004737260,"10/07/2023 15:58:57",1688990337260,-4,"10/07/2023 07:58:57",137495,33,"task-x17x",NA,30599620,9084322,NA,"complete",NA,NA,"computer","Desktop or Laptop","Windows 10","Chrome 114.0.0.0","1370x703","1366x699",NA,NA,NA,"JV Task P1",8,"Anxious",NA,"In",NA,NA,"IJHKGAFBECD",NA,NA,"B (MDot First)",1,231,"SS1","SS1",22,"J","Judginess","w2ir4b",1,"response","39",1231,2213,2230,1231,2213,2230,1,1231,999,0,NA,"Slider","J",3,"object-18","J","CFD-IF-693-172-S.jpeg",NA,"SUPTM96648"
"175",1689004738207,"10/07/2023 15:58:58",1688990338207,-4,"10/07/2023 07:58:58",137495,33,"task-x17x",NA,30599620,9084322,NA,"complete",NA,NA,"computer","Desktop or Laptop","Windows 10","Chrome 114.0.0.0","1370x703","1366x699",NA,NA,NA,"JV Task P1",8,"Anxious",NA,"In",NA,NA,"IJHKGAFBECD",NA,NA,"B (MDot First)",1,231,"SS1","SS1",22,"J","Fixation","mtm832",2,"continue","",964,964,964,964,964,964,1,964,0,0,NA,"Fixation Timing","Fixation",1,"object-65","J","CFD-IF-693-172-S.jpeg",NA,"SUPTM96648"
"176",1689004741391,"10/07/2023 15:59:01",1688990341391,-4,"10/07/2023 07:59:01",137495,33,"task-x17x",NA,30599620,9084322,NA,"complete",NA,NA,"computer","Desktop or Laptop","Windows 10","Chrome 114.0.0.0","1370x703","1366x699",NA,NA,NA,"JV Task P1",8,"Anxious",NA,"In",NA,NA,"IJHKGAFBECD",NA,NA,"B (MDot First)",1,231,"SS1","SS1",23,"J","Judginess","w2ir4b",1,"continue","",2868,2861,2868,2868,2861,2868,1,2868,0,0,NA,"Click To Continue","Continue Button",1,"object-14","J","CFD-IF-693-172-N.jpg",NA,"SUPTM96648"
"177",1689004741398,"10/07/2023 15:59:01",1688990341398,-4,"10/07/2023 07:59:01",137495,33,"task-x17x",NA,30599620,9084322,NA,"complete",NA,NA,"computer","Desktop or Laptop","Windows 10","Chrome 114.0.0.0","1370x703","1366x699",NA,NA,NA,"JV Task P1",8,"Anxious",NA,"In",NA,NA,"IJHKGAFBECD",NA,NA,"B (MDot First)",1,231,"SS1","SS1",23,"J","Judginess","w2ir4b",1,"response","39",1480,2861,2875,1480,2861,2875,1,1480,1395,0,NA,"Slider","J",3,"object-18","J","CFD-IF-693-172-N.jpg",NA,"SUPTM96648"
"178",1689004742349,"10/07/2023 15:59:02",1688990342349,-4,"10/07/2023 07:59:02",137495,33,"task-x17x",NA,30599620,9084322,NA,"complete",NA,NA,"computer","Desktop or Laptop","Windows 10","Chrome 114.0.0.0","1370x703","1366x699",NA,NA,NA,"JV Task P1",8,"Anxious",NA,"In",NA,NA,"IJHKGAFBECD",NA,NA,"B (MDot First)",1,231,"SS1","SS1",23,"J","Fixation","mtm832",2,"continue","",965,965,965,965,965,965,1,965,0,0,NA,"Fixation Timing","Fixation",1,"object-65","J","CFD-IF-693-172-N.jpg",NA,"SUPTM96648"
"179",1689004745864,"10/07/2023 15:59:05",1688990345864,-4,"10/07/2023 07:59:05",137495,33,"task-x17x",NA,30599620,9084322,NA,"complete",NA,NA,"computer","Desktop or Laptop","Windows 10","Chrome 114.0.0.0","1370x703","1366x699",NA,NA,NA,"JV Task P1",8,"Anxious",NA,"In",NA,NA,"IJHKGAFBECD",NA,NA,"B (MDot First)",1,231,"SS1","SS1",37,"V","Valence","sn1sjn",1,"continue","",2767,2762,2767,2767,2762,2767,1,2767,0,0,NA,"Click To Continue","Continue Button",1,"object-25","V","CFD-AM-220-134-N.jpg",NA,"SUPTM96648"
"180",1689004745865,"10/07/2023 15:59:05",1688990345865,-4,"10/07/2023 07:59:05",137495,33,"task-x17x",NA,30599620,9084322,NA,"complete",NA,NA,"computer","Desktop or Laptop","Windows 10","Chrome 114.0.0.0","1370x703","1366x699",NA,NA,NA,"JV Task P1",8,"Anxious",NA,"In",NA,NA,"IJHKGAFBECD",NA,NA,"B (MDot First)",1,231,"SS1","SS1",37,"V","Valence","sn1sjn",1,"response","54",1647,2762,2767,1647,2762,2767,1,1647,1120,0,NA,"Slider","J",3,"object-27","V","CFD-AM-220-134-N.jpg",NA,"SUPTM96648"
"181",1689004746824,"10/07/2023 15:59:06",1688990346824,-4,"10/07/2023 07:59:06",137495,33,"task-x17x",NA,30599620,9084322,NA,"complete",NA,NA,"computer","Desktop or Laptop","Windows 10","Chrome 114.0.0.0","1370x703","1366x699",NA,NA,NA,"JV Task P1",8,"Anxious",NA,"In",NA,NA,"IJHKGAFBECD",NA,NA,"B (MDot First)",1,231,"SS1","SS1",37,"V","Fixation","aydkg3",2,"continue","",964,964,964,964,964,964,1,964,0,0,NA,"Fixation Timing","Fixation",1,"object-21","V","CFD-AM-220-134-N.jpg",NA,"SUPTM96648"
"182",1689004768268,"10/07/2023 15:59:28",1688990368268,-4,"10/07/2023 07:59:28",137495,33,"task-x17x",NA,30599620,9084322,NA,"complete",NA,NA,"computer","Desktop or Laptop","Windows 10","Chrome 114.0.0.0","1370x703","1366x699",NA,NA,NA,"JV Task P1",8,"Anxious",NA,"In",NA,NA,"IJHKGAFBECD",NA,NA,"B (MDot First)",1,231,"SS1","SS1",38,"V","Valence","sn1sjn",1,"continue","",4557,4541,4557,4557,4541,4557,1,4557,0,0,NA,"Click To Continue","Continue Button",1,"object-25","V","CFD-WF-037-029-N.jpg",NA,"SUPTM96648"
"183",1689004768275,"10/07/2023 15:59:28",1688990368275,-4,"10/07/2023 07:59:28",137495,33,"task-x17x",NA,30599620,9084322,NA,"complete",NA,NA,"computer","Desktop or Laptop","Windows 10","Chrome 114.0.0.0","1370x703","1366x699",NA,NA,NA,"JV Task P1",8,"Anxious",NA,"In",NA,NA,"IJHKGAFBECD",NA,NA,"B (MDot First)",1,231,"SS1","SS1",38,"V","Valence","sn1sjn",1,"response","43",3044,4541,4557,3044,4541,4557,1,3044,1513,0,NA,"Slider","J",3,"object-27","V","CFD-WF-037-029-N.jpg",NA,"SUPTM96648"
"184",1689004769214,"10/07/2023 15:59:29",1688990369214,-4,"10/07/2023 07:59:29",137495,33,"task-x17x",NA,30599620,9084322,NA,"complete",NA,NA,"computer","Desktop or Laptop","Windows 10","Chrome 114.0.0.0","1370x703","1366x699",NA,NA,NA,"JV Task P1",8,"Anxious",NA,"In",NA,NA,"IJHKGAFBECD",NA,NA,"B (MDot First)",1,231,"SS1","SS1",38,"V","Fixation","aydkg3",2,"continue","",965,965,965,965,965,965,1,965,0,0,NA,"Fixation Timing","Fixation",1,"object-21","V","CFD-WF-037-029-N.jpg",NA,"SUPTM96648"
"185",1689004778189,"10/07/2023 15:59:38",1688990378189,-4,"10/07/2023 07:59:38",137495,33,"task-x17x",NA,30599620,9084322,NA,"complete",NA,NA,"computer","Desktop or Laptop","Windows 10","Chrome 114.0.0.0","1370x703","1366x699",NA,NA,NA,"JV Task P1",8,"Anxious",NA,"In",NA,NA,"IJHKGAFBECD",NA,NA,"B (MDot First)",1,231,"SS1","SS1",39,"V","Valence","sn1sjn",1,"continue","",8976,8966,8976,8976,8966,8976,1,8976,0,0,NA,"Click To Continue","Continue Button",1,"object-25","V","CFD-WF-009-001-S.jpeg",NA,"SUPTM96648"
"186",1689004778190,"10/07/2023 15:59:38",1688990378190,-4,"10/07/2023 07:59:38",137495,33,"task-x17x",NA,30599620,9084322,NA,"complete",NA,NA,"computer","Desktop or Laptop","Windows 10","Chrome 114.0.0.0","1370x703","1366x699",NA,NA,NA,"JV Task P1",8,"Anxious",NA,"In",NA,NA,"IJHKGAFBECD",NA,NA,"B (MDot First)",1,231,"SS1","SS1",39,"V","Valence","sn1sjn",1,"response","39",2329,8966,8976,2329,8966,8976,1,2329,6647,0,NA,"Slider","J",3,"object-27","V","CFD-WF-009-001-S.jpeg",NA,"SUPTM96648"
"187",1689004779145,"10/07/2023 15:59:39",1688990379145,-4,"10/07/2023 07:59:39",137495,33,"task-x17x",NA,30599620,9084322,NA,"complete",NA,NA,"computer","Desktop or Laptop","Windows 10","Chrome 114.0.0.0","1370x703","1366x699",NA,NA,NA,"JV Task P1",8,"Anxious",NA,"In",NA,NA,"IJHKGAFBECD",NA,NA,"B (MDot First)",1,231,"SS1","SS1",39,"V","Fixation","aydkg3",2,"continue","",965,965,965,965,965,965,1,965,0,0,NA,"Fixation Timing","Fixation",1,"object-21","V","CFD-WF-009-001-S.jpeg",NA,"SUPTM96648"
"188",1689004786308,"10/07/2023 15:59:46",1688990386308,-4,"10/07/2023 07:59:46",137495,33,"task-x17x",NA,30599620,9084322,NA,"complete",NA,NA,"computer","Desktop or Laptop","Windows 10","Chrome 114.0.0.0","1370x703","1366x699",NA,NA,NA,"JV Task P1",8,"Anxious",NA,"In",NA,NA,"IJHKGAFBECD",NA,NA,"B (MDot First)",1,231,"SS1","SS1",24,"J","Judginess","w2ir4b",1,"continue","",7163,7153,7163,7163,7153,7163,1,7163,0,0,NA,"Click To Continue","Continue Button",1,"object-14","J","CFD-WF-012-002-N.jpg",NA,"SUPTM96648"
"189",1689004786308,"10/07/2023 15:59:46",1688990386308,-4,"10/07/2023 07:59:46",137495,33,"task-x17x",NA,30599620,9084322,NA,"complete",NA,NA,"computer","Desktop or Laptop","Windows 10","Chrome 114.0.0.0","1370x703","1366x699",NA,NA,NA,"JV Task P1",8,"Anxious",NA,"In",NA,NA,"IJHKGAFBECD",NA,NA,"B (MDot First)",1,231,"SS1","SS1",24,"J","Judginess","w2ir4b",1,"response","44",3277,7153,7164,3277,7153,7164,1,3277,3887,0,NA,"Slider","J",3,"object-18","J","CFD-WF-012-002-N.jpg",NA,"SUPTM96648"
"190",1689004787263,"10/07/2023 15:59:47",1688990387263,-4,"10/07/2023 07:59:47",137495,33,"task-x17x",NA,30599620,9084322,NA,"complete",NA,NA,"computer","Desktop or Laptop","Windows 10","Chrome 114.0.0.0","1370x703","1366x699",NA,NA,NA,"JV Task P1",8,"Anxious",NA,"In",NA,NA,"IJHKGAFBECD",NA,NA,"B (MDot First)",1,231,"SS1","SS1",24,"J","Fixation","mtm832",2,"continue","",965,965,965,965,965,965,1,965,0,0,NA,"Fixation Timing","Fixation",1,"object-65","J","CFD-WF-012-002-N.jpg",NA,"SUPTM96648"
"191",1689004791909,"10/07/2023 15:59:51",1688990391909,-4,"10/07/2023 07:59:51",137495,33,"task-x17x",NA,30599620,9084322,NA,"complete",NA,NA,"computer","Desktop or Laptop","Windows 10","Chrome 114.0.0.0","1370x703","1366x699",NA,NA,NA,"JV Task P1",8,"Anxious",NA,"In",NA,NA,"IJHKGAFBECD",NA,NA,"B (MDot First)",1,231,"SS1","SS1",25,"J","Judginess","w2ir4b",1,"continue","",4646,4641,4646,4646,4641,4646,1,4646,0,0,NA,"Click To Continue","Continue Button",1,"object-14","J","CFD-AM-223-138-N.jpg",NA,"SUPTM96648"
"192",1689004791913,"10/07/2023 15:59:51",1688990391913,-4,"10/07/2023 07:59:51",137495,33,"task-x17x",NA,30599620,9084322,NA,"complete",NA,NA,"computer","Desktop or Laptop","Windows 10","Chrome 114.0.0.0","1370x703","1366x699",NA,NA,NA,"JV Task P1",8,"Anxious",NA,"In",NA,NA,"IJHKGAFBECD",NA,NA,"B (MDot First)",1,231,"SS1","SS1",25,"J","Judginess","w2ir4b",1,"response","41",2878,4641,4650,2878,4641,4650,1,2878,1772,0,NA,"Slider","J",3,"object-18","J","CFD-AM-223-138-N.jpg",NA,"SUPTM96648"
"193",1689004792871,"10/07/2023 15:59:52",1688990392871,-4,"10/07/2023 07:59:52",137495,33,"task-x17x",NA,30599620,9084322,NA,"complete",NA,NA,"computer","Desktop or Laptop","Windows 10","Chrome 114.0.0.0","1370x703","1366x699",NA,NA,NA,"JV Task P1",8,"Anxious",NA,"In",NA,NA,"IJHKGAFBECD",NA,NA,"B (MDot First)",1,231,"SS1","SS1",25,"J","Fixation","mtm832",2,"continue","",965,965,965,965,965,965,1,965,0,0,NA,"Fixation Timing","Fixation",1,"object-65","J","CFD-AM-223-138-N.jpg",NA,"SUPTM96648"
"194",1689004798012,"10/07/2023 15:59:58",1688990398012,-4,"10/07/2023 07:59:58",137495,33,"task-x17x",NA,30599620,9084322,NA,"complete",NA,NA,"computer","Desktop or Laptop","Windows 10","Chrome 114.0.0.0","1370x703","1366x699",NA,NA,NA,"JV Task P1",8,"Anxious",NA,"In",NA,NA,"IJHKGAFBECD",NA,NA,"B (MDot First)",1,231,"SS1","SS1",40,"V","Valence","sn1sjn",1,"continue","",5139,5123,5139,5139,5123,5139,1,5139,0,0,NA,"Click To Continue","Continue Button",1,"object-25","V","CFD-WF-006-002-S.jpeg",NA,"SUPTM96648"
"195",1689004798013,"10/07/2023 15:59:58",1688990398013,-4,"10/07/2023 07:59:58",137495,33,"task-x17x",NA,30599620,9084322,NA,"complete",NA,NA,"computer","Desktop or Laptop","Windows 10","Chrome 114.0.0.0","1370x703","1366x699",NA,NA,NA,"JV Task P1",8,"Anxious",NA,"In",NA,NA,"IJHKGAFBECD",NA,NA,"B (MDot First)",1,231,"SS1","SS1",40,"V","Valence","sn1sjn",1,"response","33",865,5123,5139,865,5123,5139,1,865,4274,0,NA,"Slider","J",3,"object-27","V","CFD-WF-006-002-S.jpeg",NA,"SUPTM96648"
"196",1689004798957,"10/07/2023 15:59:58",1688990398957,-4,"10/07/2023 07:59:58",137495,33,"task-x17x",NA,30599620,9084322,NA,"complete",NA,NA,"computer","Desktop or Laptop","Windows 10","Chrome 114.0.0.0","1370x703","1366x699",NA,NA,NA,"JV Task P1",8,"Anxious",NA,"In",NA,NA,"IJHKGAFBECD",NA,NA,"B (MDot First)",1,231,"SS1","SS1",40,"V","Fixation","aydkg3",2,"continue","",965,965,965,965,965,965,1,965,0,0,NA,"Fixation Timing","Fixation",1,"object-21","V","CFD-WF-006-002-S.jpeg",NA,"SUPTM96648"
"197",1689004803174,"10/07/2023 16:00:03",1688990403174,-4,"10/07/2023 08:00:03",137495,33,"task-x17x",NA,30599620,9084322,NA,"complete",NA,NA,"computer","Desktop or Laptop","Windows 10","Chrome 114.0.0.0","1370x703","1366x699",NA,NA,NA,"JV Task P1",8,"Anxious",NA,"In",NA,NA,"IJHKGAFBECD",NA,NA,"B (MDot First)",1,231,"SS1","SS1",41,"V","Valence","sn1sjn",1,"continue","",4216,4208,4216,4216,4208,4216,1,4216,0,0,NA,"Click To Continue","Continue Button",1,"object-25","V","CFD-WF-017-003-H.jpeg",NA,"SUPTM96648"
