"Event.Index","UTC.Timestamp","UTC.Date.and.Time","Local.Timestamp","Local.Timezone","Local.Date.and.Time","Experiment.ID","Experiment.Version","Tree.Node.Key","Repeat.Key","Schedule.ID","Participant.Private.ID","Participant.Starting.Group","Participant.Status","Participant.Completion.Code","Participant.External.Session.ID","Participant.Device.Type","Participant.Device","Participant.OS","Participant.Browser","Participant.Monitor.Size","Participant.Viewport.Size","Checkpoint","Room.ID","Room.Order","Task.Name","Task.Version","branch.ln1a","randomiser.vzsr","branch.hkzp","randomiser.ywar","randomiser.q6ah","order.ot79","randomiser.ahe2","randomiser.ckhi","randomiser.lqqr","randomiser.pobd","randomiser.8gdj","Spreadsheet","Current.Spreadsheet","Trial.Number","Display","Screen","Screen.ID","Screen.Counter","Response.Type","Response","Onset.Time","Clock.Time","Reaction.Time","Absolute.Onset.Time","Absolute.Clock.Time","Absolute.Reaction.Time","Correct","Response.Onset","Response.Duration","Proportion","Tag","Component.Name","Object.Name","Object.Number","Object.ID","Spreadsheet..display","Spreadsheet..stimulus","Manipulation..Spreadsheet","Random_ID"
"1",1689011637673,"10/07/2023 17:53:57",1689015237673,1,"10/07/2023 19:53:57",137495,33,"task-ycba",NA,30601547,9085742,NA,"complete",NA,NA,"computer","Desktop or Laptop","Windows 10","Chrome 114.0.0.0","1536x864","1536x714",NA,NA,NA,"JV Task P2",11,"Anxious",NA,"In",NA,NA,"EFDGCHBIAJK",NA,NA,"B (MDot First)",2,123,"SS1","SS1",NA,"","","",NA,"5","BEGIN",NA,NA,NA,NA,NA,NA,0,NA,NA,NA,NA,"","",NA,"","","",NA,"SUPTM31721"
"2",1689011642108,"10/07/2023 17:54:02",1689015242108,1,"10/07/2023 19:54:02",137495,33,"task-ycba",NA,30601547,9085742,NA,"complete",NA,NA,"computer","Desktop or Laptop","Windows 10","Chrome 114.0.0.0","1536x864","1536x714",NA,NA,NA,"JV Task P2",11,"Anxious",NA,"In",NA,NA,"EFDGCHBIAJK",NA,NA,"B (MDot First)",2,123,"SS1","SS1",1,"V","Valence","xyoebq",1,"continue","",2986,2984.731,2986,2986,2984.731,2986,1,2986,0,0,NA,"Click To Continue","Continue Button",1,"object-25","V","CFD-WF-027-003-N.jpg",NA,"SUPTM31721"
"3",1689011644152,"10/07/2023 17:54:04",1689015244152,1,"10/07/2023 19:54:04",137495,33,"task-ycba",NA,30601547,9085742,NA,"complete",NA,NA,"computer","Desktop or Laptop","Windows 10","Chrome 114.0.0.0","1536x864","1536x714",NA,NA,NA,"JV Task P2",11,"Anxious",NA,"In",NA,NA,"EFDGCHBIAJK",NA,NA,"B (MDot First)",2,123,"SS1","SS1",1,"V","Valence","xyoebq",1,"continue","",5032.39999997616,5029.652,5032.39999997616,5032.39999997616,5029.652,5032.39999997616,1,5032.39999997616,0,0,NA,"Click To Continue","Continue Button",1,"object-25","V","CFD-WF-027-003-N.jpg",NA,"SUPTM31721"
"4",1689011644153,"10/07/2023 17:54:04",1689015244153,1,"10/07/2023 19:54:04",137495,33,"task-ycba",NA,30601547,9085742,NA,"complete",NA,NA,"computer","Desktop or Laptop","Windows 10","Chrome 114.0.0.0","1536x864","1536x714",NA,NA,NA,"JV Task P2",11,"Anxious",NA,"In",NA,NA,"EFDGCHBIAJK",NA,NA,"B (MDot First)",2,123,"SS1","SS1",1,"V","Valence","xyoebq",1,"response","54",4094.77,5029.652,5033.60000002384,4094.77,5029.652,5033.60000002384,1,4094.77,938.830000023841,0,NA,"Slider","J",3,"object-27","V","CFD-WF-027-003-N.jpg",NA,"SUPTM31721"
"5",1689011645133,"10/07/2023 17:54:05",1689015245133,1,"10/07/2023 19:54:05",137495,33,"task-ycba",NA,30601547,9085742,NA,"complete",NA,NA,"computer","Desktop or Laptop","Windows 10","Chrome 114.0.0.0","1536x864","1536x714",NA,NA,NA,"JV Task P2",11,"Anxious",NA,"In",NA,NA,"EFDGCHBIAJK",NA,NA,"B (MDot First)",2,123,"SS1","SS1",1,"V","Fixation","68owkj",2,"continue","",981.723,981.723,981.723,981.723,981.723,981.723,1,981.723,0,0,NA,"Fixation Timing","Fixation",1,"object-21","V","CFD-WF-027-003-N.jpg",NA,"SUPTM31721"
"6",1689011649842,"10/07/2023 17:54:09",1689015249842,1,"10/07/2023 19:54:09",137495,33,"task-ycba",NA,30601547,9085742,NA,"complete",NA,NA,"computer","Desktop or Laptop","Windows 10","Chrome 114.0.0.0","1536x864","1536x714",NA,NA,NA,"JV Task P2",11,"Anxious",NA,"In",NA,NA,"EFDGCHBIAJK",NA,NA,"B (MDot First)",2,123,"SS1","SS1",1,"J","Judginess","y8ii7g",1,"continue","",4710.82500004768,4704.936,4710.82500004768,4710.82500004768,4704.936,4710.82500004768,1,4710.82500004768,0,0,NA,"Click To Continue","Continue Button",1,"object-14","J","CFD-WM-024-015-S.jpeg",NA,"SUPTM31721"
"7",1689011649844,"10/07/2023 17:54:09",1689015249844,1,"10/07/2023 19:54:09",137495,33,"task-ycba",NA,30601547,9085742,NA,"complete",NA,NA,"computer","Desktop or Laptop","Windows 10","Chrome 114.0.0.0","1536x864","1536x714",NA,NA,NA,"JV Task P2",11,"Anxious",NA,"In",NA,NA,"EFDGCHBIAJK",NA,NA,"B (MDot First)",2,123,"SS1","SS1",1,"J","Judginess","y8ii7g",1,"response","35",2257.027,4704.936,4711.909,2257.027,4704.936,4711.909,1,2257.027,2454.882,0,NA,"Slider","J",3,"object-18","J","CFD-WM-024-015-S.jpeg",NA,"SUPTM31721"
"8",1689011650822,"10/07/2023 17:54:10",1689015250822,1,"10/07/2023 19:54:10",137495,33,"task-ycba",NA,30601547,9085742,NA,"complete",NA,NA,"computer","Desktop or Laptop","Windows 10","Chrome 114.0.0.0","1536x864","1536x714",NA,NA,NA,"JV Task P2",11,"Anxious",NA,"In",NA,NA,"EFDGCHBIAJK",NA,NA,"B (MDot First)",2,123,"SS1","SS1",1,"J","Fixation","w9zir9",2,"continue","",986.193000000001,986.193000000001,986.193000000001,986.193000000001,986.193000000001,986.193000000001,1,986.193000000001,0,0,NA,"Fixation Timing","Fixation",1,"object-65","J","CFD-WM-024-015-S.jpeg",NA,"SUPTM31721"
"9",1689011654716,"10/07/2023 17:54:14",1689015254716,1,"10/07/2023 19:54:14",137495,33,"task-ycba",NA,30601547,9085742,NA,"complete",NA,NA,"computer","Desktop or Laptop","Windows 10","Chrome 114.0.0.0","1536x864","1536x714",NA,NA,NA,"JV Task P2",11,"Anxious",NA,"In",NA,NA,"EFDGCHBIAJK",NA,NA,"B (MDot First)",2,123,"SS1","SS1",2,"V","Valence","xyoebq",1,"continue","",3894.19600004768,3892.019,3894.19600004768,3894.19600004768,3892.019,3894.19600004768,1,3894.19600004768,0,0,NA,"Click To Continue","Continue Button",1,"object-25","V","CFD-WM-019-003-H.jpeg",NA,"SUPTM31721"
"10",1689011654716,"10/07/2023 17:54:14",1689015254716,1,"10/07/2023 19:54:14",137495,33,"task-ycba",NA,30601547,9085742,NA,"complete",NA,NA,"computer","Desktop or Laptop","Windows 10","Chrome 114.0.0.0","1536x864","1536x714",NA,NA,NA,"JV Task P2",11,"Anxious",NA,"In",NA,NA,"EFDGCHBIAJK",NA,NA,"B (MDot First)",2,123,"SS1","SS1",2,"V","Valence","xyoebq",1,"response","65",1464.434,3892.019,3894.39599997616,1464.434,3892.019,3894.39599997616,1,1464.434,2429.96199997616,0,NA,"Slider","J",3,"object-27","V","CFD-WM-019-003-H.jpeg",NA,"SUPTM31721"
"11",1689011655697,"10/07/2023 17:54:15",1689015255697,1,"10/07/2023 19:54:15",137495,33,"task-ycba",NA,30601547,9085742,NA,"complete",NA,NA,"computer","Desktop or Laptop","Windows 10","Chrome 114.0.0.0","1536x864","1536x714",NA,NA,NA,"JV Task P2",11,"Anxious",NA,"In",NA,NA,"EFDGCHBIAJK",NA,NA,"B (MDot First)",2,123,"SS1","SS1",2,"V","Fixation","68owkj",2,"continue","",982.623,982.623,982.623,982.623,982.623,982.623,1,982.623,0,0,NA,"Fixation Timing","Fixation",1,"object-21","V","CFD-WM-019-003-H.jpeg",NA,"SUPTM31721"
"12",1689011659382,"10/07/2023 17:54:19",1689015259382,1,"10/07/2023 19:54:19",137495,33,"task-ycba",NA,30601547,9085742,NA,"complete",NA,NA,"computer","Desktop or Laptop","Windows 10","Chrome 114.0.0.0","1536x864","1536x714",NA,NA,NA,"JV Task P2",11,"Anxious",NA,"In",NA,NA,"EFDGCHBIAJK",NA,NA,"B (MDot First)",2,123,"SS1","SS1",2,"J","Judginess","y8ii7g",1,"continue","",3684.95400002384,3683.896,3684.95400002384,3684.95400002384,3683.896,3684.95400002384,1,3684.95400002384,0,0,NA,"Click To Continue","Continue Button",1,"object-14","J","CFD-BM-036-003-N.jpg",NA,"SUPTM31721"
"13",1689011659382,"10/07/2023 17:54:19",1689015259382,1,"10/07/2023 19:54:19",137495,33,"task-ycba",NA,30601547,9085742,NA,"complete",NA,NA,"computer","Desktop or Laptop","Windows 10","Chrome 114.0.0.0","1536x864","1536x714",NA,NA,NA,"JV Task P2",11,"Anxious",NA,"In",NA,NA,"EFDGCHBIAJK",NA,NA,"B (MDot First)",2,123,"SS1","SS1",2,"J","Judginess","y8ii7g",1,"response","21",843.999,3683.896,3685.25399997616,843.999,3683.896,3685.25399997616,1,843.999,2841.25499997616,0,NA,"Slider","J",3,"object-18","J","CFD-BM-036-003-N.jpg",NA,"SUPTM31721"
"14",1689011660362,"10/07/2023 17:54:20",1689015260362,1,"10/07/2023 19:54:20",137495,33,"task-ycba",NA,30601547,9085742,NA,"complete",NA,NA,"computer","Desktop or Laptop","Windows 10","Chrome 114.0.0.0","1536x864","1536x714",NA,NA,NA,"JV Task P2",11,"Anxious",NA,"In",NA,NA,"EFDGCHBIAJK",NA,NA,"B (MDot First)",2,123,"SS1","SS1",2,"J","Fixation","w9zir9",2,"continue","",980.913,980.913,980.913,980.913,980.913,980.913,1,980.913,0,0,NA,"Fixation Timing","Fixation",1,"object-65","J","CFD-BM-036-003-N.jpg",NA,"SUPTM31721"
"15",1689011663861,"10/07/2023 17:54:23",1689015263861,1,"10/07/2023 19:54:23",137495,33,"task-ycba",NA,30601547,9085742,NA,"complete",NA,NA,"computer","Desktop or Laptop","Windows 10","Chrome 114.0.0.0","1536x864","1536x714",NA,NA,NA,"JV Task P2",11,"Anxious",NA,"In",NA,NA,"EFDGCHBIAJK",NA,NA,"B (MDot First)",2,123,"SS1","SS1",3,"J","Judginess","y8ii7g",1,"continue","",3500.045,3497.787,3500.045,3500.045,3497.787,3500.045,1,3500.045,0,0,NA,"Click To Continue","Continue Button",1,"object-14","J","CFD-WM-034-030-H.jpeg",NA,"SUPTM31721"
"16",1689011663862,"10/07/2023 17:54:23",1689015263862,1,"10/07/2023 19:54:23",137495,33,"task-ycba",NA,30601547,9085742,NA,"complete",NA,NA,"computer","Desktop or Laptop","Windows 10","Chrome 114.0.0.0","1536x864","1536x714",NA,NA,NA,"JV Task P2",11,"Anxious",NA,"In",NA,NA,"EFDGCHBIAJK",NA,NA,"B (MDot First)",2,123,"SS1","SS1",3,"J","Judginess","y8ii7g",1,"response","72",2019.619,3497.787,3500.14500002384,2019.619,3497.787,3500.14500002384,1,2019.619,1480.52600002384,0,NA,"Slider","J",3,"object-18","J","CFD-WM-034-030-H.jpeg",NA,"SUPTM31721"
"17",1689011664847,"10/07/2023 17:54:24",1689015264847,1,"10/07/2023 19:54:24",137495,33,"task-ycba",NA,30601547,9085742,NA,"complete",NA,NA,"computer","Desktop or Laptop","Windows 10","Chrome 114.0.0.0","1536x864","1536x714",NA,NA,NA,"JV Task P2",11,"Anxious",NA,"In",NA,NA,"EFDGCHBIAJK",NA,NA,"B (MDot First)",2,123,"SS1","SS1",3,"J","Fixation","w9zir9",2,"continue","",987.027000000002,987.027000000002,987.027000000002,987.027000000002,987.027000000002,987.027000000002,1,987.027000000002,0,0,NA,"Fixation Timing","Fixation",1,"object-65","J","CFD-WM-034-030-H.jpeg",NA,"SUPTM31721"
"18",1689011670393,"10/07/2023 17:54:30",1689015270393,1,"10/07/2023 19:54:30",137495,33,"task-ycba",NA,30601547,9085742,NA,"complete",NA,NA,"computer","Desktop or Laptop","Windows 10","Chrome 114.0.0.0","1536x864","1536x714",NA,NA,NA,"JV Task P2",11,"Anxious",NA,"In",NA,NA,"EFDGCHBIAJK",NA,NA,"B (MDot First)",2,123,"SS1","SS1",4,"J","Judginess","y8ii7g",1,"continue","",5547.03099995232,5540.454,5547.03099995232,5547.03099995232,5540.454,5547.03099995232,1,5547.03099995232,0,0,NA,"Click To Continue","Continue Button",1,"object-14","J","CFD-WF-030-002-N.jpg",NA,"SUPTM31721"
"19",1689011670395,"10/07/2023 17:54:30",1689015270395,1,"10/07/2023 19:54:30",137495,33,"task-ycba",NA,30601547,9085742,NA,"complete",NA,NA,"computer","Desktop or Laptop","Windows 10","Chrome 114.0.0.0","1536x864","1536x714",NA,NA,NA,"JV Task P2",11,"Anxious",NA,"In",NA,NA,"EFDGCHBIAJK",NA,NA,"B (MDot First)",2,123,"SS1","SS1",4,"J","Judginess","y8ii7g",1,"response","26",2049.495,5540.454,5547.484,2049.495,5540.454,5547.484,1,2049.495,3497.989,0,NA,"Slider","J",3,"object-18","J","CFD-WF-030-002-N.jpg",NA,"SUPTM31721"
"20",1689011671368,"10/07/2023 17:54:31",1689015271368,1,"10/07/2023 19:54:31",137495,33,"task-ycba",NA,30601547,9085742,NA,"complete",NA,NA,"computer","Desktop or Laptop","Windows 10","Chrome 114.0.0.0","1536x864","1536x714",NA,NA,NA,"JV Task P2",11,"Anxious",NA,"In",NA,NA,"EFDGCHBIAJK",NA,NA,"B (MDot First)",2,123,"SS1","SS1",4,"J","Fixation","w9zir9",2,"continue","",979.580999999998,979.580999999998,979.580999999998,979.580999999998,979.580999999998,979.580999999998,1,979.580999999998,0,0,NA,"Fixation Timing","Fixation",1,"object-65","J","CFD-WF-030-002-N.jpg",NA,"SUPTM31721"
"21",1689011674336,"10/07/2023 17:54:34",1689015274336,1,"10/07/2023 19:54:34",137495,33,"task-ycba",NA,30601547,9085742,NA,"complete",NA,NA,"computer","Desktop or Laptop","Windows 10","Chrome 114.0.0.0","1536x864","1536x714",NA,NA,NA,"JV Task P2",11,"Anxious",NA,"In",NA,NA,"EFDGCHBIAJK",NA,NA,"B (MDot First)",2,123,"SS1","SS1",5,"J","Judginess","y8ii7g",1,"continue","",2970.196,2965.47,2970.196,2970.196,2965.47,2970.196,1,2970.196,0,0,NA,"Click To Continue","Continue Button",1,"object-14","J","CFD-AF-250-200-N.jpg",NA,"SUPTM31721"
"22",1689011674337,"10/07/2023 17:54:34",1689015274337,1,"10/07/2023 19:54:34",137495,33,"task-ycba",NA,30601547,9085742,NA,"complete",NA,NA,"computer","Desktop or Laptop","Windows 10","Chrome 114.0.0.0","1536x864","1536x714",NA,NA,NA,"JV Task P2",11,"Anxious",NA,"In",NA,NA,"EFDGCHBIAJK",NA,NA,"B (MDot First)",2,123,"SS1","SS1",5,"J","Judginess","y8ii7g",1,"response","18",2180.569,2965.47,2970.49599995232,2180.569,2965.47,2970.49599995232,1,2180.569,789.926999952317,0,NA,"Slider","J",3,"object-18","J","CFD-AF-250-200-N.jpg",NA,"SUPTM31721"
"23",1689011675316,"10/07/2023 17:54:35",1689015275316,1,"10/07/2023 19:54:35",137495,33,"task-ycba",NA,30601547,9085742,NA,"complete",NA,NA,"computer","Desktop or Laptop","Windows 10","Chrome 114.0.0.0","1536x864","1536x714",NA,NA,NA,"JV Task P2",11,"Anxious",NA,"In",NA,NA,"EFDGCHBIAJK",NA,NA,"B (MDot First)",2,123,"SS1","SS1",5,"J","Fixation","w9zir9",2,"continue","",983.195,983.195,983.195,983.195,983.195,983.195,1,983.195,0,0,NA,"Fixation Timing","Fixation",1,"object-65","J","CFD-AF-250-200-N.jpg",NA,"SUPTM31721"
"24",1689011678810,"10/07/2023 17:54:38",1689015278810,1,"10/07/2023 19:54:38",137495,33,"task-ycba",NA,30601547,9085742,NA,"complete",NA,NA,"computer","Desktop or Laptop","Windows 10","Chrome 114.0.0.0","1536x864","1536x714",NA,NA,NA,"JV Task P2",11,"Anxious",NA,"In",NA,NA,"EFDGCHBIAJK",NA,NA,"B (MDot First)",2,123,"SS1","SS1",6,"J","Judginess","y8ii7g",1,"continue","",3495.13100002384,3491.858,3495.13100002384,3495.13100002384,3491.858,3495.13100002384,1,3495.13100002384,0,0,NA,"Click To Continue","Continue Button",1,"object-14","J","CFD-WM-035-032-N.jpg",NA,"SUPTM31721"
"25",1689011678810,"10/07/2023 17:54:38",1689015278810,1,"10/07/2023 19:54:38",137495,33,"task-ycba",NA,30601547,9085742,NA,"complete",NA,NA,"computer","Desktop or Laptop","Windows 10","Chrome 114.0.0.0","1536x864","1536x714",NA,NA,NA,"JV Task P2",11,"Anxious",NA,"In",NA,NA,"EFDGCHBIAJK",NA,NA,"B (MDot First)",2,123,"SS1","SS1",6,"J","Judginess","y8ii7g",1,"response","3",2756.834,3491.858,3495.33099995232,2756.834,3491.858,3495.33099995232,1,2756.834,738.496999952316,0,NA,"Slider","J",3,"object-18","J","CFD-WM-035-032-N.jpg",NA,"SUPTM31721"
"26",1689011679794,"10/07/2023 17:54:39",1689015279794,1,"10/07/2023 19:54:39",137495,33,"task-ycba",NA,30601547,9085742,NA,"complete",NA,NA,"computer","Desktop or Laptop","Windows 10","Chrome 114.0.0.0","1536x864","1536x714",NA,NA,NA,"JV Task P2",11,"Anxious",NA,"In",NA,NA,"EFDGCHBIAJK",NA,NA,"B (MDot First)",2,123,"SS1","SS1",6,"J","Fixation","w9zir9",2,"continue","",986.863000000005,986.863000000005,986.863000000005,986.863000000005,986.863000000005,986.863000000005,1,986.863000000005,0,0,NA,"Fixation Timing","Fixation",1,"object-65","J","CFD-WM-035-032-N.jpg",NA,"SUPTM31721"
"27",1689011683117,"10/07/2023 17:54:43",1689015283117,1,"10/07/2023 19:54:43",137495,33,"task-ycba",NA,30601547,9085742,NA,"complete",NA,NA,"computer","Desktop or Laptop","Windows 10","Chrome 114.0.0.0","1536x864","1536x714",NA,NA,NA,"JV Task P2",11,"Anxious",NA,"In",NA,NA,"EFDGCHBIAJK",NA,NA,"B (MDot First)",2,123,"SS1","SS1",3,"V","Valence","xyoebq",1,"continue","",3323.10999995231,3321.27899999999,3323.10999995231,3323.10999995231,3321.27899999999,3323.10999995231,1,3323.10999995231,0,0,NA,"Click To Continue","Continue Button",1,"object-25","V","CFD-WM-026-001-N.jpg",NA,"SUPTM31721"
"28",1689011683119,"10/07/2023 17:54:43",1689015283119,1,"10/07/2023 19:54:43",137495,33,"task-ycba",NA,30601547,9085742,NA,"complete",NA,NA,"computer","Desktop or Laptop","Windows 10","Chrome 114.0.0.0","1536x864","1536x714",NA,NA,NA,"JV Task P2",11,"Anxious",NA,"In",NA,NA,"EFDGCHBIAJK",NA,NA,"B (MDot First)",2,123,"SS1","SS1",3,"V","Valence","xyoebq",1,"response","22",2120.782,3321.27899999999,3325.70999997616,2120.782,3321.27899999999,3325.70999997616,1,2120.782,1204.92799997616,0,NA,"Slider","J",3,"object-27","V","CFD-WM-026-001-N.jpg",NA,"SUPTM31721"
"29",1689011684099,"10/07/2023 17:54:44",1689015284099,1,"10/07/2023 19:54:44",137495,33,"task-ycba",NA,30601547,9085742,NA,"complete",NA,NA,"computer","Desktop or Laptop","Windows 10","Chrome 114.0.0.0","1536x864","1536x714",NA,NA,NA,"JV Task P2",11,"Anxious",NA,"In",NA,NA,"EFDGCHBIAJK",NA,NA,"B (MDot First)",2,123,"SS1","SS1",3,"V","Fixation","68owkj",2,"continue","",983.042000000001,983.042000000001,983.042000000001,983.042000000001,983.042000000001,983.042000000001,1,983.042000000001,0,0,NA,"Fixation Timing","Fixation",1,"object-21","V","CFD-WM-026-001-N.jpg",NA,"SUPTM31721"
"30",1689011686564,"10/07/2023 17:54:46",1689015286564,1,"10/07/2023 19:54:46",137495,33,"task-ycba",NA,30601547,9085742,NA,"complete",NA,NA,"computer","Desktop or Laptop","Windows 10","Chrome 114.0.0.0","1536x864","1536x714",NA,NA,NA,"JV Task P2",11,"Anxious",NA,"In",NA,NA,"EFDGCHBIAJK",NA,NA,"B (MDot First)",2,123,"SS1","SS1",4,"V","Valence","xyoebq",1,"continue","",2466.38899997616,2461.633,2466.38899997616,2466.38899997616,2461.633,2466.38899997616,1,2466.38899997616,0,0,NA,"Click To Continue","Continue Button",1,"object-25","V","CFD-AM-220-134-H.jpeg",NA,"SUPTM31721"
"31",1689011686565,"10/07/2023 17:54:46",1689015286565,1,"10/07/2023 19:54:46",137495,33,"task-ycba",NA,30601547,9085742,NA,"complete",NA,NA,"computer","Desktop or Laptop","Windows 10","Chrome 114.0.0.0","1536x864","1536x714",NA,NA,NA,"JV Task P2",11,"Anxious",NA,"In",NA,NA,"EFDGCHBIAJK",NA,NA,"B (MDot First)",2,123,"SS1","SS1",4,"V","Valence","xyoebq",1,"response","68",1750.086,2461.633,2466.68900004769,1750.086,2461.633,2466.68900004769,1,1750.086,716.603000047682,0,NA,"Slider","J",3,"object-27","V","CFD-AM-220-134-H.jpeg",NA,"SUPTM31721"
"32",1689011687555,"10/07/2023 17:54:47",1689015287555,1,"10/07/2023 19:54:47",137495,33,"task-ycba",NA,30601547,9085742,NA,"complete",NA,NA,"computer","Desktop or Laptop","Windows 10","Chrome 114.0.0.0","1536x864","1536x714",NA,NA,NA,"JV Task P2",11,"Anxious",NA,"In",NA,NA,"EFDGCHBIAJK",NA,NA,"B (MDot First)",2,123,"SS1","SS1",4,"V","Fixation","68owkj",2,"continue","",993.580999999998,993.580999999998,993.580999999998,993.580999999998,993.580999999998,993.580999999998,1,993.580999999998,0,0,NA,"Fixation Timing","Fixation",1,"object-21","V","CFD-AM-220-134-H.jpeg",NA,"SUPTM31721"
"33",1689011692385,"10/07/2023 17:54:52",1689015292385,1,"10/07/2023 19:54:52",137495,33,"task-ycba",NA,30601547,9085742,NA,"complete",NA,NA,"computer","Desktop or Laptop","Windows 10","Chrome 114.0.0.0","1536x864","1536x714",NA,NA,NA,"JV Task P2",11,"Anxious",NA,"In",NA,NA,"EFDGCHBIAJK",NA,NA,"B (MDot First)",2,123,"SS1","SS1",7,"J","Judginess","y8ii7g",1,"continue","",4831.87500002384,4828.564,4831.87500002384,4831.87500002384,4828.564,4831.87500002384,1,4831.87500002384,0,0,NA,"Click To Continue","Continue Button",1,"object-14","J","CFD-WM-026-001-N.jpg",NA,"SUPTM31721"
"34",1689011692385,"10/07/2023 17:54:52",1689015292385,1,"10/07/2023 19:54:52",137495,33,"task-ycba",NA,30601547,9085742,NA,"complete",NA,NA,"computer","Desktop or Laptop","Windows 10","Chrome 114.0.0.0","1536x864","1536x714",NA,NA,NA,"JV Task P2",11,"Anxious",NA,"In",NA,NA,"EFDGCHBIAJK",NA,NA,"B (MDot First)",2,123,"SS1","SS1",7,"J","Judginess","y8ii7g",1,"response","20",4212.356,4828.564,4832.17499997616,4212.356,4828.564,4832.17499997616,1,4212.356,619.81899997616,0,NA,"Slider","J",3,"object-18","J","CFD-WM-026-001-N.jpg",NA,"SUPTM31721"
"35",1689011693367,"10/07/2023 17:54:53",1689015293367,1,"10/07/2023 19:54:53",137495,33,"task-ycba",NA,30601547,9085742,NA,"complete",NA,NA,"computer","Desktop or Laptop","Windows 10","Chrome 114.0.0.0","1536x864","1536x714",NA,NA,NA,"JV Task P2",11,"Anxious",NA,"In",NA,NA,"EFDGCHBIAJK",NA,NA,"B (MDot First)",2,123,"SS1","SS1",7,"J","Fixation","w9zir9",2,"continue","",984.310000000005,984.310000000005,984.310000000005,984.310000000005,984.310000000005,984.310000000005,1,984.310000000005,0,0,NA,"Fixation Timing","Fixation",1,"object-65","J","CFD-WM-026-001-N.jpg",NA,"SUPTM31721"
"36",1689011697739,"10/07/2023 17:54:57",1689015297739,1,"10/07/2023 19:54:57",137495,33,"task-ycba",NA,30601547,9085742,NA,"complete",NA,NA,"computer","Desktop or Laptop","Windows 10","Chrome 114.0.0.0","1536x864","1536x714",NA,NA,NA,"JV Task P2",11,"Anxious",NA,"In",NA,NA,"EFDGCHBIAJK",NA,NA,"B (MDot First)",2,123,"SS1","SS1",8,"J","Judginess","y8ii7g",1,"continue","",4373.30099997616,4370.166,4373.30099997616,4373.30099997616,4370.166,4373.30099997616,1,4373.30099997616,0,0,NA,"Click To Continue","Continue Button",1,"object-14","J","CFD-WM-009-002-H.jpeg",NA,"SUPTM31721"
"37",1689011697740,"10/07/2023 17:54:57",1689015297740,1,"10/07/2023 19:54:57",137495,33,"task-ycba",NA,30601547,9085742,NA,"complete",NA,NA,"computer","Desktop or Laptop","Windows 10","Chrome 114.0.0.0","1536x864","1536x714",NA,NA,NA,"JV Task P2",11,"Anxious",NA,"In",NA,NA,"EFDGCHBIAJK",NA,NA,"B (MDot First)",2,123,"SS1","SS1",8,"J","Judginess","y8ii7g",1,"response","75",3109.583,4370.166,4373.60100004768,3109.583,4370.166,4373.60100004768,1,3109.583,1264.01800004768,0,NA,"Slider","J",3,"object-18","J","CFD-WM-009-002-H.jpeg",NA,"SUPTM31721"
"38",1689011698725,"10/07/2023 17:54:58",1689015298725,1,"10/07/2023 19:54:58",137495,33,"task-ycba",NA,30601547,9085742,NA,"complete",NA,NA,"computer","Desktop or Laptop","Windows 10","Chrome 114.0.0.0","1536x864","1536x714",NA,NA,NA,"JV Task P2",11,"Anxious",NA,"In",NA,NA,"EFDGCHBIAJK",NA,NA,"B (MDot First)",2,123,"SS1","SS1",8,"J","Fixation","w9zir9",2,"continue","",988.059000000001,988.059000000001,988.059000000001,988.059000000001,988.059000000001,988.059000000001,1,988.059000000001,0,0,NA,"Fixation Timing","Fixation",1,"object-65","J","CFD-WM-009-002-H.jpeg",NA,"SUPTM31721"
"39",1689011702094,"10/07/2023 17:55:02",1689015302094,1,"10/07/2023 19:55:02",137495,33,"task-ycba",NA,30601547,9085742,NA,"complete",NA,NA,"computer","Desktop or Laptop","Windows 10","Chrome 114.0.0.0","1536x864","1536x714",NA,NA,NA,"JV Task P2",11,"Anxious",NA,"In",NA,NA,"EFDGCHBIAJK",NA,NA,"B (MDot First)",2,123,"SS1","SS1",5,"V","Valence","xyoebq",1,"continue","",3369.87600004768,3365.062,3369.87600004768,3369.87600004768,3365.062,3369.87600004768,1,3369.87600004768,0,0,NA,"Click To Continue","Continue Button",1,"object-25","V","CFD-WM-037-025-H.jpeg",NA,"SUPTM31721"
"40",1689011702095,"10/07/2023 17:55:02",1689015302095,1,"10/07/2023 19:55:02",137495,33,"task-ycba",NA,30601547,9085742,NA,"complete",NA,NA,"computer","Desktop or Laptop","Windows 10","Chrome 114.0.0.0","1536x864","1536x714",NA,NA,NA,"JV Task P2",11,"Anxious",NA,"In",NA,NA,"EFDGCHBIAJK",NA,NA,"B (MDot First)",2,123,"SS1","SS1",5,"V","Valence","xyoebq",1,"response","90",1779.68,3365.062,3370.176,1779.68,3365.062,3370.176,1,1779.68,1590.496,0,NA,"Slider","J",3,"object-27","V","CFD-WM-037-025-H.jpeg",NA,"SUPTM31721"
"41",1689011703074,"10/07/2023 17:55:03",1689015303074,1,"10/07/2023 19:55:03",137495,33,"task-ycba",NA,30601547,9085742,NA,"complete",NA,NA,"computer","Desktop or Laptop","Windows 10","Chrome 114.0.0.0","1536x864","1536x714",NA,NA,NA,"JV Task P2",11,"Anxious",NA,"In",NA,NA,"EFDGCHBIAJK",NA,NA,"B (MDot First)",2,123,"SS1","SS1",5,"V","Fixation","68owkj",2,"continue","",984.817999999999,984.817999999999,984.817999999999,984.817999999999,984.817999999999,984.817999999999,1,984.817999999999,0,0,NA,"Fixation Timing","Fixation",1,"object-21","V","CFD-WM-037-025-H.jpeg",NA,"SUPTM31721"
"42",1689011708783,"10/07/2023 17:55:08",1689015308783,1,"10/07/2023 19:55:08",137495,33,"task-ycba",NA,30601547,9085742,NA,"complete",NA,NA,"computer","Desktop or Laptop","Windows 10","Chrome 114.0.0.0","1536x864","1536x714",NA,NA,NA,"JV Task P2",11,"Anxious",NA,"In",NA,NA,"EFDGCHBIAJK",NA,NA,"B (MDot First)",2,123,"SS1","SS1",6,"V","Valence","xyoebq",1,"continue","",5708.39600002384,5704.713,5708.39600002384,5708.39600002384,5704.713,5708.39600002384,1,5708.39600002384,0,0,NA,"Click To Continue","Continue Button",1,"object-25","V","CFD-AM-223-138-H.jpeg",NA,"SUPTM31721"
"43",1689011708785,"10/07/2023 17:55:08",1689015308785,1,"10/07/2023 19:55:08",137495,33,"task-ycba",NA,30601547,9085742,NA,"complete",NA,NA,"computer","Desktop or Laptop","Windows 10","Chrome 114.0.0.0","1536x864","1536x714",NA,NA,NA,"JV Task P2",11,"Anxious",NA,"In",NA,NA,"EFDGCHBIAJK",NA,NA,"B (MDot First)",2,123,"SS1","SS1",6,"V","Valence","xyoebq",1,"response","85",4738.10000000001,5704.713,5710.89600002384,4738.10000000001,5704.713,5710.89600002384,1,4738.10000000001,972.796000023838,0,NA,"Slider","J",3,"object-27","V","CFD-AM-223-138-H.jpeg",NA,"SUPTM31721"
"44",1689011709765,"10/07/2023 17:55:09",1689015309765,1,"10/07/2023 19:55:09",137495,33,"task-ycba",NA,30601547,9085742,NA,"complete",NA,NA,"computer","Desktop or Laptop","Windows 10","Chrome 114.0.0.0","1536x864","1536x714",NA,NA,NA,"JV Task P2",11,"Anxious",NA,"In",NA,NA,"EFDGCHBIAJK",NA,NA,"B (MDot First)",2,123,"SS1","SS1",6,"V","Fixation","68owkj",2,"continue","",985.906000000003,985.906000000003,985.906000000003,985.906000000003,985.906000000003,985.906000000003,1,985.906000000003,0,0,NA,"Fixation Timing","Fixation",1,"object-21","V","CFD-AM-223-138-H.jpeg",NA,"SUPTM31721"
"45",1689011711346,"10/07/2023 17:55:11",1689015311346,1,"10/07/2023 19:55:11",137495,33,"task-ycba",NA,30601547,9085742,NA,"complete",NA,NA,"computer","Desktop or Laptop","Windows 10","Chrome 114.0.0.0","1536x864","1536x714",NA,NA,NA,"JV Task P2",11,"Anxious",NA,"In",NA,NA,"EFDGCHBIAJK",NA,NA,"B (MDot First)",2,123,"SS1","SS1",7,"V","Valence","xyoebq",1,"continue","",1581.37700004768,1575.132,1581.37700004768,1581.37700004768,1575.132,1581.37700004768,1,1581.37700004768,0,0,NA,"Click To Continue","Continue Button",1,"object-25","V","CFD-BM-028-002-S.jpeg",NA,"SUPTM31721"
"46",1689011711347,"10/07/2023 17:55:11",1689015311347,1,"10/07/2023 19:55:11",137495,33,"task-ycba",NA,30601547,9085742,NA,"complete",NA,NA,"computer","Desktop or Laptop","Windows 10","Chrome 114.0.0.0","1536x864","1536x714",NA,NA,NA,"JV Task P2",11,"Anxious",NA,"In",NA,NA,"EFDGCHBIAJK",NA,NA,"B (MDot First)",2,123,"SS1","SS1",7,"V","Valence","xyoebq",1,"response","0",912.786999999997,1575.132,1581.677,912.786999999997,1575.132,1581.677,1,912.786999999997,668.889999999999,0,NA,"Slider","J",3,"object-27","V","CFD-BM-028-002-S.jpeg",NA,"SUPTM31721"
"47",1689011712333,"10/07/2023 17:55:12",1689015312333,1,"10/07/2023 19:55:12",137495,33,"task-ycba",NA,30601547,9085742,NA,"complete",NA,NA,"computer","Desktop or Laptop","Windows 10","Chrome 114.0.0.0","1536x864","1536x714",NA,NA,NA,"JV Task P2",11,"Anxious",NA,"In",NA,NA,"EFDGCHBIAJK",NA,NA,"B (MDot First)",2,123,"SS1","SS1",7,"V","Fixation","68owkj",2,"continue","",991.880999999994,991.880999999994,991.880999999994,991.880999999994,991.880999999994,991.880999999994,1,991.880999999994,0,0,NA,"Fixation Timing","Fixation",1,"object-21","V","CFD-BM-028-002-S.jpeg",NA,"SUPTM31721"
"48",1689011714300,"10/07/2023 17:55:14",1689015314300,1,"10/07/2023 19:55:14",137495,33,"task-ycba",NA,30601547,9085742,NA,"complete",NA,NA,"computer","Desktop or Laptop","Windows 10","Chrome 114.0.0.0","1536x864","1536x714",NA,NA,NA,"JV Task P2",11,"Anxious",NA,"In",NA,NA,"EFDGCHBIAJK",NA,NA,"B (MDot First)",2,123,"SS1","SS1",9,"J","Judginess","y8ii7g",1,"continue","",1967.664,1960.75900000001,1967.664,1967.664,1960.75900000001,1967.664,1,1967.664,0,0,NA,"Click To Continue","Continue Button",1,"object-14","J","CFD-AM-225-102-N.jpg",NA,"SUPTM31721"
"49",1689011714300,"10/07/2023 17:55:14",1689015314300,1,"10/07/2023 19:55:14",137495,33,"task-ycba",NA,30601547,9085742,NA,"complete",NA,NA,"computer","Desktop or Laptop","Windows 10","Chrome 114.0.0.0","1536x864","1536x714",NA,NA,NA,"JV Task P2",11,"Anxious",NA,"In",NA,NA,"EFDGCHBIAJK",NA,NA,"B (MDot First)",2,123,"SS1","SS1",9,"J","Judginess","y8ii7g",1,"response","0",1235.60000000001,1960.75900000001,1967.701,1235.60000000001,1960.75900000001,1967.701,1,1235.60000000001,732.100999999995,0,NA,"Slider","J",3,"object-18","J","CFD-AM-225-102-N.jpg",NA,"SUPTM31721"
"50",1689011715280,"10/07/2023 17:55:15",1689015315280,1,"10/07/2023 19:55:15",137495,33,"task-ycba",NA,30601547,9085742,NA,"complete",NA,NA,"computer","Desktop or Laptop","Windows 10","Chrome 114.0.0.0","1536x864","1536x714",NA,NA,NA,"JV Task P2",11,"Anxious",NA,"In",NA,NA,"EFDGCHBIAJK",NA,NA,"B (MDot First)",2,123,"SS1","SS1",9,"J","Fixation","w9zir9",2,"continue","",986.705000000002,986.705000000002,986.705000000002,986.705000000002,986.705000000002,986.705000000002,1,986.705000000002,0,0,NA,"Fixation Timing","Fixation",1,"object-65","J","CFD-AM-225-102-N.jpg",NA,"SUPTM31721"
"51",1689011719068,"10/07/2023 17:55:19",1689015319068,1,"10/07/2023 19:55:19",137495,33,"task-ycba",NA,30601547,9085742,NA,"complete",NA,NA,"computer","Desktop or Laptop","Windows 10","Chrome 114.0.0.0","1536x864","1536x714",NA,NA,NA,"JV Task P2",11,"Anxious",NA,"In",NA,NA,"EFDGCHBIAJK",NA,NA,"B (MDot First)",2,123,"SS1","SS1",10,"J","Judginess","y8ii7g",1,"continue","",3788.7,3785.745,3788.7,3788.7,3785.745,3788.7,1,3788.7,0,0,NA,"Click To Continue","Continue Button",1,"object-14","J","CFD-WM-019-003-H.jpeg",NA,"SUPTM31721"
"52",1689011719071,"10/07/2023 17:55:19",1689015319071,1,"10/07/2023 19:55:19",137495,33,"task-ycba",NA,30601547,9085742,NA,"complete",NA,NA,"computer","Desktop or Laptop","Windows 10","Chrome 114.0.0.0","1536x864","1536x714",NA,NA,NA,"JV Task P2",11,"Anxious",NA,"In",NA,NA,"EFDGCHBIAJK",NA,NA,"B (MDot First)",2,123,"SS1","SS1",10,"J","Judginess","y8ii7g",1,"response","66",1308.31599999999,3785.745,3791.30000002384,1308.31599999999,3785.745,3791.30000002384,1,1308.31599999999,2482.98400002385,0,NA,"Slider","J",3,"object-18","J","CFD-WM-019-003-H.jpeg",NA,"SUPTM31721"
"53",1689011720046,"10/07/2023 17:55:20",1689015320046,1,"10/07/2023 19:55:20",137495,33,"task-ycba",NA,30601547,9085742,NA,"complete",NA,NA,"computer","Desktop or Laptop","Windows 10","Chrome 114.0.0.0","1536x864","1536x714",NA,NA,NA,"JV Task P2",11,"Anxious",NA,"In",NA,NA,"EFDGCHBIAJK",NA,NA,"B (MDot First)",2,123,"SS1","SS1",10,"J","Fixation","w9zir9",2,"continue","",980.739000000001,980.739000000001,980.739000000001,980.739000000001,980.739000000001,980.739000000001,1,980.739000000001,0,0,NA,"Fixation Timing","Fixation",1,"object-65","J","CFD-WM-019-003-H.jpeg",NA,"SUPTM31721"
"54",1689011722443,"10/07/2023 17:55:22",1689015322443,1,"10/07/2023 19:55:22",137495,33,"task-ycba",NA,30601547,9085742,NA,"complete",NA,NA,"computer","Desktop or Laptop","Windows 10","Chrome 114.0.0.0","1536x864","1536x714",NA,NA,NA,"JV Task P2",11,"Anxious",NA,"In",NA,NA,"EFDGCHBIAJK",NA,NA,"B (MDot First)",2,123,"SS1","SS1",11,"J","Judginess","y8ii7g",1,"continue","",2396.81600002384,2394.183,2396.81600002384,2396.81600002384,2394.183,2396.81600002384,1,2396.81600002384,0,0,NA,"Click To Continue","Continue Button",1,"object-14","J","CFD-WM-001-014-S.jpeg",NA,"SUPTM31721"
"55",1689011722443,"10/07/2023 17:55:22",1689015322443,1,"10/07/2023 19:55:22",137495,33,"task-ycba",NA,30601547,9085742,NA,"complete",NA,NA,"computer","Desktop or Laptop","Windows 10","Chrome 114.0.0.0","1536x864","1536x714",NA,NA,NA,"JV Task P2",11,"Anxious",NA,"In",NA,NA,"EFDGCHBIAJK",NA,NA,"B (MDot First)",2,123,"SS1","SS1",11,"J","Judginess","y8ii7g",1,"response","0",1183.667,2394.183,2397.01599995232,1183.667,2394.183,2397.01599995232,1,1183.667,1213.34899995232,0,NA,"Slider","J",3,"object-18","J","CFD-WM-001-014-S.jpeg",NA,"SUPTM31721"
"56",1689011723422,"10/07/2023 17:55:23",1689015323422,1,"10/07/2023 19:55:23",137495,33,"task-ycba",NA,30601547,9085742,NA,"complete",NA,NA,"computer","Desktop or Laptop","Windows 10","Chrome 114.0.0.0","1536x864","1536x714",NA,NA,NA,"JV Task P2",11,"Anxious",NA,"In",NA,NA,"EFDGCHBIAJK",NA,NA,"B (MDot First)",2,123,"SS1","SS1",11,"J","Fixation","w9zir9",2,"continue","",981.231999999989,981.231999999989,981.231999999989,981.231999999989,981.231999999989,981.231999999989,1,981.231999999989,0,0,NA,"Fixation Timing","Fixation",1,"object-65","J","CFD-WM-001-014-S.jpeg",NA,"SUPTM31721"
"57",1689011728577,"10/07/2023 17:55:28",1689015328577,1,"10/07/2023 19:55:28",137495,33,"task-ycba",NA,30601547,9085742,NA,"complete",NA,NA,"computer","Desktop or Laptop","Windows 10","Chrome 114.0.0.0","1536x864","1536x714",NA,NA,NA,"JV Task P2",11,"Anxious",NA,"In",NA,NA,"EFDGCHBIAJK",NA,NA,"B (MDot First)",2,123,"SS1","SS1",8,"V","Valence","xyoebq",1,"continue","",5155.50100004769,5151.13400000001,5155.50100004769,5155.50100004769,5151.13400000001,5155.50100004769,1,5155.50100004769,0,0,NA,"Click To Continue","Continue Button",1,"object-25","V","CFD-BF-030-002-H.jpeg",NA,"SUPTM31721"
"58",1689011728577,"10/07/2023 17:55:28",1689015328577,1,"10/07/2023 19:55:28",137495,33,"task-ycba",NA,30601547,9085742,NA,"complete",NA,NA,"computer","Desktop or Laptop","Windows 10","Chrome 114.0.0.0","1536x864","1536x714",NA,NA,NA,"JV Task P2",11,"Anxious",NA,"In",NA,NA,"EFDGCHBIAJK",NA,NA,"B (MDot First)",2,123,"SS1","SS1",8,"V","Valence","xyoebq",1,"response","50",943.5,5151.13400000001,5155.90100002385,943.5,5151.13400000001,5155.90100002385,1,943.5,4212.40100002385,0,NA,"Slider","J",3,"object-27","V","CFD-BF-030-002-H.jpeg",NA,"SUPTM31721"
"59",1689011729553,"10/07/2023 17:55:29",1689015329553,1,"10/07/2023 19:55:29",137495,33,"task-ycba",NA,30601547,9085742,NA,"complete",NA,NA,"computer","Desktop or Laptop","Windows 10","Chrome 114.0.0.0","1536x864","1536x714",NA,NA,NA,"JV Task P2",11,"Anxious",NA,"In",NA,NA,"EFDGCHBIAJK",NA,NA,"B (MDot First)",2,123,"SS1","SS1",8,"V","Fixation","68owkj",2,"continue","",979.718000000008,979.718000000008,979.718000000008,979.718000000008,979.718000000008,979.718000000008,1,979.718000000008,0,0,NA,"Fixation Timing","Fixation",1,"object-21","V","CFD-BF-030-002-H.jpeg",NA,"SUPTM31721"
"60",1689011731503,"10/07/2023 17:55:31",1689015331503,1,"10/07/2023 19:55:31",137495,33,"task-ycba",NA,30601547,9085742,NA,"complete",NA,NA,"computer","Desktop or Laptop","Windows 10","Chrome 114.0.0.0","1536x864","1536x714",NA,NA,NA,"JV Task P2",11,"Anxious",NA,"In",NA,NA,"EFDGCHBIAJK",NA,NA,"B (MDot First)",2,123,"SS1","SS1",9,"V","Valence","xyoebq",1,"continue","",1951.04900002384,1944.514,1951.04900002384,1951.04900002384,1944.514,1951.04900002384,1,1951.04900002384,0,0,NA,"Click To Continue","Continue Button",1,"object-25","V","CFD-WF-035-024-S.jpeg",NA,"SUPTM31721"
"61",1689011731503,"10/07/2023 17:55:31",1689015331503,1,"10/07/2023 19:55:31",137495,33,"task-ycba",NA,30601547,9085742,NA,"complete",NA,NA,"computer","Desktop or Laptop","Windows 10","Chrome 114.0.0.0","1536x864","1536x714",NA,NA,NA,"JV Task P2",11,"Anxious",NA,"In",NA,NA,"EFDGCHBIAJK",NA,NA,"B (MDot First)",2,123,"SS1","SS1",9,"V","Valence","xyoebq",1,"response","0",1312.34699999999,1944.514,1951.34899997615,1312.34699999999,1944.514,1951.34899997615,1,1312.34699999999,639.001999976157,0,NA,"Slider","J",3,"object-27","V","CFD-WF-035-024-S.jpeg",NA,"SUPTM31721"
"62",1689011732477,"10/07/2023 17:55:32",1689015332477,1,"10/07/2023 19:55:32",137495,33,"task-ycba",NA,30601547,9085742,NA,"complete",NA,NA,"computer","Desktop or Laptop","Windows 10","Chrome 114.0.0.0","1536x864","1536x714",NA,NA,NA,"JV Task P2",11,"Anxious",NA,"In",NA,NA,"EFDGCHBIAJK",NA,NA,"B (MDot First)",2,123,"SS1","SS1",9,"V","Fixation","68owkj",2,"continue","",980.462,980.462,980.462,980.462,980.462,980.462,1,980.462,0,0,NA,"Fixation Timing","Fixation",1,"object-21","V","CFD-WF-035-024-S.jpeg",NA,"SUPTM31721"
"63",1689011736899,"10/07/2023 17:55:36",1689015336899,1,"10/07/2023 19:55:36",137495,33,"task-ycba",NA,30601547,9085742,NA,"complete",NA,NA,"computer","Desktop or Laptop","Windows 10","Chrome 114.0.0.0","1536x864","1536x714",NA,NA,NA,"JV Task P2",11,"Anxious",NA,"In",NA,NA,"EFDGCHBIAJK",NA,NA,"B (MDot First)",2,123,"SS1","SS1",12,"J","Judginess","y8ii7g",1,"continue","",4422.07300002384,4418.776,4422.07300002384,4422.07300002384,4418.776,4422.07300002384,1,4422.07300002384,0,0,NA,"Click To Continue","Continue Button",1,"object-14","J","CFD-WM-036-031-S.jpeg",NA,"SUPTM31721"
"64",1689011736899,"10/07/2023 17:55:36",1689015336899,1,"10/07/2023 19:55:36",137495,33,"task-ycba",NA,30601547,9085742,NA,"complete",NA,NA,"computer","Desktop or Laptop","Windows 10","Chrome 114.0.0.0","1536x864","1536x714",NA,NA,NA,"JV Task P2",11,"Anxious",NA,"In",NA,NA,"EFDGCHBIAJK",NA,NA,"B (MDot First)",2,123,"SS1","SS1",12,"J","Judginess","y8ii7g",1,"response","0",1471.42999999999,4418.776,4422.37299997616,1471.42999999999,4418.776,4422.37299997616,1,1471.42999999999,2950.94299997616,0,NA,"Slider","J",3,"object-18","J","CFD-WM-036-031-S.jpeg",NA,"SUPTM31721"
"65",1689011737878,"10/07/2023 17:55:37",1689015337878,1,"10/07/2023 19:55:37",137495,33,"task-ycba",NA,30601547,9085742,NA,"complete",NA,NA,"computer","Desktop or Laptop","Windows 10","Chrome 114.0.0.0","1536x864","1536x714",NA,NA,NA,"JV Task P2",11,"Anxious",NA,"In",NA,NA,"EFDGCHBIAJK",NA,NA,"B (MDot First)",2,123,"SS1","SS1",12,"J","Fixation","w9zir9",2,"continue","",982.490000000005,982.490000000005,982.490000000005,982.490000000005,982.490000000005,982.490000000005,1,982.490000000005,0,0,NA,"Fixation Timing","Fixation",1,"object-65","J","CFD-WM-036-031-S.jpeg",NA,"SUPTM31721"
"66",1689011740484,"10/07/2023 17:55:40",1689015340484,1,"10/07/2023 19:55:40",137495,33,"task-ycba",NA,30601547,9085742,NA,"complete",NA,NA,"computer","Desktop or Laptop","Windows 10","Chrome 114.0.0.0","1536x864","1536x714",NA,NA,NA,"JV Task P2",11,"Anxious",NA,"In",NA,NA,"EFDGCHBIAJK",NA,NA,"B (MDot First)",2,123,"SS1","SS1",10,"V","Valence","xyoebq",1,"continue","",2605.80700002384,2600.33499999999,2605.80700002384,2605.80700002384,2600.33499999999,2605.80700002384,1,2605.80700002384,0,0,NA,"Click To Continue","Continue Button",1,"object-25","V","CFD-WF-012-002-H.jpeg",NA,"SUPTM31721"
"67",1689011740486,"10/07/2023 17:55:40",1689015340486,1,"10/07/2023 19:55:40",137495,33,"task-ycba",NA,30601547,9085742,NA,"complete",NA,NA,"computer","Desktop or Laptop","Windows 10","Chrome 114.0.0.0","1536x864","1536x714",NA,NA,NA,"JV Task P2",11,"Anxious",NA,"In",NA,NA,"EFDGCHBIAJK",NA,NA,"B (MDot First)",2,123,"SS1","SS1",10,"V","Valence","xyoebq",1,"response","87",1199.54999999999,2600.33499999999,2607.27699999999,1199.54999999999,2600.33499999999,2607.27699999999,1,1199.54999999999,1407.727,0,NA,"Slider","J",3,"object-27","V","CFD-WF-012-002-H.jpeg",NA,"SUPTM31721"
"68",1689011741468,"10/07/2023 17:55:41",1689015341468,1,"10/07/2023 19:55:41",137495,33,"task-ycba",NA,30601547,9085742,NA,"complete",NA,NA,"computer","Desktop or Laptop","Windows 10","Chrome 114.0.0.0","1536x864","1536x714",NA,NA,NA,"JV Task P2",11,"Anxious",NA,"In",NA,NA,"EFDGCHBIAJK",NA,NA,"B (MDot First)",2,123,"SS1","SS1",10,"V","Fixation","68owkj",2,"continue","",986.847000000009,986.847000000009,986.847000000009,986.847000000009,986.847000000009,986.847000000009,1,986.847000000009,0,0,NA,"Fixation Timing","Fixation",1,"object-21","V","CFD-WF-012-002-H.jpeg",NA,"SUPTM31721"
"69",1689011744592,"10/07/2023 17:55:44",1689015344592,1,"10/07/2023 19:55:44",137495,33,"task-ycba",NA,30601547,9085742,NA,"complete",NA,NA,"computer","Desktop or Laptop","Windows 10","Chrome 114.0.0.0","1536x864","1536x714",NA,NA,NA,"JV Task P2",11,"Anxious",NA,"In",NA,NA,"EFDGCHBIAJK",NA,NA,"B (MDot First)",2,123,"SS1","SS1",13,"J","Judginess","y8ii7g",1,"continue","",3124.761,3117.81,3124.761,3124.761,3117.81,3124.761,1,3124.761,0,0,NA,"Click To Continue","Continue Button",1,"object-14","J","CFD-WM-034-030-N.jpg",NA,"SUPTM31721"
"70",1689011744592,"10/07/2023 17:55:44",1689015344592,1,"10/07/2023 19:55:44",137495,33,"task-ycba",NA,30601547,9085742,NA,"complete",NA,NA,"computer","Desktop or Laptop","Windows 10","Chrome 114.0.0.0","1536x864","1536x714",NA,NA,NA,"JV Task P2",11,"Anxious",NA,"In",NA,NA,"EFDGCHBIAJK",NA,NA,"B (MDot First)",2,123,"SS1","SS1",13,"J","Judginess","y8ii7g",1,"response","0",1463.82999999999,3117.81,3124.761,1463.82999999999,3117.81,3124.761,1,1463.82999999999,1660.93100000001,0,NA,"Slider","J",3,"object-18","J","CFD-WM-034-030-N.jpg",NA,"SUPTM31721"
"71",1689011745567,"10/07/2023 17:55:45",1689015345567,1,"10/07/2023 19:55:45",137495,33,"task-ycba",NA,30601547,9085742,NA,"complete",NA,NA,"computer","Desktop or Laptop","Windows 10","Chrome 114.0.0.0","1536x864","1536x714",NA,NA,NA,"JV Task P2",11,"Anxious",NA,"In",NA,NA,"EFDGCHBIAJK",NA,NA,"B (MDot First)",2,123,"SS1","SS1",13,"J","Fixation","w9zir9",2,"continue","",982.930999999997,982.930999999997,982.930999999997,982.930999999997,982.930999999997,982.930999999997,1,982.930999999997,0,0,NA,"Fixation Timing","Fixation",1,"object-65","J","CFD-WM-034-030-N.jpg",NA,"SUPTM31721"
"72",1689011748466,"10/07/2023 17:55:48",1689015348466,1,"10/07/2023 19:55:48",137495,33,"task-ycba",NA,30601547,9085742,NA,"complete",NA,NA,"computer","Desktop or Laptop","Windows 10","Chrome 114.0.0.0","1536x864","1536x714",NA,NA,NA,"JV Task P2",11,"Anxious",NA,"In",NA,NA,"EFDGCHBIAJK",NA,NA,"B (MDot First)",2,123,"SS1","SS1",11,"V","Valence","xyoebq",1,"continue","",2899.98400004768,2898.598,2899.98400004768,2899.98400004768,2898.598,2899.98400004768,1,2899.98400004768,0,0,NA,"Click To Continue","Continue Button",1,"object-25","V","CFD-WF-012-002-H.jpeg",NA,"SUPTM31721"
"73",1689011748466,"10/07/2023 17:55:48",1689015348466,1,"10/07/2023 19:55:48",137495,33,"task-ycba",NA,30601547,9085742,NA,"complete",NA,NA,"computer","Desktop or Laptop","Windows 10","Chrome 114.0.0.0","1536x864","1536x714",NA,NA,NA,"JV Task P2",11,"Anxious",NA,"In",NA,NA,"EFDGCHBIAJK",NA,NA,"B (MDot First)",2,123,"SS1","SS1",11,"V","Valence","xyoebq",1,"response","93",909.520999999993,2898.598,2900.18399997616,909.520999999993,2898.598,2900.18399997616,1,909.520999999993,1990.66299997616,0,NA,"Slider","J",3,"object-27","V","CFD-WF-012-002-H.jpeg",NA,"SUPTM31721"
"74",1689011749454,"10/07/2023 17:55:49",1689015349454,1,"10/07/2023 19:55:49",137495,33,"task-ycba",NA,30601547,9085742,NA,"complete",NA,NA,"computer","Desktop or Laptop","Windows 10","Chrome 114.0.0.0","1536x864","1536x714",NA,NA,NA,"JV Task P2",11,"Anxious",NA,"In",NA,NA,"EFDGCHBIAJK",NA,NA,"B (MDot First)",2,123,"SS1","SS1",11,"V","Fixation","68owkj",2,"continue","",989.544999999998,989.544999999998,989.544999999998,989.544999999998,989.544999999998,989.544999999998,1,989.544999999998,0,0,NA,"Fixation Timing","Fixation",1,"object-21","V","CFD-WF-012-002-H.jpeg",NA,"SUPTM31721"
"75",1689011751255,"10/07/2023 17:55:51",1689015351255,1,"10/07/2023 19:55:51",137495,33,"task-ycba",NA,30601547,9085742,NA,"complete",NA,NA,"computer","Desktop or Laptop","Windows 10","Chrome 114.0.0.0","1536x864","1536x714",NA,NA,NA,"JV Task P2",11,"Anxious",NA,"In",NA,NA,"EFDGCHBIAJK",NA,NA,"B (MDot First)",2,123,"SS1","SS1",12,"V","Valence","xyoebq",1,"continue","",1800.74100002385,1794.52100000001,1800.74100002385,1800.74100002385,1794.52100000001,1800.74100002385,1,1800.74100002385,0,0,NA,"Click To Continue","Continue Button",1,"object-25","V","CFD-WF-011-002-S.jpeg",NA,"SUPTM31721"
"76",1689011751258,"10/07/2023 17:55:51",1689015351258,1,"10/07/2023 19:55:51",137495,33,"task-ycba",NA,30601547,9085742,NA,"complete",NA,NA,"computer","Desktop or Laptop","Windows 10","Chrome 114.0.0.0","1536x864","1536x714",NA,NA,NA,"JV Task P2",11,"Anxious",NA,"In",NA,NA,"EFDGCHBIAJK",NA,NA,"B (MDot First)",2,123,"SS1","SS1",12,"V","Valence","xyoebq",1,"response","3",1000.073,1794.52100000001,1801.46400000001,1000.073,1794.52100000001,1801.46400000001,1,1000.073,801.391000000003,0,NA,"Slider","J",3,"object-27","V","CFD-WF-011-002-S.jpeg",NA,"SUPTM31721"
"77",1689011752233,"10/07/2023 17:55:52",1689015352233,1,"10/07/2023 19:55:52",137495,33,"task-ycba",NA,30601547,9085742,NA,"complete",NA,NA,"computer","Desktop or Laptop","Windows 10","Chrome 114.0.0.0","1536x864","1536x714",NA,NA,NA,"JV Task P2",11,"Anxious",NA,"In",NA,NA,"EFDGCHBIAJK",NA,NA,"B (MDot First)",2,123,"SS1","SS1",12,"V","Fixation","68owkj",2,"continue","",983.178999999989,983.178999999989,983.178999999989,983.178999999989,983.178999999989,983.178999999989,1,983.178999999989,0,0,NA,"Fixation Timing","Fixation",1,"object-21","V","CFD-WF-011-002-S.jpeg",NA,"SUPTM31721"
"78",1689011754356,"10/07/2023 17:55:54",1689015354356,1,"10/07/2023 19:55:54",137495,33,"task-ycba",NA,30601547,9085742,NA,"complete",NA,NA,"computer","Desktop or Laptop","Windows 10","Chrome 114.0.0.0","1536x864","1536x714",NA,NA,NA,"JV Task P2",11,"Anxious",NA,"In",NA,NA,"EFDGCHBIAJK",NA,NA,"B (MDot First)",2,123,"SS1","SS1",13,"V","Valence","xyoebq",1,"continue","",2123.84099997616,2118.69200000001,2123.84099997616,2123.84099997616,2118.69200000001,2123.84099997616,1,2123.84099997616,0,0,NA,"Click To Continue","Continue Button",1,"object-25","V","CFD-WF-009-001-H.jpeg",NA,"SUPTM31721"
"79",1689011754356,"10/07/2023 17:55:54",1689015354356,1,"10/07/2023 19:55:54",137495,33,"task-ycba",NA,30601547,9085742,NA,"complete",NA,NA,"computer","Desktop or Laptop","Windows 10","Chrome 114.0.0.0","1536x864","1536x714",NA,NA,NA,"JV Task P2",11,"Anxious",NA,"In",NA,NA,"EFDGCHBIAJK",NA,NA,"B (MDot First)",2,123,"SS1","SS1",13,"V","Valence","xyoebq",1,"response","84",982.628000000012,2118.69200000001,2124.04100002385,982.628000000012,2118.69200000001,2124.04100002385,1,982.628000000012,1141.41300002384,0,NA,"Slider","J",3,"object-27","V","CFD-WF-009-001-H.jpeg",NA,"SUPTM31721"
"80",1689011755334,"10/07/2023 17:55:55",1689015355334,1,"10/07/2023 19:55:55",137495,33,"task-ycba",NA,30601547,9085742,NA,"complete",NA,NA,"computer","Desktop or Laptop","Windows 10","Chrome 114.0.0.0","1536x864","1536x714",NA,NA,NA,"JV Task P2",11,"Anxious",NA,"In",NA,NA,"EFDGCHBIAJK",NA,NA,"B (MDot First)",2,123,"SS1","SS1",13,"V","Fixation","68owkj",2,"continue","",981.668999999994,981.668999999994,981.668999999994,981.668999999994,981.668999999994,981.668999999994,1,981.668999999994,0,0,NA,"Fixation Timing","Fixation",1,"object-21","V","CFD-WF-009-001-H.jpeg",NA,"SUPTM31721"
"81",1689011757993,"10/07/2023 17:55:57",1689015357993,1,"10/07/2023 19:55:57",137495,33,"task-ycba",NA,30601547,9085742,NA,"complete",NA,NA,"computer","Desktop or Laptop","Windows 10","Chrome 114.0.0.0","1536x864","1536x714",NA,NA,NA,"JV Task P2",11,"Anxious",NA,"In",NA,NA,"EFDGCHBIAJK",NA,NA,"B (MDot First)",2,123,"SS1","SS1",14,"J","Judginess","y8ii7g",1,"continue","",2660.68000002384,2659.213,2660.68000002384,2660.68000002384,2659.213,2660.68000002384,1,2660.68000002384,0,0,NA,"Click To Continue","Continue Button",1,"object-14","J","CFD-IF-693-172-H.jpeg",NA,"SUPTM31721"
"82",1689011757993,"10/07/2023 17:55:57",1689015357993,1,"10/07/2023 19:55:57",137495,33,"task-ycba",NA,30601547,9085742,NA,"complete",NA,NA,"computer","Desktop or Laptop","Windows 10","Chrome 114.0.0.0","1536x864","1536x714",NA,NA,NA,"JV Task P2",11,"Anxious",NA,"In",NA,NA,"EFDGCHBIAJK",NA,NA,"B (MDot First)",2,123,"SS1","SS1",14,"J","Judginess","y8ii7g",1,"response","71",1417.17,2659.213,2660.97999997616,1417.17,2659.213,2660.97999997616,1,1417.17,1243.80999997616,0,NA,"Slider","J",3,"object-18","J","CFD-IF-693-172-H.jpeg",NA,"SUPTM31721"
"83",1689011758979,"10/07/2023 17:55:58",1689015358979,1,"10/07/2023 19:55:58",137495,33,"task-ycba",NA,30601547,9085742,NA,"complete",NA,NA,"computer","Desktop or Laptop","Windows 10","Chrome 114.0.0.0","1536x864","1536x714",NA,NA,NA,"JV Task P2",11,"Anxious",NA,"In",NA,NA,"EFDGCHBIAJK",NA,NA,"B (MDot First)",2,123,"SS1","SS1",14,"J","Fixation","w9zir9",2,"continue","",986.464999999997,986.464999999997,986.464999999997,986.464999999997,986.464999999997,986.464999999997,1,986.464999999997,0,0,NA,"Fixation Timing","Fixation",1,"object-65","J","CFD-IF-693-172-H.jpeg",NA,"SUPTM31721"
"84",1689011760748,"10/07/2023 17:56:00",1689015360748,1,"10/07/2023 19:56:00",137495,33,"task-ycba",NA,30601547,9085742,NA,"complete",NA,NA,"computer","Desktop or Laptop","Windows 10","Chrome 114.0.0.0","1536x864","1536x714",NA,NA,NA,"JV Task P2",11,"Anxious",NA,"In",NA,NA,"EFDGCHBIAJK",NA,NA,"B (MDot First)",2,123,"SS1","SS1",14,"V","Valence","xyoebq",1,"continue","",1770.10200004769,1763.395,1770.10200004769,1770.10200004769,1763.395,1770.10200004769,1,1770.10200004769,0,0,NA,"Click To Continue","Continue Button",1,"object-25","V","CFD-BF-030-002-S.jpeg",NA,"SUPTM31721"
"85",1689011760749,"10/07/2023 17:56:00",1689015360749,1,"10/07/2023 19:56:00",137495,33,"task-ycba",NA,30601547,9085742,NA,"complete",NA,NA,"computer","Desktop or Laptop","Windows 10","Chrome 114.0.0.0","1536x864","1536x714",NA,NA,NA,"JV Task P2",11,"Anxious",NA,"In",NA,NA,"EFDGCHBIAJK",NA,NA,"B (MDot First)",2,123,"SS1","SS1",14,"V","Valence","xyoebq",1,"response","0",1220.213,1763.395,1770.38400000001,1220.213,1763.395,1770.38400000001,1,1220.213,550.171000000002,0,NA,"Slider","J",3,"object-27","V","CFD-BF-030-002-S.jpeg",NA,"SUPTM31721"
"86",1689011761730,"10/07/2023 17:56:01",1689015361730,1,"10/07/2023 19:56:01",137495,33,"task-ycba",NA,30601547,9085742,NA,"complete",NA,NA,"computer","Desktop or Laptop","Windows 10","Chrome 114.0.0.0","1536x864","1536x714",NA,NA,NA,"JV Task P2",11,"Anxious",NA,"In",NA,NA,"EFDGCHBIAJK",NA,NA,"B (MDot First)",2,123,"SS1","SS1",14,"V","Fixation","68owkj",2,"continue","",986.364000000001,986.364000000001,986.364000000001,986.364000000001,986.364000000001,986.364000000001,1,986.364000000001,0,0,NA,"Fixation Timing","Fixation",1,"object-21","V","CFD-BF-030-002-S.jpeg",NA,"SUPTM31721"
"87",1689011766398,"10/07/2023 17:56:06",1689015366398,1,"10/07/2023 19:56:06",137495,33,"task-ycba",NA,30601547,9085742,NA,"complete",NA,NA,"computer","Desktop or Laptop","Windows 10","Chrome 114.0.0.0","1536x864","1536x714",NA,NA,NA,"JV Task P2",11,"Anxious",NA,"In",NA,NA,"EFDGCHBIAJK",NA,NA,"B (MDot First)",2,123,"SS1","SS1",15,"J","Judginess","y8ii7g",1,"continue","",4670.04299997615,4664.118,4670.04299997615,4670.04299997615,4664.118,4670.04299997615,1,4670.04299997615,0,0,NA,"Click To Continue","Continue Button",1,"object-14","J","CFD-MM-313-002-S.jpeg",NA,"SUPTM31721"
"88",1689011766398,"10/07/2023 17:56:06",1689015366398,1,"10/07/2023 19:56:06",137495,33,"task-ycba",NA,30601547,9085742,NA,"complete",NA,NA,"computer","Desktop or Laptop","Windows 10","Chrome 114.0.0.0","1536x864","1536x714",NA,NA,NA,"JV Task P2",11,"Anxious",NA,"In",NA,NA,"EFDGCHBIAJK",NA,NA,"B (MDot First)",2,123,"SS1","SS1",15,"J","Judginess","y8ii7g",1,"response","0",2327.283,4664.118,4670.24300002384,2327.283,4664.118,4670.24300002384,1,2327.283,2342.96000002384,0,NA,"Slider","J",3,"object-18","J","CFD-MM-313-002-S.jpeg",NA,"SUPTM31721"
"89",1689011767373,"10/07/2023 17:56:07",1689015367373,1,"10/07/2023 19:56:07",137495,33,"task-ycba",NA,30601547,9085742,NA,"complete",NA,NA,"computer","Desktop or Laptop","Windows 10","Chrome 114.0.0.0","1536x864","1536x714",NA,NA,NA,"JV Task P2",11,"Anxious",NA,"In",NA,NA,"EFDGCHBIAJK",NA,NA,"B (MDot First)",2,123,"SS1","SS1",15,"J","Fixation","w9zir9",2,"continue","",979.939999999988,979.939999999988,979.939999999988,979.939999999988,979.939999999988,979.939999999988,1,979.939999999988,0,0,NA,"Fixation Timing","Fixation",1,"object-65","J","CFD-MM-313-002-S.jpeg",NA,"SUPTM31721"
"90",1689011769792,"10/07/2023 17:56:09",1689015369792,1,"10/07/2023 19:56:09",137495,33,"task-ycba",NA,30601547,9085742,NA,"complete",NA,NA,"computer","Desktop or Laptop","Windows 10","Chrome 114.0.0.0","1536x864","1536x714",NA,NA,NA,"JV Task P2",11,"Anxious",NA,"In",NA,NA,"EFDGCHBIAJK",NA,NA,"B (MDot First)",2,123,"SS1","SS1",15,"V","Valence","xyoebq",1,"continue","",2420.58500000001,2417.466,2420.58500000001,2420.58500000001,2417.466,2420.58500000001,1,2420.58500000001,0,0,NA,"Click To Continue","Continue Button",1,"object-25","V","CFD-WF-024-003-H.jpeg",NA,"SUPTM31721"
"91",1689011769793,"10/07/2023 17:56:09",1689015369793,1,"10/07/2023 19:56:09",137495,33,"task-ycba",NA,30601547,9085742,NA,"complete",NA,NA,"computer","Desktop or Laptop","Windows 10","Chrome 114.0.0.0","1536x864","1536x714",NA,NA,NA,"JV Task P2",11,"Anxious",NA,"In",NA,NA,"EFDGCHBIAJK",NA,NA,"B (MDot First)",2,123,"SS1","SS1",15,"V","Valence","xyoebq",1,"response","88",1058.75199999999,2417.466,2420.88499995232,1058.75199999999,2417.466,2420.88499995232,1,1058.75199999999,1362.13299995233,0,NA,"Slider","J",3,"object-27","V","CFD-WF-024-003-H.jpeg",NA,"SUPTM31721"
"92",1689011770777,"10/07/2023 17:56:10",1689015370777,1,"10/07/2023 19:56:10",137495,33,"task-ycba",NA,30601547,9085742,NA,"complete",NA,NA,"computer","Desktop or Laptop","Windows 10","Chrome 114.0.0.0","1536x864","1536x714",NA,NA,NA,"JV Task P2",11,"Anxious",NA,"In",NA,NA,"EFDGCHBIAJK",NA,NA,"B (MDot First)",2,123,"SS1","SS1",15,"V","Fixation","68owkj",2,"continue","",985.197000000015,985.197000000015,985.197000000015,985.197000000015,985.197000000015,985.197000000015,1,985.197000000015,0,0,NA,"Fixation Timing","Fixation",1,"object-21","V","CFD-WF-024-003-H.jpeg",NA,"SUPTM31721"
"93",1689011775985,"10/07/2023 17:56:15",1689015375985,1,"10/07/2023 19:56:15",137495,33,"task-ycba",NA,30601547,9085742,NA,"complete",NA,NA,"computer","Desktop or Laptop","Windows 10","Chrome 114.0.0.0","1536x864","1536x714",NA,NA,NA,"JV Task P2",11,"Anxious",NA,"In",NA,NA,"EFDGCHBIAJK",NA,NA,"B (MDot First)",2,123,"SS1","SS1",16,"J","Judginess","y8ii7g",1,"continue","",5209.94499999998,5203.00099999999,5209.94499999998,5209.94499999998,5203.00099999999,5209.94499999998,1,5209.94499999998,0,0,NA,"Click To Continue","Continue Button",1,"object-14","J","CFD-WM-037-025-N.jpg",NA,"SUPTM31721"
"94",1689011775987,"10/07/2023 17:56:15",1689015375987,1,"10/07/2023 19:56:15",137495,33,"task-ycba",NA,30601547,9085742,NA,"complete",NA,NA,"computer","Desktop or Laptop","Windows 10","Chrome 114.0.0.0","1536x864","1536x714",NA,NA,NA,"JV Task P2",11,"Anxious",NA,"In",NA,NA,"EFDGCHBIAJK",NA,NA,"B (MDot First)",2,123,"SS1","SS1",16,"J","Judginess","y8ii7g",1,"response","45",1646.796,5203.00099999999,5209.94499999998,1646.796,5203.00099999999,5209.94499999998,1,1646.796,3563.14899999998,0,NA,"Slider","J",3,"object-18","J","CFD-WM-037-025-N.jpg",NA,"SUPTM31721"
"95",1689011776969,"10/07/2023 17:56:16",1689015376969,1,"10/07/2023 19:56:16",137495,33,"task-ycba",NA,30601547,9085742,NA,"complete",NA,NA,"computer","Desktop or Laptop","Windows 10","Chrome 114.0.0.0","1536x864","1536x714",NA,NA,NA,"JV Task P2",11,"Anxious",NA,"In",NA,NA,"EFDGCHBIAJK",NA,NA,"B (MDot First)",2,123,"SS1","SS1",16,"J","Fixation","w9zir9",2,"continue","",990.801000000007,990.801000000007,990.801000000007,990.801000000007,990.801000000007,990.801000000007,1,990.801000000007,0,0,NA,"Fixation Timing","Fixation",1,"object-65","J","CFD-WM-037-025-N.jpg",NA,"SUPTM31721"
"96",1689011780175,"10/07/2023 17:56:20",1689015380175,1,"10/07/2023 19:56:20",137495,33,"task-ycba",NA,30601547,9085742,NA,"complete",NA,NA,"computer","Desktop or Laptop","Windows 10","Chrome 114.0.0.0","1536x864","1536x714",NA,NA,NA,"JV Task P2",11,"Anxious",NA,"In",NA,NA,"EFDGCHBIAJK",NA,NA,"B (MDot First)",2,123,"SS1","SS1",16,"V","Valence","xyoebq",1,"continue","",3207.12,3202.11900000001,3207.12,3207.12,3202.11900000001,3207.12,1,3207.12,0,0,NA,"Click To Continue","Continue Button",1,"object-25","V","CFD-WM-001-014-H.jpeg",NA,"SUPTM31721"
"97",1689011780176,"10/07/2023 17:56:20",1689015380176,1,"10/07/2023 19:56:20",137495,33,"task-ycba",NA,30601547,9085742,NA,"complete",NA,NA,"computer","Desktop or Laptop","Windows 10","Chrome 114.0.0.0","1536x864","1536x714",NA,NA,NA,"JV Task P2",11,"Anxious",NA,"In",NA,NA,"EFDGCHBIAJK",NA,NA,"B (MDot First)",2,123,"SS1","SS1",16,"V","Valence","xyoebq",1,"response","94",1361.39499999999,3202.11900000001,3207.41999995231,1361.39499999999,3202.11900000001,3207.41999995231,1,1361.39499999999,1846.02499995232,0,NA,"Slider","J",3,"object-27","V","CFD-WM-001-014-H.jpeg",NA,"SUPTM31721"
"98",1689011781162,"10/07/2023 17:56:21",1689015381162,1,"10/07/2023 19:56:21",137495,33,"task-ycba",NA,30601547,9085742,NA,"complete",NA,NA,"computer","Desktop or Laptop","Windows 10","Chrome 114.0.0.0","1536x864","1536x714",NA,NA,NA,"JV Task P2",11,"Anxious",NA,"In",NA,NA,"EFDGCHBIAJK",NA,NA,"B (MDot First)",2,123,"SS1","SS1",16,"V","Fixation","68owkj",2,"continue","",991.463999999978,991.463999999978,991.463999999978,991.463999999978,991.463999999978,991.463999999978,1,991.463999999978,0,0,NA,"Fixation Timing","Fixation",1,"object-21","V","CFD-WM-001-014-H.jpeg",NA,"SUPTM31721"
"99",1689011782955,"10/07/2023 17:56:22",1689015382955,1,"10/07/2023 19:56:22",137495,33,"task-ycba",NA,30601547,9085742,NA,"complete",NA,NA,"computer","Desktop or Laptop","Windows 10","Chrome 114.0.0.0","1536x864","1536x714",NA,NA,NA,"JV Task P2",11,"Anxious",NA,"In",NA,NA,"EFDGCHBIAJK",NA,NA,"B (MDot First)",2,123,"SS1","SS1",17,"J","Judginess","y8ii7g",1,"continue","",1792.73700004769,1786.497,1792.73700004769,1792.73700004769,1786.497,1792.73700004769,1,1792.73700004769,0,0,NA,"Click To Continue","Continue Button",1,"object-14","J","CFD-BF-029-031-S.jpeg",NA,"SUPTM31721"
"100",1689011782955,"10/07/2023 17:56:22",1689015382955,1,"10/07/2023 19:56:22",137495,33,"task-ycba",NA,30601547,9085742,NA,"complete",NA,NA,"computer","Desktop or Laptop","Windows 10","Chrome 114.0.0.0","1536x864","1536x714",NA,NA,NA,"JV Task P2",11,"Anxious",NA,"In",NA,NA,"EFDGCHBIAJK",NA,NA,"B (MDot First)",2,123,"SS1","SS1",17,"J","Judginess","y8ii7g",1,"response","5",1206.09600000002,1786.497,1793.03700000001,1206.09600000002,1786.497,1793.03700000001,1,1206.09600000002,586.940999999992,0,NA,"Slider","J",3,"object-18","J","CFD-BF-029-031-S.jpeg",NA,"SUPTM31721"
"101",1689011783935,"10/07/2023 17:56:23",1689015383935,1,"10/07/2023 19:56:23",137495,33,"task-ycba",NA,30601547,9085742,NA,"complete",NA,NA,"computer","Desktop or Laptop","Windows 10","Chrome 114.0.0.0","1536x864","1536x714",NA,NA,NA,"JV Task P2",11,"Anxious",NA,"In",NA,NA,"EFDGCHBIAJK",NA,NA,"B (MDot First)",2,123,"SS1","SS1",17,"J","Fixation","w9zir9",2,"continue","",984.206000000006,984.206000000006,984.206000000006,984.206000000006,984.206000000006,984.206000000006,1,984.206000000006,0,0,NA,"Fixation Timing","Fixation",1,"object-65","J","CFD-BF-029-031-S.jpeg",NA,"SUPTM31721"
"102",1689011786231,"10/07/2023 17:56:26",1689015386231,1,"10/07/2023 19:56:26",137495,33,"task-ycba",NA,30601547,9085742,NA,"complete",NA,NA,"computer","Desktop or Laptop","Windows 10","Chrome 114.0.0.0","1536x864","1536x714",NA,NA,NA,"JV Task P2",11,"Anxious",NA,"In",NA,NA,"EFDGCHBIAJK",NA,NA,"B (MDot First)",2,123,"SS1","SS1",18,"J","Judginess","y8ii7g",1,"continue","",2298.73399997616,2292.58300000001,2298.73399997616,2298.73399997616,2292.58300000001,2298.73399997616,1,2298.73399997616,0,0,NA,"Click To Continue","Continue Button",1,"object-14","J","CFD-WF-039-025-H.jpeg",NA,"SUPTM31721"
"103",1689011786234,"10/07/2023 17:56:26",1689015386234,1,"10/07/2023 19:56:26",137495,33,"task-ycba",NA,30601547,9085742,NA,"complete",NA,NA,"computer","Desktop or Laptop","Windows 10","Chrome 114.0.0.0","1536x864","1536x714",NA,NA,NA,"JV Task P2",11,"Anxious",NA,"In",NA,NA,"EFDGCHBIAJK",NA,NA,"B (MDot First)",2,123,"SS1","SS1",18,"J","Judginess","y8ii7g",1,"response","61",1289.49900000001,2292.58300000001,2299.53200000004,1289.49900000001,2292.58300000001,2299.53200000004,1,1289.49900000001,1010.03300000002,0,NA,"Slider","J",3,"object-18","J","CFD-WF-039-025-H.jpeg",NA,"SUPTM31721"
"104",1689011787219,"10/07/2023 17:56:27",1689015387219,1,"10/07/2023 19:56:27",137495,33,"task-ycba",NA,30601547,9085742,NA,"complete",NA,NA,"computer","Desktop or Laptop","Windows 10","Chrome 114.0.0.0","1536x864","1536x714",NA,NA,NA,"JV Task P2",11,"Anxious",NA,"In",NA,NA,"EFDGCHBIAJK",NA,NA,"B (MDot First)",2,123,"SS1","SS1",18,"J","Fixation","w9zir9",2,"continue","",993.084999999992,993.084999999992,993.084999999992,993.084999999992,993.084999999992,993.084999999992,1,993.084999999992,0,0,NA,"Fixation Timing","Fixation",1,"object-65","J","CFD-WF-039-025-H.jpeg",NA,"SUPTM31721"
"105",1689011790153,"10/07/2023 17:56:30",1689015390153,1,"10/07/2023 19:56:30",137495,33,"task-ycba",NA,30601547,9085742,NA,"complete",NA,NA,"computer","Desktop or Laptop","Windows 10","Chrome 114.0.0.0","1536x864","1536x714",NA,NA,NA,"JV Task P2",11,"Anxious",NA,"In",NA,NA,"EFDGCHBIAJK",NA,NA,"B (MDot First)",2,123,"SS1","SS1",19,"J","Judginess","y8ii7g",1,"continue","",2934.36600004768,2931.405,2934.36600004768,2934.36600004768,2931.405,2934.36600004768,1,2934.36600004768,0,0,NA,"Click To Continue","Continue Button",1,"object-14","J","CFD-BM-028-002-N.jpg",NA,"SUPTM31721"
"106",1689011790153,"10/07/2023 17:56:30",1689015390153,1,"10/07/2023 19:56:30",137495,33,"task-ycba",NA,30601547,9085742,NA,"complete",NA,NA,"computer","Desktop or Laptop","Windows 10","Chrome 114.0.0.0","1536x864","1536x714",NA,NA,NA,"JV Task P2",11,"Anxious",NA,"In",NA,NA,"EFDGCHBIAJK",NA,NA,"B (MDot First)",2,123,"SS1","SS1",19,"J","Judginess","y8ii7g",1,"response","0",1091.59299999999,2931.405,2934.56599997616,1091.59299999999,2931.405,2934.56599997616,1,1091.59299999999,1842.97299997616,0,NA,"Slider","J",3,"object-18","J","CFD-BM-028-002-N.jpg",NA,"SUPTM31721"
"107",1689011791136,"10/07/2023 17:56:31",1689015391136,1,"10/07/2023 19:56:31",137495,33,"task-ycba",NA,30601547,9085742,NA,"complete",NA,NA,"computer","Desktop or Laptop","Windows 10","Chrome 114.0.0.0","1536x864","1536x714",NA,NA,NA,"JV Task P2",11,"Anxious",NA,"In",NA,NA,"EFDGCHBIAJK",NA,NA,"B (MDot First)",2,123,"SS1","SS1",19,"J","Fixation","w9zir9",2,"continue","",984.302999999985,984.302999999985,984.302999999985,984.302999999985,984.302999999985,984.302999999985,1,984.302999999985,0,0,NA,"Fixation Timing","Fixation",1,"object-65","J","CFD-BM-028-002-N.jpg",NA,"SUPTM31721"
"108",1689011793586,"10/07/2023 17:56:33",1689015393586,1,"10/07/2023 19:56:33",137495,33,"task-ycba",NA,30601547,9085742,NA,"complete",NA,NA,"computer","Desktop or Laptop","Windows 10","Chrome 114.0.0.0","1536x864","1536x714",NA,NA,NA,"JV Task P2",11,"Anxious",NA,"In",NA,NA,"EFDGCHBIAJK",NA,NA,"B (MDot First)",2,123,"SS1","SS1",20,"J","Judginess","y8ii7g",1,"continue","",2451.6580000477,2445.49800000002,2451.6580000477,2451.6580000477,2445.49800000002,2451.6580000477,1,2451.6580000477,0,0,NA,"Click To Continue","Continue Button",1,"object-14","J","CFD-WF-030-002-S.jpeg",NA,"SUPTM31721"
"109",1689011793586,"10/07/2023 17:56:33",1689015393586,1,"10/07/2023 19:56:33",137495,33,"task-ycba",NA,30601547,9085742,NA,"complete",NA,NA,"computer","Desktop or Laptop","Windows 10","Chrome 114.0.0.0","1536x864","1536x714",NA,NA,NA,"JV Task P2",11,"Anxious",NA,"In",NA,NA,"EFDGCHBIAJK",NA,NA,"B (MDot First)",2,123,"SS1","SS1",20,"J","Judginess","y8ii7g",1,"response","19",1402.72400000002,2445.49800000002,2451.95800000001,1402.72400000002,2445.49800000002,2451.95800000001,1,1402.72400000002,1049.234,0,NA,"Slider","J",3,"object-18","J","CFD-WF-030-002-S.jpeg",NA,"SUPTM31721"
"110",1689011794573,"10/07/2023 17:56:34",1689015394573,1,"10/07/2023 19:56:34",137495,33,"task-ycba",NA,30601547,9085742,NA,"complete",NA,NA,"computer","Desktop or Laptop","Windows 10","Chrome 114.0.0.0","1536x864","1536x714",NA,NA,NA,"JV Task P2",11,"Anxious",NA,"In",NA,NA,"EFDGCHBIAJK",NA,NA,"B (MDot First)",2,123,"SS1","SS1",20,"J","Fixation","w9zir9",2,"continue","",991.991999999998,991.991999999998,991.991999999998,991.991999999998,991.991999999998,991.991999999998,1,991.991999999998,0,0,NA,"Fixation Timing","Fixation",1,"object-65","J","CFD-WF-030-002-S.jpeg",NA,"SUPTM31721"
"111",1689011796636,"10/07/2023 17:56:36",1689015396636,1,"10/07/2023 19:56:36",137495,33,"task-ycba",NA,30601547,9085742,NA,"complete",NA,NA,"computer","Desktop or Laptop","Windows 10","Chrome 114.0.0.0","1536x864","1536x714",NA,NA,NA,"JV Task P2",11,"Anxious",NA,"In",NA,NA,"EFDGCHBIAJK",NA,NA,"B (MDot First)",2,123,"SS1","SS1",21,"J","Judginess","y8ii7g",1,"continue","",2064.06800002384,2057.41499999998,2064.06800002384,2064.06800002384,2057.41499999998,2064.06800002384,1,2064.06800002384,0,0,NA,"Click To Continue","Continue Button",1,"object-14","J","CFD-BF-030-002-S.jpeg",NA,"SUPTM31721"
"112",1689011796639,"10/07/2023 17:56:36",1689015396639,1,"10/07/2023 19:56:36",137495,33,"task-ycba",NA,30601547,9085742,NA,"complete",NA,NA,"computer","Desktop or Laptop","Windows 10","Chrome 114.0.0.0","1536x864","1536x714",NA,NA,NA,"JV Task P2",11,"Anxious",NA,"In",NA,NA,"EFDGCHBIAJK",NA,NA,"B (MDot First)",2,123,"SS1","SS1",21,"J","Judginess","y8ii7g",1,"response","6",1076.497,2057.41499999998,2064.35899999997,1076.497,2057.41499999998,2064.35899999997,1,1076.497,987.861999999965,0,NA,"Slider","J",3,"object-18","J","CFD-BF-030-002-S.jpeg",NA,"SUPTM31721"
"113",1689011797620,"10/07/2023 17:56:37",1689015397620,1,"10/07/2023 19:56:37",137495,33,"task-ycba",NA,30601547,9085742,NA,"complete",NA,NA,"computer","Desktop or Laptop","Windows 10","Chrome 114.0.0.0","1536x864","1536x714",NA,NA,NA,"JV Task P2",11,"Anxious",NA,"In",NA,NA,"EFDGCHBIAJK",NA,NA,"B (MDot First)",2,123,"SS1","SS1",21,"J","Fixation","w9zir9",2,"continue","",990.700000000012,990.700000000012,990.700000000012,990.700000000012,990.700000000012,990.700000000012,1,990.700000000012,0,0,NA,"Fixation Timing","Fixation",1,"object-65","J","CFD-BF-030-002-S.jpeg",NA,"SUPTM31721"
"114",1689011799628,"10/07/2023 17:56:39",1689015399628,1,"10/07/2023 19:56:39",137495,33,"task-ycba",NA,30601547,9085742,NA,"complete",NA,NA,"computer","Desktop or Laptop","Windows 10","Chrome 114.0.0.0","1536x864","1536x714",NA,NA,NA,"JV Task P2",11,"Anxious",NA,"In",NA,NA,"EFDGCHBIAJK",NA,NA,"B (MDot First)",2,123,"SS1","SS1",22,"J","Judginess","y8ii7g",1,"continue","",2008.05300004769,2004.82399999999,2008.05300004769,2008.05300004769,2004.82399999999,2008.05300004769,1,2008.05300004769,0,0,NA,"Click To Continue","Continue Button",1,"object-14","J","CFD-IM-711-011-S.jpeg",NA,"SUPTM31721"
"115",1689011799628,"10/07/2023 17:56:39",1689015399628,1,"10/07/2023 19:56:39",137495,33,"task-ycba",NA,30601547,9085742,NA,"complete",NA,NA,"computer","Desktop or Laptop","Windows 10","Chrome 114.0.0.0","1536x864","1536x714",NA,NA,NA,"JV Task P2",11,"Anxious",NA,"In",NA,NA,"EFDGCHBIAJK",NA,NA,"B (MDot First)",2,123,"SS1","SS1",22,"J","Judginess","y8ii7g",1,"response","0",1335.16500000001,2004.82399999999,2008.353,1335.16500000001,2004.82399999999,2008.353,1,1335.16500000001,673.187999999995,0,NA,"Slider","J",3,"object-18","J","CFD-IM-711-011-S.jpeg",NA,"SUPTM31721"
"116",1689011800614,"10/07/2023 17:56:40",1689015400614,1,"10/07/2023 19:56:40",137495,33,"task-ycba",NA,30601547,9085742,NA,"complete",NA,NA,"computer","Desktop or Laptop","Windows 10","Chrome 114.0.0.0","1536x864","1536x714",NA,NA,NA,"JV Task P2",11,"Anxious",NA,"In",NA,NA,"EFDGCHBIAJK",NA,NA,"B (MDot First)",2,123,"SS1","SS1",22,"J","Fixation","w9zir9",2,"continue","",988.320000000007,988.320000000007,988.320000000007,988.320000000007,988.320000000007,988.320000000007,1,988.320000000007,0,0,NA,"Fixation Timing","Fixation",1,"object-65","J","CFD-IM-711-011-S.jpeg",NA,"SUPTM31721"
"117",1689011802632,"10/07/2023 17:56:42",1689015402632,1,"10/07/2023 19:56:42",137495,33,"task-ycba",NA,30601547,9085742,NA,"complete",NA,NA,"computer","Desktop or Laptop","Windows 10","Chrome 114.0.0.0","1536x864","1536x714",NA,NA,NA,"JV Task P2",11,"Anxious",NA,"In",NA,NA,"EFDGCHBIAJK",NA,NA,"B (MDot First)",2,123,"SS1","SS1",17,"V","Valence","xyoebq",1,"continue","",2019.209,2013.61600000001,2019.209,2019.209,2013.61600000001,2019.209,1,2019.209,0,0,NA,"Click To Continue","Continue Button",1,"object-25","V","CFD-WF-027-003-S.jpeg",NA,"SUPTM31721"
"118",1689011802632,"10/07/2023 17:56:42",1689015402632,1,"10/07/2023 19:56:42",137495,33,"task-ycba",NA,30601547,9085742,NA,"complete",NA,NA,"computer","Desktop or Laptop","Windows 10","Chrome 114.0.0.0","1536x864","1536x714",NA,NA,NA,"JV Task P2",11,"Anxious",NA,"In",NA,NA,"EFDGCHBIAJK",NA,NA,"B (MDot First)",2,123,"SS1","SS1",17,"V","Valence","xyoebq",1,"response","0",1219.29699999999,2013.61600000001,2019.40900004769,1219.29699999999,2013.61600000001,2019.40900004769,1,1219.29699999999,800.112000047695,0,NA,"Slider","J",3,"object-27","V","CFD-WF-027-003-S.jpeg",NA,"SUPTM31721"
"119",1689011803614,"10/07/2023 17:56:43",1689015403614,1,"10/07/2023 19:56:43",137495,33,"task-ycba",NA,30601547,9085742,NA,"complete",NA,NA,"computer","Desktop or Laptop","Windows 10","Chrome 114.0.0.0","1536x864","1536x714",NA,NA,NA,"JV Task P2",11,"Anxious",NA,"In",NA,NA,"EFDGCHBIAJK",NA,NA,"B (MDot First)",2,123,"SS1","SS1",17,"V","Fixation","68owkj",2,"continue","",986.497000000003,986.497000000003,986.497000000003,986.497000000003,986.497000000003,986.497000000003,1,986.497000000003,0,0,NA,"Fixation Timing","Fixation",1,"object-21","V","CFD-WF-027-003-S.jpeg",NA,"SUPTM31721"
"120",1689011807194,"10/07/2023 17:56:47",1689015407194,1,"10/07/2023 19:56:47",137495,33,"task-ycba",NA,30601547,9085742,NA,"complete",NA,NA,"computer","Desktop or Laptop","Windows 10","Chrome 114.0.0.0","1536x864","1536x714",NA,NA,NA,"JV Task P2",11,"Anxious",NA,"In",NA,NA,"EFDGCHBIAJK",NA,NA,"B (MDot First)",2,123,"SS1","SS1",23,"J","Judginess","y8ii7g",1,"continue","",3581.19600002383,3577.63699999999,3581.19600002383,3581.19600002383,3577.63699999999,3581.19600002383,1,3581.19600002383,0,0,NA,"Click To Continue","Continue Button",1,"object-14","J","CFD-BF-008-001-H.jpeg",NA,"SUPTM31721"
"121",1689011807196,"10/07/2023 17:56:47",1689015407196,1,"10/07/2023 19:56:47",137495,33,"task-ycba",NA,30601547,9085742,NA,"complete",NA,NA,"computer","Desktop or Laptop","Windows 10","Chrome 114.0.0.0","1536x864","1536x714",NA,NA,NA,"JV Task P2",11,"Anxious",NA,"In",NA,NA,"EFDGCHBIAJK",NA,NA,"B (MDot First)",2,123,"SS1","SS1",23,"J","Judginess","y8ii7g",1,"response","57",2860.44399999999,3577.63699999999,3583.19600002383,2860.44399999999,3577.63699999999,3583.19600002383,1,2860.44399999999,722.752000023844,0,NA,"Slider","J",3,"object-18","J","CFD-BF-008-001-H.jpeg",NA,"SUPTM31721"
"122",1689011808183,"10/07/2023 17:56:48",1689015408183,1,"10/07/2023 19:56:48",137495,33,"task-ycba",NA,30601547,9085742,NA,"complete",NA,NA,"computer","Desktop or Laptop","Windows 10","Chrome 114.0.0.0","1536x864","1536x714",NA,NA,NA,"JV Task P2",11,"Anxious",NA,"In",NA,NA,"EFDGCHBIAJK",NA,NA,"B (MDot First)",2,123,"SS1","SS1",23,"J","Fixation","w9zir9",2,"continue","",991.983000000007,991.983000000007,991.983000000007,991.983000000007,991.983000000007,991.983000000007,1,991.983000000007,0,0,NA,"Fixation Timing","Fixation",1,"object-65","J","CFD-BF-008-001-H.jpeg",NA,"SUPTM31721"
"123",1689011810006,"10/07/2023 17:56:50",1689015410006,1,"10/07/2023 19:56:50",137495,33,"task-ycba",NA,30601547,9085742,NA,"complete",NA,NA,"computer","Desktop or Laptop","Windows 10","Chrome 114.0.0.0","1536x864","1536x714",NA,NA,NA,"JV Task P2",11,"Anxious",NA,"In",NA,NA,"EFDGCHBIAJK",NA,NA,"B (MDot First)",2,123,"SS1","SS1",24,"J","Judginess","y8ii7g",1,"continue","",1823.17600004768,1820.304,1823.17600004768,1823.17600004768,1820.304,1823.17600004768,1,1823.17600004768,0,0,NA,"Click To Continue","Continue Button",1,"object-14","J","CFD-BF-029-031-N.jpg",NA,"SUPTM31721"
"124",1689011810006,"10/07/2023 17:56:50",1689015410006,1,"10/07/2023 19:56:50",137495,33,"task-ycba",NA,30601547,9085742,NA,"complete",NA,NA,"computer","Desktop or Laptop","Windows 10","Chrome 114.0.0.0","1536x864","1536x714",NA,NA,NA,"JV Task P2",11,"Anxious",NA,"In",NA,NA,"EFDGCHBIAJK",NA,NA,"B (MDot First)",2,123,"SS1","SS1",24,"J","Judginess","y8ii7g",1,"response","0",1311.66,1820.304,1823.476,1311.66,1820.304,1823.476,1,1311.66,511.815999999992,0,NA,"Slider","J",3,"object-18","J","CFD-BF-029-031-N.jpg",NA,"SUPTM31721"
"125",1689011810991,"10/07/2023 17:56:50",1689015410991,1,"10/07/2023 19:56:50",137495,33,"task-ycba",NA,30601547,9085742,NA,"complete",NA,NA,"computer","Desktop or Laptop","Windows 10","Chrome 114.0.0.0","1536x864","1536x714",NA,NA,NA,"JV Task P2",11,"Anxious",NA,"In",NA,NA,"EFDGCHBIAJK",NA,NA,"B (MDot First)",2,123,"SS1","SS1",24,"J","Fixation","w9zir9",2,"continue","",987.661999999982,987.661999999982,987.661999999982,987.661999999982,987.661999999982,987.661999999982,1,987.661999999982,0,0,NA,"Fixation Timing","Fixation",1,"object-65","J","CFD-BF-029-031-N.jpg",NA,"SUPTM31721"
"126",1689011817992,"10/07/2023 17:56:57",1689015417992,1,"10/07/2023 19:56:57",137495,33,"task-ycba",NA,30601547,9085742,NA,"complete",NA,NA,"computer","Desktop or Laptop","Windows 10","Chrome 114.0.0.0","1536x864","1536x714",NA,NA,NA,"JV Task P2",11,"Anxious",NA,"In",NA,NA,"EFDGCHBIAJK",NA,NA,"B (MDot First)",2,123,"SS1","SS1",25,"J","Judginess","y8ii7g",1,"continue","",7000.15300000002,6993.21100000001,7000.15300000002,7000.15300000002,6993.21100000001,7000.15300000002,1,7000.15300000002,0,0,NA,"Click To Continue","Continue Button",1,"object-14","J","CFD-WF-011-002-N.jpg",NA,"SUPTM31721"
"127",1689011817993,"10/07/2023 17:56:57",1689015417993,1,"10/07/2023 19:56:57",137495,33,"task-ycba",NA,30601547,9085742,NA,"complete",NA,NA,"computer","Desktop or Laptop","Windows 10","Chrome 114.0.0.0","1536x864","1536x714",NA,NA,NA,"JV Task P2",11,"Anxious",NA,"In",NA,NA,"EFDGCHBIAJK",NA,NA,"B (MDot First)",2,123,"SS1","SS1",25,"J","Judginess","y8ii7g",1,"response","28",1546.389,6993.21100000001,7000.15300000002,1546.389,6993.21100000001,7000.15300000002,1,1546.389,5453.76400000002,0,NA,"Slider","J",3,"object-18","J","CFD-WF-011-002-N.jpg",NA,"SUPTM31721"
"128",1689011818973,"10/07/2023 17:56:58",1689015418973,1,"10/07/2023 19:56:58",137495,33,"task-ycba",NA,30601547,9085742,NA,"complete",NA,NA,"computer","Desktop or Laptop","Windows 10","Chrome 114.0.0.0","1536x864","1536x714",NA,NA,NA,"JV Task P2",11,"Anxious",NA,"In",NA,NA,"EFDGCHBIAJK",NA,NA,"B (MDot First)",2,123,"SS1","SS1",25,"J","Fixation","w9zir9",2,"continue","",988.918000000005,988.918000000005,988.918000000005,988.918000000005,988.918000000005,988.918000000005,1,988.918000000005,0,0,NA,"Fixation Timing","Fixation",1,"object-65","J","CFD-WF-011-002-N.jpg",NA,"SUPTM31721"
"129",1689011820742,"10/07/2023 17:57:00",1689015420742,1,"10/07/2023 19:57:00",137495,33,"task-ycba",NA,30601547,9085742,NA,"complete",NA,NA,"computer","Desktop or Laptop","Windows 10","Chrome 114.0.0.0","1536x864","1536x714",NA,NA,NA,"JV Task P2",11,"Anxious",NA,"In",NA,NA,"EFDGCHBIAJK",NA,NA,"B (MDot First)",2,123,"SS1","SS1",26,"J","Judginess","y8ii7g",1,"continue","",1768.98100002384,1765.49299999999,1768.98100002384,1768.98100002384,1765.49299999999,1768.98100002384,1,1768.98100002384,0,0,NA,"Click To Continue","Continue Button",1,"object-14","J","CFD-IF-693-172-H.jpeg",NA,"SUPTM31721"
"130",1689011820742,"10/07/2023 17:57:00",1689015420742,1,"10/07/2023 19:57:00",137495,33,"task-ycba",NA,30601547,9085742,NA,"complete",NA,NA,"computer","Desktop or Laptop","Windows 10","Chrome 114.0.0.0","1536x864","1536x714",NA,NA,NA,"JV Task P2",11,"Anxious",NA,"In",NA,NA,"EFDGCHBIAJK",NA,NA,"B (MDot First)",2,123,"SS1","SS1",26,"J","Judginess","y8ii7g",1,"response","69",977.362999999983,1765.49299999999,1769.28099997615,977.362999999983,1765.49299999999,1769.28099997615,1,977.362999999983,791.917999976169,0,NA,"Slider","J",3,"object-18","J","CFD-IF-693-172-H.jpeg",NA,"SUPTM31721"
"131",1689011821717,"10/07/2023 17:57:01",1689015421717,1,"10/07/2023 19:57:01",137495,33,"task-ycba",NA,30601547,9085742,NA,"complete",NA,NA,"computer","Desktop or Laptop","Windows 10","Chrome 114.0.0.0","1536x864","1536x714",NA,NA,NA,"JV Task P2",11,"Anxious",NA,"In",NA,NA,"EFDGCHBIAJK",NA,NA,"B (MDot First)",2,123,"SS1","SS1",26,"J","Fixation","w9zir9",2,"continue","",978.581999999995,978.581999999995,978.581999999995,978.581999999995,978.581999999995,978.581999999995,1,978.581999999995,0,0,NA,"Fixation Timing","Fixation",1,"object-65","J","CFD-IF-693-172-H.jpeg",NA,"SUPTM31721"
"132",1689011825665,"10/07/2023 17:57:05",1689015425665,1,"10/07/2023 19:57:05",137495,33,"task-ycba",NA,30601547,9085742,NA,"complete",NA,NA,"computer","Desktop or Laptop","Windows 10","Chrome 114.0.0.0","1536x864","1536x714",NA,NA,NA,"JV Task P2",11,"Anxious",NA,"In",NA,NA,"EFDGCHBIAJK",NA,NA,"B (MDot First)",2,123,"SS1","SS1",18,"V","Valence","xyoebq",1,"continue","",3947.22500000001,3940.27900000001,3947.22500000001,3947.22500000001,3940.27900000001,3947.22500000001,1,3947.22500000001,0,0,NA,"Click To Continue","Continue Button",1,"object-25","V","CFD-BF-029-031-H.jpeg",NA,"SUPTM31721"
"133",1689011825665,"10/07/2023 17:57:05",1689015425665,1,"10/07/2023 19:57:05",137495,33,"task-ycba",NA,30601547,9085742,NA,"complete",NA,NA,"computer","Desktop or Laptop","Windows 10","Chrome 114.0.0.0","1536x864","1536x714",NA,NA,NA,"JV Task P2",11,"Anxious",NA,"In",NA,NA,"EFDGCHBIAJK",NA,NA,"B (MDot First)",2,123,"SS1","SS1",18,"V","Valence","xyoebq",1,"response","77",1231.891,3940.27900000001,3947.22500000001,1231.891,3940.27900000001,3947.22500000001,1,1231.891,2715.334,0,NA,"Slider","J",3,"object-27","V","CFD-BF-029-031-H.jpeg",NA,"SUPTM31721"
"134",1689011826641,"10/07/2023 17:57:06",1689015426641,1,"10/07/2023 19:57:06",137495,33,"task-ycba",NA,30601547,9085742,NA,"complete",NA,NA,"computer","Desktop or Laptop","Windows 10","Chrome 114.0.0.0","1536x864","1536x714",NA,NA,NA,"JV Task P2",11,"Anxious",NA,"In",NA,NA,"EFDGCHBIAJK",NA,NA,"B (MDot First)",2,123,"SS1","SS1",18,"V","Fixation","68owkj",2,"continue","",982.948000000004,982.948000000004,982.948000000004,982.948000000004,982.948000000004,982.948000000004,1,982.948000000004,0,0,NA,"Fixation Timing","Fixation",1,"object-21","V","CFD-BF-029-031-H.jpeg",NA,"SUPTM31721"
"135",1689011828531,"10/07/2023 17:57:08",1689015428531,1,"10/07/2023 19:57:08",137495,33,"task-ycba",NA,30601547,9085742,NA,"complete",NA,NA,"computer","Desktop or Laptop","Windows 10","Chrome 114.0.0.0","1536x864","1536x714",NA,NA,NA,"JV Task P2",11,"Anxious",NA,"In",NA,NA,"EFDGCHBIAJK",NA,NA,"B (MDot First)",2,123,"SS1","SS1",27,"J","Judginess","y8ii7g",1,"continue","",1891.47899997616,1889.02799999999,1891.47899997616,1891.47899997616,1889.02799999999,1891.47899997616,1,1891.47899997616,0,0,NA,"Click To Continue","Continue Button",1,"object-14","J","CFD-AF-233-190-H.jpeg",NA,"SUPTM31721"
"136",1689011828534,"10/07/2023 17:57:08",1689015428534,1,"10/07/2023 19:57:08",137495,33,"task-ycba",NA,30601547,9085742,NA,"complete",NA,NA,"computer","Desktop or Laptop","Windows 10","Chrome 114.0.0.0","1536x864","1536x714",NA,NA,NA,"JV Task P2",11,"Anxious",NA,"In",NA,NA,"EFDGCHBIAJK",NA,NA,"B (MDot First)",2,123,"SS1","SS1",27,"J","Judginess","y8ii7g",1,"response","67",1020.821,1889.02799999999,1893.87899995231,1020.821,1889.02799999999,1893.87899995231,1,1020.821,873.057999952318,0,NA,"Slider","J",3,"object-18","J","CFD-AF-233-190-H.jpeg",NA,"SUPTM31721"
"137",1689011829517,"10/07/2023 17:57:09",1689015429517,1,"10/07/2023 19:57:09",137495,33,"task-ycba",NA,30601547,9085742,NA,"complete",NA,NA,"computer","Desktop or Laptop","Windows 10","Chrome 114.0.0.0","1536x864","1536x714",NA,NA,NA,"JV Task P2",11,"Anxious",NA,"In",NA,NA,"EFDGCHBIAJK",NA,NA,"B (MDot First)",2,123,"SS1","SS1",27,"J","Fixation","w9zir9",2,"continue","",987.312000000005,987.312000000005,987.312000000005,987.312000000005,987.312000000005,987.312000000005,1,987.312000000005,0,0,NA,"Fixation Timing","Fixation",1,"object-65","J","CFD-AF-233-190-H.jpeg",NA,"SUPTM31721"
"138",1689011833864,"10/07/2023 17:57:13",1689015433864,1,"10/07/2023 19:57:13",137495,33,"task-ycba",NA,30601547,9085742,NA,"complete",NA,NA,"computer","Desktop or Laptop","Windows 10","Chrome 114.0.0.0","1536x864","1536x714",NA,NA,NA,"JV Task P2",11,"Anxious",NA,"In",NA,NA,"EFDGCHBIAJK",NA,NA,"B (MDot First)",2,123,"SS1","SS1",28,"J","Judginess","y8ii7g",1,"continue","",4347.83900002384,4346.15400000001,4347.83900002384,4347.83900002384,4346.15400000001,4347.83900002384,1,4347.83900002384,0,0,NA,"Click To Continue","Continue Button",1,"object-14","J","CFD-MM-313-002-H.jpeg",NA,"SUPTM31721"
"139",1689011833864,"10/07/2023 17:57:13",1689015433864,1,"10/07/2023 19:57:13",137495,33,"task-ycba",NA,30601547,9085742,NA,"complete",NA,NA,"computer","Desktop or Laptop","Windows 10","Chrome 114.0.0.0","1536x864","1536x714",NA,NA,NA,"JV Task P2",11,"Anxious",NA,"In",NA,NA,"EFDGCHBIAJK",NA,NA,"B (MDot First)",2,123,"SS1","SS1",28,"J","Judginess","y8ii7g",1,"response","65",887.320999999996,4346.15400000001,4348.13899997616,887.320999999996,4346.15400000001,4348.13899997616,1,887.320999999996,3460.81799997616,0,NA,"Slider","J",3,"object-18","J","CFD-MM-313-002-H.jpeg",NA,"SUPTM31721"
"140",1689011834842,"10/07/2023 17:57:14",1689015434842,1,"10/07/2023 19:57:14",137495,33,"task-ycba",NA,30601547,9085742,NA,"complete",NA,NA,"computer","Desktop or Laptop","Windows 10","Chrome 114.0.0.0","1536x864","1536x714",NA,NA,NA,"JV Task P2",11,"Anxious",NA,"In",NA,NA,"EFDGCHBIAJK",NA,NA,"B (MDot First)",2,123,"SS1","SS1",28,"J","Fixation","w9zir9",2,"continue","",978.673999999999,978.673999999999,978.673999999999,978.673999999999,978.673999999999,978.673999999999,1,978.673999999999,0,0,NA,"Fixation Timing","Fixation",1,"object-65","J","CFD-MM-313-002-H.jpeg",NA,"SUPTM31721"
"141",1689011836728,"10/07/2023 17:57:16",1689015436728,1,"10/07/2023 19:57:16",137495,33,"task-ycba",NA,30601547,9085742,NA,"complete",NA,NA,"computer","Desktop or Laptop","Windows 10","Chrome 114.0.0.0","1536x864","1536x714",NA,NA,NA,"JV Task P2",11,"Anxious",NA,"In",NA,NA,"EFDGCHBIAJK",NA,NA,"B (MDot First)",2,123,"SS1","SS1",19,"V","Valence","xyoebq",1,"continue","",1887.11100004768,1881.80100000001,1887.11100004768,1887.11100004768,1881.80100000001,1887.11100004768,1,1887.11100004768,0,0,NA,"Click To Continue","Continue Button",1,"object-25","V","CFD-AM-225-102-N.jpg",NA,"SUPTM31721"
"142",1689011836728,"10/07/2023 17:57:16",1689015436728,1,"10/07/2023 19:57:16",137495,33,"task-ycba",NA,30601547,9085742,NA,"complete",NA,NA,"computer","Desktop or Laptop","Windows 10","Chrome 114.0.0.0","1536x864","1536x714",NA,NA,NA,"JV Task P2",11,"Anxious",NA,"In",NA,NA,"EFDGCHBIAJK",NA,NA,"B (MDot First)",2,123,"SS1","SS1",19,"V","Valence","xyoebq",1,"response","0",1133.68099999998,1881.80100000001,1887.41099999999,1133.68099999998,1881.80100000001,1887.41099999999,1,1133.68099999998,753.73000000001,0,NA,"Slider","J",3,"object-27","V","CFD-AM-225-102-N.jpg",NA,"SUPTM31721"
"143",1689011837709,"10/07/2023 17:57:17",1689015437709,1,"10/07/2023 19:57:17",137495,33,"task-ycba",NA,30601547,9085742,NA,"complete",NA,NA,"computer","Desktop or Laptop","Windows 10","Chrome 114.0.0.0","1536x864","1536x714",NA,NA,NA,"JV Task P2",11,"Anxious",NA,"In",NA,NA,"EFDGCHBIAJK",NA,NA,"B (MDot First)",2,123,"SS1","SS1",19,"V","Fixation","68owkj",2,"continue","",985.556999999972,985.556999999972,985.556999999972,985.556999999972,985.556999999972,985.556999999972,1,985.556999999972,0,0,NA,"Fixation Timing","Fixation",1,"object-21","V","CFD-AM-225-102-N.jpg",NA,"SUPTM31721"
"144",1689011839881,"10/07/2023 17:57:19",1689015439881,1,"10/07/2023 19:57:19",137495,33,"task-ycba",NA,30601547,9085742,NA,"complete",NA,NA,"computer","Desktop or Laptop","Windows 10","Chrome 114.0.0.0","1536x864","1536x714",NA,NA,NA,"JV Task P2",11,"Anxious",NA,"In",NA,NA,"EFDGCHBIAJK",NA,NA,"B (MDot First)",2,123,"SS1","SS1",20,"V","Valence","xyoebq",1,"continue","",2171.75900000002,2164.81600000002,2171.75900000002,2171.75900000002,2164.81600000002,2171.75900000002,1,2171.75900000002,0,0,NA,"Click To Continue","Continue Button",1,"object-25","V","CFD-AM-220-134-S.jpeg",NA,"SUPTM31721"
"145",1689011839883,"10/07/2023 17:57:19",1689015439883,1,"10/07/2023 19:57:19",137495,33,"task-ycba",NA,30601547,9085742,NA,"complete",NA,NA,"computer","Desktop or Laptop","Windows 10","Chrome 114.0.0.0","1536x864","1536x714",NA,NA,NA,"JV Task P2",11,"Anxious",NA,"In",NA,NA,"EFDGCHBIAJK",NA,NA,"B (MDot First)",2,123,"SS1","SS1",20,"V","Valence","xyoebq",1,"response","0",1649.61000000002,2164.81600000002,2171.75900000002,1649.61000000002,2164.81600000002,2171.75900000002,1,1649.61000000002,522.149000000005,0,NA,"Slider","J",3,"object-27","V","CFD-AM-220-134-S.jpeg",NA,"SUPTM31721"
"146",1689011840856,"10/07/2023 17:57:20",1689015440856,1,"10/07/2023 19:57:20",137495,33,"task-ycba",NA,30601547,9085742,NA,"complete",NA,NA,"computer","Desktop or Laptop","Windows 10","Chrome 114.0.0.0","1536x864","1536x714",NA,NA,NA,"JV Task P2",11,"Anxious",NA,"In",NA,NA,"EFDGCHBIAJK",NA,NA,"B (MDot First)",2,123,"SS1","SS1",20,"V","Fixation","68owkj",2,"continue","",982.225999999995,982.225999999995,982.225999999995,982.225999999995,982.225999999995,982.225999999995,1,982.225999999995,0,0,NA,"Fixation Timing","Fixation",1,"object-21","V","CFD-AM-220-134-S.jpeg",NA,"SUPTM31721"
"147",1689011844816,"10/07/2023 17:57:24",1689015444816,1,"10/07/2023 19:57:24",137495,33,"task-ycba",NA,30601547,9085742,NA,"complete",NA,NA,"computer","Desktop or Laptop","Windows 10","Chrome 114.0.0.0","1536x864","1536x714",NA,NA,NA,"JV Task P2",11,"Anxious",NA,"In",NA,NA,"EFDGCHBIAJK",NA,NA,"B (MDot First)",2,123,"SS1","SS1",21,"V","Valence","xyoebq",1,"continue","",3960.81099995231,3958.17000000001,3960.81099995231,3960.81099995231,3958.17000000001,3960.81099995231,1,3960.81099995231,0,0,NA,"Click To Continue","Continue Button",1,"object-25","V","CFD-MF-309-002-H.jpeg",NA,"SUPTM31721"
"148",1689011844816,"10/07/2023 17:57:24",1689015444816,1,"10/07/2023 19:57:24",137495,33,"task-ycba",NA,30601547,9085742,NA,"complete",NA,NA,"computer","Desktop or Laptop","Windows 10","Chrome 114.0.0.0","1536x864","1536x714",NA,NA,NA,"JV Task P2",11,"Anxious",NA,"In",NA,NA,"EFDGCHBIAJK",NA,NA,"B (MDot First)",2,123,"SS1","SS1",21,"V","Valence","xyoebq",1,"response","61",2559.266,3958.17000000001,3961.011,2559.266,3958.17000000001,3961.011,1,2559.266,1401.745,0,NA,"Slider","J",3,"object-27","V","CFD-MF-309-002-H.jpeg",NA,"SUPTM31721"
"149",1689011845799,"10/07/2023 17:57:25",1689015445799,1,"10/07/2023 19:57:25",137495,33,"task-ycba",NA,30601547,9085742,NA,"complete",NA,NA,"computer","Desktop or Laptop","Windows 10","Chrome 114.0.0.0","1536x864","1536x714",NA,NA,NA,"JV Task P2",11,"Anxious",NA,"In",NA,NA,"EFDGCHBIAJK",NA,NA,"B (MDot First)",2,123,"SS1","SS1",21,"V","Fixation","68owkj",2,"continue","",984.396999999997,984.396999999997,984.396999999997,984.396999999997,984.396999999997,984.396999999997,1,984.396999999997,0,0,NA,"Fixation Timing","Fixation",1,"object-21","V","CFD-MF-309-002-H.jpeg",NA,"SUPTM31721"
"150",1689011849428,"10/07/2023 17:57:29",1689015449428,1,"10/07/2023 19:57:29",137495,33,"task-ycba",NA,30601547,9085742,NA,"complete",NA,NA,"computer","Desktop or Laptop","Windows 10","Chrome 114.0.0.0","1536x864","1536x714",NA,NA,NA,"JV Task P2",11,"Anxious",NA,"In",NA,NA,"EFDGCHBIAJK",NA,NA,"B (MDot First)",2,123,"SS1","SS1",22,"V","Valence","xyoebq",1,"continue","",3629.94399999999,3627.50199999998,3629.94399999999,3629.94399999999,3627.50199999998,3629.94399999999,1,3629.94399999999,0,0,NA,"Click To Continue","Continue Button",1,"object-25","V","CFD-BM-016-036-N.jpg",NA,"SUPTM31721"
"151",1689011849428,"10/07/2023 17:57:29",1689015449428,1,"10/07/2023 19:57:29",137495,33,"task-ycba",NA,30601547,9085742,NA,"complete",NA,NA,"computer","Desktop or Laptop","Windows 10","Chrome 114.0.0.0","1536x864","1536x714",NA,NA,NA,"JV Task P2",11,"Anxious",NA,"In",NA,NA,"EFDGCHBIAJK",NA,NA,"B (MDot First)",2,123,"SS1","SS1",22,"V","Valence","xyoebq",1,"response","37",1765.41899999999,3627.50199999998,3630.2439999523,1765.41899999999,3627.50199999998,3630.2439999523,1,1765.41899999999,1864.82499995231,0,NA,"Slider","J",3,"object-27","V","CFD-BM-016-036-N.jpg",NA,"SUPTM31721"
"152",1689011850411,"10/07/2023 17:57:30",1689015450411,1,"10/07/2023 19:57:30",137495,33,"task-ycba",NA,30601547,9085742,NA,"complete",NA,NA,"computer","Desktop or Laptop","Windows 10","Chrome 114.0.0.0","1536x864","1536x714",NA,NA,NA,"JV Task P2",11,"Anxious",NA,"In",NA,NA,"EFDGCHBIAJK",NA,NA,"B (MDot First)",2,123,"SS1","SS1",22,"V","Fixation","68owkj",2,"continue","",984.603000000003,984.603000000003,984.603000000003,984.603000000003,984.603000000003,984.603000000003,1,984.603000000003,0,0,NA,"Fixation Timing","Fixation",1,"object-21","V","CFD-BM-016-036-N.jpg",NA,"SUPTM31721"
"153",1689011853839,"10/07/2023 17:57:33",1689015453839,1,"10/07/2023 19:57:33",137495,33,"task-ycba",NA,30601547,9085742,NA,"complete",NA,NA,"computer","Desktop or Laptop","Windows 10","Chrome 114.0.0.0","1536x864","1536x714",NA,NA,NA,"JV Task P2",11,"Anxious",NA,"In",NA,NA,"EFDGCHBIAJK",NA,NA,"B (MDot First)",2,123,"SS1","SS1",23,"V","Valence","xyoebq",1,"continue","",3428.73899997617,3424.997,3428.73899997617,3428.73899997617,3424.997,3428.73899997617,1,3428.73899997617,0,0,NA,"Click To Continue","Continue Button",1,"object-25","V","CFD-WM-031-003-N.jpg",NA,"SUPTM31721"
"154",1689011853839,"10/07/2023 17:57:33",1689015453839,1,"10/07/2023 19:57:33",137495,33,"task-ycba",NA,30601547,9085742,NA,"complete",NA,NA,"computer","Desktop or Laptop","Windows 10","Chrome 114.0.0.0","1536x864","1536x714",NA,NA,NA,"JV Task P2",11,"Anxious",NA,"In",NA,NA,"EFDGCHBIAJK",NA,NA,"B (MDot First)",2,123,"SS1","SS1",23,"V","Valence","xyoebq",1,"response","45",2291.58199999999,3424.997,3428.93900002385,2291.58199999999,3424.997,3428.93900002385,1,2291.58199999999,1137.35700002385,0,NA,"Slider","J",3,"object-27","V","CFD-WM-031-003-N.jpg",NA,"SUPTM31721"
"155",1689011854820,"10/07/2023 17:57:34",1689015454820,1,"10/07/2023 19:57:34",137495,33,"task-ycba",NA,30601547,9085742,NA,"complete",NA,NA,"computer","Desktop or Laptop","Windows 10","Chrome 114.0.0.0","1536x864","1536x714",NA,NA,NA,"JV Task P2",11,"Anxious",NA,"In",NA,NA,"EFDGCHBIAJK",NA,NA,"B (MDot First)",2,123,"SS1","SS1",23,"V","Fixation","68owkj",2,"continue","",984.540999999997,984.540999999997,984.540999999997,984.540999999997,984.540999999997,984.540999999997,1,984.540999999997,0,0,NA,"Fixation Timing","Fixation",1,"object-21","V","CFD-WM-031-003-N.jpg",NA,"SUPTM31721"
"156",1689011856340,"10/07/2023 17:57:36",1689015456340,1,"10/07/2023 19:57:36",137495,33,"task-ycba",NA,30601547,9085742,NA,"complete",NA,NA,"computer","Desktop or Laptop","Windows 10","Chrome 114.0.0.0","1536x864","1536x714",NA,NA,NA,"JV Task P2",11,"Anxious",NA,"In",NA,NA,"EFDGCHBIAJK",NA,NA,"B (MDot First)",2,123,"SS1","SS1",29,"J","Judginess","y8ii7g",1,"continue","",1519.77699999997,1512.83199999999,1519.77699999997,1519.77699999997,1512.83199999999,1519.77699999997,1,1519.77699999997,0,0,NA,"Click To Continue","Continue Button",1,"object-14","J","CFD-WF-006-002-S.jpeg",NA,"SUPTM31721"
"157",1689011856340,"10/07/2023 17:57:36",1689015456340,1,"10/07/2023 19:57:36",137495,33,"task-ycba",NA,30601547,9085742,NA,"complete",NA,NA,"computer","Desktop or Laptop","Windows 10","Chrome 114.0.0.0","1536x864","1536x714",NA,NA,NA,"JV Task P2",11,"Anxious",NA,"In",NA,NA,"EFDGCHBIAJK",NA,NA,"B (MDot First)",2,123,"SS1","SS1",29,"J","Judginess","y8ii7g",1,"response","0",763.85500000001,1512.83199999999,1519.77699999997,763.85500000001,1512.83199999999,1519.77699999997,1,763.85500000001,755.921999999962,0,NA,"Slider","J",3,"object-18","J","CFD-WF-006-002-S.jpeg",NA,"SUPTM31721"
"158",1689011857314,"10/07/2023 17:57:37",1689015457314,1,"10/07/2023 19:57:37",137495,33,"task-ycba",NA,30601547,9085742,NA,"complete",NA,NA,"computer","Desktop or Laptop","Windows 10","Chrome 114.0.0.0","1536x864","1536x714",NA,NA,NA,"JV Task P2",11,"Anxious",NA,"In",NA,NA,"EFDGCHBIAJK",NA,NA,"B (MDot First)",2,123,"SS1","SS1",29,"J","Fixation","w9zir9",2,"continue","",980.34600000002,980.34600000002,980.34600000002,980.34600000002,980.34600000002,980.34600000002,1,980.34600000002,0,0,NA,"Fixation Timing","Fixation",1,"object-65","J","CFD-WF-006-002-S.jpeg",NA,"SUPTM31721"
"159",1689011859812,"10/07/2023 17:57:39",1689015459812,1,"10/07/2023 19:57:39",137495,33,"task-ycba",NA,30601547,9085742,NA,"complete",NA,NA,"computer","Desktop or Laptop","Windows 10","Chrome 114.0.0.0","1536x864","1536x714",NA,NA,NA,"JV Task P2",11,"Anxious",NA,"In",NA,NA,"EFDGCHBIAJK",NA,NA,"B (MDot First)",2,123,"SS1","SS1",30,"J","Judginess","y8ii7g",1,"continue","",2499.52299997615,2496.23799999998,2499.52299997615,2499.52299997615,2496.23799999998,2499.52299997615,1,2499.52299997615,0,0,NA,"Click To Continue","Continue Button",1,"object-14","J","CFD-BF-008-001-S.jpeg",NA,"SUPTM31721"
"160",1689011859812,"10/07/2023 17:57:39",1689015459812,1,"10/07/2023 19:57:39",137495,33,"task-ycba",NA,30601547,9085742,NA,"complete",NA,NA,"computer","Desktop or Laptop","Windows 10","Chrome 114.0.0.0","1536x864","1536x714",NA,NA,NA,"JV Task P2",11,"Anxious",NA,"In",NA,NA,"EFDGCHBIAJK",NA,NA,"B (MDot First)",2,123,"SS1","SS1",30,"J","Judginess","y8ii7g",1,"response","15",1046.17600000001,2496.23799999998,2499.72300002383,1046.17600000001,2496.23799999998,2499.72300002383,1,1046.17600000001,1453.54700002383,0,NA,"Slider","J",3,"object-18","J","CFD-BF-008-001-S.jpeg",NA,"SUPTM31721"
"161",1689011860792,"10/07/2023 17:57:40",1689015460792,1,"10/07/2023 19:57:40",137495,33,"task-ycba",NA,30601547,9085742,NA,"complete",NA,NA,"computer","Desktop or Laptop","Windows 10","Chrome 114.0.0.0","1536x864","1536x714",NA,NA,NA,"JV Task P2",11,"Anxious",NA,"In",NA,NA,"EFDGCHBIAJK",NA,NA,"B (MDot First)",2,123,"SS1","SS1",30,"J","Fixation","w9zir9",2,"continue","",982.703999999998,982.703999999998,982.703999999998,982.703999999998,982.703999999998,982.703999999998,1,982.703999999998,0,0,NA,"Fixation Timing","Fixation",1,"object-65","J","CFD-BF-008-001-S.jpeg",NA,"SUPTM31721"
"162",1689011864416,"10/07/2023 17:57:44",1689015464416,1,"10/07/2023 19:57:44",137495,33,"task-ycba",NA,30601547,9085742,NA,"complete",NA,NA,"computer","Desktop or Laptop","Windows 10","Chrome 114.0.0.0","1536x864","1536x714",NA,NA,NA,"JV Task P2",11,"Anxious",NA,"In",NA,NA,"EFDGCHBIAJK",NA,NA,"B (MDot First)",2,123,"SS1","SS1",24,"V","Valence","xyoebq",1,"continue","",3624.3810000477,3620.867,3624.3810000477,3624.3810000477,3620.867,3624.3810000477,1,3624.3810000477,0,0,NA,"Click To Continue","Continue Button",1,"object-25","V","CFD-WM-028-003-N.jpg",NA,"SUPTM31721"
"163",1689011864416,"10/07/2023 17:57:44",1689015464416,1,"10/07/2023 19:57:44",137495,33,"task-ycba",NA,30601547,9085742,NA,"complete",NA,NA,"computer","Desktop or Laptop","Windows 10","Chrome 114.0.0.0","1536x864","1536x714",NA,NA,NA,"JV Task P2",11,"Anxious",NA,"In",NA,NA,"EFDGCHBIAJK",NA,NA,"B (MDot First)",2,123,"SS1","SS1",24,"V","Valence","xyoebq",1,"response","47",1520.72,3620.867,3624.48099995233,1520.72,3620.867,3624.48099995233,1,1520.72,2103.76099995233,0,NA,"Slider","J",3,"object-27","V","CFD-WM-028-003-N.jpg",NA,"SUPTM31721"
"164",1689011865397,"10/07/2023 17:57:45",1689015465397,1,"10/07/2023 19:57:45",137495,33,"task-ycba",NA,30601547,9085742,NA,"complete",NA,NA,"computer","Desktop or Laptop","Windows 10","Chrome 114.0.0.0","1536x864","1536x714",NA,NA,NA,"JV Task P2",11,"Anxious",NA,"In",NA,NA,"EFDGCHBIAJK",NA,NA,"B (MDot First)",2,123,"SS1","SS1",24,"V","Fixation","68owkj",2,"continue","",983.173999999999,983.173999999999,983.173999999999,983.173999999999,983.173999999999,983.173999999999,1,983.173999999999,0,0,NA,"Fixation Timing","Fixation",1,"object-21","V","CFD-WM-028-003-N.jpg",NA,"SUPTM31721"
"165",1689011869237,"10/07/2023 17:57:49",1689015469237,1,"10/07/2023 19:57:49",137495,33,"task-ycba",NA,30601547,9085742,NA,"complete",NA,NA,"computer","Desktop or Laptop","Windows 10","Chrome 114.0.0.0","1536x864","1536x714",NA,NA,NA,"JV Task P2",11,"Anxious",NA,"In",NA,NA,"EFDGCHBIAJK",NA,NA,"B (MDot First)",2,123,"SS1","SS1",25,"V","Valence","xyoebq",1,"continue","",3841.03999997617,3839.03400000001,3841.03999997617,3841.03999997617,3839.03400000001,3841.03999997617,1,3841.03999997617,0,0,NA,"Click To Continue","Continue Button",1,"object-25","V","CFD-WF-039-025-N.jpg",NA,"SUPTM31721"
"166",1689011869237,"10/07/2023 17:57:49",1689015469237,1,"10/07/2023 19:57:49",137495,33,"task-ycba",NA,30601547,9085742,NA,"complete",NA,NA,"computer","Desktop or Laptop","Windows 10","Chrome 114.0.0.0","1536x864","1536x714",NA,NA,NA,"JV Task P2",11,"Anxious",NA,"In",NA,NA,"EFDGCHBIAJK",NA,NA,"B (MDot First)",2,123,"SS1","SS1",25,"V","Valence","xyoebq",1,"response","43",2117.90300000002,3839.03400000001,3841.3400000477,2117.90300000002,3839.03400000001,3841.3400000477,1,2117.90300000002,1723.43700004768,0,NA,"Slider","J",3,"object-27","V","CFD-WF-039-025-N.jpg",NA,"SUPTM31721"
"167",1689011870218,"10/07/2023 17:57:50",1689015470218,1,"10/07/2023 19:57:50",137495,33,"task-ycba",NA,30601547,9085742,NA,"complete",NA,NA,"computer","Desktop or Laptop","Windows 10","Chrome 114.0.0.0","1536x864","1536x714",NA,NA,NA,"JV Task P2",11,"Anxious",NA,"In",NA,NA,"EFDGCHBIAJK",NA,NA,"B (MDot First)",2,123,"SS1","SS1",25,"V","Fixation","68owkj",2,"continue","",982.867999999988,982.867999999988,982.867999999988,982.867999999988,982.867999999988,982.867999999988,1,982.867999999988,0,0,NA,"Fixation Timing","Fixation",1,"object-21","V","CFD-WF-039-025-N.jpg",NA,"SUPTM31721"
"168",1689011875393,"10/07/2023 17:57:55",1689015475393,1,"10/07/2023 19:57:55",137495,33,"task-ycba",NA,30601547,9085742,NA,"complete",NA,NA,"computer","Desktop or Laptop","Windows 10","Chrome 114.0.0.0","1536x864","1536x714",NA,NA,NA,"JV Task P2",11,"Anxious",NA,"In",NA,NA,"EFDGCHBIAJK",NA,NA,"B (MDot First)",2,123,"SS1","SS1",26,"V","Valence","xyoebq",1,"continue","",5175.33800002385,5170.76800000001,5175.33800002385,5175.33800002385,5170.76800000001,5175.33800002385,1,5175.33800002385,0,0,NA,"Click To Continue","Continue Button",1,"object-25","V","CFD-WM-031-003-H.jpeg",NA,"SUPTM31721"
"169",1689011875395,"10/07/2023 17:57:55",1689015475395,1,"10/07/2023 19:57:55",137495,33,"task-ycba",NA,30601547,9085742,NA,"complete",NA,NA,"computer","Desktop or Laptop","Windows 10","Chrome 114.0.0.0","1536x864","1536x714",NA,NA,NA,"JV Task P2",11,"Anxious",NA,"In",NA,NA,"EFDGCHBIAJK",NA,NA,"B (MDot First)",2,123,"SS1","SS1",26,"V","Valence","xyoebq",1,"response","37",1802.68700000001,5170.76800000001,5177.23800000001,1802.68700000001,5170.76800000001,5177.23800000001,1,1802.68700000001,3374.55100000001,0,NA,"Slider","J",3,"object-27","V","CFD-WM-031-003-H.jpeg",NA,"SUPTM31721"
"170",1689011876375,"10/07/2023 17:57:56",1689015476375,1,"10/07/2023 19:57:56",137495,33,"task-ycba",NA,30601547,9085742,NA,"complete",NA,NA,"computer","Desktop or Laptop","Windows 10","Chrome 114.0.0.0","1536x864","1536x714",NA,NA,NA,"JV Task P2",11,"Anxious",NA,"In",NA,NA,"EFDGCHBIAJK",NA,NA,"B (MDot First)",2,123,"SS1","SS1",26,"V","Fixation","68owkj",2,"continue","",986.318999999989,986.318999999989,986.318999999989,986.318999999989,986.318999999989,986.318999999989,1,986.318999999989,0,0,NA,"Fixation Timing","Fixation",1,"object-21","V","CFD-WM-031-003-H.jpeg",NA,"SUPTM31721"
"171",1689011878122,"10/07/2023 17:57:58",1689015478122,1,"10/07/2023 19:57:58",137495,33,"task-ycba",NA,30601547,9085742,NA,"complete",NA,NA,"computer","Desktop or Laptop","Windows 10","Chrome 114.0.0.0","1536x864","1536x714",NA,NA,NA,"JV Task P2",11,"Anxious",NA,"In",NA,NA,"EFDGCHBIAJK",NA,NA,"B (MDot First)",2,123,"SS1","SS1",31,"J","Judginess","y8ii7g",1,"continue","",1746.75100002385,1740.90600000002,1746.75100002385,1746.75100002385,1740.90600000002,1746.75100002385,1,1746.75100002385,0,0,NA,"Click To Continue","Continue Button",1,"object-14","J","CFD-BM-045-004-S.jpeg",NA,"SUPTM31721"
