"Event.Index","UTC.Timestamp","UTC.Date.and.Time","Local.Timestamp","Local.Timezone","Local.Date.and.Time","Experiment.ID","Experiment.Version","Tree.Node.Key","Repeat.Key","Schedule.ID","Participant.Private.ID","Participant.Starting.Group","Participant.Status","Participant.Completion.Code","Participant.External.Session.ID","Participant.Device.Type","Participant.Device","Participant.OS","Participant.Browser","Participant.Monitor.Size","Participant.Viewport.Size","Checkpoint","Room.ID","Room.Order","Task.Name","Task.Version","branch.ln1a","randomiser.vzsr","branch.hkzp","randomiser.ywar","randomiser.q6ah","order.ot79","randomiser.ahe2","randomiser.ckhi","randomiser.lqqr","randomiser.pobd","randomiser.8gdj","Spreadsheet","Current.Spreadsheet","Trial.Number","Display","Screen","Screen.ID","Screen.Counter","Response.Type","Response","Onset.Time","Clock.Time","Reaction.Time","Absolute.Onset.Time","Absolute.Clock.Time","Absolute.Reaction.Time","Correct","Response.Onset","Response.Duration","Proportion","Tag","Component.Name","Object.Name","Object.Number","Object.ID","Spreadsheet..display","Spreadsheet..stimulus","Manipulation..Spreadsheet","Random_ID"
"1",1688990955755,"10/07/2023 12:09:15",1688976555755,-4,"10/07/2023 04:09:15",137495,33,"task-k4y6",NA,30592039,9082638,NA,"complete",NA,NA,"computer","Desktop or Laptop","Windows 10","Chrome 114.0.0.0","1280x1024","1280x881",NA,NA,NA,"JV Task P2",11,"Anxious",321,"In",NA,1,"FGEHDICJBKA",NA,NA,"A (JV first)",NA,NA,"SS1","SS1",NA,"","","",NA,"5","BEGIN",NA,NA,NA,NA,NA,NA,0,NA,NA,NA,NA,"","",NA,"","","",NA,"SUPTM12782"
"2",1688990960000,"10/07/2023 12:09:20",1688976560000,-4,"10/07/2023 04:09:20",137495,33,"task-k4y6",NA,30592039,9082638,NA,"complete",NA,NA,"computer","Desktop or Laptop","Windows 10","Chrome 114.0.0.0","1280x1024","1280x881",NA,NA,NA,"JV Task P2",11,"Anxious",321,"In",NA,1,"FGEHDICJBKA",NA,NA,"A (JV first)",NA,NA,"SS1","SS1",1,"V","Valence","xyoebq",1,"continue","",3262.61,3249.014,3262.61,3262.61,3249.014,3262.61,1,3262.61,0,0,NA,"Click To Continue","Continue Button",1,"object-25","V","CFD-WM-034-030-H.jpeg",NA,"SUPTM12782"
"3",1688990960002,"10/07/2023 12:09:20",1688976560002,-4,"10/07/2023 04:09:20",137495,33,"task-k4y6",NA,30592039,9082638,NA,"complete",NA,NA,"computer","Desktop or Laptop","Windows 10","Chrome 114.0.0.0","1280x1024","1280x881",NA,NA,NA,"JV Task P2",11,"Anxious",321,"In",NA,1,"FGEHDICJBKA",NA,NA,"A (JV first)",NA,NA,"SS1","SS1",1,"V","Valence","xyoebq",1,"response","59",2199.368,3249.014,3265.20999990463,2199.368,3249.014,3265.20999990463,1,2199.368,1065.84199990463,0,NA,"Slider","J",3,"object-27","V","CFD-WM-034-030-H.jpeg",NA,"SUPTM12782"
"4",1688990960953,"10/07/2023 12:09:20",1688976560953,-4,"10/07/2023 04:09:20",137495,33,"task-k4y6",NA,30592039,9082638,NA,"complete",NA,NA,"computer","Desktop or Laptop","Windows 10","Chrome 114.0.0.0","1280x1024","1280x881",NA,NA,NA,"JV Task P2",11,"Anxious",321,"In",NA,1,"FGEHDICJBKA",NA,NA,"A (JV first)",NA,NA,"SS1","SS1",1,"V","Fixation","68owkj",2,"continue","",966.35,966.35,966.35,966.35,966.35,966.35,1,966.35,0,0,NA,"Fixation Timing","Fixation",1,"object-21","V","CFD-WM-034-030-H.jpeg",NA,"SUPTM12782"
"5",1688990964510,"10/07/2023 12:09:24",1688976564510,-4,"10/07/2023 04:09:24",137495,33,"task-k4y6",NA,30592039,9082638,NA,"complete",NA,NA,"computer","Desktop or Laptop","Windows 10","Chrome 114.0.0.0","1280x1024","1280x881",NA,NA,NA,"JV Task P2",11,"Anxious",321,"In",NA,1,"FGEHDICJBKA",NA,NA,"A (JV first)",NA,NA,"SS1","SS1",1,"J","Judginess","y8ii7g",1,"continue","",3558.54599995232,3548.79,3558.54599995232,3558.54599995232,3548.79,3558.54599995232,1,3558.54599995232,0,0,NA,"Click To Continue","Continue Button",1,"object-14","J","CFD-IF-693-172-H.jpeg",NA,"SUPTM12782"
"6",1688990964511,"10/07/2023 12:09:24",1688976564511,-4,"10/07/2023 04:09:24",137495,33,"task-k4y6",NA,30592039,9082638,NA,"complete",NA,NA,"computer","Desktop or Laptop","Windows 10","Chrome 114.0.0.0","1280x1024","1280x881",NA,NA,NA,"JV Task P2",11,"Anxious",321,"In",NA,1,"FGEHDICJBKA",NA,NA,"A (JV first)",NA,NA,"SS1","SS1",1,"J","Judginess","y8ii7g",1,"response","63",2599.13,3548.79,3559.746,2599.13,3548.79,3559.746,1,2599.13,960.616,0,NA,"Slider","J",3,"object-18","J","CFD-IF-693-172-H.jpeg",NA,"SUPTM12782"
"7",1688990965467,"10/07/2023 12:09:25",1688976565467,-4,"10/07/2023 04:09:25",137495,33,"task-k4y6",NA,30592039,9082638,NA,"complete",NA,NA,"computer","Desktop or Laptop","Windows 10","Chrome 114.0.0.0","1280x1024","1280x881",NA,NA,NA,"JV Task P2",11,"Anxious",321,"In",NA,1,"FGEHDICJBKA",NA,NA,"A (JV first)",NA,NA,"SS1","SS1",1,"J","Fixation","w9zir9",2,"continue","",966.371000000001,966.371000000001,966.371000000001,966.371000000001,966.371000000001,966.371000000001,1,966.371000000001,0,0,NA,"Fixation Timing","Fixation",1,"object-65","J","CFD-IF-693-172-H.jpeg",NA,"SUPTM12782"
"8",1688990967550,"10/07/2023 12:09:27",1688976567550,-4,"10/07/2023 04:09:27",137495,33,"task-k4y6",NA,30592039,9082638,NA,"complete",NA,NA,"computer","Desktop or Laptop","Windows 10","Chrome 114.0.0.0","1280x1024","1280x881",NA,NA,NA,"JV Task P2",11,"Anxious",321,"In",NA,1,"FGEHDICJBKA",NA,NA,"A (JV first)",NA,NA,"SS1","SS1",2,"J","Judginess","y8ii7g",1,"continue","",2082.67,2065.989,2082.67,2082.67,2065.989,2082.67,1,2082.67,0,0,NA,"Click To Continue","Continue Button",1,"object-14","J","CFD-WM-009-002-H.jpeg",NA,"SUPTM12782"
"9",1688990967559,"10/07/2023 12:09:27",1688976567559,-4,"10/07/2023 04:09:27",137495,33,"task-k4y6",NA,30592039,9082638,NA,"complete",NA,NA,"computer","Desktop or Laptop","Windows 10","Chrome 114.0.0.0","1280x1024","1280x881",NA,NA,NA,"JV Task P2",11,"Anxious",321,"In",NA,1,"FGEHDICJBKA",NA,NA,"A (JV first)",NA,NA,"SS1","SS1",2,"J","Judginess","y8ii7g",1,"response","66",1616.127,2065.989,2082.67,1616.127,2065.989,2082.67,1,1616.127,466.543000000001,0,NA,"Slider","J",3,"object-18","J","CFD-WM-009-002-H.jpeg",NA,"SUPTM12782"
"10",1688990968500,"10/07/2023 12:09:28",1688976568500,-4,"10/07/2023 04:09:28",137495,33,"task-k4y6",NA,30592039,9082638,NA,"complete",NA,NA,"computer","Desktop or Laptop","Windows 10","Chrome 114.0.0.0","1280x1024","1280x881",NA,NA,NA,"JV Task P2",11,"Anxious",321,"In",NA,1,"FGEHDICJBKA",NA,NA,"A (JV first)",NA,NA,"SS1","SS1",2,"J","Fixation","w9zir9",2,"continue","",966.349,966.349,966.349,966.349,966.349,966.349,1,966.349,0,0,NA,"Fixation Timing","Fixation",1,"object-65","J","CFD-WM-009-002-H.jpeg",NA,"SUPTM12782"
"11",1688990971351,"10/07/2023 12:09:31",1688976571351,-4,"10/07/2023 04:09:31",137495,33,"task-k4y6",NA,30592039,9082638,NA,"complete",NA,NA,"computer","Desktop or Laptop","Windows 10","Chrome 114.0.0.0","1280x1024","1280x881",NA,NA,NA,"JV Task P2",11,"Anxious",321,"In",NA,1,"FGEHDICJBKA",NA,NA,"A (JV first)",NA,NA,"SS1","SS1",2,"V","Valence","xyoebq",1,"continue","",2852.14699985695,2849,2852.14699985695,2852.14699985695,2849,2852.14699985695,1,2852.14699985695,0,0,NA,"Click To Continue","Continue Button",1,"object-25","V","CFD-WF-036-023-H.jpeg",NA,"SUPTM12782"
"12",1688990971352,"10/07/2023 12:09:31",1688976571352,-4,"10/07/2023 04:09:31",137495,33,"task-k4y6",NA,30592039,9082638,NA,"complete",NA,NA,"computer","Desktop or Laptop","Windows 10","Chrome 114.0.0.0","1280x1024","1280x881",NA,NA,NA,"JV Task P2",11,"Anxious",321,"In",NA,1,"FGEHDICJBKA",NA,NA,"A (JV first)",NA,NA,"SS1","SS1",2,"V","Valence","xyoebq",1,"response","63",2349.184,2849,2853.84699990463,2349.184,2849,2853.84699990463,1,2349.184,504.662999904631,0,NA,"Slider","J",3,"object-27","V","CFD-WF-036-023-H.jpeg",NA,"SUPTM12782"
"13",1688990972315,"10/07/2023 12:09:32",1688976572315,-4,"10/07/2023 04:09:32",137495,33,"task-k4y6",NA,30592039,9082638,NA,"complete",NA,NA,"computer","Desktop or Laptop","Windows 10","Chrome 114.0.0.0","1280x1024","1280x881",NA,NA,NA,"JV Task P2",11,"Anxious",321,"In",NA,1,"FGEHDICJBKA",NA,NA,"A (JV first)",NA,NA,"SS1","SS1",2,"V","Fixation","68owkj",2,"continue","",966.353999999999,966.353999999999,966.353999999999,966.353999999999,966.353999999999,966.353999999999,1,966.353999999999,0,0,NA,"Fixation Timing","Fixation",1,"object-21","V","CFD-WF-036-023-H.jpeg",NA,"SUPTM12782"
"14",1688990975014,"10/07/2023 12:09:35",1688976575014,-4,"10/07/2023 04:09:35",137495,33,"task-k4y6",NA,30592039,9082638,NA,"complete",NA,NA,"computer","Desktop or Laptop","Windows 10","Chrome 114.0.0.0","1280x1024","1280x881",NA,NA,NA,"JV Task P2",11,"Anxious",321,"In",NA,1,"FGEHDICJBKA",NA,NA,"A (JV first)",NA,NA,"SS1","SS1",3,"V","Valence","xyoebq",1,"continue","",2699.129,2682.469,2699.129,2699.129,2682.469,2699.129,1,2699.129,0,0,NA,"Click To Continue","Continue Button",1,"object-25","V","CFD-MM-308-001-N.jpg",NA,"SUPTM12782"
"15",1688990975015,"10/07/2023 12:09:35",1688976575015,-4,"10/07/2023 04:09:35",137495,33,"task-k4y6",NA,30592039,9082638,NA,"complete",NA,NA,"computer","Desktop or Laptop","Windows 10","Chrome 114.0.0.0","1280x1024","1280x881",NA,NA,NA,"JV Task P2",11,"Anxious",321,"In",NA,1,"FGEHDICJBKA",NA,NA,"A (JV first)",NA,NA,"SS1","SS1",3,"V","Valence","xyoebq",1,"response","41",1866.054,2682.469,2699.129,1866.054,2682.469,2699.129,1,1866.054,833.075000000001,0,NA,"Slider","J",3,"object-27","V","CFD-MM-308-001-N.jpg",NA,"SUPTM12782"
"16",1688990975963,"10/07/2023 12:09:35",1688976575963,-4,"10/07/2023 04:09:35",137495,33,"task-k4y6",NA,30592039,9082638,NA,"complete",NA,NA,"computer","Desktop or Laptop","Windows 10","Chrome 114.0.0.0","1280x1024","1280x881",NA,NA,NA,"JV Task P2",11,"Anxious",321,"In",NA,1,"FGEHDICJBKA",NA,NA,"A (JV first)",NA,NA,"SS1","SS1",3,"V","Fixation","68owkj",2,"continue","",966.296999999999,966.296999999999,966.296999999999,966.296999999999,966.296999999999,966.296999999999,1,966.296999999999,0,0,NA,"Fixation Timing","Fixation",1,"object-21","V","CFD-MM-308-001-N.jpg",NA,"SUPTM12782"
"17",1688990977814,"10/07/2023 12:09:37",1688976577814,-4,"10/07/2023 04:09:37",137495,33,"task-k4y6",NA,30592039,9082638,NA,"complete",NA,NA,"computer","Desktop or Laptop","Windows 10","Chrome 114.0.0.0","1280x1024","1280x881",NA,NA,NA,"JV Task P2",11,"Anxious",321,"In",NA,1,"FGEHDICJBKA",NA,NA,"A (JV first)",NA,NA,"SS1","SS1",3,"J","Judginess","y8ii7g",1,"continue","",1851.52699985695,1849.419,1851.52699985695,1851.52699985695,1849.419,1851.52699985695,1,1851.52699985695,0,0,NA,"Click To Continue","Continue Button",1,"object-14","J","CFD-WM-036-031-S.jpeg",NA,"SUPTM12782"
"18",1688990977827,"10/07/2023 12:09:37",1688976577827,-4,"10/07/2023 04:09:37",137495,33,"task-k4y6",NA,30592039,9082638,NA,"complete",NA,NA,"computer","Desktop or Laptop","Windows 10","Chrome 114.0.0.0","1280x1024","1280x881",NA,NA,NA,"JV Task P2",11,"Anxious",321,"In",NA,1,"FGEHDICJBKA",NA,NA,"A (JV first)",NA,NA,"SS1","SS1",3,"J","Judginess","y8ii7g",1,"response","36",1299.634,1849.419,1864.127,1299.634,1849.419,1864.127,1,1299.634,564.492999999999,0,NA,"Slider","J",3,"object-18","J","CFD-WM-036-031-S.jpeg",NA,"SUPTM12782"
"19",1688990978780,"10/07/2023 12:09:38",1688976578780,-4,"10/07/2023 04:09:38",137495,33,"task-k4y6",NA,30592039,9082638,NA,"complete",NA,NA,"computer","Desktop or Laptop","Windows 10","Chrome 114.0.0.0","1280x1024","1280x881",NA,NA,NA,"JV Task P2",11,"Anxious",321,"In",NA,1,"FGEHDICJBKA",NA,NA,"A (JV first)",NA,NA,"SS1","SS1",3,"J","Fixation","w9zir9",2,"continue","",966.341999999997,966.341999999997,966.341999999997,966.341999999997,966.341999999997,966.341999999997,1,966.341999999997,0,0,NA,"Fixation Timing","Fixation",1,"object-65","J","CFD-WM-036-031-S.jpeg",NA,"SUPTM12782"
"20",1688990980381,"10/07/2023 12:09:40",1688976580381,-4,"10/07/2023 04:09:40",137495,33,"task-k4y6",NA,30592039,9082638,NA,"complete",NA,NA,"computer","Desktop or Laptop","Windows 10","Chrome 114.0.0.0","1280x1024","1280x881",NA,NA,NA,"JV Task P2",11,"Anxious",321,"In",NA,1,"FGEHDICJBKA",NA,NA,"A (JV first)",NA,NA,"SS1","SS1",4,"J","Judginess","y8ii7g",1,"continue","",1602.866,1599.455,1602.866,1602.866,1599.455,1602.866,1,1602.866,0,0,NA,"Click To Continue","Continue Button",1,"object-14","J","CFD-WM-035-032-N.jpg",NA,"SUPTM12782"
"21",1688990980382,"10/07/2023 12:09:40",1688976580382,-4,"10/07/2023 04:09:40",137495,33,"task-k4y6",NA,30592039,9082638,NA,"complete",NA,NA,"computer","Desktop or Laptop","Windows 10","Chrome 114.0.0.0","1280x1024","1280x881",NA,NA,NA,"JV Task P2",11,"Anxious",321,"In",NA,1,"FGEHDICJBKA",NA,NA,"A (JV first)",NA,NA,"SS1","SS1",4,"J","Judginess","y8ii7g",1,"response","26",1132.896,1599.455,1603.66599995232,1132.896,1599.455,1603.66599995232,1,1132.896,470.769999952317,0,NA,"Slider","J",3,"object-18","J","CFD-WM-035-032-N.jpg",NA,"SUPTM12782"
"22",1688990981345,"10/07/2023 12:09:41",1688976581345,-4,"10/07/2023 04:09:41",137495,33,"task-k4y6",NA,30592039,9082638,NA,"complete",NA,NA,"computer","Desktop or Laptop","Windows 10","Chrome 114.0.0.0","1280x1024","1280x881",NA,NA,NA,"JV Task P2",11,"Anxious",321,"In",NA,1,"FGEHDICJBKA",NA,NA,"A (JV first)",NA,NA,"SS1","SS1",4,"J","Fixation","w9zir9",2,"continue","",966.361000000001,966.361000000001,966.361000000001,966.361000000001,966.361000000001,966.361000000001,1,966.361000000001,0,0,NA,"Fixation Timing","Fixation",1,"object-65","J","CFD-WM-035-032-N.jpg",NA,"SUPTM12782"
"23",1688990982651,"10/07/2023 12:09:42",1688976582651,-4,"10/07/2023 04:09:42",137495,33,"task-k4y6",NA,30592039,9082638,NA,"complete",NA,NA,"computer","Desktop or Laptop","Windows 10","Chrome 114.0.0.0","1280x1024","1280x881",NA,NA,NA,"JV Task P2",11,"Anxious",321,"In",NA,1,"FGEHDICJBKA",NA,NA,"A (JV first)",NA,NA,"SS1","SS1",4,"V","Valence","xyoebq",1,"continue","",1307.25000004768,1299.489,1307.25000004768,1307.25000004768,1299.489,1307.25000004768,1,1307.25000004768,0,0,NA,"Click To Continue","Continue Button",1,"object-25","V","CFD-WM-028-003-N.jpg",NA,"SUPTM12782"
"24",1688990982652,"10/07/2023 12:09:42",1688976582652,-4,"10/07/2023 04:09:42",137495,33,"task-k4y6",NA,30592039,9082638,NA,"complete",NA,NA,"computer","Desktop or Laptop","Windows 10","Chrome 114.0.0.0","1280x1024","1280x881",NA,NA,NA,"JV Task P2",11,"Anxious",321,"In",NA,1,"FGEHDICJBKA",NA,NA,"A (JV first)",NA,NA,"SS1","SS1",4,"V","Valence","xyoebq",1,"response","34",799.741999999998,1299.489,1307.64999990463,799.741999999998,1299.489,1307.64999990463,1,799.741999999998,507.907999904633,0,NA,"Slider","J",3,"object-27","V","CFD-WM-028-003-N.jpg",NA,"SUPTM12782"
"25",1688990983611,"10/07/2023 12:09:43",1688976583611,-4,"10/07/2023 04:09:43",137495,33,"task-k4y6",NA,30592039,9082638,NA,"complete",NA,NA,"computer","Desktop or Laptop","Windows 10","Chrome 114.0.0.0","1280x1024","1280x881",NA,NA,NA,"JV Task P2",11,"Anxious",321,"In",NA,1,"FGEHDICJBKA",NA,NA,"A (JV first)",NA,NA,"SS1","SS1",4,"V","Fixation","68owkj",2,"continue","",966.426000000003,966.426000000003,966.426000000003,966.426000000003,966.426000000003,966.426000000003,1,966.426000000003,0,0,NA,"Fixation Timing","Fixation",1,"object-21","V","CFD-WM-028-003-N.jpg",NA,"SUPTM12782"
"26",1688990984958,"10/07/2023 12:09:44",1688976584958,-4,"10/07/2023 04:09:44",137495,33,"task-k4y6",NA,30592039,9082638,NA,"complete",NA,NA,"computer","Desktop or Laptop","Windows 10","Chrome 114.0.0.0","1280x1024","1280x881",NA,NA,NA,"JV Task P2",11,"Anxious",321,"In",NA,1,"FGEHDICJBKA",NA,NA,"A (JV first)",NA,NA,"SS1","SS1",5,"J","Judginess","y8ii7g",1,"continue","",1347.73499990463,1332.886,1347.73499990463,1347.73499990463,1332.886,1347.73499990463,1,1347.73499990463,0,0,NA,"Click To Continue","Continue Button",1,"object-14","J","CFD-WF-035-024-H.jpeg",NA,"SUPTM12782"
"27",1688990984959,"10/07/2023 12:09:44",1688976584959,-4,"10/07/2023 04:09:44",137495,33,"task-k4y6",NA,30592039,9082638,NA,"complete",NA,NA,"computer","Desktop or Laptop","Windows 10","Chrome 114.0.0.0","1280x1024","1280x881",NA,NA,NA,"JV Task P2",11,"Anxious",321,"In",NA,1,"FGEHDICJBKA",NA,NA,"A (JV first)",NA,NA,"SS1","SS1",5,"J","Judginess","y8ii7g",1,"response","33",949.679,1332.886,1349.135,949.679,1332.886,1349.135,1,949.679,399.455999999998,0,NA,"Slider","J",3,"object-18","J","CFD-WF-035-024-H.jpeg",NA,"SUPTM12782"
"28",1688990985910,"10/07/2023 12:09:45",1688976585910,-4,"10/07/2023 04:09:45",137495,33,"task-k4y6",NA,30592039,9082638,NA,"complete",NA,NA,"computer","Desktop or Laptop","Windows 10","Chrome 114.0.0.0","1280x1024","1280x881",NA,NA,NA,"JV Task P2",11,"Anxious",321,"In",NA,1,"FGEHDICJBKA",NA,NA,"A (JV first)",NA,NA,"SS1","SS1",5,"J","Fixation","w9zir9",2,"continue","",966.371999999999,966.371999999999,966.371999999999,966.371999999999,966.371999999999,966.371999999999,1,966.371999999999,0,0,NA,"Fixation Timing","Fixation",1,"object-65","J","CFD-WF-035-024-H.jpeg",NA,"SUPTM12782"
"29",1688990987614,"10/07/2023 12:09:47",1688976587614,-4,"10/07/2023 04:09:47",137495,33,"task-k4y6",NA,30592039,9082638,NA,"complete",NA,NA,"computer","Desktop or Laptop","Windows 10","Chrome 114.0.0.0","1280x1024","1280x881",NA,NA,NA,"JV Task P2",11,"Anxious",321,"In",NA,1,"FGEHDICJBKA",NA,NA,"A (JV first)",NA,NA,"SS1","SS1",6,"J","Judginess","y8ii7g",1,"continue","",1704.67699995232,1699.421,1704.67699995232,1704.67699995232,1699.421,1704.67699995232,1,1704.67699995232,0,0,NA,"Click To Continue","Continue Button",1,"object-14","J","CFD-WF-011-002-N.jpg",NA,"SUPTM12782"
"30",1688990987615,"10/07/2023 12:09:47",1688976587615,-4,"10/07/2023 04:09:47",137495,33,"task-k4y6",NA,30592039,9082638,NA,"complete",NA,NA,"computer","Desktop or Laptop","Windows 10","Chrome 114.0.0.0","1280x1024","1280x881",NA,NA,NA,"JV Task P2",11,"Anxious",321,"In",NA,1,"FGEHDICJBKA",NA,NA,"A (JV first)",NA,NA,"SS1","SS1",6,"J","Judginess","y8ii7g",1,"response","30",999.637000000002,1699.421,1706.07700004768,999.637000000002,1699.421,1706.07700004768,1,999.637000000002,706.440000047682,0,NA,"Slider","J",3,"object-18","J","CFD-WF-011-002-N.jpg",NA,"SUPTM12782"
"31",1688990988576,"10/07/2023 12:09:48",1688976588576,-4,"10/07/2023 04:09:48",137495,33,"task-k4y6",NA,30592039,9082638,NA,"complete",NA,NA,"computer","Desktop or Laptop","Windows 10","Chrome 114.0.0.0","1280x1024","1280x881",NA,NA,NA,"JV Task P2",11,"Anxious",321,"In",NA,1,"FGEHDICJBKA",NA,NA,"A (JV first)",NA,NA,"SS1","SS1",6,"J","Fixation","w9zir9",2,"continue","",966.320999999996,966.320999999996,966.320999999996,966.320999999996,966.320999999996,966.320999999996,1,966.320999999996,0,0,NA,"Fixation Timing","Fixation",1,"object-65","J","CFD-WF-011-002-N.jpg",NA,"SUPTM12782"
"32",1688990990245,"10/07/2023 12:09:50",1688976590245,-4,"10/07/2023 04:09:50",137495,33,"task-k4y6",NA,30592039,9082638,NA,"complete",NA,NA,"computer","Desktop or Laptop","Windows 10","Chrome 114.0.0.0","1280x1024","1280x881",NA,NA,NA,"JV Task P2",11,"Anxious",321,"In",NA,1,"FGEHDICJBKA",NA,NA,"A (JV first)",NA,NA,"SS1","SS1",5,"V","Valence","xyoebq",1,"continue","",1670.33500004769,1666.107,1670.33500004769,1670.33500004769,1666.107,1670.33500004769,1,1670.33500004769,0,0,NA,"Click To Continue","Continue Button",1,"object-25","V","CFD-WF-012-002-H.jpeg",NA,"SUPTM12782"
"33",1688990990246,"10/07/2023 12:09:50",1688976590246,-4,"10/07/2023 04:09:50",137495,33,"task-k4y6",NA,30592039,9082638,NA,"complete",NA,NA,"computer","Desktop or Laptop","Windows 10","Chrome 114.0.0.0","1280x1024","1280x881",NA,NA,NA,"JV Task P2",11,"Anxious",321,"In",NA,1,"FGEHDICJBKA",NA,NA,"A (JV first)",NA,NA,"SS1","SS1",5,"V","Valence","xyoebq",1,"response","61",1182.95600000001,1666.107,1670.83500004769,1182.95600000001,1666.107,1670.83500004769,1,1182.95600000001,487.87900004768,0,NA,"Slider","J",3,"object-27","V","CFD-WF-012-002-H.jpeg",NA,"SUPTM12782"
"34",1688990991208,"10/07/2023 12:09:51",1688976591208,-4,"10/07/2023 04:09:51",137495,33,"task-k4y6",NA,30592039,9082638,NA,"complete",NA,NA,"computer","Desktop or Laptop","Windows 10","Chrome 114.0.0.0","1280x1024","1280x881",NA,NA,NA,"JV Task P2",11,"Anxious",321,"In",NA,1,"FGEHDICJBKA",NA,NA,"A (JV first)",NA,NA,"SS1","SS1",5,"V","Fixation","68owkj",2,"continue","",966.339,966.339,966.339,966.339,966.339,966.339,1,966.339,0,0,NA,"Fixation Timing","Fixation",1,"object-21","V","CFD-WF-012-002-H.jpeg",NA,"SUPTM12782"
"35",1688990994118,"10/07/2023 12:09:54",1688976594118,-4,"10/07/2023 04:09:54",137495,33,"task-k4y6",NA,30592039,9082638,NA,"complete",NA,NA,"computer","Desktop or Laptop","Windows 10","Chrome 114.0.0.0","1280x1024","1280x881",NA,NA,NA,"JV Task P2",11,"Anxious",321,"In",NA,1,"FGEHDICJBKA",NA,NA,"A (JV first)",NA,NA,"SS1","SS1",7,"J","Judginess","y8ii7g",1,"continue","",2910.88900004768,2899.064,2910.88900004768,2910.88900004768,2899.064,2910.88900004768,1,2910.88900004768,0,0,NA,"Click To Continue","Continue Button",1,"object-14","J","CFD-WF-030-002-N.jpg",NA,"SUPTM12782"
"36",1688990994119,"10/07/2023 12:09:54",1688976594119,-4,"10/07/2023 04:09:54",137495,33,"task-k4y6",NA,30592039,9082638,NA,"complete",NA,NA,"computer","Desktop or Laptop","Windows 10","Chrome 114.0.0.0","1280x1024","1280x881",NA,NA,NA,"JV Task P2",11,"Anxious",321,"In",NA,1,"FGEHDICJBKA",NA,NA,"A (JV first)",NA,NA,"SS1","SS1",7,"J","Judginess","y8ii7g",1,"response","35",2532.502,2899.064,2911.78899990463,2532.502,2899.064,2911.78899990463,1,2532.502,379.286999904631,0,NA,"Slider","J",3,"object-18","J","CFD-WF-030-002-N.jpg",NA,"SUPTM12782"
"37",1688990995074,"10/07/2023 12:09:55",1688976595074,-4,"10/07/2023 04:09:55",137495,33,"task-k4y6",NA,30592039,9082638,NA,"complete",NA,NA,"computer","Desktop or Laptop","Windows 10","Chrome 114.0.0.0","1280x1024","1280x881",NA,NA,NA,"JV Task P2",11,"Anxious",321,"In",NA,1,"FGEHDICJBKA",NA,NA,"A (JV first)",NA,NA,"SS1","SS1",7,"J","Fixation","w9zir9",2,"continue","",966.461000000003,966.461000000003,966.461000000003,966.461000000003,966.461000000003,966.461000000003,1,966.461000000003,0,0,NA,"Fixation Timing","Fixation",1,"object-65","J","CFD-WF-030-002-N.jpg",NA,"SUPTM12782"
"38",1688990997197,"10/07/2023 12:09:57",1688976597197,-4,"10/07/2023 04:09:57",137495,33,"task-k4y6",NA,30592039,9082638,NA,"complete",NA,NA,"computer","Desktop or Laptop","Windows 10","Chrome 114.0.0.0","1280x1024","1280x881",NA,NA,NA,"JV Task P2",11,"Anxious",321,"In",NA,1,"FGEHDICJBKA",NA,NA,"A (JV first)",NA,NA,"SS1","SS1",6,"V","Valence","xyoebq",1,"continue","",2124.36400004768,2115.848,2124.36400004768,2124.36400004768,2115.848,2124.36400004768,1,2124.36400004768,0,0,NA,"Click To Continue","Continue Button",1,"object-25","V","CFD-WM-001-014-H.jpeg",NA,"SUPTM12782"
"39",1688990997199,"10/07/2023 12:09:57",1688976597199,-4,"10/07/2023 04:09:57",137495,33,"task-k4y6",NA,30592039,9082638,NA,"complete",NA,NA,"computer","Desktop or Laptop","Windows 10","Chrome 114.0.0.0","1280x1024","1280x881",NA,NA,NA,"JV Task P2",11,"Anxious",321,"In",NA,1,"FGEHDICJBKA",NA,NA,"A (JV first)",NA,NA,"SS1","SS1",6,"V","Valence","xyoebq",1,"response","75",1632.67,2115.848,2125.46399995231,1632.67,2115.848,2125.46399995231,1,1632.67,492.793999952315,0,NA,"Slider","J",3,"object-27","V","CFD-WM-001-014-H.jpeg",NA,"SUPTM12782"
"40",1688990998156,"10/07/2023 12:09:58",1688976598156,-4,"10/07/2023 04:09:58",137495,33,"task-k4y6",NA,30592039,9082638,NA,"complete",NA,NA,"computer","Desktop or Laptop","Windows 10","Chrome 114.0.0.0","1280x1024","1280x881",NA,NA,NA,"JV Task P2",11,"Anxious",321,"In",NA,1,"FGEHDICJBKA",NA,NA,"A (JV first)",NA,NA,"SS1","SS1",6,"V","Fixation","68owkj",2,"continue","",966.339999999997,966.339999999997,966.339999999997,966.339999999997,966.339999999997,966.339999999997,1,966.339999999997,0,0,NA,"Fixation Timing","Fixation",1,"object-21","V","CFD-WM-001-014-H.jpeg",NA,"SUPTM12782"
"41",1688991002782,"10/07/2023 12:10:02",1688976602782,-4,"10/07/2023 04:10:02",137495,33,"task-k4y6",NA,30592039,9082638,NA,"complete",NA,NA,"computer","Desktop or Laptop","Windows 10","Chrome 114.0.0.0","1280x1024","1280x881",NA,NA,NA,"JV Task P2",11,"Anxious",321,"In",NA,1,"FGEHDICJBKA",NA,NA,"A (JV first)",NA,NA,"SS1","SS1",7,"V","Valence","xyoebq",1,"continue","",4626.976,4615.09600000001,4626.976,4626.976,4615.09600000001,4626.976,1,4626.976,0,0,NA,"Click To Continue","Continue Button",1,"object-25","V","CFD-BF-029-031-S.jpeg",NA,"SUPTM12782"
"42",1688991002793,"10/07/2023 12:10:02",1688976602793,-4,"10/07/2023 04:10:02",137495,33,"task-k4y6",NA,30592039,9082638,NA,"complete",NA,NA,"computer","Desktop or Laptop","Windows 10","Chrome 114.0.0.0","1280x1024","1280x881",NA,NA,NA,"JV Task P2",11,"Anxious",321,"In",NA,1,"FGEHDICJBKA",NA,NA,"A (JV first)",NA,NA,"SS1","SS1",7,"V","Valence","xyoebq",1,"response","32",4015.308,4615.09600000001,4631.74300000001,4015.308,4615.09600000001,4631.74300000001,1,4015.308,616.435000000005,0,NA,"Slider","J",3,"object-27","V","CFD-BF-029-031-S.jpeg",NA,"SUPTM12782"
"43",1688991003738,"10/07/2023 12:10:03",1688976603738,-4,"10/07/2023 04:10:03",137495,33,"task-k4y6",NA,30592039,9082638,NA,"complete",NA,NA,"computer","Desktop or Laptop","Windows 10","Chrome 114.0.0.0","1280x1024","1280x881",NA,NA,NA,"JV Task P2",11,"Anxious",321,"In",NA,1,"FGEHDICJBKA",NA,NA,"A (JV first)",NA,NA,"SS1","SS1",7,"V","Fixation","68owkj",2,"continue","",966.481999999996,966.481999999996,966.481999999996,966.481999999996,966.481999999996,966.481999999996,1,966.481999999996,0,0,NA,"Fixation Timing","Fixation",1,"object-21","V","CFD-BF-029-031-S.jpeg",NA,"SUPTM12782"
"44",1688991005708,"10/07/2023 12:10:05",1688976605708,-4,"10/07/2023 04:10:05",137495,33,"task-k4y6",NA,30592039,9082638,NA,"complete",NA,NA,"computer","Desktop or Laptop","Windows 10","Chrome 114.0.0.0","1280x1024","1280x881",NA,NA,NA,"JV Task P2",11,"Anxious",321,"In",NA,1,"FGEHDICJBKA",NA,NA,"A (JV first)",NA,NA,"SS1","SS1",8,"V","Valence","xyoebq",1,"continue","",1971.49799990463,1965.823,1971.49799990463,1971.49799990463,1965.823,1971.49799990463,1,1971.49799990463,0,0,NA,"Click To Continue","Continue Button",1,"object-25","V","CFD-WM-028-003-S.jpeg",NA,"SUPTM12782"
"45",1688991005709,"10/07/2023 12:10:05",1688976605709,-4,"10/07/2023 04:10:05",137495,33,"task-k4y6",NA,30592039,9082638,NA,"complete",NA,NA,"computer","Desktop or Laptop","Windows 10","Chrome 114.0.0.0","1280x1024","1280x881",NA,NA,NA,"JV Task P2",11,"Anxious",321,"In",NA,1,"FGEHDICJBKA",NA,NA,"A (JV first)",NA,NA,"SS1","SS1",8,"V","Valence","xyoebq",1,"response","32",1499.384,1965.823,1971.99799990463,1499.384,1965.823,1971.99799990463,1,1499.384,472.613999904635,0,NA,"Slider","J",3,"object-27","V","CFD-WM-028-003-S.jpeg",NA,"SUPTM12782"
"46",1688991006670,"10/07/2023 12:10:06",1688976606670,-4,"10/07/2023 04:10:06",137495,33,"task-k4y6",NA,30592039,9082638,NA,"complete",NA,NA,"computer","Desktop or Laptop","Windows 10","Chrome 114.0.0.0","1280x1024","1280x881",NA,NA,NA,"JV Task P2",11,"Anxious",321,"In",NA,1,"FGEHDICJBKA",NA,NA,"A (JV first)",NA,NA,"SS1","SS1",8,"V","Fixation","68owkj",2,"continue","",966.440999999999,966.440999999999,966.440999999999,966.440999999999,966.440999999999,966.440999999999,1,966.440999999999,0,0,NA,"Fixation Timing","Fixation",1,"object-21","V","CFD-WM-028-003-S.jpeg",NA,"SUPTM12782"
"47",1688991008237,"10/07/2023 12:10:08",1688976608237,-4,"10/07/2023 04:10:08",137495,33,"task-k4y6",NA,30592039,9082638,NA,"complete",NA,NA,"computer","Desktop or Laptop","Windows 10","Chrome 114.0.0.0","1280x1024","1280x881",NA,NA,NA,"JV Task P2",11,"Anxious",321,"In",NA,1,"FGEHDICJBKA",NA,NA,"A (JV first)",NA,NA,"SS1","SS1",9,"V","Valence","xyoebq",1,"continue","",1566.132,1549.46,1566.132,1566.132,1549.46,1566.132,1,1566.132,0,0,NA,"Click To Continue","Continue Button",1,"object-25","V","CFD-AM-223-138-S.jpeg",NA,"SUPTM12782"
"48",1688991008238,"10/07/2023 12:10:08",1688976608238,-4,"10/07/2023 04:10:08",137495,33,"task-k4y6",NA,30592039,9082638,NA,"complete",NA,NA,"computer","Desktop or Laptop","Windows 10","Chrome 114.0.0.0","1280x1024","1280x881",NA,NA,NA,"JV Task P2",11,"Anxious",321,"In",NA,1,"FGEHDICJBKA",NA,NA,"A (JV first)",NA,NA,"SS1","SS1",9,"V","Valence","xyoebq",1,"response","29",1099.713,1549.46,1566.132,1099.713,1549.46,1566.132,1,1099.713,466.419000000002,0,NA,"Slider","J",3,"object-27","V","CFD-AM-223-138-S.jpeg",NA,"SUPTM12782"
"49",1688991009186,"10/07/2023 12:10:09",1688976609186,-4,"10/07/2023 04:10:09",137495,33,"task-k4y6",NA,30592039,9082638,NA,"complete",NA,NA,"computer","Desktop or Laptop","Windows 10","Chrome 114.0.0.0","1280x1024","1280x881",NA,NA,NA,"JV Task P2",11,"Anxious",321,"In",NA,1,"FGEHDICJBKA",NA,NA,"A (JV first)",NA,NA,"SS1","SS1",9,"V","Fixation","68owkj",2,"continue","",966.373999999996,966.373999999996,966.373999999996,966.373999999996,966.373999999996,966.373999999996,1,966.373999999996,0,0,NA,"Fixation Timing","Fixation",1,"object-21","V","CFD-AM-223-138-S.jpeg",NA,"SUPTM12782"
"50",1688991011566,"10/07/2023 12:10:11",1688976611566,-4,"10/07/2023 04:10:11",137495,33,"task-k4y6",NA,30592039,9082638,NA,"complete",NA,NA,"computer","Desktop or Laptop","Windows 10","Chrome 114.0.0.0","1280x1024","1280x881",NA,NA,NA,"JV Task P2",11,"Anxious",321,"In",NA,1,"FGEHDICJBKA",NA,NA,"A (JV first)",NA,NA,"SS1","SS1",10,"V","Valence","xyoebq",1,"continue","",2381.00000004769,2365.857,2381.00000004769,2381.00000004769,2365.857,2381.00000004769,1,2381.00000004769,0,0,NA,"Click To Continue","Continue Button",1,"object-25","V","CFD-WF-015-006-S.jpeg",NA,"SUPTM12782"
"51",1688991011567,"10/07/2023 12:10:11",1688976611567,-4,"10/07/2023 04:10:11",137495,33,"task-k4y6",NA,30592039,9082638,NA,"complete",NA,NA,"computer","Desktop or Laptop","Windows 10","Chrome 114.0.0.0","1280x1024","1280x881",NA,NA,NA,"JV Task P2",11,"Anxious",321,"In",NA,1,"FGEHDICJBKA",NA,NA,"A (JV first)",NA,NA,"SS1","SS1",10,"V","Valence","xyoebq",1,"response","27",1949.32,2365.857,2382.19999985695,1949.32,2365.857,2382.19999985695,1,1949.32,432.879999856952,0,NA,"Slider","J",3,"object-27","V","CFD-WF-015-006-S.jpeg",NA,"SUPTM12782"
"52",1688991012518,"10/07/2023 12:10:12",1688976612518,-4,"10/07/2023 04:10:12",137495,33,"task-k4y6",NA,30592039,9082638,NA,"complete",NA,NA,"computer","Desktop or Laptop","Windows 10","Chrome 114.0.0.0","1280x1024","1280x881",NA,NA,NA,"JV Task P2",11,"Anxious",321,"In",NA,1,"FGEHDICJBKA",NA,NA,"A (JV first)",NA,NA,"SS1","SS1",10,"V","Fixation","68owkj",2,"continue","",966.349000000002,966.349000000002,966.349000000002,966.349000000002,966.349000000002,966.349000000002,1,966.349000000002,0,0,NA,"Fixation Timing","Fixation",1,"object-21","V","CFD-WF-015-006-S.jpeg",NA,"SUPTM12782"
"53",1688991014526,"10/07/2023 12:10:14",1688976614526,-4,"10/07/2023 04:10:14",137495,33,"task-k4y6",NA,30592039,9082638,NA,"complete",NA,NA,"computer","Desktop or Laptop","Windows 10","Chrome 114.0.0.0","1280x1024","1280x881",NA,NA,NA,"JV Task P2",11,"Anxious",321,"In",NA,1,"FGEHDICJBKA",NA,NA,"A (JV first)",NA,NA,"SS1","SS1",8,"J","Judginess","y8ii7g",1,"continue","",2009.19399990463,1999.329,2009.19399990463,2009.19399990463,1999.329,2009.19399990463,1,2009.19399990463,0,0,NA,"Click To Continue","Continue Button",1,"object-14","J","CFD-BM-036-003-N.jpg",NA,"SUPTM12782"
"54",1688991014540,"10/07/2023 12:10:14",1688976614540,-4,"10/07/2023 04:10:14",137495,33,"task-k4y6",NA,30592039,9082638,NA,"complete",NA,NA,"computer","Desktop or Laptop","Windows 10","Chrome 114.0.0.0","1280x1024","1280x881",NA,NA,NA,"JV Task P2",11,"Anxious",321,"In",NA,1,"FGEHDICJBKA",NA,NA,"A (JV first)",NA,NA,"SS1","SS1",8,"J","Judginess","y8ii7g",1,"response","27",833.025999999998,1999.329,2016.014,833.025999999998,1999.329,2016.014,1,833.025999999998,1182.988,0,NA,"Slider","J",3,"object-18","J","CFD-BM-036-003-N.jpg",NA,"SUPTM12782"
"55",1688991015484,"10/07/2023 12:10:15",1688976615484,-4,"10/07/2023 04:10:15",137495,33,"task-k4y6",NA,30592039,9082638,NA,"complete",NA,NA,"computer","Desktop or Laptop","Windows 10","Chrome 114.0.0.0","1280x1024","1280x881",NA,NA,NA,"JV Task P2",11,"Anxious",321,"In",NA,1,"FGEHDICJBKA",NA,NA,"A (JV first)",NA,NA,"SS1","SS1",8,"J","Fixation","w9zir9",2,"continue","",966.320999999996,966.320999999996,966.320999999996,966.320999999996,966.320999999996,966.320999999996,1,966.320999999996,0,0,NA,"Fixation Timing","Fixation",1,"object-65","J","CFD-BM-036-003-N.jpg",NA,"SUPTM12782"
"56",1688991017470,"10/07/2023 12:10:17",1688976617470,-4,"10/07/2023 04:10:17",137495,33,"task-k4y6",NA,30592039,9082638,NA,"complete",NA,NA,"computer","Desktop or Laptop","Windows 10","Chrome 114.0.0.0","1280x1024","1280x881",NA,NA,NA,"JV Task P2",11,"Anxious",321,"In",NA,1,"FGEHDICJBKA",NA,NA,"A (JV first)",NA,NA,"SS1","SS1",9,"J","Judginess","y8ii7g",1,"continue","",1986.74399995232,1982.72,1986.74399995232,1986.74399995232,1982.72,1986.74399995232,1,1986.74399995232,0,0,NA,"Click To Continue","Continue Button",1,"object-14","J","CFD-MM-313-002-S.jpeg",NA,"SUPTM12782"
"57",1688991017470,"10/07/2023 12:10:17",1688976617470,-4,"10/07/2023 04:10:17",137495,33,"task-k4y6",NA,30592039,9082638,NA,"complete",NA,NA,"computer","Desktop or Laptop","Windows 10","Chrome 114.0.0.0","1280x1024","1280x881",NA,NA,NA,"JV Task P2",11,"Anxious",321,"In",NA,1,"FGEHDICJBKA",NA,NA,"A (JV first)",NA,NA,"SS1","SS1",9,"J","Judginess","y8ii7g",1,"response","36",1482.864,1982.72,1987.54399990464,1482.864,1982.72,1987.54399990464,1,1482.864,504.679999904634,0,NA,"Slider","J",3,"object-18","J","CFD-MM-313-002-S.jpeg",NA,"SUPTM12782"
"58",1688991018433,"10/07/2023 12:10:18",1688976618433,-4,"10/07/2023 04:10:18",137495,33,"task-k4y6",NA,30592039,9082638,NA,"complete",NA,NA,"computer","Desktop or Laptop","Windows 10","Chrome 114.0.0.0","1280x1024","1280x881",NA,NA,NA,"JV Task P2",11,"Anxious",321,"In",NA,1,"FGEHDICJBKA",NA,NA,"A (JV first)",NA,NA,"SS1","SS1",9,"J","Fixation","w9zir9",2,"continue","",966.328000000009,966.328000000009,966.328000000009,966.328000000009,966.328000000009,966.328000000009,1,966.328000000009,0,0,NA,"Fixation Timing","Fixation",1,"object-65","J","CFD-MM-313-002-S.jpeg",NA,"SUPTM12782"
"59",1688991020261,"10/07/2023 12:10:20",1688976620261,-4,"10/07/2023 04:10:20",137495,33,"task-k4y6",NA,30592039,9082638,NA,"complete",NA,NA,"computer","Desktop or Laptop","Windows 10","Chrome 114.0.0.0","1280x1024","1280x881",NA,NA,NA,"JV Task P2",11,"Anxious",321,"In",NA,1,"FGEHDICJBKA",NA,NA,"A (JV first)",NA,NA,"SS1","SS1",10,"J","Judginess","y8ii7g",1,"continue","",1829.49599990463,1816.03199999999,1829.49599990463,1829.49599990463,1816.03199999999,1829.49599990463,1,1829.49599990463,0,0,NA,"Click To Continue","Continue Button",1,"object-14","J","CFD-WM-009-002-S.jpeg",NA,"SUPTM12782"
"60",1688991020262,"10/07/2023 12:10:20",1688976620262,-4,"10/07/2023 04:10:20",137495,33,"task-k4y6",NA,30592039,9082638,NA,"complete",NA,NA,"computer","Desktop or Laptop","Windows 10","Chrome 114.0.0.0","1280x1024","1280x881",NA,NA,NA,"JV Task P2",11,"Anxious",321,"In",NA,1,"FGEHDICJBKA",NA,NA,"A (JV first)",NA,NA,"SS1","SS1",10,"J","Judginess","y8ii7g",1,"response","41",1101.09899999999,1816.03199999999,1830.59600004768,1101.09899999999,1816.03199999999,1830.59600004768,1,1101.09899999999,729.49700004769,0,NA,"Slider","J",3,"object-18","J","CFD-WM-009-002-S.jpeg",NA,"SUPTM12782"
"61",1688991021215,"10/07/2023 12:10:21",1688976621215,-4,"10/07/2023 04:10:21",137495,33,"task-k4y6",NA,30592039,9082638,NA,"complete",NA,NA,"computer","Desktop or Laptop","Windows 10","Chrome 114.0.0.0","1280x1024","1280x881",NA,NA,NA,"JV Task P2",11,"Anxious",321,"In",NA,1,"FGEHDICJBKA",NA,NA,"A (JV first)",NA,NA,"SS1","SS1",10,"J","Fixation","w9zir9",2,"continue","",966.365999999995,966.365999999995,966.365999999995,966.365999999995,966.365999999995,966.365999999995,1,966.365999999995,0,0,NA,"Fixation Timing","Fixation",1,"object-65","J","CFD-WM-009-002-S.jpeg",NA,"SUPTM12782"
"62",1688991023117,"10/07/2023 12:10:23",1688976623117,-4,"10/07/2023 04:10:23",137495,33,"task-k4y6",NA,30592039,9082638,NA,"complete",NA,NA,"computer","Desktop or Laptop","Windows 10","Chrome 114.0.0.0","1280x1024","1280x881",NA,NA,NA,"JV Task P2",11,"Anxious",321,"In",NA,1,"FGEHDICJBKA",NA,NA,"A (JV first)",NA,NA,"SS1","SS1",11,"V","Valence","xyoebq",1,"continue","",1902.69800004769,1899.40000000001,1902.69800004769,1902.69800004769,1899.40000000001,1902.69800004769,1,1902.69800004769,0,0,NA,"Click To Continue","Continue Button",1,"object-25","V","CFD-WF-012-002-H.jpeg",NA,"SUPTM12782"
"63",1688991023118,"10/07/2023 12:10:23",1688976623118,-4,"10/07/2023 04:10:23",137495,33,"task-k4y6",NA,30592039,9082638,NA,"complete",NA,NA,"computer","Desktop or Laptop","Windows 10","Chrome 114.0.0.0","1280x1024","1280x881",NA,NA,NA,"JV Task P2",11,"Anxious",321,"In",NA,1,"FGEHDICJBKA",NA,NA,"A (JV first)",NA,NA,"SS1","SS1",11,"V","Valence","xyoebq",1,"response","61",1216.239,1899.40000000001,1903.99800000001,1216.239,1899.40000000001,1903.99800000001,1,1216.239,687.759000000005,0,NA,"Slider","J",3,"object-27","V","CFD-WF-012-002-H.jpeg",NA,"SUPTM12782"
"64",1688991024081,"10/07/2023 12:10:24",1688976624081,-4,"10/07/2023 04:10:24",137495,33,"task-k4y6",NA,30592039,9082638,NA,"complete",NA,NA,"computer","Desktop or Laptop","Windows 10","Chrome 114.0.0.0","1280x1024","1280x881",NA,NA,NA,"JV Task P2",11,"Anxious",321,"In",NA,1,"FGEHDICJBKA",NA,NA,"A (JV first)",NA,NA,"SS1","SS1",11,"V","Fixation","68owkj",2,"continue","",966.315000000002,966.315000000002,966.315000000002,966.315000000002,966.315000000002,966.315000000002,1,966.315000000002,0,0,NA,"Fixation Timing","Fixation",1,"object-21","V","CFD-WF-012-002-H.jpeg",NA,"SUPTM12782"
"65",1688991026091,"10/07/2023 12:10:26",1688976626091,-4,"10/07/2023 04:10:26",137495,33,"task-k4y6",NA,30592039,9082638,NA,"complete",NA,NA,"computer","Desktop or Laptop","Windows 10","Chrome 114.0.0.0","1280x1024","1280x881",NA,NA,NA,"JV Task P2",11,"Anxious",321,"In",NA,1,"FGEHDICJBKA",NA,NA,"A (JV first)",NA,NA,"SS1","SS1",12,"V","Valence","xyoebq",1,"continue","",2011.68299985694,1999.292,2011.68299985694,2011.68299985694,1999.292,2011.68299985694,1,2011.68299985694,0,0,NA,"Click To Continue","Continue Button",1,"object-25","V","CFD-AM-220-134-S.jpeg",NA,"SUPTM12782"
"66",1688991026099,"10/07/2023 12:10:26",1688976626099,-4,"10/07/2023 04:10:26",137495,33,"task-k4y6",NA,30592039,9082638,NA,"complete",NA,NA,"computer","Desktop or Laptop","Windows 10","Chrome 114.0.0.0","1280x1024","1280x881",NA,NA,NA,"JV Task P2",11,"Anxious",321,"In",NA,1,"FGEHDICJBKA",NA,NA,"A (JV first)",NA,NA,"SS1","SS1",12,"V","Valence","xyoebq",1,"response","39",1416.20199999999,1999.292,2015.94300000001,1416.20199999999,1999.292,2015.94300000001,1,1416.20199999999,599.741000000024,0,NA,"Slider","J",3,"object-27","V","CFD-AM-220-134-S.jpeg",NA,"SUPTM12782"
"67",1688991027046,"10/07/2023 12:10:27",1688976627046,-4,"10/07/2023 04:10:27",137495,33,"task-k4y6",NA,30592039,9082638,NA,"complete",NA,NA,"computer","Desktop or Laptop","Windows 10","Chrome 114.0.0.0","1280x1024","1280x881",NA,NA,NA,"JV Task P2",11,"Anxious",321,"In",NA,1,"FGEHDICJBKA",NA,NA,"A (JV first)",NA,NA,"SS1","SS1",12,"V","Fixation","68owkj",2,"continue","",966.376999999993,966.376999999993,966.376999999993,966.376999999993,966.376999999993,966.376999999993,1,966.376999999993,0,0,NA,"Fixation Timing","Fixation",1,"object-21","V","CFD-AM-220-134-S.jpeg",NA,"SUPTM12782"
"68",1688991028726,"10/07/2023 12:10:28",1688976628726,-4,"10/07/2023 04:10:28",137495,33,"task-k4y6",NA,30592039,9082638,NA,"complete",NA,NA,"computer","Desktop or Laptop","Windows 10","Chrome 114.0.0.0","1280x1024","1280x881",NA,NA,NA,"JV Task P2",11,"Anxious",321,"In",NA,1,"FGEHDICJBKA",NA,NA,"A (JV first)",NA,NA,"SS1","SS1",13,"V","Valence","xyoebq",1,"continue","",1680.51399985695,1666.111,1680.51399985695,1680.51399985695,1666.111,1680.51399985695,1,1680.51399985695,0,0,NA,"Click To Continue","Continue Button",1,"object-25","V","CFD-WM-037-025-N.jpg",NA,"SUPTM12782"
"69",1688991028727,"10/07/2023 12:10:28",1688976628727,-4,"10/07/2023 04:10:28",137495,33,"task-k4y6",NA,30592039,9082638,NA,"complete",NA,NA,"computer","Desktop or Laptop","Windows 10","Chrome 114.0.0.0","1280x1024","1280x881",NA,NA,NA,"JV Task P2",11,"Anxious",321,"In",NA,1,"FGEHDICJBKA",NA,NA,"A (JV first)",NA,NA,"SS1","SS1",13,"V","Valence","xyoebq",1,"response","37",999.663,1666.111,1681.31400004769,999.663,1666.111,1681.31400004769,1,999.663,681.651000047685,0,NA,"Slider","J",3,"object-27","V","CFD-WM-037-025-N.jpg",NA,"SUPTM12782"
"70",1688991029679,"10/07/2023 12:10:29",1688976629679,-4,"10/07/2023 04:10:29",137495,33,"task-k4y6",NA,30592039,9082638,NA,"complete",NA,NA,"computer","Desktop or Laptop","Windows 10","Chrome 114.0.0.0","1280x1024","1280x881",NA,NA,NA,"JV Task P2",11,"Anxious",321,"In",NA,1,"FGEHDICJBKA",NA,NA,"A (JV first)",NA,NA,"SS1","SS1",13,"V","Fixation","68owkj",2,"continue","",966.326000000001,966.326000000001,966.326000000001,966.326000000001,966.326000000001,966.326000000001,1,966.326000000001,0,0,NA,"Fixation Timing","Fixation",1,"object-21","V","CFD-WM-037-025-N.jpg",NA,"SUPTM12782"
"71",1688991031205,"10/07/2023 12:10:31",1688976631205,-4,"10/07/2023 04:10:31",137495,33,"task-k4y6",NA,30592039,9082638,NA,"complete",NA,NA,"computer","Desktop or Laptop","Windows 10","Chrome 114.0.0.0","1280x1024","1280x881",NA,NA,NA,"JV Task P2",11,"Anxious",321,"In",NA,1,"FGEHDICJBKA",NA,NA,"A (JV first)",NA,NA,"SS1","SS1",14,"V","Valence","xyoebq",1,"continue","",1527.47699995231,1516.18399999999,1527.47699995231,1527.47699995231,1516.18399999999,1527.47699995231,1,1527.47699995231,0,0,NA,"Click To Continue","Continue Button",1,"object-25","V","CFD-WM-037-025-H.jpeg",NA,"SUPTM12782"
"72",1688991031206,"10/07/2023 12:10:31",1688976631206,-4,"10/07/2023 04:10:31",137495,33,"task-k4y6",NA,30592039,9082638,NA,"complete",NA,NA,"computer","Desktop or Laptop","Windows 10","Chrome 114.0.0.0","1280x1024","1280x881",NA,NA,NA,"JV Task P2",11,"Anxious",321,"In",NA,1,"FGEHDICJBKA",NA,NA,"A (JV first)",NA,NA,"SS1","SS1",14,"V","Valence","xyoebq",1,"response","60",849.743000000002,1516.18399999999,1528.57699985694,849.743000000002,1516.18399999999,1528.57699985694,1,849.743000000002,678.833999856943,0,NA,"Slider","J",3,"object-27","V","CFD-WM-037-025-H.jpeg",NA,"SUPTM12782"
"73",1688991032162,"10/07/2023 12:10:32",1688976632162,-4,"10/07/2023 04:10:32",137495,33,"task-k4y6",NA,30592039,9082638,NA,"complete",NA,NA,"computer","Desktop or Laptop","Windows 10","Chrome 114.0.0.0","1280x1024","1280x881",NA,NA,NA,"JV Task P2",11,"Anxious",321,"In",NA,1,"FGEHDICJBKA",NA,NA,"A (JV first)",NA,NA,"SS1","SS1",14,"V","Fixation","68owkj",2,"continue","",966.350000000006,966.350000000006,966.350000000006,966.350000000006,966.350000000006,966.350000000006,1,966.350000000006,0,0,NA,"Fixation Timing","Fixation",1,"object-21","V","CFD-WM-037-025-H.jpeg",NA,"SUPTM12782"
"74",1688991033870,"10/07/2023 12:10:33",1688976633870,-4,"10/07/2023 04:10:33",137495,33,"task-k4y6",NA,30592039,9082638,NA,"complete",NA,NA,"computer","Desktop or Laptop","Windows 10","Chrome 114.0.0.0","1280x1024","1280x881",NA,NA,NA,"JV Task P2",11,"Anxious",321,"In",NA,1,"FGEHDICJBKA",NA,NA,"A (JV first)",NA,NA,"SS1","SS1",15,"V","Valence","xyoebq",1,"continue","",1709.34300004768,1699.379,1709.34300004768,1709.34300004768,1699.379,1709.34300004768,1,1709.34300004768,0,0,NA,"Click To Continue","Continue Button",1,"object-25","V","CFD-WM-028-003-H.jpeg",NA,"SUPTM12782"
"75",1688991033874,"10/07/2023 12:10:33",1688976633874,-4,"10/07/2023 04:10:33",137495,33,"task-k4y6",NA,30592039,9082638,NA,"complete",NA,NA,"computer","Desktop or Laptop","Windows 10","Chrome 114.0.0.0","1280x1024","1280x881",NA,NA,NA,"JV Task P2",11,"Anxious",321,"In",NA,1,"FGEHDICJBKA",NA,NA,"A (JV first)",NA,NA,"SS1","SS1",15,"V","Valence","xyoebq",1,"response","60",1082.954,1699.379,1713.24299990463,1082.954,1699.379,1713.24299990463,1,1082.954,630.288999904631,0,NA,"Slider","J",3,"object-27","V","CFD-WM-028-003-H.jpeg",NA,"SUPTM12782"
"76",1688991034827,"10/07/2023 12:10:34",1688976634827,-4,"10/07/2023 04:10:34",137495,33,"task-k4y6",NA,30592039,9082638,NA,"complete",NA,NA,"computer","Desktop or Laptop","Windows 10","Chrome 114.0.0.0","1280x1024","1280x881",NA,NA,NA,"JV Task P2",11,"Anxious",321,"In",NA,1,"FGEHDICJBKA",NA,NA,"A (JV first)",NA,NA,"SS1","SS1",15,"V","Fixation","68owkj",2,"continue","",966.392999999996,966.392999999996,966.392999999996,966.392999999996,966.392999999996,966.392999999996,1,966.392999999996,0,0,NA,"Fixation Timing","Fixation",1,"object-21","V","CFD-WM-028-003-H.jpeg",NA,"SUPTM12782"
"77",1688991037021,"10/07/2023 12:10:37",1688976637021,-4,"10/07/2023 04:10:37",137495,33,"task-k4y6",NA,30592039,9082638,NA,"complete",NA,NA,"computer","Desktop or Laptop","Windows 10","Chrome 114.0.0.0","1280x1024","1280x881",NA,NA,NA,"JV Task P2",11,"Anxious",321,"In",NA,1,"FGEHDICJBKA",NA,NA,"A (JV first)",NA,NA,"SS1","SS1",16,"V","Valence","xyoebq",1,"continue","",2194.97099990463,2182.603,2194.97099990463,2194.97099990463,2182.603,2194.97099990463,1,2194.97099990463,0,0,NA,"Click To Continue","Continue Button",1,"object-25","V","CFD-WF-022-017-N.jpg",NA,"SUPTM12782"
"78",1688991037035,"10/07/2023 12:10:37",1688976637035,-4,"10/07/2023 04:10:37",137495,33,"task-k4y6",NA,30592039,9082638,NA,"complete",NA,NA,"computer","Desktop or Laptop","Windows 10","Chrome 114.0.0.0","1280x1024","1280x881",NA,NA,NA,"JV Task P2",11,"Anxious",321,"In",NA,1,"FGEHDICJBKA",NA,NA,"A (JV first)",NA,NA,"SS1","SS1",16,"V","Valence","xyoebq",1,"response","42",1482.84,2182.603,2199.258,1482.84,2182.603,2199.258,1,1482.84,716.418000000005,0,NA,"Slider","J",3,"object-27","V","CFD-WF-022-017-N.jpg",NA,"SUPTM12782"
"79",1688991037976,"10/07/2023 12:10:37",1688976637976,-4,"10/07/2023 04:10:37",137495,33,"task-k4y6",NA,30592039,9082638,NA,"complete",NA,NA,"computer","Desktop or Laptop","Windows 10","Chrome 114.0.0.0","1280x1024","1280x881",NA,NA,NA,"JV Task P2",11,"Anxious",321,"In",NA,1,"FGEHDICJBKA",NA,NA,"A (JV first)",NA,NA,"SS1","SS1",16,"V","Fixation","68owkj",2,"continue","",966.362999999998,966.362999999998,966.362999999998,966.362999999998,966.362999999998,966.362999999998,1,966.362999999998,0,0,NA,"Fixation Timing","Fixation",1,"object-21","V","CFD-WF-022-017-N.jpg",NA,"SUPTM12782"
"80",1688991043989,"10/07/2023 12:10:43",1688976643989,-4,"10/07/2023 04:10:43",137495,33,"task-k4y6",NA,30592039,9082638,NA,"complete",NA,NA,"computer","Desktop or Laptop","Windows 10","Chrome 114.0.0.0","1280x1024","1280x881",NA,NA,NA,"JV Task P2",11,"Anxious",321,"In",NA,1,"FGEHDICJBKA",NA,NA,"A (JV first)",NA,NA,"SS1","SS1",11,"J","Judginess","y8ii7g",1,"continue","",6014.20499995232,5997.984,6014.20499995232,6014.20499995232,5997.984,6014.20499995232,1,6014.20499995232,0,0,NA,"Click To Continue","Continue Button",1,"object-14","J","CFD-WM-025-002-H.jpeg",NA,"SUPTM12782"
"81",1688991043990,"10/07/2023 12:10:43",1688976643990,-4,"10/07/2023 04:10:43",137495,33,"task-k4y6",NA,30592039,9082638,NA,"complete",NA,NA,"computer","Desktop or Laptop","Windows 10","Chrome 114.0.0.0","1280x1024","1280x881",NA,NA,NA,"JV Task P2",11,"Anxious",321,"In",NA,1,"FGEHDICJBKA",NA,NA,"A (JV first)",NA,NA,"SS1","SS1",11,"J","Judginess","y8ii7g",1,"response","60",5381.526,5997.984,6014.65999999999,5381.526,5997.984,6014.65999999999,1,5381.526,633.133999999991,0,NA,"Slider","J",3,"object-18","J","CFD-WM-025-002-H.jpeg",NA,"SUPTM12782"
"82",1688991044941,"10/07/2023 12:10:44",1688976644941,-4,"10/07/2023 04:10:44",137495,33,"task-k4y6",NA,30592039,9082638,NA,"complete",NA,NA,"computer","Desktop or Laptop","Windows 10","Chrome 114.0.0.0","1280x1024","1280x881",NA,NA,NA,"JV Task P2",11,"Anxious",321,"In",NA,1,"FGEHDICJBKA",NA,NA,"A (JV first)",NA,NA,"SS1","SS1",11,"J","Fixation","w9zir9",2,"continue","",966.335000000006,966.335000000006,966.335000000006,966.335000000006,966.335000000006,966.335000000006,1,966.335000000006,0,0,NA,"Fixation Timing","Fixation",1,"object-65","J","CFD-WM-025-002-H.jpeg",NA,"SUPTM12782"
"83",1688991046530,"10/07/2023 12:10:46",1688976646530,-4,"10/07/2023 04:10:46",137495,33,"task-k4y6",NA,30592039,9082638,NA,"complete",NA,NA,"computer","Desktop or Laptop","Windows 10","Chrome 114.0.0.0","1280x1024","1280x881",NA,NA,NA,"JV Task P2",11,"Anxious",321,"In",NA,1,"FGEHDICJBKA",NA,NA,"A (JV first)",NA,NA,"SS1","SS1",12,"J","Judginess","y8ii7g",1,"continue","",1590.68599990463,1582.697,1590.68599990463,1590.68599990463,1582.697,1590.68599990463,1,1590.68599990463,0,0,NA,"Click To Continue","Continue Button",1,"object-14","J","CFD-WM-031-003-H.jpeg",NA,"SUPTM12782"
"84",1688991046530,"10/07/2023 12:10:46",1688976646530,-4,"10/07/2023 04:10:46",137495,33,"task-k4y6",NA,30592039,9082638,NA,"complete",NA,NA,"computer","Desktop or Laptop","Windows 10","Chrome 114.0.0.0","1280x1024","1280x881",NA,NA,NA,"JV Task P2",11,"Anxious",321,"In",NA,1,"FGEHDICJBKA",NA,NA,"A (JV first)",NA,NA,"SS1","SS1",12,"J","Judginess","y8ii7g",1,"response","65",966.347999999998,1582.697,1590.88599995231,966.347999999998,1582.697,1590.88599995231,1,966.347999999998,624.537999952314,0,NA,"Slider","J",3,"object-18","J","CFD-WM-031-003-H.jpeg",NA,"SUPTM12782"
"85",1688991047489,"10/07/2023 12:10:47",1688976647489,-4,"10/07/2023 04:10:47",137495,33,"task-k4y6",NA,30592039,9082638,NA,"complete",NA,NA,"computer","Desktop or Laptop","Windows 10","Chrome 114.0.0.0","1280x1024","1280x881",NA,NA,NA,"JV Task P2",11,"Anxious",321,"In",NA,1,"FGEHDICJBKA",NA,NA,"A (JV first)",NA,NA,"SS1","SS1",12,"J","Fixation","w9zir9",2,"continue","",966.448999999993,966.448999999993,966.448999999993,966.448999999993,966.448999999993,966.448999999993,1,966.448999999993,0,0,NA,"Fixation Timing","Fixation",1,"object-65","J","CFD-WM-031-003-H.jpeg",NA,"SUPTM12782"
"86",1688991049357,"10/07/2023 12:10:49",1688976649357,-4,"10/07/2023 04:10:49",137495,33,"task-k4y6",NA,30592039,9082638,NA,"complete",NA,NA,"computer","Desktop or Laptop","Windows 10","Chrome 114.0.0.0","1280x1024","1280x881",NA,NA,NA,"JV Task P2",11,"Anxious",321,"In",NA,1,"FGEHDICJBKA",NA,NA,"A (JV first)",NA,NA,"SS1","SS1",13,"J","Judginess","y8ii7g",1,"continue","",1868.83999985695,1866.049,1868.83999985695,1868.83999985695,1866.049,1868.83999985695,1,1868.83999985695,0,0,NA,"Click To Continue","Continue Button",1,"object-14","J","CFD-WF-035-024-N.jpg",NA,"SUPTM12782"
"87",1688991049358,"10/07/2023 12:10:49",1688976649358,-4,"10/07/2023 04:10:49",137495,33,"task-k4y6",NA,30592039,9082638,NA,"complete",NA,NA,"computer","Desktop or Laptop","Windows 10","Chrome 114.0.0.0","1280x1024","1280x881",NA,NA,NA,"JV Task P2",11,"Anxious",321,"In",NA,1,"FGEHDICJBKA",NA,NA,"A (JV first)",NA,NA,"SS1","SS1",13,"J","Judginess","y8ii7g",1,"response","41",949.703999999998,1866.049,1869.44,949.703999999998,1866.049,1869.44,1,949.703999999998,919.736000000004,0,NA,"Slider","J",3,"object-18","J","CFD-WF-035-024-N.jpg",NA,"SUPTM12782"
"88",1688991050322,"10/07/2023 12:10:50",1688976650322,-4,"10/07/2023 04:10:50",137495,33,"task-k4y6",NA,30592039,9082638,NA,"complete",NA,NA,"computer","Desktop or Laptop","Windows 10","Chrome 114.0.0.0","1280x1024","1280x881",NA,NA,NA,"JV Task P2",11,"Anxious",321,"In",NA,1,"FGEHDICJBKA",NA,NA,"A (JV first)",NA,NA,"SS1","SS1",13,"J","Fixation","w9zir9",2,"continue","",966.351999999999,966.351999999999,966.351999999999,966.351999999999,966.351999999999,966.351999999999,1,966.351999999999,0,0,NA,"Fixation Timing","Fixation",1,"object-65","J","CFD-WF-035-024-N.jpg",NA,"SUPTM12782"
"89",1688991052149,"10/07/2023 12:10:52",1688976652149,-4,"10/07/2023 04:10:52",137495,33,"task-k4y6",NA,30592039,9082638,NA,"complete",NA,NA,"computer","Desktop or Laptop","Windows 10","Chrome 114.0.0.0","1280x1024","1280x881",NA,NA,NA,"JV Task P2",11,"Anxious",321,"In",NA,1,"FGEHDICJBKA",NA,NA,"A (JV first)",NA,NA,"SS1","SS1",17,"V","Valence","xyoebq",1,"continue","",1828.039,1816.05500000001,1828.039,1828.039,1816.05500000001,1828.039,1,1828.039,0,0,NA,"Click To Continue","Continue Button",1,"object-25","V","CFD-WF-036-023-N.jpg",NA,"SUPTM12782"
"90",1688991052150,"10/07/2023 12:10:52",1688976652150,-4,"10/07/2023 04:10:52",137495,33,"task-k4y6",NA,30592039,9082638,NA,"complete",NA,NA,"computer","Desktop or Laptop","Windows 10","Chrome 114.0.0.0","1280x1024","1280x881",NA,NA,NA,"JV Task P2",11,"Anxious",321,"In",NA,1,"FGEHDICJBKA",NA,NA,"A (JV first)",NA,NA,"SS1","SS1",17,"V","Valence","xyoebq",1,"response","41",1199.56700000001,1816.05500000001,1828.93899985695,1199.56700000001,1816.05500000001,1828.93899985695,1,1199.56700000001,629.371999856943,0,NA,"Slider","J",3,"object-27","V","CFD-WF-036-023-N.jpg",NA,"SUPTM12782"
"91",1688991053104,"10/07/2023 12:10:53",1688976653104,-4,"10/07/2023 04:10:53",137495,33,"task-k4y6",NA,30592039,9082638,NA,"complete",NA,NA,"computer","Desktop or Laptop","Windows 10","Chrome 114.0.0.0","1280x1024","1280x881",NA,NA,NA,"JV Task P2",11,"Anxious",321,"In",NA,1,"FGEHDICJBKA",NA,NA,"A (JV first)",NA,NA,"SS1","SS1",17,"V","Fixation","68owkj",2,"continue","",966.330000000002,966.330000000002,966.330000000002,966.330000000002,966.330000000002,966.330000000002,1,966.330000000002,0,0,NA,"Fixation Timing","Fixation",1,"object-21","V","CFD-WF-036-023-N.jpg",NA,"SUPTM12782"
"92",1688991055181,"10/07/2023 12:10:55",1688976655181,-4,"10/07/2023 04:10:55",137495,33,"task-k4y6",NA,30592039,9082638,NA,"complete",NA,NA,"computer","Desktop or Laptop","Windows 10","Chrome 114.0.0.0","1280x1024","1280x881",NA,NA,NA,"JV Task P2",11,"Anxious",321,"In",NA,1,"FGEHDICJBKA",NA,NA,"A (JV first)",NA,NA,"SS1","SS1",14,"J","Judginess","y8ii7g",1,"continue","",2077.95399995231,2066.01199999999,2077.95399995231,2077.95399995231,2066.01199999999,2077.95399995231,1,2077.95399995231,0,0,NA,"Click To Continue","Continue Button",1,"object-14","J","CFD-IM-711-011-S.jpeg",NA,"SUPTM12782"
"93",1688991055183,"10/07/2023 12:10:55",1688976655183,-4,"10/07/2023 04:10:55",137495,33,"task-k4y6",NA,30592039,9082638,NA,"complete",NA,NA,"computer","Desktop or Laptop","Windows 10","Chrome 114.0.0.0","1280x1024","1280x881",NA,NA,NA,"JV Task P2",11,"Anxious",321,"In",NA,1,"FGEHDICJBKA",NA,NA,"A (JV first)",NA,NA,"SS1","SS1",14,"J","Judginess","y8ii7g",1,"response","38",1432.886,2066.01199999999,2079.15399999999,1432.886,2066.01199999999,2079.15399999999,1,1432.886,646.267999999996,0,NA,"Slider","J",3,"object-18","J","CFD-IM-711-011-S.jpeg",NA,"SUPTM12782"
"94",1688991056136,"10/07/2023 12:10:56",1688976656136,-4,"10/07/2023 04:10:56",137495,33,"task-k4y6",NA,30592039,9082638,NA,"complete",NA,NA,"computer","Desktop or Laptop","Windows 10","Chrome 114.0.0.0","1280x1024","1280x881",NA,NA,NA,"JV Task P2",11,"Anxious",321,"In",NA,1,"FGEHDICJBKA",NA,NA,"A (JV first)",NA,NA,"SS1","SS1",14,"J","Fixation","w9zir9",2,"continue","",966.325000000012,966.325000000012,966.325000000012,966.325000000012,966.325000000012,966.325000000012,1,966.325000000012,0,0,NA,"Fixation Timing","Fixation",1,"object-65","J","CFD-IM-711-011-S.jpeg",NA,"SUPTM12782"
"95",1688991059197,"10/07/2023 12:10:59",1688976659197,-4,"10/07/2023 04:10:59",137495,33,"task-k4y6",NA,30592039,9082638,NA,"complete",NA,NA,"computer","Desktop or Laptop","Windows 10","Chrome 114.0.0.0","1280x1024","1280x881",NA,NA,NA,"JV Task P2",11,"Anxious",321,"In",NA,1,"FGEHDICJBKA",NA,NA,"A (JV first)",NA,NA,"SS1","SS1",15,"J","Judginess","y8ii7g",1,"continue","",3061.317,3048.98599999999,3061.317,3061.317,3048.98599999999,3061.317,1,3061.317,0,0,NA,"Click To Continue","Continue Button",1,"object-14","J","CFD-WM-025-002-S.jpeg",NA,"SUPTM12782"
"96",1688991059210,"10/07/2023 12:10:59",1688976659210,-4,"10/07/2023 04:10:59",137495,33,"task-k4y6",NA,30592039,9082638,NA,"complete",NA,NA,"computer","Desktop or Laptop","Windows 10","Chrome 114.0.0.0","1280x1024","1280x881",NA,NA,NA,"JV Task P2",11,"Anxious",321,"In",NA,1,"FGEHDICJBKA",NA,NA,"A (JV first)",NA,NA,"SS1","SS1",15,"J","Judginess","y8ii7g",1,"response","41",2499.15399999999,3048.98599999999,3065.60999999999,2499.15399999999,3048.98599999999,3065.60999999999,1,2499.15399999999,566.455999999991,0,NA,"Slider","J",3,"object-18","J","CFD-WM-025-002-S.jpeg",NA,"SUPTM12782"
"97",1688991060152,"10/07/2023 12:11:00",1688976660152,-4,"10/07/2023 04:11:00",137495,33,"task-k4y6",NA,30592039,9082638,NA,"complete",NA,NA,"computer","Desktop or Laptop","Windows 10","Chrome 114.0.0.0","1280x1024","1280x881",NA,NA,NA,"JV Task P2",11,"Anxious",321,"In",NA,1,"FGEHDICJBKA",NA,NA,"A (JV first)",NA,NA,"SS1","SS1",15,"J","Fixation","w9zir9",2,"continue","",966.379000000001,966.379000000001,966.379000000001,966.379000000001,966.379000000001,966.379000000001,1,966.379000000001,0,0,NA,"Fixation Timing","Fixation",1,"object-65","J","CFD-WM-025-002-S.jpeg",NA,"SUPTM12782"
"98",1688991064629,"10/07/2023 12:11:04",1688976664629,-4,"10/07/2023 04:11:04",137495,33,"task-k4y6",NA,30592039,9082638,NA,"complete",NA,NA,"computer","Desktop or Laptop","Windows 10","Chrome 114.0.0.0","1280x1024","1280x881",NA,NA,NA,"JV Task P2",11,"Anxious",321,"In",NA,1,"FGEHDICJBKA",NA,NA,"A (JV first)",NA,NA,"SS1","SS1",16,"J","Judginess","y8ii7g",1,"continue","",4477.85199985695,4465.171,4477.85199985695,4477.85199985695,4465.171,4477.85199985695,1,4477.85199985695,0,0,NA,"Click To Continue","Continue Button",1,"object-14","J","CFD-BM-016-036-N.jpg",NA,"SUPTM12782"
"99",1688991064630,"10/07/2023 12:11:04",1688976664630,-4,"10/07/2023 04:11:04",137495,33,"task-k4y6",NA,30592039,9082638,NA,"complete",NA,NA,"computer","Desktop or Laptop","Windows 10","Chrome 114.0.0.0","1280x1024","1280x881",NA,NA,NA,"JV Task P2",11,"Anxious",321,"In",NA,1,"FGEHDICJBKA",NA,NA,"A (JV first)",NA,NA,"SS1","SS1",16,"J","Judginess","y8ii7g",1,"response","37",3482.141,4465.171,4478.75199995232,3482.141,4465.171,4478.75199995232,1,3482.141,996.610999952318,0,NA,"Slider","J",3,"object-18","J","CFD-BM-016-036-N.jpg",NA,"SUPTM12782"
"100",1688991065583,"10/07/2023 12:11:05",1688976665583,-4,"10/07/2023 04:11:05",137495,33,"task-k4y6",NA,30592039,9082638,NA,"complete",NA,NA,"computer","Desktop or Laptop","Windows 10","Chrome 114.0.0.0","1280x1024","1280x881",NA,NA,NA,"JV Task P2",11,"Anxious",321,"In",NA,1,"FGEHDICJBKA",NA,NA,"A (JV first)",NA,NA,"SS1","SS1",16,"J","Fixation","w9zir9",2,"continue","",966.301000000007,966.301000000007,966.301000000007,966.301000000007,966.301000000007,966.301000000007,1,966.301000000007,0,0,NA,"Fixation Timing","Fixation",1,"object-65","J","CFD-BM-016-036-N.jpg",NA,"SUPTM12782"
"101",1688991072988,"10/07/2023 12:11:12",1688976672988,-4,"10/07/2023 04:11:12",137495,33,"task-k4y6",NA,30592039,9082638,NA,"complete",NA,NA,"computer","Desktop or Laptop","Windows 10","Chrome 114.0.0.0","1280x1024","1280x881",NA,NA,NA,"JV Task P2",11,"Anxious",321,"In",NA,1,"FGEHDICJBKA",NA,NA,"A (JV first)",NA,NA,"SS1","SS1",17,"J","Judginess","y8ii7g",1,"continue","",7405.48,7397.52499999999,7405.48,7405.48,7397.52499999999,7405.48,1,7405.48,0,0,NA,"Click To Continue","Continue Button",1,"object-14","J","CFD-WF-006-002-S.jpeg",NA,"SUPTM12782"
"102",1688991072993,"10/07/2023 12:11:12",1688976672993,-4,"10/07/2023 04:11:12",137495,33,"task-k4y6",NA,30592039,9082638,NA,"complete",NA,NA,"computer","Desktop or Laptop","Windows 10","Chrome 114.0.0.0","1280x1024","1280x881",NA,NA,NA,"JV Task P2",11,"Anxious",321,"In",NA,1,"FGEHDICJBKA",NA,NA,"A (JV first)",NA,NA,"SS1","SS1",17,"J","Judginess","y8ii7g",1,"response","38",6781.09299999999,7397.52499999999,7410.18000004768,6781.09299999999,7397.52499999999,7410.18000004768,1,6781.09299999999,629.087000047686,0,NA,"Slider","J",3,"object-18","J","CFD-WF-006-002-S.jpeg",NA,"SUPTM12782"
"103",1688991073947,"10/07/2023 12:11:13",1688976673947,-4,"10/07/2023 04:11:13",137495,33,"task-k4y6",NA,30592039,9082638,NA,"complete",NA,NA,"computer","Desktop or Laptop","Windows 10","Chrome 114.0.0.0","1280x1024","1280x881",NA,NA,NA,"JV Task P2",11,"Anxious",321,"In",NA,1,"FGEHDICJBKA",NA,NA,"A (JV first)",NA,NA,"SS1","SS1",17,"J","Fixation","w9zir9",2,"continue","",966.286000000007,966.286000000007,966.286000000007,966.286000000007,966.286000000007,966.286000000007,1,966.286000000007,0,0,NA,"Fixation Timing","Fixation",1,"object-65","J","CFD-WF-006-002-S.jpeg",NA,"SUPTM12782"
"104",1688991079820,"10/07/2023 12:11:19",1688976679820,-4,"10/07/2023 04:11:19",137495,33,"task-k4y6",NA,30592039,9082638,NA,"complete",NA,NA,"computer","Desktop or Laptop","Windows 10","Chrome 114.0.0.0","1280x1024","1280x881",NA,NA,NA,"JV Task P2",11,"Anxious",321,"In",NA,1,"FGEHDICJBKA",NA,NA,"A (JV first)",NA,NA,"SS1","SS1",18,"J","Judginess","y8ii7g",1,"continue","",5873.96899995231,5864.769,5873.96899995231,5873.96899995231,5864.769,5873.96899995231,1,5873.96899995231,0,0,NA,"Click To Continue","Continue Button",1,"object-14","J","CFD-WM-035-032-H.jpeg",NA,"SUPTM12782"
"105",1688991079821,"10/07/2023 12:11:19",1688976679821,-4,"10/07/2023 04:11:19",137495,33,"task-k4y6",NA,30592039,9082638,NA,"complete",NA,NA,"computer","Desktop or Laptop","Windows 10","Chrome 114.0.0.0","1280x1024","1280x881",NA,NA,NA,"JV Task P2",11,"Anxious",321,"In",NA,1,"FGEHDICJBKA",NA,NA,"A (JV first)",NA,NA,"SS1","SS1",18,"J","Judginess","y8ii7g",1,"response","58",5464.91099999999,5864.769,5874.66899999999,5464.91099999999,5864.769,5874.66899999999,1,5464.91099999999,409.758000000002,0,NA,"Slider","J",3,"object-18","J","CFD-WM-035-032-H.jpeg",NA,"SUPTM12782"
"106",1688991080778,"10/07/2023 12:11:20",1688976680778,-4,"10/07/2023 04:11:20",137495,33,"task-k4y6",NA,30592039,9082638,NA,"complete",NA,NA,"computer","Desktop or Laptop","Windows 10","Chrome 114.0.0.0","1280x1024","1280x881",NA,NA,NA,"JV Task P2",11,"Anxious",321,"In",NA,1,"FGEHDICJBKA",NA,NA,"A (JV first)",NA,NA,"SS1","SS1",18,"J","Fixation","w9zir9",2,"continue","",966.365999999995,966.365999999995,966.365999999995,966.365999999995,966.365999999995,966.365999999995,1,966.365999999995,0,0,NA,"Fixation Timing","Fixation",1,"object-65","J","CFD-WM-035-032-H.jpeg",NA,"SUPTM12782"
"107",1688991083790,"10/07/2023 12:11:23",1688976683790,-4,"10/07/2023 04:11:23",137495,33,"task-k4y6",NA,30592039,9082638,NA,"complete",NA,NA,"computer","Desktop or Laptop","Windows 10","Chrome 114.0.0.0","1280x1024","1280x881",NA,NA,NA,"JV Task P2",11,"Anxious",321,"In",NA,1,"FGEHDICJBKA",NA,NA,"A (JV first)",NA,NA,"SS1","SS1",19,"J","Judginess","y8ii7g",1,"continue","",3012.13399990463,2999.05399999999,3012.13399990463,3012.13399990463,2999.05399999999,3012.13399990463,1,3012.13399990463,0,0,NA,"Click To Continue","Continue Button",1,"object-14","J","CFD-WF-037-029-N.jpg",NA,"SUPTM12782"
"108",1688991083799,"10/07/2023 12:11:23",1688976683799,-4,"10/07/2023 04:11:23",137495,33,"task-k4y6",NA,30592039,9082638,NA,"complete",NA,NA,"computer","Desktop or Laptop","Windows 10","Chrome 114.0.0.0","1280x1024","1280x881",NA,NA,NA,"JV Task P2",11,"Anxious",321,"In",NA,1,"FGEHDICJBKA",NA,NA,"A (JV first)",NA,NA,"SS1","SS1",19,"J","Judginess","y8ii7g",1,"response","56",1399.515,2999.05399999999,3015.75299999998,1399.515,2999.05399999999,3015.75299999998,1,1399.515,1616.23799999998,0,NA,"Slider","J",3,"object-18","J","CFD-WF-037-029-N.jpg",NA,"SUPTM12782"
"109",1688991084744,"10/07/2023 12:11:24",1688976684744,-4,"10/07/2023 04:11:24",137495,33,"task-k4y6",NA,30592039,9082638,NA,"complete",NA,NA,"computer","Desktop or Laptop","Windows 10","Chrome 114.0.0.0","1280x1024","1280x881",NA,NA,NA,"JV Task P2",11,"Anxious",321,"In",NA,1,"FGEHDICJBKA",NA,NA,"A (JV first)",NA,NA,"SS1","SS1",19,"J","Fixation","w9zir9",2,"continue","",966.274000000005,966.274000000005,966.274000000005,966.274000000005,966.274000000005,966.274000000005,1,966.274000000005,0,0,NA,"Fixation Timing","Fixation",1,"object-65","J","CFD-WF-037-029-N.jpg",NA,"SUPTM12782"
"110",1688991112989,"10/07/2023 12:11:52",1688976712989,-4,"10/07/2023 04:11:52",137495,33,"task-k4y6",NA,30592039,9082638,NA,"complete",NA,NA,"computer","Desktop or Laptop","Windows 10","Chrome 114.0.0.0","1280x1024","1280x881",NA,NA,NA,"JV Task P2",11,"Anxious",321,"In",NA,1,"FGEHDICJBKA",NA,NA,"A (JV first)",NA,NA,"SS1","SS1",18,"V","Valence","xyoebq",1,"continue","",28245.706,28240.61,28245.706,28245.706,28240.61,28245.706,1,28245.706,0,0,NA,"Click To Continue","Continue Button",1,"object-25","V","CFD-WM-028-003-H.jpeg",NA,"SUPTM12782"
"111",1688991112995,"10/07/2023 12:11:52",1688976712995,-4,"10/07/2023 04:11:52",137495,33,"task-k4y6",NA,30592039,9082638,NA,"complete",NA,NA,"computer","Desktop or Laptop","Windows 10","Chrome 114.0.0.0","1280x1024","1280x881",NA,NA,NA,"JV Task P2",11,"Anxious",321,"In",NA,1,"FGEHDICJBKA",NA,NA,"A (JV first)",NA,NA,"SS1","SS1",18,"V","Valence","xyoebq",1,"response","58",27890.721,28240.61,28251.5059999523,27890.721,28240.61,28251.5059999523,1,27890.721,360.784999952302,0,NA,"Slider","J",3,"object-27","V","CFD-WM-028-003-H.jpeg",NA,"SUPTM12782"
"112",1688991113951,"10/07/2023 12:11:53",1688976713951,-4,"10/07/2023 04:11:53",137495,33,"task-k4y6",NA,30592039,9082638,NA,"complete",NA,NA,"computer","Desktop or Laptop","Windows 10","Chrome 114.0.0.0","1280x1024","1280x881",NA,NA,NA,"JV Task P2",11,"Anxious",321,"In",NA,1,"FGEHDICJBKA",NA,NA,"A (JV first)",NA,NA,"SS1","SS1",18,"V","Fixation","68owkj",2,"continue","",966.315999999992,966.315999999992,966.315999999992,966.315999999992,966.315999999992,966.315999999992,1,966.315999999992,0,0,NA,"Fixation Timing","Fixation",1,"object-21","V","CFD-WM-028-003-H.jpeg",NA,"SUPTM12782"
"113",1688991115443,"10/07/2023 12:11:55",1688976715443,-4,"10/07/2023 04:11:55",137495,33,"task-k4y6",NA,30592039,9082638,NA,"complete",NA,NA,"computer","Desktop or Laptop","Windows 10","Chrome 114.0.0.0","1280x1024","1280x881",NA,NA,NA,"JV Task P2",11,"Anxious",321,"In",NA,1,"FGEHDICJBKA",NA,NA,"A (JV first)",NA,NA,"SS1","SS1",20,"J","Judginess","y8ii7g",1,"continue","",1492.87999990463,1482.80100000001,1492.87999990463,1492.87999990463,1482.80100000001,1492.87999990463,1,1492.87999990463,0,0,NA,"Click To Continue","Continue Button",1,"object-14","J","CFD-BF-030-002-H.jpeg",NA,"SUPTM12782"
"114",1688991115444,"10/07/2023 12:11:55",1688976715444,-4,"10/07/2023 04:11:55",137495,33,"task-k4y6",NA,30592039,9082638,NA,"complete",NA,NA,"computer","Desktop or Laptop","Windows 10","Chrome 114.0.0.0","1280x1024","1280x881",NA,NA,NA,"JV Task P2",11,"Anxious",321,"In",NA,1,"FGEHDICJBKA",NA,NA,"A (JV first)",NA,NA,"SS1","SS1",20,"J","Judginess","y8ii7g",1,"response","60",1132.97399999999,1482.80100000001,1493.28,1132.97399999999,1482.80100000001,1493.28,1,1132.97399999999,360.306000000011,0,NA,"Slider","J",3,"object-18","J","CFD-BF-030-002-H.jpeg",NA,"SUPTM12782"
"115",1688991116401,"10/07/2023 12:11:56",1688976716401,-4,"10/07/2023 04:11:56",137495,33,"task-k4y6",NA,30592039,9082638,NA,"complete",NA,NA,"computer","Desktop or Laptop","Windows 10","Chrome 114.0.0.0","1280x1024","1280x881",NA,NA,NA,"JV Task P2",11,"Anxious",321,"In",NA,1,"FGEHDICJBKA",NA,NA,"A (JV first)",NA,NA,"SS1","SS1",20,"J","Fixation","w9zir9",2,"continue","",966.444999999978,966.444999999978,966.444999999978,966.444999999978,966.444999999978,966.444999999978,1,966.444999999978,0,0,NA,"Fixation Timing","Fixation",1,"object-65","J","CFD-BF-030-002-H.jpeg",NA,"SUPTM12782"
"116",1688991118606,"10/07/2023 12:11:58",1688976718606,-4,"10/07/2023 04:11:58",137495,33,"task-k4y6",NA,30592039,9082638,NA,"complete",NA,NA,"computer","Desktop or Laptop","Windows 10","Chrome 114.0.0.0","1280x1024","1280x881",NA,NA,NA,"JV Task P2",11,"Anxious",321,"In",NA,1,"FGEHDICJBKA",NA,NA,"A (JV first)",NA,NA,"SS1","SS1",19,"V","Valence","xyoebq",1,"continue","",2205.83399995233,2199.23500000002,2205.83399995233,2205.83399995233,2199.23500000002,2205.83399995233,1,2205.83399995233,0,0,NA,"Click To Continue","Continue Button",1,"object-25","V","CFD-BF-029-031-N.jpg",NA,"SUPTM12782"
"117",1688991118606,"10/07/2023 12:11:58",1688976718606,-4,"10/07/2023 04:11:58",137495,33,"task-k4y6",NA,30592039,9082638,NA,"complete",NA,NA,"computer","Desktop or Laptop","Windows 10","Chrome 114.0.0.0","1280x1024","1280x881",NA,NA,NA,"JV Task P2",11,"Anxious",321,"In",NA,1,"FGEHDICJBKA",NA,NA,"A (JV first)",NA,NA,"SS1","SS1",19,"V","Valence","xyoebq",1,"response","39",1699.315,2199.23500000002,2206.83399995233,1699.315,2199.23500000002,2206.83399995233,1,1699.315,507.518999952328,0,NA,"Slider","J",3,"object-27","V","CFD-BF-029-031-N.jpg",NA,"SUPTM12782"
"118",1688991119566,"10/07/2023 12:11:59",1688976719566,-4,"10/07/2023 04:11:59",137495,33,"task-k4y6",NA,30592039,9082638,NA,"complete",NA,NA,"computer","Desktop or Laptop","Windows 10","Chrome 114.0.0.0","1280x1024","1280x881",NA,NA,NA,"JV Task P2",11,"Anxious",321,"In",NA,1,"FGEHDICJBKA",NA,NA,"A (JV first)",NA,NA,"SS1","SS1",19,"V","Fixation","68owkj",2,"continue","",966.342000000004,966.342000000004,966.342000000004,966.342000000004,966.342000000004,966.342000000004,1,966.342000000004,0,0,NA,"Fixation Timing","Fixation",1,"object-21","V","CFD-BF-029-031-N.jpg",NA,"SUPTM12782"
"119",1688991121101,"10/07/2023 12:12:01",1688976721101,-4,"10/07/2023 04:12:01",137495,33,"task-k4y6",NA,30592039,9082638,NA,"complete",NA,NA,"computer","Desktop or Laptop","Windows 10","Chrome 114.0.0.0","1280x1024","1280x881",NA,NA,NA,"JV Task P2",11,"Anxious",321,"In",NA,1,"FGEHDICJBKA",NA,NA,"A (JV first)",NA,NA,"SS1","SS1",20,"V","Valence","xyoebq",1,"continue","",1535.75699995231,1532.80499999999,1535.75699995231,1535.75699995231,1532.80499999999,1535.75699995231,1,1535.75699995231,0,0,NA,"Click To Continue","Continue Button",1,"object-25","V","CFD-WM-031-003-N.jpg",NA,"SUPTM12782"
"120",1688991121102,"10/07/2023 12:12:01",1688976721102,-4,"10/07/2023 04:12:01",137495,33,"task-k4y6",NA,30592039,9082638,NA,"complete",NA,NA,"computer","Desktop or Laptop","Windows 10","Chrome 114.0.0.0","1280x1024","1280x881",NA,NA,NA,"JV Task P2",11,"Anxious",321,"In",NA,1,"FGEHDICJBKA",NA,NA,"A (JV first)",NA,NA,"SS1","SS1",20,"V","Valence","xyoebq",1,"response","35",1049.65700000001,1532.80499999999,1537.15700004768,1049.65700000001,1532.80499999999,1537.15700004768,1,1049.65700000001,487.500000047672,0,NA,"Slider","J",3,"object-27","V","CFD-WM-031-003-N.jpg",NA,"SUPTM12782"
"121",1688991122066,"10/07/2023 12:12:02",1688976722066,-4,"10/07/2023 04:12:02",137495,33,"task-k4y6",NA,30592039,9082638,NA,"complete",NA,NA,"computer","Desktop or Laptop","Windows 10","Chrome 114.0.0.0","1280x1024","1280x881",NA,NA,NA,"JV Task P2",11,"Anxious",321,"In",NA,1,"FGEHDICJBKA",NA,NA,"A (JV first)",NA,NA,"SS1","SS1",20,"V","Fixation","68owkj",2,"continue","",966.377000000008,966.377000000008,966.377000000008,966.377000000008,966.377000000008,966.377000000008,1,966.377000000008,0,0,NA,"Fixation Timing","Fixation",1,"object-21","V","CFD-WM-031-003-N.jpg",NA,"SUPTM12782"
"122",1688991124037,"10/07/2023 12:12:04",1688976724037,-4,"10/07/2023 04:12:04",137495,33,"task-k4y6",NA,30592039,9082638,NA,"complete",NA,NA,"computer","Desktop or Laptop","Windows 10","Chrome 114.0.0.0","1280x1024","1280x881",NA,NA,NA,"JV Task P2",11,"Anxious",321,"In",NA,1,"FGEHDICJBKA",NA,NA,"A (JV first)",NA,NA,"SS1","SS1",21,"V","Valence","xyoebq",1,"continue","",1972.77499999999,1965.99400000001,1972.77499999999,1972.77499999999,1965.99400000001,1972.77499999999,1,1972.77499999999,0,0,NA,"Click To Continue","Continue Button",1,"object-25","V","CFD-WF-027-003-N.jpg",NA,"SUPTM12782"
"123",1688991124050,"10/07/2023 12:12:04",1688976724050,-4,"10/07/2023 04:12:04",137495,33,"task-k4y6",NA,30592039,9082638,NA,"complete",NA,NA,"computer","Desktop or Laptop","Windows 10","Chrome 114.0.0.0","1280x1024","1280x881",NA,NA,NA,"JV Task P2",11,"Anxious",321,"In",NA,1,"FGEHDICJBKA",NA,NA,"A (JV first)",NA,NA,"SS1","SS1",21,"V","Valence","xyoebq",1,"response","35",1132.94399999999,1965.99400000001,1982.65400000001,1132.94399999999,1965.99400000001,1982.65400000001,1,1132.94399999999,849.710000000021,0,NA,"Slider","J",3,"object-27","V","CFD-WF-027-003-N.jpg",NA,"SUPTM12782"
"124",1688991124981,"10/07/2023 12:12:04",1688976724981,-4,"10/07/2023 04:12:04",137495,33,"task-k4y6",NA,30592039,9082638,NA,"complete",NA,NA,"computer","Desktop or Laptop","Windows 10","Chrome 114.0.0.0","1280x1024","1280x881",NA,NA,NA,"JV Task P2",11,"Anxious",321,"In",NA,1,"FGEHDICJBKA",NA,NA,"A (JV first)",NA,NA,"SS1","SS1",21,"V","Fixation","68owkj",2,"continue","",949.565999999992,949.565999999992,949.565999999992,949.565999999992,949.565999999992,949.565999999992,1,949.565999999992,0,0,NA,"Fixation Timing","Fixation",1,"object-21","V","CFD-WF-027-003-N.jpg",NA,"SUPTM12782"
"125",1688991133462,"10/07/2023 12:12:13",1688976733462,-4,"10/07/2023 04:12:13",137495,33,"task-k4y6",NA,30592039,9082638,NA,"complete",NA,NA,"computer","Desktop or Laptop","Windows 10","Chrome 114.0.0.0","1280x1024","1280x881",NA,NA,NA,"JV Task P2",11,"Anxious",321,"In",NA,1,"FGEHDICJBKA",NA,NA,"A (JV first)",NA,NA,"SS1","SS1",21,"J","Judginess","y8ii7g",1,"continue","",8480.647,8463.976,8480.647,8480.647,8463.976,8480.647,1,8480.647,0,0,NA,"Click To Continue","Continue Button",1,"object-14","J","CFD-WM-009-002-H.jpeg",NA,"SUPTM12782"
"126",1688991133463,"10/07/2023 12:12:13",1688976733463,-4,"10/07/2023 04:12:13",137495,33,"task-k4y6",NA,30592039,9082638,NA,"complete",NA,NA,"computer","Desktop or Laptop","Windows 10","Chrome 114.0.0.0","1280x1024","1280x881",NA,NA,NA,"JV Task P2",11,"Anxious",321,"In",NA,1,"FGEHDICJBKA",NA,NA,"A (JV first)",NA,NA,"SS1","SS1",21,"J","Judginess","y8ii7g",1,"response","60",7297.65400000001,8463.976,8480.647,7297.65400000001,8463.976,8480.647,1,7297.65400000001,1182.99299999999,0,NA,"Slider","J",3,"object-18","J","CFD-WM-009-002-H.jpeg",NA,"SUPTM12782"
"127",1688991134411,"10/07/2023 12:12:14",1688976734411,-4,"10/07/2023 04:12:14",137495,33,"task-k4y6",NA,30592039,9082638,NA,"complete",NA,NA,"computer","Desktop or Laptop","Windows 10","Chrome 114.0.0.0","1280x1024","1280x881",NA,NA,NA,"JV Task P2",11,"Anxious",321,"In",NA,1,"FGEHDICJBKA",NA,NA,"A (JV first)",NA,NA,"SS1","SS1",21,"J","Fixation","w9zir9",2,"continue","",966.326000000001,966.326000000001,966.326000000001,966.326000000001,966.326000000001,966.326000000001,1,966.326000000001,0,0,NA,"Fixation Timing","Fixation",1,"object-65","J","CFD-WM-009-002-H.jpeg",NA,"SUPTM12782"
"128",1688991137692,"10/07/2023 12:12:17",1688976737692,-4,"10/07/2023 04:12:17",137495,33,"task-k4y6",NA,30592039,9082638,NA,"complete",NA,NA,"computer","Desktop or Laptop","Windows 10","Chrome 114.0.0.0","1280x1024","1280x881",NA,NA,NA,"JV Task P2",11,"Anxious",321,"In",NA,1,"FGEHDICJBKA",NA,NA,"A (JV first)",NA,NA,"SS1","SS1",22,"J","Judginess","y8ii7g",1,"continue","",3281.71299995232,3265.56200000001,3281.71299995232,3281.71299995232,3265.56200000001,3281.71299995232,1,3281.71299995232,0,0,NA,"Click To Continue","Continue Button",1,"object-14","J","CFD-AM-225-102-N.jpg",NA,"SUPTM12782"
"129",1688991137692,"10/07/2023 12:12:17",1688976737692,-4,"10/07/2023 04:12:17",137495,33,"task-k4y6",NA,30592039,9082638,NA,"complete",NA,NA,"computer","Desktop or Laptop","Windows 10","Chrome 114.0.0.0","1280x1024","1280x881",NA,NA,NA,"JV Task P2",11,"Anxious",321,"In",NA,1,"FGEHDICJBKA",NA,NA,"A (JV first)",NA,NA,"SS1","SS1",22,"J","Judginess","y8ii7g",1,"response","30",2832.31,3265.56200000001,3282.185,2832.31,3265.56200000001,3282.185,1,2832.31,449.875,0,NA,"Slider","J",3,"object-18","J","CFD-AM-225-102-N.jpg",NA,"SUPTM12782"
"130",1688991138642,"10/07/2023 12:12:18",1688976738642,-4,"10/07/2023 04:12:18",137495,33,"task-k4y6",NA,30592039,9082638,NA,"complete",NA,NA,"computer","Desktop or Laptop","Windows 10","Chrome 114.0.0.0","1280x1024","1280x881",NA,NA,NA,"JV Task P2",11,"Anxious",321,"In",NA,1,"FGEHDICJBKA",NA,NA,"A (JV first)",NA,NA,"SS1","SS1",22,"J","Fixation","w9zir9",2,"continue","",966.298999999999,966.298999999999,966.298999999999,966.298999999999,966.298999999999,966.298999999999,1,966.298999999999,0,0,NA,"Fixation Timing","Fixation",1,"object-65","J","CFD-AM-225-102-N.jpg",NA,"SUPTM12782"
"131",1688991162236,"10/07/2023 12:12:42",1688976762236,-4,"10/07/2023 04:12:42",137495,33,"task-k4y6",NA,30592039,9082638,NA,"complete",NA,NA,"computer","Desktop or Laptop","Windows 10","Chrome 114.0.0.0","1280x1024","1280x881",NA,NA,NA,"JV Task P2",11,"Anxious",321,"In",NA,1,"FGEHDICJBKA",NA,NA,"A (JV first)",NA,NA,"SS1","SS1",23,"J","Judginess","y8ii7g",1,"continue","",23594.9519998569,23592.216,23594.9519998569,23594.9519998569,23592.216,23594.9519998569,1,23594.9519998569,0,0,NA,"Click To Continue","Continue Button",1,"object-14","J","CFD-WF-039-025-S.jpeg",NA,"SUPTM12782"
"132",1688991162242,"10/07/2023 12:12:42",1688976762242,-4,"10/07/2023 04:12:42",137495,33,"task-k4y6",NA,30592039,9082638,NA,"complete",NA,NA,"computer","Desktop or Laptop","Windows 10","Chrome 114.0.0.0","1280x1024","1280x881",NA,NA,NA,"JV Task P2",11,"Anxious",321,"In",NA,1,"FGEHDICJBKA",NA,NA,"A (JV first)",NA,NA,"SS1","SS1",23,"J","Judginess","y8ii7g",1,"response","42",22825.754,23592.216,23600.552,22825.754,23592.216,23600.552,1,22825.754,774.79800000001,0,NA,"Slider","J",3,"object-18","J","CFD-WF-039-025-S.jpeg",NA,"SUPTM12782"
"133",1688991163200,"10/07/2023 12:12:43",1688976763200,-4,"10/07/2023 04:12:43",137495,33,"task-k4y6",NA,30592039,9082638,NA,"complete",NA,NA,"computer","Desktop or Laptop","Windows 10","Chrome 114.0.0.0","1280x1024","1280x881",NA,NA,NA,"JV Task P2",11,"Anxious",321,"In",NA,1,"FGEHDICJBKA",NA,NA,"A (JV first)",NA,NA,"SS1","SS1",23,"J","Fixation","w9zir9",2,"continue","",966.245000000024,966.245000000024,966.245000000024,966.245000000024,966.245000000024,966.245000000024,1,966.245000000024,0,0,NA,"Fixation Timing","Fixation",1,"object-65","J","CFD-WF-039-025-S.jpeg",NA,"SUPTM12782"
"134",1688991170329,"10/07/2023 12:12:50",1688976770329,-4,"10/07/2023 04:12:50",137495,33,"task-k4y6",NA,30592039,9082638,NA,"complete",NA,NA,"computer","Desktop or Laptop","Windows 10","Chrome 114.0.0.0","1280x1024","1280x881",NA,NA,NA,"JV Task P2",11,"Anxious",321,"In",NA,1,"FGEHDICJBKA",NA,NA,"A (JV first)",NA,NA,"SS1","SS1",24,"J","Judginess","y8ii7g",1,"continue","",7129.29100004767,7114.31699999998,7129.29100004767,7129.29100004767,7114.31699999998,7129.29100004767,1,7129.29100004767,0,0,NA,"Click To Continue","Continue Button",1,"object-14","J","CFD-WM-024-015-S.jpeg",NA,"SUPTM12782"
"135",1688991170329,"10/07/2023 12:12:50",1688976770329,-4,"10/07/2023 04:12:50",137495,33,"task-k4y6",NA,30592039,9082638,NA,"complete",NA,NA,"computer","Desktop or Laptop","Windows 10","Chrome 114.0.0.0","1280x1024","1280x881",NA,NA,NA,"JV Task P2",11,"Anxious",321,"In",NA,1,"FGEHDICJBKA",NA,NA,"A (JV first)",NA,NA,"SS1","SS1",24,"J","Judginess","y8ii7g",1,"response","39",6614.44799999997,7114.31699999998,7129.59099999999,6614.44799999997,7114.31699999998,7129.59099999999,1,6614.44799999997,515.143000000011,0,NA,"Slider","J",3,"object-18","J","CFD-WM-024-015-S.jpeg",NA,"SUPTM12782"
"136",1688991172293,"10/07/2023 12:12:52",1688976772293,-4,"10/07/2023 04:12:52",137495,33,"task-k4y6",NA,30592039,9082638,NA,"complete",NA,NA,"computer","Desktop or Laptop","Windows 10","Chrome 114.0.0.0","1280x1024","1280x881",NA,NA,NA,"JV Task P2",11,"Anxious",321,"In",NA,1,"FGEHDICJBKA",NA,NA,"A (JV first)",NA,NA,"SS1","SS1",24,"J","Fixation","w9zir9",2,"continue","",1966.03,1966.03,1966.03,1966.03,1966.03,1966.03,1,1966.03,0,0,NA,"Fixation Timing","Fixation",1,"object-65","J","CFD-WM-024-015-S.jpeg",NA,"SUPTM12782"
"137",1688991175396,"10/07/2023 12:12:55",1688976775396,-4,"10/07/2023 04:12:55",137495,33,"task-k4y6",NA,30592039,9082638,NA,"complete",NA,NA,"computer","Desktop or Laptop","Windows 10","Chrome 114.0.0.0","1280x1024","1280x881",NA,NA,NA,"JV Task P2",11,"Anxious",321,"In",NA,1,"FGEHDICJBKA",NA,NA,"A (JV first)",NA,NA,"SS1","SS1",25,"J","Judginess","y8ii7g",1,"continue","",3115.64399985695,3099.005,3115.64399985695,3115.64399985695,3099.005,3115.64399985695,1,3115.64399985695,0,0,NA,"Click To Continue","Continue Button",1,"object-14","J","CFD-WM-026-001-N.jpg",NA,"SUPTM12782"
"138",1688991175396,"10/07/2023 12:12:55",1688976775396,-4,"10/07/2023 04:12:55",137495,33,"task-k4y6",NA,30592039,9082638,NA,"complete",NA,NA,"computer","Desktop or Laptop","Windows 10","Chrome 114.0.0.0","1280x1024","1280x881",NA,NA,NA,"JV Task P2",11,"Anxious",321,"In",NA,1,"FGEHDICJBKA",NA,NA,"A (JV first)",NA,NA,"SS1","SS1",25,"J","Judginess","y8ii7g",1,"response","37",2649.15700000001,3099.005,3115.663,2649.15700000001,3099.005,3115.663,1,2649.15700000001,466.505999999994,0,NA,"Slider","J",3,"object-18","J","CFD-WM-026-001-N.jpg",NA,"SUPTM12782"
"139",1688991177323,"10/07/2023 12:12:57",1688976777323,-4,"10/07/2023 04:12:57",137495,33,"task-k4y6",NA,30592039,9082638,NA,"complete",NA,NA,"computer","Desktop or Laptop","Windows 10","Chrome 114.0.0.0","1280x1024","1280x881",NA,NA,NA,"JV Task P2",11,"Anxious",321,"In",NA,1,"FGEHDICJBKA",NA,NA,"A (JV first)",NA,NA,"SS1","SS1",25,"J","Fixation","w9zir9",2,"continue","",1932.66500000001,1932.66500000001,1932.66500000001,1932.66500000001,1932.66500000001,1932.66500000001,1,1932.66500000001,0,0,NA,"Fixation Timing","Fixation",1,"object-65","J","CFD-WM-026-001-N.jpg",NA,"SUPTM12782"
"140",1688991186318,"10/07/2023 12:13:06",1688976786318,-4,"10/07/2023 04:13:06",137495,33,"task-k4y6",NA,30592039,9082638,NA,"complete",NA,NA,"computer","Desktop or Laptop","Windows 10","Chrome 114.0.0.0","1280x1024","1280x881",NA,NA,NA,"JV Task P2",11,"Anxious",321,"In",NA,1,"FGEHDICJBKA",NA,NA,"A (JV first)",NA,NA,"SS1","SS1",22,"V","Valence","xyoebq",1,"continue","",9006.27400004768,8997.03999999998,9006.27400004768,9006.27400004768,8997.03999999998,9006.27400004768,1,9006.27400004768,0,0,NA,"Click To Continue","Continue Button",1,"object-25","V","CFD-BF-008-001-S.jpeg",NA,"SUPTM12782"
"141",1688991186323,"10/07/2023 12:13:06",1688976786323,-4,"10/07/2023 04:13:06",137495,33,"task-k4y6",NA,30592039,9082638,NA,"complete",NA,NA,"computer","Desktop or Laptop","Windows 10","Chrome 114.0.0.0","1280x1024","1280x881",NA,NA,NA,"JV Task P2",11,"Anxious",321,"In",NA,1,"FGEHDICJBKA",NA,NA,"A (JV first)",NA,NA,"SS1","SS1",22,"V","Valence","xyoebq",1,"response","30",8213.97399999999,8997.03999999998,9011.67399990463,8213.97399999999,8997.03999999998,9011.67399990463,1,8213.97399999999,797.699999904638,0,NA,"Slider","J",3,"object-27","V","CFD-BF-008-001-S.jpeg",NA,"SUPTM12782"
"142",1688991187275,"10/07/2023 12:13:07",1688976787275,-4,"10/07/2023 04:13:07",137495,33,"task-k4y6",NA,30592039,9082638,NA,"complete",NA,NA,"computer","Desktop or Laptop","Windows 10","Chrome 114.0.0.0","1280x1024","1280x881",NA,NA,NA,"JV Task P2",11,"Anxious",321,"In",NA,1,"FGEHDICJBKA",NA,NA,"A (JV first)",NA,NA,"SS1","SS1",22,"V","Fixation","68owkj",2,"continue","",966.302000000025,966.302000000025,966.302000000025,966.302000000025,966.302000000025,966.302000000025,1,966.302000000025,0,0,NA,"Fixation Timing","Fixation",1,"object-21","V","CFD-BF-008-001-S.jpeg",NA,"SUPTM12782"
"143",1688991190922,"10/07/2023 12:13:10",1688976790922,-4,"10/07/2023 04:13:10",137495,33,"task-k4y6",NA,30592039,9082638,NA,"complete",NA,NA,"computer","Desktop or Laptop","Windows 10","Chrome 114.0.0.0","1280x1024","1280x881",NA,NA,NA,"JV Task P2",11,"Anxious",321,"In",NA,1,"FGEHDICJBKA",NA,NA,"A (JV first)",NA,NA,"SS1","SS1",26,"J","Judginess","y8ii7g",1,"continue","",3647.23199999999,3632.11799999999,3647.23199999999,3647.23199999999,3632.11799999999,3647.23199999999,1,3647.23199999999,0,0,NA,"Click To Continue","Continue Button",1,"object-14","J","CFD-WF-009-001-H.jpeg",NA,"SUPTM12782"
"144",1688991190923,"10/07/2023 12:13:10",1688976790923,-4,"10/07/2023 04:13:10",137495,33,"task-k4y6",NA,30592039,9082638,NA,"complete",NA,NA,"computer","Desktop or Laptop","Windows 10","Chrome 114.0.0.0","1280x1024","1280x881",NA,NA,NA,"JV Task P2",11,"Anxious",321,"In",NA,1,"FGEHDICJBKA",NA,NA,"A (JV first)",NA,NA,"SS1","SS1",26,"J","Judginess","y8ii7g",1,"response","61",3215.59099999999,3632.11799999999,3647.63199985694,3215.59099999999,3632.11799999999,3647.63199985694,1,3215.59099999999,432.040999856952,0,NA,"Slider","J",3,"object-18","J","CFD-WF-009-001-H.jpeg",NA,"SUPTM12782"
"145",1688991191874,"10/07/2023 12:13:11",1688976791874,-4,"10/07/2023 04:13:11",137495,33,"task-k4y6",NA,30592039,9082638,NA,"complete",NA,NA,"computer","Desktop or Laptop","Windows 10","Chrome 114.0.0.0","1280x1024","1280x881",NA,NA,NA,"JV Task P2",11,"Anxious",321,"In",NA,1,"FGEHDICJBKA",NA,NA,"A (JV first)",NA,NA,"SS1","SS1",26,"J","Fixation","w9zir9",2,"continue","",966.377000000008,966.377000000008,966.377000000008,966.377000000008,966.377000000008,966.377000000008,1,966.377000000008,0,0,NA,"Fixation Timing","Fixation",1,"object-65","J","CFD-WF-009-001-H.jpeg",NA,"SUPTM12782"
"146",1688991194341,"10/07/2023 12:13:14",1688976794341,-4,"10/07/2023 04:13:14",137495,33,"task-k4y6",NA,30592039,9082638,NA,"complete",NA,NA,"computer","Desktop or Laptop","Windows 10","Chrome 114.0.0.0","1280x1024","1280x881",NA,NA,NA,"JV Task P2",11,"Anxious",321,"In",NA,1,"FGEHDICJBKA",NA,NA,"A (JV first)",NA,NA,"SS1","SS1",27,"J","Judginess","y8ii7g",1,"continue","",2465.80900000001,2449.179,2465.80900000001,2465.80900000001,2449.179,2465.80900000001,1,2465.80900000001,0,0,NA,"Click To Continue","Continue Button",1,"object-14","J","CFD-WM-037-025-N.jpg",NA,"SUPTM12782"
"147",1688991194342,"10/07/2023 12:13:14",1688976794342,-4,"10/07/2023 04:13:14",137495,33,"task-k4y6",NA,30592039,9082638,NA,"complete",NA,NA,"computer","Desktop or Laptop","Windows 10","Chrome 114.0.0.0","1280x1024","1280x881",NA,NA,NA,"JV Task P2",11,"Anxious",321,"In",NA,1,"FGEHDICJBKA",NA,NA,"A (JV first)",NA,NA,"SS1","SS1",27,"J","Judginess","y8ii7g",1,"response","38",1666.10800000001,2449.179,2465.80900000001,1666.10800000001,2449.179,2465.80900000001,1,1666.10800000001,799.701000000001,0,NA,"Slider","J",3,"object-18","J","CFD-WM-037-025-N.jpg",NA,"SUPTM12782"
"148",1688991195289,"10/07/2023 12:13:15",1688976795289,-4,"10/07/2023 04:13:15",137495,33,"task-k4y6",NA,30592039,9082638,NA,"complete",NA,NA,"computer","Desktop or Laptop","Windows 10","Chrome 114.0.0.0","1280x1024","1280x881",NA,NA,NA,"JV Task P2",11,"Anxious",321,"In",NA,1,"FGEHDICJBKA",NA,NA,"A (JV first)",NA,NA,"SS1","SS1",27,"J","Fixation","w9zir9",2,"continue","",966.343999999983,966.343999999983,966.343999999983,966.343999999983,966.343999999983,966.343999999983,1,966.343999999983,0,0,NA,"Fixation Timing","Fixation",1,"object-65","J","CFD-WM-037-025-N.jpg",NA,"SUPTM12782"
"149",1688991198178,"10/07/2023 12:13:18",1688976798178,-4,"10/07/2023 04:13:18",137495,33,"task-k4y6",NA,30592039,9082638,NA,"complete",NA,NA,"computer","Desktop or Laptop","Windows 10","Chrome 114.0.0.0","1280x1024","1280x881",NA,NA,NA,"JV Task P2",11,"Anxious",321,"In",NA,1,"FGEHDICJBKA",NA,NA,"A (JV first)",NA,NA,"SS1","SS1",28,"J","Judginess","y8ii7g",1,"continue","",2889.31399990464,2882.41,2889.31399990464,2889.31399990464,2882.41,2889.31399990464,1,2889.31399990464,0,0,NA,"Click To Continue","Continue Button",1,"object-14","J","CFD-BF-029-031-H.jpeg",NA,"SUPTM12782"
"150",1688991198184,"10/07/2023 12:13:18",1688976798184,-4,"10/07/2023 04:13:18",137495,33,"task-k4y6",NA,30592039,9082638,NA,"complete",NA,NA,"computer","Desktop or Laptop","Windows 10","Chrome 114.0.0.0","1280x1024","1280x881",NA,NA,NA,"JV Task P2",11,"Anxious",321,"In",NA,1,"FGEHDICJBKA",NA,NA,"A (JV first)",NA,NA,"SS1","SS1",28,"J","Judginess","y8ii7g",1,"response","64",2465.761,2882.41,2895.11399985696,2465.761,2882.41,2895.11399985696,1,2465.761,429.352999856957,0,NA,"Slider","J",3,"object-18","J","CFD-BF-029-031-H.jpeg",NA,"SUPTM12782"
"151",1688991199138,"10/07/2023 12:13:19",1688976799138,-4,"10/07/2023 04:13:19",137495,33,"task-k4y6",NA,30592039,9082638,NA,"complete",NA,NA,"computer","Desktop or Laptop","Windows 10","Chrome 114.0.0.0","1280x1024","1280x881",NA,NA,NA,"JV Task P2",11,"Anxious",321,"In",NA,1,"FGEHDICJBKA",NA,NA,"A (JV first)",NA,NA,"SS1","SS1",28,"J","Fixation","w9zir9",2,"continue","",966.269,966.269,966.269,966.269,966.269,966.269,1,966.269,0,0,NA,"Fixation Timing","Fixation",1,"object-65","J","CFD-BF-029-031-H.jpeg",NA,"SUPTM12782"
"152",1688991206197,"10/07/2023 12:13:26",1688976806197,-4,"10/07/2023 04:13:26",137495,33,"task-k4y6",NA,30592039,9082638,NA,"complete",NA,NA,"computer","Desktop or Laptop","Windows 10","Chrome 114.0.0.0","1280x1024","1280x881",NA,NA,NA,"JV Task P2",11,"Anxious",321,"In",NA,1,"FGEHDICJBKA",NA,NA,"A (JV first)",NA,NA,"SS1","SS1",23,"V","Valence","xyoebq",1,"continue","",7058.535,7047.68400000001,7058.535,7058.535,7047.68400000001,7058.535,1,7058.535,0,0,NA,"Click To Continue","Continue Button",1,"object-25","V","CFD-MM-313-002-N.jpg",NA,"SUPTM12782"
"153",1688991206197,"10/07/2023 12:13:26",1688976806197,-4,"10/07/2023 04:13:26",137495,33,"task-k4y6",NA,30592039,9082638,NA,"complete",NA,NA,"computer","Desktop or Laptop","Windows 10","Chrome 114.0.0.0","1280x1024","1280x881",NA,NA,NA,"JV Task P2",11,"Anxious",321,"In",NA,1,"FGEHDICJBKA",NA,NA,"A (JV first)",NA,NA,"SS1","SS1",23,"V","Valence","xyoebq",1,"response","63",4648.49300000002,7047.68400000001,7059.23500004769,4648.49300000002,7047.68400000001,7059.23500004769,1,4648.49300000002,2410.74200004767,0,NA,"Slider","J",3,"object-27","V","CFD-MM-313-002-N.jpg",NA,"SUPTM12782"
"154",1688991207152,"10/07/2023 12:13:27",1688976807152,-4,"10/07/2023 04:13:27",137495,33,"task-k4y6",NA,30592039,9082638,NA,"complete",NA,NA,"computer","Desktop or Laptop","Windows 10","Chrome 114.0.0.0","1280x1024","1280x881",NA,NA,NA,"JV Task P2",11,"Anxious",321,"In",NA,1,"FGEHDICJBKA",NA,NA,"A (JV first)",NA,NA,"SS1","SS1",23,"V","Fixation","68owkj",2,"continue","",966.328999999998,966.328999999998,966.328999999998,966.328999999998,966.328999999998,966.328999999998,1,966.328999999998,0,0,NA,"Fixation Timing","Fixation",1,"object-21","V","CFD-MM-313-002-N.jpg",NA,"SUPTM12782"
"155",1688991210299,"10/07/2023 12:13:30",1688976810299,-4,"10/07/2023 04:13:30",137495,33,"task-k4y6",NA,30592039,9082638,NA,"complete",NA,NA,"computer","Desktop or Laptop","Windows 10","Chrome 114.0.0.0","1280x1024","1280x881",NA,NA,NA,"JV Task P2",11,"Anxious",321,"In",NA,1,"FGEHDICJBKA",NA,NA,"A (JV first)",NA,NA,"SS1","SS1",24,"V","Valence","xyoebq",1,"continue","",3147.42199985695,3132.29800000001,3147.42199985695,3147.42199985695,3132.29800000001,3147.42199985695,1,3147.42199985695,0,0,NA,"Click To Continue","Continue Button",1,"object-25","V","CFD-WF-035-024-S.jpeg",NA,"SUPTM12782"
"156",1688991210304,"10/07/2023 12:13:30",1688976810304,-4,"10/07/2023 04:13:30",137495,33,"task-k4y6",NA,30592039,9082638,NA,"complete",NA,NA,"computer","Desktop or Laptop","Windows 10","Chrome 114.0.0.0","1280x1024","1280x881",NA,NA,NA,"JV Task P2",11,"Anxious",321,"In",NA,1,"FGEHDICJBKA",NA,NA,"A (JV first)",NA,NA,"SS1","SS1",24,"V","Valence","xyoebq",1,"response","33",2682.45600000001,3132.29800000001,3148.95100000003,2682.45600000001,3132.29800000001,3148.95100000003,1,2682.45600000001,466.495000000024,0,NA,"Slider","J",3,"object-27","V","CFD-WF-035-024-S.jpeg",NA,"SUPTM12782"
"157",1688991211252,"10/07/2023 12:13:31",1688976811252,-4,"10/07/2023 04:13:31",137495,33,"task-k4y6",NA,30592039,9082638,NA,"complete",NA,NA,"computer","Desktop or Laptop","Windows 10","Chrome 114.0.0.0","1280x1024","1280x881",NA,NA,NA,"JV Task P2",11,"Anxious",321,"In",NA,1,"FGEHDICJBKA",NA,NA,"A (JV first)",NA,NA,"SS1","SS1",24,"V","Fixation","68owkj",2,"continue","",966.380999999994,966.380999999994,966.380999999994,966.380999999994,966.380999999994,966.380999999994,1,966.380999999994,0,0,NA,"Fixation Timing","Fixation",1,"object-21","V","CFD-WF-035-024-S.jpeg",NA,"SUPTM12782"
"158",1688991214636,"10/07/2023 12:13:34",1688976814636,-4,"10/07/2023 04:13:34",137495,33,"task-k4y6",NA,30592039,9082638,NA,"complete",NA,NA,"computer","Desktop or Laptop","Windows 10","Chrome 114.0.0.0","1280x1024","1280x881",NA,NA,NA,"JV Task P2",11,"Anxious",321,"In",NA,1,"FGEHDICJBKA",NA,NA,"A (JV first)",NA,NA,"SS1","SS1",25,"V","Valence","xyoebq",1,"continue","",3385.44299990463,3382.41899999999,3385.44299990463,3385.44299990463,3382.41899999999,3385.44299990463,1,3385.44299990463,0,0,NA,"Click To Continue","Continue Button",1,"object-25","V","CFD-MM-313-002-H.jpeg",NA,"SUPTM12782"
"159",1688991214637,"10/07/2023 12:13:34",1688976814637,-4,"10/07/2023 04:13:34",137495,33,"task-k4y6",NA,30592039,9082638,NA,"complete",NA,NA,"computer","Desktop or Laptop","Windows 10","Chrome 114.0.0.0","1280x1024","1280x881",NA,NA,NA,"JV Task P2",11,"Anxious",321,"In",NA,1,"FGEHDICJBKA",NA,NA,"A (JV first)",NA,NA,"SS1","SS1",25,"V","Valence","xyoebq",1,"response","57",2932.40099999998,3382.41899999999,3386.24299985694,2932.40099999998,3382.41899999999,3386.24299985694,1,2932.40099999998,453.841999856959,0,NA,"Slider","J",3,"object-27","V","CFD-MM-313-002-H.jpeg",NA,"SUPTM12782"
"160",1688991215599,"10/07/2023 12:13:35",1688976815599,-4,"10/07/2023 04:13:35",137495,33,"task-k4y6",NA,30592039,9082638,NA,"complete",NA,NA,"computer","Desktop or Laptop","Windows 10","Chrome 114.0.0.0","1280x1024","1280x881",NA,NA,NA,"JV Task P2",11,"Anxious",321,"In",NA,1,"FGEHDICJBKA",NA,NA,"A (JV first)",NA,NA,"SS1","SS1",25,"V","Fixation","68owkj",2,"continue","",966.081000000006,966.081000000006,966.081000000006,966.081000000006,966.081000000006,966.081000000006,1,966.081000000006,0,0,NA,"Fixation Timing","Fixation",1,"object-21","V","CFD-MM-313-002-H.jpeg",NA,"SUPTM12782"
"161",1688991222866,"10/07/2023 12:13:42",1688976822866,-4,"10/07/2023 04:13:42",137495,33,"task-k4y6",NA,30592039,9082638,NA,"complete",NA,NA,"computer","Desktop or Laptop","Windows 10","Chrome 114.0.0.0","1280x1024","1280x881",NA,NA,NA,"JV Task P2",11,"Anxious",321,"In",NA,1,"FGEHDICJBKA",NA,NA,"A (JV first)",NA,NA,"SS1","SS1",26,"V","Valence","xyoebq",1,"continue","",7266.34299999999,7264.21399999998,7266.34299999999,7266.34299999999,7264.21399999998,7266.34299999999,1,7266.34299999999,0,0,NA,"Click To Continue","Continue Button",1,"object-25","V","CFD-BM-028-002-N.jpg",NA,"SUPTM12782"
"162",1688991222867,"10/07/2023 12:13:42",1688976822867,-4,"10/07/2023 04:13:42",137495,33,"task-k4y6",NA,30592039,9082638,NA,"complete",NA,NA,"computer","Desktop or Laptop","Windows 10","Chrome 114.0.0.0","1280x1024","1280x881",NA,NA,NA,"JV Task P2",11,"Anxious",321,"In",NA,1,"FGEHDICJBKA",NA,NA,"A (JV first)",NA,NA,"SS1","SS1",26,"V","Valence","xyoebq",1,"response","38",6831.08299999998,7264.21399999998,7268.24299985694,6831.08299999998,7264.21399999998,7268.24299985694,1,6831.08299999998,437.159999856958,0,NA,"Slider","J",3,"object-27","V","CFD-BM-028-002-N.jpg",NA,"SUPTM12782"
"163",1688991223831,"10/07/2023 12:13:43",1688976823831,-4,"10/07/2023 04:13:43",137495,33,"task-k4y6",NA,30592039,9082638,NA,"complete",NA,NA,"computer","Desktop or Laptop","Windows 10","Chrome 114.0.0.0","1280x1024","1280x881",NA,NA,NA,"JV Task P2",11,"Anxious",321,"In",NA,1,"FGEHDICJBKA",NA,NA,"A (JV first)",NA,NA,"SS1","SS1",26,"V","Fixation","68owkj",2,"continue","",966.427000000025,966.427000000025,966.427000000025,966.427000000025,966.427000000025,966.427000000025,1,966.427000000025,0,0,NA,"Fixation Timing","Fixation",1,"object-21","V","CFD-BM-028-002-N.jpg",NA,"SUPTM12782"
"164",1688991230570,"10/07/2023 12:13:50",1688976830570,-4,"10/07/2023 04:13:50",137495,33,"task-k4y6",NA,30592039,9082638,NA,"complete",NA,NA,"computer","Desktop or Laptop","Windows 10","Chrome 114.0.0.0","1280x1024","1280x881",NA,NA,NA,"JV Task P2",11,"Anxious",321,"In",NA,1,"FGEHDICJBKA",NA,NA,"A (JV first)",NA,NA,"SS1","SS1",29,"J","Judginess","y8ii7g",1,"continue","",6739.80199990462,6731.06,6739.80199990462,6739.80199990462,6731.06,6739.80199990462,1,6739.80199990462,0,0,NA,"Click To Continue","Continue Button",1,"object-14","J","CFD-BF-030-002-N.jpg",NA,"SUPTM12782"
"165",1688991230570,"10/07/2023 12:13:50",1688976830570,-4,"10/07/2023 04:13:50",137495,33,"task-k4y6",NA,30592039,9082638,NA,"complete",NA,NA,"computer","Desktop or Laptop","Windows 10","Chrome 114.0.0.0","1280x1024","1280x881",NA,NA,NA,"JV Task P2",11,"Anxious",321,"In",NA,1,"FGEHDICJBKA",NA,NA,"A (JV first)",NA,NA,"SS1","SS1",29,"J","Judginess","y8ii7g",1,"response","41",6347.86199999996,6731.06,6740.00199995231,6347.86199999996,6731.06,6740.00199995231,1,6347.86199999996,392.139999952342,0,NA,"Slider","J",3,"object-18","J","CFD-BF-030-002-N.jpg",NA,"SUPTM12782"
"166",1688991231528,"10/07/2023 12:13:51",1688976831528,-4,"10/07/2023 04:13:51",137495,33,"task-k4y6",NA,30592039,9082638,NA,"complete",NA,NA,"computer","Desktop or Laptop","Windows 10","Chrome 114.0.0.0","1280x1024","1280x881",NA,NA,NA,"JV Task P2",11,"Anxious",321,"In",NA,1,"FGEHDICJBKA",NA,NA,"A (JV first)",NA,NA,"SS1","SS1",29,"J","Fixation","w9zir9",2,"continue","",966.320000000007,966.320000000007,966.320000000007,966.320000000007,966.320000000007,966.320000000007,1,966.320000000007,0,0,NA,"Fixation Timing","Fixation",1,"object-65","J","CFD-BF-030-002-N.jpg",NA,"SUPTM12782"
"167",1688991235084,"10/07/2023 12:13:55",1688976835084,-4,"10/07/2023 04:13:55",137495,33,"task-k4y6",NA,30592039,9082638,NA,"complete",NA,NA,"computer","Desktop or Laptop","Windows 10","Chrome 114.0.0.0","1280x1024","1280x881",NA,NA,NA,"JV Task P2",11,"Anxious",321,"In",NA,1,"FGEHDICJBKA",NA,NA,"A (JV first)",NA,NA,"SS1","SS1",27,"V","Valence","xyoebq",1,"continue","",3557.22199985693,3548.87400000001,3557.22199985693,3557.22199985693,3548.87400000001,3557.22199985693,1,3557.22199985693,0,0,NA,"Click To Continue","Continue Button",1,"object-25","V","CFD-WM-015-002-N.jpg",NA,"SUPTM12782"
"168",1688991235090,"10/07/2023 12:13:55",1688976835090,-4,"10/07/2023 04:13:55",137495,33,"task-k4y6",NA,30592039,9082638,NA,"complete",NA,NA,"computer","Desktop or Laptop","Windows 10","Chrome 114.0.0.0","1280x1024","1280x881",NA,NA,NA,"JV Task P2",11,"Anxious",321,"In",NA,1,"FGEHDICJBKA",NA,NA,"A (JV first)",NA,NA,"SS1","SS1",27,"V","Valence","xyoebq",1,"response","34",2949.03499999997,3548.87400000001,3562.92199990462,2949.03499999997,3548.87400000001,3562.92199990462,1,2949.03499999997,613.886999904644,0,NA,"Slider","J",3,"object-27","V","CFD-WM-015-002-N.jpg",NA,"SUPTM12782"
"169",1688991236043,"10/07/2023 12:13:56",1688976836043,-4,"10/07/2023 04:13:56",137495,33,"task-k4y6",NA,30592039,9082638,NA,"complete",NA,NA,"computer","Desktop or Laptop","Windows 10","Chrome 114.0.0.0","1280x1024","1280x881",NA,NA,NA,"JV Task P2",11,"Anxious",321,"In",NA,1,"FGEHDICJBKA",NA,NA,"A (JV first)",NA,NA,"SS1","SS1",27,"V","Fixation","68owkj",2,"continue","",966.315000000002,966.315000000002,966.315000000002,966.315000000002,966.315000000002,966.315000000002,1,966.315000000002,0,0,NA,"Fixation Timing","Fixation",1,"object-21","V","CFD-WM-015-002-N.jpg",NA,"SUPTM12782"
"170",1688991238785,"10/07/2023 12:13:58",1688976838785,-4,"10/07/2023 04:13:58",137495,33,"task-k4y6",NA,30592039,9082638,NA,"complete",NA,NA,"computer","Desktop or Laptop","Windows 10","Chrome 114.0.0.0","1280x1024","1280x881",NA,NA,NA,"JV Task P2",11,"Anxious",321,"In",NA,1,"FGEHDICJBKA",NA,NA,"A (JV first)",NA,NA,"SS1","SS1",30,"J","Judginess","y8ii7g",1,"continue","",2742.93299995229,2732.40299999999,2742.93299995229,2742.93299995229,2732.40299999999,2742.93299995229,1,2742.93299995229,0,0,NA,"Click To Continue","Continue Button",1,"object-14","J","CFD-WM-025-002-H.jpeg",NA,"SUPTM12782"
"171",1688991238786,"10/07/2023 12:13:58",1688976838786,-4,"10/07/2023 04:13:58",137495,33,"task-k4y6",NA,30592039,9082638,NA,"complete",NA,NA,"computer","Desktop or Laptop","Windows 10","Chrome 114.0.0.0","1280x1024","1280x881",NA,NA,NA,"JV Task P2",11,"Anxious",321,"In",NA,1,"FGEHDICJBKA",NA,NA,"A (JV first)",NA,NA,"SS1","SS1",30,"J","Judginess","y8ii7g",1,"response","62",1232.92299999995,2732.40299999999,2743.13299999997,1232.92299999995,2732.40299999999,2743.13299999997,1,1232.92299999995,1510.21000000002,0,NA,"Slider","J",3,"object-18","J","CFD-WM-025-002-H.jpeg",NA,"SUPTM12782"
"172",1688991239742,"10/07/2023 12:13:59",1688976839742,-4,"10/07/2023 04:13:59",137495,33,"task-k4y6",NA,30592039,9082638,NA,"complete",NA,NA,"computer","Desktop or Laptop","Windows 10","Chrome 114.0.0.0","1280x1024","1280x881",NA,NA,NA,"JV Task P2",11,"Anxious",321,"In",NA,1,"FGEHDICJBKA",NA,NA,"A (JV first)",NA,NA,"SS1","SS1",30,"J","Fixation","w9zir9",2,"continue","",966.382999999973,966.382999999973,966.382999999973,966.382999999973,966.382999999973,966.382999999973,1,966.382999999973,0,0,NA,"Fixation Timing","Fixation",1,"object-65","J","CFD-WM-025-002-H.jpeg",NA,"SUPTM12782"
