"Event.Index","UTC.Timestamp","UTC.Date.and.Time","Local.Timestamp","Local.Timezone","Local.Date.and.Time","Experiment.ID","Experiment.Version","Tree.Node.Key","Repeat.Key","Schedule.ID","Participant.Private.ID","Participant.Starting.Group","Participant.Status","Participant.Completion.Code","Participant.External.Session.ID","Participant.Device.Type","Participant.Device","Participant.OS","Participant.Browser","Participant.Monitor.Size","Participant.Viewport.Size","Checkpoint","Room.ID","Room.Order","Task.Name","Task.Version","branch.ln1a","randomiser.vzsr","branch.hkzp","randomiser.ywar","randomiser.q6ah","order.ot79","randomiser.ahe2","randomiser.ckhi","randomiser.lqqr","randomiser.pobd","randomiser.8gdj","Spreadsheet","Current.Spreadsheet","Trial.Number","Display","Screen","Screen.ID","Screen.Counter","Response.Type","Response","Onset.Time","Clock.Time","Reaction.Time","Absolute.Onset.Time","Absolute.Clock.Time","Absolute.Reaction.Time","Correct","Response.Onset","Response.Duration","Proportion","Tag","Component.Name","Object.Name","Object.Number","Object.ID","Spreadsheet..display","Spreadsheet..stimulus","Manipulation..Spreadsheet","Random_ID"
"1",1688991530659,"10/07/2023 12:18:50",1688977130659,-4,"10/07/2023 04:18:50",137495,33,"task-d9wy",NA,30592420,9082638,NA,"complete",NA,NA,"computer","Desktop or Laptop","Windows 10","Chrome 114.0.0.0","1280x1024","1280x881",NA,NA,NA,"JV Task P1",8,"Anxious",321,"In",NA,1,"FGEHDICJBKA",NA,NA,"A (JV first)",NA,NA,"SS1","SS1",NA,"","","",NA,"5","BEGIN",NA,NA,NA,NA,NA,NA,0,NA,NA,NA,NA,"","",NA,"","","",NA,"SUPTM12782"
"2",1688991561838,"10/07/2023 12:19:21",1688977161838,-4,"10/07/2023 04:19:21",137495,33,"task-d9wy",NA,30592420,9082638,NA,"complete",NA,NA,"computer","Desktop or Laptop","Windows 10","Chrome 114.0.0.0","1280x1024","1280x881",NA,NA,NA,"JV Task P1",8,"Anxious",321,"In",NA,1,"FGEHDICJBKA",NA,NA,"A (JV first)",NA,NA,"SS1","SS1",1,"J","Judginess","w2ir4b",1,"continue","",25841.391,25824.711,25841.391,25841.391,25824.711,25841.391,1,25841.391,0,0,NA,"Click To Continue","Continue Button",1,"object-14","J","CFD-WF-012-002-N.jpg",NA,"SUPTM12782"
"3",1688991561854,"10/07/2023 12:19:21",1688977161854,-4,"10/07/2023 04:19:21",137495,33,"task-d9wy",NA,30592420,9082638,NA,"complete",NA,NA,"computer","Desktop or Laptop","Windows 10","Chrome 114.0.0.0","1280x1024","1280x881",NA,NA,NA,"JV Task P1",8,"Anxious",321,"In",NA,1,"FGEHDICJBKA",NA,NA,"A (JV first)",NA,NA,"SS1","SS1",1,"J","Judginess","w2ir4b",1,"response","47",23875.349,25824.711,25841.391,23875.349,25824.711,25841.391,1,23875.349,1966.042,0,NA,"Slider","J",3,"object-18","J","CFD-WF-012-002-N.jpg",NA,"SUPTM12782"
"4",1688991562785,"10/07/2023 12:19:22",1688977162785,-4,"10/07/2023 04:19:22",137495,33,"task-d9wy",NA,30592420,9082638,NA,"complete",NA,NA,"computer","Desktop or Laptop","Windows 10","Chrome 114.0.0.0","1280x1024","1280x881",NA,NA,NA,"JV Task P1",8,"Anxious",321,"In",NA,1,"FGEHDICJBKA",NA,NA,"A (JV first)",NA,NA,"SS1","SS1",1,"J","Fixation","mtm832",2,"continue","",966.340000000004,966.340000000004,966.340000000004,966.340000000004,966.340000000004,966.340000000004,1,966.340000000004,0,0,NA,"Fixation Timing","Fixation",1,"object-65","J","CFD-WF-012-002-N.jpg",NA,"SUPTM12782"
"5",1688991566171,"10/07/2023 12:19:26",1688977166171,-4,"10/07/2023 04:19:26",137495,33,"task-d9wy",NA,30592420,9082638,NA,"complete",NA,NA,"computer","Desktop or Laptop","Windows 10","Chrome 114.0.0.0","1280x1024","1280x881",NA,NA,NA,"JV Task P1",8,"Anxious",321,"In",NA,1,"FGEHDICJBKA",NA,NA,"A (JV first)",NA,NA,"SS1","SS1",1,"V","Valence","sn1sjn",1,"continue","",3387.121,3382.181,3387.121,3387.121,3382.181,3387.121,1,3387.121,0,0,NA,"Click To Continue","Continue Button",1,"object-25","V","CFD-WF-036-023-S.jpeg",NA,"SUPTM12782"
"6",1688991566172,"10/07/2023 12:19:26",1688977166172,-4,"10/07/2023 04:19:26",137495,33,"task-d9wy",NA,30592420,9082638,NA,"complete",NA,NA,"computer","Desktop or Laptop","Windows 10","Chrome 114.0.0.0","1280x1024","1280x881",NA,NA,NA,"JV Task P1",8,"Anxious",321,"In",NA,1,"FGEHDICJBKA",NA,NA,"A (JV first)",NA,NA,"SS1","SS1",1,"V","Valence","sn1sjn",1,"response","40",2066.001,3382.181,3388.02100009537,2066.001,3382.181,3388.02100009537,1,2066.001,1322.02000009537,0,NA,"Slider","J",3,"object-27","V","CFD-WF-036-023-S.jpeg",NA,"SUPTM12782"
"7",1688991567133,"10/07/2023 12:19:27",1688977167133,-4,"10/07/2023 04:19:27",137495,33,"task-d9wy",NA,30592420,9082638,NA,"complete",NA,NA,"computer","Desktop or Laptop","Windows 10","Chrome 114.0.0.0","1280x1024","1280x881",NA,NA,NA,"JV Task P1",8,"Anxious",321,"In",NA,1,"FGEHDICJBKA",NA,NA,"A (JV first)",NA,NA,"SS1","SS1",1,"V","Fixation","aydkg3",2,"continue","",966.368000000002,966.368000000002,966.368000000002,966.368000000002,966.368000000002,966.368000000002,1,966.368000000002,0,0,NA,"Fixation Timing","Fixation",1,"object-21","V","CFD-WF-036-023-S.jpeg",NA,"SUPTM12782"
"8",1688991568948,"10/07/2023 12:19:28",1688977168948,-4,"10/07/2023 04:19:28",137495,33,"task-d9wy",NA,30592420,9082638,NA,"complete",NA,NA,"computer","Desktop or Laptop","Windows 10","Chrome 114.0.0.0","1280x1024","1280x881",NA,NA,NA,"JV Task P1",8,"Anxious",321,"In",NA,1,"FGEHDICJBKA",NA,NA,"A (JV first)",NA,NA,"SS1","SS1",2,"V","Valence","sn1sjn",1,"continue","",1815.37199995232,1799.376,1815.37199995232,1815.37199995232,1799.376,1815.37199995232,1,1815.37199995232,0,0,NA,"Click To Continue","Continue Button",1,"object-25","V","CFD-MF-309-002-N.jpg",NA,"SUPTM12782"
"9",1688991568949,"10/07/2023 12:19:28",1688977168949,-4,"10/07/2023 04:19:28",137495,33,"task-d9wy",NA,30592420,9082638,NA,"complete",NA,NA,"computer","Desktop or Laptop","Windows 10","Chrome 114.0.0.0","1280x1024","1280x881",NA,NA,NA,"JV Task P1",8,"Anxious",321,"In",NA,1,"FGEHDICJBKA",NA,NA,"A (JV first)",NA,NA,"SS1","SS1",2,"V","Valence","sn1sjn",1,"response","38",1249.525,1799.376,1816.00599999999,1249.525,1799.376,1816.00599999999,1,1249.525,566.480999999992,0,NA,"Slider","J",3,"object-27","V","CFD-MF-309-002-N.jpg",NA,"SUPTM12782"
"10",1688991569899,"10/07/2023 12:19:29",1688977169899,-4,"10/07/2023 04:19:29",137495,33,"task-d9wy",NA,30592420,9082638,NA,"complete",NA,NA,"computer","Desktop or Laptop","Windows 10","Chrome 114.0.0.0","1280x1024","1280x881",NA,NA,NA,"JV Task P1",8,"Anxious",321,"In",NA,1,"FGEHDICJBKA",NA,NA,"A (JV first)",NA,NA,"SS1","SS1",2,"V","Fixation","aydkg3",2,"continue","",966.341,966.341,966.341,966.341,966.341,966.341,1,966.341,0,0,NA,"Fixation Timing","Fixation",1,"object-21","V","CFD-MF-309-002-N.jpg",NA,"SUPTM12782"
"11",1688991571547,"10/07/2023 12:19:31",1688977171547,-4,"10/07/2023 04:19:31",137495,33,"task-d9wy",NA,30592420,9082638,NA,"complete",NA,NA,"computer","Desktop or Laptop","Windows 10","Chrome 114.0.0.0","1280x1024","1280x881",NA,NA,NA,"JV Task P1",8,"Anxious",321,"In",NA,1,"FGEHDICJBKA",NA,NA,"A (JV first)",NA,NA,"SS1","SS1",3,"V","Valence","sn1sjn",1,"continue","",1648.15499995232,1632.788,1648.15499995232,1648.15499995232,1632.788,1648.15499995232,1,1648.15499995232,0,0,NA,"Click To Continue","Continue Button",1,"object-25","V","CFD-WM-036-031-N.jpg",NA,"SUPTM12782"
"12",1688991571547,"10/07/2023 12:19:31",1688977171547,-4,"10/07/2023 04:19:31",137495,33,"task-d9wy",NA,30592420,9082638,NA,"complete",NA,NA,"computer","Desktop or Laptop","Windows 10","Chrome 114.0.0.0","1280x1024","1280x881",NA,NA,NA,"JV Task P1",8,"Anxious",321,"In",NA,1,"FGEHDICJBKA",NA,NA,"A (JV first)",NA,NA,"SS1","SS1",3,"V","Valence","sn1sjn",1,"response","35",1016.31400000001,1632.788,1649.05500004769,1016.31400000001,1632.788,1649.05500004769,1,1016.31400000001,632.741000047681,0,NA,"Slider","J",3,"object-27","V","CFD-WM-036-031-N.jpg",NA,"SUPTM12782"
"13",1688991572498,"10/07/2023 12:19:32",1688977172498,-4,"10/07/2023 04:19:32",137495,33,"task-d9wy",NA,30592420,9082638,NA,"complete",NA,NA,"computer","Desktop or Laptop","Windows 10","Chrome 114.0.0.0","1280x1024","1280x881",NA,NA,NA,"JV Task P1",8,"Anxious",321,"In",NA,1,"FGEHDICJBKA",NA,NA,"A (JV first)",NA,NA,"SS1","SS1",3,"V","Fixation","aydkg3",2,"continue","",966.365000000005,966.365000000005,966.365000000005,966.365000000005,966.365000000005,966.365000000005,1,966.365000000005,0,0,NA,"Fixation Timing","Fixation",1,"object-21","V","CFD-WM-036-031-N.jpg",NA,"SUPTM12782"
"14",1688991574065,"10/07/2023 12:19:34",1688977174065,-4,"10/07/2023 04:19:34",137495,33,"task-d9wy",NA,30592420,9082638,NA,"complete",NA,NA,"computer","Desktop or Laptop","Windows 10","Chrome 114.0.0.0","1280x1024","1280x881",NA,NA,NA,"JV Task P1",8,"Anxious",321,"In",NA,1,"FGEHDICJBKA",NA,NA,"A (JV first)",NA,NA,"SS1","SS1",4,"V","Valence","sn1sjn",1,"continue","",1567.90200004768,1566.071,1567.90200004768,1567.90200004768,1566.071,1567.90200004768,1,1567.90200004768,0,0,NA,"Click To Continue","Continue Button",1,"object-25","V","CFD-BF-029-031-H.jpeg",NA,"SUPTM12782"
"15",1688991574066,"10/07/2023 12:19:34",1688977174066,-4,"10/07/2023 04:19:34",137495,33,"task-d9wy",NA,30592420,9082638,NA,"complete",NA,NA,"computer","Desktop or Laptop","Windows 10","Chrome 114.0.0.0","1280x1024","1280x881",NA,NA,NA,"JV Task P1",8,"Anxious",321,"In",NA,1,"FGEHDICJBKA",NA,NA,"A (JV first)",NA,NA,"SS1","SS1",4,"V","Valence","sn1sjn",1,"response","58",933.036999999997,1566.071,1568.30200014305,933.036999999997,1566.071,1568.30200014305,1,933.036999999997,635.265000143052,0,NA,"Slider","J",3,"object-27","V","CFD-BF-029-031-H.jpeg",NA,"SUPTM12782"
"16",1688991575031,"10/07/2023 12:19:35",1688977175031,-4,"10/07/2023 04:19:35",137495,33,"task-d9wy",NA,30592420,9082638,NA,"complete",NA,NA,"computer","Desktop or Laptop","Windows 10","Chrome 114.0.0.0","1280x1024","1280x881",NA,NA,NA,"JV Task P1",8,"Anxious",321,"In",NA,1,"FGEHDICJBKA",NA,NA,"A (JV first)",NA,NA,"SS1","SS1",4,"V","Fixation","aydkg3",2,"continue","",966.395000000004,966.395000000004,966.395000000004,966.395000000004,966.395000000004,966.395000000004,1,966.395000000004,0,0,NA,"Fixation Timing","Fixation",1,"object-21","V","CFD-BF-029-031-H.jpeg",NA,"SUPTM12782"
"17",1688991578388,"10/07/2023 12:19:38",1688977178388,-4,"10/07/2023 04:19:38",137495,33,"task-d9wy",NA,30592420,9082638,NA,"complete",NA,NA,"computer","Desktop or Laptop","Windows 10","Chrome 114.0.0.0","1280x1024","1280x881",NA,NA,NA,"JV Task P1",8,"Anxious",321,"In",NA,1,"FGEHDICJBKA",NA,NA,"A (JV first)",NA,NA,"SS1","SS1",5,"V","Valence","sn1sjn",1,"continue","",3358.13600009536,3348.903,3358.13600009536,3358.13600009536,3348.903,3358.13600009536,1,3358.13600009536,0,0,NA,"Click To Continue","Continue Button",1,"object-25","V","CFD-WM-034-030-H.jpeg",NA,"SUPTM12782"
"18",1688991578389,"10/07/2023 12:19:38",1688977178389,-4,"10/07/2023 04:19:38",137495,33,"task-d9wy",NA,30592420,9082638,NA,"complete",NA,NA,"computer","Desktop or Laptop","Windows 10","Chrome 114.0.0.0","1280x1024","1280x881",NA,NA,NA,"JV Task P1",8,"Anxious",321,"In",NA,1,"FGEHDICJBKA",NA,NA,"A (JV first)",NA,NA,"SS1","SS1",5,"V","Valence","sn1sjn",1,"response","56",2865.74099999999,3348.903,3359.03599995231,2865.74099999999,3348.903,3359.03599995231,1,2865.74099999999,493.294999952319,0,NA,"Slider","J",3,"object-27","V","CFD-WM-034-030-H.jpeg",NA,"SUPTM12782"
"19",1688991579346,"10/07/2023 12:19:39",1688977179346,-4,"10/07/2023 04:19:39",137495,33,"task-d9wy",NA,30592420,9082638,NA,"complete",NA,NA,"computer","Desktop or Laptop","Windows 10","Chrome 114.0.0.0","1280x1024","1280x881",NA,NA,NA,"JV Task P1",8,"Anxious",321,"In",NA,1,"FGEHDICJBKA",NA,NA,"A (JV first)",NA,NA,"SS1","SS1",5,"V","Fixation","aydkg3",2,"continue","",966.354999999996,966.354999999996,966.354999999996,966.354999999996,966.354999999996,966.354999999996,1,966.354999999996,0,0,NA,"Fixation Timing","Fixation",1,"object-21","V","CFD-WM-034-030-H.jpeg",NA,"SUPTM12782"
"20",1688991586041,"10/07/2023 12:19:46",1688977186041,-4,"10/07/2023 04:19:46",137495,33,"task-d9wy",NA,30592420,9082638,NA,"complete",NA,NA,"computer","Desktop or Laptop","Windows 10","Chrome 114.0.0.0","1280x1024","1280x881",NA,NA,NA,"JV Task P1",8,"Anxious",321,"In",NA,1,"FGEHDICJBKA",NA,NA,"A (JV first)",NA,NA,"SS1","SS1",6,"V","Valence","sn1sjn",1,"continue","",6695.77799995232,6681.073,6695.77799995232,6695.77799995232,6681.073,6695.77799995232,1,6695.77799995232,0,0,NA,"Click To Continue","Continue Button",1,"object-25","V","CFD-MF-309-002-S.jpeg",NA,"SUPTM12782"
"21",1688991586046,"10/07/2023 12:19:46",1688977186046,-4,"10/07/2023 04:19:46",137495,33,"task-d9wy",NA,30592420,9082638,NA,"complete",NA,NA,"computer","Desktop or Laptop","Windows 10","Chrome 114.0.0.0","1280x1024","1280x881",NA,NA,NA,"JV Task P1",8,"Anxious",321,"In",NA,1,"FGEHDICJBKA",NA,NA,"A (JV first)",NA,NA,"SS1","SS1",6,"V","Valence","sn1sjn",1,"response","45",5981.445,6681.073,6697.745,5981.445,6681.073,6697.745,1,5981.445,716.300000000003,0,NA,"Slider","J",3,"object-27","V","CFD-MF-309-002-S.jpeg",NA,"SUPTM12782"
"22",1688991586994,"10/07/2023 12:19:46",1688977186994,-4,"10/07/2023 04:19:46",137495,33,"task-d9wy",NA,30592420,9082638,NA,"complete",NA,NA,"computer","Desktop or Laptop","Windows 10","Chrome 114.0.0.0","1280x1024","1280x881",NA,NA,NA,"JV Task P1",8,"Anxious",321,"In",NA,1,"FGEHDICJBKA",NA,NA,"A (JV first)",NA,NA,"SS1","SS1",6,"V","Fixation","aydkg3",2,"continue","",966.339,966.339,966.339,966.339,966.339,966.339,1,966.339,0,0,NA,"Fixation Timing","Fixation",1,"object-21","V","CFD-MF-309-002-S.jpeg",NA,"SUPTM12782"
"23",1688991588740,"10/07/2023 12:19:48",1688977188740,-4,"10/07/2023 04:19:48",137495,33,"task-d9wy",NA,30592420,9082638,NA,"complete",NA,NA,"computer","Desktop or Laptop","Windows 10","Chrome 114.0.0.0","1280x1024","1280x881",NA,NA,NA,"JV Task P1",8,"Anxious",321,"In",NA,1,"FGEHDICJBKA",NA,NA,"A (JV first)",NA,NA,"SS1","SS1",2,"J","Judginess","w2ir4b",1,"continue","",1746.96600009537,1732.771,1746.96600009537,1746.96600009537,1732.771,1746.96600009537,1,1746.96600009537,0,0,NA,"Click To Continue","Continue Button",1,"object-14","J","CFD-BM-036-003-H.jpeg",NA,"SUPTM12782"
"24",1688991588740,"10/07/2023 12:19:48",1688977188740,-4,"10/07/2023 04:19:48",137495,33,"task-d9wy",NA,30592420,9082638,NA,"complete",NA,NA,"computer","Desktop or Laptop","Windows 10","Chrome 114.0.0.0","1280x1024","1280x881",NA,NA,NA,"JV Task P1",8,"Anxious",321,"In",NA,1,"FGEHDICJBKA",NA,NA,"A (JV first)",NA,NA,"SS1","SS1",2,"J","Judginess","w2ir4b",1,"response","57",1149.598,1732.771,1747.76600004768,1149.598,1732.771,1747.76600004768,1,1149.598,598.168000047684,0,NA,"Slider","J",3,"object-18","J","CFD-BM-036-003-H.jpeg",NA,"SUPTM12782"
"25",1688991589693,"10/07/2023 12:19:49",1688977189693,-4,"10/07/2023 04:19:49",137495,33,"task-d9wy",NA,30592420,9082638,NA,"complete",NA,NA,"computer","Desktop or Laptop","Windows 10","Chrome 114.0.0.0","1280x1024","1280x881",NA,NA,NA,"JV Task P1",8,"Anxious",321,"In",NA,1,"FGEHDICJBKA",NA,NA,"A (JV first)",NA,NA,"SS1","SS1",2,"J","Fixation","mtm832",2,"continue","",966.383000000002,966.383000000002,966.383000000002,966.383000000002,966.383000000002,966.383000000002,1,966.383000000002,0,0,NA,"Fixation Timing","Fixation",1,"object-65","J","CFD-BM-036-003-H.jpeg",NA,"SUPTM12782"
"26",1688991594613,"10/07/2023 12:19:54",1688977194613,-4,"10/07/2023 04:19:54",137495,33,"task-d9wy",NA,30592420,9082638,NA,"complete",NA,NA,"computer","Desktop or Laptop","Windows 10","Chrome 114.0.0.0","1280x1024","1280x881",NA,NA,NA,"JV Task P1",8,"Anxious",321,"In",NA,1,"FGEHDICJBKA",NA,NA,"A (JV first)",NA,NA,"SS1","SS1",7,"V","Valence","sn1sjn",1,"continue","",4921.11200004768,4915.136,4921.11200004768,4921.11200004768,4915.136,4921.11200004768,1,4921.11200004768,0,0,NA,"Click To Continue","Continue Button",1,"object-25","V","CFD-WF-017-003-H.jpeg",NA,"SUPTM12782"
"27",1688991594614,"10/07/2023 12:19:54",1688977194614,-4,"10/07/2023 04:19:54",137495,33,"task-d9wy",NA,30592420,9082638,NA,"complete",NA,NA,"computer","Desktop or Laptop","Windows 10","Chrome 114.0.0.0","1280x1024","1280x881",NA,NA,NA,"JV Task P1",8,"Anxious",321,"In",NA,1,"FGEHDICJBKA",NA,NA,"A (JV first)",NA,NA,"SS1","SS1",7,"V","Valence","sn1sjn",1,"response","56",4315.186,4915.136,4922.11200004768,4315.186,4915.136,4922.11200004768,1,4315.186,606.926000047679,0,NA,"Slider","J",3,"object-27","V","CFD-WF-017-003-H.jpeg",NA,"SUPTM12782"
"28",1688991595574,"10/07/2023 12:19:55",1688977195574,-4,"10/07/2023 04:19:55",137495,33,"task-d9wy",NA,30592420,9082638,NA,"complete",NA,NA,"computer","Desktop or Laptop","Windows 10","Chrome 114.0.0.0","1280x1024","1280x881",NA,NA,NA,"JV Task P1",8,"Anxious",321,"In",NA,1,"FGEHDICJBKA",NA,NA,"A (JV first)",NA,NA,"SS1","SS1",7,"V","Fixation","aydkg3",2,"continue","",966.192999999999,966.192999999999,966.192999999999,966.192999999999,966.192999999999,966.192999999999,1,966.192999999999,0,0,NA,"Fixation Timing","Fixation",1,"object-21","V","CFD-WF-017-003-H.jpeg",NA,"SUPTM12782"
"29",1688991600729,"10/07/2023 12:20:00",1688977200729,-4,"10/07/2023 04:20:00",137495,33,"task-d9wy",NA,30592420,9082638,NA,"complete",NA,NA,"computer","Desktop or Laptop","Windows 10","Chrome 114.0.0.0","1280x1024","1280x881",NA,NA,NA,"JV Task P1",8,"Anxious",321,"In",NA,1,"FGEHDICJBKA",NA,NA,"A (JV first)",NA,NA,"SS1","SS1",8,"V","Valence","sn1sjn",1,"continue","",5155.48300009537,5148.264,5155.48300009537,5155.48300009537,5148.264,5155.48300009537,1,5155.48300009537,0,0,NA,"Click To Continue","Continue Button",1,"object-25","V","CFD-BM-036-003-S.jpeg",NA,"SUPTM12782"
"30",1688991600731,"10/07/2023 12:20:00",1688977200731,-4,"10/07/2023 04:20:00",137495,33,"task-d9wy",NA,30592420,9082638,NA,"complete",NA,NA,"computer","Desktop or Laptop","Windows 10","Chrome 114.0.0.0","1280x1024","1280x881",NA,NA,NA,"JV Task P1",8,"Anxious",321,"In",NA,1,"FGEHDICJBKA",NA,NA,"A (JV first)",NA,NA,"SS1","SS1",8,"V","Valence","sn1sjn",1,"response","44",4165.336,5148.264,5157.98300009537,4165.336,5148.264,5157.98300009537,1,4165.336,992.64700009537,0,NA,"Slider","J",3,"object-27","V","CFD-BM-036-003-S.jpeg",NA,"SUPTM12782"
"31",1688991601688,"10/07/2023 12:20:01",1688977201688,-4,"10/07/2023 04:20:01",137495,33,"task-d9wy",NA,30592420,9082638,NA,"complete",NA,NA,"computer","Desktop or Laptop","Windows 10","Chrome 114.0.0.0","1280x1024","1280x881",NA,NA,NA,"JV Task P1",8,"Anxious",321,"In",NA,1,"FGEHDICJBKA",NA,NA,"A (JV first)",NA,NA,"SS1","SS1",8,"V","Fixation","aydkg3",2,"continue","",966.368000000002,966.368000000002,966.368000000002,966.368000000002,966.368000000002,966.368000000002,1,966.368000000002,0,0,NA,"Fixation Timing","Fixation",1,"object-21","V","CFD-BM-036-003-S.jpeg",NA,"SUPTM12782"
"32",1688991606204,"10/07/2023 12:20:06",1688977206204,-4,"10/07/2023 04:20:06",137495,33,"task-d9wy",NA,30592420,9082638,NA,"complete",NA,NA,"computer","Desktop or Laptop","Windows 10","Chrome 114.0.0.0","1280x1024","1280x881",NA,NA,NA,"JV Task P1",8,"Anxious",321,"In",NA,1,"FGEHDICJBKA",NA,NA,"A (JV first)",NA,NA,"SS1","SS1",9,"V","Valence","sn1sjn",1,"continue","",4515.14200000001,4498.51300000001,4515.14200000001,4515.14200000001,4498.51300000001,4515.14200000001,1,4515.14200000001,0,0,NA,"Click To Continue","Continue Button",1,"object-25","V","CFD-IF-693-172-N.jpg",NA,"SUPTM12782"
"33",1688991606205,"10/07/2023 12:20:06",1688977206205,-4,"10/07/2023 04:20:06",137495,33,"task-d9wy",NA,30592420,9082638,NA,"complete",NA,NA,"computer","Desktop or Laptop","Windows 10","Chrome 114.0.0.0","1280x1024","1280x881",NA,NA,NA,"JV Task P1",8,"Anxious",321,"In",NA,1,"FGEHDICJBKA",NA,NA,"A (JV first)",NA,NA,"SS1","SS1",9,"V","Valence","sn1sjn",1,"response","42",3832.049,4498.51300000001,4515.14200000001,3832.049,4498.51300000001,4515.14200000001,1,3832.049,683.093000000008,0,NA,"Slider","J",3,"object-27","V","CFD-IF-693-172-N.jpg",NA,"SUPTM12782"
"34",1688991607154,"10/07/2023 12:20:07",1688977207154,-4,"10/07/2023 04:20:07",137495,33,"task-d9wy",NA,30592420,9082638,NA,"complete",NA,NA,"computer","Desktop or Laptop","Windows 10","Chrome 114.0.0.0","1280x1024","1280x881",NA,NA,NA,"JV Task P1",8,"Anxious",321,"In",NA,1,"FGEHDICJBKA",NA,NA,"A (JV first)",NA,NA,"SS1","SS1",9,"V","Fixation","aydkg3",2,"continue","",966.383999999991,966.383999999991,966.383999999991,966.383999999991,966.383999999991,966.383999999991,1,966.383999999991,0,0,NA,"Fixation Timing","Fixation",1,"object-21","V","CFD-IF-693-172-N.jpg",NA,"SUPTM12782"
"35",1688991611716,"10/07/2023 12:20:11",1688977211716,-4,"10/07/2023 04:20:11",137495,33,"task-d9wy",NA,30592420,9082638,NA,"complete",NA,NA,"computer","Desktop or Laptop","Windows 10","Chrome 114.0.0.0","1280x1024","1280x881",NA,NA,NA,"JV Task P1",8,"Anxious",321,"In",NA,1,"FGEHDICJBKA",NA,NA,"A (JV first)",NA,NA,"SS1","SS1",3,"J","Judginess","w2ir4b",1,"continue","",4562.85399995232,4548.451,4562.85399995232,4562.85399995232,4548.451,4562.85399995232,1,4562.85399995232,0,0,NA,"Click To Continue","Continue Button",1,"object-14","J","CFD-WM-035-032-S.jpeg",NA,"SUPTM12782"
"36",1688991611724,"10/07/2023 12:20:11",1688977211724,-4,"10/07/2023 04:20:11",137495,33,"task-d9wy",NA,30592420,9082638,NA,"complete",NA,NA,"computer","Desktop or Laptop","Windows 10","Chrome 114.0.0.0","1280x1024","1280x881",NA,NA,NA,"JV Task P1",8,"Anxious",321,"In",NA,1,"FGEHDICJBKA",NA,NA,"A (JV first)",NA,NA,"SS1","SS1",3,"J","Judginess","w2ir4b",1,"response","41",3965.29800000001,4548.451,4565.11500000001,3965.29800000001,4548.451,4565.11500000001,1,3965.29800000001,599.816999999995,0,NA,"Slider","J",3,"object-18","J","CFD-WM-035-032-S.jpeg",NA,"SUPTM12782"
"37",1688991612668,"10/07/2023 12:20:12",1688977212668,-4,"10/07/2023 04:20:12",137495,33,"task-d9wy",NA,30592420,9082638,NA,"complete",NA,NA,"computer","Desktop or Laptop","Windows 10","Chrome 114.0.0.0","1280x1024","1280x881",NA,NA,NA,"JV Task P1",8,"Anxious",321,"In",NA,1,"FGEHDICJBKA",NA,NA,"A (JV first)",NA,NA,"SS1","SS1",3,"J","Fixation","mtm832",2,"continue","",966.271000000008,966.271000000008,966.271000000008,966.271000000008,966.271000000008,966.271000000008,1,966.271000000008,0,0,NA,"Fixation Timing","Fixation",1,"object-65","J","CFD-WM-035-032-S.jpeg",NA,"SUPTM12782"
"38",1688991620020,"10/07/2023 12:20:20",1688977220020,-4,"10/07/2023 04:20:20",137495,33,"task-d9wy",NA,30592420,9082638,NA,"complete",NA,NA,"computer","Desktop or Laptop","Windows 10","Chrome 114.0.0.0","1280x1024","1280x881",NA,NA,NA,"JV Task P1",8,"Anxious",321,"In",NA,1,"FGEHDICJBKA",NA,NA,"A (JV first)",NA,NA,"SS1","SS1",10,"V","Valence","sn1sjn",1,"continue","",7352.03200004768,7347.59299999999,7352.03200004768,7352.03200004768,7347.59299999999,7352.03200004768,1,7352.03200004768,0,0,NA,"Click To Continue","Continue Button",1,"object-25","V","CFD-WF-006-002-H.jpeg",NA,"SUPTM12782"
"39",1688991620021,"10/07/2023 12:20:20",1688977220021,-4,"10/07/2023 04:20:20",137495,33,"task-d9wy",NA,30592420,9082638,NA,"complete",NA,NA,"computer","Desktop or Laptop","Windows 10","Chrome 114.0.0.0","1280x1024","1280x881",NA,NA,NA,"JV Task P1",8,"Anxious",321,"In",NA,1,"FGEHDICJBKA",NA,NA,"A (JV first)",NA,NA,"SS1","SS1",10,"V","Valence","sn1sjn",1,"response","42",6397.921,7347.59299999999,7353.03200004768,6397.921,7347.59299999999,7353.03200004768,1,6397.921,955.111000047676,0,NA,"Slider","J",3,"object-27","V","CFD-WF-006-002-H.jpeg",NA,"SUPTM12782"
"40",1688991620982,"10/07/2023 12:20:20",1688977220982,-4,"10/07/2023 04:20:20",137495,33,"task-d9wy",NA,30592420,9082638,NA,"complete",NA,NA,"computer","Desktop or Laptop","Windows 10","Chrome 114.0.0.0","1280x1024","1280x881",NA,NA,NA,"JV Task P1",8,"Anxious",321,"In",NA,1,"FGEHDICJBKA",NA,NA,"A (JV first)",NA,NA,"SS1","SS1",10,"V","Fixation","aydkg3",2,"continue","",966.375,966.375,966.375,966.375,966.375,966.375,1,966.375,0,0,NA,"Fixation Timing","Fixation",1,"object-21","V","CFD-WF-006-002-H.jpeg",NA,"SUPTM12782"
"41",1688991622940,"10/07/2023 12:20:22",1688977222940,-4,"10/07/2023 04:20:22",137495,33,"task-d9wy",NA,30592420,9082638,NA,"complete",NA,NA,"computer","Desktop or Laptop","Windows 10","Chrome 114.0.0.0","1280x1024","1280x881",NA,NA,NA,"JV Task P1",8,"Anxious",321,"In",NA,1,"FGEHDICJBKA",NA,NA,"A (JV first)",NA,NA,"SS1","SS1",11,"V","Valence","sn1sjn",1,"continue","",1958.864,1949.33100000001,1958.864,1958.864,1949.33100000001,1958.864,1,1958.864,0,0,NA,"Click To Continue","Continue Button",1,"object-25","V","CFD-AM-223-138-N.jpg",NA,"SUPTM12782"
"42",1688991622948,"10/07/2023 12:20:22",1688977222948,-4,"10/07/2023 04:20:22",137495,33,"task-d9wy",NA,30592420,9082638,NA,"complete",NA,NA,"computer","Desktop or Laptop","Windows 10","Chrome 114.0.0.0","1280x1024","1280x881",NA,NA,NA,"JV Task P1",8,"Anxious",321,"In",NA,1,"FGEHDICJBKA",NA,NA,"A (JV first)",NA,NA,"SS1","SS1",11,"V","Valence","sn1sjn",1,"response","41",1349.473,1949.33100000001,1966.00700000001,1349.473,1949.33100000001,1966.00700000001,1,1349.473,616.534000000014,0,NA,"Slider","J",3,"object-27","V","CFD-AM-223-138-N.jpg",NA,"SUPTM12782"
"43",1688991623897,"10/07/2023 12:20:23",1688977223897,-4,"10/07/2023 04:20:23",137495,33,"task-d9wy",NA,30592420,9082638,NA,"complete",NA,NA,"computer","Desktop or Laptop","Windows 10","Chrome 114.0.0.0","1280x1024","1280x881",NA,NA,NA,"JV Task P1",8,"Anxious",321,"In",NA,1,"FGEHDICJBKA",NA,NA,"A (JV first)",NA,NA,"SS1","SS1",11,"V","Fixation","aydkg3",2,"continue","",966.365999999995,966.365999999995,966.365999999995,966.365999999995,966.365999999995,966.365999999995,1,966.365999999995,0,0,NA,"Fixation Timing","Fixation",1,"object-21","V","CFD-AM-223-138-N.jpg",NA,"SUPTM12782"
"44",1688991626865,"10/07/2023 12:20:26",1688977226865,-4,"10/07/2023 04:20:26",137495,33,"task-d9wy",NA,30592420,9082638,NA,"complete",NA,NA,"computer","Desktop or Laptop","Windows 10","Chrome 114.0.0.0","1280x1024","1280x881",NA,NA,NA,"JV Task P1",8,"Anxious",321,"In",NA,1,"FGEHDICJBKA",NA,NA,"A (JV first)",NA,NA,"SS1","SS1",4,"J","Judginess","w2ir4b",1,"continue","",2967.96699995232,2965.61,2967.96699995232,2967.96699995232,2965.61,2967.96699995232,1,2967.96699995232,0,0,NA,"Click To Continue","Continue Button",1,"object-14","J","CFD-WF-030-002-H.jpeg",NA,"SUPTM12782"
"45",1688991626865,"10/07/2023 12:20:26",1688977226865,-4,"10/07/2023 04:20:26",137495,33,"task-d9wy",NA,30592420,9082638,NA,"complete",NA,NA,"computer","Desktop or Laptop","Windows 10","Chrome 114.0.0.0","1280x1024","1280x881",NA,NA,NA,"JV Task P1",8,"Anxious",321,"In",NA,1,"FGEHDICJBKA",NA,NA,"A (JV first)",NA,NA,"SS1","SS1",4,"J","Judginess","w2ir4b",1,"response","42",2232.512,2965.61,2968.46699995232,2232.512,2965.61,2968.46699995232,1,2232.512,735.954999952315,0,NA,"Slider","J",3,"object-18","J","CFD-WF-030-002-H.jpeg",NA,"SUPTM12782"
"46",1688991627829,"10/07/2023 12:20:27",1688977227829,-4,"10/07/2023 04:20:27",137495,33,"task-d9wy",NA,30592420,9082638,NA,"complete",NA,NA,"computer","Desktop or Laptop","Windows 10","Chrome 114.0.0.0","1280x1024","1280x881",NA,NA,NA,"JV Task P1",8,"Anxious",321,"In",NA,1,"FGEHDICJBKA",NA,NA,"A (JV first)",NA,NA,"SS1","SS1",4,"J","Fixation","mtm832",2,"continue","",966.402000000002,966.402000000002,966.402000000002,966.402000000002,966.402000000002,966.402000000002,1,966.402000000002,0,0,NA,"Fixation Timing","Fixation",1,"object-65","J","CFD-WF-030-002-H.jpeg",NA,"SUPTM12782"
"47",1688991630432,"10/07/2023 12:20:30",1688977230432,-4,"10/07/2023 04:20:30",137495,33,"task-d9wy",NA,30592420,9082638,NA,"complete",NA,NA,"computer","Desktop or Laptop","Windows 10","Chrome 114.0.0.0","1280x1024","1280x881",NA,NA,NA,"JV Task P1",8,"Anxious",321,"In",NA,1,"FGEHDICJBKA",NA,NA,"A (JV first)",NA,NA,"SS1","SS1",12,"V","Valence","sn1sjn",1,"continue","",2603.155,2599.132,2603.155,2603.155,2599.132,2603.155,1,2603.155,0,0,NA,"Click To Continue","Continue Button",1,"object-25","V","CFD-WM-034-030-S.jpeg",NA,"SUPTM12782"
"48",1688991630432,"10/07/2023 12:20:30",1688977230432,-4,"10/07/2023 04:20:30",137495,33,"task-d9wy",NA,30592420,9082638,NA,"complete",NA,NA,"computer","Desktop or Laptop","Windows 10","Chrome 114.0.0.0","1280x1024","1280x881",NA,NA,NA,"JV Task P1",8,"Anxious",321,"In",NA,1,"FGEHDICJBKA",NA,NA,"A (JV first)",NA,NA,"SS1","SS1",12,"V","Valence","sn1sjn",1,"response","35",1716.189,2599.132,2603.55500009537,1716.189,2599.132,2603.55500009537,1,1716.189,887.366000095368,0,NA,"Slider","J",3,"object-27","V","CFD-WM-034-030-S.jpeg",NA,"SUPTM12782"
"49",1688991631395,"10/07/2023 12:20:31",1688977231395,-4,"10/07/2023 04:20:31",137495,33,"task-d9wy",NA,30592420,9082638,NA,"complete",NA,NA,"computer","Desktop or Laptop","Windows 10","Chrome 114.0.0.0","1280x1024","1280x881",NA,NA,NA,"JV Task P1",8,"Anxious",321,"In",NA,1,"FGEHDICJBKA",NA,NA,"A (JV first)",NA,NA,"SS1","SS1",12,"V","Fixation","aydkg3",2,"continue","",966.312999999995,966.312999999995,966.312999999995,966.312999999995,966.312999999995,966.312999999995,1,966.312999999995,0,0,NA,"Fixation Timing","Fixation",1,"object-21","V","CFD-WM-034-030-S.jpeg",NA,"SUPTM12782"
"50",1688991650291,"10/07/2023 12:20:50",1688977250291,-4,"10/07/2023 04:20:50",137495,33,"task-d9wy",NA,30592420,9082638,NA,"complete",NA,NA,"computer","Desktop or Laptop","Windows 10","Chrome 114.0.0.0","1280x1024","1280x881",NA,NA,NA,"JV Task P1",8,"Anxious",321,"In",NA,1,"FGEHDICJBKA",NA,NA,"A (JV first)",NA,NA,"SS1","SS1",13,"V","Valence","sn1sjn",1,"continue","",18896.5099999523,18893.769,18896.5099999523,18896.5099999523,18893.769,18896.5099999523,1,18896.5099999523,0,0,NA,"Click To Continue","Continue Button",1,"object-25","V","CFD-WF-012-002-N.jpg",NA,"SUPTM12782"
"51",1688991650301,"10/07/2023 12:20:50",1688977250301,-4,"10/07/2023 04:20:50",137495,33,"task-d9wy",NA,30592420,9082638,NA,"complete",NA,NA,"computer","Desktop or Laptop","Windows 10","Chrome 114.0.0.0","1280x1024","1280x881",NA,NA,NA,"JV Task P1",8,"Anxious",321,"In",NA,1,"FGEHDICJBKA",NA,NA,"A (JV first)",NA,NA,"SS1","SS1",13,"V","Valence","sn1sjn",1,"response","41",18227.25,18893.769,18907.0099999523,18227.25,18893.769,18907.0099999523,1,18227.25,679.759999952323,0,NA,"Slider","J",3,"object-27","V","CFD-WF-012-002-N.jpg",NA,"SUPTM12782"
"52",1688991651254,"10/07/2023 12:20:51",1688977251254,-4,"10/07/2023 04:20:51",137495,33,"task-d9wy",NA,30592420,9082638,NA,"complete",NA,NA,"computer","Desktop or Laptop","Windows 10","Chrome 114.0.0.0","1280x1024","1280x881",NA,NA,NA,"JV Task P1",8,"Anxious",321,"In",NA,1,"FGEHDICJBKA",NA,NA,"A (JV first)",NA,NA,"SS1","SS1",13,"V","Fixation","aydkg3",2,"continue","",966.290000000008,966.290000000008,966.290000000008,966.290000000008,966.290000000008,966.290000000008,1,966.290000000008,0,0,NA,"Fixation Timing","Fixation",1,"object-21","V","CFD-WF-012-002-N.jpg",NA,"SUPTM12782"
"53",1688991659035,"10/07/2023 12:20:59",1688977259035,-4,"10/07/2023 04:20:59",137495,33,"task-d9wy",NA,30592420,9082638,NA,"complete",NA,NA,"computer","Desktop or Laptop","Windows 10","Chrome 114.0.0.0","1280x1024","1280x881",NA,NA,NA,"JV Task P1",8,"Anxious",321,"In",NA,1,"FGEHDICJBKA",NA,NA,"A (JV first)",NA,NA,"SS1","SS1",14,"V","Valence","sn1sjn",1,"continue","",7780.45099995231,7764.118,7780.45099995231,7780.45099995231,7764.118,7780.45099995231,1,7780.45099995231,0,0,NA,"Click To Continue","Continue Button",1,"object-25","V","CFD-WM-028-003-N.jpg",NA,"SUPTM12782"
"54",1688991659036,"10/07/2023 12:20:59",1688977259036,-4,"10/07/2023 04:20:59",137495,33,"task-d9wy",NA,30592420,9082638,NA,"complete",NA,NA,"computer","Desktop or Laptop","Windows 10","Chrome 114.0.0.0","1280x1024","1280x881",NA,NA,NA,"JV Task P1",8,"Anxious",321,"In",NA,1,"FGEHDICJBKA",NA,NA,"A (JV first)",NA,NA,"SS1","SS1",14,"V","Valence","sn1sjn",1,"response","41",6747.77099999999,7764.118,7780.78500000002,6747.77099999999,7764.118,7780.78500000002,1,6747.77099999999,1033.01400000002,0,NA,"Slider","J",3,"object-27","V","CFD-WM-028-003-N.jpg",NA,"SUPTM12782"
"55",1688991659985,"10/07/2023 12:20:59",1688977259985,-4,"10/07/2023 04:20:59",137495,33,"task-d9wy",NA,30592420,9082638,NA,"complete",NA,NA,"computer","Desktop or Laptop","Windows 10","Chrome 114.0.0.0","1280x1024","1280x881",NA,NA,NA,"JV Task P1",8,"Anxious",321,"In",NA,1,"FGEHDICJBKA",NA,NA,"A (JV first)",NA,NA,"SS1","SS1",14,"V","Fixation","aydkg3",2,"continue","",966.260999999999,966.260999999999,966.260999999999,966.260999999999,966.260999999999,966.260999999999,1,966.260999999999,0,0,NA,"Fixation Timing","Fixation",1,"object-21","V","CFD-WM-028-003-N.jpg",NA,"SUPTM12782"
"56",1688991664227,"10/07/2023 12:21:04",1688977264227,-4,"10/07/2023 04:21:04",137495,33,"task-d9wy",NA,30592420,9082638,NA,"complete",NA,NA,"computer","Desktop or Laptop","Windows 10","Chrome 114.0.0.0","1280x1024","1280x881",NA,NA,NA,"JV Task P1",8,"Anxious",321,"In",NA,1,"FGEHDICJBKA",NA,NA,"A (JV first)",NA,NA,"SS1","SS1",5,"J","Judginess","w2ir4b",1,"continue","",4242.67200009536,4231.97200000001,4242.67200009536,4242.67200009536,4231.97200000001,4242.67200009536,1,4242.67200009536,0,0,NA,"Click To Continue","Continue Button",1,"object-14","J","CFD-WF-006-002-N.jpg",NA,"SUPTM12782"
"57",1688991664236,"10/07/2023 12:21:04",1688977264236,-4,"10/07/2023 04:21:04",137495,33,"task-d9wy",NA,30592420,9082638,NA,"complete",NA,NA,"computer","Desktop or Laptop","Windows 10","Chrome 114.0.0.0","1280x1024","1280x881",NA,NA,NA,"JV Task P1",8,"Anxious",321,"In",NA,1,"FGEHDICJBKA",NA,NA,"A (JV first)",NA,NA,"SS1","SS1",5,"J","Judginess","w2ir4b",1,"response","42",3532.21599999999,4231.97200000001,4248.61200000002,3532.21599999999,4231.97200000001,4248.61200000002,1,3532.21599999999,716.396000000037,0,NA,"Slider","J",3,"object-18","J","CFD-WF-006-002-N.jpg",NA,"SUPTM12782"
"58",1688991665184,"10/07/2023 12:21:05",1688977265184,-4,"10/07/2023 04:21:05",137495,33,"task-d9wy",NA,30592420,9082638,NA,"complete",NA,NA,"computer","Desktop or Laptop","Windows 10","Chrome 114.0.0.0","1280x1024","1280x881",NA,NA,NA,"JV Task P1",8,"Anxious",321,"In",NA,1,"FGEHDICJBKA",NA,NA,"A (JV first)",NA,NA,"SS1","SS1",5,"J","Fixation","mtm832",2,"continue","",966.492999999988,966.492999999988,966.492999999988,966.492999999988,966.492999999988,966.492999999988,1,966.492999999988,0,0,NA,"Fixation Timing","Fixation",1,"object-65","J","CFD-WF-006-002-N.jpg",NA,"SUPTM12782"
"59",1688991666921,"10/07/2023 12:21:06",1688977266921,-4,"10/07/2023 04:21:06",137495,33,"task-d9wy",NA,30592420,9082638,NA,"complete",NA,NA,"computer","Desktop or Laptop","Windows 10","Chrome 114.0.0.0","1280x1024","1280x881",NA,NA,NA,"JV Task P1",8,"Anxious",321,"In",NA,1,"FGEHDICJBKA",NA,NA,"A (JV first)",NA,NA,"SS1","SS1",15,"V","Valence","sn1sjn",1,"continue","",1737.90700014305,1732.60800000001,1737.90700014305,1737.90700014305,1732.60800000001,1737.90700014305,1,1737.90700014305,0,0,NA,"Click To Continue","Continue Button",1,"object-25","V","CFD-IM-695-001-N.jpg",NA,"SUPTM12782"
"60",1688991666921,"10/07/2023 12:21:06",1688977266921,-4,"10/07/2023 04:21:06",137495,33,"task-d9wy",NA,30592420,9082638,NA,"complete",NA,NA,"computer","Desktop or Laptop","Windows 10","Chrome 114.0.0.0","1280x1024","1280x881",NA,NA,NA,"JV Task P1",8,"Anxious",321,"In",NA,1,"FGEHDICJBKA",NA,NA,"A (JV first)",NA,NA,"SS1","SS1",15,"V","Valence","sn1sjn",1,"response","36",1099.584,1732.60800000001,1738.50700004768,1099.584,1732.60800000001,1738.50700004768,1,1099.584,638.923000047682,0,NA,"Slider","J",3,"object-27","V","CFD-IM-695-001-N.jpg",NA,"SUPTM12782"
"61",1688991667883,"10/07/2023 12:21:07",1688977267883,-4,"10/07/2023 04:21:07",137495,33,"task-d9wy",NA,30592420,9082638,NA,"complete",NA,NA,"computer","Desktop or Laptop","Windows 10","Chrome 114.0.0.0","1280x1024","1280x881",NA,NA,NA,"JV Task P1",8,"Anxious",321,"In",NA,1,"FGEHDICJBKA",NA,NA,"A (JV first)",NA,NA,"SS1","SS1",15,"V","Fixation","aydkg3",2,"continue","",966.377999999997,966.377999999997,966.377999999997,966.377999999997,966.377999999997,966.377999999997,1,966.377999999997,0,0,NA,"Fixation Timing","Fixation",1,"object-21","V","CFD-IM-695-001-N.jpg",NA,"SUPTM12782"
"62",1688991672540,"10/07/2023 12:21:12",1688977272540,-4,"10/07/2023 04:21:12",137495,33,"task-d9wy",NA,30592420,9082638,NA,"complete",NA,NA,"computer","Desktop or Laptop","Windows 10","Chrome 114.0.0.0","1280x1024","1280x881",NA,NA,NA,"JV Task P1",8,"Anxious",321,"In",NA,1,"FGEHDICJBKA",NA,NA,"A (JV first)",NA,NA,"SS1","SS1",16,"V","Valence","sn1sjn",1,"continue","",4658.02100004768,4648.46100000001,4658.02100004768,4658.02100004768,4648.46100000001,4658.02100004768,1,4658.02100004768,0,0,NA,"Click To Continue","Continue Button",1,"object-25","V","CFD-WM-001-014-N.jpg",NA,"SUPTM12782"
"63",1688991672541,"10/07/2023 12:21:12",1688977272541,-4,"10/07/2023 04:21:12",137495,33,"task-d9wy",NA,30592420,9082638,NA,"complete",NA,NA,"computer","Desktop or Laptop","Windows 10","Chrome 114.0.0.0","1280x1024","1280x881",NA,NA,NA,"JV Task P1",8,"Anxious",321,"In",NA,1,"FGEHDICJBKA",NA,NA,"A (JV first)",NA,NA,"SS1","SS1",16,"V","Valence","sn1sjn",1,"response","41",4065.32499999998,4648.46100000001,4659.22100009536,4065.32499999998,4648.46100000001,4659.22100009536,1,4065.32499999998,593.896000095381,0,NA,"Slider","J",3,"object-27","V","CFD-WM-001-014-N.jpg",NA,"SUPTM12782"
"64",1688991673498,"10/07/2023 12:21:13",1688977273498,-4,"10/07/2023 04:21:13",137495,33,"task-d9wy",NA,30592420,9082638,NA,"complete",NA,NA,"computer","Desktop or Laptop","Windows 10","Chrome 114.0.0.0","1280x1024","1280x881",NA,NA,NA,"JV Task P1",8,"Anxious",321,"In",NA,1,"FGEHDICJBKA",NA,NA,"A (JV first)",NA,NA,"SS1","SS1",16,"V","Fixation","aydkg3",2,"continue","",966.320999999996,966.320999999996,966.320999999996,966.320999999996,966.320999999996,966.320999999996,1,966.320999999996,0,0,NA,"Fixation Timing","Fixation",1,"object-21","V","CFD-WM-001-014-N.jpg",NA,"SUPTM12782"
"65",1688991675275,"10/07/2023 12:21:15",1688977275275,-4,"10/07/2023 04:21:15",137495,33,"task-d9wy",NA,30592420,9082638,NA,"complete",NA,NA,"computer","Desktop or Laptop","Windows 10","Chrome 114.0.0.0","1280x1024","1280x881",NA,NA,NA,"JV Task P1",8,"Anxious",321,"In",NA,1,"FGEHDICJBKA",NA,NA,"A (JV first)",NA,NA,"SS1","SS1",17,"V","Valence","sn1sjn",1,"continue","",1778.13900014304,1766.07199999999,1778.13900014304,1778.13900014304,1766.07199999999,1778.13900014304,1,1778.13900014304,0,0,NA,"Click To Continue","Continue Button",1,"object-25","V","CFD-WF-030-002-N.jpg",NA,"SUPTM12782"
"66",1688991675289,"10/07/2023 12:21:15",1688977275289,-4,"10/07/2023 04:21:15",137495,33,"task-d9wy",NA,30592420,9082638,NA,"complete",NA,NA,"computer","Desktop or Laptop","Windows 10","Chrome 114.0.0.0","1280x1024","1280x881",NA,NA,NA,"JV Task P1",8,"Anxious",321,"In",NA,1,"FGEHDICJBKA",NA,NA,"A (JV first)",NA,NA,"SS1","SS1",17,"V","Valence","sn1sjn",1,"response","37",1232.91199999998,1766.07199999999,1782.72899999999,1232.91199999998,1766.07199999999,1782.72899999999,1,1232.91199999998,549.81700000001,0,NA,"Slider","J",3,"object-27","V","CFD-WF-030-002-N.jpg",NA,"SUPTM12782"
"67",1688991676230,"10/07/2023 12:21:16",1688977276230,-4,"10/07/2023 04:21:16",137495,33,"task-d9wy",NA,30592420,9082638,NA,"complete",NA,NA,"computer","Desktop or Laptop","Windows 10","Chrome 114.0.0.0","1280x1024","1280x881",NA,NA,NA,"JV Task P1",8,"Anxious",321,"In",NA,1,"FGEHDICJBKA",NA,NA,"A (JV first)",NA,NA,"SS1","SS1",17,"V","Fixation","aydkg3",2,"continue","",966.33600000001,966.33600000001,966.33600000001,966.33600000001,966.33600000001,966.33600000001,1,966.33600000001,0,0,NA,"Fixation Timing","Fixation",1,"object-21","V","CFD-WF-030-002-N.jpg",NA,"SUPTM12782"
"68",1688991684600,"10/07/2023 12:21:24",1688977284600,-4,"10/07/2023 04:21:24",137495,33,"task-d9wy",NA,30592420,9082638,NA,"complete",NA,NA,"computer","Desktop or Laptop","Windows 10","Chrome 114.0.0.0","1280x1024","1280x881",NA,NA,NA,"JV Task P1",8,"Anxious",321,"In",NA,1,"FGEHDICJBKA",NA,NA,"A (JV first)",NA,NA,"SS1","SS1",18,"V","Valence","sn1sjn",1,"continue","",8371.43099995231,8363.86599999998,8371.43099995231,8371.43099995231,8363.86599999998,8371.43099995231,1,8371.43099995231,0,0,NA,"Click To Continue","Continue Button",1,"object-25","V","CFD-WF-027-003-N.jpg",NA,"SUPTM12782"
"69",1688991684601,"10/07/2023 12:21:24",1688977284601,-4,"10/07/2023 04:21:24",137495,33,"task-d9wy",NA,30592420,9082638,NA,"complete",NA,NA,"computer","Desktop or Laptop","Windows 10","Chrome 114.0.0.0","1280x1024","1280x881",NA,NA,NA,"JV Task P1",8,"Anxious",321,"In",NA,1,"FGEHDICJBKA",NA,NA,"A (JV first)",NA,NA,"SS1","SS1",18,"V","Valence","sn1sjn",1,"response","41",7580.82399999999,8363.86599999998,8371.93099995231,7580.82399999999,8363.86599999998,8371.93099995231,1,7580.82399999999,791.106999952317,0,NA,"Slider","J",3,"object-27","V","CFD-WF-027-003-N.jpg",NA,"SUPTM12782"
"70",1688991685560,"10/07/2023 12:21:25",1688977285560,-4,"10/07/2023 04:21:25",137495,33,"task-d9wy",NA,30592420,9082638,NA,"complete",NA,NA,"computer","Desktop or Laptop","Windows 10","Chrome 114.0.0.0","1280x1024","1280x881",NA,NA,NA,"JV Task P1",8,"Anxious",321,"In",NA,1,"FGEHDICJBKA",NA,NA,"A (JV first)",NA,NA,"SS1","SS1",18,"V","Fixation","aydkg3",2,"continue","",966.344000000012,966.344000000012,966.344000000012,966.344000000012,966.344000000012,966.344000000012,1,966.344000000012,0,0,NA,"Fixation Timing","Fixation",1,"object-21","V","CFD-WF-027-003-N.jpg",NA,"SUPTM12782"
"71",1688991689226,"10/07/2023 12:21:29",1688977289226,-4,"10/07/2023 04:21:29",137495,33,"task-d9wy",NA,30592420,9082638,NA,"complete",NA,NA,"computer","Desktop or Laptop","Windows 10","Chrome 114.0.0.0","1280x1024","1280x881",NA,NA,NA,"JV Task P1",8,"Anxious",321,"In",NA,1,"FGEHDICJBKA",NA,NA,"A (JV first)",NA,NA,"SS1","SS1",6,"J","Judginess","w2ir4b",1,"continue","",3665.50399999999,3648.80499999999,3665.50399999999,3665.50399999999,3648.80499999999,3665.50399999999,1,3665.50399999999,0,0,NA,"Click To Continue","Continue Button",1,"object-14","J","CFD-WF-037-029-S.jpeg",NA,"SUPTM12782"
"72",1688991689227,"10/07/2023 12:21:29",1688977289227,-4,"10/07/2023 04:21:29",137495,33,"task-d9wy",NA,30592420,9082638,NA,"complete",NA,NA,"computer","Desktop or Laptop","Windows 10","Chrome 114.0.0.0","1280x1024","1280x881",NA,NA,NA,"JV Task P1",8,"Anxious",321,"In",NA,1,"FGEHDICJBKA",NA,NA,"A (JV first)",NA,NA,"SS1","SS1",6,"J","Judginess","w2ir4b",1,"response","42",3016.20300000001,3648.80499999999,3665.50399999999,3016.20300000001,3648.80499999999,3665.50399999999,1,3016.20300000001,649.300999999978,0,NA,"Slider","J",3,"object-18","J","CFD-WF-037-029-S.jpeg",NA,"SUPTM12782"
"73",1688991690176,"10/07/2023 12:21:30",1688977290176,-4,"10/07/2023 04:21:30",137495,33,"task-d9wy",NA,30592420,9082638,NA,"complete",NA,NA,"computer","Desktop or Laptop","Windows 10","Chrome 114.0.0.0","1280x1024","1280x881",NA,NA,NA,"JV Task P1",8,"Anxious",321,"In",NA,1,"FGEHDICJBKA",NA,NA,"A (JV first)",NA,NA,"SS1","SS1",6,"J","Fixation","mtm832",2,"continue","",966.512000000017,966.512000000017,966.512000000017,966.512000000017,966.512000000017,966.512000000017,1,966.512000000017,0,0,NA,"Fixation Timing","Fixation",1,"object-65","J","CFD-WF-037-029-S.jpeg",NA,"SUPTM12782"
"74",1688991697745,"10/07/2023 12:21:37",1688977297745,-4,"10/07/2023 04:21:37",137495,33,"task-d9wy",NA,30592420,9082638,NA,"complete",NA,NA,"computer","Desktop or Laptop","Windows 10","Chrome 114.0.0.0","1280x1024","1280x881",NA,NA,NA,"JV Task P1",8,"Anxious",321,"In",NA,1,"FGEHDICJBKA",NA,NA,"A (JV first)",NA,NA,"SS1","SS1",19,"V","Valence","sn1sjn",1,"continue","",7570.80400004768,7563.98699999999,7570.80400004768,7570.80400004768,7563.98699999999,7570.80400004768,1,7570.80400004768,0,0,NA,"Click To Continue","Continue Button",1,"object-25","V","CFD-BM-036-003-N.jpg",NA,"SUPTM12782"
"75",1688991697750,"10/07/2023 12:21:37",1688977297750,-4,"10/07/2023 04:21:37",137495,33,"task-d9wy",NA,30592420,9082638,NA,"complete",NA,NA,"computer","Desktop or Laptop","Windows 10","Chrome 114.0.0.0","1280x1024","1280x881",NA,NA,NA,"JV Task P1",8,"Anxious",321,"In",NA,1,"FGEHDICJBKA",NA,NA,"A (JV first)",NA,NA,"SS1","SS1",19,"V","Valence","sn1sjn",1,"response","40",7014.16999999998,7563.98699999999,7575.20400014304,7014.16999999998,7563.98699999999,7575.20400014304,1,7014.16999999998,561.03400014306,0,NA,"Slider","J",3,"object-27","V","CFD-BM-036-003-N.jpg",NA,"SUPTM12782"
"76",1688991698705,"10/07/2023 12:21:38",1688977298705,-4,"10/07/2023 04:21:38",137495,33,"task-d9wy",NA,30592420,9082638,NA,"complete",NA,NA,"computer","Desktop or Laptop","Windows 10","Chrome 114.0.0.0","1280x1024","1280x881",NA,NA,NA,"JV Task P1",8,"Anxious",321,"In",NA,1,"FGEHDICJBKA",NA,NA,"A (JV first)",NA,NA,"SS1","SS1",19,"V","Fixation","aydkg3",2,"continue","",966.287000000011,966.287000000011,966.287000000011,966.287000000011,966.287000000011,966.287000000011,1,966.287000000011,0,0,NA,"Fixation Timing","Fixation",1,"object-21","V","CFD-BM-036-003-N.jpg",NA,"SUPTM12782"
"77",1688991703923,"10/07/2023 12:21:43",1688977303923,-4,"10/07/2023 04:21:43",137495,33,"task-d9wy",NA,30592420,9082638,NA,"complete",NA,NA,"computer","Desktop or Laptop","Windows 10","Chrome 114.0.0.0","1280x1024","1280x881",NA,NA,NA,"JV Task P1",8,"Anxious",321,"In",NA,1,"FGEHDICJBKA",NA,NA,"A (JV first)",NA,NA,"SS1","SS1",20,"V","Valence","sn1sjn",1,"continue","",5217.93000014304,5214.976,5217.93000014304,5217.93000014304,5214.976,5217.93000014304,1,5217.93000014304,0,0,NA,"Click To Continue","Continue Button",1,"object-25","V","CFD-BM-028-002-H.jpeg",NA,"SUPTM12782"
"78",1688991703924,"10/07/2023 12:21:43",1688977303924,-4,"10/07/2023 04:21:43",137495,33,"task-d9wy",NA,30592420,9082638,NA,"complete",NA,NA,"computer","Desktop or Laptop","Windows 10","Chrome 114.0.0.0","1280x1024","1280x881",NA,NA,NA,"JV Task P1",8,"Anxious",321,"In",NA,1,"FGEHDICJBKA",NA,NA,"A (JV first)",NA,NA,"SS1","SS1",20,"V","Valence","sn1sjn",1,"response","59",4048.69699999999,5214.976,5218.82999999999,4048.69699999999,5214.976,5218.82999999999,1,4048.69699999999,1170.133,0,NA,"Slider","J",3,"object-27","V","CFD-BM-028-002-H.jpeg",NA,"SUPTM12782"
"79",1688991704887,"10/07/2023 12:21:44",1688977304887,-4,"10/07/2023 04:21:44",137495,33,"task-d9wy",NA,30592420,9082638,NA,"complete",NA,NA,"computer","Desktop or Laptop","Windows 10","Chrome 114.0.0.0","1280x1024","1280x881",NA,NA,NA,"JV Task P1",8,"Anxious",321,"In",NA,1,"FGEHDICJBKA",NA,NA,"A (JV first)",NA,NA,"SS1","SS1",20,"V","Fixation","aydkg3",2,"continue","",966.404999999999,966.404999999999,966.404999999999,966.404999999999,966.404999999999,966.404999999999,1,966.404999999999,0,0,NA,"Fixation Timing","Fixation",1,"object-21","V","CFD-BM-028-002-H.jpeg",NA,"SUPTM12782"
"80",1688991711442,"10/07/2023 12:21:51",1688977311442,-4,"10/07/2023 04:21:51",137495,33,"task-d9wy",NA,30592420,9082638,NA,"complete",NA,NA,"computer","Desktop or Laptop","Windows 10","Chrome 114.0.0.0","1280x1024","1280x881",NA,NA,NA,"JV Task P1",8,"Anxious",321,"In",NA,1,"FGEHDICJBKA",NA,NA,"A (JV first)",NA,NA,"SS1","SS1",21,"V","Valence","sn1sjn",1,"continue","",6556.04900014304,6547.747,6556.04900014304,6556.04900014304,6547.747,6556.04900014304,1,6556.04900014304,0,0,NA,"Click To Continue","Continue Button",1,"object-25","V","CFD-WF-036-023-N.jpg",NA,"SUPTM12782"
"81",1688991711450,"10/07/2023 12:21:51",1688977311450,-4,"10/07/2023 04:21:51",137495,33,"task-d9wy",NA,30592420,9082638,NA,"complete",NA,NA,"computer","Desktop or Laptop","Windows 10","Chrome 114.0.0.0","1280x1024","1280x881",NA,NA,NA,"JV Task P1",8,"Anxious",321,"In",NA,1,"FGEHDICJBKA",NA,NA,"A (JV first)",NA,NA,"SS1","SS1",21,"V","Valence","sn1sjn",1,"response","43",5964.60199999998,6547.747,6563.34900009536,5964.60199999998,6547.747,6563.34900009536,1,5964.60199999998,598.747000095376,0,NA,"Slider","J",3,"object-27","V","CFD-WF-036-023-N.jpg",NA,"SUPTM12782"
"82",1688991712401,"10/07/2023 12:21:52",1688977312401,-4,"10/07/2023 04:21:52",137495,33,"task-d9wy",NA,30592420,9082638,NA,"complete",NA,NA,"computer","Desktop or Laptop","Windows 10","Chrome 114.0.0.0","1280x1024","1280x881",NA,NA,NA,"JV Task P1",8,"Anxious",321,"In",NA,1,"FGEHDICJBKA",NA,NA,"A (JV first)",NA,NA,"SS1","SS1",21,"V","Fixation","aydkg3",2,"continue","",966.395999999979,966.395999999979,966.395999999979,966.395999999979,966.395999999979,966.395999999979,1,966.395999999979,0,0,NA,"Fixation Timing","Fixation",1,"object-21","V","CFD-WF-036-023-N.jpg",NA,"SUPTM12782"
"83",1688991717528,"10/07/2023 12:21:57",1688977317528,-4,"10/07/2023 04:21:57",137495,33,"task-d9wy",NA,30592420,9082638,NA,"complete",NA,NA,"computer","Desktop or Laptop","Windows 10","Chrome 114.0.0.0","1280x1024","1280x881",NA,NA,NA,"JV Task P1",8,"Anxious",321,"In",NA,1,"FGEHDICJBKA",NA,NA,"A (JV first)",NA,NA,"SS1","SS1",7,"J","Judginess","w2ir4b",1,"continue","",5127.70600009538,5114.90100000001,5127.70600009538,5127.70600009538,5114.90100000001,5127.70600009538,1,5127.70600009538,0,0,NA,"Click To Continue","Continue Button",1,"object-14","J","CFD-BM-028-002-S.jpeg",NA,"SUPTM12782"
"84",1688991717528,"10/07/2023 12:21:57",1688977317528,-4,"10/07/2023 04:21:57",137495,33,"task-d9wy",NA,30592420,9082638,NA,"complete",NA,NA,"computer","Desktop or Laptop","Windows 10","Chrome 114.0.0.0","1280x1024","1280x881",NA,NA,NA,"JV Task P1",8,"Anxious",321,"In",NA,1,"FGEHDICJBKA",NA,NA,"A (JV first)",NA,NA,"SS1","SS1",7,"J","Judginess","w2ir4b",1,"response","44",4531.848,5114.90100000001,5128.20600009538,4531.848,5114.90100000001,5128.20600009538,1,4531.848,596.358000095381,0,NA,"Slider","J",3,"object-18","J","CFD-BM-028-002-S.jpeg",NA,"SUPTM12782"
"85",1688991718482,"10/07/2023 12:21:58",1688977318482,-4,"10/07/2023 04:21:58",137495,33,"task-d9wy",NA,30592420,9082638,NA,"complete",NA,NA,"computer","Desktop or Laptop","Windows 10","Chrome 114.0.0.0","1280x1024","1280x881",NA,NA,NA,"JV Task P1",8,"Anxious",321,"In",NA,1,"FGEHDICJBKA",NA,NA,"A (JV first)",NA,NA,"SS1","SS1",7,"J","Fixation","mtm832",2,"continue","",966.399999999994,966.399999999994,966.399999999994,966.399999999994,966.399999999994,966.399999999994,1,966.399999999994,0,0,NA,"Fixation Timing","Fixation",1,"object-65","J","CFD-BM-028-002-S.jpeg",NA,"SUPTM12782"
"86",1688991735139,"10/07/2023 12:22:15",1688977335139,-4,"10/07/2023 04:22:15",137495,33,"task-d9wy",NA,30592420,9082638,NA,"complete",NA,NA,"computer","Desktop or Laptop","Windows 10","Chrome 114.0.0.0","1280x1024","1280x881",NA,NA,NA,"JV Task P1",8,"Anxious",321,"In",NA,1,"FGEHDICJBKA",NA,NA,"A (JV first)",NA,NA,"SS1","SS1",22,"V","Valence","sn1sjn",1,"continue","",16656.9050000954,16644.446,16656.9050000954,16656.9050000954,16644.446,16656.9050000954,1,16656.9050000954,0,0,NA,"Click To Continue","Continue Button",1,"object-25","V","CFD-AM-225-102-H.jpeg",NA,"SUPTM12782"
"87",1688991735147,"10/07/2023 12:22:15",1688977335147,-4,"10/07/2023 04:22:15",137495,33,"task-d9wy",NA,30592420,9082638,NA,"complete",NA,NA,"computer","Desktop or Laptop","Windows 10","Chrome 114.0.0.0","1280x1024","1280x881",NA,NA,NA,"JV Task P1",8,"Anxious",321,"In",NA,1,"FGEHDICJBKA",NA,NA,"A (JV first)",NA,NA,"SS1","SS1",22,"V","Valence","sn1sjn",1,"response","62",16011.272,16644.446,16661.126,16011.272,16644.446,16661.126,1,16011.272,649.853999999992,0,NA,"Slider","J",3,"object-27","V","CFD-AM-225-102-H.jpeg",NA,"SUPTM12782"
"88",1688991736093,"10/07/2023 12:22:16",1688977336093,-4,"10/07/2023 04:22:16",137495,33,"task-d9wy",NA,30592420,9082638,NA,"complete",NA,NA,"computer","Desktop or Laptop","Windows 10","Chrome 114.0.0.0","1280x1024","1280x881",NA,NA,NA,"JV Task P1",8,"Anxious",321,"In",NA,1,"FGEHDICJBKA",NA,NA,"A (JV first)",NA,NA,"SS1","SS1",22,"V","Fixation","aydkg3",2,"continue","",966.322000000015,966.322000000015,966.322000000015,966.322000000015,966.322000000015,966.322000000015,1,966.322000000015,0,0,NA,"Fixation Timing","Fixation",1,"object-21","V","CFD-AM-225-102-H.jpeg",NA,"SUPTM12782"
"89",1688991738660,"10/07/2023 12:22:18",1688977338660,-4,"10/07/2023 04:22:18",137495,33,"task-d9wy",NA,30592420,9082638,NA,"complete",NA,NA,"computer","Desktop or Laptop","Windows 10","Chrome 114.0.0.0","1280x1024","1280x881",NA,NA,NA,"JV Task P1",8,"Anxious",321,"In",NA,1,"FGEHDICJBKA",NA,NA,"A (JV first)",NA,NA,"SS1","SS1",8,"J","Judginess","w2ir4b",1,"continue","",2565.84600000002,2549.152,2565.84600000002,2565.84600000002,2549.152,2565.84600000002,1,2565.84600000002,0,0,NA,"Click To Continue","Continue Button",1,"object-14","J","CFD-AF-250-200-H.jpeg",NA,"SUPTM12782"
"90",1688991738660,"10/07/2023 12:22:18",1688977338660,-4,"10/07/2023 04:22:18",137495,33,"task-d9wy",NA,30592420,9082638,NA,"complete",NA,NA,"computer","Desktop or Laptop","Windows 10","Chrome 114.0.0.0","1280x1024","1280x881",NA,NA,NA,"JV Task P1",8,"Anxious",321,"In",NA,1,"FGEHDICJBKA",NA,NA,"A (JV first)",NA,NA,"SS1","SS1",8,"J","Judginess","w2ir4b",1,"response","59",2032.59699999998,2549.152,2565.84600000002,2032.59699999998,2549.152,2565.84600000002,1,2032.59699999998,533.24900000004,0,NA,"Slider","J",3,"object-18","J","CFD-AF-250-200-H.jpeg",NA,"SUPTM12782"
"91",1688991739609,"10/07/2023 12:22:19",1688977339609,-4,"10/07/2023 04:22:19",137495,33,"task-d9wy",NA,30592420,9082638,NA,"complete",NA,NA,"computer","Desktop or Laptop","Windows 10","Chrome 114.0.0.0","1280x1024","1280x881",NA,NA,NA,"JV Task P1",8,"Anxious",321,"In",NA,1,"FGEHDICJBKA",NA,NA,"A (JV first)",NA,NA,"SS1","SS1",8,"J","Fixation","mtm832",2,"continue","",966.338999999978,966.338999999978,966.338999999978,966.338999999978,966.338999999978,966.338999999978,1,966.338999999978,0,0,NA,"Fixation Timing","Fixation",1,"object-65","J","CFD-AF-250-200-H.jpeg",NA,"SUPTM12782"
"92",1688991741123,"10/07/2023 12:22:21",1688977341123,-4,"10/07/2023 04:22:21",137495,33,"task-d9wy",NA,30592420,9082638,NA,"complete",NA,NA,"computer","Desktop or Laptop","Windows 10","Chrome 114.0.0.0","1280x1024","1280x881",NA,NA,NA,"JV Task P1",8,"Anxious",321,"In",NA,1,"FGEHDICJBKA",NA,NA,"A (JV first)",NA,NA,"SS1","SS1",23,"V","Valence","sn1sjn",1,"continue","",1514.74600000001,1499.50900000002,1514.74600000001,1514.74600000001,1499.50900000002,1514.74600000001,1,1514.74600000001,0,0,NA,"Click To Continue","Continue Button",1,"object-25","V","CFD-AM-220-134-S.jpeg",NA,"SUPTM12782"
"93",1688991741123,"10/07/2023 12:22:21",1688977341123,-4,"10/07/2023 04:22:21",137495,33,"task-d9wy",NA,30592420,9082638,NA,"complete",NA,NA,"computer","Desktop or Laptop","Windows 10","Chrome 114.0.0.0","1280x1024","1280x881",NA,NA,NA,"JV Task P1",8,"Anxious",321,"In",NA,1,"FGEHDICJBKA",NA,NA,"A (JV first)",NA,NA,"SS1","SS1",23,"V","Valence","sn1sjn",1,"response","41",983.00900000002,1499.50900000002,1515.54599995233,983.00900000002,1499.50900000002,1515.54599995233,1,983.00900000002,532.53699995231,0,NA,"Slider","J",3,"object-27","V","CFD-AM-220-134-S.jpeg",NA,"SUPTM12782"
"94",1688991742075,"10/07/2023 12:22:22",1688977342075,-4,"10/07/2023 04:22:22",137495,33,"task-d9wy",NA,30592420,9082638,NA,"complete",NA,NA,"computer","Desktop or Laptop","Windows 10","Chrome 114.0.0.0","1280x1024","1280x881",NA,NA,NA,"JV Task P1",8,"Anxious",321,"In",NA,1,"FGEHDICJBKA",NA,NA,"A (JV first)",NA,NA,"SS1","SS1",23,"V","Fixation","aydkg3",2,"continue","",966.323999999993,966.323999999993,966.323999999993,966.323999999993,966.323999999993,966.323999999993,1,966.323999999993,0,0,NA,"Fixation Timing","Fixation",1,"object-21","V","CFD-AM-220-134-S.jpeg",NA,"SUPTM12782"
"95",1688991744493,"10/07/2023 12:22:24",1688977344493,-4,"10/07/2023 04:22:24",137495,33,"task-d9wy",NA,30592420,9082638,NA,"complete",NA,NA,"computer","Desktop or Laptop","Windows 10","Chrome 114.0.0.0","1280x1024","1280x881",NA,NA,NA,"JV Task P1",8,"Anxious",321,"In",NA,1,"FGEHDICJBKA",NA,NA,"A (JV first)",NA,NA,"SS1","SS1",24,"V","Valence","sn1sjn",1,"continue","",2418.21299995232,2415.853,2418.21299995232,2418.21299995232,2415.853,2418.21299995232,1,2418.21299995232,0,0,NA,"Click To Continue","Continue Button",1,"object-25","V","CFD-WF-009-001-H.jpeg",NA,"SUPTM12782"
"96",1688991744494,"10/07/2023 12:22:24",1688977344494,-4,"10/07/2023 04:22:24",137495,33,"task-d9wy",NA,30592420,9082638,NA,"complete",NA,NA,"computer","Desktop or Laptop","Windows 10","Chrome 114.0.0.0","1280x1024","1280x881",NA,NA,NA,"JV Task P1",8,"Anxious",321,"In",NA,1,"FGEHDICJBKA",NA,NA,"A (JV first)",NA,NA,"SS1","SS1",24,"V","Valence","sn1sjn",1,"response","59",1766.05900000001,2415.853,2419.71299995232,1766.05900000001,2415.853,2419.71299995232,1,1766.05900000001,653.653999952308,0,NA,"Slider","J",3,"object-27","V","CFD-WF-009-001-H.jpeg",NA,"SUPTM12782"
"97",1688991750290,"10/07/2023 12:22:30",1688977350290,-4,"10/07/2023 04:22:30",137495,33,"task-d9wy",NA,30592420,9082638,NA,"complete",NA,NA,"computer","Desktop or Laptop","Windows 10","Chrome 114.0.0.0","1280x1024","1280x881",NA,NA,NA,"JV Task P1",8,"Anxious",321,"In",NA,1,"FGEHDICJBKA",NA,NA,"A (JV first)",NA,NA,"SS1","SS1",24,"V","Fixation","aydkg3",2,"continue","",5798.00200000001,5798.00200000001,5798.00200000001,5798.00200000001,5798.00200000001,5798.00200000001,1,5798.00200000001,0,0,NA,"Fixation Timing","Fixation",1,"object-21","V","CFD-WF-009-001-H.jpeg",NA,"SUPTM12782"
"98",1688991752004,"10/07/2023 12:22:32",1688977352004,-4,"10/07/2023 04:22:32",137495,33,"task-d9wy",NA,30592420,9082638,NA,"complete",NA,NA,"computer","Desktop or Laptop","Windows 10","Chrome 114.0.0.0","1280x1024","1280x881",NA,NA,NA,"JV Task P1",8,"Anxious",321,"In",NA,1,"FGEHDICJBKA",NA,NA,"A (JV first)",NA,NA,"SS1","SS1",9,"J","Judginess","w2ir4b",1,"continue","",1715.65800014304,1699.511,1715.65800014304,1715.65800014304,1699.511,1715.65800014304,1,1715.65800014304,0,0,NA,"Click To Continue","Continue Button",1,"object-14","J","CFD-MF-315-002-H.jpeg",NA,"SUPTM12782"
"99",1688991752005,"10/07/2023 12:22:32",1688977352005,-4,"10/07/2023 04:22:32",137495,33,"task-d9wy",NA,30592420,9082638,NA,"complete",NA,NA,"computer","Desktop or Laptop","Windows 10","Chrome 114.0.0.0","1280x1024","1280x881",NA,NA,NA,"JV Task P1",8,"Anxious",321,"In",NA,1,"FGEHDICJBKA",NA,NA,"A (JV first)",NA,NA,"SS1","SS1",9,"J","Judginess","w2ir4b",1,"response","60",999.801999999996,1699.511,1716.14500000002,999.801999999996,1699.511,1716.14500000002,1,999.801999999996,716.343000000023,0,NA,"Slider","J",3,"object-18","J","CFD-MF-315-002-H.jpeg",NA,"SUPTM12782"
"100",1688991752954,"10/07/2023 12:22:32",1688977352954,-4,"10/07/2023 04:22:32",137495,33,"task-d9wy",NA,30592420,9082638,NA,"complete",NA,NA,"computer","Desktop or Laptop","Windows 10","Chrome 114.0.0.0","1280x1024","1280x881",NA,NA,NA,"JV Task P1",8,"Anxious",321,"In",NA,1,"FGEHDICJBKA",NA,NA,"A (JV first)",NA,NA,"SS1","SS1",9,"J","Fixation","mtm832",2,"continue","",966.272999999986,966.272999999986,966.272999999986,966.272999999986,966.272999999986,966.272999999986,1,966.272999999986,0,0,NA,"Fixation Timing","Fixation",1,"object-65","J","CFD-MF-315-002-H.jpeg",NA,"SUPTM12782"
"101",1688991755843,"10/07/2023 12:22:35",1688977355843,-4,"10/07/2023 04:22:35",137495,33,"task-d9wy",NA,30592420,9082638,NA,"complete",NA,NA,"computer","Desktop or Laptop","Windows 10","Chrome 114.0.0.0","1280x1024","1280x881",NA,NA,NA,"JV Task P1",8,"Anxious",321,"In",NA,1,"FGEHDICJBKA",NA,NA,"A (JV first)",NA,NA,"SS1","SS1",25,"V","Valence","sn1sjn",1,"continue","",2888.57399995232,2882.45800000001,2888.57399995232,2888.57399995232,2882.45800000001,2888.57399995232,1,2888.57399995232,0,0,NA,"Click To Continue","Continue Button",1,"object-25","V","CFD-AM-225-102-H.jpeg",NA,"SUPTM12782"
"102",1688991755844,"10/07/2023 12:22:35",1688977355844,-4,"10/07/2023 04:22:35",137495,33,"task-d9wy",NA,30592420,9082638,NA,"complete",NA,NA,"computer","Desktop or Laptop","Windows 10","Chrome 114.0.0.0","1280x1024","1280x881",NA,NA,NA,"JV Task P1",8,"Anxious",321,"In",NA,1,"FGEHDICJBKA",NA,NA,"A (JV first)",NA,NA,"SS1","SS1",25,"V","Valence","sn1sjn",1,"response","61",2249.37900000002,2882.45800000001,2889.67400009537,2249.37900000002,2882.45800000001,2889.67400009537,1,2249.37900000002,640.295000095357,0,NA,"Slider","J",3,"object-27","V","CFD-AM-225-102-H.jpeg",NA,"SUPTM12782"
"103",1688991756803,"10/07/2023 12:22:36",1688977356803,-4,"10/07/2023 04:22:36",137495,33,"task-d9wy",NA,30592420,9082638,NA,"complete",NA,NA,"computer","Desktop or Laptop","Windows 10","Chrome 114.0.0.0","1280x1024","1280x881",NA,NA,NA,"JV Task P1",8,"Anxious",321,"In",NA,1,"FGEHDICJBKA",NA,NA,"A (JV first)",NA,NA,"SS1","SS1",25,"V","Fixation","aydkg3",2,"continue","",966.270999999979,966.270999999979,966.270999999979,966.270999999979,966.270999999979,966.270999999979,1,966.270999999979,0,0,NA,"Fixation Timing","Fixation",1,"object-21","V","CFD-AM-225-102-H.jpeg",NA,"SUPTM12782"
"104",1688991758537,"10/07/2023 12:22:38",1688977358537,-4,"10/07/2023 04:22:38",137495,33,"task-d9wy",NA,30592420,9082638,NA,"complete",NA,NA,"computer","Desktop or Laptop","Windows 10","Chrome 114.0.0.0","1280x1024","1280x881",NA,NA,NA,"JV Task P1",8,"Anxious",321,"In",NA,1,"FGEHDICJBKA",NA,NA,"A (JV first)",NA,NA,"SS1","SS1",26,"V","Valence","sn1sjn",1,"continue","",1732.79200000004,1716.14200000002,1732.79200000004,1732.79200000004,1716.14200000002,1732.79200000004,1,1732.79200000004,0,0,NA,"Click To Continue","Continue Button",1,"object-25","V","CFD-WF-027-003-H.jpeg",NA,"SUPTM12782"
"105",1688991758538,"10/07/2023 12:22:38",1688977358538,-4,"10/07/2023 04:22:38",137495,33,"task-d9wy",NA,30592420,9082638,NA,"complete",NA,NA,"computer","Desktop or Laptop","Windows 10","Chrome 114.0.0.0","1280x1024","1280x881",NA,NA,NA,"JV Task P1",8,"Anxious",321,"In",NA,1,"FGEHDICJBKA",NA,NA,"A (JV first)",NA,NA,"SS1","SS1",26,"V","Valence","sn1sjn",1,"response","62",1116.36800000002,1716.14200000002,1732.79200000004,1116.36800000002,1716.14200000002,1732.79200000004,1,1116.36800000002,616.424000000028,0,NA,"Slider","J",3,"object-27","V","CFD-WF-027-003-H.jpeg",NA,"SUPTM12782"
"106",1688991759486,"10/07/2023 12:22:39",1688977359486,-4,"10/07/2023 04:22:39",137495,33,"task-d9wy",NA,30592420,9082638,NA,"complete",NA,NA,"computer","Desktop or Laptop","Windows 10","Chrome 114.0.0.0","1280x1024","1280x881",NA,NA,NA,"JV Task P1",8,"Anxious",321,"In",NA,1,"FGEHDICJBKA",NA,NA,"A (JV first)",NA,NA,"SS1","SS1",26,"V","Fixation","aydkg3",2,"continue","",966.312000000005,966.312000000005,966.312000000005,966.312000000005,966.312000000005,966.312000000005,1,966.312000000005,0,0,NA,"Fixation Timing","Fixation",1,"object-21","V","CFD-WF-027-003-H.jpeg",NA,"SUPTM12782"
"107",1688991762493,"10/07/2023 12:22:42",1688977362493,-4,"10/07/2023 04:22:42",137495,33,"task-d9wy",NA,30592420,9082638,NA,"complete",NA,NA,"computer","Desktop or Laptop","Windows 10","Chrome 114.0.0.0","1280x1024","1280x881",NA,NA,NA,"JV Task P1",8,"Anxious",321,"In",NA,1,"FGEHDICJBKA",NA,NA,"A (JV first)",NA,NA,"SS1","SS1",27,"V","Valence","sn1sjn",1,"continue","",3007.19100014304,2999.03799999997,3007.19100014304,3007.19100014304,2999.03799999997,3007.19100014304,1,3007.19100014304,0,0,NA,"Click To Continue","Continue Button",1,"object-25","V","CFD-WF-006-002-H.jpeg",NA,"SUPTM12782"
"108",1688991762504,"10/07/2023 12:22:42",1688977362504,-4,"10/07/2023 04:22:42",137495,33,"task-d9wy",NA,30592420,9082638,NA,"complete",NA,NA,"computer","Desktop or Laptop","Windows 10","Chrome 114.0.0.0","1280x1024","1280x881",NA,NA,NA,"JV Task P1",8,"Anxious",321,"In",NA,1,"FGEHDICJBKA",NA,NA,"A (JV first)",NA,NA,"SS1","SS1",27,"V","Valence","sn1sjn",1,"response","59",2432.56899999999,2999.03799999997,3015.66299999997,2432.56899999999,2999.03799999997,3015.66299999997,1,2432.56899999999,583.093999999983,0,NA,"Slider","J",3,"object-27","V","CFD-WF-006-002-H.jpeg",NA,"SUPTM12782"
"109",1688991763451,"10/07/2023 12:22:43",1688977363451,-4,"10/07/2023 04:22:43",137495,33,"task-d9wy",NA,30592420,9082638,NA,"complete",NA,NA,"computer","Desktop or Laptop","Windows 10","Chrome 114.0.0.0","1280x1024","1280x881",NA,NA,NA,"JV Task P1",8,"Anxious",321,"In",NA,1,"FGEHDICJBKA",NA,NA,"A (JV first)",NA,NA,"SS1","SS1",27,"V","Fixation","aydkg3",2,"continue","",966.408000000025,966.408000000025,966.408000000025,966.408000000025,966.408000000025,966.408000000025,1,966.408000000025,0,0,NA,"Fixation Timing","Fixation",1,"object-21","V","CFD-WF-006-002-H.jpeg",NA,"SUPTM12782"
"110",1688991767252,"10/07/2023 12:22:47",1688977367252,-4,"10/07/2023 04:22:47",137495,33,"task-d9wy",NA,30592420,9082638,NA,"complete",NA,NA,"computer","Desktop or Laptop","Windows 10","Chrome 114.0.0.0","1280x1024","1280x881",NA,NA,NA,"JV Task P1",8,"Anxious",321,"In",NA,1,"FGEHDICJBKA",NA,NA,"A (JV first)",NA,NA,"SS1","SS1",28,"V","Valence","sn1sjn",1,"continue","",3801.04500009536,3798.848,3801.04500009536,3801.04500009536,3798.848,3801.04500009536,1,3801.04500009536,0,0,NA,"Click To Continue","Continue Button",1,"object-25","V","CFD-BF-030-002-N.jpg",NA,"SUPTM12782"
"111",1688991767253,"10/07/2023 12:22:47",1688977367253,-4,"10/07/2023 04:22:47",137495,33,"task-d9wy",NA,30592420,9082638,NA,"complete",NA,NA,"computer","Desktop or Laptop","Windows 10","Chrome 114.0.0.0","1280x1024","1280x881",NA,NA,NA,"JV Task P1",8,"Anxious",321,"In",NA,1,"FGEHDICJBKA",NA,NA,"A (JV first)",NA,NA,"SS1","SS1",28,"V","Valence","sn1sjn",1,"response","57",3232.158,3798.848,3802.04500009536,3232.158,3798.848,3802.04500009536,1,3232.158,569.887000095361,0,NA,"Slider","J",3,"object-27","V","CFD-BF-030-002-N.jpg",NA,"SUPTM12782"
"112",1688991768216,"10/07/2023 12:22:48",1688977368216,-4,"10/07/2023 04:22:48",137495,33,"task-d9wy",NA,30592420,9082638,NA,"complete",NA,NA,"computer","Desktop or Laptop","Windows 10","Chrome 114.0.0.0","1280x1024","1280x881",NA,NA,NA,"JV Task P1",8,"Anxious",321,"In",NA,1,"FGEHDICJBKA",NA,NA,"A (JV first)",NA,NA,"SS1","SS1",28,"V","Fixation","aydkg3",2,"continue","",966.168999999994,966.168999999994,966.168999999994,966.168999999994,966.168999999994,966.168999999994,1,966.168999999994,0,0,NA,"Fixation Timing","Fixation",1,"object-21","V","CFD-BF-030-002-N.jpg",NA,"SUPTM12782"
"113",1688991774113,"10/07/2023 12:22:54",1688977374113,-4,"10/07/2023 04:22:54",137495,33,"task-d9wy",NA,30592420,9082638,NA,"complete",NA,NA,"computer","Desktop or Laptop","Windows 10","Chrome 114.0.0.0","1280x1024","1280x881",NA,NA,NA,"JV Task P1",8,"Anxious",321,"In",NA,1,"FGEHDICJBKA",NA,NA,"A (JV first)",NA,NA,"SS1","SS1",10,"J","Judginess","w2ir4b",1,"continue","",5897.22800014305,5881.41099999999,5897.22800014305,5897.22800014305,5881.41099999999,5897.22800014305,1,5897.22800014305,0,0,NA,"Click To Continue","Continue Button",1,"object-14","J","CFD-WF-031-027-H.jpeg",NA,"SUPTM12782"
"114",1688991774117,"10/07/2023 12:22:54",1688977374117,-4,"10/07/2023 04:22:54",137495,33,"task-d9wy",NA,30592420,9082638,NA,"complete",NA,NA,"computer","Desktop or Laptop","Windows 10","Chrome 114.0.0.0","1280x1024","1280x881",NA,NA,NA,"JV Task P1",8,"Anxious",321,"In",NA,1,"FGEHDICJBKA",NA,NA,"A (JV first)",NA,NA,"SS1","SS1",10,"J","Judginess","w2ir4b",1,"response","59",5331.573,5881.41099999999,5898.13999999998,5331.573,5881.41099999999,5898.13999999998,1,5331.573,566.566999999981,0,NA,"Slider","J",3,"object-18","J","CFD-WF-031-027-H.jpeg",NA,"SUPTM12782"
"115",1688991775064,"10/07/2023 12:22:55",1688977375064,-4,"10/07/2023 04:22:55",137495,33,"task-d9wy",NA,30592420,9082638,NA,"complete",NA,NA,"computer","Desktop or Laptop","Windows 10","Chrome 114.0.0.0","1280x1024","1280x881",NA,NA,NA,"JV Task P1",8,"Anxious",321,"In",NA,1,"FGEHDICJBKA",NA,NA,"A (JV first)",NA,NA,"SS1","SS1",10,"J","Fixation","mtm832",2,"continue","",966.311000000016,966.311000000016,966.311000000016,966.311000000016,966.311000000016,966.311000000016,1,966.311000000016,0,0,NA,"Fixation Timing","Fixation",1,"object-65","J","CFD-WF-031-027-H.jpeg",NA,"SUPTM12782"
"116",1688991798338,"10/07/2023 12:23:18",1688977398338,-4,"10/07/2023 04:23:18",137495,33,"task-d9wy",NA,30592420,9082638,NA,"complete",NA,NA,"computer","Desktop or Laptop","Windows 10","Chrome 114.0.0.0","1280x1024","1280x881",NA,NA,NA,"JV Task P1",8,"Anxious",321,"In",NA,1,"FGEHDICJBKA",NA,NA,"A (JV first)",NA,NA,"SS1","SS1",29,"V","Valence","sn1sjn",1,"continue","",23274.6060000477,23258.941,23274.6060000477,23274.6060000477,23258.941,23274.6060000477,1,23274.6060000477,0,0,NA,"Click To Continue","Continue Button",1,"object-25","V","CFD-WM-015-002-H.jpeg",NA,"SUPTM12782"
"117",1688991798343,"10/07/2023 12:23:18",1688977398343,-4,"10/07/2023 04:23:18",137495,33,"task-d9wy",NA,30592420,9082638,NA,"complete",NA,NA,"computer","Desktop or Laptop","Windows 10","Chrome 114.0.0.0","1280x1024","1280x881",NA,NA,NA,"JV Task P1",8,"Anxious",321,"In",NA,1,"FGEHDICJBKA",NA,NA,"A (JV first)",NA,NA,"SS1","SS1",29,"V","Valence","sn1sjn",1,"response","60",22692.458,23258.941,23275.6559999999,22692.458,23258.941,23275.6559999999,1,22692.458,583.197999999917,0,NA,"Slider","J",3,"object-27","V","CFD-WM-015-002-H.jpeg",NA,"SUPTM12782"
"118",1688991799290,"10/07/2023 12:23:19",1688977399290,-4,"10/07/2023 04:23:19",137495,33,"task-d9wy",NA,30592420,9082638,NA,"complete",NA,NA,"computer","Desktop or Laptop","Windows 10","Chrome 114.0.0.0","1280x1024","1280x881",NA,NA,NA,"JV Task P1",8,"Anxious",321,"In",NA,1,"FGEHDICJBKA",NA,NA,"A (JV first)",NA,NA,"SS1","SS1",29,"V","Fixation","aydkg3",2,"continue","",966.362000000023,966.362000000023,966.362000000023,966.362000000023,966.362000000023,966.362000000023,1,966.362000000023,0,0,NA,"Fixation Timing","Fixation",1,"object-21","V","CFD-WM-015-002-H.jpeg",NA,"SUPTM12782"
"119",1688991807116,"10/07/2023 12:23:27",1688977407116,-4,"10/07/2023 04:23:27",137495,33,"task-d9wy",NA,30592420,9082638,NA,"complete",NA,NA,"computer","Desktop or Laptop","Windows 10","Chrome 114.0.0.0","1280x1024","1280x881",NA,NA,NA,"JV Task P1",8,"Anxious",321,"In",NA,1,"FGEHDICJBKA",NA,NA,"A (JV first)",NA,NA,"SS1","SS1",30,"V","Valence","sn1sjn",1,"continue","",7827.00300009537,7814.02600000001,7827.00300009537,7827.00300009537,7814.02600000001,7827.00300009537,1,7827.00300009537,0,0,NA,"Click To Continue","Continue Button",1,"object-25","V","CFD-WM-009-002-S.jpeg",NA,"SUPTM12782"
"120",1688991807116,"10/07/2023 12:23:27",1688977407116,-4,"10/07/2023 04:23:27",137495,33,"task-d9wy",NA,30592420,9082638,NA,"complete",NA,NA,"computer","Desktop or Laptop","Windows 10","Chrome 114.0.0.0","1280x1024","1280x881",NA,NA,NA,"JV Task P1",8,"Anxious",321,"In",NA,1,"FGEHDICJBKA",NA,NA,"A (JV first)",NA,NA,"SS1","SS1",30,"V","Valence","sn1sjn",1,"response","44",7214.17100000003,7814.02600000001,7828.103,7214.17100000003,7814.02600000001,7828.103,1,7214.17100000003,613.931999999972,0,NA,"Slider","J",3,"object-27","V","CFD-WM-009-002-S.jpeg",NA,"SUPTM12782"
"121",1688991808070,"10/07/2023 12:23:28",1688977408070,-4,"10/07/2023 04:23:28",137495,33,"task-d9wy",NA,30592420,9082638,NA,"complete",NA,NA,"computer","Desktop or Laptop","Windows 10","Chrome 114.0.0.0","1280x1024","1280x881",NA,NA,NA,"JV Task P1",8,"Anxious",321,"In",NA,1,"FGEHDICJBKA",NA,NA,"A (JV first)",NA,NA,"SS1","SS1",30,"V","Fixation","aydkg3",2,"continue","",966.372999999963,966.372999999963,966.372999999963,966.372999999963,966.372999999963,966.372999999963,1,966.372999999963,0,0,NA,"Fixation Timing","Fixation",1,"object-21","V","CFD-WM-009-002-S.jpeg",NA,"SUPTM12782"
"122",1688991810043,"10/07/2023 12:23:30",1688977410043,-4,"10/07/2023 04:23:30",137495,33,"task-d9wy",NA,30592420,9082638,NA,"complete",NA,NA,"computer","Desktop or Laptop","Windows 10","Chrome 114.0.0.0","1280x1024","1280x881",NA,NA,NA,"JV Task P1",8,"Anxious",321,"In",NA,1,"FGEHDICJBKA",NA,NA,"A (JV first)",NA,NA,"SS1","SS1",11,"J","Judginess","w2ir4b",1,"continue","",1974.50399995234,1965.99000000005,1974.50399995234,1974.50399995234,1965.99000000005,1974.50399995234,1,1974.50399995234,0,0,NA,"Click To Continue","Continue Button",1,"object-14","J","CFD-MF-315-002-N.jpg",NA,"SUPTM12782"
"123",1688991810053,"10/07/2023 12:23:30",1688977410053,-4,"10/07/2023 04:23:30",137495,33,"task-d9wy",NA,30592420,9082638,NA,"complete",NA,NA,"computer","Desktop or Laptop","Windows 10","Chrome 114.0.0.0","1280x1024","1280x881",NA,NA,NA,"JV Task P1",8,"Anxious",321,"In",NA,1,"FGEHDICJBKA",NA,NA,"A (JV first)",NA,NA,"SS1","SS1",11,"J","Judginess","w2ir4b",1,"response","41",1399.49700000003,1965.99000000005,1982.60400009539,1399.49700000003,1965.99000000005,1982.60400009539,1,1399.49700000003,583.107000095362,0,NA,"Slider","J",3,"object-18","J","CFD-MF-315-002-N.jpg",NA,"SUPTM12782"
"124",1688991811002,"10/07/2023 12:23:31",1688977411002,-4,"10/07/2023 04:23:31",137495,33,"task-d9wy",NA,30592420,9082638,NA,"complete",NA,NA,"computer","Desktop or Laptop","Windows 10","Chrome 114.0.0.0","1280x1024","1280x881",NA,NA,NA,"JV Task P1",8,"Anxious",321,"In",NA,1,"FGEHDICJBKA",NA,NA,"A (JV first)",NA,NA,"SS1","SS1",11,"J","Fixation","mtm832",2,"continue","",966.306999999972,966.306999999972,966.306999999972,966.306999999972,966.306999999972,966.306999999972,1,966.306999999972,0,0,NA,"Fixation Timing","Fixation",1,"object-65","J","CFD-MF-315-002-N.jpg",NA,"SUPTM12782"
"125",1688991813778,"10/07/2023 12:23:33",1688977413778,-4,"10/07/2023 04:23:33",137495,33,"task-d9wy",NA,30592420,9082638,NA,"complete",NA,NA,"computer","Desktop or Laptop","Windows 10","Chrome 114.0.0.0","1280x1024","1280x881",NA,NA,NA,"JV Task P1",8,"Anxious",321,"In",NA,1,"FGEHDICJBKA",NA,NA,"A (JV first)",NA,NA,"SS1","SS1",31,"V","Valence","sn1sjn",1,"continue","",2777.00700014306,2765.78600000002,2777.00700014306,2777.00700014306,2765.78600000002,2777.00700014306,1,2777.00700014306,0,0,NA,"Click To Continue","Continue Button",1,"object-25","V","CFD-WM-001-014-N.jpg",NA,"SUPTM12782"
"126",1688991813779,"10/07/2023 12:23:33",1688977413779,-4,"10/07/2023 04:23:33",137495,33,"task-d9wy",NA,30592420,9082638,NA,"complete",NA,NA,"computer","Desktop or Laptop","Windows 10","Chrome 114.0.0.0","1280x1024","1280x881",NA,NA,NA,"JV Task P1",8,"Anxious",321,"In",NA,1,"FGEHDICJBKA",NA,NA,"A (JV first)",NA,NA,"SS1","SS1",31,"V","Valence","sn1sjn",1,"response","41",2049.38,2765.78600000002,2777.80700009537,2049.38,2765.78600000002,2777.80700009537,1,2049.38,728.427000095369,0,NA,"Slider","J",3,"object-27","V","CFD-WM-001-014-N.jpg",NA,"SUPTM12782"
"127",1688991814735,"10/07/2023 12:23:34",1688977414735,-4,"10/07/2023 04:23:34",137495,33,"task-d9wy",NA,30592420,9082638,NA,"complete",NA,NA,"computer","Desktop or Laptop","Windows 10","Chrome 114.0.0.0","1280x1024","1280x881",NA,NA,NA,"JV Task P1",8,"Anxious",321,"In",NA,1,"FGEHDICJBKA",NA,NA,"A (JV first)",NA,NA,"SS1","SS1",31,"V","Fixation","aydkg3",2,"continue","",966.331999999995,966.331999999995,966.331999999995,966.331999999995,966.331999999995,966.331999999995,1,966.331999999995,0,0,NA,"Fixation Timing","Fixation",1,"object-21","V","CFD-WM-001-014-N.jpg",NA,"SUPTM12782"
"128",1688991816400,"10/07/2023 12:23:36",1688977416400,-4,"10/07/2023 04:23:36",137495,33,"task-d9wy",NA,30592420,9082638,NA,"complete",NA,NA,"computer","Desktop or Laptop","Windows 10","Chrome 114.0.0.0","1280x1024","1280x881",NA,NA,NA,"JV Task P1",8,"Anxious",321,"In",NA,1,"FGEHDICJBKA",NA,NA,"A (JV first)",NA,NA,"SS1","SS1",32,"V","Valence","sn1sjn",1,"continue","",1665.99300000002,1649.35399999999,1665.99300000002,1665.99300000002,1649.35399999999,1665.99300000002,1,1665.99300000002,0,0,NA,"Click To Continue","Continue Button",1,"object-25","V","CFD-WF-037-029-H.jpeg",NA,"SUPTM12782"
"129",1688991816400,"10/07/2023 12:23:36",1688977416400,-4,"10/07/2023 04:23:36",137495,33,"task-d9wy",NA,30592420,9082638,NA,"complete",NA,NA,"computer","Desktop or Laptop","Windows 10","Chrome 114.0.0.0","1280x1024","1280x881",NA,NA,NA,"JV Task P1",8,"Anxious",321,"In",NA,1,"FGEHDICJBKA",NA,NA,"A (JV first)",NA,NA,"SS1","SS1",32,"V","Valence","sn1sjn",1,"response","43",1066.32799999998,1649.35399999999,1665.99300000002,1066.32799999998,1649.35399999999,1665.99300000002,1,1066.32799999998,599.665000000037,0,NA,"Slider","J",3,"object-27","V","CFD-WF-037-029-H.jpeg",NA,"SUPTM12782"
"130",1688991817351,"10/07/2023 12:23:37",1688977417351,-4,"10/07/2023 04:23:37",137495,33,"task-d9wy",NA,30592420,9082638,NA,"complete",NA,NA,"computer","Desktop or Laptop","Windows 10","Chrome 114.0.0.0","1280x1024","1280x881",NA,NA,NA,"JV Task P1",8,"Anxious",321,"In",NA,1,"FGEHDICJBKA",NA,NA,"A (JV first)",NA,NA,"SS1","SS1",32,"V","Fixation","aydkg3",2,"continue","",966.40399999998,966.40399999998,966.40399999998,966.40399999998,966.40399999998,966.40399999998,1,966.40399999998,0,0,NA,"Fixation Timing","Fixation",1,"object-21","V","CFD-WF-037-029-H.jpeg",NA,"SUPTM12782"
"131",1688991820729,"10/07/2023 12:23:40",1688977420729,-4,"10/07/2023 04:23:40",137495,33,"task-d9wy",NA,30592420,9082638,NA,"complete",NA,NA,"computer","Desktop or Laptop","Windows 10","Chrome 114.0.0.0","1280x1024","1280x881",NA,NA,NA,"JV Task P1",8,"Anxious",321,"In",NA,1,"FGEHDICJBKA",NA,NA,"A (JV first)",NA,NA,"SS1","SS1",12,"J","Judginess","w2ir4b",1,"continue","",3380.43100009538,3365.52100000001,3380.43100009538,3380.43100009538,3365.52100000001,3380.43100009538,1,3380.43100009538,0,0,NA,"Click To Continue","Continue Button",1,"object-14","J","CFD-WF-039-025-N.jpg",NA,"SUPTM12782"
"132",1688991820736,"10/07/2023 12:23:40",1688977420736,-4,"10/07/2023 04:23:40",137495,33,"task-d9wy",NA,30592420,9082638,NA,"complete",NA,NA,"computer","Desktop or Laptop","Windows 10","Chrome 114.0.0.0","1280x1024","1280x881",NA,NA,NA,"JV Task P1",8,"Anxious",321,"In",NA,1,"FGEHDICJBKA",NA,NA,"A (JV first)",NA,NA,"SS1","SS1",12,"J","Judginess","w2ir4b",1,"response","38",2765.76200000005,3365.52100000001,3382.125,2765.76200000005,3365.52100000001,3382.125,1,2765.76200000005,616.362999999954,0,NA,"Slider","J",3,"object-18","J","CFD-WF-039-025-N.jpg",NA,"SUPTM12782"
"133",1688991821681,"10/07/2023 12:23:41",1688977421681,-4,"10/07/2023 04:23:41",137495,33,"task-d9wy",NA,30592420,9082638,NA,"complete",NA,NA,"computer","Desktop or Laptop","Windows 10","Chrome 114.0.0.0","1280x1024","1280x881",NA,NA,NA,"JV Task P1",8,"Anxious",321,"In",NA,1,"FGEHDICJBKA",NA,NA,"A (JV first)",NA,NA,"SS1","SS1",12,"J","Fixation","mtm832",2,"continue","",966.375,966.375,966.375,966.375,966.375,966.375,1,966.375,0,0,NA,"Fixation Timing","Fixation",1,"object-65","J","CFD-WF-039-025-N.jpg",NA,"SUPTM12782"
"134",1688991823411,"10/07/2023 12:23:43",1688977423411,-4,"10/07/2023 04:23:43",137495,33,"task-d9wy",NA,30592420,9082638,NA,"complete",NA,NA,"computer","Desktop or Laptop","Windows 10","Chrome 114.0.0.0","1280x1024","1280x881",NA,NA,NA,"JV Task P1",8,"Anxious",321,"In",NA,1,"FGEHDICJBKA",NA,NA,"A (JV first)",NA,NA,"SS1","SS1",13,"J","Judginess","w2ir4b",1,"continue","",1730.03500009538,1716.147,1730.03500009538,1730.03500009538,1716.147,1730.03500009538,1,1730.03500009538,0,0,NA,"Click To Continue","Continue Button",1,"object-14","J","CFD-WF-022-017-N.jpg",NA,"SUPTM12782"
"135",1688991823412,"10/07/2023 12:23:43",1688977423412,-4,"10/07/2023 04:23:43",137495,33,"task-d9wy",NA,30592420,9082638,NA,"complete",NA,NA,"computer","Desktop or Laptop","Windows 10","Chrome 114.0.0.0","1280x1024","1280x881",NA,NA,NA,"JV Task P1",8,"Anxious",321,"In",NA,1,"FGEHDICJBKA",NA,NA,"A (JV first)",NA,NA,"SS1","SS1",13,"J","Judginess","w2ir4b",1,"response","40",1166.31099999999,1716.147,1730.73500014306,1166.31099999999,1716.147,1730.73500014306,1,1166.31099999999,564.424000143073,0,NA,"Slider","J",3,"object-18","J","CFD-WF-022-017-N.jpg",NA,"SUPTM12782"
"136",1688991824364,"10/07/2023 12:23:44",1688977424364,-4,"10/07/2023 04:23:44",137495,33,"task-d9wy",NA,30592420,9082638,NA,"complete",NA,NA,"computer","Desktop or Laptop","Windows 10","Chrome 114.0.0.0","1280x1024","1280x881",NA,NA,NA,"JV Task P1",8,"Anxious",321,"In",NA,1,"FGEHDICJBKA",NA,NA,"A (JV first)",NA,NA,"SS1","SS1",13,"J","Fixation","mtm832",2,"continue","",966.339000000036,966.339000000036,966.339000000036,966.339000000036,966.339000000036,966.339000000036,1,966.339000000036,0,0,NA,"Fixation Timing","Fixation",1,"object-65","J","CFD-WF-022-017-N.jpg",NA,"SUPTM12782"
"137",1688991827002,"10/07/2023 12:23:47",1688977427002,-4,"10/07/2023 04:23:47",137495,33,"task-d9wy",NA,30592420,9082638,NA,"complete",NA,NA,"computer","Desktop or Laptop","Windows 10","Chrome 114.0.0.0","1280x1024","1280x881",NA,NA,NA,"JV Task P1",8,"Anxious",321,"In",NA,1,"FGEHDICJBKA",NA,NA,"A (JV first)",NA,NA,"SS1","SS1",14,"J","Judginess","w2ir4b",1,"continue","",2638.24900014303,2632.44699999999,2638.24900014303,2638.24900014303,2632.44699999999,2638.24900014303,1,2638.24900014303,0,0,NA,"Click To Continue","Continue Button",1,"object-14","J","CFD-WF-009-001-N.jpg",NA,"SUPTM12782"
"138",1688991827003,"10/07/2023 12:23:47",1688977427003,-4,"10/07/2023 04:23:47",137495,33,"task-d9wy",NA,30592420,9082638,NA,"complete",NA,NA,"computer","Desktop or Laptop","Windows 10","Chrome 114.0.0.0","1280x1024","1280x881",NA,NA,NA,"JV Task P1",8,"Anxious",321,"In",NA,1,"FGEHDICJBKA",NA,NA,"A (JV first)",NA,NA,"SS1","SS1",14,"J","Judginess","w2ir4b",1,"response","35",2082.64399999997,2632.44699999999,2639.14899999998,2082.64399999997,2632.44699999999,2639.14899999998,1,2082.64399999997,556.505000000005,0,NA,"Slider","J",3,"object-18","J","CFD-WF-009-001-N.jpg",NA,"SUPTM12782"
"139",1688991827964,"10/07/2023 12:23:47",1688977427964,-4,"10/07/2023 04:23:47",137495,33,"task-d9wy",NA,30592420,9082638,NA,"complete",NA,NA,"computer","Desktop or Laptop","Windows 10","Chrome 114.0.0.0","1280x1024","1280x881",NA,NA,NA,"JV Task P1",8,"Anxious",321,"In",NA,1,"FGEHDICJBKA",NA,NA,"A (JV first)",NA,NA,"SS1","SS1",14,"J","Fixation","mtm832",2,"continue","",966.310999999987,966.310999999987,966.310999999987,966.310999999987,966.310999999987,966.310999999987,1,966.310999999987,0,0,NA,"Fixation Timing","Fixation",1,"object-65","J","CFD-WF-009-001-N.jpg",NA,"SUPTM12782"
"140",1688991829618,"10/07/2023 12:23:49",1688977429618,-4,"10/07/2023 04:23:49",137495,33,"task-d9wy",NA,30592420,9082638,NA,"complete",NA,NA,"computer","Desktop or Laptop","Windows 10","Chrome 114.0.0.0","1280x1024","1280x881",NA,NA,NA,"JV Task P1",8,"Anxious",321,"In",NA,1,"FGEHDICJBKA",NA,NA,"A (JV first)",NA,NA,"SS1","SS1",33,"V","Valence","sn1sjn",1,"continue","",1655.99100014305,1649.46299999999,1655.99100014305,1655.99100014305,1649.46299999999,1655.99100014305,1,1655.99100014305,0,0,NA,"Click To Continue","Continue Button",1,"object-25","V","CFD-WM-026-001-S.jpeg",NA,"SUPTM12782"
"141",1688991829619,"10/07/2023 12:23:49",1688977429619,-4,"10/07/2023 04:23:49",137495,33,"task-d9wy",NA,30592420,9082638,NA,"complete",NA,NA,"computer","Desktop or Laptop","Windows 10","Chrome 114.0.0.0","1280x1024","1280x881",NA,NA,NA,"JV Task P1",8,"Anxious",321,"In",NA,1,"FGEHDICJBKA",NA,NA,"A (JV first)",NA,NA,"SS1","SS1",33,"V","Valence","sn1sjn",1,"response","25",983.050999999978,1649.46299999999,1657.29100009537,983.050999999978,1649.46299999999,1657.29100009537,1,983.050999999978,674.240000095393,0,NA,"Slider","J",3,"object-27","V","CFD-WM-026-001-S.jpeg",NA,"SUPTM12782"
"142",1688991830579,"10/07/2023 12:23:50",1688977430579,-4,"10/07/2023 04:23:50",137495,33,"task-d9wy",NA,30592420,9082638,NA,"complete",NA,NA,"computer","Desktop or Laptop","Windows 10","Chrome 114.0.0.0","1280x1024","1280x881",NA,NA,NA,"JV Task P1",8,"Anxious",321,"In",NA,1,"FGEHDICJBKA",NA,NA,"A (JV first)",NA,NA,"SS1","SS1",33,"V","Fixation","aydkg3",2,"continue","",966.475000000035,966.475000000035,966.475000000035,966.475000000035,966.475000000035,966.475000000035,1,966.475000000035,0,0,NA,"Fixation Timing","Fixation",1,"object-21","V","CFD-WM-026-001-S.jpeg",NA,"SUPTM12782"
"143",1688991832303,"10/07/2023 12:23:52",1688977432303,-4,"10/07/2023 04:23:52",137495,33,"task-d9wy",NA,30592420,9082638,NA,"complete",NA,NA,"computer","Desktop or Laptop","Windows 10","Chrome 114.0.0.0","1280x1024","1280x881",NA,NA,NA,"JV Task P1",8,"Anxious",321,"In",NA,1,"FGEHDICJBKA",NA,NA,"A (JV first)",NA,NA,"SS1","SS1",34,"V","Valence","sn1sjn",1,"continue","",1725.35300009535,1715.967,1725.35300009535,1725.35300009535,1715.967,1725.35300009535,1,1725.35300009535,0,0,NA,"Click To Continue","Continue Button",1,"object-25","V","CFD-IF-693-172-N.jpg",NA,"SUPTM12782"
"144",1688991832307,"10/07/2023 12:23:52",1688977432307,-4,"10/07/2023 04:23:52",137495,33,"task-d9wy",NA,30592420,9082638,NA,"complete",NA,NA,"computer","Desktop or Laptop","Windows 10","Chrome 114.0.0.0","1280x1024","1280x881",NA,NA,NA,"JV Task P1",8,"Anxious",321,"In",NA,1,"FGEHDICJBKA",NA,NA,"A (JV first)",NA,NA,"SS1","SS1",34,"V","Valence","sn1sjn",1,"response","45",1166.09899999999,1715.967,1729.45299999998,1166.09899999999,1715.967,1729.45299999998,1,1166.09899999999,563.353999999992,0,NA,"Slider","J",3,"object-27","V","CFD-IF-693-172-N.jpg",NA,"SUPTM12782"
"145",1688991833261,"10/07/2023 12:23:53",1688977433261,-4,"10/07/2023 04:23:53",137495,33,"task-d9wy",NA,30592420,9082638,NA,"complete",NA,NA,"computer","Desktop or Laptop","Windows 10","Chrome 114.0.0.0","1280x1024","1280x881",NA,NA,NA,"JV Task P1",8,"Anxious",321,"In",NA,1,"FGEHDICJBKA",NA,NA,"A (JV first)",NA,NA,"SS1","SS1",34,"V","Fixation","aydkg3",2,"continue","",966.337999999989,966.337999999989,966.337999999989,966.337999999989,966.337999999989,966.337999999989,1,966.337999999989,0,0,NA,"Fixation Timing","Fixation",1,"object-21","V","CFD-IF-693-172-N.jpg",NA,"SUPTM12782"
"146",1688991834833,"10/07/2023 12:23:54",1688977434833,-4,"10/07/2023 04:23:54",137495,33,"task-d9wy",NA,30592420,9082638,NA,"complete",NA,NA,"computer","Desktop or Laptop","Windows 10","Chrome 114.0.0.0","1280x1024","1280x881",NA,NA,NA,"JV Task P1",8,"Anxious",321,"In",NA,1,"FGEHDICJBKA",NA,NA,"A (JV first)",NA,NA,"SS1","SS1",35,"V","Valence","sn1sjn",1,"continue","",1572.9479999523,1566.17599999998,1572.9479999523,1572.9479999523,1566.17599999998,1572.9479999523,1,1572.9479999523,0,0,NA,"Click To Continue","Continue Button",1,"object-25","V","CFD-WM-036-031-N.jpg",NA,"SUPTM12782"
"147",1688991834834,"10/07/2023 12:23:54",1688977434834,-4,"10/07/2023 04:23:54",137495,33,"task-d9wy",NA,30592420,9082638,NA,"complete",NA,NA,"computer","Desktop or Laptop","Windows 10","Chrome 114.0.0.0","1280x1024","1280x881",NA,NA,NA,"JV Task P1",8,"Anxious",321,"In",NA,1,"FGEHDICJBKA",NA,NA,"A (JV first)",NA,NA,"SS1","SS1",35,"V","Valence","sn1sjn",1,"response","44",949.74099999998,1566.17599999998,1573.64799999999,949.74099999998,1566.17599999998,1573.64799999999,1,949.74099999998,623.907000000007,0,NA,"Slider","J",3,"object-27","V","CFD-WM-036-031-N.jpg",NA,"SUPTM12782"
"148",1688991835794,"10/07/2023 12:23:55",1688977435794,-4,"10/07/2023 04:23:55",137495,33,"task-d9wy",NA,30592420,9082638,NA,"complete",NA,NA,"computer","Desktop or Laptop","Windows 10","Chrome 114.0.0.0","1280x1024","1280x881",NA,NA,NA,"JV Task P1",8,"Anxious",321,"In",NA,1,"FGEHDICJBKA",NA,NA,"A (JV first)",NA,NA,"SS1","SS1",35,"V","Fixation","aydkg3",2,"continue","",966.305999999982,966.305999999982,966.305999999982,966.305999999982,966.305999999982,966.305999999982,1,966.305999999982,0,0,NA,"Fixation Timing","Fixation",1,"object-21","V","CFD-WM-036-031-N.jpg",NA,"SUPTM12782"
"149",1688991837528,"10/07/2023 12:23:57",1688977437528,-4,"10/07/2023 04:23:57",137495,33,"task-d9wy",NA,30592420,9082638,NA,"complete",NA,NA,"computer","Desktop or Laptop","Windows 10","Chrome 114.0.0.0","1280x1024","1280x881",NA,NA,NA,"JV Task P1",8,"Anxious",321,"In",NA,1,"FGEHDICJBKA",NA,NA,"A (JV first)",NA,NA,"SS1","SS1",15,"J","Judginess","w2ir4b",1,"continue","",1735.46599995234,1732.73500000004,1735.46599995234,1735.46599995234,1732.73500000004,1735.46599995234,1,1735.46599995234,0,0,NA,"Click To Continue","Continue Button",1,"object-14","J","CFD-WM-028-003-S.jpeg",NA,"SUPTM12782"
"150",1688991837529,"10/07/2023 12:23:57",1688977437529,-4,"10/07/2023 04:23:57",137495,33,"task-d9wy",NA,30592420,9082638,NA,"complete",NA,NA,"computer","Desktop or Laptop","Windows 10","Chrome 114.0.0.0","1280x1024","1280x881",NA,NA,NA,"JV Task P1",8,"Anxious",321,"In",NA,1,"FGEHDICJBKA",NA,NA,"A (JV first)",NA,NA,"SS1","SS1",15,"J","Judginess","w2ir4b",1,"response","43",1132.93300000002,1732.73500000004,1736.06600009539,1132.93300000002,1732.73500000004,1736.06600009539,1,1132.93300000002,603.133000095375,0,NA,"Slider","J",3,"object-18","J","CFD-WM-028-003-S.jpeg",NA,"SUPTM12782"
"151",1688991838492,"10/07/2023 12:23:58",1688977438492,-4,"10/07/2023 04:23:58",137495,33,"task-d9wy",NA,30592420,9082638,NA,"complete",NA,NA,"computer","Desktop or Laptop","Windows 10","Chrome 114.0.0.0","1280x1024","1280x881",NA,NA,NA,"JV Task P1",8,"Anxious",321,"In",NA,1,"FGEHDICJBKA",NA,NA,"A (JV first)",NA,NA,"SS1","SS1",15,"J","Fixation","mtm832",2,"continue","",966.304999999993,966.304999999993,966.304999999993,966.304999999993,966.304999999993,966.304999999993,1,966.304999999993,0,0,NA,"Fixation Timing","Fixation",1,"object-65","J","CFD-WM-028-003-S.jpeg",NA,"SUPTM12782"
"152",1688991840690,"10/07/2023 12:24:00",1688977440690,-4,"10/07/2023 04:24:00",137495,33,"task-d9wy",NA,30592420,9082638,NA,"complete",NA,NA,"computer","Desktop or Laptop","Windows 10","Chrome 114.0.0.0","1280x1024","1280x881",NA,NA,NA,"JV Task P1",8,"Anxious",321,"In",NA,1,"FGEHDICJBKA",NA,NA,"A (JV first)",NA,NA,"SS1","SS1",16,"J","Judginess","w2ir4b",1,"continue","",2197.62599999999,2182.70000000001,2197.62599999999,2197.62599999999,2182.70000000001,2197.62599999999,1,2197.62599999999,0,0,NA,"Click To Continue","Continue Button",1,"object-14","J","CFD-WM-037-025-H.jpeg",NA,"SUPTM12782"
"153",1688991840693,"10/07/2023 12:24:00",1688977440693,-4,"10/07/2023 04:24:00",137495,33,"task-d9wy",NA,30592420,9082638,NA,"complete",NA,NA,"computer","Desktop or Laptop","Windows 10","Chrome 114.0.0.0","1280x1024","1280x881",NA,NA,NA,"JV Task P1",8,"Anxious",321,"In",NA,1,"FGEHDICJBKA",NA,NA,"A (JV first)",NA,NA,"SS1","SS1",16,"J","Judginess","w2ir4b",1,"response","61",1549.51999999996,2182.70000000001,2199.35700000002,1549.51999999996,2182.70000000001,2199.35700000002,1,1549.51999999996,649.837000000058,0,NA,"Slider","J",3,"object-18","J","CFD-WM-037-025-H.jpeg",NA,"SUPTM12782"
"154",1688991841641,"10/07/2023 12:24:01",1688977441641,-4,"10/07/2023 04:24:01",137495,33,"task-d9wy",NA,30592420,9082638,NA,"complete",NA,NA,"computer","Desktop or Laptop","Windows 10","Chrome 114.0.0.0","1280x1024","1280x881",NA,NA,NA,"JV Task P1",8,"Anxious",321,"In",NA,1,"FGEHDICJBKA",NA,NA,"A (JV first)",NA,NA,"SS1","SS1",16,"J","Fixation","mtm832",2,"continue","",966.321999999986,966.321999999986,966.321999999986,966.321999999986,966.321999999986,966.321999999986,1,966.321999999986,0,0,NA,"Fixation Timing","Fixation",1,"object-65","J","CFD-WM-037-025-H.jpeg",NA,"SUPTM12782"
"155",1688991843465,"10/07/2023 12:24:03",1688977443465,-4,"10/07/2023 04:24:03",137495,33,"task-d9wy",NA,30592420,9082638,NA,"complete",NA,NA,"computer","Desktop or Laptop","Windows 10","Chrome 114.0.0.0","1280x1024","1280x881",NA,NA,NA,"JV Task P1",8,"Anxious",321,"In",NA,1,"FGEHDICJBKA",NA,NA,"A (JV first)",NA,NA,"SS1","SS1",17,"J","Judginess","w2ir4b",1,"continue","",1824.40399995231,1816.071,1824.40399995231,1824.40399995231,1816.071,1824.40399995231,1,1824.40399995231,0,0,NA,"Click To Continue","Continue Button",1,"object-14","J","CFD-AF-233-190-S.jpeg",NA,"SUPTM12782"
"156",1688991843476,"10/07/2023 12:24:03",1688977443476,-4,"10/07/2023 04:24:03",137495,33,"task-d9wy",NA,30592420,9082638,NA,"complete",NA,NA,"computer","Desktop or Laptop","Windows 10","Chrome 114.0.0.0","1280x1024","1280x881",NA,NA,NA,"JV Task P1",8,"Anxious",321,"In",NA,1,"FGEHDICJBKA",NA,NA,"A (JV first)",NA,NA,"SS1","SS1",17,"J","Judginess","w2ir4b",1,"response","42",1299.54200000002,1816.071,1832.685,1299.54200000002,1816.071,1832.685,1,1299.54200000002,533.142999999982,0,NA,"Slider","J",3,"object-18","J","CFD-AF-233-190-S.jpeg",NA,"SUPTM12782"
"157",1688991844424,"10/07/2023 12:24:04",1688977444424,-4,"10/07/2023 04:24:04",137495,33,"task-d9wy",NA,30592420,9082638,NA,"complete",NA,NA,"computer","Desktop or Laptop","Windows 10","Chrome 114.0.0.0","1280x1024","1280x881",NA,NA,NA,"JV Task P1",8,"Anxious",321,"In",NA,1,"FGEHDICJBKA",NA,NA,"A (JV first)",NA,NA,"SS1","SS1",17,"J","Fixation","mtm832",2,"continue","",966.348999999987,966.348999999987,966.348999999987,966.348999999987,966.348999999987,966.348999999987,1,966.348999999987,0,0,NA,"Fixation Timing","Fixation",1,"object-65","J","CFD-AF-233-190-S.jpeg",NA,"SUPTM12782"
"158",1688991847347,"10/07/2023 12:24:07",1688977447347,-4,"10/07/2023 04:24:07",137495,33,"task-d9wy",NA,30592420,9082638,NA,"complete",NA,NA,"computer","Desktop or Laptop","Windows 10","Chrome 114.0.0.0","1280x1024","1280x881",NA,NA,NA,"JV Task P1",8,"Anxious",321,"In",NA,1,"FGEHDICJBKA",NA,NA,"A (JV first)",NA,NA,"SS1","SS1",36,"V","Valence","sn1sjn",1,"continue","",2923.08400009538,2915.70900000003,2923.08400009538,2923.08400009538,2915.70900000003,2923.08400009538,1,2923.08400009538,0,0,NA,"Click To Continue","Continue Button",1,"object-25","V","CFD-BF-030-002-H.jpeg",NA,"SUPTM12782"
"159",1688991847347,"10/07/2023 12:24:07",1688977447347,-4,"10/07/2023 04:24:07",137495,33,"task-d9wy",NA,30592420,9082638,NA,"complete",NA,NA,"computer","Desktop or Laptop","Windows 10","Chrome 114.0.0.0","1280x1024","1280x881",NA,NA,NA,"JV Task P1",8,"Anxious",321,"In",NA,1,"FGEHDICJBKA",NA,NA,"A (JV first)",NA,NA,"SS1","SS1",36,"V","Valence","sn1sjn",1,"response","59",849.65399999998,2915.70900000003,2923.98399995232,849.65399999998,2915.70900000003,2923.98399995232,1,849.65399999998,2074.32999995234,0,NA,"Slider","J",3,"object-27","V","CFD-BF-030-002-H.jpeg",NA,"SUPTM12782"
"160",1688991848305,"10/07/2023 12:24:08",1688977448305,-4,"10/07/2023 04:24:08",137495,33,"task-d9wy",NA,30592420,9082638,NA,"complete",NA,NA,"computer","Desktop or Laptop","Windows 10","Chrome 114.0.0.0","1280x1024","1280x881",NA,NA,NA,"JV Task P1",8,"Anxious",321,"In",NA,1,"FGEHDICJBKA",NA,NA,"A (JV first)",NA,NA,"SS1","SS1",36,"V","Fixation","aydkg3",2,"continue","",966.26999999996,966.26999999996,966.26999999996,966.26999999996,966.26999999996,966.26999999996,1,966.26999999996,0,0,NA,"Fixation Timing","Fixation",1,"object-21","V","CFD-BF-030-002-H.jpeg",NA,"SUPTM12782"
"161",1688991851800,"10/07/2023 12:24:11",1688977451800,-4,"10/07/2023 04:24:11",137495,33,"task-d9wy",NA,30592420,9082638,NA,"complete",NA,NA,"computer","Desktop or Laptop","Windows 10","Chrome 114.0.0.0","1280x1024","1280x881",NA,NA,NA,"JV Task P1",8,"Anxious",321,"In",NA,1,"FGEHDICJBKA",NA,NA,"A (JV first)",NA,NA,"SS1","SS1",37,"V","Valence","sn1sjn",1,"continue","",3494.4050000477,3482.20800000004,3494.4050000477,3494.4050000477,3482.20800000004,3494.4050000477,1,3494.4050000477,0,0,NA,"Click To Continue","Continue Button",1,"object-25","V","CFD-WM-035-032-N.jpg",NA,"SUPTM12782"
"162",1688991851800,"10/07/2023 12:24:11",1688977451800,-4,"10/07/2023 04:24:11",137495,33,"task-d9wy",NA,30592420,9082638,NA,"complete",NA,NA,"computer","Desktop or Laptop","Windows 10","Chrome 114.0.0.0","1280x1024","1280x881",NA,NA,NA,"JV Task P1",8,"Anxious",321,"In",NA,1,"FGEHDICJBKA",NA,NA,"A (JV first)",NA,NA,"SS1","SS1",37,"V","Valence","sn1sjn",1,"response","40",2965.73100000003,3482.20800000004,3494.70500000002,2965.73100000003,3482.20800000004,3494.70500000002,1,2965.73100000003,528.973999999987,0,NA,"Slider","J",3,"object-27","V","CFD-WM-035-032-N.jpg",NA,"SUPTM12782"
"163",1688991852755,"10/07/2023 12:24:12",1688977452755,-4,"10/07/2023 04:24:12",137495,33,"task-d9wy",NA,30592420,9082638,NA,"complete",NA,NA,"computer","Desktop or Laptop","Windows 10","Chrome 114.0.0.0","1280x1024","1280x881",NA,NA,NA,"JV Task P1",8,"Anxious",321,"In",NA,1,"FGEHDICJBKA",NA,NA,"A (JV first)",NA,NA,"SS1","SS1",37,"V","Fixation","aydkg3",2,"continue","",966.392999999982,966.392999999982,966.392999999982,966.392999999982,966.392999999982,966.392999999982,1,966.392999999982,0,0,NA,"Fixation Timing","Fixation",1,"object-21","V","CFD-WM-035-032-N.jpg",NA,"SUPTM12782"
"164",1688991859642,"10/07/2023 12:24:19",1688977459642,-4,"10/07/2023 04:24:19",137495,33,"task-d9wy",NA,30592420,9082638,NA,"complete",NA,NA,"computer","Desktop or Laptop","Windows 10","Chrome 114.0.0.0","1280x1024","1280x881",NA,NA,NA,"JV Task P1",8,"Anxious",321,"In",NA,1,"FGEHDICJBKA",NA,NA,"A (JV first)",NA,NA,"SS1","SS1",38,"V","Valence","sn1sjn",1,"continue","",6888.20400014304,6881.02100000001,6888.20400014304,6888.20400014304,6881.02100000001,6888.20400014304,1,6888.20400014304,0,0,NA,"Click To Continue","Continue Button",1,"object-25","V","CFD-WF-009-001-S.jpeg",NA,"SUPTM12782"
"165",1688991859651,"10/07/2023 12:24:19",1688977459651,-4,"10/07/2023 04:24:19",137495,33,"task-d9wy",NA,30592420,9082638,NA,"complete",NA,NA,"computer","Desktop or Laptop","Windows 10","Chrome 114.0.0.0","1280x1024","1280x881",NA,NA,NA,"JV Task P1",8,"Anxious",321,"In",NA,1,"FGEHDICJBKA",NA,NA,"A (JV first)",NA,NA,"SS1","SS1",38,"V","Valence","sn1sjn",1,"response","42",6131.43799999997,6881.02100000001,6896.60399999999,6131.43799999997,6881.02100000001,6896.60399999999,1,6131.43799999997,765.166000000027,0,NA,"Slider","J",3,"object-27","V","CFD-WF-009-001-S.jpeg",NA,"SUPTM12782"
"166",1688991860602,"10/07/2023 12:24:20",1688977460602,-4,"10/07/2023 04:24:20",137495,33,"task-d9wy",NA,30592420,9082638,NA,"complete",NA,NA,"computer","Desktop or Laptop","Windows 10","Chrome 114.0.0.0","1280x1024","1280x881",NA,NA,NA,"JV Task P1",8,"Anxious",321,"In",NA,1,"FGEHDICJBKA",NA,NA,"A (JV first)",NA,NA,"SS1","SS1",38,"V","Fixation","aydkg3",2,"continue","",966.425999999978,966.425999999978,966.425999999978,966.425999999978,966.425999999978,966.425999999978,1,966.425999999978,0,0,NA,"Fixation Timing","Fixation",1,"object-21","V","CFD-WF-009-001-S.jpeg",NA,"SUPTM12782"
"167",1688991863553,"10/07/2023 12:24:23",1688977463553,-4,"10/07/2023 04:24:23",137495,33,"task-d9wy",NA,30592420,9082638,NA,"complete",NA,NA,"computer","Desktop or Laptop","Windows 10","Chrome 114.0.0.0","1280x1024","1280x881",NA,NA,NA,"JV Task P1",8,"Anxious",321,"In",NA,1,"FGEHDICJBKA",NA,NA,"A (JV first)",NA,NA,"SS1","SS1",39,"V","Valence","sn1sjn",1,"continue","",2952.05700009537,2948.93900000001,2952.05700009537,2952.05700009537,2948.93900000001,2952.05700009537,1,2952.05700009537,0,0,NA,"Click To Continue","Continue Button",1,"object-25","V","CFD-WM-036-031-H.jpeg",NA,"SUPTM12782"
"168",1688991863554,"10/07/2023 12:24:23",1688977463554,-4,"10/07/2023 04:24:23",137495,33,"task-d9wy",NA,30592420,9082638,NA,"complete",NA,NA,"computer","Desktop or Laptop","Windows 10","Chrome 114.0.0.0","1280x1024","1280x881",NA,NA,NA,"JV Task P1",8,"Anxious",321,"In",NA,1,"FGEHDICJBKA",NA,NA,"A (JV first)",NA,NA,"SS1","SS1",39,"V","Valence","sn1sjn",1,"response","58",2382.45000000001,2948.93900000001,2952.95699995232,2382.45000000001,2948.93900000001,2952.95699995232,1,2382.45000000001,570.506999952311,0,NA,"Slider","J",3,"object-27","V","CFD-WM-036-031-H.jpeg",NA,"SUPTM12782"
"169",1688991864518,"10/07/2023 12:24:24",1688977464518,-4,"10/07/2023 04:24:24",137495,33,"task-d9wy",NA,30592420,9082638,NA,"complete",NA,NA,"computer","Desktop or Laptop","Windows 10","Chrome 114.0.0.0","1280x1024","1280x881",NA,NA,NA,"JV Task P1",8,"Anxious",321,"In",NA,1,"FGEHDICJBKA",NA,NA,"A (JV first)",NA,NA,"SS1","SS1",39,"V","Fixation","aydkg3",2,"continue","",966.335000000021,966.335000000021,966.335000000021,966.335000000021,966.335000000021,966.335000000021,1,966.335000000021,0,0,NA,"Fixation Timing","Fixation",1,"object-21","V","CFD-WM-036-031-H.jpeg",NA,"SUPTM12782"
"170",1688991866688,"10/07/2023 12:24:26",1688977466688,-4,"10/07/2023 04:24:26",137495,33,"task-d9wy",NA,30592420,9082638,NA,"complete",NA,NA,"computer","Desktop or Laptop","Windows 10","Chrome 114.0.0.0","1280x1024","1280x881",NA,NA,NA,"JV Task P1",8,"Anxious",321,"In",NA,1,"FGEHDICJBKA",NA,NA,"A (JV first)",NA,NA,"SS1","SS1",40,"V","Valence","sn1sjn",1,"continue","",2170.78300009534,2166.14899999998,2170.78300009534,2170.78300009534,2166.14899999998,2170.78300009534,1,2170.78300009534,0,0,NA,"Click To Continue","Continue Button",1,"object-25","V","CFD-WF-030-002-H.jpeg",NA,"SUPTM12782"
"171",1688991866688,"10/07/2023 12:24:26",1688977466688,-4,"10/07/2023 04:24:26",137495,33,"task-d9wy",NA,30592420,9082638,NA,"complete",NA,NA,"computer","Desktop or Laptop","Windows 10","Chrome 114.0.0.0","1280x1024","1280x881",NA,NA,NA,"JV Task P1",8,"Anxious",321,"In",NA,1,"FGEHDICJBKA",NA,NA,"A (JV first)",NA,NA,"SS1","SS1",40,"V","Valence","sn1sjn",1,"response","56",1599.51899999997,2166.14899999998,2171.28300009534,1599.51899999997,2166.14899999998,2171.28300009534,1,1599.51899999997,571.764000095369,0,NA,"Slider","J",3,"object-27","V","CFD-WF-030-002-H.jpeg",NA,"SUPTM12782"
