"Event.Index","UTC.Timestamp","UTC.Date.and.Time","Local.Timestamp","Local.Timezone","Local.Date.and.Time","Experiment.ID","Experiment.Version","Tree.Node.Key","Repeat.Key","Schedule.ID","Participant.Private.ID","Participant.Starting.Group","Participant.Status","Participant.Completion.Code","Participant.External.Session.ID","Participant.Device.Type","Participant.Device","Participant.OS","Participant.Browser","Participant.Monitor.Size","Participant.Viewport.Size","Checkpoint","Room.ID","Room.Order","Task.Name","Task.Version","branch.ln1a","randomiser.vzsr","branch.hkzp","randomiser.ywar","randomiser.q6ah","order.ot79","randomiser.ahe2","randomiser.ckhi","randomiser.lqqr","randomiser.pobd","randomiser.8gdj","Spreadsheet","Current.Spreadsheet","Trial.Number","Display","Screen","Screen.ID","Screen.Counter","Response.Type","Response","Onset.Time","Clock.Time","Reaction.Time","Absolute.Onset.Time","Absolute.Clock.Time","Absolute.Reaction.Time","Correct","Response.Onset","Response.Duration","Proportion","Tag","Component.Name","Object.Name","Object.Number","Object.ID","Spreadsheet..display","Spreadsheet..stimulus","Manipulation..Spreadsheet","Random_ID"
"1",1689006568065,"10/07/2023 16:29:28",1689010168065,1,"10/07/2023 18:29:28",137495,33,"task-r1zi",NA,30600154,9085468,NA,"complete",NA,NA,"computer","Desktop or Laptop","Windows 10","Chrome 114.0.0.0","1280x720","1280x720",NA,NA,NA,"JV Task P2",11,"Anxious",NA,"In",NA,NA,"CDBEAFKGJHI",NA,NA,"B (MDot First)",2,213,"SS1","SS1",NA,"","","",NA,"5","BEGIN",NA,NA,NA,NA,NA,NA,0,NA,NA,NA,NA,"","",NA,"","","",NA,"SUPTM50909"
"2",1689006573146,"10/07/2023 16:29:33",1689010173146,1,"10/07/2023 18:29:33",137495,33,"task-r1zi",NA,30600154,9085468,NA,"complete",NA,NA,"computer","Desktop or Laptop","Windows 10","Chrome 114.0.0.0","1280x720","1280x720",NA,NA,NA,"JV Task P2",11,"Anxious",NA,"In",NA,NA,"CDBEAFKGJHI",NA,NA,"B (MDot First)",2,213,"SS1","SS1",1,"J","Judginess","y8ii7g",1,"continue","",4199.28799995232,4196.719,4199.28799995232,4199.28799995232,4196.719,4199.28799995232,1,4199.28799995232,0,0,NA,"Click To Continue","Continue Button",1,"object-14","J","CFD-IM-711-011-N.jpg",NA,"SUPTM50909"
"3",1689006573147,"10/07/2023 16:29:33",1689010173147,1,"10/07/2023 18:29:33",137495,33,"task-r1zi",NA,30600154,9085468,NA,"complete",NA,NA,"computer","Desktop or Laptop","Windows 10","Chrome 114.0.0.0","1280x720","1280x720",NA,NA,NA,"JV Task P2",11,"Anxious",NA,"In",NA,NA,"CDBEAFKGJHI",NA,NA,"B (MDot First)",2,213,"SS1","SS1",1,"J","Judginess","y8ii7g",1,"response","48",3330.883,4196.719,4199.988,3330.883,4196.719,4199.988,1,3330.883,869.105,0,NA,"Slider","J",3,"object-18","J","CFD-IM-711-011-N.jpg",NA,"SUPTM50909"
"4",1689006574110,"10/07/2023 16:29:34",1689010174110,1,"10/07/2023 18:29:34",137495,33,"task-r1zi",NA,30600154,9085468,NA,"complete",NA,NA,"computer","Desktop or Laptop","Windows 10","Chrome 114.0.0.0","1280x720","1280x720",NA,NA,NA,"JV Task P2",11,"Anxious",NA,"In",NA,NA,"CDBEAFKGJHI",NA,NA,"B (MDot First)",2,213,"SS1","SS1",1,"J","Fixation","w9zir9",2,"continue","",966.046,966.046,966.046,966.046,966.046,966.046,1,966.046,0,0,NA,"Fixation Timing","Fixation",1,"object-65","J","CFD-IM-711-011-N.jpg",NA,"SUPTM50909"
"5",1689006579143,"10/07/2023 16:29:39",1689010179143,1,"10/07/2023 18:29:39",137495,33,"task-r1zi",NA,30600154,9085468,NA,"complete",NA,NA,"computer","Desktop or Laptop","Windows 10","Chrome 114.0.0.0","1280x720","1280x720",NA,NA,NA,"JV Task P2",11,"Anxious",NA,"In",NA,NA,"CDBEAFKGJHI",NA,NA,"B (MDot First)",2,213,"SS1","SS1",1,"V","Valence","xyoebq",1,"continue","",5032.82299990463,5029.192,5032.82299990463,5032.82299990463,5029.192,5032.82299990463,1,5032.82299990463,0,0,NA,"Click To Continue","Continue Button",1,"object-25","V","CFD-AM-225-102-S.jpeg",NA,"SUPTM50909"
"6",1689006579146,"10/07/2023 16:29:39",1689010179146,1,"10/07/2023 18:29:39",137495,33,"task-r1zi",NA,30600154,9085468,NA,"complete",NA,NA,"computer","Desktop or Laptop","Windows 10","Chrome 114.0.0.0","1280x720","1280x720",NA,NA,NA,"JV Task P2",11,"Anxious",NA,"In",NA,NA,"CDBEAFKGJHI",NA,NA,"B (MDot First)",2,213,"SS1","SS1",1,"V","Valence","xyoebq",1,"response","30",4412.835,5029.192,5036.12300009537,4412.835,5029.192,5036.12300009537,1,4412.835,623.288000095368,0,NA,"Slider","J",3,"object-27","V","CFD-AM-225-102-S.jpeg",NA,"SUPTM50909"
"7",1689006580106,"10/07/2023 16:29:40",1689010180106,1,"10/07/2023 18:29:40",137495,33,"task-r1zi",NA,30600154,9085468,NA,"complete",NA,NA,"computer","Desktop or Laptop","Windows 10","Chrome 114.0.0.0","1280x720","1280x720",NA,NA,NA,"JV Task P2",11,"Anxious",NA,"In",NA,NA,"CDBEAFKGJHI",NA,NA,"B (MDot First)",2,213,"SS1","SS1",1,"V","Fixation","68owkj",2,"continue","",965.943000000001,965.943000000001,965.943000000001,965.943000000001,965.943000000001,965.943000000001,1,965.943000000001,0,0,NA,"Fixation Timing","Fixation",1,"object-21","V","CFD-AM-225-102-S.jpeg",NA,"SUPTM50909"
"8",1689006583915,"10/07/2023 16:29:43",1689010183915,1,"10/07/2023 18:29:43",137495,33,"task-r1zi",NA,30600154,9085468,NA,"complete",NA,NA,"computer","Desktop or Laptop","Windows 10","Chrome 114.0.0.0","1280x720","1280x720",NA,NA,NA,"JV Task P2",11,"Anxious",NA,"In",NA,NA,"CDBEAFKGJHI",NA,NA,"B (MDot First)",2,213,"SS1","SS1",2,"J","Judginess","y8ii7g",1,"continue","",3810.48800009537,3796.716,3810.48800009537,3810.48800009537,3796.716,3810.48800009537,1,3810.48800009537,0,0,NA,"Click To Continue","Continue Button",1,"object-14","J","CFD-MF-315-002-N.jpg",NA,"SUPTM50909"
"9",1689006583916,"10/07/2023 16:29:43",1689010183916,1,"10/07/2023 18:29:43",137495,33,"task-r1zi",NA,30600154,9085468,NA,"complete",NA,NA,"computer","Desktop or Laptop","Windows 10","Chrome 114.0.0.0","1280x720","1280x720",NA,NA,NA,"JV Task P2",11,"Anxious",NA,"In",NA,NA,"CDBEAFKGJHI",NA,NA,"B (MDot First)",2,213,"SS1","SS1",2,"J","Judginess","y8ii7g",1,"response","58",2997.473,3796.716,3810.78800004768,2997.473,3796.716,3810.78800004768,1,2997.473,813.315000047683,0,NA,"Slider","J",3,"object-18","J","CFD-MF-315-002-N.jpg",NA,"SUPTM50909"
"10",1689006584868,"10/07/2023 16:29:44",1689010184868,1,"10/07/2023 18:29:44",137495,33,"task-r1zi",NA,30600154,9085468,NA,"complete",NA,NA,"computer","Desktop or Laptop","Windows 10","Chrome 114.0.0.0","1280x720","1280x720",NA,NA,NA,"JV Task P2",11,"Anxious",NA,"In",NA,NA,"CDBEAFKGJHI",NA,NA,"B (MDot First)",2,213,"SS1","SS1",2,"J","Fixation","w9zir9",2,"continue","",966.016,966.016,966.016,966.016,966.016,966.016,1,966.016,0,0,NA,"Fixation Timing","Fixation",1,"object-65","J","CFD-MF-315-002-N.jpg",NA,"SUPTM50909"
"11",1689006588202,"10/07/2023 16:29:48",1689010188202,1,"10/07/2023 18:29:48",137495,33,"task-r1zi",NA,30600154,9085468,NA,"complete",NA,NA,"computer","Desktop or Laptop","Windows 10","Chrome 114.0.0.0","1280x720","1280x720",NA,NA,NA,"JV Task P2",11,"Anxious",NA,"In",NA,NA,"CDBEAFKGJHI",NA,NA,"B (MDot First)",2,213,"SS1","SS1",2,"V","Valence","xyoebq",1,"continue","",3333.95599990463,3330.283,3333.95599990463,3333.95599990463,3330.283,3333.95599990463,1,3333.95599990463,0,0,NA,"Click To Continue","Continue Button",1,"object-25","V","CFD-WM-028-003-S.jpeg",NA,"SUPTM50909"
"12",1689006588202,"10/07/2023 16:29:48",1689010188202,1,"10/07/2023 18:29:48",137495,33,"task-r1zi",NA,30600154,9085468,NA,"complete",NA,NA,"computer","Desktop or Laptop","Windows 10","Chrome 114.0.0.0","1280x720","1280x720",NA,NA,NA,"JV Task P2",11,"Anxious",NA,"In",NA,NA,"CDBEAFKGJHI",NA,NA,"B (MDot First)",2,213,"SS1","SS1",2,"V","Valence","xyoebq",1,"response","36",2264.725,3330.283,3334.356,2264.725,3330.283,3334.356,1,2264.725,1069.631,0,NA,"Slider","J",3,"object-27","V","CFD-WM-028-003-S.jpeg",NA,"SUPTM50909"
"13",1689006589165,"10/07/2023 16:29:49",1689010189165,1,"10/07/2023 18:29:49",137495,33,"task-r1zi",NA,30600154,9085468,NA,"complete",NA,NA,"computer","Desktop or Laptop","Windows 10","Chrome 114.0.0.0","1280x720","1280x720",NA,NA,NA,"JV Task P2",11,"Anxious",NA,"In",NA,NA,"CDBEAFKGJHI",NA,NA,"B (MDot First)",2,213,"SS1","SS1",2,"V","Fixation","68owkj",2,"continue","",966.150000000001,966.150000000001,966.150000000001,966.150000000001,966.150000000001,966.150000000001,1,966.150000000001,0,0,NA,"Fixation Timing","Fixation",1,"object-21","V","CFD-WM-028-003-S.jpeg",NA,"SUPTM50909"
"14",1689006595614,"10/07/2023 16:29:55",1689010195614,1,"10/07/2023 18:29:55",137495,33,"task-r1zi",NA,30600154,9085468,NA,"complete",NA,NA,"computer","Desktop or Laptop","Windows 10","Chrome 114.0.0.0","1280x720","1280x720",NA,NA,NA,"JV Task P2",11,"Anxious",NA,"In",NA,NA,"CDBEAFKGJHI",NA,NA,"B (MDot First)",2,213,"SS1","SS1",3,"J","Judginess","y8ii7g",1,"continue","",6450.423,6444.555,6450.423,6450.423,6444.555,6450.423,1,6450.423,0,0,NA,"Click To Continue","Continue Button",1,"object-14","J","CFD-WF-012-002-S.jpeg",NA,"SUPTM50909"
"15",1689006595615,"10/07/2023 16:29:55",1689010195615,1,"10/07/2023 18:29:55",137495,33,"task-r1zi",NA,30600154,9085468,NA,"complete",NA,NA,"computer","Desktop or Laptop","Windows 10","Chrome 114.0.0.0","1280x720","1280x720",NA,NA,NA,"JV Task P2",11,"Anxious",NA,"In",NA,NA,"CDBEAFKGJHI",NA,NA,"B (MDot First)",2,213,"SS1","SS1",3,"J","Judginess","y8ii7g",1,"response","33",5112.451,6444.555,6450.72299995232,5112.451,6444.555,6450.72299995232,1,5112.451,1338.27199995232,0,NA,"Slider","J",3,"object-18","J","CFD-WF-012-002-S.jpeg",NA,"SUPTM50909"
"16",1689006596575,"10/07/2023 16:29:56",1689010196575,1,"10/07/2023 18:29:56",137495,33,"task-r1zi",NA,30600154,9085468,NA,"complete",NA,NA,"computer","Desktop or Laptop","Windows 10","Chrome 114.0.0.0","1280x720","1280x720",NA,NA,NA,"JV Task P2",11,"Anxious",NA,"In",NA,NA,"CDBEAFKGJHI",NA,NA,"B (MDot First)",2,213,"SS1","SS1",3,"J","Fixation","w9zir9",2,"continue","",965.929,965.929,965.929,965.929,965.929,965.929,1,965.929,0,0,NA,"Fixation Timing","Fixation",1,"object-65","J","CFD-WF-012-002-S.jpeg",NA,"SUPTM50909"
"17",1689006600236,"10/07/2023 16:30:00",1689010200236,1,"10/07/2023 18:30:00",137495,33,"task-r1zi",NA,30600154,9085468,NA,"complete",NA,NA,"computer","Desktop or Laptop","Windows 10","Chrome 114.0.0.0","1280x720","1280x720",NA,NA,NA,"JV Task P2",11,"Anxious",NA,"In",NA,NA,"CDBEAFKGJHI",NA,NA,"B (MDot First)",2,213,"SS1","SS1",3,"V","Valence","xyoebq",1,"continue","",3661.939,3646.875,3661.939,3661.939,3646.875,3661.939,1,3661.939,0,0,NA,"Click To Continue","Continue Button",1,"object-25","V","CFD-WF-030-002-S.jpeg",NA,"SUPTM50909"
"18",1689006600239,"10/07/2023 16:30:00",1689010200239,1,"10/07/2023 18:30:00",137495,33,"task-r1zi",NA,30600154,9085468,NA,"complete",NA,NA,"computer","Desktop or Laptop","Windows 10","Chrome 114.0.0.0","1280x720","1280x720",NA,NA,NA,"JV Task P2",11,"Anxious",NA,"In",NA,NA,"CDBEAFKGJHI",NA,NA,"B (MDot First)",2,213,"SS1","SS1",3,"V","Valence","xyoebq",1,"response","29",2431.244,3646.875,3663.192,2431.244,3646.875,3663.192,1,2431.244,1231.948,0,NA,"Slider","J",3,"object-27","V","CFD-WF-030-002-S.jpeg",NA,"SUPTM50909"
"19",1689006601188,"10/07/2023 16:30:01",1689010201188,1,"10/07/2023 18:30:01",137495,33,"task-r1zi",NA,30600154,9085468,NA,"complete",NA,NA,"computer","Desktop or Laptop","Windows 10","Chrome 114.0.0.0","1280x720","1280x720",NA,NA,NA,"JV Task P2",11,"Anxious",NA,"In",NA,NA,"CDBEAFKGJHI",NA,NA,"B (MDot First)",2,213,"SS1","SS1",3,"V","Fixation","68owkj",2,"continue","",965.877999999997,965.877999999997,965.877999999997,965.877999999997,965.877999999997,965.877999999997,1,965.877999999997,0,0,NA,"Fixation Timing","Fixation",1,"object-21","V","CFD-WF-030-002-S.jpeg",NA,"SUPTM50909"
"20",1689006605388,"10/07/2023 16:30:05",1689010205388,1,"10/07/2023 18:30:05",137495,33,"task-r1zi",NA,30600154,9085468,NA,"complete",NA,NA,"computer","Desktop or Laptop","Windows 10","Chrome 114.0.0.0","1280x720","1280x720",NA,NA,NA,"JV Task P2",11,"Anxious",NA,"In",NA,NA,"CDBEAFKGJHI",NA,NA,"B (MDot First)",2,213,"SS1","SS1",4,"V","Valence","xyoebq",1,"continue","",4200.28599990463,4196.657,4200.28599990463,4200.28599990463,4196.657,4200.28599990463,1,4200.28599990463,0,0,NA,"Click To Continue","Continue Button",1,"object-25","V","CFD-WF-037-029-N.jpg",NA,"SUPTM50909"
"21",1689006605388,"10/07/2023 16:30:05",1689010205388,1,"10/07/2023 18:30:05",137495,33,"task-r1zi",NA,30600154,9085468,NA,"complete",NA,NA,"computer","Desktop or Laptop","Windows 10","Chrome 114.0.0.0","1280x720","1280x720",NA,NA,NA,"JV Task P2",11,"Anxious",NA,"In",NA,NA,"CDBEAFKGJHI",NA,NA,"B (MDot First)",2,213,"SS1","SS1",4,"V","Valence","xyoebq",1,"response","59",3597.193,4196.657,4200.686,3597.193,4196.657,4200.686,1,3597.193,603.493000000002,0,NA,"Slider","J",3,"object-27","V","CFD-WF-037-029-N.jpg",NA,"SUPTM50909"
"22",1689006606349,"10/07/2023 16:30:06",1689010206349,1,"10/07/2023 18:30:06",137495,33,"task-r1zi",NA,30600154,9085468,NA,"complete",NA,NA,"computer","Desktop or Laptop","Windows 10","Chrome 114.0.0.0","1280x720","1280x720",NA,NA,NA,"JV Task P2",11,"Anxious",NA,"In",NA,NA,"CDBEAFKGJHI",NA,NA,"B (MDot First)",2,213,"SS1","SS1",4,"V","Fixation","68owkj",2,"continue","",965.803,965.803,965.803,965.803,965.803,965.803,1,965.803,0,0,NA,"Fixation Timing","Fixation",1,"object-21","V","CFD-WF-037-029-N.jpg",NA,"SUPTM50909"
"23",1689006608844,"10/07/2023 16:30:08",1689010208844,1,"10/07/2023 18:30:08",137495,33,"task-r1zi",NA,30600154,9085468,NA,"complete",NA,NA,"computer","Desktop or Laptop","Windows 10","Chrome 114.0.0.0","1280x720","1280x720",NA,NA,NA,"JV Task P2",11,"Anxious",NA,"In",NA,NA,"CDBEAFKGJHI",NA,NA,"B (MDot First)",2,213,"SS1","SS1",5,"V","Valence","xyoebq",1,"continue","",2494.92600004769,2481.194,2494.92600004769,2494.92600004769,2481.194,2494.92600004769,1,2494.92600004769,0,0,NA,"Click To Continue","Continue Button",1,"object-25","V","CFD-WF-006-002-S.jpeg",NA,"SUPTM50909"
"24",1689006608844,"10/07/2023 16:30:08",1689010208844,1,"10/07/2023 18:30:08",137495,33,"task-r1zi",NA,30600154,9085468,NA,"complete",NA,NA,"computer","Desktop or Laptop","Windows 10","Chrome 114.0.0.0","1280x720","1280x720",NA,NA,NA,"JV Task P2",11,"Anxious",NA,"In",NA,NA,"CDBEAFKGJHI",NA,NA,"B (MDot First)",2,213,"SS1","SS1",5,"V","Valence","xyoebq",1,"response","22",1615.37,2481.194,2495.226,1615.37,2481.194,2495.226,1,1615.37,879.856,0,NA,"Slider","J",3,"object-27","V","CFD-WF-006-002-S.jpeg",NA,"SUPTM50909"
"25",1689006609797,"10/07/2023 16:30:09",1689010209797,1,"10/07/2023 18:30:09",137495,33,"task-r1zi",NA,30600154,9085468,NA,"complete",NA,NA,"computer","Desktop or Laptop","Windows 10","Chrome 114.0.0.0","1280x720","1280x720",NA,NA,NA,"JV Task P2",11,"Anxious",NA,"In",NA,NA,"CDBEAFKGJHI",NA,NA,"B (MDot First)",2,213,"SS1","SS1",5,"V","Fixation","68owkj",2,"continue","",965.913,965.913,965.913,965.913,965.913,965.913,1,965.913,0,0,NA,"Fixation Timing","Fixation",1,"object-21","V","CFD-WF-006-002-S.jpeg",NA,"SUPTM50909"
"26",1689006612550,"10/07/2023 16:30:12",1689010212550,1,"10/07/2023 18:30:12",137495,33,"task-r1zi",NA,30600154,9085468,NA,"complete",NA,NA,"computer","Desktop or Laptop","Windows 10","Chrome 114.0.0.0","1280x720","1280x720",NA,NA,NA,"JV Task P2",11,"Anxious",NA,"In",NA,NA,"CDBEAFKGJHI",NA,NA,"B (MDot First)",2,213,"SS1","SS1",6,"V","Valence","xyoebq",1,"continue","",2753.51900009537,2747.646,2753.51900009537,2753.51900009537,2747.646,2753.51900009537,1,2753.51900009537,0,0,NA,"Click To Continue","Continue Button",1,"object-25","V","CFD-WM-037-025-N.jpg",NA,"SUPTM50909"
"27",1689006612555,"10/07/2023 16:30:12",1689010212555,1,"10/07/2023 18:30:12",137495,33,"task-r1zi",NA,30600154,9085468,NA,"complete",NA,NA,"computer","Desktop or Laptop","Windows 10","Chrome 114.0.0.0","1280x720","1280x720",NA,NA,NA,"JV Task P2",11,"Anxious",NA,"In",NA,NA,"CDBEAFKGJHI",NA,NA,"B (MDot First)",2,213,"SS1","SS1",6,"V","Valence","xyoebq",1,"response","51",1798.627,2747.646,2759.01900009537,1798.627,2747.646,2759.01900009537,1,1798.627,960.392000095366,0,NA,"Slider","J",3,"object-27","V","CFD-WM-037-025-N.jpg",NA,"SUPTM50909"
"28",1689006613510,"10/07/2023 16:30:13",1689010213510,1,"10/07/2023 18:30:13",137495,33,"task-r1zi",NA,30600154,9085468,NA,"complete",NA,NA,"computer","Desktop or Laptop","Windows 10","Chrome 114.0.0.0","1280x720","1280x720",NA,NA,NA,"JV Task P2",11,"Anxious",NA,"In",NA,NA,"CDBEAFKGJHI",NA,NA,"B (MDot First)",2,213,"SS1","SS1",6,"V","Fixation","68owkj",2,"continue","",965.917000000001,965.917000000001,965.917000000001,965.917000000001,965.917000000001,965.917000000001,1,965.917000000001,0,0,NA,"Fixation Timing","Fixation",1,"object-21","V","CFD-WM-037-025-N.jpg",NA,"SUPTM50909"
"29",1689006615748,"10/07/2023 16:30:15",1689010215748,1,"10/07/2023 18:30:15",137495,33,"task-r1zi",NA,30600154,9085468,NA,"complete",NA,NA,"computer","Desktop or Laptop","Windows 10","Chrome 114.0.0.0","1280x720","1280x720",NA,NA,NA,"JV Task P2",11,"Anxious",NA,"In",NA,NA,"CDBEAFKGJHI",NA,NA,"B (MDot First)",2,213,"SS1","SS1",7,"V","Valence","xyoebq",1,"continue","",2238.45600009536,2231.67,2238.45600009536,2238.45600009536,2231.67,2238.45600009536,1,2238.45600009536,0,0,NA,"Click To Continue","Continue Button",1,"object-25","V","CFD-BF-030-002-S.jpeg",NA,"SUPTM50909"
"30",1689006615748,"10/07/2023 16:30:15",1689010215748,1,"10/07/2023 18:30:15",137495,33,"task-r1zi",NA,30600154,9085468,NA,"complete",NA,NA,"computer","Desktop or Laptop","Windows 10","Chrome 114.0.0.0","1280x720","1280x720",NA,NA,NA,"JV Task P2",11,"Anxious",NA,"In",NA,NA,"CDBEAFKGJHI",NA,NA,"B (MDot First)",2,213,"SS1","SS1",7,"V","Valence","xyoebq",1,"response","23",1482.45499999999,2231.67,2238.85599995231,1482.45499999999,2231.67,2238.85599995231,1,1482.45499999999,756.400999952319,0,NA,"Slider","J",3,"object-27","V","CFD-BF-030-002-S.jpeg",NA,"SUPTM50909"
"31",1689006616708,"10/07/2023 16:30:16",1689010216708,1,"10/07/2023 18:30:16",137495,33,"task-r1zi",NA,30600154,9085468,NA,"complete",NA,NA,"computer","Desktop or Laptop","Windows 10","Chrome 114.0.0.0","1280x720","1280x720",NA,NA,NA,"JV Task P2",11,"Anxious",NA,"In",NA,NA,"CDBEAFKGJHI",NA,NA,"B (MDot First)",2,213,"SS1","SS1",7,"V","Fixation","68owkj",2,"continue","",965.909,965.909,965.909,965.909,965.909,965.909,1,965.909,0,0,NA,"Fixation Timing","Fixation",1,"object-21","V","CFD-BF-030-002-S.jpeg",NA,"SUPTM50909"
"32",1689006621088,"10/07/2023 16:30:21",1689010221088,1,"10/07/2023 18:30:21",137495,33,"task-r1zi",NA,30600154,9085468,NA,"complete",NA,NA,"computer","Desktop or Laptop","Windows 10","Chrome 114.0.0.0","1280x720","1280x720",NA,NA,NA,"JV Task P2",11,"Anxious",NA,"In",NA,NA,"CDBEAFKGJHI",NA,NA,"B (MDot First)",2,213,"SS1","SS1",4,"J","Judginess","y8ii7g",1,"continue","",4381.17700004768,4379.473,4381.17700004768,4381.17700004768,4379.473,4381.17700004768,1,4381.17700004768,0,0,NA,"Click To Continue","Continue Button",1,"object-14","J","CFD-WF-039-025-S.jpeg",NA,"SUPTM50909"
"33",1689006621089,"10/07/2023 16:30:21",1689010221089,1,"10/07/2023 18:30:21",137495,33,"task-r1zi",NA,30600154,9085468,NA,"complete",NA,NA,"computer","Desktop or Laptop","Windows 10","Chrome 114.0.0.0","1280x720","1280x720",NA,NA,NA,"JV Task P2",11,"Anxious",NA,"In",NA,NA,"CDBEAFKGJHI",NA,NA,"B (MDot First)",2,213,"SS1","SS1",4,"J","Judginess","y8ii7g",1,"response","23",3563.741,4379.473,4381.477,3563.741,4379.473,4381.477,1,3563.741,817.735999999997,0,NA,"Slider","J",3,"object-18","J","CFD-WF-039-025-S.jpeg",NA,"SUPTM50909"
"34",1689006622054,"10/07/2023 16:30:22",1689010222054,1,"10/07/2023 18:30:22",137495,33,"task-r1zi",NA,30600154,9085468,NA,"complete",NA,NA,"computer","Desktop or Laptop","Windows 10","Chrome 114.0.0.0","1280x720","1280x720",NA,NA,NA,"JV Task P2",11,"Anxious",NA,"In",NA,NA,"CDBEAFKGJHI",NA,NA,"B (MDot First)",2,213,"SS1","SS1",4,"J","Fixation","w9zir9",2,"continue","",966.292999999998,966.292999999998,966.292999999998,966.292999999998,966.292999999998,966.292999999998,1,966.292999999998,0,0,NA,"Fixation Timing","Fixation",1,"object-65","J","CFD-WF-039-025-S.jpeg",NA,"SUPTM50909"
"35",1689006625188,"10/07/2023 16:30:25",1689010225188,1,"10/07/2023 18:30:25",137495,33,"task-r1zi",NA,30600154,9085468,NA,"complete",NA,NA,"computer","Desktop or Laptop","Windows 10","Chrome 114.0.0.0","1280x720","1280x720",NA,NA,NA,"JV Task P2",11,"Anxious",NA,"In",NA,NA,"CDBEAFKGJHI",NA,NA,"B (MDot First)",2,213,"SS1","SS1",8,"V","Valence","xyoebq",1,"continue","",3135.41100004769,3130.415,3135.41100004769,3135.41100004769,3130.415,3135.41100004769,1,3135.41100004769,0,0,NA,"Click To Continue","Continue Button",1,"object-25","V","CFD-WM-025-002-S.jpeg",NA,"SUPTM50909"
"36",1689006625194,"10/07/2023 16:30:25",1689010225194,1,"10/07/2023 18:30:25",137495,33,"task-r1zi",NA,30600154,9085468,NA,"complete",NA,NA,"computer","Desktop or Laptop","Windows 10","Chrome 114.0.0.0","1280x720","1280x720",NA,NA,NA,"JV Task P2",11,"Anxious",NA,"In",NA,NA,"CDBEAFKGJHI",NA,NA,"B (MDot First)",2,213,"SS1","SS1",8,"V","Valence","xyoebq",1,"response","16",2447.826,3130.415,3140.711,2447.826,3130.415,3140.711,1,2447.826,692.885000000002,0,NA,"Slider","J",3,"object-27","V","CFD-WM-025-002-S.jpeg",NA,"SUPTM50909"
"37",1689006626150,"10/07/2023 16:30:26",1689010226150,1,"10/07/2023 18:30:26",137495,33,"task-r1zi",NA,30600154,9085468,NA,"complete",NA,NA,"computer","Desktop or Laptop","Windows 10","Chrome 114.0.0.0","1280x720","1280x720",NA,NA,NA,"JV Task P2",11,"Anxious",NA,"In",NA,NA,"CDBEAFKGJHI",NA,NA,"B (MDot First)",2,213,"SS1","SS1",8,"V","Fixation","68owkj",2,"continue","",966.212,966.212,966.212,966.212,966.212,966.212,1,966.212,0,0,NA,"Fixation Timing","Fixation",1,"object-21","V","CFD-WM-025-002-S.jpeg",NA,"SUPTM50909"
"38",1689006628937,"10/07/2023 16:30:28",1689010228937,1,"10/07/2023 18:30:28",137495,33,"task-r1zi",NA,30600154,9085468,NA,"complete",NA,NA,"computer","Desktop or Laptop","Windows 10","Chrome 114.0.0.0","1280x720","1280x720",NA,NA,NA,"JV Task P2",11,"Anxious",NA,"In",NA,NA,"CDBEAFKGJHI",NA,NA,"B (MDot First)",2,213,"SS1","SS1",5,"J","Judginess","y8ii7g",1,"continue","",2787.88399995232,2780.93700000001,2787.88399995232,2787.88399995232,2780.93700000001,2787.88399995232,1,2787.88399995232,0,0,NA,"Click To Continue","Continue Button",1,"object-14","J","CFD-WF-035-024-S.jpeg",NA,"SUPTM50909"
"39",1689006628938,"10/07/2023 16:30:28",1689010228938,1,"10/07/2023 18:30:28",137495,33,"task-r1zi",NA,30600154,9085468,NA,"complete",NA,NA,"computer","Desktop or Laptop","Windows 10","Chrome 114.0.0.0","1280x720","1280x720",NA,NA,NA,"JV Task P2",11,"Anxious",NA,"In",NA,NA,"CDBEAFKGJHI",NA,NA,"B (MDot First)",2,213,"SS1","SS1",5,"J","Judginess","y8ii7g",1,"response","32",1848.412,2780.93700000001,2788.084,1848.412,2780.93700000001,2788.084,1,1848.412,939.671999999999,0,NA,"Slider","J",3,"object-18","J","CFD-WF-035-024-S.jpeg",NA,"SUPTM50909"
"40",1689006629897,"10/07/2023 16:30:29",1689010229897,1,"10/07/2023 18:30:29",137495,33,"task-r1zi",NA,30600154,9085468,NA,"complete",NA,NA,"computer","Desktop or Laptop","Windows 10","Chrome 114.0.0.0","1280x720","1280x720",NA,NA,NA,"JV Task P2",11,"Anxious",NA,"In",NA,NA,"CDBEAFKGJHI",NA,NA,"B (MDot First)",2,213,"SS1","SS1",5,"J","Fixation","w9zir9",2,"continue","",965.665999999997,965.665999999997,965.665999999997,965.665999999997,965.665999999997,965.665999999997,1,965.665999999997,0,0,NA,"Fixation Timing","Fixation",1,"object-65","J","CFD-WF-035-024-S.jpeg",NA,"SUPTM50909"
"41",1689006633002,"10/07/2023 16:30:33",1689010233002,1,"10/07/2023 18:30:33",137495,33,"task-r1zi",NA,30600154,9085468,NA,"complete",NA,NA,"computer","Desktop or Laptop","Windows 10","Chrome 114.0.0.0","1280x720","1280x720",NA,NA,NA,"JV Task P2",11,"Anxious",NA,"In",NA,NA,"CDBEAFKGJHI",NA,NA,"B (MDot First)",2,213,"SS1","SS1",6,"J","Judginess","y8ii7g",1,"continue","",3105.38100009537,3097.795,3105.38100009537,3105.38100009537,3097.795,3105.38100009537,1,3105.38100009537,0,0,NA,"Click To Continue","Continue Button",1,"object-14","J","CFD-BF-029-031-N.jpg",NA,"SUPTM50909"
"42",1689006633002,"10/07/2023 16:30:33",1689010233002,1,"10/07/2023 18:30:33",137495,33,"task-r1zi",NA,30600154,9085468,NA,"complete",NA,NA,"computer","Desktop or Laptop","Windows 10","Chrome 114.0.0.0","1280x720","1280x720",NA,NA,NA,"JV Task P2",11,"Anxious",NA,"In",NA,NA,"CDBEAFKGJHI",NA,NA,"B (MDot First)",2,213,"SS1","SS1",6,"J","Judginess","y8ii7g",1,"response","53",2281.516,3097.795,3105.78099995232,2281.516,3097.795,3105.78099995232,1,2281.516,824.264999952313,0,NA,"Slider","J",3,"object-18","J","CFD-BF-029-031-N.jpg",NA,"SUPTM50909"
"43",1689006633960,"10/07/2023 16:30:33",1689010233960,1,"10/07/2023 18:30:33",137495,33,"task-r1zi",NA,30600154,9085468,NA,"complete",NA,NA,"computer","Desktop or Laptop","Windows 10","Chrome 114.0.0.0","1280x720","1280x720",NA,NA,NA,"JV Task P2",11,"Anxious",NA,"In",NA,NA,"CDBEAFKGJHI",NA,NA,"B (MDot First)",2,213,"SS1","SS1",6,"J","Fixation","w9zir9",2,"continue","",965.672000000006,965.672000000006,965.672000000006,965.672000000006,965.672000000006,965.672000000006,1,965.672000000006,0,0,NA,"Fixation Timing","Fixation",1,"object-65","J","CFD-BF-029-031-N.jpg",NA,"SUPTM50909"
"44",1689006636443,"10/07/2023 16:30:36",1689010236443,1,"10/07/2023 18:30:36",137495,33,"task-r1zi",NA,30600154,9085468,NA,"complete",NA,NA,"computer","Desktop or Laptop","Windows 10","Chrome 114.0.0.0","1280x720","1280x720",NA,NA,NA,"JV Task P2",11,"Anxious",NA,"In",NA,NA,"CDBEAFKGJHI",NA,NA,"B (MDot First)",2,213,"SS1","SS1",9,"V","Valence","xyoebq",1,"continue","",2483.014,2481.12299999999,2483.014,2483.014,2481.12299999999,2483.014,1,2483.014,0,0,NA,"Click To Continue","Continue Button",1,"object-25","V","CFD-WF-012-002-H.jpeg",NA,"SUPTM50909"
"45",1689006636447,"10/07/2023 16:30:36",1689010236447,1,"10/07/2023 18:30:36",137495,33,"task-r1zi",NA,30600154,9085468,NA,"complete",NA,NA,"computer","Desktop or Laptop","Windows 10","Chrome 114.0.0.0","1280x720","1280x720",NA,NA,NA,"JV Task P2",11,"Anxious",NA,"In",NA,NA,"CDBEAFKGJHI",NA,NA,"B (MDot First)",2,213,"SS1","SS1",9,"V","Valence","xyoebq",1,"response","78",1681.739,2481.12299999999,2487.91400009536,1681.739,2481.12299999999,2487.91400009536,1,1681.739,806.175000095362,0,NA,"Slider","J",3,"object-27","V","CFD-WF-012-002-H.jpeg",NA,"SUPTM50909"
"46",1689006637408,"10/07/2023 16:30:37",1689010237408,1,"10/07/2023 18:30:37",137495,33,"task-r1zi",NA,30600154,9085468,NA,"complete",NA,NA,"computer","Desktop or Laptop","Windows 10","Chrome 114.0.0.0","1280x720","1280x720",NA,NA,NA,"JV Task P2",11,"Anxious",NA,"In",NA,NA,"CDBEAFKGJHI",NA,NA,"B (MDot First)",2,213,"SS1","SS1",9,"V","Fixation","68owkj",2,"continue","",966.127000000008,966.127000000008,966.127000000008,966.127000000008,966.127000000008,966.127000000008,1,966.127000000008,0,0,NA,"Fixation Timing","Fixation",1,"object-21","V","CFD-WF-012-002-H.jpeg",NA,"SUPTM50909"
"47",1689006640573,"10/07/2023 16:30:40",1689010240573,1,"10/07/2023 18:30:40",137495,33,"task-r1zi",NA,30600154,9085468,NA,"complete",NA,NA,"computer","Desktop or Laptop","Windows 10","Chrome 114.0.0.0","1280x720","1280x720",NA,NA,NA,"JV Task P2",11,"Anxious",NA,"In",NA,NA,"CDBEAFKGJHI",NA,NA,"B (MDot First)",2,213,"SS1","SS1",10,"V","Valence","xyoebq",1,"continue","",3166.16400009536,3163.82399999999,3166.16400009536,3166.16400009536,3163.82399999999,3166.16400009536,1,3166.16400009536,0,0,NA,"Click To Continue","Continue Button",1,"object-25","V","CFD-AM-220-134-S.jpeg",NA,"SUPTM50909"
"48",1689006640573,"10/07/2023 16:30:40",1689010240573,1,"10/07/2023 18:30:40",137495,33,"task-r1zi",NA,30600154,9085468,NA,"complete",NA,NA,"computer","Desktop or Laptop","Windows 10","Chrome 114.0.0.0","1280x720","1280x720",NA,NA,NA,"JV Task P2",11,"Anxious",NA,"In",NA,NA,"CDBEAFKGJHI",NA,NA,"B (MDot First)",2,213,"SS1","SS1",10,"V","Valence","xyoebq",1,"response","37",2397.958,3163.82399999999,3166.36399990463,2397.958,3163.82399999999,3166.36399990463,1,2397.958,768.405999904629,0,NA,"Slider","J",3,"object-27","V","CFD-AM-220-134-S.jpeg",NA,"SUPTM50909"
"49",1689006641538,"10/07/2023 16:30:41",1689010241538,1,"10/07/2023 18:30:41",137495,33,"task-r1zi",NA,30600154,9085468,NA,"complete",NA,NA,"computer","Desktop or Laptop","Windows 10","Chrome 114.0.0.0","1280x720","1280x720",NA,NA,NA,"JV Task P2",11,"Anxious",NA,"In",NA,NA,"CDBEAFKGJHI",NA,NA,"B (MDot First)",2,213,"SS1","SS1",10,"V","Fixation","68owkj",2,"continue","",966.206000000006,966.206000000006,966.206000000006,966.206000000006,966.206000000006,966.206000000006,1,966.206000000006,0,0,NA,"Fixation Timing","Fixation",1,"object-21","V","CFD-AM-220-134-S.jpeg",NA,"SUPTM50909"
"50",1689006644932,"10/07/2023 16:30:44",1689010244932,1,"10/07/2023 18:30:44",137495,33,"task-r1zi",NA,30600154,9085468,NA,"complete",NA,NA,"computer","Desktop or Laptop","Windows 10","Chrome 114.0.0.0","1280x720","1280x720",NA,NA,NA,"JV Task P2",11,"Anxious",NA,"In",NA,NA,"CDBEAFKGJHI",NA,NA,"B (MDot First)",2,213,"SS1","SS1",7,"J","Judginess","y8ii7g",1,"continue","",3394.734,3380.54399999999,3394.734,3394.734,3380.54399999999,3394.734,1,3394.734,0,0,NA,"Click To Continue","Continue Button",1,"object-14","J","CFD-WM-001-014-S.jpeg",NA,"SUPTM50909"
"51",1689006644932,"10/07/2023 16:30:44",1689010244932,1,"10/07/2023 18:30:44",137495,33,"task-r1zi",NA,30600154,9085468,NA,"complete",NA,NA,"computer","Desktop or Laptop","Windows 10","Chrome 114.0.0.0","1280x720","1280x720",NA,NA,NA,"JV Task P2",11,"Anxious",NA,"In",NA,NA,"CDBEAFKGJHI",NA,NA,"B (MDot First)",2,213,"SS1","SS1",7,"J","Judginess","y8ii7g",1,"response","38",2747.829,3380.54399999999,3395.03399995231,2747.829,3380.54399999999,3395.03399995231,1,2747.829,647.204999952315,0,NA,"Slider","J",3,"object-18","J","CFD-WM-001-014-S.jpeg",NA,"SUPTM50909"
"52",1689006645884,"10/07/2023 16:30:45",1689010245884,1,"10/07/2023 18:30:45",137495,33,"task-r1zi",NA,30600154,9085468,NA,"complete",NA,NA,"computer","Desktop or Laptop","Windows 10","Chrome 114.0.0.0","1280x720","1280x720",NA,NA,NA,"JV Task P2",11,"Anxious",NA,"In",NA,NA,"CDBEAFKGJHI",NA,NA,"B (MDot First)",2,213,"SS1","SS1",7,"J","Fixation","w9zir9",2,"continue","",965.915000000008,965.915000000008,965.915000000008,965.915000000008,965.915000000008,965.915000000008,1,965.915000000008,0,0,NA,"Fixation Timing","Fixation",1,"object-65","J","CFD-WM-001-014-S.jpeg",NA,"SUPTM50909"
"53",1689006649777,"10/07/2023 16:30:49",1689010249777,1,"10/07/2023 18:30:49",137495,33,"task-r1zi",NA,30600154,9085468,NA,"complete",NA,NA,"computer","Desktop or Laptop","Windows 10","Chrome 114.0.0.0","1280x720","1280x720",NA,NA,NA,"JV Task P2",11,"Anxious",NA,"In",NA,NA,"CDBEAFKGJHI",NA,NA,"B (MDot First)",2,213,"SS1","SS1",8,"J","Judginess","y8ii7g",1,"continue","",3893.77499999999,3879.931,3893.77499999999,3893.77499999999,3879.931,3893.77499999999,1,3893.77499999999,0,0,NA,"Click To Continue","Continue Button",1,"object-14","J","CFD-IF-734-108-S.jpeg",NA,"SUPTM50909"
"54",1689006649782,"10/07/2023 16:30:49",1689010249782,1,"10/07/2023 18:30:49",137495,33,"task-r1zi",NA,30600154,9085468,NA,"complete",NA,NA,"computer","Desktop or Laptop","Windows 10","Chrome 114.0.0.0","1280x720","1280x720",NA,NA,NA,"JV Task P2",11,"Anxious",NA,"In",NA,NA,"CDBEAFKGJHI",NA,NA,"B (MDot First)",2,213,"SS1","SS1",8,"J","Judginess","y8ii7g",1,"response","44",3297.14199999999,3879.931,3896.556,3297.14199999999,3879.931,3896.556,1,3297.14199999999,599.414000000004,0,NA,"Slider","J",3,"object-18","J","CFD-IF-734-108-S.jpeg",NA,"SUPTM50909"
"55",1689006650730,"10/07/2023 16:30:50",1689010250730,1,"10/07/2023 18:30:50",137495,33,"task-r1zi",NA,30600154,9085468,NA,"complete",NA,NA,"computer","Desktop or Laptop","Windows 10","Chrome 114.0.0.0","1280x720","1280x720",NA,NA,NA,"JV Task P2",11,"Anxious",NA,"In",NA,NA,"CDBEAFKGJHI",NA,NA,"B (MDot First)",2,213,"SS1","SS1",8,"J","Fixation","w9zir9",2,"continue","",966.058999999994,966.058999999994,966.058999999994,966.058999999994,966.058999999994,966.058999999994,1,966.058999999994,0,0,NA,"Fixation Timing","Fixation",1,"object-65","J","CFD-IF-734-108-S.jpeg",NA,"SUPTM50909"
"56",1689006653362,"10/07/2023 16:30:53",1689010253362,1,"10/07/2023 18:30:53",137495,33,"task-r1zi",NA,30600154,9085468,NA,"complete",NA,NA,"computer","Desktop or Laptop","Windows 10","Chrome 114.0.0.0","1280x720","1280x720",NA,NA,NA,"JV Task P2",11,"Anxious",NA,"In",NA,NA,"CDBEAFKGJHI",NA,NA,"B (MDot First)",2,213,"SS1","SS1",9,"J","Judginess","y8ii7g",1,"continue","",2632.285,2630.81700000001,2632.285,2632.285,2630.81700000001,2632.285,1,2632.285,0,0,NA,"Click To Continue","Continue Button",1,"object-14","J","CFD-WF-027-003-N.jpg",NA,"SUPTM50909"
"57",1689006653362,"10/07/2023 16:30:53",1689010253362,1,"10/07/2023 18:30:53",137495,33,"task-r1zi",NA,30600154,9085468,NA,"complete",NA,NA,"computer","Desktop or Laptop","Windows 10","Chrome 114.0.0.0","1280x720","1280x720",NA,NA,NA,"JV Task P2",11,"Anxious",NA,"In",NA,NA,"CDBEAFKGJHI",NA,NA,"B (MDot First)",2,213,"SS1","SS1",9,"J","Judginess","y8ii7g",1,"response","70",1748.607,2630.81700000001,2632.58499995232,1748.607,2630.81700000001,2632.58499995232,1,1748.607,883.977999952316,0,NA,"Slider","J",3,"object-18","J","CFD-WF-027-003-N.jpg",NA,"SUPTM50909"
"58",1689006654327,"10/07/2023 16:30:54",1689010254327,1,"10/07/2023 18:30:54",137495,33,"task-r1zi",NA,30600154,9085468,NA,"complete",NA,NA,"computer","Desktop or Laptop","Windows 10","Chrome 114.0.0.0","1280x720","1280x720",NA,NA,NA,"JV Task P2",11,"Anxious",NA,"In",NA,NA,"CDBEAFKGJHI",NA,NA,"B (MDot First)",2,213,"SS1","SS1",9,"J","Fixation","w9zir9",2,"continue","",966.150999999998,966.150999999998,966.150999999998,966.150999999998,966.150999999998,966.150999999998,1,966.150999999998,0,0,NA,"Fixation Timing","Fixation",1,"object-65","J","CFD-WF-027-003-N.jpg",NA,"SUPTM50909"
"59",1689006657347,"10/07/2023 16:30:57",1689010257347,1,"10/07/2023 18:30:57",137495,33,"task-r1zi",NA,30600154,9085468,NA,"complete",NA,NA,"computer","Desktop or Laptop","Windows 10","Chrome 114.0.0.0","1280x720","1280x720",NA,NA,NA,"JV Task P2",11,"Anxious",NA,"In",NA,NA,"CDBEAFKGJHI",NA,NA,"B (MDot First)",2,213,"SS1","SS1",10,"J","Judginess","y8ii7g",1,"continue","",3020.91699990463,3014.27099999999,3020.91699990463,3020.91699990463,3014.27099999999,3020.91699990463,1,3020.91699990463,0,0,NA,"Click To Continue","Continue Button",1,"object-14","J","CFD-WF-035-024-H.jpeg",NA,"SUPTM50909"
"60",1689006657348,"10/07/2023 16:30:57",1689010257348,1,"10/07/2023 18:30:57",137495,33,"task-r1zi",NA,30600154,9085468,NA,"complete",NA,NA,"computer","Desktop or Laptop","Windows 10","Chrome 114.0.0.0","1280x720","1280x720",NA,NA,NA,"JV Task P2",11,"Anxious",NA,"In",NA,NA,"CDBEAFKGJHI",NA,NA,"B (MDot First)",2,213,"SS1","SS1",10,"J","Judginess","y8ii7g",1,"response","81",1615.21299999999,3014.27099999999,3021.317,1615.21299999999,3014.27099999999,3021.317,1,1615.21299999999,1406.10400000001,0,NA,"Slider","J",3,"object-18","J","CFD-WF-035-024-H.jpeg",NA,"SUPTM50909"
"61",1689006658307,"10/07/2023 16:30:58",1689010258307,1,"10/07/2023 18:30:58",137495,33,"task-r1zi",NA,30600154,9085468,NA,"complete",NA,NA,"computer","Desktop or Laptop","Windows 10","Chrome 114.0.0.0","1280x720","1280x720",NA,NA,NA,"JV Task P2",11,"Anxious",NA,"In",NA,NA,"CDBEAFKGJHI",NA,NA,"B (MDot First)",2,213,"SS1","SS1",10,"J","Fixation","w9zir9",2,"continue","",965.596000000005,965.596000000005,965.596000000005,965.596000000005,965.596000000005,965.596000000005,1,965.596000000005,0,0,NA,"Fixation Timing","Fixation",1,"object-65","J","CFD-WF-035-024-H.jpeg",NA,"SUPTM50909"
"62",1689006663122,"10/07/2023 16:31:03",1689010263122,1,"10/07/2023 18:31:03",137495,33,"task-r1zi",NA,30600154,9085468,NA,"complete",NA,NA,"computer","Desktop or Laptop","Windows 10","Chrome 114.0.0.0","1280x720","1280x720",NA,NA,NA,"JV Task P2",11,"Anxious",NA,"In",NA,NA,"CDBEAFKGJHI",NA,NA,"B (MDot First)",2,213,"SS1","SS1",11,"J","Judginess","y8ii7g",1,"continue","",4816.04999990463,4812.908,4816.04999990463,4816.04999990463,4812.908,4816.04999990463,1,4816.04999990463,0,0,NA,"Click To Continue","Continue Button",1,"object-14","J","CFD-WM-037-025-N.jpg",NA,"SUPTM50909"
"63",1689006663128,"10/07/2023 16:31:03",1689010263128,1,"10/07/2023 18:31:03",137495,33,"task-r1zi",NA,30600154,9085468,NA,"complete",NA,NA,"computer","Desktop or Laptop","Windows 10","Chrome 114.0.0.0","1280x720","1280x720",NA,NA,NA,"JV Task P2",11,"Anxious",NA,"In",NA,NA,"CDBEAFKGJHI",NA,NA,"B (MDot First)",2,213,"SS1","SS1",11,"J","Judginess","y8ii7g",1,"response","38",4130.25599999999,4812.908,4821.54999990463,4130.25599999999,4812.908,4821.54999990463,1,4130.25599999999,691.293999904636,0,NA,"Slider","J",3,"object-18","J","CFD-WM-037-025-N.jpg",NA,"SUPTM50909"
"64",1689006664085,"10/07/2023 16:31:04",1689010264085,1,"10/07/2023 18:31:04",137495,33,"task-r1zi",NA,30600154,9085468,NA,"complete",NA,NA,"computer","Desktop or Laptop","Windows 10","Chrome 114.0.0.0","1280x720","1280x720",NA,NA,NA,"JV Task P2",11,"Anxious",NA,"In",NA,NA,"CDBEAFKGJHI",NA,NA,"B (MDot First)",2,213,"SS1","SS1",11,"J","Fixation","w9zir9",2,"continue","",965.618000000002,965.618000000002,965.618000000002,965.618000000002,965.618000000002,965.618000000002,1,965.618000000002,0,0,NA,"Fixation Timing","Fixation",1,"object-65","J","CFD-WM-037-025-N.jpg",NA,"SUPTM50909"
"65",1689006668109,"10/07/2023 16:31:08",1689010268109,1,"10/07/2023 18:31:08",137495,33,"task-r1zi",NA,30600154,9085468,NA,"complete",NA,NA,"computer","Desktop or Laptop","Windows 10","Chrome 114.0.0.0","1280x720","1280x720",NA,NA,NA,"JV Task P2",11,"Anxious",NA,"In",NA,NA,"CDBEAFKGJHI",NA,NA,"B (MDot First)",2,213,"SS1","SS1",11,"V","Valence","xyoebq",1,"continue","",4023.924,4013.594,4023.924,4023.924,4013.594,4023.924,1,4023.924,0,0,NA,"Click To Continue","Continue Button",1,"object-25","V","CFD-BM-045-004-S.jpeg",NA,"SUPTM50909"
"66",1689006668109,"10/07/2023 16:31:08",1689010268109,1,"10/07/2023 18:31:08",137495,33,"task-r1zi",NA,30600154,9085468,NA,"complete",NA,NA,"computer","Desktop or Laptop","Windows 10","Chrome 114.0.0.0","1280x720","1280x720",NA,NA,NA,"JV Task P2",11,"Anxious",NA,"In",NA,NA,"CDBEAFKGJHI",NA,NA,"B (MDot First)",2,213,"SS1","SS1",11,"V","Valence","xyoebq",1,"response","28",2731.03999999999,4013.594,4024.12400004768,2731.03999999999,4013.594,4024.12400004768,1,2731.03999999999,1293.08400004769,0,NA,"Slider","J",3,"object-27","V","CFD-BM-045-004-S.jpeg",NA,"SUPTM50909"
"67",1689006669065,"10/07/2023 16:31:09",1689010269065,1,"10/07/2023 18:31:09",137495,33,"task-r1zi",NA,30600154,9085468,NA,"complete",NA,NA,"computer","Desktop or Laptop","Windows 10","Chrome 114.0.0.0","1280x720","1280x720",NA,NA,NA,"JV Task P2",11,"Anxious",NA,"In",NA,NA,"CDBEAFKGJHI",NA,NA,"B (MDot First)",2,213,"SS1","SS1",11,"V","Fixation","68owkj",2,"continue","",965.595000000001,965.595000000001,965.595000000001,965.595000000001,965.595000000001,965.595000000001,1,965.595000000001,0,0,NA,"Fixation Timing","Fixation",1,"object-21","V","CFD-BM-045-004-S.jpeg",NA,"SUPTM50909"
"68",1689006673297,"10/07/2023 16:31:13",1689010273297,1,"10/07/2023 18:31:13",137495,33,"task-r1zi",NA,30600154,9085468,NA,"complete",NA,NA,"computer","Desktop or Laptop","Windows 10","Chrome 114.0.0.0","1280x720","1280x720",NA,NA,NA,"JV Task P2",11,"Anxious",NA,"In",NA,NA,"CDBEAFKGJHI",NA,NA,"B (MDot First)",2,213,"SS1","SS1",12,"J","Judginess","y8ii7g",1,"continue","",4232.53499995232,4230.338,4232.53499995232,4232.53499995232,4230.338,4232.53499995232,1,4232.53499995232,0,0,NA,"Click To Continue","Continue Button",1,"object-14","J","CFD-MM-308-001-N.jpg",NA,"SUPTM50909"
"69",1689006673301,"10/07/2023 16:31:13",1689010273301,1,"10/07/2023 18:31:13",137495,33,"task-r1zi",NA,30600154,9085468,NA,"complete",NA,NA,"computer","Desktop or Laptop","Windows 10","Chrome 114.0.0.0","1280x720","1280x720",NA,NA,NA,"JV Task P2",11,"Anxious",NA,"In",NA,NA,"CDBEAFKGJHI",NA,NA,"B (MDot First)",2,213,"SS1","SS1",12,"J","Judginess","y8ii7g",1,"response","44",3380.852,4230.338,4236.235,3380.852,4230.338,4236.235,1,3380.852,855.383000000002,0,NA,"Slider","J",3,"object-18","J","CFD-MM-308-001-N.jpg",NA,"SUPTM50909"
"70",1689006674261,"10/07/2023 16:31:14",1689010274261,1,"10/07/2023 18:31:14",137495,33,"task-r1zi",NA,30600154,9085468,NA,"complete",NA,NA,"computer","Desktop or Laptop","Windows 10","Chrome 114.0.0.0","1280x720","1280x720",NA,NA,NA,"JV Task P2",11,"Anxious",NA,"In",NA,NA,"CDBEAFKGJHI",NA,NA,"B (MDot First)",2,213,"SS1","SS1",12,"J","Fixation","w9zir9",2,"continue","",965.574999999997,965.574999999997,965.574999999997,965.574999999997,965.574999999997,965.574999999997,1,965.574999999997,0,0,NA,"Fixation Timing","Fixation",1,"object-65","J","CFD-MM-308-001-N.jpg",NA,"SUPTM50909"
"71",1689006678413,"10/07/2023 16:31:18",1689010278413,1,"10/07/2023 18:31:18",137495,33,"task-r1zi",NA,30600154,9085468,NA,"complete",NA,NA,"computer","Desktop or Laptop","Windows 10","Chrome 114.0.0.0","1280x720","1280x720",NA,NA,NA,"JV Task P2",11,"Anxious",NA,"In",NA,NA,"CDBEAFKGJHI",NA,NA,"B (MDot First)",2,213,"SS1","SS1",13,"J","Judginess","y8ii7g",1,"continue","",4153.12199995232,4146.55100000001,4153.12199995232,4153.12199995232,4146.55100000001,4153.12199995232,1,4153.12199995232,0,0,NA,"Click To Continue","Continue Button",1,"object-14","J","CFD-WF-039-025-H.jpeg",NA,"SUPTM50909"
"72",1689006678413,"10/07/2023 16:31:18",1689010278413,1,"10/07/2023 18:31:18",137495,33,"task-r1zi",NA,30600154,9085468,NA,"complete",NA,NA,"computer","Desktop or Laptop","Windows 10","Chrome 114.0.0.0","1280x720","1280x720",NA,NA,NA,"JV Task P2",11,"Anxious",NA,"In",NA,NA,"CDBEAFKGJHI",NA,NA,"B (MDot First)",2,213,"SS1","SS1",13,"J","Judginess","y8ii7g",1,"response","75",3280.476,4146.55100000001,4153.42199990463,3280.476,4146.55100000001,4153.42199990463,1,3280.476,872.945999904638,0,NA,"Slider","J",3,"object-18","J","CFD-WF-039-025-H.jpeg",NA,"SUPTM50909"
"73",1689006679373,"10/07/2023 16:31:19",1689010279373,1,"10/07/2023 18:31:19",137495,33,"task-r1zi",NA,30600154,9085468,NA,"complete",NA,NA,"computer","Desktop or Laptop","Windows 10","Chrome 114.0.0.0","1280x720","1280x720",NA,NA,NA,"JV Task P2",11,"Anxious",NA,"In",NA,NA,"CDBEAFKGJHI",NA,NA,"B (MDot First)",2,213,"SS1","SS1",13,"J","Fixation","w9zir9",2,"continue","",965.704999999987,965.704999999987,965.704999999987,965.704999999987,965.704999999987,965.704999999987,1,965.704999999987,0,0,NA,"Fixation Timing","Fixation",1,"object-65","J","CFD-WF-039-025-H.jpeg",NA,"SUPTM50909"
"74",1689006683758,"10/07/2023 16:31:23",1689010283758,1,"10/07/2023 18:31:23",137495,33,"task-r1zi",NA,30600154,9085468,NA,"complete",NA,NA,"computer","Desktop or Laptop","Windows 10","Chrome 114.0.0.0","1280x720","1280x720",NA,NA,NA,"JV Task P2",11,"Anxious",NA,"In",NA,NA,"CDBEAFKGJHI",NA,NA,"B (MDot First)",2,213,"SS1","SS1",12,"V","Valence","xyoebq",1,"continue","",4385.56600000001,4379.93700000001,4385.56600000001,4385.56600000001,4379.93700000001,4385.56600000001,1,4385.56600000001,0,0,NA,"Click To Continue","Continue Button",1,"object-25","V","CFD-BF-029-031-S.jpeg",NA,"SUPTM50909"
"75",1689006683761,"10/07/2023 16:31:23",1689010283761,1,"10/07/2023 18:31:23",137495,33,"task-r1zi",NA,30600154,9085468,NA,"complete",NA,NA,"computer","Desktop or Laptop","Windows 10","Chrome 114.0.0.0","1280x720","1280x720",NA,NA,NA,"JV Task P2",11,"Anxious",NA,"In",NA,NA,"CDBEAFKGJHI",NA,NA,"B (MDot First)",2,213,"SS1","SS1",12,"V","Valence","xyoebq",1,"response","31",3547.24800000001,4379.93700000001,4388.96600009537,3547.24800000001,4379.93700000001,4388.96600009537,1,3547.24800000001,841.718000095367,0,NA,"Slider","J",3,"object-27","V","CFD-BF-029-031-S.jpeg",NA,"SUPTM50909"
"76",1689006684719,"10/07/2023 16:31:24",1689010284719,1,"10/07/2023 18:31:24",137495,33,"task-r1zi",NA,30600154,9085468,NA,"complete",NA,NA,"computer","Desktop or Laptop","Windows 10","Chrome 114.0.0.0","1280x720","1280x720",NA,NA,NA,"JV Task P2",11,"Anxious",NA,"In",NA,NA,"CDBEAFKGJHI",NA,NA,"B (MDot First)",2,213,"SS1","SS1",12,"V","Fixation","68owkj",2,"continue","",965.725999999995,965.725999999995,965.725999999995,965.725999999995,965.725999999995,965.725999999995,1,965.725999999995,0,0,NA,"Fixation Timing","Fixation",1,"object-21","V","CFD-BF-029-031-S.jpeg",NA,"SUPTM50909"
"77",1689006688416,"10/07/2023 16:31:28",1689010288416,1,"10/07/2023 18:31:28",137495,33,"task-r1zi",NA,30600154,9085468,NA,"complete",NA,NA,"computer","Desktop or Laptop","Windows 10","Chrome 114.0.0.0","1280x720","1280x720",NA,NA,NA,"JV Task P2",11,"Anxious",NA,"In",NA,NA,"CDBEAFKGJHI",NA,NA,"B (MDot First)",2,213,"SS1","SS1",13,"V","Valence","xyoebq",1,"continue","",3697.70299995232,3680.70600000001,3697.70299995232,3697.70299995232,3680.70600000001,3697.70299995232,1,3697.70299995232,0,0,NA,"Click To Continue","Continue Button",1,"object-25","V","CFD-WM-028-003-N.jpg",NA,"SUPTM50909"
"78",1689006688416,"10/07/2023 16:31:28",1689010288416,1,"10/07/2023 18:31:28",137495,33,"task-r1zi",NA,30600154,9085468,NA,"complete",NA,NA,"computer","Desktop or Laptop","Windows 10","Chrome 114.0.0.0","1280x720","1280x720",NA,NA,NA,"JV Task P2",11,"Anxious",NA,"In",NA,NA,"CDBEAFKGJHI",NA,NA,"B (MDot First)",2,213,"SS1","SS1",13,"V","Valence","xyoebq",1,"response","34",3080.77600000001,3680.70600000001,3697.79400000001,3080.77600000001,3680.70600000001,3697.79400000001,1,3080.77600000001,617.017999999996,0,NA,"Slider","J",3,"object-27","V","CFD-WM-028-003-N.jpg",NA,"SUPTM50909"
"79",1689006689365,"10/07/2023 16:31:29",1689010289365,1,"10/07/2023 18:31:29",137495,33,"task-r1zi",NA,30600154,9085468,NA,"complete",NA,NA,"computer","Desktop or Laptop","Windows 10","Chrome 114.0.0.0","1280x720","1280x720",NA,NA,NA,"JV Task P2",11,"Anxious",NA,"In",NA,NA,"CDBEAFKGJHI",NA,NA,"B (MDot First)",2,213,"SS1","SS1",13,"V","Fixation","68owkj",2,"continue","",965.645000000004,965.645000000004,965.645000000004,965.645000000004,965.645000000004,965.645000000004,1,965.645000000004,0,0,NA,"Fixation Timing","Fixation",1,"object-21","V","CFD-WM-028-003-N.jpg",NA,"SUPTM50909"
"80",1689006693067,"10/07/2023 16:31:33",1689010293067,1,"10/07/2023 18:31:33",137495,33,"task-r1zi",NA,30600154,9085468,NA,"complete",NA,NA,"computer","Desktop or Laptop","Windows 10","Chrome 114.0.0.0","1280x720","1280x720",NA,NA,NA,"JV Task P2",11,"Anxious",NA,"In",NA,NA,"CDBEAFKGJHI",NA,NA,"B (MDot First)",2,213,"SS1","SS1",14,"J","Judginess","y8ii7g",1,"continue","",3702.85199995231,3697.057,3702.85199995231,3702.85199995231,3697.057,3702.85199995231,1,3702.85199995231,0,0,NA,"Click To Continue","Continue Button",1,"object-14","J","CFD-AM-225-102-N.jpg",NA,"SUPTM50909"
"81",1689006693068,"10/07/2023 16:31:33",1689010293068,1,"10/07/2023 18:31:33",137495,33,"task-r1zi",NA,30600154,9085468,NA,"complete",NA,NA,"computer","Desktop or Laptop","Windows 10","Chrome 114.0.0.0","1280x720","1280x720",NA,NA,NA,"JV Task P2",11,"Anxious",NA,"In",NA,NA,"CDBEAFKGJHI",NA,NA,"B (MDot First)",2,213,"SS1","SS1",14,"J","Judginess","y8ii7g",1,"response","45",2981.012,3697.057,3703.35199995231,2981.012,3697.057,3703.35199995231,1,2981.012,722.33999995231,0,NA,"Slider","J",3,"object-18","J","CFD-AM-225-102-N.jpg",NA,"SUPTM50909"
"82",1689006694028,"10/07/2023 16:31:34",1689010294028,1,"10/07/2023 18:31:34",137495,33,"task-r1zi",NA,30600154,9085468,NA,"complete",NA,NA,"computer","Desktop or Laptop","Windows 10","Chrome 114.0.0.0","1280x720","1280x720",NA,NA,NA,"JV Task P2",11,"Anxious",NA,"In",NA,NA,"CDBEAFKGJHI",NA,NA,"B (MDot First)",2,213,"SS1","SS1",14,"J","Fixation","w9zir9",2,"continue","",965.648000000001,965.648000000001,965.648000000001,965.648000000001,965.648000000001,965.648000000001,1,965.648000000001,0,0,NA,"Fixation Timing","Fixation",1,"object-65","J","CFD-AM-225-102-N.jpg",NA,"SUPTM50909"
"83",1689006696489,"10/07/2023 16:31:36",1689010296489,1,"10/07/2023 18:31:36",137495,33,"task-r1zi",NA,30600154,9085468,NA,"complete",NA,NA,"computer","Desktop or Laptop","Windows 10","Chrome 114.0.0.0","1280x720","1280x720",NA,NA,NA,"JV Task P2",11,"Anxious",NA,"In",NA,NA,"CDBEAFKGJHI",NA,NA,"B (MDot First)",2,213,"SS1","SS1",15,"J","Judginess","y8ii7g",1,"continue","",2461.94699990463,2447.965,2461.94699990463,2461.94699990463,2447.965,2461.94699990463,1,2461.94699990463,0,0,NA,"Click To Continue","Continue Button",1,"object-14","J","CFD-MF-309-002-N.jpg",NA,"SUPTM50909"
"84",1689006696489,"10/07/2023 16:31:36",1689010296489,1,"10/07/2023 18:31:36",137495,33,"task-r1zi",NA,30600154,9085468,NA,"complete",NA,NA,"computer","Desktop or Laptop","Windows 10","Chrome 114.0.0.0","1280x720","1280x720",NA,NA,NA,"JV Task P2",11,"Anxious",NA,"In",NA,NA,"CDBEAFKGJHI",NA,NA,"B (MDot First)",2,213,"SS1","SS1",15,"J","Judginess","y8ii7g",1,"response","43",1731.81199999999,2447.965,2462.24700009536,1731.81199999999,2447.965,2462.24700009536,1,1731.81199999999,730.435000095371,0,NA,"Slider","J",3,"object-18","J","CFD-MF-309-002-N.jpg",NA,"SUPTM50909"
"85",1689006697441,"10/07/2023 16:31:37",1689010297441,1,"10/07/2023 18:31:37",137495,33,"task-r1zi",NA,30600154,9085468,NA,"complete",NA,NA,"computer","Desktop or Laptop","Windows 10","Chrome 114.0.0.0","1280x720","1280x720",NA,NA,NA,"JV Task P2",11,"Anxious",NA,"In",NA,NA,"CDBEAFKGJHI",NA,NA,"B (MDot First)",2,213,"SS1","SS1",15,"J","Fixation","w9zir9",2,"continue","",965.877999999997,965.877999999997,965.877999999997,965.877999999997,965.877999999997,965.877999999997,1,965.877999999997,0,0,NA,"Fixation Timing","Fixation",1,"object-65","J","CFD-MF-309-002-N.jpg",NA,"SUPTM50909"
"86",1689006699815,"10/07/2023 16:31:39",1689010299815,1,"10/07/2023 18:31:39",137495,33,"task-r1zi",NA,30600154,9085468,NA,"complete",NA,NA,"computer","Desktop or Laptop","Windows 10","Chrome 114.0.0.0","1280x720","1280x720",NA,NA,NA,"JV Task P2",11,"Anxious",NA,"In",NA,NA,"CDBEAFKGJHI",NA,NA,"B (MDot First)",2,213,"SS1","SS1",16,"J","Judginess","y8ii7g",1,"continue","",2374.40400009537,2364.98,2374.40400009537,2374.40400009537,2364.98,2374.40400009537,1,2374.40400009537,0,0,NA,"Click To Continue","Continue Button",1,"object-14","J","CFD-AM-223-138-H.jpeg",NA,"SUPTM50909"
"87",1689006699816,"10/07/2023 16:31:39",1689010299816,1,"10/07/2023 18:31:39",137495,33,"task-r1zi",NA,30600154,9085468,NA,"complete",NA,NA,"computer","Desktop or Laptop","Windows 10","Chrome 114.0.0.0","1280x720","1280x720",NA,NA,NA,"JV Task P2",11,"Anxious",NA,"In",NA,NA,"CDBEAFKGJHI",NA,NA,"B (MDot First)",2,213,"SS1","SS1",16,"J","Judginess","y8ii7g",1,"response","72",1532.10600000001,2364.98,2374.70400004768,1532.10600000001,2364.98,2374.70400004768,1,1532.10600000001,842.59800004767,0,NA,"Slider","J",3,"object-18","J","CFD-AM-223-138-H.jpeg",NA,"SUPTM50909"
"88",1689006700773,"10/07/2023 16:31:40",1689010300773,1,"10/07/2023 18:31:40",137495,33,"task-r1zi",NA,30600154,9085468,NA,"complete",NA,NA,"computer","Desktop or Laptop","Windows 10","Chrome 114.0.0.0","1280x720","1280x720",NA,NA,NA,"JV Task P2",11,"Anxious",NA,"In",NA,NA,"CDBEAFKGJHI",NA,NA,"B (MDot First)",2,213,"SS1","SS1",16,"J","Fixation","w9zir9",2,"continue","",965.807000000001,965.807000000001,965.807000000001,965.807000000001,965.807000000001,965.807000000001,1,965.807000000001,0,0,NA,"Fixation Timing","Fixation",1,"object-65","J","CFD-AM-223-138-H.jpeg",NA,"SUPTM50909"
"89",1689006702978,"10/07/2023 16:31:42",1689010302978,1,"10/07/2023 18:31:42",137495,33,"task-r1zi",NA,30600154,9085468,NA,"complete",NA,NA,"computer","Desktop or Laptop","Windows 10","Chrome 114.0.0.0","1280x720","1280x720",NA,NA,NA,"JV Task P2",11,"Anxious",NA,"In",NA,NA,"CDBEAFKGJHI",NA,NA,"B (MDot First)",2,213,"SS1","SS1",14,"V","Valence","xyoebq",1,"continue","",2205.91700004769,2198.035,2205.91700004769,2205.91700004769,2198.035,2205.91700004769,1,2205.91700004769,0,0,NA,"Click To Continue","Continue Button",1,"object-25","V","CFD-IF-693-172-H.jpeg",NA,"SUPTM50909"
"90",1689006702978,"10/07/2023 16:31:42",1689010302978,1,"10/07/2023 18:31:42",137495,33,"task-r1zi",NA,30600154,9085468,NA,"complete",NA,NA,"computer","Desktop or Laptop","Windows 10","Chrome 114.0.0.0","1280x720","1280x720",NA,NA,NA,"JV Task P2",11,"Anxious",NA,"In",NA,NA,"CDBEAFKGJHI",NA,NA,"B (MDot First)",2,213,"SS1","SS1",14,"V","Valence","xyoebq",1,"response","78",1415.41099999999,2198.035,2206.217,1415.41099999999,2198.035,2206.217,1,1415.41099999999,790.806000000011,0,NA,"Slider","J",3,"object-27","V","CFD-IF-693-172-H.jpeg",NA,"SUPTM50909"
"91",1689006703936,"10/07/2023 16:31:43",1689010303936,1,"10/07/2023 18:31:43",137495,33,"task-r1zi",NA,30600154,9085468,NA,"complete",NA,NA,"computer","Desktop or Laptop","Windows 10","Chrome 114.0.0.0","1280x720","1280x720",NA,NA,NA,"JV Task P2",11,"Anxious",NA,"In",NA,NA,"CDBEAFKGJHI",NA,NA,"B (MDot First)",2,213,"SS1","SS1",14,"V","Fixation","68owkj",2,"continue","",965.752999999997,965.752999999997,965.752999999997,965.752999999997,965.752999999997,965.752999999997,1,965.752999999997,0,0,NA,"Fixation Timing","Fixation",1,"object-21","V","CFD-IF-693-172-H.jpeg",NA,"SUPTM50909"
"92",1689006708223,"10/07/2023 16:31:48",1689010308223,1,"10/07/2023 18:31:48",137495,33,"task-r1zi",NA,30600154,9085468,NA,"complete",NA,NA,"computer","Desktop or Laptop","Windows 10","Chrome 114.0.0.0","1280x720","1280x720",NA,NA,NA,"JV Task P2",11,"Anxious",NA,"In",NA,NA,"CDBEAFKGJHI",NA,NA,"B (MDot First)",2,213,"SS1","SS1",17,"J","Judginess","y8ii7g",1,"continue","",4287.12900004769,4280.08499999999,4287.12900004769,4287.12900004769,4280.08499999999,4287.12900004769,1,4287.12900004769,0,0,NA,"Click To Continue","Continue Button",1,"object-14","J","CFD-WF-039-025-N.jpg",NA,"SUPTM50909"
"93",1689006708229,"10/07/2023 16:31:48",1689010308229,1,"10/07/2023 18:31:48",137495,33,"task-r1zi",NA,30600154,9085468,NA,"complete",NA,NA,"computer","Desktop or Laptop","Windows 10","Chrome 114.0.0.0","1280x720","1280x720",NA,NA,NA,"JV Task P2",11,"Anxious",NA,"In",NA,NA,"CDBEAFKGJHI",NA,NA,"B (MDot First)",2,213,"SS1","SS1",17,"J","Judginess","y8ii7g",1,"response","65",3164.35200000001,4280.08499999999,4293.02899990464,3164.35200000001,4280.08499999999,4293.02899990464,1,3164.35200000001,1128.67699990462,0,NA,"Slider","J",3,"object-18","J","CFD-WF-039-025-N.jpg",NA,"SUPTM50909"
"94",1689006709182,"10/07/2023 16:31:49",1689010309182,1,"10/07/2023 18:31:49",137495,33,"task-r1zi",NA,30600154,9085468,NA,"complete",NA,NA,"computer","Desktop or Laptop","Windows 10","Chrome 114.0.0.0","1280x720","1280x720",NA,NA,NA,"JV Task P2",11,"Anxious",NA,"In",NA,NA,"CDBEAFKGJHI",NA,NA,"B (MDot First)",2,213,"SS1","SS1",17,"J","Fixation","w9zir9",2,"continue","",965.854000000021,965.854000000021,965.854000000021,965.854000000021,965.854000000021,965.854000000021,1,965.854000000021,0,0,NA,"Fixation Timing","Fixation",1,"object-65","J","CFD-WF-039-025-N.jpg",NA,"SUPTM50909"
"95",1689006712266,"10/07/2023 16:31:52",1689010312266,1,"10/07/2023 18:31:52",137495,33,"task-r1zi",NA,30600154,9085468,NA,"complete",NA,NA,"computer","Desktop or Laptop","Windows 10","Chrome 114.0.0.0","1280x720","1280x720",NA,NA,NA,"JV Task P2",11,"Anxious",NA,"In",NA,NA,"CDBEAFKGJHI",NA,NA,"B (MDot First)",2,213,"SS1","SS1",15,"V","Valence","xyoebq",1,"continue","",3084.89000009536,3080.89599999998,3084.89000009536,3084.89000009536,3080.89599999998,3084.89000009536,1,3084.89000009536,0,0,NA,"Click To Continue","Continue Button",1,"object-25","V","CFD-IM-711-011-S.jpeg",NA,"SUPTM50909"
"96",1689006712267,"10/07/2023 16:31:52",1689010312267,1,"10/07/2023 18:31:52",137495,33,"task-r1zi",NA,30600154,9085468,NA,"complete",NA,NA,"computer","Desktop or Laptop","Windows 10","Chrome 114.0.0.0","1280x720","1280x720",NA,NA,NA,"JV Task P2",11,"Anxious",NA,"In",NA,NA,"CDBEAFKGJHI",NA,NA,"B (MDot First)",2,213,"SS1","SS1",15,"V","Valence","xyoebq",1,"response","36",1748.50099999999,3080.89599999998,3085.19000004767,1748.50099999999,3080.89599999998,3085.19000004767,1,1748.50099999999,1336.68900004769,0,NA,"Slider","J",3,"object-27","V","CFD-IM-711-011-S.jpeg",NA,"SUPTM50909"
"97",1689006713229,"10/07/2023 16:31:53",1689010313229,1,"10/07/2023 18:31:53",137495,33,"task-r1zi",NA,30600154,9085468,NA,"complete",NA,NA,"computer","Desktop or Laptop","Windows 10","Chrome 114.0.0.0","1280x720","1280x720",NA,NA,NA,"JV Task P2",11,"Anxious",NA,"In",NA,NA,"CDBEAFKGJHI",NA,NA,"B (MDot First)",2,213,"SS1","SS1",15,"V","Fixation","68owkj",2,"continue","",965.823000000004,965.823000000004,965.823000000004,965.823000000004,965.823000000004,965.823000000004,1,965.823000000004,0,0,NA,"Fixation Timing","Fixation",1,"object-21","V","CFD-IM-711-011-S.jpeg",NA,"SUPTM50909"
"98",1689006718227,"10/07/2023 16:31:58",1689010318227,1,"10/07/2023 18:31:58",137495,33,"task-r1zi",NA,30600154,9085468,NA,"complete",NA,NA,"computer","Desktop or Laptop","Windows 10","Chrome 114.0.0.0","1280x720","1280x720",NA,NA,NA,"JV Task P2",11,"Anxious",NA,"In",NA,NA,"CDBEAFKGJHI",NA,NA,"B (MDot First)",2,213,"SS1","SS1",18,"J","Judginess","y8ii7g",1,"continue","",4999.27100000001,4995.89300000001,4999.27100000001,4999.27100000001,4995.89300000001,4999.27100000001,1,4999.27100000001,0,0,NA,"Click To Continue","Continue Button",1,"object-14","J","CFD-WF-030-002-N.jpg",NA,"SUPTM50909"
"99",1689006718231,"10/07/2023 16:31:58",1689010318231,1,"10/07/2023 18:31:58",137495,33,"task-r1zi",NA,30600154,9085468,NA,"complete",NA,NA,"computer","Desktop or Laptop","Windows 10","Chrome 114.0.0.0","1280x720","1280x720",NA,NA,NA,"JV Task P2",11,"Anxious",NA,"In",NA,NA,"CDBEAFKGJHI",NA,NA,"B (MDot First)",2,213,"SS1","SS1",18,"J","Judginess","y8ii7g",1,"response","59",3630.29000000001,4995.89300000001,5002.97100004769,3630.29000000001,4995.89300000001,5002.97100004769,1,3630.29000000001,1372.68100004768,0,NA,"Slider","J",3,"object-18","J","CFD-WF-030-002-N.jpg",NA,"SUPTM50909"
"100",1689006719191,"10/07/2023 16:31:59",1689010319191,1,"10/07/2023 18:31:59",137495,33,"task-r1zi",NA,30600154,9085468,NA,"complete",NA,NA,"computer","Desktop or Laptop","Windows 10","Chrome 114.0.0.0","1280x720","1280x720",NA,NA,NA,"JV Task P2",11,"Anxious",NA,"In",NA,NA,"CDBEAFKGJHI",NA,NA,"B (MDot First)",2,213,"SS1","SS1",18,"J","Fixation","w9zir9",2,"continue","",965.924999999988,965.924999999988,965.924999999988,965.924999999988,965.924999999988,965.924999999988,1,965.924999999988,0,0,NA,"Fixation Timing","Fixation",1,"object-65","J","CFD-WF-030-002-N.jpg",NA,"SUPTM50909"
"101",1689006722586,"10/07/2023 16:32:02",1689010322586,1,"10/07/2023 18:32:02",137495,33,"task-r1zi",NA,30600154,9085468,NA,"complete",NA,NA,"computer","Desktop or Laptop","Windows 10","Chrome 114.0.0.0","1280x720","1280x720",NA,NA,NA,"JV Task P2",11,"Anxious",NA,"In",NA,NA,"CDBEAFKGJHI",NA,NA,"B (MDot First)",2,213,"SS1","SS1",19,"J","Judginess","y8ii7g",1,"continue","",3395.85300009538,3380.264,3395.85300009538,3395.85300009538,3380.264,3395.85300009538,1,3395.85300009538,0,0,NA,"Click To Continue","Continue Button",1,"object-14","J","CFD-MM-313-002-N.jpg",NA,"SUPTM50909"
"102",1689006722586,"10/07/2023 16:32:02",1689010322586,1,"10/07/2023 18:32:02",137495,33,"task-r1zi",NA,30600154,9085468,NA,"complete",NA,NA,"computer","Desktop or Laptop","Windows 10","Chrome 114.0.0.0","1280x720","1280x720",NA,NA,NA,"JV Task P2",11,"Anxious",NA,"In",NA,NA,"CDBEAFKGJHI",NA,NA,"B (MDot First)",2,213,"SS1","SS1",19,"J","Judginess","y8ii7g",1,"response","73",1515.353,3380.264,3396.05299990464,1515.353,3380.264,3396.05299990464,1,1515.353,1880.69999990464,0,NA,"Slider","J",3,"object-18","J","CFD-MM-313-002-N.jpg",NA,"SUPTM50909"
"103",1689006723537,"10/07/2023 16:32:03",1689010323537,1,"10/07/2023 18:32:03",137495,33,"task-r1zi",NA,30600154,9085468,NA,"complete",NA,NA,"computer","Desktop or Laptop","Windows 10","Chrome 114.0.0.0","1280x720","1280x720",NA,NA,NA,"JV Task P2",11,"Anxious",NA,"In",NA,NA,"CDBEAFKGJHI",NA,NA,"B (MDot First)",2,213,"SS1","SS1",19,"J","Fixation","w9zir9",2,"continue","",966.054000000004,966.054000000004,966.054000000004,966.054000000004,966.054000000004,966.054000000004,1,966.054000000004,0,0,NA,"Fixation Timing","Fixation",1,"object-65","J","CFD-MM-313-002-N.jpg",NA,"SUPTM50909"
"104",1689006727595,"10/07/2023 16:32:07",1689010327595,1,"10/07/2023 18:32:07",137495,33,"task-r1zi",NA,30600154,9085468,NA,"complete",NA,NA,"computer","Desktop or Laptop","Windows 10","Chrome 114.0.0.0","1280x720","1280x720",NA,NA,NA,"JV Task P2",11,"Anxious",NA,"In",NA,NA,"CDBEAFKGJHI",NA,NA,"B (MDot First)",2,213,"SS1","SS1",20,"J","Judginess","y8ii7g",1,"continue","",4058.43499995233,4046.50200000001,4058.43499995233,4058.43499995233,4046.50200000001,4058.43499995233,1,4058.43499995233,0,0,NA,"Click To Continue","Continue Button",1,"object-14","J","CFD-WM-031-003-N.jpg",NA,"SUPTM50909"
"105",1689006727596,"10/07/2023 16:32:07",1689010327596,1,"10/07/2023 18:32:07",137495,33,"task-r1zi",NA,30600154,9085468,NA,"complete",NA,NA,"computer","Desktop or Laptop","Windows 10","Chrome 114.0.0.0","1280x720","1280x720",NA,NA,NA,"JV Task P2",11,"Anxious",NA,"In",NA,NA,"CDBEAFKGJHI",NA,NA,"B (MDot First)",2,213,"SS1","SS1",20,"J","Judginess","y8ii7g",1,"response","57",3463.73500000002,4046.50200000001,4059.63500000001,3463.73500000002,4046.50200000001,4059.63500000001,1,3463.73500000002,595.899999999994,0,NA,"Slider","J",3,"object-18","J","CFD-WM-031-003-N.jpg",NA,"SUPTM50909"
"106",1689006728549,"10/07/2023 16:32:08",1689010328549,1,"10/07/2023 18:32:08",137495,33,"task-r1zi",NA,30600154,9085468,NA,"complete",NA,NA,"computer","Desktop or Laptop","Windows 10","Chrome 114.0.0.0","1280x720","1280x720",NA,NA,NA,"JV Task P2",11,"Anxious",NA,"In",NA,NA,"CDBEAFKGJHI",NA,NA,"B (MDot First)",2,213,"SS1","SS1",20,"J","Fixation","w9zir9",2,"continue","",965.907999999996,965.907999999996,965.907999999996,965.907999999996,965.907999999996,965.907999999996,1,965.907999999996,0,0,NA,"Fixation Timing","Fixation",1,"object-65","J","CFD-WM-031-003-N.jpg",NA,"SUPTM50909"
"107",1689006731725,"10/07/2023 16:32:11",1689010331725,1,"10/07/2023 18:32:11",137495,33,"task-r1zi",NA,30600154,9085468,NA,"complete",NA,NA,"computer","Desktop or Laptop","Windows 10","Chrome 114.0.0.0","1280x720","1280x720",NA,NA,NA,"JV Task P2",11,"Anxious",NA,"In",NA,NA,"CDBEAFKGJHI",NA,NA,"B (MDot First)",2,213,"SS1","SS1",21,"J","Judginess","y8ii7g",1,"continue","",3175.62500009537,3164.242,3175.62500009537,3175.62500009537,3164.242,3175.62500009537,1,3175.62500009537,0,0,NA,"Click To Continue","Continue Button",1,"object-14","J","CFD-WM-024-015-S.jpeg",NA,"SUPTM50909"
"108",1689006731725,"10/07/2023 16:32:11",1689010331725,1,"10/07/2023 18:32:11",137495,33,"task-r1zi",NA,30600154,9085468,NA,"complete",NA,NA,"computer","Desktop or Laptop","Windows 10","Chrome 114.0.0.0","1280x720","1280x720",NA,NA,NA,"JV Task P2",11,"Anxious",NA,"In",NA,NA,"CDBEAFKGJHI",NA,NA,"B (MDot First)",2,213,"SS1","SS1",21,"J","Judginess","y8ii7g",1,"response","39",1665.505,3164.242,3175.92500004769,1665.505,3164.242,3175.92500004769,1,1665.505,1510.42000004768,0,NA,"Slider","J",3,"object-18","J","CFD-WM-024-015-S.jpeg",NA,"SUPTM50909"
"109",1689006732679,"10/07/2023 16:32:12",1689010332679,1,"10/07/2023 18:32:12",137495,33,"task-r1zi",NA,30600154,9085468,NA,"complete",NA,NA,"computer","Desktop or Laptop","Windows 10","Chrome 114.0.0.0","1280x720","1280x720",NA,NA,NA,"JV Task P2",11,"Anxious",NA,"In",NA,NA,"CDBEAFKGJHI",NA,NA,"B (MDot First)",2,213,"SS1","SS1",21,"J","Fixation","w9zir9",2,"continue","",965.554000000004,965.554000000004,965.554000000004,965.554000000004,965.554000000004,965.554000000004,1,965.554000000004,0,0,NA,"Fixation Timing","Fixation",1,"object-65","J","CFD-WM-024-015-S.jpeg",NA,"SUPTM50909"
"110",1689006735817,"10/07/2023 16:32:15",1689010335817,1,"10/07/2023 18:32:15",137495,33,"task-r1zi",NA,30600154,9085468,NA,"complete",NA,NA,"computer","Desktop or Laptop","Windows 10","Chrome 114.0.0.0","1280x720","1280x720",NA,NA,NA,"JV Task P2",11,"Anxious",NA,"In",NA,NA,"CDBEAFKGJHI",NA,NA,"B (MDot First)",2,213,"SS1","SS1",22,"J","Judginess","y8ii7g",1,"continue","",3138.12900004769,3131.07800000001,3138.12900004769,3138.12900004769,3131.07800000001,3138.12900004769,1,3138.12900004769,0,0,NA,"Click To Continue","Continue Button",1,"object-14","J","CFD-BF-008-001-H.jpeg",NA,"SUPTM50909"
"111",1689006735817,"10/07/2023 16:32:15",1689010335817,1,"10/07/2023 18:32:15",137495,33,"task-r1zi",NA,30600154,9085468,NA,"complete",NA,NA,"computer","Desktop or Laptop","Windows 10","Chrome 114.0.0.0","1280x720","1280x720",NA,NA,NA,"JV Task P2",11,"Anxious",NA,"In",NA,NA,"CDBEAFKGJHI",NA,NA,"B (MDot First)",2,213,"SS1","SS1",22,"J","Judginess","y8ii7g",1,"response","66",2464.644,3131.07800000001,3138.62900004769,2464.644,3131.07800000001,3138.62900004769,1,2464.644,673.985000047687,0,NA,"Slider","J",3,"object-18","J","CFD-BF-008-001-H.jpeg",NA,"SUPTM50909"
"112",1689006736776,"10/07/2023 16:32:16",1689010336776,1,"10/07/2023 18:32:16",137495,33,"task-r1zi",NA,30600154,9085468,NA,"complete",NA,NA,"computer","Desktop or Laptop","Windows 10","Chrome 114.0.0.0","1280x720","1280x720",NA,NA,NA,"JV Task P2",11,"Anxious",NA,"In",NA,NA,"CDBEAFKGJHI",NA,NA,"B (MDot First)",2,213,"SS1","SS1",22,"J","Fixation","w9zir9",2,"continue","",965.870999999985,965.870999999985,965.870999999985,965.870999999985,965.870999999985,965.870999999985,1,965.870999999985,0,0,NA,"Fixation Timing","Fixation",1,"object-65","J","CFD-BF-008-001-H.jpeg",NA,"SUPTM50909"
"113",1689006740319,"10/07/2023 16:32:20",1689010340319,1,"10/07/2023 18:32:20",137495,33,"task-r1zi",NA,30600154,9085468,NA,"complete",NA,NA,"computer","Desktop or Laptop","Windows 10","Chrome 114.0.0.0","1280x720","1280x720",NA,NA,NA,"JV Task P2",11,"Anxious",NA,"In",NA,NA,"CDBEAFKGJHI",NA,NA,"B (MDot First)",2,213,"SS1","SS1",16,"V","Valence","xyoebq",1,"continue","",3543.68000004769,3530.23300000001,3543.68000004769,3543.68000004769,3530.23300000001,3543.68000004769,1,3543.68000004769,0,0,NA,"Click To Continue","Continue Button",1,"object-25","V","CFD-WM-034-030-N.jpg",NA,"SUPTM50909"
"114",1689006740323,"10/07/2023 16:32:20",1689010340323,1,"10/07/2023 18:32:20",137495,33,"task-r1zi",NA,30600154,9085468,NA,"complete",NA,NA,"computer","Desktop or Laptop","Windows 10","Chrome 114.0.0.0","1280x720","1280x720",NA,NA,NA,"JV Task P2",11,"Anxious",NA,"In",NA,NA,"CDBEAFKGJHI",NA,NA,"B (MDot First)",2,213,"SS1","SS1",16,"V","Valence","xyoebq",1,"response","39",2697.57700000002,3530.23300000001,3546.56599999999,2697.57700000002,3530.23300000001,3546.56599999999,1,2697.57700000002,848.988999999972,0,NA,"Slider","J",3,"object-27","V","CFD-WM-034-030-N.jpg",NA,"SUPTM50909"
"115",1689006741273,"10/07/2023 16:32:21",1689010341273,1,"10/07/2023 18:32:21",137495,33,"task-r1zi",NA,30600154,9085468,NA,"complete",NA,NA,"computer","Desktop or Laptop","Windows 10","Chrome 114.0.0.0","1280x720","1280x720",NA,NA,NA,"JV Task P2",11,"Anxious",NA,"In",NA,NA,"CDBEAFKGJHI",NA,NA,"B (MDot First)",2,213,"SS1","SS1",16,"V","Fixation","68owkj",2,"continue","",966.092000000004,966.092000000004,966.092000000004,966.092000000004,966.092000000004,966.092000000004,1,966.092000000004,0,0,NA,"Fixation Timing","Fixation",1,"object-21","V","CFD-WM-034-030-N.jpg",NA,"SUPTM50909"
"116",1689006744154,"10/07/2023 16:32:24",1689010344154,1,"10/07/2023 18:32:24",137495,33,"task-r1zi",NA,30600154,9085468,NA,"complete",NA,NA,"computer","Desktop or Laptop","Windows 10","Chrome 114.0.0.0","1280x720","1280x720",NA,NA,NA,"JV Task P2",11,"Anxious",NA,"In",NA,NA,"CDBEAFKGJHI",NA,NA,"B (MDot First)",2,213,"SS1","SS1",23,"J","Judginess","y8ii7g",1,"continue","",2882.45499995232,2880.723,2882.45499995232,2882.45499995232,2880.723,2882.45499995232,1,2882.45499995232,0,0,NA,"Click To Continue","Continue Button",1,"object-14","J","CFD-BF-030-002-S.jpeg",NA,"SUPTM50909"
"117",1689006744155,"10/07/2023 16:32:24",1689010344155,1,"10/07/2023 18:32:24",137495,33,"task-r1zi",NA,30600154,9085468,NA,"complete",NA,NA,"computer","Desktop or Laptop","Windows 10","Chrome 114.0.0.0","1280x720","1280x720",NA,NA,NA,"JV Task P2",11,"Anxious",NA,"In",NA,NA,"CDBEAFKGJHI",NA,NA,"B (MDot First)",2,213,"SS1","SS1",23,"J","Judginess","y8ii7g",1,"response","40",2181.24100000001,2880.723,2882.655,2181.24100000001,2880.723,2882.655,1,2181.24100000001,701.41399999999,0,NA,"Slider","J",3,"object-18","J","CFD-BF-030-002-S.jpeg",NA,"SUPTM50909"
"118",1689006745119,"10/07/2023 16:32:25",1689010345119,1,"10/07/2023 18:32:25",137495,33,"task-r1zi",NA,30600154,9085468,NA,"complete",NA,NA,"computer","Desktop or Laptop","Windows 10","Chrome 114.0.0.0","1280x720","1280x720",NA,NA,NA,"JV Task P2",11,"Anxious",NA,"In",NA,NA,"CDBEAFKGJHI",NA,NA,"B (MDot First)",2,213,"SS1","SS1",23,"J","Fixation","w9zir9",2,"continue","",965.888999999996,965.888999999996,965.888999999996,965.888999999996,965.888999999996,965.888999999996,1,965.888999999996,0,0,NA,"Fixation Timing","Fixation",1,"object-65","J","CFD-BF-030-002-S.jpeg",NA,"SUPTM50909"
"119",1689006747281,"10/07/2023 16:32:27",1689010347281,1,"10/07/2023 18:32:27",137495,33,"task-r1zi",NA,30600154,9085468,NA,"complete",NA,NA,"computer","Desktop or Laptop","Windows 10","Chrome 114.0.0.0","1280x720","1280x720",NA,NA,NA,"JV Task P2",11,"Anxious",NA,"In",NA,NA,"CDBEAFKGJHI",NA,NA,"B (MDot First)",2,213,"SS1","SS1",24,"J","Judginess","y8ii7g",1,"continue","",2162.14299990464,2148.39800000002,2162.14299990464,2162.14299990464,2148.39800000002,2162.14299990464,1,2162.14299990464,0,0,NA,"Click To Continue","Continue Button",1,"object-14","J","CFD-WM-025-002-H.jpeg",NA,"SUPTM50909"
"120",1689006747281,"10/07/2023 16:32:27",1689010347281,1,"10/07/2023 18:32:27",137495,33,"task-r1zi",NA,30600154,9085468,NA,"complete",NA,NA,"computer","Desktop or Laptop","Windows 10","Chrome 114.0.0.0","1280x720","1280x720",NA,NA,NA,"JV Task P2",11,"Anxious",NA,"In",NA,NA,"CDBEAFKGJHI",NA,NA,"B (MDot First)",2,213,"SS1","SS1",24,"J","Judginess","y8ii7g",1,"response","70",1465.56299999999,2148.39800000002,2162.44300009537,1465.56299999999,2148.39800000002,2162.44300009537,1,1465.56299999999,696.880000095378,0,NA,"Slider","J",3,"object-18","J","CFD-WM-025-002-H.jpeg",NA,"SUPTM50909"
"121",1689006748233,"10/07/2023 16:32:28",1689010348233,1,"10/07/2023 18:32:28",137495,33,"task-r1zi",NA,30600154,9085468,NA,"complete",NA,NA,"computer","Desktop or Laptop","Windows 10","Chrome 114.0.0.0","1280x720","1280x720",NA,NA,NA,"JV Task P2",11,"Anxious",NA,"In",NA,NA,"CDBEAFKGJHI",NA,NA,"B (MDot First)",2,213,"SS1","SS1",24,"J","Fixation","w9zir9",2,"continue","",965.889999999985,965.889999999985,965.889999999985,965.889999999985,965.889999999985,965.889999999985,1,965.889999999985,0,0,NA,"Fixation Timing","Fixation",1,"object-65","J","CFD-WM-025-002-H.jpeg",NA,"SUPTM50909"
"122",1689006750809,"10/07/2023 16:32:30",1689010350809,1,"10/07/2023 18:32:30",137495,33,"task-r1zi",NA,30600154,9085468,NA,"complete",NA,NA,"computer","Desktop or Laptop","Windows 10","Chrome 114.0.0.0","1280x720","1280x720",NA,NA,NA,"JV Task P2",11,"Anxious",NA,"In",NA,NA,"CDBEAFKGJHI",NA,NA,"B (MDot First)",2,213,"SS1","SS1",25,"J","Judginess","y8ii7g",1,"continue","",2575.95500004769,2564.53599999999,2575.95500004769,2575.95500004769,2564.53599999999,2575.95500004769,1,2575.95500004769,0,0,NA,"Click To Continue","Continue Button",1,"object-14","J","CFD-WF-036-023-N.jpg",NA,"SUPTM50909"
"123",1689006750814,"10/07/2023 16:32:30",1689010350814,1,"10/07/2023 18:32:30",137495,33,"task-r1zi",NA,30600154,9085468,NA,"complete",NA,NA,"computer","Desktop or Laptop","Windows 10","Chrome 114.0.0.0","1280x720","1280x720",NA,NA,NA,"JV Task P2",11,"Anxious",NA,"In",NA,NA,"CDBEAFKGJHI",NA,NA,"B (MDot First)",2,213,"SS1","SS1",25,"J","Judginess","y8ii7g",1,"response","38",1681.86300000001,2564.53599999999,2581.18799999999,1681.86300000001,2564.53599999999,2581.18799999999,1,1681.86300000001,899.324999999983,0,NA,"Slider","J",3,"object-18","J","CFD-WF-036-023-N.jpg",NA,"SUPTM50909"
"124",1689006751764,"10/07/2023 16:32:31",1689010351764,1,"10/07/2023 18:32:31",137495,33,"task-r1zi",NA,30600154,9085468,NA,"complete",NA,NA,"computer","Desktop or Laptop","Windows 10","Chrome 114.0.0.0","1280x720","1280x720",NA,NA,NA,"JV Task P2",11,"Anxious",NA,"In",NA,NA,"CDBEAFKGJHI",NA,NA,"B (MDot First)",2,213,"SS1","SS1",25,"J","Fixation","w9zir9",2,"continue","",965.743000000017,965.743000000017,965.743000000017,965.743000000017,965.743000000017,965.743000000017,1,965.743000000017,0,0,NA,"Fixation Timing","Fixation",1,"object-65","J","CFD-WF-036-023-N.jpg",NA,"SUPTM50909"
"125",1689006754837,"10/07/2023 16:32:34",1689010354837,1,"10/07/2023 18:32:34",137495,33,"task-r1zi",NA,30600154,9085468,NA,"complete",NA,NA,"computer","Desktop or Laptop","Windows 10","Chrome 114.0.0.0","1280x720","1280x720",NA,NA,NA,"JV Task P2",11,"Anxious",NA,"In",NA,NA,"CDBEAFKGJHI",NA,NA,"B (MDot First)",2,213,"SS1","SS1",26,"J","Judginess","y8ii7g",1,"continue","",3073.67600004768,3064.31599999999,3073.67600004768,3073.67600004768,3064.31599999999,3073.67600004768,1,3073.67600004768,0,0,NA,"Click To Continue","Continue Button",1,"object-14","J","CFD-AM-220-134-H.jpeg",NA,"SUPTM50909"
"126",1689006754837,"10/07/2023 16:32:34",1689010354837,1,"10/07/2023 18:32:34",137495,33,"task-r1zi",NA,30600154,9085468,NA,"complete",NA,NA,"computer","Desktop or Laptop","Windows 10","Chrome 114.0.0.0","1280x720","1280x720",NA,NA,NA,"JV Task P2",11,"Anxious",NA,"In",NA,NA,"CDBEAFKGJHI",NA,NA,"B (MDot First)",2,213,"SS1","SS1",26,"J","Judginess","y8ii7g",1,"response","70",1732.128,3064.31599999999,3073.976,1732.128,3064.31599999999,3073.976,1,1732.128,1341.848,0,NA,"Slider","J",3,"object-18","J","CFD-AM-220-134-H.jpeg",NA,"SUPTM50909"
"127",1689006755794,"10/07/2023 16:32:35",1689010355794,1,"10/07/2023 18:32:35",137495,33,"task-r1zi",NA,30600154,9085468,NA,"complete",NA,NA,"computer","Desktop or Laptop","Windows 10","Chrome 114.0.0.0","1280x720","1280x720",NA,NA,NA,"JV Task P2",11,"Anxious",NA,"In",NA,NA,"CDBEAFKGJHI",NA,NA,"B (MDot First)",2,213,"SS1","SS1",26,"J","Fixation","w9zir9",2,"continue","",965.997999999992,965.997999999992,965.997999999992,965.997999999992,965.997999999992,965.997999999992,1,965.997999999992,0,0,NA,"Fixation Timing","Fixation",1,"object-65","J","CFD-AM-220-134-H.jpeg",NA,"SUPTM50909"
"128",1689006759882,"10/07/2023 16:32:39",1689010359882,1,"10/07/2023 18:32:39",137495,33,"task-r1zi",NA,30600154,9085468,NA,"complete",NA,NA,"computer","Desktop or Laptop","Windows 10","Chrome 114.0.0.0","1280x720","1280x720",NA,NA,NA,"JV Task P2",11,"Anxious",NA,"In",NA,NA,"CDBEAFKGJHI",NA,NA,"B (MDot First)",2,213,"SS1","SS1",17,"V","Valence","xyoebq",1,"continue","",4088.56200009538,4079.837,4088.56200009538,4088.56200009538,4079.837,4088.56200009538,1,4088.56200009538,0,0,NA,"Click To Continue","Continue Button",1,"object-25","V","CFD-WF-017-003-N.jpg",NA,"SUPTM50909"
"129",1689006759882,"10/07/2023 16:32:39",1689010359882,1,"10/07/2023 18:32:39",137495,33,"task-r1zi",NA,30600154,9085468,NA,"complete",NA,NA,"computer","Desktop or Laptop","Windows 10","Chrome 114.0.0.0","1280x720","1280x720",NA,NA,NA,"JV Task P2",11,"Anxious",NA,"In",NA,NA,"CDBEAFKGJHI",NA,NA,"B (MDot First)",2,213,"SS1","SS1",17,"V","Valence","xyoebq",1,"response","55",3363.758,4079.837,4088.86200004769,3363.758,4079.837,4088.86200004769,1,3363.758,725.104000047693,0,NA,"Slider","J",3,"object-27","V","CFD-WF-017-003-N.jpg",NA,"SUPTM50909"
"130",1689006760840,"10/07/2023 16:32:40",1689010360840,1,"10/07/2023 18:32:40",137495,33,"task-r1zi",NA,30600154,9085468,NA,"complete",NA,NA,"computer","Desktop or Laptop","Windows 10","Chrome 114.0.0.0","1280x720","1280x720",NA,NA,NA,"JV Task P2",11,"Anxious",NA,"In",NA,NA,"CDBEAFKGJHI",NA,NA,"B (MDot First)",2,213,"SS1","SS1",17,"V","Fixation","68owkj",2,"continue","",965.955000000016,965.955000000016,965.955000000016,965.955000000016,965.955000000016,965.955000000016,1,965.955000000016,0,0,NA,"Fixation Timing","Fixation",1,"object-21","V","CFD-WF-017-003-N.jpg",NA,"SUPTM50909"
"131",1689006763989,"10/07/2023 16:32:43",1689010363989,1,"10/07/2023 18:32:43",137495,33,"task-r1zi",NA,30600154,9085468,NA,"complete",NA,NA,"computer","Desktop or Laptop","Windows 10","Chrome 114.0.0.0","1280x720","1280x720",NA,NA,NA,"JV Task P2",11,"Anxious",NA,"In",NA,NA,"CDBEAFKGJHI",NA,NA,"B (MDot First)",2,213,"SS1","SS1",18,"V","Valence","xyoebq",1,"continue","",3150.07000004768,3147.397,3150.07000004768,3150.07000004768,3147.397,3150.07000004768,1,3150.07000004768,0,0,NA,"Click To Continue","Continue Button",1,"object-25","V","CFD-BM-045-004-N.jpg",NA,"SUPTM50909"
"132",1689006763990,"10/07/2023 16:32:43",1689010363990,1,"10/07/2023 18:32:43",137495,33,"task-r1zi",NA,30600154,9085468,NA,"complete",NA,NA,"computer","Desktop or Laptop","Windows 10","Chrome 114.0.0.0","1280x720","1280x720",NA,NA,NA,"JV Task P2",11,"Anxious",NA,"In",NA,NA,"CDBEAFKGJHI",NA,NA,"B (MDot First)",2,213,"SS1","SS1",18,"V","Valence","xyoebq",1,"response","37",2331.43599999999,3147.397,3150.37,2331.43599999999,3147.397,3150.37,1,2331.43599999999,818.934000000008,0,NA,"Slider","J",3,"object-27","V","CFD-BM-045-004-N.jpg",NA,"SUPTM50909"
"133",1689006764953,"10/07/2023 16:32:44",1689010364953,1,"10/07/2023 18:32:44",137495,33,"task-r1zi",NA,30600154,9085468,NA,"complete",NA,NA,"computer","Desktop or Laptop","Windows 10","Chrome 114.0.0.0","1280x720","1280x720",NA,NA,NA,"JV Task P2",11,"Anxious",NA,"In",NA,NA,"CDBEAFKGJHI",NA,NA,"B (MDot First)",2,213,"SS1","SS1",18,"V","Fixation","68owkj",2,"continue","",965.562999999995,965.562999999995,965.562999999995,965.562999999995,965.562999999995,965.562999999995,1,965.562999999995,0,0,NA,"Fixation Timing","Fixation",1,"object-21","V","CFD-BM-045-004-N.jpg",NA,"SUPTM50909"
"134",1689006767622,"10/07/2023 16:32:47",1689010367622,1,"10/07/2023 18:32:47",137495,33,"task-r1zi",NA,30600154,9085468,NA,"complete",NA,NA,"computer","Desktop or Laptop","Windows 10","Chrome 114.0.0.0","1280x720","1280x720",NA,NA,NA,"JV Task P2",11,"Anxious",NA,"In",NA,NA,"CDBEAFKGJHI",NA,NA,"B (MDot First)",2,213,"SS1","SS1",27,"J","Judginess","y8ii7g",1,"continue","",2670.11000004769,2664.50899999999,2670.11000004769,2670.11000004769,2664.50899999999,2670.11000004769,1,2670.11000004769,0,0,NA,"Click To Continue","Continue Button",1,"object-14","J","CFD-WF-011-002-N.jpg",NA,"SUPTM50909"
"135",1689006767623,"10/07/2023 16:32:47",1689010367623,1,"10/07/2023 18:32:47",137495,33,"task-r1zi",NA,30600154,9085468,NA,"complete",NA,NA,"computer","Desktop or Laptop","Windows 10","Chrome 114.0.0.0","1280x720","1280x720",NA,NA,NA,"JV Task P2",11,"Anxious",NA,"In",NA,NA,"CDBEAFKGJHI",NA,NA,"B (MDot First)",2,213,"SS1","SS1",27,"J","Judginess","y8ii7g",1,"response","55",1848.44899999999,2664.50899999999,2670.41,1848.44899999999,2664.50899999999,2670.41,1,1848.44899999999,821.96100000001,0,NA,"Slider","J",3,"object-18","J","CFD-WF-011-002-N.jpg",NA,"SUPTM50909"
"136",1689006768583,"10/07/2023 16:32:48",1689010368583,1,"10/07/2023 18:32:48",137495,33,"task-r1zi",NA,30600154,9085468,NA,"complete",NA,NA,"computer","Desktop or Laptop","Windows 10","Chrome 114.0.0.0","1280x720","1280x720",NA,NA,NA,"JV Task P2",11,"Anxious",NA,"In",NA,NA,"CDBEAFKGJHI",NA,NA,"B (MDot First)",2,213,"SS1","SS1",27,"J","Fixation","w9zir9",2,"continue","",966.171000000002,966.171000000002,966.171000000002,966.171000000002,966.171000000002,966.171000000002,1,966.171000000002,0,0,NA,"Fixation Timing","Fixation",1,"object-65","J","CFD-WF-011-002-N.jpg",NA,"SUPTM50909"
"137",1689006771557,"10/07/2023 16:32:51",1689010371557,1,"10/07/2023 18:32:51",137495,33,"task-r1zi",NA,30600154,9085468,NA,"complete",NA,NA,"computer","Desktop or Laptop","Windows 10","Chrome 114.0.0.0","1280x720","1280x720",NA,NA,NA,"JV Task P2",11,"Anxious",NA,"In",NA,NA,"CDBEAFKGJHI",NA,NA,"B (MDot First)",2,213,"SS1","SS1",28,"J","Judginess","y8ii7g",1,"continue","",2974.52999995233,2963.92200000002,2974.52999995233,2974.52999995233,2963.92200000002,2974.52999995233,1,2974.52999995233,0,0,NA,"Click To Continue","Continue Button",1,"object-14","J","CFD-WM-034-030-H.jpeg",NA,"SUPTM50909"
"138",1689006771559,"10/07/2023 16:32:51",1689010371559,1,"10/07/2023 18:32:51",137495,33,"task-r1zi",NA,30600154,9085468,NA,"complete",NA,NA,"computer","Desktop or Laptop","Windows 10","Chrome 114.0.0.0","1280x720","1280x720",NA,NA,NA,"JV Task P2",11,"Anxious",NA,"In",NA,NA,"CDBEAFKGJHI",NA,NA,"B (MDot First)",2,213,"SS1","SS1",28,"J","Judginess","y8ii7g",1,"response","72",2264.48500000002,2963.92200000002,2976.52999995233,2264.48500000002,2963.92200000002,2976.52999995233,1,2264.48500000002,712.044999952312,0,NA,"Slider","J",3,"object-18","J","CFD-WM-034-030-H.jpeg",NA,"SUPTM50909"
"139",1689006772513,"10/07/2023 16:32:52",1689010372513,1,"10/07/2023 18:32:52",137495,33,"task-r1zi",NA,30600154,9085468,NA,"complete",NA,NA,"computer","Desktop or Laptop","Windows 10","Chrome 114.0.0.0","1280x720","1280x720",NA,NA,NA,"JV Task P2",11,"Anxious",NA,"In",NA,NA,"CDBEAFKGJHI",NA,NA,"B (MDot First)",2,213,"SS1","SS1",28,"J","Fixation","w9zir9",2,"continue","",965.824999999983,965.824999999983,965.824999999983,965.824999999983,965.824999999983,965.824999999983,1,965.824999999983,0,0,NA,"Fixation Timing","Fixation",1,"object-65","J","CFD-WM-034-030-H.jpeg",NA,"SUPTM50909"
"140",1689006775579,"10/07/2023 16:32:55",1689010375579,1,"10/07/2023 18:32:55",137495,33,"task-r1zi",NA,30600154,9085468,NA,"complete",NA,NA,"computer","Desktop or Laptop","Windows 10","Chrome 114.0.0.0","1280x720","1280x720",NA,NA,NA,"JV Task P2",11,"Anxious",NA,"In",NA,NA,"CDBEAFKGJHI",NA,NA,"B (MDot First)",2,213,"SS1","SS1",19,"V","Valence","xyoebq",1,"continue","",3066.28299995232,3064.296,3066.28299995232,3066.28299995232,3064.296,3066.28299995232,1,3066.28299995232,0,0,NA,"Click To Continue","Continue Button",1,"object-25","V","CFD-WM-036-031-S.jpeg",NA,"SUPTM50909"
"141",1689006775579,"10/07/2023 16:32:55",1689010375579,1,"10/07/2023 18:32:55",137495,33,"task-r1zi",NA,30600154,9085468,NA,"complete",NA,NA,"computer","Desktop or Laptop","Windows 10","Chrome 114.0.0.0","1280x720","1280x720",NA,NA,NA,"JV Task P2",11,"Anxious",NA,"In",NA,NA,"CDBEAFKGJHI",NA,NA,"B (MDot First)",2,213,"SS1","SS1",19,"V","Valence","xyoebq",1,"response","27",2498.04700000002,3064.296,3066.68300004769,2498.04700000002,3064.296,3066.68300004769,1,2498.04700000002,568.636000047671,0,NA,"Slider","J",3,"object-27","V","CFD-WM-036-031-S.jpeg",NA,"SUPTM50909"
"142",1689006776543,"10/07/2023 16:32:56",1689010376543,1,"10/07/2023 18:32:56",137495,33,"task-r1zi",NA,30600154,9085468,NA,"complete",NA,NA,"computer","Desktop or Laptop","Windows 10","Chrome 114.0.0.0","1280x720","1280x720",NA,NA,NA,"JV Task P2",11,"Anxious",NA,"In",NA,NA,"CDBEAFKGJHI",NA,NA,"B (MDot First)",2,213,"SS1","SS1",19,"V","Fixation","68owkj",2,"continue","",965.695000000007,965.695000000007,965.695000000007,965.695000000007,965.695000000007,965.695000000007,1,965.695000000007,0,0,NA,"Fixation Timing","Fixation",1,"object-21","V","CFD-WM-036-031-S.jpeg",NA,"SUPTM50909"
"143",1689006778757,"10/07/2023 16:32:58",1689010378757,1,"10/07/2023 18:32:58",137495,33,"task-r1zi",NA,30600154,9085468,NA,"complete",NA,NA,"computer","Desktop or Laptop","Windows 10","Chrome 114.0.0.0","1280x720","1280x720",NA,NA,NA,"JV Task P2",11,"Anxious",NA,"In",NA,NA,"CDBEAFKGJHI",NA,NA,"B (MDot First)",2,213,"SS1","SS1",29,"J","Judginess","y8ii7g",1,"continue","",2214.69200004768,2198.26300000001,2214.69200004768,2214.69200004768,2198.26300000001,2214.69200004768,1,2214.69200004768,0,0,NA,"Click To Continue","Continue Button",1,"object-14","J","CFD-WM-028-003-H.jpeg",NA,"SUPTM50909"
"144",1689006778758,"10/07/2023 16:32:58",1689010378758,1,"10/07/2023 18:32:58",137495,33,"task-r1zi",NA,30600154,9085468,NA,"complete",NA,NA,"computer","Desktop or Laptop","Windows 10","Chrome 114.0.0.0","1280x720","1280x720",NA,NA,NA,"JV Task P2",11,"Anxious",NA,"In",NA,NA,"CDBEAFKGJHI",NA,NA,"B (MDot First)",2,213,"SS1","SS1",29,"J","Judginess","y8ii7g",1,"response","68",1365.94200000001,2198.26300000001,2214.84400000001,1365.94200000001,2198.26300000001,2214.84400000001,1,1365.94200000001,848.902000000002,0,NA,"Slider","J",3,"object-18","J","CFD-WM-028-003-H.jpeg",NA,"SUPTM50909"
"145",1689006779708,"10/07/2023 16:32:59",1689010379708,1,"10/07/2023 18:32:59",137495,33,"task-r1zi",NA,30600154,9085468,NA,"complete",NA,NA,"computer","Desktop or Laptop","Windows 10","Chrome 114.0.0.0","1280x720","1280x720",NA,NA,NA,"JV Task P2",11,"Anxious",NA,"In",NA,NA,"CDBEAFKGJHI",NA,NA,"B (MDot First)",2,213,"SS1","SS1",29,"J","Fixation","w9zir9",2,"continue","",966.138999999996,966.138999999996,966.138999999996,966.138999999996,966.138999999996,966.138999999996,1,966.138999999996,0,0,NA,"Fixation Timing","Fixation",1,"object-65","J","CFD-WM-028-003-H.jpeg",NA,"SUPTM50909"
"146",1689006782271,"10/07/2023 16:33:02",1689010382271,1,"10/07/2023 18:33:02",137495,33,"task-r1zi",NA,30600154,9085468,NA,"complete",NA,NA,"computer","Desktop or Laptop","Windows 10","Chrome 114.0.0.0","1280x720","1280x720",NA,NA,NA,"JV Task P2",11,"Anxious",NA,"In",NA,NA,"CDBEAFKGJHI",NA,NA,"B (MDot First)",2,213,"SS1","SS1",20,"V","Valence","xyoebq",1,"continue","",2563.88999995231,2547.611,2563.88999995231,2563.88999995231,2547.611,2563.88999995231,1,2563.88999995231,0,0,NA,"Click To Continue","Continue Button",1,"object-25","V","CFD-WM-035-032-H.jpeg",NA,"SUPTM50909"
"147",1689006782276,"10/07/2023 16:33:02",1689010382276,1,"10/07/2023 18:33:02",137495,33,"task-r1zi",NA,30600154,9085468,NA,"complete",NA,NA,"computer","Desktop or Laptop","Windows 10","Chrome 114.0.0.0","1280x720","1280x720",NA,NA,NA,"JV Task P2",11,"Anxious",NA,"In",NA,NA,"CDBEAFKGJHI",NA,NA,"B (MDot First)",2,213,"SS1","SS1",20,"V","Valence","xyoebq",1,"response","73",1315.76000000001,2547.611,2564.15600000002,1315.76000000001,2547.611,2564.15600000002,1,1315.76000000001,1248.39600000001,0,NA,"Slider","J",3,"object-27","V","CFD-WM-035-032-H.jpeg",NA,"SUPTM50909"
"148",1689006783221,"10/07/2023 16:33:03",1689010383221,1,"10/07/2023 18:33:03",137495,33,"task-r1zi",NA,30600154,9085468,NA,"complete",NA,NA,"computer","Desktop or Laptop","Windows 10","Chrome 114.0.0.0","1280x720","1280x720",NA,NA,NA,"JV Task P2",11,"Anxious",NA,"In",NA,NA,"CDBEAFKGJHI",NA,NA,"B (MDot First)",2,213,"SS1","SS1",20,"V","Fixation","68owkj",2,"continue","",966.152000000002,966.152000000002,966.152000000002,966.152000000002,966.152000000002,966.152000000002,1,966.152000000002,0,0,NA,"Fixation Timing","Fixation",1,"object-21","V","CFD-WM-035-032-H.jpeg",NA,"SUPTM50909"
"149",1689006787036,"10/07/2023 16:33:07",1689010387036,1,"10/07/2023 18:33:07",137495,33,"task-r1zi",NA,30600154,9085468,NA,"complete",NA,NA,"computer","Desktop or Laptop","Windows 10","Chrome 114.0.0.0","1280x720","1280x720",NA,NA,NA,"JV Task P2",11,"Anxious",NA,"In",NA,NA,"CDBEAFKGJHI",NA,NA,"B (MDot First)",2,213,"SS1","SS1",21,"V","Valence","xyoebq",1,"continue","",3815.22700009536,3813.35699999999,3815.22700009536,3815.22700009536,3813.35699999999,3815.22700009536,1,3815.22700009536,0,0,NA,"Click To Continue","Continue Button",1,"object-25","V","CFD-WF-027-003-S.jpeg",NA,"SUPTM50909"
"150",1689006787037,"10/07/2023 16:33:07",1689010387037,1,"10/07/2023 18:33:07",137495,33,"task-r1zi",NA,30600154,9085468,NA,"complete",NA,NA,"computer","Desktop or Laptop","Windows 10","Chrome 114.0.0.0","1280x720","1280x720",NA,NA,NA,"JV Task P2",11,"Anxious",NA,"In",NA,NA,"CDBEAFKGJHI",NA,NA,"B (MDot First)",2,213,"SS1","SS1",21,"V","Valence","xyoebq",1,"response","33",2963.989,3813.35699999999,3815.62699995231,2963.989,3813.35699999999,3815.62699995231,1,2963.989,851.637999952305,0,NA,"Slider","J",3,"object-27","V","CFD-WF-027-003-S.jpeg",NA,"SUPTM50909"
"151",1689006788001,"10/07/2023 16:33:08",1689010388001,1,"10/07/2023 18:33:08",137495,33,"task-r1zi",NA,30600154,9085468,NA,"complete",NA,NA,"computer","Desktop or Laptop","Windows 10","Chrome 114.0.0.0","1280x720","1280x720",NA,NA,NA,"JV Task P2",11,"Anxious",NA,"In",NA,NA,"CDBEAFKGJHI",NA,NA,"B (MDot First)",2,213,"SS1","SS1",21,"V","Fixation","68owkj",2,"continue","",966.06700000001,966.06700000001,966.06700000001,966.06700000001,966.06700000001,966.06700000001,1,966.06700000001,0,0,NA,"Fixation Timing","Fixation",1,"object-21","V","CFD-WF-027-003-S.jpeg",NA,"SUPTM50909"
"152",1689006792110,"10/07/2023 16:33:12",1689010392110,1,"10/07/2023 18:33:12",137495,33,"task-r1zi",NA,30600154,9085468,NA,"complete",NA,NA,"computer","Desktop or Laptop","Windows 10","Chrome 114.0.0.0","1280x720","1280x720",NA,NA,NA,"JV Task P2",11,"Anxious",NA,"In",NA,NA,"CDBEAFKGJHI",NA,NA,"B (MDot First)",2,213,"SS1","SS1",30,"J","Judginess","y8ii7g",1,"continue","",4109.70299995231,4096.497,4109.70299995231,4109.70299995231,4096.497,4109.70299995231,1,4109.70299995231,0,0,NA,"Click To Continue","Continue Button",1,"object-14","J","CFD-MF-309-002-H.jpeg",NA,"SUPTM50909"
"153",1689006792111,"10/07/2023 16:33:12",1689010392111,1,"10/07/2023 18:33:12",137495,33,"task-r1zi",NA,30600154,9085468,NA,"complete",NA,NA,"computer","Desktop or Laptop","Windows 10","Chrome 114.0.0.0","1280x720","1280x720",NA,NA,NA,"JV Task P2",11,"Anxious",NA,"In",NA,NA,"CDBEAFKGJHI",NA,NA,"B (MDot First)",2,213,"SS1","SS1",30,"J","Judginess","y8ii7g",1,"response","71",3314.106,4096.497,4110.00299990462,3314.106,4096.497,4110.00299990462,1,3314.106,795.896999904624,0,NA,"Slider","J",3,"object-18","J","CFD-MF-309-002-H.jpeg",NA,"SUPTM50909"
"154",1689006793064,"10/07/2023 16:33:13",1689010393064,1,"10/07/2023 18:33:13",137495,33,"task-r1zi",NA,30600154,9085468,NA,"complete",NA,NA,"computer","Desktop or Laptop","Windows 10","Chrome 114.0.0.0","1280x720","1280x720",NA,NA,NA,"JV Task P2",11,"Anxious",NA,"In",NA,NA,"CDBEAFKGJHI",NA,NA,"B (MDot First)",2,213,"SS1","SS1",30,"J","Fixation","w9zir9",2,"continue","",965.997999999992,965.997999999992,965.997999999992,965.997999999992,965.997999999992,965.997999999992,1,965.997999999992,0,0,NA,"Fixation Timing","Fixation",1,"object-65","J","CFD-MF-309-002-H.jpeg",NA,"SUPTM50909"
"155",1689006796562,"10/07/2023 16:33:16",1689010396562,1,"10/07/2023 18:33:16",137495,33,"task-r1zi",NA,30600154,9085468,NA,"complete",NA,NA,"computer","Desktop or Laptop","Windows 10","Chrome 114.0.0.0","1280x720","1280x720",NA,NA,NA,"JV Task P2",11,"Anxious",NA,"In",NA,NA,"CDBEAFKGJHI",NA,NA,"B (MDot First)",2,213,"SS1","SS1",31,"J","Judginess","y8ii7g",1,"continue","",3498.80800009536,3496.88500000001,3498.80800009536,3498.80800009536,3496.88500000001,3498.80800009536,1,3498.80800009536,0,0,NA,"Click To Continue","Continue Button",1,"object-14","J","CFD-AF-250-200-N.jpg",NA,"SUPTM50909"
"156",1689006796562,"10/07/2023 16:33:16",1689010396562,1,"10/07/2023 18:33:16",137495,33,"task-r1zi",NA,30600154,9085468,NA,"complete",NA,NA,"computer","Desktop or Laptop","Windows 10","Chrome 114.0.0.0","1280x720","1280x720",NA,NA,NA,"JV Task P2",11,"Anxious",NA,"In",NA,NA,"CDBEAFKGJHI",NA,NA,"B (MDot First)",2,213,"SS1","SS1",31,"J","Judginess","y8ii7g",1,"response","61",2780.77100000001,3496.88500000001,3499.10800004768,2780.77100000001,3496.88500000001,3499.10800004768,1,2780.77100000001,718.337000047672,0,NA,"Slider","J",3,"object-18","J","CFD-AF-250-200-N.jpg",NA,"SUPTM50909"
"157",1689006797527,"10/07/2023 16:33:17",1689010397527,1,"10/07/2023 18:33:17",137495,33,"task-r1zi",NA,30600154,9085468,NA,"complete",NA,NA,"computer","Desktop or Laptop","Windows 10","Chrome 114.0.0.0","1280x720","1280x720",NA,NA,NA,"JV Task P2",11,"Anxious",NA,"In",NA,NA,"CDBEAFKGJHI",NA,NA,"B (MDot First)",2,213,"SS1","SS1",31,"J","Fixation","w9zir9",2,"continue","",965.889999999985,965.889999999985,965.889999999985,965.889999999985,965.889999999985,965.889999999985,1,965.889999999985,0,0,NA,"Fixation Timing","Fixation",1,"object-65","J","CFD-AF-250-200-N.jpg",NA,"SUPTM50909"
"158",1689006799789,"10/07/2023 16:33:19",1689010399789,1,"10/07/2023 18:33:19",137495,33,"task-r1zi",NA,30600154,9085468,NA,"complete",NA,NA,"computer","Desktop or Laptop","Windows 10","Chrome 114.0.0.0","1280x720","1280x720",NA,NA,NA,"JV Task P2",11,"Anxious",NA,"In",NA,NA,"CDBEAFKGJHI",NA,NA,"B (MDot First)",2,213,"SS1","SS1",32,"J","Judginess","y8ii7g",1,"continue","",2262.93299995232,2248.38800000001,2262.93299995232,2262.93299995232,2248.38800000001,2262.93299995232,1,2262.93299995232,0,0,NA,"Click To Continue","Continue Button",1,"object-14","J","CFD-MF-309-002-H.jpeg",NA,"SUPTM50909"
"159",1689006799789,"10/07/2023 16:33:19",1689010399789,1,"10/07/2023 18:33:19",137495,33,"task-r1zi",NA,30600154,9085468,NA,"complete",NA,NA,"computer","Desktop or Laptop","Windows 10","Chrome 114.0.0.0","1280x720","1280x720",NA,NA,NA,"JV Task P2",11,"Anxious",NA,"In",NA,NA,"CDBEAFKGJHI",NA,NA,"B (MDot First)",2,213,"SS1","SS1",32,"J","Judginess","y8ii7g",1,"response","76",1498.91800000001,2248.38800000001,2263.133,1498.91800000001,2248.38800000001,2263.133,1,1498.91800000001,764.214999999997,0,NA,"Slider","J",3,"object-18","J","CFD-MF-309-002-H.jpeg",NA,"SUPTM50909"
"160",1689006800741,"10/07/2023 16:33:20",1689010400741,1,"10/07/2023 18:33:20",137495,33,"task-r1zi",NA,30600154,9085468,NA,"complete",NA,NA,"computer","Desktop or Laptop","Windows 10","Chrome 114.0.0.0","1280x720","1280x720",NA,NA,NA,"JV Task P2",11,"Anxious",NA,"In",NA,NA,"CDBEAFKGJHI",NA,NA,"B (MDot First)",2,213,"SS1","SS1",32,"J","Fixation","w9zir9",2,"continue","",965.978999999992,965.978999999992,965.978999999992,965.978999999992,965.978999999992,965.978999999992,1,965.978999999992,0,0,NA,"Fixation Timing","Fixation",1,"object-65","J","CFD-MF-309-002-H.jpeg",NA,"SUPTM50909"
"161",1689006802656,"10/07/2023 16:33:22",1689010402656,1,"10/07/2023 18:33:22",137495,33,"task-r1zi",NA,30600154,9085468,NA,"complete",NA,NA,"computer","Desktop or Laptop","Windows 10","Chrome 114.0.0.0","1280x720","1280x720",NA,NA,NA,"JV Task P2",11,"Anxious",NA,"In",NA,NA,"CDBEAFKGJHI",NA,NA,"B (MDot First)",2,213,"SS1","SS1",33,"J","Judginess","y8ii7g",1,"continue","",1915.266,1914.63200000001,1915.266,1915.266,1914.63200000001,1915.266,1,1915.266,0,0,NA,"Click To Continue","Continue Button",1,"object-14","J","CFD-WM-037-025-S.jpeg",NA,"SUPTM50909"
"162",1689006802656,"10/07/2023 16:33:22",1689010402656,1,"10/07/2023 18:33:22",137495,33,"task-r1zi",NA,30600154,9085468,NA,"complete",NA,NA,"computer","Desktop or Laptop","Windows 10","Chrome 114.0.0.0","1280x720","1280x720",NA,NA,NA,"JV Task P2",11,"Anxious",NA,"In",NA,NA,"CDBEAFKGJHI",NA,NA,"B (MDot First)",2,213,"SS1","SS1",33,"J","Judginess","y8ii7g",1,"response","33",1348.48500000002,1914.63200000001,1915.66600009537,1348.48500000002,1914.63200000001,1915.66600009537,1,1348.48500000002,567.181000095356,0,NA,"Slider","J",3,"object-18","J","CFD-WM-037-025-S.jpeg",NA,"SUPTM50909"
"163",1689006803622,"10/07/2023 16:33:23",1689010403622,1,"10/07/2023 18:33:23",137495,33,"task-r1zi",NA,30600154,9085468,NA,"complete",NA,NA,"computer","Desktop or Laptop","Windows 10","Chrome 114.0.0.0","1280x720","1280x720",NA,NA,NA,"JV Task P2",11,"Anxious",NA,"In",NA,NA,"CDBEAFKGJHI",NA,NA,"B (MDot First)",2,213,"SS1","SS1",33,"J","Fixation","w9zir9",2,"continue","",966.137999999977,966.137999999977,966.137999999977,966.137999999977,966.137999999977,966.137999999977,1,966.137999999977,0,0,NA,"Fixation Timing","Fixation",1,"object-65","J","CFD-WM-037-025-S.jpeg",NA,"SUPTM50909"
"164",1689006805298,"10/07/2023 16:33:25",1689010405298,1,"10/07/2023 18:33:25",137495,33,"task-r1zi",NA,30600154,9085468,NA,"complete",NA,NA,"computer","Desktop or Laptop","Windows 10","Chrome 114.0.0.0","1280x720","1280x720",NA,NA,NA,"JV Task P2",11,"Anxious",NA,"In",NA,NA,"CDBEAFKGJHI",NA,NA,"B (MDot First)",2,213,"SS1","SS1",34,"J","Judginess","y8ii7g",1,"continue","",1676.99600000001,1665.11700000003,1676.99600000001,1676.99600000001,1665.11700000003,1676.99600000001,1,1676.99600000001,0,0,NA,"Click To Continue","Continue Button",1,"object-14","J","CFD-AM-225-102-N.jpg",NA,"SUPTM50909"
"165",1689006805298,"10/07/2023 16:33:25",1689010405298,1,"10/07/2023 18:33:25",137495,33,"task-r1zi",NA,30600154,9085468,NA,"complete",NA,NA,"computer","Desktop or Laptop","Windows 10","Chrome 114.0.0.0","1280x720","1280x720",NA,NA,NA,"JV Task P2",11,"Anxious",NA,"In",NA,NA,"CDBEAFKGJHI",NA,NA,"B (MDot First)",2,213,"SS1","SS1",34,"J","Judginess","y8ii7g",1,"response","32",1215.45500000002,1665.11700000003,1677.29599995233,1215.45500000002,1665.11700000003,1677.29599995233,1,1215.45500000002,461.840999952314,0,NA,"Slider","J",3,"object-18","J","CFD-AM-225-102-N.jpg",NA,"SUPTM50909"
"166",1689006806253,"10/07/2023 16:33:26",1689010406253,1,"10/07/2023 18:33:26",137495,33,"task-r1zi",NA,30600154,9085468,NA,"complete",NA,NA,"computer","Desktop or Laptop","Windows 10","Chrome 114.0.0.0","1280x720","1280x720",NA,NA,NA,"JV Task P2",11,"Anxious",NA,"In",NA,NA,"CDBEAFKGJHI",NA,NA,"B (MDot First)",2,213,"SS1","SS1",34,"J","Fixation","w9zir9",2,"continue","",966.069999999978,966.069999999978,966.069999999978,966.069999999978,966.069999999978,966.069999999978,1,966.069999999978,0,0,NA,"Fixation Timing","Fixation",1,"object-65","J","CFD-AM-225-102-N.jpg",NA,"SUPTM50909"
"167",1689006808261,"10/07/2023 16:33:28",1689010408261,1,"10/07/2023 18:33:28",137495,33,"task-r1zi",NA,30600154,9085468,NA,"complete",NA,NA,"computer","Desktop or Laptop","Windows 10","Chrome 114.0.0.0","1280x720","1280x720",NA,NA,NA,"JV Task P2",11,"Anxious",NA,"In",NA,NA,"CDBEAFKGJHI",NA,NA,"B (MDot First)",2,213,"SS1","SS1",22,"V","Valence","xyoebq",1,"continue","",2008.90899990464,1998.13800000001,2008.90899990464,2008.90899990464,1998.13800000001,2008.90899990464,1,2008.90899990464,0,0,NA,"Click To Continue","Continue Button",1,"object-25","V","CFD-MM-313-002-S.jpeg",NA,"SUPTM50909"
"168",1689006808261,"10/07/2023 16:33:28",1689010408261,1,"10/07/2023 18:33:28",137495,33,"task-r1zi",NA,30600154,9085468,NA,"complete",NA,NA,"computer","Desktop or Laptop","Windows 10","Chrome 114.0.0.0","1280x720","1280x720",NA,NA,NA,"JV Task P2",11,"Anxious",NA,"In",NA,NA,"CDBEAFKGJHI",NA,NA,"B (MDot First)",2,213,"SS1","SS1",22,"V","Valence","xyoebq",1,"response","33",1398.679,1998.13800000001,2009.10899995232,1398.679,1998.13800000001,2009.10899995232,1,1398.679,610.429999952321,0,NA,"Slider","J",3,"object-27","V","CFD-MM-313-002-S.jpeg",NA,"SUPTM50909"
"169",1689006809217,"10/07/2023 16:33:29",1689010409217,1,"10/07/2023 18:33:29",137495,33,"task-r1zi",NA,30600154,9085468,NA,"complete",NA,NA,"computer","Desktop or Laptop","Windows 10","Chrome 114.0.0.0","1280x720","1280x720",NA,NA,NA,"JV Task P2",11,"Anxious",NA,"In",NA,NA,"CDBEAFKGJHI",NA,NA,"B (MDot First)",2,213,"SS1","SS1",22,"V","Fixation","68owkj",2,"continue","",966.187999999995,966.187999999995,966.187999999995,966.187999999995,966.187999999995,966.187999999995,1,966.187999999995,0,0,NA,"Fixation Timing","Fixation",1,"object-21","V","CFD-MM-313-002-S.jpeg",NA,"SUPTM50909"
"170",1689006811295,"10/07/2023 16:33:31",1689010411295,1,"10/07/2023 18:33:31",137495,33,"task-r1zi",NA,30600154,9085468,NA,"complete",NA,NA,"computer","Desktop or Laptop","Windows 10","Chrome 114.0.0.0","1280x720","1280x720",NA,NA,NA,"JV Task P2",11,"Anxious",NA,"In",NA,NA,"CDBEAFKGJHI",NA,NA,"B (MDot First)",2,213,"SS1","SS1",23,"V","Valence","xyoebq",1,"continue","",2078.98300000001,2064.92600000001,2078.98300000001,2078.98300000001,2064.92600000001,2078.98300000001,1,2078.98300000001,0,0,NA,"Click To Continue","Continue Button",1,"object-25","V","CFD-WM-031-003-S.jpeg",NA,"SUPTM50909"
"171",1689006811296,"10/07/2023 16:33:31",1689010411296,1,"10/07/2023 18:33:31",137495,33,"task-r1zi",NA,30600154,9085468,NA,"complete",NA,NA,"computer","Desktop or Laptop","Windows 10","Chrome 114.0.0.0","1280x720","1280x720",NA,NA,NA,"JV Task P2",11,"Anxious",NA,"In",NA,NA,"CDBEAFKGJHI",NA,NA,"B (MDot First)",2,213,"SS1","SS1",23,"V","Valence","xyoebq",1,"response","19",1348.837,2064.92600000001,2079.18300004769,1348.837,2064.92600000001,2079.18300004769,1,1348.837,730.346000047692,0,NA,"Slider","J",3,"object-27","V","CFD-WM-031-003-S.jpeg",NA,"SUPTM50909"
"172",1689006812248,"10/07/2023 16:33:32",1689010412248,1,"10/07/2023 18:33:32",137495,33,"task-r1zi",NA,30600154,9085468,NA,"complete",NA,NA,"computer","Desktop or Laptop","Windows 10","Chrome 114.0.0.0","1280x720","1280x720",NA,NA,NA,"JV Task P2",11,"Anxious",NA,"In",NA,NA,"CDBEAFKGJHI",NA,NA,"B (MDot First)",2,213,"SS1","SS1",23,"V","Fixation","68owkj",2,"continue","",965.790000000008,965.790000000008,965.790000000008,965.790000000008,965.790000000008,965.790000000008,1,965.790000000008,0,0,NA,"Fixation Timing","Fixation",1,"object-21","V","CFD-WM-031-003-S.jpeg",NA,"SUPTM50909"
