"Event.Index","UTC.Timestamp","UTC.Date.and.Time","Local.Timestamp","Local.Timezone","Local.Date.and.Time","Experiment.ID","Experiment.Version","Tree.Node.Key","Repeat.Key","Schedule.ID","Participant.Private.ID","Participant.Starting.Group","Participant.Status","Participant.Completion.Code","Participant.External.Session.ID","Participant.Device.Type","Participant.Device","Participant.OS","Participant.Browser","Participant.Monitor.Size","Participant.Viewport.Size","Checkpoint","Room.ID","Room.Order","Task.Name","Task.Version","order.ot79","branch.g31k","branch.5gtn","Spreadsheet","Trial.Number","Display","Screen","Screen.ID","Screen.Counter","Response.Type","Response","Onset.Time","Clock.Time","Reaction.Time","Absolute.Onset.Time","Absolute.Clock.Time","Absolute.Reaction.Time","Correct","Response.Onset","Response.Duration","Proportion","Tag","Component.Name","Object.Name","Object.Number","Object.ID","Spreadsheet..display","Manipulation..Spreadsheet","Random_ID"
"1",1697626351470,"18/10/2023 10:52:31",1697629951470,1,"18/10/2023 12:52:31",147683,3,"task-ybli",NA,32328178,9559360,NA,"complete",NA,"652fc474c8ed36f51a72a679","computer","Desktop or Laptop","Windows 10","Chrome 118.0.0.0","1707x1067","852x900",NA,NA,0,"Task Introduction and Instructions (removed audio and video)",3,"ABJCIDHEGF","Passed AC2",NA,"Spreadsheet1",NA,"","","",NA,"5","BEGIN",NA,NA,NA,NA,NA,NA,0,NA,NA,NA,NA,"","",NA,"","",NA,"SUPPRF59606"
"2",1697626384313,"18/10/2023 10:53:04",1697629984313,1,"18/10/2023 12:53:04",147683,3,"task-ybli",NA,32328178,9559360,NA,"complete",NA,"652fc474c8ed36f51a72a679","computer","Desktop or Laptop","Windows 10","Chrome 118.0.0.0","1707x1067","1707x910",NA,NA,0,"Task Introduction and Instructions (removed audio and video)",3,"ABJCIDHEGF","Passed AC2",NA,"Spreadsheet1",1,"Task Instructions","Screen 1","anr7sn",1,"continue","",32624.531,32616.323,32624.531,32624.531,32616.323,32624.531,1,32624.531,0,0,NA,"Click To Continue","Continue Button",2,"object-1944","Task Instructions",NA,"SUPPRF59606"
"3",1697626388583,"18/10/2023 10:53:08",1697629988583,1,"18/10/2023 12:53:08",147683,3,"task-ybli",NA,32328178,9559360,NA,"complete",NA,"652fc474c8ed36f51a72a679","computer","Desktop or Laptop","Windows 10","Chrome 118.0.0.0","1707x1067","1707x910",NA,NA,0,"Task Introduction and Instructions (removed audio and video)",3,"ABJCIDHEGF","Passed AC2",NA,"Spreadsheet1",1,"Task Instructions","Screen 2","ce2tc8",2,"continue","",4278.40800001788,4267.636,4278.40800001788,4278.40800001788,4267.636,4278.40800001788,1,4278.40800001788,0,0,NA,"Click To Continue","Continue Button",2,"object-7","Task Instructions",NA,"SUPPRF59606"
"4",1697626393948,"18/10/2023 10:53:13",1697629993948,1,"18/10/2023 12:53:13",147683,3,"task-ybli",NA,32328178,9559360,NA,"complete",NA,"652fc474c8ed36f51a72a679","computer","Desktop or Laptop","Windows 10","Chrome 118.0.0.0","1707x1067","1707x910",NA,NA,0,"Task Introduction and Instructions (removed audio and video)",3,"ABJCIDHEGF","Passed AC2",NA,"Spreadsheet1",1,"Task Instructions","Screen 5","spepx9",3,"continue","",5375.47200000596,5365.678,5375.47200000596,5375.47200000596,5365.678,5375.47200000596,1,5375.47200000596,0,0,NA,"Click To Continue","Continue Button",2,"object-9","Task Instructions",NA,"SUPPRF59606"
"5",1697626397784,"18/10/2023 10:53:17",1697629997784,1,"18/10/2023 12:53:17",147683,3,"task-ybli",NA,32328178,9559360,NA,"complete",NA,"652fc474c8ed36f51a72a679","computer","Desktop or Laptop","Windows 10","Chrome 118.0.0.0","1707x1067","1707x910",NA,NA,0,"Task Introduction and Instructions (removed audio and video)",3,"ABJCIDHEGF","Passed AC2",NA,"Spreadsheet1",1,"Task Instructions","Screen 9","8nvnao",4,"continue","",3846.19400001192,3833.424,3846.19400001192,3846.19400001192,3833.424,3846.19400001192,1,3846.19400001192,0,0,NA,"Click To Continue","Continue Button",2,"object-44","Task Instructions",NA,"SUPPRF59606"
"6",1697626397791,"18/10/2023 10:53:17",1697629997791,1,"18/10/2023 12:53:17",147683,3,"task-ybli",NA,32328178,9559360,NA,"complete",NA,"652fc474c8ed36f51a72a679","computer","Desktop or Laptop","Windows 10","Chrome 118.0.0.0","1707x1067","1707x910",NA,NA,0,"Task Introduction and Instructions (removed audio and video)",3,"ABJCIDHEGF","Passed AC2",NA,"Spreadsheet1",NA,"","","",NA,"5","END",NA,NA,NA,NA,NA,NA,0,NA,NA,NA,NA,"","",NA,"","",NA,"SUPPRF59606"
"1",1697640585394,"18/10/2023 14:49:45",1697644185394,1,"18/10/2023 16:49:45",147683,3,"task-ybli",NA,32336571,9561687,NA,"complete",NA,"652ffadb010422e0d379e4ca","computer","Desktop or Laptop","Windows 10","Chrome 117.0.0.0","1920x1080","1920x931",NA,NA,0,"Task Introduction and Instructions (removed audio and video)",3,"BCADJEIFHG","Passed AC2",NA,"Spreadsheet1",NA,"","","",NA,"5","BEGIN",NA,NA,NA,NA,NA,NA,0,NA,NA,NA,NA,"","",NA,"","",NA,"SUPPRF37681"
"2",1697640588910,"18/10/2023 14:49:48",1697644188910,1,"18/10/2023 16:49:48",147683,3,"task-ybli",NA,32336571,9561687,NA,"complete",NA,"652ffadb010422e0d379e4ca","computer","Desktop or Laptop","Windows 10","Chrome 117.0.0.0","1920x1080","1920x931",NA,NA,0,"Task Introduction and Instructions (removed audio and video)",3,"BCADJEIFHG","Passed AC2",NA,"Spreadsheet1",1,"Task Instructions","Screen 1","anr7sn",1,"continue","",3466.568,3449.865,3466.568,3466.568,3449.865,3466.568,1,3466.568,0,0,NA,"Click To Continue","Continue Button",2,"object-1944","Task Instructions",NA,"SUPPRF37681"
"3",1697640593781,"18/10/2023 14:49:53",1697644193781,1,"18/10/2023 16:49:53",147683,3,"task-ybli",NA,32336571,9561687,NA,"complete",NA,"652ffadb010422e0d379e4ca","computer","Desktop or Laptop","Windows 10","Chrome 117.0.0.0","1920x1080","1920x931",NA,NA,0,"Task Introduction and Instructions (removed audio and video)",3,"BCADJEIFHG","Passed AC2",NA,"Spreadsheet1",1,"Task Instructions","Screen 2","ce2tc8",2,"continue","",4888.66400007153,4883.11,4888.66400007153,4888.66400007153,4883.11,4888.66400007153,1,4888.66400007153,0,0,NA,"Click To Continue","Continue Button",2,"object-7","Task Instructions",NA,"SUPPRF37681"
"4",1697640596910,"18/10/2023 14:49:56",1697644196910,1,"18/10/2023 16:49:56",147683,3,"task-ybli",NA,32336571,9561687,NA,"complete",NA,"652ffadb010422e0d379e4ca","computer","Desktop or Laptop","Windows 10","Chrome 117.0.0.0","1920x1080","1920x931",NA,NA,0,"Task Introduction and Instructions (removed audio and video)",3,"BCADJEIFHG","Passed AC2",NA,"Spreadsheet1",1,"Task Instructions","Screen 5","spepx9",3,"continue","",3135.45400004768,3133.189,3135.45400004768,3135.45400004768,3133.189,3135.45400004768,1,3135.45400004768,0,0,NA,"Click To Continue","Continue Button",2,"object-9","Task Instructions",NA,"SUPPRF37681"
"5",1697640610254,"18/10/2023 14:50:10",1697644210254,1,"18/10/2023 16:50:10",147683,3,"task-ybli",NA,32336571,9561687,NA,"complete",NA,"652ffadb010422e0d379e4ca","computer","Desktop or Laptop","Windows 10","Chrome 117.0.0.0","1920x1080","1920x931",NA,NA,0,"Task Introduction and Instructions (removed audio and video)",3,"BCADJEIFHG","Passed AC2",NA,"Spreadsheet1",1,"Task Instructions","Screen 9","8nvnao",4,"continue","",13345.2650000477,13332.898,13345.2650000477,13345.2650000477,13332.898,13345.2650000477,1,13345.2650000477,0,0,NA,"Click To Continue","Continue Button",2,"object-44","Task Instructions",NA,"SUPPRF37681"
"6",1697640610265,"18/10/2023 14:50:10",1697644210265,1,"18/10/2023 16:50:10",147683,3,"task-ybli",NA,32336571,9561687,NA,"complete",NA,"652ffadb010422e0d379e4ca","computer","Desktop or Laptop","Windows 10","Chrome 117.0.0.0","1920x1080","1920x931",NA,NA,0,"Task Introduction and Instructions (removed audio and video)",3,"BCADJEIFHG","Passed AC2",NA,"Spreadsheet1",NA,"","","",NA,"5","END",NA,NA,NA,NA,NA,NA,0,NA,NA,NA,NA,"","",NA,"","",NA,"SUPPRF37681"
"1",1697663211444,"18/10/2023 21:06:51",1697666811444,1,"18/10/2023 23:06:51",147683,3,"task-ybli",NA,32347705,9565152,NA,"complete",NA,"653053b8f7c0c5dea6665f6f","computer","Desktop or Laptop","Windows 10","Chrome 118.0.0.0","1536x864","1536x707",NA,NA,0,"Task Introduction and Instructions (removed audio and video)",3,"CDBEAFJGIH","Passed AC2",NA,"Spreadsheet1",NA,"","","",NA,"5","BEGIN",NA,NA,NA,NA,NA,NA,0,NA,NA,NA,NA,"","",NA,"","",NA,"SUPPRF11139"
"2",1697663214270,"18/10/2023 21:06:54",1697666814270,1,"18/10/2023 23:06:54",147683,3,"task-ybli",NA,32347705,9565152,NA,"complete",NA,"653053b8f7c0c5dea6665f6f","computer","Desktop or Laptop","Windows 10","Chrome 118.0.0.0","1536x864","1536x707",NA,NA,0,"Task Introduction and Instructions (removed audio and video)",3,"CDBEAFJGIH","Passed AC2",NA,"Spreadsheet1",1,"Task Instructions","Screen 1","anr7sn",1,"continue","",2736.04,2729.098,2736.04,2736.04,2729.098,2736.04,1,2736.04,0,0,NA,"Click To Continue","Continue Button",2,"object-1944","Task Instructions",NA,"SUPPRF11139"
"3",1697663219877,"18/10/2023 21:06:59",1697666819877,1,"18/10/2023 23:06:59",147683,3,"task-ybli",NA,32347705,9565152,NA,"complete",NA,"653053b8f7c0c5dea6665f6f","computer","Desktop or Laptop","Windows 10","Chrome 118.0.0.0","1536x864","1536x707",NA,NA,0,"Task Introduction and Instructions (removed audio and video)",3,"CDBEAFJGIH","Passed AC2",NA,"Spreadsheet1",1,"Task Instructions","Screen 2","ce2tc8",2,"continue","",5617.213,5609.935,5617.213,5617.213,5609.935,5617.213,1,5617.213,0,0,NA,"Click To Continue","Continue Button",2,"object-7","Task Instructions",NA,"SUPPRF11139"
"4",1697663292291,"18/10/2023 21:08:12",1697666892291,1,"18/10/2023 23:08:12",147683,3,"task-ybli",NA,32347705,9565152,NA,"complete",NA,"653053b8f7c0c5dea6665f6f","computer","Desktop or Laptop","Windows 10","Chrome 118.0.0.0","1536x864","1536x707",NA,NA,0,"Task Introduction and Instructions (removed audio and video)",3,"CDBEAFJGIH","Passed AC2",NA,"Spreadsheet1",1,"Task Instructions","Screen 5","spepx9",3,"continue","",72421.576,72417.557,72421.576,72421.576,72417.557,72421.576,1,72421.576,0,0,NA,"Click To Continue","Continue Button",2,"object-9","Task Instructions",NA,"SUPPRF11139"
"5",1697663295228,"18/10/2023 21:08:15",1697666895228,1,"18/10/2023 23:08:15",147683,3,"task-ybli",NA,32347705,9565152,NA,"complete",NA,"653053b8f7c0c5dea6665f6f","computer","Desktop or Laptop","Windows 10","Chrome 118.0.0.0","1536x864","1536x707",NA,NA,0,"Task Introduction and Instructions (removed audio and video)",3,"CDBEAFJGIH","Passed AC2",NA,"Spreadsheet1",1,"Task Instructions","Screen 9","8nvnao",4,"continue","",2940.91899999106,2937.666,2940.91899999106,2940.91899999106,2937.666,2940.91899999106,1,2940.91899999106,0,0,NA,"Click To Continue","Continue Button",2,"object-44","Task Instructions",NA,"SUPPRF11139"
"6",1697663295233,"18/10/2023 21:08:15",1697666895233,1,"18/10/2023 23:08:15",147683,3,"task-ybli",NA,32347705,9565152,NA,"complete",NA,"653053b8f7c0c5dea6665f6f","computer","Desktop or Laptop","Windows 10","Chrome 118.0.0.0","1536x864","1536x707",NA,NA,0,"Task Introduction and Instructions (removed audio and video)",3,"CDBEAFJGIH","Passed AC2",NA,"Spreadsheet1",NA,"","","",NA,"5","END",NA,NA,NA,NA,NA,NA,0,NA,NA,NA,NA,"","",NA,"","",NA,"SUPPRF11139"
"1",1697729067999,"19/10/2023 15:24:27",1697732667999,1,"19/10/2023 17:24:27",147683,3,"task-ybli",NA,32366334,9571426,NA,"complete",NA,"653154994fa6fef45b59128a","computer","Desktop or Laptop","Mac OS 10.15.7","Chrome 117.0.0.0","1440x900","1440x708",NA,NA,0,"Task Introduction and Instructions (removed audio and video)",3,"EFDGCHBIAJ","Passed AC2",NA,"Spreadsheet1",NA,"","","",NA,"5","BEGIN",NA,NA,NA,NA,NA,NA,0,NA,NA,NA,NA,"","",NA,"","",NA,"SUPPRF01788"
"2",1697729071276,"19/10/2023 15:24:31",1697732671276,1,"19/10/2023 17:24:31",147683,3,"task-ybli",NA,32366334,9571426,NA,"complete",NA,"653154994fa6fef45b59128a","computer","Desktop or Laptop","Mac OS 10.15.7","Chrome 117.0.0.0","1440x900","1440x708",NA,NA,0,"Task Introduction and Instructions (removed audio and video)",3,"EFDGCHBIAJ","Passed AC2",NA,"Spreadsheet1",1,"Task Instructions","Screen 1","anr7sn",1,"continue","",3171.34200000037,3158.379,3171.34200000037,3171.34200000037,3158.379,3171.34200000037,1,3171.34200000037,0,0,NA,"Click To Continue","Continue Button",2,"object-1944","Task Instructions",NA,"SUPPRF01788"
"3",1697729091525,"19/10/2023 15:24:51",1697732691525,1,"19/10/2023 17:24:51",147683,3,"task-ybli",NA,32366334,9571426,NA,"complete",NA,"653154994fa6fef45b59128a","computer","Desktop or Laptop","Mac OS 10.15.7","Chrome 117.0.0.0","1440x900","1440x708",NA,NA,0,"Task Introduction and Instructions (removed audio and video)",3,"EFDGCHBIAJ","Passed AC2",NA,"Spreadsheet1",1,"Task Instructions","Screen 2","ce2tc8",2,"continue","",20261.9630000004,20254.092,20261.9630000004,20261.9630000004,20254.092,20261.9630000004,1,20261.9630000004,0,0,NA,"Click To Continue","Continue Button",2,"object-7","Task Instructions",NA,"SUPPRF01788"
"4",1697729094711,"19/10/2023 15:24:54",1697732694711,1,"19/10/2023 17:24:54",147683,3,"task-ybli",NA,32366334,9571426,NA,"complete",NA,"653154994fa6fef45b59128a","computer","Desktop or Laptop","Mac OS 10.15.7","Chrome 117.0.0.0","1440x900","1440x708",NA,NA,0,"Task Introduction and Instructions (removed audio and video)",3,"EFDGCHBIAJ","Passed AC2",NA,"Spreadsheet1",1,"Task Instructions","Screen 5","spepx9",3,"continue","",3191.88600000001,3175.175,3191.88600000001,3191.88600000001,3175.175,3191.88600000001,1,3191.88600000001,0,0,NA,"Click To Continue","Continue Button",2,"object-9","Task Instructions",NA,"SUPPRF01788"
"5",1697729100895,"19/10/2023 15:25:00",1697732700895,1,"19/10/2023 17:25:00",147683,3,"task-ybli",NA,32366334,9571426,NA,"complete",NA,"653154994fa6fef45b59128a","computer","Desktop or Laptop","Mac OS 10.15.7","Chrome 117.0.0.0","1440x900","1440x708",NA,NA,0,"Task Introduction and Instructions (removed audio and video)",3,"EFDGCHBIAJ","Passed AC2",NA,"Spreadsheet1",1,"Task Instructions","Screen 9","8nvnao",4,"continue","",6202.59600000074,6199.781,6202.59600000074,6202.59600000074,6199.781,6202.59600000074,1,6202.59600000074,0,0,NA,"Click To Continue","Continue Button",2,"object-44","Task Instructions",NA,"SUPPRF01788"
"6",1697729100898,"19/10/2023 15:25:00",1697732700898,1,"19/10/2023 17:25:00",147683,3,"task-ybli",NA,32366334,9571426,NA,"complete",NA,"653154994fa6fef45b59128a","computer","Desktop or Laptop","Mac OS 10.15.7","Chrome 117.0.0.0","1440x900","1440x708",NA,NA,0,"Task Introduction and Instructions (removed audio and video)",3,"EFDGCHBIAJ","Passed AC2",NA,"Spreadsheet1",NA,"","","",NA,"5","END",NA,NA,NA,NA,NA,NA,0,NA,NA,NA,NA,"","",NA,"","",NA,"SUPPRF01788"
"1",1697734226444,"19/10/2023 16:50:26",1697737826444,1,"19/10/2023 18:50:26",147683,3,"task-ybli",NA,32368181,9572136,NA,"complete",NA,"653168b4778f39567345066d","computer","Desktop or Laptop","Windows 10","Firefox 118.0","2560x1080","2560x955",NA,NA,0,"Task Introduction and Instructions (removed audio and video)",3,"GHFIEJDACB","Passed AC2",NA,"Spreadsheet1",NA,"","","",NA,"5","BEGIN",NA,NA,NA,NA,NA,NA,0,NA,NA,NA,NA,"","",NA,"","",NA,"SUPPRF93027"
"2",1697734230822,"19/10/2023 16:50:30",1697737830822,1,"19/10/2023 18:50:30",147683,3,"task-ybli",NA,32368181,9572136,NA,"complete",NA,"653168b4778f39567345066d","computer","Desktop or Laptop","Windows 10","Firefox 118.0","2560x1080","2560x955",NA,NA,0,"Task Introduction and Instructions (removed audio and video)",3,"GHFIEJDACB","Passed AC2",NA,"Spreadsheet1",1,"Task Instructions","Screen 1","anr7sn",1,"continue","",4171.34,4166.66,4171.34,4171.34,4166.66,4171.34,1,4171.34,0,0,NA,"Click To Continue","Continue Button",2,"object-1944","Task Instructions",NA,"SUPPRF93027"
"3",1697734240210,"19/10/2023 16:50:40",1697737840210,1,"19/10/2023 18:50:40",147683,3,"task-ybli",NA,32368181,9572136,NA,"complete",NA,"653168b4778f39567345066d","computer","Desktop or Laptop","Windows 10","Firefox 118.0","2560x1080","2560x955",NA,NA,0,"Task Introduction and Instructions (removed audio and video)",3,"GHFIEJDACB","Passed AC2",NA,"Spreadsheet1",1,"Task Instructions","Screen 2","ce2tc8",2,"continue","",9394.68,9384.66,9394.68,9394.68,9384.66,9394.68,1,9394.68,0,0,NA,"Click To Continue","Continue Button",2,"object-7","Task Instructions",NA,"SUPPRF93027"
"4",1697734242630,"19/10/2023 16:50:42",1697737842630,1,"19/10/2023 18:50:42",147683,3,"task-ybli",NA,32368181,9572136,NA,"complete",NA,"653168b4778f39567345066d","computer","Desktop or Laptop","Windows 10","Firefox 118.0","2560x1080","2560x955",NA,NA,0,"Task Introduction and Instructions (removed audio and video)",3,"GHFIEJDACB","Passed AC2",NA,"Spreadsheet1",1,"Task Instructions","Screen 5","spepx9",3,"continue","",2429.02,2416.66,2429.02,2429.02,2416.66,2429.02,1,2429.02,0,0,NA,"Click To Continue","Continue Button",2,"object-9","Task Instructions",NA,"SUPPRF93027"
"5",1697734245058,"19/10/2023 16:50:45",1697737845058,1,"19/10/2023 18:50:45",147683,3,"task-ybli",NA,32368181,9572136,NA,"complete",NA,"653168b4778f39567345066d","computer","Desktop or Laptop","Windows 10","Firefox 118.0","2560x1080","2560x955",NA,NA,0,"Task Introduction and Instructions (removed audio and video)",3,"GHFIEJDACB","Passed AC2",NA,"Spreadsheet1",1,"Task Instructions","Screen 9","8nvnao",4,"continue","",2439.36,2433.34,2439.36,2439.36,2433.34,2439.36,1,2439.36,0,0,NA,"Click To Continue","Continue Button",2,"object-44","Task Instructions",NA,"SUPPRF93027"
"6",1697734245059,"19/10/2023 16:50:45",1697737845059,1,"19/10/2023 18:50:45",147683,3,"task-ybli",NA,32368181,9572136,NA,"complete",NA,"653168b4778f39567345066d","computer","Desktop or Laptop","Windows 10","Firefox 118.0","2560x1080","2560x955",NA,NA,0,"Task Introduction and Instructions (removed audio and video)",3,"GHFIEJDACB","Passed AC2",NA,"Spreadsheet1",NA,"","","",NA,"5","END",NA,NA,NA,NA,NA,NA,0,NA,NA,NA,NA,"","",NA,"","",NA,"SUPPRF93027"
"1",1697819544587,"20/10/2023 16:32:24",1697805144587,-4,"20/10/2023 08:32:24",147683,3,"task-ybli",NA,32380696,9577059,NA,"complete",NA,"6532706690febf7cc2ea91b4","computer","Desktop or Laptop","Mac OS 10.15.7","Chrome 117.0.0.0","1440x900","1440x815",NA,NA,0,"Task Introduction and Instructions (removed audio and video)",3,"JAIBHCGDFE","Passed AC2",NA,"Spreadsheet1",NA,"","","",NA,"5","BEGIN",NA,NA,NA,NA,NA,NA,0,NA,NA,NA,NA,"","",NA,"","",NA,"SUPPRF97235"
"2",1697819548305,"20/10/2023 16:32:28",1697805148305,-4,"20/10/2023 08:32:28",147683,3,"task-ybli",NA,32380696,9577059,NA,"complete",NA,"6532706690febf7cc2ea91b4","computer","Desktop or Laptop","Mac OS 10.15.7","Chrome 117.0.0.0","1440x900","1440x815",NA,NA,0,"Task Introduction and Instructions (removed audio and video)",3,"JAIBHCGDFE","Passed AC2",NA,"Spreadsheet1",1,"Task Instructions","Screen 1","anr7sn",1,"continue","",3224.103,3207.437,3224.103,3224.103,3207.437,3224.103,1,3224.103,0,0,NA,"Click To Continue","Continue Button",2,"object-1944","Task Instructions",NA,"SUPPRF97235"
"3",1697819555776,"20/10/2023 16:32:35",1697805155776,-4,"20/10/2023 08:32:35",147683,3,"task-ybli",NA,32380696,9577059,NA,"complete",NA,"6532706690febf7cc2ea91b4","computer","Desktop or Laptop","Mac OS 10.15.7","Chrome 117.0.0.0","1440x900","1440x815",NA,NA,0,"Task Introduction and Instructions (removed audio and video)",3,"JAIBHCGDFE","Passed AC2",NA,"Spreadsheet1",1,"Task Instructions","Screen 2","ce2tc8",2,"continue","",7489.27199999851,7483.034,7489.27199999851,7489.27199999851,7483.034,7489.27199999851,1,7489.27199999851,0,0,NA,"Click To Continue","Continue Button",2,"object-7","Task Instructions",NA,"SUPPRF97235"
"4",1697819558858,"20/10/2023 16:32:38",1697805158858,-4,"20/10/2023 08:32:38",147683,3,"task-ybli",NA,32380696,9577059,NA,"complete",NA,"6532706690febf7cc2ea91b4","computer","Desktop or Laptop","Mac OS 10.15.7","Chrome 117.0.0.0","1440x900","1440x815",NA,NA,0,"Task Introduction and Instructions (removed audio and video)",3,"JAIBHCGDFE","Passed AC2",NA,"Spreadsheet1",1,"Task Instructions","Screen 5","spepx9",3,"continue","",3088.73799999851,3072.431,3088.73799999851,3088.73799999851,3072.431,3088.73799999851,1,3088.73799999851,0,0,NA,"Click To Continue","Continue Button",2,"object-9","Task Instructions",NA,"SUPPRF97235"
"5",1697819562616,"20/10/2023 16:32:42",1697805162616,-4,"20/10/2023 08:32:42",147683,3,"task-ybli",NA,32380696,9577059,NA,"complete",NA,"6532706690febf7cc2ea91b4","computer","Desktop or Laptop","Mac OS 10.15.7","Chrome 117.0.0.0","1440x900","1440x815",NA,NA,0,"Task Introduction and Instructions (removed audio and video)",3,"JAIBHCGDFE","Passed AC2",NA,"Spreadsheet1",1,"Task Instructions","Screen 9","8nvnao",4,"continue","",3774.00700000149,3766.516,3774.00700000149,3774.00700000149,3766.516,3774.00700000149,1,3774.00700000149,0,0,NA,"Click To Continue","Continue Button",2,"object-44","Task Instructions",NA,"SUPPRF97235"
"6",1697819562619,"20/10/2023 16:32:42",1697805162619,-4,"20/10/2023 08:32:42",147683,3,"task-ybli",NA,32380696,9577059,NA,"complete",NA,"6532706690febf7cc2ea91b4","computer","Desktop or Laptop","Mac OS 10.15.7","Chrome 117.0.0.0","1440x900","1440x815",NA,NA,0,"Task Introduction and Instructions (removed audio and video)",3,"JAIBHCGDFE","Passed AC2",NA,"Spreadsheet1",NA,"","","",NA,"5","END",NA,NA,NA,NA,NA,NA,0,NA,NA,NA,NA,"","",NA,"","",NA,"SUPPRF97235"
"1",1697801545320,"20/10/2023 11:32:25",1697805145320,1,"20/10/2023 13:32:25",147683,3,"task-ybli",NA,32380698,9577007,NA,"rejected - time limit reached",NA,"65326ff35afdf92b45388b44","computer","Desktop or Laptop","Windows 10","Chrome 117.0.0.0","1366x768","1366x651",NA,NA,0,"Task Introduction and Instructions (removed audio and video)",3,"IJHAGBFCED","Passed AC2",NA,"Spreadsheet1",NA,"","","",NA,"5","BEGIN",NA,NA,NA,NA,NA,NA,0,NA,NA,NA,NA,"","",NA,"","",NA,NA
"2",1697801548850,"20/10/2023 11:32:28",1697805148850,1,"20/10/2023 13:32:28",147683,3,"task-ybli",NA,32380698,9577007,NA,"rejected - time limit reached",NA,"65326ff35afdf92b45388b44","computer","Desktop or Laptop","Windows 10","Chrome 117.0.0.0","1366x768","1366x651",NA,NA,0,"Task Introduction and Instructions (removed audio and video)",3,"IJHAGBFCED","Passed AC2",NA,"Spreadsheet1",1,"Task Instructions","Screen 1","anr7sn",1,"continue","",3358.04899990463,3349.847,3358.04899990463,3358.04899990463,3349.847,3358.04899990463,1,3358.04899990463,0,0,NA,"Click To Continue","Continue Button",2,"object-1944","Task Instructions",NA,NA
"3",1697801553624,"20/10/2023 11:32:33",1697805153624,1,"20/10/2023 13:32:33",147683,3,"task-ybli",NA,32380698,9577007,NA,"rejected - time limit reached",NA,"65326ff35afdf92b45388b44","computer","Desktop or Laptop","Windows 10","Chrome 117.0.0.0","1366x768","1366x651",NA,NA,0,"Task Introduction and Instructions (removed audio and video)",3,"IJHAGBFCED","Passed AC2",NA,"Spreadsheet1",1,"Task Instructions","Screen 2","ce2tc8",2,"continue","",4782.961,4766.311,4782.961,4782.961,4766.311,4782.961,1,4782.961,0,0,NA,"Click To Continue","Continue Button",2,"object-7","Task Instructions",NA,NA
"4",1697801581518,"20/10/2023 11:33:01",1697805181518,1,"20/10/2023 13:33:01",147683,3,"task-ybli",NA,32380698,9577007,NA,"rejected - time limit reached",NA,"65326ff35afdf92b45388b44","computer","Desktop or Laptop","Windows 10","Chrome 117.0.0.0","1366x768","1366x651",NA,NA,0,"Task Introduction and Instructions (removed audio and video)",3,"IJHAGBFCED","Passed AC2",NA,"Spreadsheet1",1,"Task Instructions","Screen 5","spepx9",3,"continue","",27910.291,27898.739,27910.291,27910.291,27898.739,27910.291,1,27910.291,0,0,NA,"Click To Continue","Continue Button",2,"object-9","Task Instructions",NA,NA
"5",1697801584529,"20/10/2023 11:33:04",1697805184529,1,"20/10/2023 13:33:04",147683,3,"task-ybli",NA,32380698,9577007,NA,"rejected - time limit reached",NA,"65326ff35afdf92b45388b44","computer","Desktop or Laptop","Windows 10","Chrome 117.0.0.0","1366x768","1366x651",NA,NA,0,"Task Introduction and Instructions (removed audio and video)",3,"IJHAGBFCED","Passed AC2",NA,"Spreadsheet1",1,"Task Instructions","Screen 9","8nvnao",4,"continue","",3023.45200009537,3016.50700000001,3023.45200009537,3023.45200009537,3016.50700000001,3023.45200009537,1,3023.45200009537,0,0,NA,"Click To Continue","Continue Button",2,"object-44","Task Instructions",NA,NA
"6",1697801584532,"20/10/2023 11:33:04",1697805184532,1,"20/10/2023 13:33:04",147683,3,"task-ybli",NA,32380698,9577007,NA,"rejected - time limit reached",NA,"65326ff35afdf92b45388b44","computer","Desktop or Laptop","Windows 10","Chrome 117.0.0.0","1366x768","1366x651",NA,NA,0,"Task Introduction and Instructions (removed audio and video)",3,"IJHAGBFCED","Passed AC2",NA,"Spreadsheet1",NA,"","","",NA,"5","END",NA,NA,NA,NA,NA,NA,0,NA,NA,NA,NA,"","",NA,"","",NA,NA
"1",1697802168735,"20/10/2023 11:42:48",1697805768735,1,"20/10/2023 13:42:48",147683,3,"task-ybli",NA,32380949,9577338,NA,"complete",NA,"6532739f2c4691903668628b","computer","Desktop or Laptop","Windows 10","Chrome 118.0.0.0","1536x1024","1536x867",NA,NA,0,"Task Introduction and Instructions (removed audio and video)",3,"CDBEAFJGIH","Passed AC2",NA,"Spreadsheet1",NA,"","","",NA,"5","BEGIN",NA,NA,NA,NA,NA,NA,0,NA,NA,NA,NA,"","",NA,"","",NA,"SUPPRF06488"
"2",1697802171912,"20/10/2023 11:42:51",1697805771912,1,"20/10/2023 13:42:51",147683,3,"task-ybli",NA,32380949,9577338,NA,"complete",NA,"6532739f2c4691903668628b","computer","Desktop or Laptop","Windows 10","Chrome 118.0.0.0","1536x1024","1536x867",NA,NA,0,"Task Introduction and Instructions (removed audio and video)",3,"CDBEAFJGIH","Passed AC2",NA,"Spreadsheet1",1,"Task Instructions","Screen 1","anr7sn",1,"continue","",3067.216,3050.312,3067.216,3067.216,3050.312,3067.216,1,3067.216,0,0,NA,"Click To Continue","Continue Button",2,"object-1944","Task Instructions",NA,"SUPPRF06488"
"3",1697802175911,"20/10/2023 11:42:55",1697805775911,1,"20/10/2023 13:42:55",147683,3,"task-ybli",NA,32380949,9577338,NA,"complete",NA,"6532739f2c4691903668628b","computer","Desktop or Laptop","Windows 10","Chrome 118.0.0.0","1536x1024","1536x867",NA,NA,0,"Task Introduction and Instructions (removed audio and video)",3,"CDBEAFJGIH","Passed AC2",NA,"Spreadsheet1",1,"Task Instructions","Screen 2","ce2tc8",2,"continue","",4017.062,4000.124,4017.062,4017.062,4000.124,4017.062,1,4017.062,0,0,NA,"Click To Continue","Continue Button",2,"object-7","Task Instructions",NA,"SUPPRF06488"
"4",1697802178885,"20/10/2023 11:42:58",1697805778885,1,"20/10/2023 13:42:58",147683,3,"task-ybli",NA,32380949,9577338,NA,"complete",NA,"6532739f2c4691903668628b","computer","Desktop or Laptop","Windows 10","Chrome 118.0.0.0","1536x1024","1536x867",NA,NA,0,"Task Introduction and Instructions (removed audio and video)",3,"CDBEAFJGIH","Passed AC2",NA,"Spreadsheet1",1,"Task Instructions","Screen 5","spepx9",3,"continue","",2991.27500000298,2983.355,2991.27500000298,2991.27500000298,2983.355,2991.27500000298,1,2991.27500000298,0,0,NA,"Click To Continue","Continue Button",2,"object-9","Task Instructions",NA,"SUPPRF06488"
"5",1697802181619,"20/10/2023 11:43:01",1697805781619,1,"20/10/2023 13:43:01",147683,3,"task-ybli",NA,32380949,9577338,NA,"complete",NA,"6532739f2c4691903668628b","computer","Desktop or Laptop","Windows 10","Chrome 118.0.0.0","1536x1024","1536x867",NA,NA,0,"Task Introduction and Instructions (removed audio and video)",3,"CDBEAFJGIH","Passed AC2",NA,"Spreadsheet1",1,"Task Instructions","Screen 9","8nvnao",4,"continue","",2741.72,2733.449,2741.72,2741.72,2733.449,2741.72,1,2741.72,0,0,NA,"Click To Continue","Continue Button",2,"object-44","Task Instructions",NA,"SUPPRF06488"
"6",1697802181623,"20/10/2023 11:43:01",1697805781623,1,"20/10/2023 13:43:01",147683,3,"task-ybli",NA,32380949,9577338,NA,"complete",NA,"6532739f2c4691903668628b","computer","Desktop or Laptop","Windows 10","Chrome 118.0.0.0","1536x1024","1536x867",NA,NA,0,"Task Introduction and Instructions (removed audio and video)",3,"CDBEAFJGIH","Passed AC2",NA,"Spreadsheet1",NA,"","","",NA,"5","END",NA,NA,NA,NA,NA,NA,0,NA,NA,NA,NA,"","",NA,"","",NA,"SUPPRF06488"
"1",1697802293227,"20/10/2023 11:44:53",1697805893227,1,"20/10/2023 13:44:53",147683,3,"task-ybli",NA,32381028,9577244,NA,"complete",NA,"653272c16dd19336f4549895","computer","Desktop or Laptop","Windows 10","Chrome 118.0.0.0","1366x768","1366x619",NA,NA,0,"Task Introduction and Instructions (removed audio and video)",3,"BCADJEIFHG","Passed AC2",NA,"Spreadsheet1",NA,"","","",NA,"5","BEGIN",NA,NA,NA,NA,NA,NA,0,NA,NA,NA,NA,"","",NA,"","",NA,"SUPPRF78020"
"2",1697802296896,"20/10/2023 11:44:56",1697805896896,1,"20/10/2023 13:44:56",147683,3,"task-ybli",NA,32381028,9577244,NA,"complete",NA,"653272c16dd19336f4549895","computer","Desktop or Laptop","Windows 10","Chrome 118.0.0.0","1366x768","1366x619",NA,NA,0,"Task Introduction and Instructions (removed audio and video)",3,"BCADJEIFHG","Passed AC2",NA,"Spreadsheet1",1,"Task Instructions","Screen 1","anr7sn",1,"continue","",3613.77099995232,3599.846,3613.77099995232,3613.77099995232,3599.846,3613.77099995232,1,3613.77099995232,0,0,NA,"Click To Continue","Continue Button",2,"object-1944","Task Instructions",NA,"SUPPRF78020"
"3",1697802306159,"20/10/2023 11:45:06",1697805906159,1,"20/10/2023 13:45:06",147683,3,"task-ybli",NA,32381028,9577244,NA,"complete",NA,"653272c16dd19336f4549895","computer","Desktop or Laptop","Windows 10","Chrome 118.0.0.0","1366x768","1366x619",NA,NA,0,"Task Introduction and Instructions (removed audio and video)",3,"BCADJEIFHG","Passed AC2",NA,"Spreadsheet1",1,"Task Instructions","Screen 2","ce2tc8",2,"continue","",9277.32499992847,9265.979,9277.32499992847,9277.32499992847,9265.979,9277.32499992847,1,9277.32499992847,0,0,NA,"Click To Continue","Continue Button",2,"object-7","Task Instructions",NA,"SUPPRF78020"
"4",1697802309006,"20/10/2023 11:45:09",1697805909006,1,"20/10/2023 13:45:09",147683,3,"task-ybli",NA,32381028,9577244,NA,"complete",NA,"653272c16dd19336f4549895","computer","Desktop or Laptop","Windows 10","Chrome 118.0.0.0","1366x768","1366x619",NA,NA,0,"Task Introduction and Instructions (removed audio and video)",3,"BCADJEIFHG","Passed AC2",NA,"Spreadsheet1",1,"Task Instructions","Screen 5","spepx9",3,"continue","",2858.646,2849.782,2858.646,2858.646,2849.782,2858.646,1,2858.646,0,0,NA,"Click To Continue","Continue Button",2,"object-9","Task Instructions",NA,"SUPPRF78020"
"5",1697802312195,"20/10/2023 11:45:12",1697805912195,1,"20/10/2023 13:45:12",147683,3,"task-ybli",NA,32381028,9577244,NA,"complete",NA,"653272c16dd19336f4549895","computer","Desktop or Laptop","Windows 10","Chrome 118.0.0.0","1366x768","1366x619",NA,NA,0,"Task Introduction and Instructions (removed audio and video)",3,"BCADJEIFHG","Passed AC2",NA,"Spreadsheet1",1,"Task Instructions","Screen 9","8nvnao",4,"continue","",3197.16399995232,3183.113,3197.16399995232,3197.16399995232,3183.113,3197.16399995232,1,3197.16399995232,0,0,NA,"Click To Continue","Continue Button",2,"object-44","Task Instructions",NA,"SUPPRF78020"
"6",1697802312197,"20/10/2023 11:45:12",1697805912197,1,"20/10/2023 13:45:12",147683,3,"task-ybli",NA,32381028,9577244,NA,"complete",NA,"653272c16dd19336f4549895","computer","Desktop or Laptop","Windows 10","Chrome 118.0.0.0","1366x768","1366x619",NA,NA,0,"Task Introduction and Instructions (removed audio and video)",3,"BCADJEIFHG","Passed AC2",NA,"Spreadsheet1",NA,"","","",NA,"5","END",NA,NA,NA,NA,NA,NA,0,NA,NA,NA,NA,"","",NA,"","",NA,"SUPPRF78020"
"1",1697802422888,"20/10/2023 11:47:02",1697806022888,1,"20/10/2023 13:47:02",147683,3,"task-ybli",NA,32381085,9577396,NA,"complete",NA,"6532741adb139ac3ecdd48d4","computer","Desktop or Laptop","Mac OS 10.15.7","Chrome 117.0.0.0","1440x900","794x741",NA,NA,0,"Task Introduction and Instructions (removed audio and video)",3,"DECFBGAHJI","Passed AC2",NA,"Spreadsheet1",NA,"","","",NA,"5","BEGIN",NA,NA,NA,NA,NA,NA,0,NA,NA,NA,NA,"","",NA,"","",NA,"SUPPRF45081"
"2",1697802426064,"20/10/2023 11:47:06",1697806026064,1,"20/10/2023 13:47:06",147683,3,"task-ybli",NA,32381085,9577396,NA,"complete",NA,"6532741adb139ac3ecdd48d4","computer","Desktop or Laptop","Mac OS 10.15.7","Chrome 117.0.0.0","1440x900","794x741",NA,NA,0,"Task Introduction and Instructions (removed audio and video)",3,"DECFBGAHJI","Passed AC2",NA,"Spreadsheet1",1,"Task Instructions","Screen 1","anr7sn",1,"continue","",3099.876,3083.21,3099.876,3099.876,3083.21,3099.876,1,3099.876,0,0,NA,"Click To Continue","Continue Button",2,"object-1944","Task Instructions",NA,"SUPPRF45081"
"3",1697802431738,"20/10/2023 11:47:11",1697806031738,1,"20/10/2023 13:47:11",147683,3,"task-ybli",NA,32381085,9577396,NA,"complete",NA,"6532741adb139ac3ecdd48d4","computer","Desktop or Laptop","Mac OS 10.15.7","Chrome 117.0.0.0","1440x900","794x741",NA,NA,0,"Task Introduction and Instructions (removed audio and video)",3,"DECFBGAHJI","Passed AC2",NA,"Spreadsheet1",1,"Task Instructions","Screen 2","ce2tc8",2,"continue","",5692.45300003576,5683.344,5692.45300003576,5692.45300003576,5683.344,5692.45300003576,1,5692.45300003576,0,0,NA,"Click To Continue","Continue Button",2,"object-7","Task Instructions",NA,"SUPPRF45081"
"4",1697802434476,"20/10/2023 11:47:14",1697806034476,1,"20/10/2023 13:47:14",147683,3,"task-ybli",NA,32381085,9577396,NA,"complete",NA,"6532741adb139ac3ecdd48d4","computer","Desktop or Laptop","Mac OS 10.15.7","Chrome 117.0.0.0","1440x900","794x741",NA,NA,0,"Task Introduction and Instructions (removed audio and video)",3,"DECFBGAHJI","Passed AC2",NA,"Spreadsheet1",1,"Task Instructions","Screen 5","spepx9",3,"continue","",2747.60900003576,2733.224,2747.60900003576,2747.60900003576,2733.224,2747.60900003576,1,2747.60900003576,0,0,NA,"Click To Continue","Continue Button",2,"object-9","Task Instructions",NA,"SUPPRF45081"
"5",1697802436937,"20/10/2023 11:47:16",1697806036937,1,"20/10/2023 13:47:16",147683,3,"task-ybli",NA,32381085,9577396,NA,"complete",NA,"6532741adb139ac3ecdd48d4","computer","Desktop or Laptop","Mac OS 10.15.7","Chrome 117.0.0.0","1440x900","794x741",NA,NA,0,"Task Introduction and Instructions (removed audio and video)",3,"DECFBGAHJI","Passed AC2",NA,"Spreadsheet1",1,"Task Instructions","Screen 9","8nvnao",4,"continue","",2475.18500004768,2466.568,2475.18500004768,2475.18500004768,2466.568,2475.18500004768,1,2475.18500004768,0,0,NA,"Click To Continue","Continue Button",2,"object-44","Task Instructions",NA,"SUPPRF45081"
"6",1697802436939,"20/10/2023 11:47:16",1697806036939,1,"20/10/2023 13:47:16",147683,3,"task-ybli",NA,32381085,9577396,NA,"complete",NA,"6532741adb139ac3ecdd48d4","computer","Desktop or Laptop","Mac OS 10.15.7","Chrome 117.0.0.0","1440x900","794x741",NA,NA,0,"Task Introduction and Instructions (removed audio and video)",3,"DECFBGAHJI","Passed AC2",NA,"Spreadsheet1",NA,"","","",NA,"5","END",NA,NA,NA,NA,NA,NA,0,NA,NA,NA,NA,"","",NA,"","",NA,"SUPPRF45081"
"1",1697802443060,"20/10/2023 11:47:23",1697806043060,1,"20/10/2023 13:47:23",147683,3,"task-ybli",NA,32381094,9577424,NA,"complete",NA,"65327436bd8652e10f461c5e","tablet","Apple iPad","iOS 16.6","Chrome 118.0.5993.92","834x1112","782x719",NA,NA,0,"Task Introduction and Instructions (removed audio and video)",3,"EFDGCHBIAJ","Passed AC2",NA,"Spreadsheet1",NA,"","","",NA,"5","BEGIN",NA,NA,NA,NA,NA,NA,0,NA,NA,NA,NA,"","",NA,"","",NA,"SUPPRF55923"
"2",1697802446214,"20/10/2023 11:47:26",1697806046214,1,"20/10/2023 13:47:26",147683,3,"task-ybli",NA,32381094,9577424,NA,"complete",NA,"65327436bd8652e10f461c5e","tablet","Apple iPad","iOS 16.6","Chrome 118.0.5993.92","834x1112","782x719",NA,NA,0,"Task Introduction and Instructions (removed audio and video)",3,"EFDGCHBIAJ","Passed AC2",NA,"Spreadsheet1",1,"Task Instructions","Screen 1","anr7sn",1,"continue","",3082,3066,3082,3082,3066,3082,1,3082,0,0,NA,"Click To Continue","Continue Button",2,"object-1944","Task Instructions",NA,"SUPPRF55923"
"3",1697802457781,"20/10/2023 11:47:37",1697806057781,1,"20/10/2023 13:47:37",147683,3,"task-ybli",NA,32381094,9577424,NA,"complete",NA,"65327436bd8652e10f461c5e","tablet","Apple iPad","iOS 16.6","Chrome 118.0.5993.92","834x1112","782x719",NA,NA,0,"Task Introduction and Instructions (removed audio and video)",3,"EFDGCHBIAJ","Passed AC2",NA,"Spreadsheet1",1,"Task Instructions","Screen 2","ce2tc8",2,"continue","",11598,11584,11598,11598,11584,11598,1,11598,0,0,NA,"Click To Continue","Continue Button",2,"object-7","Task Instructions",NA,"SUPPRF55923"
"4",1697802460890,"20/10/2023 11:47:40",1697806060890,1,"20/10/2023 13:47:40",147683,3,"task-ybli",NA,32381094,9577424,NA,"complete",NA,"65327436bd8652e10f461c5e","tablet","Apple iPad","iOS 16.6","Chrome 118.0.5993.92","834x1112","782x719",NA,NA,0,"Task Introduction and Instructions (removed audio and video)",3,"EFDGCHBIAJ","Passed AC2",NA,"Spreadsheet1",1,"Task Instructions","Screen 5","spepx9",3,"continue","",3118,3101,3118,3118,3101,3118,1,3118,0,0,NA,"Click To Continue","Continue Button",2,"object-9","Task Instructions",NA,"SUPPRF55923"
"5",1697802468030,"20/10/2023 11:47:48",1697806068030,1,"20/10/2023 13:47:48",147683,3,"task-ybli",NA,32381094,9577424,NA,"complete",NA,"65327436bd8652e10f461c5e","tablet","Apple iPad","iOS 16.6","Chrome 118.0.5993.92","834x1112","1112x719",NA,NA,0,"Task Introduction and Instructions (removed audio and video)",3,"EFDGCHBIAJ","Passed AC2",NA,"Spreadsheet1",1,"Task Instructions","Screen 9","8nvnao",4,"continue","",7163,7150,7163,7163,7150,7163,1,7163,0,0,NA,"Click To Continue","Continue Button",2,"object-44","Task Instructions",NA,"SUPPRF55923"
"6",1697802468041,"20/10/2023 11:47:48",1697806068041,1,"20/10/2023 13:47:48",147683,3,"task-ybli",NA,32381094,9577424,NA,"complete",NA,"65327436bd8652e10f461c5e","tablet","Apple iPad","iOS 16.6","Chrome 118.0.5993.92","834x1112","1112x719",NA,NA,0,"Task Introduction and Instructions (removed audio and video)",3,"EFDGCHBIAJ","Passed AC2",NA,"Spreadsheet1",NA,"","","",NA,"5","END",NA,NA,NA,NA,NA,NA,0,NA,NA,NA,NA,"","",NA,"","",NA,"SUPPRF55923"
"1",1697802522715,"20/10/2023 11:48:42",1697806122715,1,"20/10/2023 13:48:42",147683,3,"task-ybli",NA,32381128,9577446,NA,"complete",NA,"653274782a9833c271b31a6e","computer","Desktop or Laptop","Windows 10","Chrome 118.0.0.0","1366x768","2049x927",NA,NA,0,"Task Introduction and Instructions (removed audio and video)",3,"FGEHDICJBA","Passed AC2",NA,"Spreadsheet1",NA,"","","",NA,"5","BEGIN",NA,NA,NA,NA,NA,NA,0,NA,NA,NA,NA,"","",NA,"","",NA,"SUPPRF05688"
"2",1697802526500,"20/10/2023 11:48:46",1697806126500,1,"20/10/2023 13:48:46",147683,3,"task-ybli",NA,32381128,9577446,NA,"complete",NA,"653274782a9833c271b31a6e","computer","Desktop or Laptop","Windows 10","Chrome 118.0.0.0","1366x768","2049x927",NA,NA,0,"Task Introduction and Instructions (removed audio and video)",3,"FGEHDICJBA","Passed AC2",NA,"Spreadsheet1",1,"Task Instructions","Screen 1","anr7sn",1,"continue","",3483.394,3466.652,3483.394,3483.394,3466.652,3483.394,1,3483.394,0,0,NA,"Click To Continue","Continue Button",2,"object-1944","Task Instructions",NA,"SUPPRF05688"
"3",1697802533970,"20/10/2023 11:48:53",1697806133970,1,"20/10/2023 13:48:53",147683,3,"task-ybli",NA,32381128,9577446,NA,"complete",NA,"653274782a9833c271b31a6e","computer","Desktop or Laptop","Windows 10","Chrome 118.0.0.0","1366x768","2049x927",NA,NA,0,"Task Introduction and Instructions (removed audio and video)",3,"FGEHDICJBA","Passed AC2",NA,"Spreadsheet1",1,"Task Instructions","Screen 2","ce2tc8",2,"continue","",7491.79399999404,7483.534,7491.79399999404,7491.79399999404,7483.534,7491.79399999404,1,7491.79399999404,0,0,NA,"Click To Continue","Continue Button",2,"object-7","Task Instructions",NA,"SUPPRF05688"
"4",1697802537956,"20/10/2023 11:48:57",1697806137956,1,"20/10/2023 13:48:57",147683,3,"task-ybli",NA,32381128,9577446,NA,"complete",NA,"653274782a9833c271b31a6e","computer","Desktop or Laptop","Windows 10","Chrome 118.0.0.0","1366x768","2049x927",NA,NA,0,"Task Introduction and Instructions (removed audio and video)",3,"FGEHDICJBA","Passed AC2",NA,"Spreadsheet1",1,"Task Instructions","Screen 5","spepx9",3,"continue","",3994.35999998808,3983.49,3994.35999998808,3994.35999998808,3983.49,3994.35999998808,1,3994.35999998808,0,0,NA,"Click To Continue","Continue Button",2,"object-9","Task Instructions",NA,"SUPPRF05688"
"5",1697802540613,"20/10/2023 11:49:00",1697806140613,1,"20/10/2023 13:49:00",147683,3,"task-ybli",NA,32381128,9577446,NA,"complete",NA,"653274782a9833c271b31a6e","computer","Desktop or Laptop","Windows 10","Chrome 118.0.0.0","1366x768","2049x927",NA,NA,0,"Task Introduction and Instructions (removed audio and video)",3,"FGEHDICJBA","Passed AC2",NA,"Spreadsheet1",1,"Task Instructions","Screen 9","8nvnao",4,"continue","",2666.56099999999,2649.896,2666.56099999999,2666.56099999999,2649.896,2666.56099999999,1,2666.56099999999,0,0,NA,"Click To Continue","Continue Button",2,"object-44","Task Instructions",NA,"SUPPRF05688"
"6",1697802540621,"20/10/2023 11:49:00",1697806140621,1,"20/10/2023 13:49:00",147683,3,"task-ybli",NA,32381128,9577446,NA,"complete",NA,"653274782a9833c271b31a6e","computer","Desktop or Laptop","Windows 10","Chrome 118.0.0.0","1366x768","2049x927",NA,NA,0,"Task Introduction and Instructions (removed audio and video)",3,"FGEHDICJBA","Passed AC2",NA,"Spreadsheet1",NA,"","","",NA,"5","END",NA,NA,NA,NA,NA,NA,0,NA,NA,NA,NA,"","",NA,"","",NA,"SUPPRF05688"
"1",1697802575781,"20/10/2023 11:49:35",1697806175781,1,"20/10/2023 13:49:35",147683,3,"task-ybli",NA,32381153,9577436,NA,"complete",NA,"653274794c2d3cfdfbb3c7b1","computer","Desktop or Laptop","Windows 10","Firefox 120.0","2560x1440","1279x1286",NA,NA,0,"Task Introduction and Instructions (removed audio and video)",3,"GHFIEJDACB","Passed AC2",NA,"Spreadsheet1",NA,"","","",NA,"5","BEGIN",NA,NA,NA,NA,NA,NA,0,NA,NA,NA,NA,"","",NA,"","",NA,"SUPPRF44350"
"2",1697802579934,"20/10/2023 11:49:39",1697806179934,1,"20/10/2023 13:49:39",147683,3,"task-ybli",NA,32381153,9577436,NA,"complete",NA,"653274794c2d3cfdfbb3c7b1","computer","Desktop or Laptop","Windows 10","Firefox 120.0","2560x1440","1279x1286",NA,NA,0,"Task Introduction and Instructions (removed audio and video)",3,"GHFIEJDACB","Passed AC2",NA,"Spreadsheet1",1,"Task Instructions","Screen 1","anr7sn",1,"continue","",4033.56,4016.88,4033.56,4033.56,4016.88,4033.56,1,4033.56,0,0,NA,"Click To Continue","Continue Button",2,"object-1944","Task Instructions",NA,"SUPPRF44350"
"3",1697802586729,"20/10/2023 11:49:46",1697806186729,1,"20/10/2023 13:49:46",147683,3,"task-ybli",NA,32381153,9577436,NA,"complete",NA,"653274794c2d3cfdfbb3c7b1","computer","Desktop or Laptop","Windows 10","Firefox 120.0","2560x1440","1279x1286",NA,NA,0,"Task Introduction and Instructions (removed audio and video)",3,"GHFIEJDACB","Passed AC2",NA,"Spreadsheet1",1,"Task Instructions","Screen 2","ce2tc8",2,"continue","",6811.5,6802.28,6811.5,6811.5,6802.28,6811.5,1,6811.5,0,0,NA,"Click To Continue","Continue Button",2,"object-7","Task Instructions",NA,"SUPPRF44350"
"4",1697802603274,"20/10/2023 11:50:03",1697806203274,1,"20/10/2023 13:50:03",147683,3,"task-ybli",NA,32381153,9577436,NA,"complete",NA,"653274794c2d3cfdfbb3c7b1","computer","Desktop or Laptop","Windows 10","Firefox 120.0","2560x1440","1279x1286",NA,NA,0,"Task Introduction and Instructions (removed audio and video)",3,"GHFIEJDACB","Passed AC2",NA,"Spreadsheet1",1,"Task Instructions","Screen 5","spepx9",3,"continue","",16555.22,16550.82,16555.22,16555.22,16550.82,16555.22,1,16555.22,0,0,NA,"Click To Continue","Continue Button",2,"object-9","Task Instructions",NA,"SUPPRF44350"
"5",1697802607915,"20/10/2023 11:50:07",1697806207915,1,"20/10/2023 13:50:07",147683,3,"task-ybli",NA,32381153,9577436,NA,"complete",NA,"653274794c2d3cfdfbb3c7b1","computer","Desktop or Laptop","Windows 10","Firefox 120.0","2560x1440","1279x1286",NA,NA,0,"Task Introduction and Instructions (removed audio and video)",3,"GHFIEJDACB","Passed AC2",NA,"Spreadsheet1",1,"Task Instructions","Screen 9","8nvnao",4,"response","bot",4645.4,4633.58,4645.4,4645.4,4633.58,4645.4,1,4645.4,0,0,NA,"Click Response","Response",5,"object-47","Task Instructions",NA,"SUPPRF44350"
"6",1697802607917,"20/10/2023 11:50:07",1697806207917,1,"20/10/2023 13:50:07",147683,3,"task-ybli",NA,32381153,9577436,NA,"complete",NA,"653274794c2d3cfdfbb3c7b1","computer","Desktop or Laptop","Windows 10","Firefox 120.0","2560x1440","1279x1286",NA,NA,0,"Task Introduction and Instructions (removed audio and video)",3,"GHFIEJDACB","Passed AC2",NA,"Spreadsheet1",NA,"","","",NA,"5","END",NA,NA,NA,NA,NA,NA,0,NA,NA,NA,NA,"","",NA,"","",NA,"SUPPRF44350"
"1",1697802668141,"20/10/2023 11:51:08",1697806268141,1,"20/10/2023 13:51:08",147683,3,"task-ybli",NA,32381191,9577432,NA,"complete",NA,"6532712d72e164e0bfb915f6","computer","Desktop or Laptop","Windows 10","Chrome 118.0.0.0","1923x947","1920x941",NA,NA,0,"Task Introduction and Instructions (removed audio and video)",3,"JAIBHCGDFE","Passed AC2",NA,"Spreadsheet1",NA,"","","",NA,"5","BEGIN",NA,NA,NA,NA,NA,NA,0,NA,NA,NA,NA,"","",NA,"","",NA,"SUPPRF73219"
"2",1697802679664,"20/10/2023 11:51:19",1697806279664,1,"20/10/2023 13:51:19",147683,3,"task-ybli",NA,32381191,9577432,NA,"complete",NA,"6532712d72e164e0bfb915f6","computer","Desktop or Laptop","Windows 10","Chrome 118.0.0.0","1923x947","1920x941",NA,NA,0,"Task Introduction and Instructions (removed audio and video)",3,"JAIBHCGDFE","Passed AC2",NA,"Spreadsheet1",1,"Task Instructions","Screen 1","anr7sn",1,"continue","",11502,11500,11502,11502,11500,11502,1,11502,0,0,NA,"Click To Continue","Continue Button",2,"object-1944","Task Instructions",NA,"SUPPRF73219"
"3",1697802684205,"20/10/2023 11:51:24",1697806284205,1,"20/10/2023 13:51:24",147683,3,"task-ybli",NA,32381191,9577432,NA,"complete",NA,"6532712d72e164e0bfb915f6","computer","Desktop or Laptop","Windows 10","Chrome 118.0.0.0","1923x947","1920x941",NA,NA,0,"Task Introduction and Instructions (removed audio and video)",3,"JAIBHCGDFE","Passed AC2",NA,"Spreadsheet1",1,"Task Instructions","Screen 2","ce2tc8",2,"continue","",4543,4533,4543,4543,4533,4543,1,4543,0,0,NA,"Click To Continue","Continue Button",2,"object-7","Task Instructions",NA,"SUPPRF73219"
"4",1697802687124,"20/10/2023 11:51:27",1697806287124,1,"20/10/2023 13:51:27",147683,3,"task-ybli",NA,32381191,9577432,NA,"complete",NA,"6532712d72e164e0bfb915f6","computer","Desktop or Laptop","Windows 10","Chrome 118.0.0.0","1923x947","1920x941",NA,NA,0,"Task Introduction and Instructions (removed audio and video)",3,"JAIBHCGDFE","Passed AC2",NA,"Spreadsheet1",1,"Task Instructions","Screen 5","spepx9",3,"continue","",2929,2917,2929,2929,2917,2929,1,2929,0,0,NA,"Click To Continue","Continue Button",2,"object-9","Task Instructions",NA,"SUPPRF73219"
"5",1697802689750,"20/10/2023 11:51:29",1697806289750,1,"20/10/2023 13:51:29",147683,3,"task-ybli",NA,32381191,9577432,NA,"complete",NA,"6532712d72e164e0bfb915f6","computer","Desktop or Laptop","Windows 10","Chrome 118.0.0.0","1923x947","1920x941",NA,NA,0,"Task Introduction and Instructions (removed audio and video)",3,"JAIBHCGDFE","Passed AC2",NA,"Spreadsheet1",1,"Task Instructions","Screen 9","8nvnao",4,"continue","",2637,2633,2637,2637,2633,2637,1,2637,0,0,NA,"Click To Continue","Continue Button",2,"object-44","Task Instructions",NA,"SUPPRF73219"
"6",1697802689753,"20/10/2023 11:51:29",1697806289753,1,"20/10/2023 13:51:29",147683,3,"task-ybli",NA,32381191,9577432,NA,"complete",NA,"6532712d72e164e0bfb915f6","computer","Desktop or Laptop","Windows 10","Chrome 118.0.0.0","1923x947","1920x941",NA,NA,0,"Task Introduction and Instructions (removed audio and video)",3,"JAIBHCGDFE","Passed AC2",NA,"Spreadsheet1",NA,"","","",NA,"5","END",NA,NA,NA,NA,NA,NA,0,NA,NA,NA,NA,"","",NA,"","",NA,"SUPPRF73219"
"1",1697802820231,"20/10/2023 11:53:40",1697806420231,1,"20/10/2023 13:53:40",147683,3,"task-ybli",NA,32381230,9577503,NA,"complete",NA,"653274d8009590ef598fd9dd","computer","Desktop or Laptop","Windows 10","Chrome 118.0.0.0","1280x720","1280x563",NA,NA,0,"Task Introduction and Instructions (removed audio and video)",3,"IJHAGBFCED","Passed AC2",NA,"Spreadsheet1",NA,"","","",NA,"5","BEGIN",NA,NA,NA,NA,NA,NA,0,NA,NA,NA,NA,"","",NA,"","",NA,"SUPPRF38095"
"2",1697802837072,"20/10/2023 11:53:57",1697806437072,1,"20/10/2023 13:53:57",147683,3,"task-ybli",NA,32381230,9577503,NA,"complete",NA,"653274d8009590ef598fd9dd","computer","Desktop or Laptop","Windows 10","Chrome 118.0.0.0","1280x720","1280x563",NA,NA,0,"Task Introduction and Instructions (removed audio and video)",3,"IJHAGBFCED","Passed AC2",NA,"Spreadsheet1",1,"Task Instructions","Screen 1","anr7sn",1,"continue","",16650.183,16633.446,16650.183,16650.183,16633.446,16650.183,1,16650.183,0,0,NA,"Click To Continue","Continue Button",2,"object-1944","Task Instructions",NA,"SUPPRF38095"
"3",1697802843031,"20/10/2023 11:54:03",1697806443031,1,"20/10/2023 13:54:03",147683,3,"task-ybli",NA,32381230,9577503,NA,"complete",NA,"653274d8009590ef598fd9dd","computer","Desktop or Laptop","Windows 10","Chrome 118.0.0.0","1280x720","1280x563",NA,NA,0,"Task Introduction and Instructions (removed audio and video)",3,"IJHAGBFCED","Passed AC2",NA,"Spreadsheet1",1,"Task Instructions","Screen 2","ce2tc8",2,"continue","",5988.85599999702,5983.731,5988.85599999702,5988.85599999702,5983.731,5988.85599999702,1,5988.85599999702,0,0,NA,"Click To Continue","Continue Button",2,"object-7","Task Instructions",NA,"SUPPRF38095"
"4",1697802845922,"20/10/2023 11:54:05",1697806445922,1,"20/10/2023 13:54:05",147683,3,"task-ybli",NA,32381230,9577503,NA,"complete",NA,"653274d8009590ef598fd9dd","computer","Desktop or Laptop","Windows 10","Chrome 118.0.0.0","1280x720","1280x563",NA,NA,0,"Task Introduction and Instructions (removed audio and video)",3,"IJHAGBFCED","Passed AC2",NA,"Spreadsheet1",1,"Task Instructions","Screen 5","spepx9",3,"continue","",2897.12499999702,2883.168,2897.12499999702,2897.12499999702,2883.168,2897.12499999702,1,2897.12499999702,0,0,NA,"Click To Continue","Continue Button",2,"object-9","Task Instructions",NA,"SUPPRF38095"
"5",1697802848771,"20/10/2023 11:54:08",1697806448771,1,"20/10/2023 13:54:08",147683,3,"task-ybli",NA,32381230,9577503,NA,"complete",NA,"653274d8009590ef598fd9dd","computer","Desktop or Laptop","Windows 10","Chrome 118.0.0.0","1280x720","1280x563",NA,NA,0,"Task Introduction and Instructions (removed audio and video)",3,"IJHAGBFCED","Passed AC2",NA,"Spreadsheet1",1,"Task Instructions","Screen 9","8nvnao",4,"continue","",2862.35700000298,2850.171,2862.35700000298,2862.35700000298,2850.171,2862.35700000298,1,2862.35700000298,0,0,NA,"Click To Continue","Continue Button",2,"object-44","Task Instructions",NA,"SUPPRF38095"
"6",1697802848788,"20/10/2023 11:54:08",1697806448788,1,"20/10/2023 13:54:08",147683,3,"task-ybli",NA,32381230,9577503,NA,"complete",NA,"653274d8009590ef598fd9dd","computer","Desktop or Laptop","Windows 10","Chrome 118.0.0.0","1280x720","1280x563",NA,NA,0,"Task Introduction and Instructions (removed audio and video)",3,"IJHAGBFCED","Passed AC2",NA,"Spreadsheet1",NA,"","","",NA,"5","END",NA,NA,NA,NA,NA,NA,0,NA,NA,NA,NA,"","",NA,"","",NA,"SUPPRF38095"
"1",1697802910810,"20/10/2023 11:55:10",1697806510810,1,"20/10/2023 13:55:10",147683,3,"task-ybli",NA,32381260,9577484,NA,"complete",NA,"653274e0a37f4de4ab6817c9","computer","Desktop or Laptop","Windows 10","Chrome 117.0.0.0","1920x1080","1920x963",NA,NA,0,"Task Introduction and Instructions (removed audio and video)",3,"HIGJFAEBDC","Passed AC2",NA,"Spreadsheet1",NA,"","","",NA,"5","BEGIN",NA,NA,NA,NA,NA,NA,0,NA,NA,NA,NA,"","",NA,"","",NA,"SUPPRF56321"
"2",1697802916747,"20/10/2023 11:55:16",1697806516747,1,"20/10/2023 13:55:16",147683,3,"task-ybli",NA,32381260,9577484,NA,"complete",NA,"653274e0a37f4de4ab6817c9","computer","Desktop or Laptop","Windows 10","Chrome 117.0.0.0","1920x1080","1920x963",NA,NA,0,"Task Introduction and Instructions (removed audio and video)",3,"HIGJFAEBDC","Passed AC2",NA,"Spreadsheet1",1,"Task Instructions","Screen 1","anr7sn",1,"continue","",5739.695,5723.028,5739.695,5739.695,5723.028,5739.695,1,5739.695,0,0,NA,"Click To Continue","Continue Button",2,"object-1944","Task Instructions",NA,"SUPPRF56321"
"3",1697802925681,"20/10/2023 11:55:25",1697806525681,1,"20/10/2023 13:55:25",147683,3,"task-ybli",NA,32381260,9577484,NA,"complete",NA,"653274e0a37f4de4ab6817c9","computer","Desktop or Laptop","Windows 10","Chrome 117.0.0.0","1920x1080","1920x963",NA,NA,0,"Task Introduction and Instructions (removed audio and video)",3,"HIGJFAEBDC","Passed AC2",NA,"Spreadsheet1",1,"Task Instructions","Screen 2","ce2tc8",2,"continue","",8926.693,8910.015,8926.693,8926.693,8910.015,8926.693,1,8926.693,0,0,NA,"Click To Continue","Continue Button",2,"object-7","Task Instructions",NA,"SUPPRF56321"
"4",1697802929519,"20/10/2023 11:55:29",1697806529519,1,"20/10/2023 13:55:29",147683,3,"task-ybli",NA,32381260,9577484,NA,"complete",NA,"653274e0a37f4de4ab6817c9","computer","Desktop or Laptop","Windows 10","Chrome 117.0.0.0","1920x1080","1920x963",NA,NA,0,"Task Introduction and Instructions (removed audio and video)",3,"HIGJFAEBDC","Passed AC2",NA,"Spreadsheet1",1,"Task Instructions","Screen 5","spepx9",3,"continue","",3887.24700000596,3871.113,3887.24700000596,3887.24700000596,3871.113,3887.24700000596,1,3887.24700000596,0,0,NA,"Click To Continue","Continue Button",2,"object-9","Task Instructions",NA,"SUPPRF56321"
"5",1697802932040,"20/10/2023 11:55:32",1697806532040,1,"20/10/2023 13:55:32",147683,3,"task-ybli",NA,32381260,9577484,NA,"complete",NA,"653274e0a37f4de4ab6817c9","computer","Desktop or Laptop","Windows 10","Chrome 117.0.0.0","1920x1080","1920x963",NA,NA,0,"Task Introduction and Instructions (removed audio and video)",3,"HIGJFAEBDC","Passed AC2",NA,"Spreadsheet1",1,"Task Instructions","Screen 9","8nvnao",4,"continue","",2536.208,2519.477,2536.208,2536.208,2519.477,2536.208,1,2536.208,0,0,NA,"Click To Continue","Continue Button",2,"object-44","Task Instructions",NA,"SUPPRF56321"
"6",1697802932064,"20/10/2023 11:55:32",1697806532064,1,"20/10/2023 13:55:32",147683,3,"task-ybli",NA,32381260,9577484,NA,"complete",NA,"653274e0a37f4de4ab6817c9","computer","Desktop or Laptop","Windows 10","Chrome 117.0.0.0","1920x1080","1920x963",NA,NA,0,"Task Introduction and Instructions (removed audio and video)",3,"HIGJFAEBDC","Passed AC2",NA,"Spreadsheet1",NA,"","","",NA,"5","END",NA,NA,NA,NA,NA,NA,0,NA,NA,NA,NA,"","",NA,"","",NA,"SUPPRF56321"
"1",1697802924670,"20/10/2023 11:55:24",1697806524670,1,"20/10/2023 13:55:24",147683,3,"task-ybli",NA,32381262,9577632,NA,"complete",NA,"6532766f7437bf7e1831323b","computer","Desktop or Laptop","Windows 10","Chrome 118.0.0.0","1280x720","1280x595",NA,NA,0,"Task Introduction and Instructions (removed audio and video)",3,"CDBEAFJGIH","Passed AC2",NA,"Spreadsheet1",NA,"","","",NA,"5","BEGIN",NA,NA,NA,NA,NA,NA,0,NA,NA,NA,NA,"","",NA,"","",NA,"SUPPRF46237"
"2",1697802928426,"20/10/2023 11:55:28",1697806528426,1,"20/10/2023 13:55:28",147683,3,"task-ybli",NA,32381262,9577632,NA,"complete",NA,"6532766f7437bf7e1831323b","computer","Desktop or Laptop","Windows 10","Chrome 118.0.0.0","1280x720","1280x595",NA,NA,0,"Task Introduction and Instructions (removed audio and video)",3,"CDBEAFJGIH","Passed AC2",NA,"Spreadsheet1",1,"Task Instructions","Screen 1","anr7sn",1,"continue","",3365.56,3349.558,3365.56,3365.56,3349.558,3365.56,1,3365.56,0,0,NA,"Click To Continue","Continue Button",2,"object-1944","Task Instructions",NA,"SUPPRF46237"
"3",1697802934573,"20/10/2023 11:55:34",1697806534573,1,"20/10/2023 13:55:34",147683,3,"task-ybli",NA,32381262,9577632,NA,"complete",NA,"6532766f7437bf7e1831323b","computer","Desktop or Laptop","Windows 10","Chrome 118.0.0.0","1280x720","1280x595",NA,NA,0,"Task Introduction and Instructions (removed audio and video)",3,"CDBEAFJGIH","Passed AC2",NA,"Spreadsheet1",1,"Task Instructions","Screen 2","ce2tc8",2,"continue","",6164.60200002384,6149.92,6164.60200002384,6164.60200002384,6149.92,6164.60200002384,1,6164.60200002384,0,0,NA,"Click To Continue","Continue Button",2,"object-7","Task Instructions",NA,"SUPPRF46237"
"4",1697802937324,"20/10/2023 11:55:37",1697806537324,1,"20/10/2023 13:55:37",147683,3,"task-ybli",NA,32381262,9577632,NA,"complete",NA,"6532766f7437bf7e1831323b","computer","Desktop or Laptop","Windows 10","Chrome 118.0.0.0","1280x720","1280x595",NA,NA,0,"Task Introduction and Instructions (removed audio and video)",3,"CDBEAFJGIH","Passed AC2",NA,"Spreadsheet1",1,"Task Instructions","Screen 5","spepx9",3,"continue","",2766.18200002384,2749.616,2766.18200002384,2766.18200002384,2749.616,2766.18200002384,1,2766.18200002384,0,0,NA,"Click To Continue","Continue Button",2,"object-9","Task Instructions",NA,"SUPPRF46237"
"5",1697802940143,"20/10/2023 11:55:40",1697806540143,1,"20/10/2023 13:55:40",147683,3,"task-ybli",NA,32381262,9577632,NA,"complete",NA,"6532766f7437bf7e1831323b","computer","Desktop or Laptop","Windows 10","Chrome 118.0.0.0","1280x720","1280x595",NA,NA,0,"Task Introduction and Instructions (removed audio and video)",3,"CDBEAFJGIH","Passed AC2",NA,"Spreadsheet1",1,"Task Instructions","Screen 9","8nvnao",4,"continue","",2834.966,2832.349,2834.966,2834.966,2832.349,2834.966,1,2834.966,0,0,NA,"Click To Continue","Continue Button",2,"object-44","Task Instructions",NA,"SUPPRF46237"
"6",1697802940149,"20/10/2023 11:55:40",1697806540149,1,"20/10/2023 13:55:40",147683,3,"task-ybli",NA,32381262,9577632,NA,"complete",NA,"6532766f7437bf7e1831323b","computer","Desktop or Laptop","Windows 10","Chrome 118.0.0.0","1280x720","1280x595",NA,NA,0,"Task Introduction and Instructions (removed audio and video)",3,"CDBEAFJGIH","Passed AC2",NA,"Spreadsheet1",NA,"","","",NA,"5","END",NA,NA,NA,NA,NA,NA,0,NA,NA,NA,NA,"","",NA,"","",NA,"SUPPRF46237"
"1",1697802930729,"20/10/2023 11:55:30",1697806530729,1,"20/10/2023 13:55:30",147683,3,"task-ybli",NA,32381266,9577571,NA,"complete",NA,"653275d5b71ece46e5b2b22f","computer","Desktop or Laptop","Linux x86_64","Chrome 117.0.0.0","412x915","980x1938",NA,NA,0,"Task Introduction and Instructions (removed audio and video)",3,"ABJCIDHEGF","Passed AC2",NA,"Spreadsheet1",NA,"","","",NA,"5","BEGIN",NA,NA,NA,NA,NA,NA,0,NA,NA,NA,NA,"","",NA,"","",NA,"SUPPRF57890"
"2",1697802933523,"20/10/2023 11:55:33",1697806533523,1,"20/10/2023 13:55:33",147683,3,"task-ybli",NA,32381266,9577571,NA,"complete",NA,"653275d5b71ece46e5b2b22f","computer","Desktop or Laptop","Linux x86_64","Chrome 117.0.0.0","412x915","980x1938",NA,NA,0,"Task Introduction and Instructions (removed audio and video)",3,"ABJCIDHEGF","Passed AC2",NA,"Spreadsheet1",1,"Task Instructions","Screen 1","anr7sn",1,"continue","",2699.858,2691.523,2699.858,2699.858,2691.523,2699.858,1,2699.858,0,0,NA,"Click To Continue","Continue Button",2,"object-1944","Task Instructions",NA,"SUPPRF57890"
"3",1697802940478,"20/10/2023 11:55:40",1697806540478,1,"20/10/2023 13:55:40",147683,3,"task-ybli",NA,32381266,9577571,NA,"complete",NA,"653275d5b71ece46e5b2b22f","computer","Desktop or Laptop","Linux x86_64","Chrome 117.0.0.0","412x915","980x1938",NA,NA,0,"Task Introduction and Instructions (removed audio and video)",3,"ABJCIDHEGF","Passed AC2",NA,"Spreadsheet1",1,"Task Instructions","Screen 2","ce2tc8",2,"continue","",6959.896,6951.56,6959.896,6959.896,6951.56,6959.896,1,6959.896,0,0,NA,"Click To Continue","Continue Button",2,"object-7","Task Instructions",NA,"SUPPRF57890"
"4",1697802943349,"20/10/2023 11:55:43",1697806543349,1,"20/10/2023 13:55:43",147683,3,"task-ybli",NA,32381266,9577571,NA,"complete",NA,"653275d5b71ece46e5b2b22f","computer","Desktop or Laptop","Linux x86_64","Chrome 117.0.0.0","412x915","980x1938",NA,NA,0,"Task Introduction and Instructions (removed audio and video)",3,"ABJCIDHEGF","Passed AC2",NA,"Spreadsheet1",1,"Task Instructions","Screen 5","spepx9",3,"continue","",2887.99900003576,2882.382,2887.99900003576,2887.99900003576,2882.382,2887.99900003576,1,2887.99900003576,0,0,NA,"Click To Continue","Continue Button",2,"object-9","Task Instructions",NA,"SUPPRF57890"
"5",1697802946117,"20/10/2023 11:55:46",1697806546117,1,"20/10/2023 13:55:46",147683,3,"task-ybli",NA,32381266,9577571,NA,"complete",NA,"653275d5b71ece46e5b2b22f","computer","Desktop or Laptop","Linux x86_64","Chrome 117.0.0.0","412x915","980x1938",NA,NA,0,"Task Introduction and Instructions (removed audio and video)",3,"ABJCIDHEGF","Passed AC2",NA,"Spreadsheet1",1,"Task Instructions","Screen 9","8nvnao",4,"continue","",2765.11,2756.782,2765.11,2765.11,2756.782,2765.11,1,2765.11,0,0,NA,"Click To Continue","Continue Button",2,"object-44","Task Instructions",NA,"SUPPRF57890"
"6",1697802946121,"20/10/2023 11:55:46",1697806546121,1,"20/10/2023 13:55:46",147683,3,"task-ybli",NA,32381266,9577571,NA,"complete",NA,"653275d5b71ece46e5b2b22f","computer","Desktop or Laptop","Linux x86_64","Chrome 117.0.0.0","412x915","980x1938",NA,NA,0,"Task Introduction and Instructions (removed audio and video)",3,"ABJCIDHEGF","Passed AC2",NA,"Spreadsheet1",NA,"","","",NA,"5","END",NA,NA,NA,NA,NA,NA,0,NA,NA,NA,NA,"","",NA,"","",NA,"SUPPRF57890"
"1",1697803022924,"20/10/2023 11:57:02",1697806622924,1,"20/10/2023 13:57:02",147683,3,"task-ybli",NA,32381294,9577621,NA,"complete",NA,"653275a907f258f0133c73a0","computer","Desktop or Laptop","Windows 10","Chrome 117.0.0.0","1920x1080","1920x969",NA,NA,0,"Task Introduction and Instructions (removed audio and video)",3,"BCADJEIFHG","Passed AC2",NA,"Spreadsheet1",NA,"","","",NA,"5","BEGIN",NA,NA,NA,NA,NA,NA,0,NA,NA,NA,NA,"","",NA,"","",NA,"SUPPRF67412"
"2",1697803026658,"20/10/2023 11:57:06",1697806626658,1,"20/10/2023 13:57:06",147683,3,"task-ybli",NA,32381294,9577621,NA,"complete",NA,"653275a907f258f0133c73a0","computer","Desktop or Laptop","Windows 10","Chrome 117.0.0.0","1920x1080","1920x969",NA,NA,0,"Task Introduction and Instructions (removed audio and video)",3,"BCADJEIFHG","Passed AC2",NA,"Spreadsheet1",1,"Task Instructions","Screen 1","anr7sn",1,"continue","",3648.767,3642.211,3648.767,3648.767,3642.211,3648.767,1,3648.767,0,0,NA,"Click To Continue","Continue Button",2,"object-1944","Task Instructions",NA,"SUPPRF67412"
"3",1697803037676,"20/10/2023 11:57:17",1697806637676,1,"20/10/2023 13:57:17",147683,3,"task-ybli",NA,32381294,9577621,NA,"complete",NA,"653275a907f258f0133c73a0","computer","Desktop or Laptop","Windows 10","Chrome 117.0.0.0","1920x1080","1920x969",NA,NA,0,"Task Introduction and Instructions (removed audio and video)",3,"BCADJEIFHG","Passed AC2",NA,"Spreadsheet1",1,"Task Instructions","Screen 2","ce2tc8",2,"continue","",11025.2560000477,11018.095,11025.2560000477,11025.2560000477,11018.095,11025.2560000477,1,11025.2560000477,0,0,NA,"Click To Continue","Continue Button",2,"object-7","Task Instructions",NA,"SUPPRF67412"
"4",1697803040519,"20/10/2023 11:57:20",1697806640519,1,"20/10/2023 13:57:20",147683,3,"task-ybli",NA,32381294,9577621,NA,"complete",NA,"653275a907f258f0133c73a0","computer","Desktop or Laptop","Windows 10","Chrome 117.0.0.0","1920x1080","1920x969",NA,NA,0,"Task Introduction and Instructions (removed audio and video)",3,"BCADJEIFHG","Passed AC2",NA,"Spreadsheet1",1,"Task Instructions","Screen 5","spepx9",3,"continue","",2850.16100004768,2842.174,2850.16100004768,2850.16100004768,2842.174,2850.16100004768,1,2850.16100004768,0,0,NA,"Click To Continue","Continue Button",2,"object-9","Task Instructions",NA,"SUPPRF67412"
"5",1697803043140,"20/10/2023 11:57:23",1697806643140,1,"20/10/2023 13:57:23",147683,3,"task-ybli",NA,32381294,9577621,NA,"complete",NA,"653275a907f258f0133c73a0","computer","Desktop or Laptop","Windows 10","Chrome 117.0.0.0","1920x1080","1920x969",NA,NA,0,"Task Introduction and Instructions (removed audio and video)",3,"BCADJEIFHG","Passed AC2",NA,"Spreadsheet1",1,"Task Instructions","Screen 9","8nvnao",4,"continue","",2628.787,2625.365,2628.787,2628.787,2625.365,2628.787,1,2628.787,0,0,NA,"Click To Continue","Continue Button",2,"object-44","Task Instructions",NA,"SUPPRF67412"
"6",1697803043141,"20/10/2023 11:57:23",1697806643141,1,"20/10/2023 13:57:23",147683,3,"task-ybli",NA,32381294,9577621,NA,"complete",NA,"653275a907f258f0133c73a0","computer","Desktop or Laptop","Windows 10","Chrome 117.0.0.0","1920x1080","1920x969",NA,NA,0,"Task Introduction and Instructions (removed audio and video)",3,"BCADJEIFHG","Passed AC2",NA,"Spreadsheet1",NA,"","","",NA,"5","END",NA,NA,NA,NA,NA,NA,0,NA,NA,NA,NA,"","",NA,"","",NA,"SUPPRF67412"
"1",1697812237044,"20/10/2023 14:30:37",1697815837044,1,"20/10/2023 16:30:37",147683,3,"task-ybli",NA,32384560,9582054,NA,"complete",NA,"653299da3bfc21d6421e75f1","computer","Desktop or Laptop","Windows 10","Chrome 118.0.0.0","2048x1152","2048x1006",NA,NA,0,"Task Introduction and Instructions (removed audio and video)",3,"DECFBGAHJI","Passed AC2",NA,"Spreadsheet1",NA,"","","",NA,"5","BEGIN",NA,NA,NA,NA,NA,NA,0,NA,NA,NA,NA,"","",NA,"","",NA,"SUPPRF14083"
"2",1697812241426,"20/10/2023 14:30:41",1697815841426,1,"20/10/2023 16:30:41",147683,3,"task-ybli",NA,32384560,9582054,NA,"complete",NA,"653299da3bfc21d6421e75f1","computer","Desktop or Laptop","Windows 10","Chrome 118.0.0.0","2048x1152","2048x1006",NA,NA,0,"Task Introduction and Instructions (removed audio and video)",3,"DECFBGAHJI","Passed AC2",NA,"Spreadsheet1",1,"Task Instructions","Screen 1","anr7sn",1,"continue","",4319,4315,4319,4319,4315,4319,1,4319,0,0,NA,"Click To Continue","Continue Button",2,"object-1944","Task Instructions",NA,"SUPPRF14083"
"3",1697812252435,"20/10/2023 14:30:52",1697815852435,1,"20/10/2023 16:30:52",147683,3,"task-ybli",NA,32384560,9582054,NA,"complete",NA,"653299da3bfc21d6421e75f1","computer","Desktop or Laptop","Windows 10","Chrome 118.0.0.0","2048x1152","2048x1006",NA,NA,0,"Task Introduction and Instructions (removed audio and video)",3,"DECFBGAHJI","Passed AC2",NA,"Spreadsheet1",1,"Task Instructions","Screen 2","ce2tc8",2,"continue","",11012,11006,11012,11012,11006,11012,1,11012,0,0,NA,"Click To Continue","Continue Button",2,"object-7","Task Instructions",NA,"SUPPRF14083"
"4",1697812255686,"20/10/2023 14:30:55",1697815855686,1,"20/10/2023 16:30:55",147683,3,"task-ybli",NA,32384560,9582054,NA,"complete",NA,"653299da3bfc21d6421e75f1","computer","Desktop or Laptop","Windows 10","Chrome 118.0.0.0","2048x1152","2048x1006",NA,NA,0,"Task Introduction and Instructions (removed audio and video)",3,"DECFBGAHJI","Passed AC2",NA,"Spreadsheet1",1,"Task Instructions","Screen 5","spepx9",3,"continue","",3259,3252,3259,3259,3252,3259,1,3259,0,0,NA,"Click To Continue","Continue Button",2,"object-9","Task Instructions",NA,"SUPPRF14083"
"5",1697812261544,"20/10/2023 14:31:01",1697815861544,1,"20/10/2023 16:31:01",147683,3,"task-ybli",NA,32384560,9582054,NA,"complete",NA,"653299da3bfc21d6421e75f1","computer","Desktop or Laptop","Windows 10","Chrome 118.0.0.0","2048x1152","2048x1006",NA,NA,0,"Task Introduction and Instructions (removed audio and video)",3,"DECFBGAHJI","Passed AC2",NA,"Spreadsheet1",1,"Task Instructions","Screen 9","8nvnao",4,"continue","",5864,5858,5864,5864,5858,5864,1,5864,0,0,NA,"Click To Continue","Continue Button",2,"object-44","Task Instructions",NA,"SUPPRF14083"
"6",1697812261547,"20/10/2023 14:31:01",1697815861547,1,"20/10/2023 16:31:01",147683,3,"task-ybli",NA,32384560,9582054,NA,"complete",NA,"653299da3bfc21d6421e75f1","computer","Desktop or Laptop","Windows 10","Chrome 118.0.0.0","2048x1152","2048x1006",NA,NA,0,"Task Introduction and Instructions (removed audio and video)",3,"DECFBGAHJI","Passed AC2",NA,"Spreadsheet1",NA,"","","",NA,"5","END",NA,NA,NA,NA,NA,NA,0,NA,NA,NA,NA,"","",NA,"","",NA,"SUPPRF14083"
