"Event.Index","UTC.Timestamp","UTC.Date.and.Time","Local.Timestamp","Local.Timezone","Local.Date.and.Time","Experiment.ID","Experiment.Version","Tree.Node.Key","Repeat.Key","Schedule.ID","Participant.Private.ID","Participant.Starting.Group","Participant.Status","Participant.Completion.Code","Participant.External.Session.ID","Participant.Device.Type","Participant.Device","Participant.OS","Participant.Browser","Participant.Monitor.Size","Participant.Viewport.Size","Checkpoint","Room.ID","Room.Order","Task.Name","Task.Version","order.ot79","branch.g31k","branch.5gtn","Spreadsheet","Trial.Number","Display","Screen","Screen.ID","Screen.Counter","Response.Type","Response","Onset.Time","Clock.Time","Reaction.Time","Absolute.Onset.Time","Absolute.Clock.Time","Absolute.Reaction.Time","Correct","Response.Onset","Response.Duration","Proportion","Tag","Component.Name","Object.Name","Object.Number","Object.ID","Spreadsheet..display","Manipulation..Spreadsheet","Random_ID"
"1",1697629951470,"18/10/2023 11:52:31",1697633551470,1,"18/10/2023 13:52:31",147683,3,"task-ybli",NA,32328178,9559360,NA,"complete",NA,"652fc474c8ed36f51a72a679","computer","Desktop or Laptop","Windows 10","Chrome 118.0.0.0","1707x1067","852x900",NA,NA,0,"Task Introduction and Instructions (removed audio and video)",3,"ABJCIDHEGF","Passed AC2",NA,"Spreadsheet1",NA,"","","",NA,"5","BEGIN",NA,NA,NA,NA,NA,NA,0,NA,NA,NA,NA,"","",NA,"","",NA,"SUPPRF59606"
"2",1697629984313,"18/10/2023 11:53:04",1697633584313,1,"18/10/2023 13:53:04",147683,3,"task-ybli",NA,32328178,9559360,NA,"complete",NA,"652fc474c8ed36f51a72a679","computer","Desktop or Laptop","Windows 10","Chrome 118.0.0.0","1707x1067","1707x910",NA,NA,0,"Task Introduction and Instructions (removed audio and video)",3,"ABJCIDHEGF","Passed AC2",NA,"Spreadsheet1",1,"Task Instructions","Screen 1","anr7sn",1,"continue","",32624.531,32616.323,32624.531,32624.531,32616.323,32624.531,1,32624.531,0,0,NA,"Click To Continue","Continue Button",2,"object-1944","Task Instructions",NA,"SUPPRF59606"
"3",1697629988583,"18/10/2023 11:53:08",1697633588583,1,"18/10/2023 13:53:08",147683,3,"task-ybli",NA,32328178,9559360,NA,"complete",NA,"652fc474c8ed36f51a72a679","computer","Desktop or Laptop","Windows 10","Chrome 118.0.0.0","1707x1067","1707x910",NA,NA,0,"Task Introduction and Instructions (removed audio and video)",3,"ABJCIDHEGF","Passed AC2",NA,"Spreadsheet1",1,"Task Instructions","Screen 2","ce2tc8",2,"continue","",4278.40800001788,4267.636,4278.40800001788,4278.40800001788,4267.636,4278.40800001788,1,4278.40800001788,0,0,NA,"Click To Continue","Continue Button",2,"object-7","Task Instructions",NA,"SUPPRF59606"
"4",1697629993948,"18/10/2023 11:53:13",1697633593948,1,"18/10/2023 13:53:13",147683,3,"task-ybli",NA,32328178,9559360,NA,"complete",NA,"652fc474c8ed36f51a72a679","computer","Desktop or Laptop","Windows 10","Chrome 118.0.0.0","1707x1067","1707x910",NA,NA,0,"Task Introduction and Instructions (removed audio and video)",3,"ABJCIDHEGF","Passed AC2",NA,"Spreadsheet1",1,"Task Instructions","Screen 5","spepx9",3,"continue","",5375.47200000596,5365.678,5375.47200000596,5375.47200000596,5365.678,5375.47200000596,1,5375.47200000596,0,0,NA,"Click To Continue","Continue Button",2,"object-9","Task Instructions",NA,"SUPPRF59606"
"5",1697629997784,"18/10/2023 11:53:17",1697633597784,1,"18/10/2023 13:53:17",147683,3,"task-ybli",NA,32328178,9559360,NA,"complete",NA,"652fc474c8ed36f51a72a679","computer","Desktop or Laptop","Windows 10","Chrome 118.0.0.0","1707x1067","1707x910",NA,NA,0,"Task Introduction and Instructions (removed audio and video)",3,"ABJCIDHEGF","Passed AC2",NA,"Spreadsheet1",1,"Task Instructions","Screen 9","8nvnao",4,"continue","",3846.19400001192,3833.424,3846.19400001192,3846.19400001192,3833.424,3846.19400001192,1,3846.19400001192,0,0,NA,"Click To Continue","Continue Button",2,"object-44","Task Instructions",NA,"SUPPRF59606"
"6",1697629997791,"18/10/2023 11:53:17",1697633597791,1,"18/10/2023 13:53:17",147683,3,"task-ybli",NA,32328178,9559360,NA,"complete",NA,"652fc474c8ed36f51a72a679","computer","Desktop or Laptop","Windows 10","Chrome 118.0.0.0","1707x1067","1707x910",NA,NA,0,"Task Introduction and Instructions (removed audio and video)",3,"ABJCIDHEGF","Passed AC2",NA,"Spreadsheet1",NA,"","","",NA,"5","END",NA,NA,NA,NA,NA,NA,0,NA,NA,NA,NA,"","",NA,"","",NA,"SUPPRF59606"
"1",1697644185394,"18/10/2023 15:49:45",1697647785394,1,"18/10/2023 17:49:45",147683,3,"task-ybli",NA,32336571,9561687,NA,"complete",NA,"652ffadb010422e0d379e4ca","computer","Desktop or Laptop","Windows 10","Chrome 117.0.0.0","1920x1080","1920x931",NA,NA,0,"Task Introduction and Instructions (removed audio and video)",3,"BCADJEIFHG","Passed AC2",NA,"Spreadsheet1",NA,"","","",NA,"5","BEGIN",NA,NA,NA,NA,NA,NA,0,NA,NA,NA,NA,"","",NA,"","",NA,"SUPPRF37681"
"2",1697644188910,"18/10/2023 15:49:48",1697647788910,1,"18/10/2023 17:49:48",147683,3,"task-ybli",NA,32336571,9561687,NA,"complete",NA,"652ffadb010422e0d379e4ca","computer","Desktop or Laptop","Windows 10","Chrome 117.0.0.0","1920x1080","1920x931",NA,NA,0,"Task Introduction and Instructions (removed audio and video)",3,"BCADJEIFHG","Passed AC2",NA,"Spreadsheet1",1,"Task Instructions","Screen 1","anr7sn",1,"continue","",3466.568,3449.865,3466.568,3466.568,3449.865,3466.568,1,3466.568,0,0,NA,"Click To Continue","Continue Button",2,"object-1944","Task Instructions",NA,"SUPPRF37681"
"3",1697644193781,"18/10/2023 15:49:53",1697647793781,1,"18/10/2023 17:49:53",147683,3,"task-ybli",NA,32336571,9561687,NA,"complete",NA,"652ffadb010422e0d379e4ca","computer","Desktop or Laptop","Windows 10","Chrome 117.0.0.0","1920x1080","1920x931",NA,NA,0,"Task Introduction and Instructions (removed audio and video)",3,"BCADJEIFHG","Passed AC2",NA,"Spreadsheet1",1,"Task Instructions","Screen 2","ce2tc8",2,"continue","",4888.66400007153,4883.11,4888.66400007153,4888.66400007153,4883.11,4888.66400007153,1,4888.66400007153,0,0,NA,"Click To Continue","Continue Button",2,"object-7","Task Instructions",NA,"SUPPRF37681"
"4",1697644196910,"18/10/2023 15:49:56",1697647796910,1,"18/10/2023 17:49:56",147683,3,"task-ybli",NA,32336571,9561687,NA,"complete",NA,"652ffadb010422e0d379e4ca","computer","Desktop or Laptop","Windows 10","Chrome 117.0.0.0","1920x1080","1920x931",NA,NA,0,"Task Introduction and Instructions (removed audio and video)",3,"BCADJEIFHG","Passed AC2",NA,"Spreadsheet1",1,"Task Instructions","Screen 5","spepx9",3,"continue","",3135.45400004768,3133.189,3135.45400004768,3135.45400004768,3133.189,3135.45400004768,1,3135.45400004768,0,0,NA,"Click To Continue","Continue Button",2,"object-9","Task Instructions",NA,"SUPPRF37681"
"5",1697644210254,"18/10/2023 15:50:10",1697647810254,1,"18/10/2023 17:50:10",147683,3,"task-ybli",NA,32336571,9561687,NA,"complete",NA,"652ffadb010422e0d379e4ca","computer","Desktop or Laptop","Windows 10","Chrome 117.0.0.0","1920x1080","1920x931",NA,NA,0,"Task Introduction and Instructions (removed audio and video)",3,"BCADJEIFHG","Passed AC2",NA,"Spreadsheet1",1,"Task Instructions","Screen 9","8nvnao",4,"continue","",13345.2650000477,13332.898,13345.2650000477,13345.2650000477,13332.898,13345.2650000477,1,13345.2650000477,0,0,NA,"Click To Continue","Continue Button",2,"object-44","Task Instructions",NA,"SUPPRF37681"
"6",1697644210265,"18/10/2023 15:50:10",1697647810265,1,"18/10/2023 17:50:10",147683,3,"task-ybli",NA,32336571,9561687,NA,"complete",NA,"652ffadb010422e0d379e4ca","computer","Desktop or Laptop","Windows 10","Chrome 117.0.0.0","1920x1080","1920x931",NA,NA,0,"Task Introduction and Instructions (removed audio and video)",3,"BCADJEIFHG","Passed AC2",NA,"Spreadsheet1",NA,"","","",NA,"5","END",NA,NA,NA,NA,NA,NA,0,NA,NA,NA,NA,"","",NA,"","",NA,"SUPPRF37681"
"1",1697666811444,"18/10/2023 22:06:51",1697670411444,1,"19/10/2023 00:06:51",147683,3,"task-ybli",NA,32347705,9565152,NA,"complete",NA,"653053b8f7c0c5dea6665f6f","computer","Desktop or Laptop","Windows 10","Chrome 118.0.0.0","1536x864","1536x707",NA,NA,0,"Task Introduction and Instructions (removed audio and video)",3,"CDBEAFJGIH","Passed AC2",NA,"Spreadsheet1",NA,"","","",NA,"5","BEGIN",NA,NA,NA,NA,NA,NA,0,NA,NA,NA,NA,"","",NA,"","",NA,"SUPPRF11139"
"2",1697666814270,"18/10/2023 22:06:54",1697670414270,1,"19/10/2023 00:06:54",147683,3,"task-ybli",NA,32347705,9565152,NA,"complete",NA,"653053b8f7c0c5dea6665f6f","computer","Desktop or Laptop","Windows 10","Chrome 118.0.0.0","1536x864","1536x707",NA,NA,0,"Task Introduction and Instructions (removed audio and video)",3,"CDBEAFJGIH","Passed AC2",NA,"Spreadsheet1",1,"Task Instructions","Screen 1","anr7sn",1,"continue","",2736.04,2729.098,2736.04,2736.04,2729.098,2736.04,1,2736.04,0,0,NA,"Click To Continue","Continue Button",2,"object-1944","Task Instructions",NA,"SUPPRF11139"
"3",1697666819877,"18/10/2023 22:06:59",1697670419877,1,"19/10/2023 00:06:59",147683,3,"task-ybli",NA,32347705,9565152,NA,"complete",NA,"653053b8f7c0c5dea6665f6f","computer","Desktop or Laptop","Windows 10","Chrome 118.0.0.0","1536x864","1536x707",NA,NA,0,"Task Introduction and Instructions (removed audio and video)",3,"CDBEAFJGIH","Passed AC2",NA,"Spreadsheet1",1,"Task Instructions","Screen 2","ce2tc8",2,"continue","",5617.213,5609.935,5617.213,5617.213,5609.935,5617.213,1,5617.213,0,0,NA,"Click To Continue","Continue Button",2,"object-7","Task Instructions",NA,"SUPPRF11139"
"4",1697666892291,"18/10/2023 22:08:12",1697670492291,1,"19/10/2023 00:08:12",147683,3,"task-ybli",NA,32347705,9565152,NA,"complete",NA,"653053b8f7c0c5dea6665f6f","computer","Desktop or Laptop","Windows 10","Chrome 118.0.0.0","1536x864","1536x707",NA,NA,0,"Task Introduction and Instructions (removed audio and video)",3,"CDBEAFJGIH","Passed AC2",NA,"Spreadsheet1",1,"Task Instructions","Screen 5","spepx9",3,"continue","",72421.576,72417.557,72421.576,72421.576,72417.557,72421.576,1,72421.576,0,0,NA,"Click To Continue","Continue Button",2,"object-9","Task Instructions",NA,"SUPPRF11139"
"5",1697666895228,"18/10/2023 22:08:15",1697670495228,1,"19/10/2023 00:08:15",147683,3,"task-ybli",NA,32347705,9565152,NA,"complete",NA,"653053b8f7c0c5dea6665f6f","computer","Desktop or Laptop","Windows 10","Chrome 118.0.0.0","1536x864","1536x707",NA,NA,0,"Task Introduction and Instructions (removed audio and video)",3,"CDBEAFJGIH","Passed AC2",NA,"Spreadsheet1",1,"Task Instructions","Screen 9","8nvnao",4,"continue","",2940.91899999106,2937.666,2940.91899999106,2940.91899999106,2937.666,2940.91899999106,1,2940.91899999106,0,0,NA,"Click To Continue","Continue Button",2,"object-44","Task Instructions",NA,"SUPPRF11139"
"6",1697666895233,"18/10/2023 22:08:15",1697670495233,1,"19/10/2023 00:08:15",147683,3,"task-ybli",NA,32347705,9565152,NA,"complete",NA,"653053b8f7c0c5dea6665f6f","computer","Desktop or Laptop","Windows 10","Chrome 118.0.0.0","1536x864","1536x707",NA,NA,0,"Task Introduction and Instructions (removed audio and video)",3,"CDBEAFJGIH","Passed AC2",NA,"Spreadsheet1",NA,"","","",NA,"5","END",NA,NA,NA,NA,NA,NA,0,NA,NA,NA,NA,"","",NA,"","",NA,"SUPPRF11139"
"1",1697732667999,"19/10/2023 16:24:27",1697736267999,1,"19/10/2023 18:24:27",147683,3,"task-ybli",NA,32366334,9571426,NA,"complete",NA,"653154994fa6fef45b59128a","computer","Desktop or Laptop","Mac OS 10.15.7","Chrome 117.0.0.0","1440x900","1440x708",NA,NA,0,"Task Introduction and Instructions (removed audio and video)",3,"EFDGCHBIAJ","Passed AC2",NA,"Spreadsheet1",NA,"","","",NA,"5","BEGIN",NA,NA,NA,NA,NA,NA,0,NA,NA,NA,NA,"","",NA,"","",NA,"SUPPRF01788"
"2",1697732671276,"19/10/2023 16:24:31",1697736271276,1,"19/10/2023 18:24:31",147683,3,"task-ybli",NA,32366334,9571426,NA,"complete",NA,"653154994fa6fef45b59128a","computer","Desktop or Laptop","Mac OS 10.15.7","Chrome 117.0.0.0","1440x900","1440x708",NA,NA,0,"Task Introduction and Instructions (removed audio and video)",3,"EFDGCHBIAJ","Passed AC2",NA,"Spreadsheet1",1,"Task Instructions","Screen 1","anr7sn",1,"continue","",3171.34200000037,3158.379,3171.34200000037,3171.34200000037,3158.379,3171.34200000037,1,3171.34200000037,0,0,NA,"Click To Continue","Continue Button",2,"object-1944","Task Instructions",NA,"SUPPRF01788"
"3",1697732691525,"19/10/2023 16:24:51",1697736291525,1,"19/10/2023 18:24:51",147683,3,"task-ybli",NA,32366334,9571426,NA,"complete",NA,"653154994fa6fef45b59128a","computer","Desktop or Laptop","Mac OS 10.15.7","Chrome 117.0.0.0","1440x900","1440x708",NA,NA,0,"Task Introduction and Instructions (removed audio and video)",3,"EFDGCHBIAJ","Passed AC2",NA,"Spreadsheet1",1,"Task Instructions","Screen 2","ce2tc8",2,"continue","",20261.9630000004,20254.092,20261.9630000004,20261.9630000004,20254.092,20261.9630000004,1,20261.9630000004,0,0,NA,"Click To Continue","Continue Button",2,"object-7","Task Instructions",NA,"SUPPRF01788"
"4",1697732694711,"19/10/2023 16:24:54",1697736294711,1,"19/10/2023 18:24:54",147683,3,"task-ybli",NA,32366334,9571426,NA,"complete",NA,"653154994fa6fef45b59128a","computer","Desktop or Laptop","Mac OS 10.15.7","Chrome 117.0.0.0","1440x900","1440x708",NA,NA,0,"Task Introduction and Instructions (removed audio and video)",3,"EFDGCHBIAJ","Passed AC2",NA,"Spreadsheet1",1,"Task Instructions","Screen 5","spepx9",3,"continue","",3191.88600000001,3175.175,3191.88600000001,3191.88600000001,3175.175,3191.88600000001,1,3191.88600000001,0,0,NA,"Click To Continue","Continue Button",2,"object-9","Task Instructions",NA,"SUPPRF01788"
"5",1697732700895,"19/10/2023 16:25:00",1697736300895,1,"19/10/2023 18:25:00",147683,3,"task-ybli",NA,32366334,9571426,NA,"complete",NA,"653154994fa6fef45b59128a","computer","Desktop or Laptop","Mac OS 10.15.7","Chrome 117.0.0.0","1440x900","1440x708",NA,NA,0,"Task Introduction and Instructions (removed audio and video)",3,"EFDGCHBIAJ","Passed AC2",NA,"Spreadsheet1",1,"Task Instructions","Screen 9","8nvnao",4,"continue","",6202.59600000074,6199.781,6202.59600000074,6202.59600000074,6199.781,6202.59600000074,1,6202.59600000074,0,0,NA,"Click To Continue","Continue Button",2,"object-44","Task Instructions",NA,"SUPPRF01788"
"6",1697732700898,"19/10/2023 16:25:00",1697736300898,1,"19/10/2023 18:25:00",147683,3,"task-ybli",NA,32366334,9571426,NA,"complete",NA,"653154994fa6fef45b59128a","computer","Desktop or Laptop","Mac OS 10.15.7","Chrome 117.0.0.0","1440x900","1440x708",NA,NA,0,"Task Introduction and Instructions (removed audio and video)",3,"EFDGCHBIAJ","Passed AC2",NA,"Spreadsheet1",NA,"","","",NA,"5","END",NA,NA,NA,NA,NA,NA,0,NA,NA,NA,NA,"","",NA,"","",NA,"SUPPRF01788"
"1",1697737826444,"19/10/2023 17:50:26",1697741426444,1,"19/10/2023 19:50:26",147683,3,"task-ybli",NA,32368181,9572136,NA,"complete",NA,"653168b4778f39567345066d","computer","Desktop or Laptop","Windows 10","Firefox 118.0","2560x1080","2560x955",NA,NA,0,"Task Introduction and Instructions (removed audio and video)",3,"GHFIEJDACB","Passed AC2",NA,"Spreadsheet1",NA,"","","",NA,"5","BEGIN",NA,NA,NA,NA,NA,NA,0,NA,NA,NA,NA,"","",NA,"","",NA,"SUPPRF93027"
"2",1697737830822,"19/10/2023 17:50:30",1697741430822,1,"19/10/2023 19:50:30",147683,3,"task-ybli",NA,32368181,9572136,NA,"complete",NA,"653168b4778f39567345066d","computer","Desktop or Laptop","Windows 10","Firefox 118.0","2560x1080","2560x955",NA,NA,0,"Task Introduction and Instructions (removed audio and video)",3,"GHFIEJDACB","Passed AC2",NA,"Spreadsheet1",1,"Task Instructions","Screen 1","anr7sn",1,"continue","",4171.34,4166.66,4171.34,4171.34,4166.66,4171.34,1,4171.34,0,0,NA,"Click To Continue","Continue Button",2,"object-1944","Task Instructions",NA,"SUPPRF93027"
"3",1697737840210,"19/10/2023 17:50:40",1697741440210,1,"19/10/2023 19:50:40",147683,3,"task-ybli",NA,32368181,9572136,NA,"complete",NA,"653168b4778f39567345066d","computer","Desktop or Laptop","Windows 10","Firefox 118.0","2560x1080","2560x955",NA,NA,0,"Task Introduction and Instructions (removed audio and video)",3,"GHFIEJDACB","Passed AC2",NA,"Spreadsheet1",1,"Task Instructions","Screen 2","ce2tc8",2,"continue","",9394.68,9384.66,9394.68,9394.68,9384.66,9394.68,1,9394.68,0,0,NA,"Click To Continue","Continue Button",2,"object-7","Task Instructions",NA,"SUPPRF93027"
"4",1697737842630,"19/10/2023 17:50:42",1697741442630,1,"19/10/2023 19:50:42",147683,3,"task-ybli",NA,32368181,9572136,NA,"complete",NA,"653168b4778f39567345066d","computer","Desktop or Laptop","Windows 10","Firefox 118.0","2560x1080","2560x955",NA,NA,0,"Task Introduction and Instructions (removed audio and video)",3,"GHFIEJDACB","Passed AC2",NA,"Spreadsheet1",1,"Task Instructions","Screen 5","spepx9",3,"continue","",2429.02,2416.66,2429.02,2429.02,2416.66,2429.02,1,2429.02,0,0,NA,"Click To Continue","Continue Button",2,"object-9","Task Instructions",NA,"SUPPRF93027"
"5",1697737845058,"19/10/2023 17:50:45",1697741445058,1,"19/10/2023 19:50:45",147683,3,"task-ybli",NA,32368181,9572136,NA,"complete",NA,"653168b4778f39567345066d","computer","Desktop or Laptop","Windows 10","Firefox 118.0","2560x1080","2560x955",NA,NA,0,"Task Introduction and Instructions (removed audio and video)",3,"GHFIEJDACB","Passed AC2",NA,"Spreadsheet1",1,"Task Instructions","Screen 9","8nvnao",4,"continue","",2439.36,2433.34,2439.36,2439.36,2433.34,2439.36,1,2439.36,0,0,NA,"Click To Continue","Continue Button",2,"object-44","Task Instructions",NA,"SUPPRF93027"
"6",1697737845059,"19/10/2023 17:50:45",1697741445059,1,"19/10/2023 19:50:45",147683,3,"task-ybli",NA,32368181,9572136,NA,"complete",NA,"653168b4778f39567345066d","computer","Desktop or Laptop","Windows 10","Firefox 118.0","2560x1080","2560x955",NA,NA,0,"Task Introduction and Instructions (removed audio and video)",3,"GHFIEJDACB","Passed AC2",NA,"Spreadsheet1",NA,"","","",NA,"5","END",NA,NA,NA,NA,NA,NA,0,NA,NA,NA,NA,"","",NA,"","",NA,"SUPPRF93027"
"1",1697805144587,"20/10/2023 12:32:24",1697790744587,-4,"20/10/2023 04:32:24",147683,3,"task-ybli",NA,32380696,9577059,NA,"complete",NA,"6532706690febf7cc2ea91b4","computer","Desktop or Laptop","Mac OS 10.15.7","Chrome 117.0.0.0","1440x900","1440x815",NA,NA,0,"Task Introduction and Instructions (removed audio and video)",3,"JAIBHCGDFE","Passed AC2",NA,"Spreadsheet1",NA,"","","",NA,"5","BEGIN",NA,NA,NA,NA,NA,NA,0,NA,NA,NA,NA,"","",NA,"","",NA,"SUPPRF97235"
"2",1697805148305,"20/10/2023 12:32:28",1697790748305,-4,"20/10/2023 04:32:28",147683,3,"task-ybli",NA,32380696,9577059,NA,"complete",NA,"6532706690febf7cc2ea91b4","computer","Desktop or Laptop","Mac OS 10.15.7","Chrome 117.0.0.0","1440x900","1440x815",NA,NA,0,"Task Introduction and Instructions (removed audio and video)",3,"JAIBHCGDFE","Passed AC2",NA,"Spreadsheet1",1,"Task Instructions","Screen 1","anr7sn",1,"continue","",3224.103,3207.437,3224.103,3224.103,3207.437,3224.103,1,3224.103,0,0,NA,"Click To Continue","Continue Button",2,"object-1944","Task Instructions",NA,"SUPPRF97235"
"3",1697805155776,"20/10/2023 12:32:35",1697790755776,-4,"20/10/2023 04:32:35",147683,3,"task-ybli",NA,32380696,9577059,NA,"complete",NA,"6532706690febf7cc2ea91b4","computer","Desktop or Laptop","Mac OS 10.15.7","Chrome 117.0.0.0","1440x900","1440x815",NA,NA,0,"Task Introduction and Instructions (removed audio and video)",3,"JAIBHCGDFE","Passed AC2",NA,"Spreadsheet1",1,"Task Instructions","Screen 2","ce2tc8",2,"continue","",7489.27199999851,7483.034,7489.27199999851,7489.27199999851,7483.034,7489.27199999851,1,7489.27199999851,0,0,NA,"Click To Continue","Continue Button",2,"object-7","Task Instructions",NA,"SUPPRF97235"
"4",1697805158858,"20/10/2023 12:32:38",1697790758858,-4,"20/10/2023 04:32:38",147683,3,"task-ybli",NA,32380696,9577059,NA,"complete",NA,"6532706690febf7cc2ea91b4","computer","Desktop or Laptop","Mac OS 10.15.7","Chrome 117.0.0.0","1440x900","1440x815",NA,NA,0,"Task Introduction and Instructions (removed audio and video)",3,"JAIBHCGDFE","Passed AC2",NA,"Spreadsheet1",1,"Task Instructions","Screen 5","spepx9",3,"continue","",3088.73799999851,3072.431,3088.73799999851,3088.73799999851,3072.431,3088.73799999851,1,3088.73799999851,0,0,NA,"Click To Continue","Continue Button",2,"object-9","Task Instructions",NA,"SUPPRF97235"
"5",1697805162616,"20/10/2023 12:32:42",1697790762616,-4,"20/10/2023 04:32:42",147683,3,"task-ybli",NA,32380696,9577059,NA,"complete",NA,"6532706690febf7cc2ea91b4","computer","Desktop or Laptop","Mac OS 10.15.7","Chrome 117.0.0.0","1440x900","1440x815",NA,NA,0,"Task Introduction and Instructions (removed audio and video)",3,"JAIBHCGDFE","Passed AC2",NA,"Spreadsheet1",1,"Task Instructions","Screen 9","8nvnao",4,"continue","",3774.00700000149,3766.516,3774.00700000149,3774.00700000149,3766.516,3774.00700000149,1,3774.00700000149,0,0,NA,"Click To Continue","Continue Button",2,"object-44","Task Instructions",NA,"SUPPRF97235"
"6",1697805162619,"20/10/2023 12:32:42",1697790762619,-4,"20/10/2023 04:32:42",147683,3,"task-ybli",NA,32380696,9577059,NA,"complete",NA,"6532706690febf7cc2ea91b4","computer","Desktop or Laptop","Mac OS 10.15.7","Chrome 117.0.0.0","1440x900","1440x815",NA,NA,0,"Task Introduction and Instructions (removed audio and video)",3,"JAIBHCGDFE","Passed AC2",NA,"Spreadsheet1",NA,"","","",NA,"5","END",NA,NA,NA,NA,NA,NA,0,NA,NA,NA,NA,"","",NA,"","",NA,"SUPPRF97235"
"1",1697805145320,"20/10/2023 12:32:25",1697808745320,1,"20/10/2023 14:32:25",147683,3,"task-ybli",NA,32380698,9577007,NA,"rejected - time limit reached",NA,"65326ff35afdf92b45388b44","computer","Desktop or Laptop","Windows 10","Chrome 117.0.0.0","1366x768","1366x651",NA,NA,0,"Task Introduction and Instructions (removed audio and video)",3,"IJHAGBFCED","Passed AC2",NA,"Spreadsheet1",NA,"","","",NA,"5","BEGIN",NA,NA,NA,NA,NA,NA,0,NA,NA,NA,NA,"","",NA,"","",NA,"SUPPRF43235"
"2",1697805148850,"20/10/2023 12:32:28",1697808748850,1,"20/10/2023 14:32:28",147683,3,"task-ybli",NA,32380698,9577007,NA,"rejected - time limit reached",NA,"65326ff35afdf92b45388b44","computer","Desktop or Laptop","Windows 10","Chrome 117.0.0.0","1366x768","1366x651",NA,NA,0,"Task Introduction and Instructions (removed audio and video)",3,"IJHAGBFCED","Passed AC2",NA,"Spreadsheet1",1,"Task Instructions","Screen 1","anr7sn",1,"continue","",3358.04899990463,3349.847,3358.04899990463,3358.04899990463,3349.847,3358.04899990463,1,3358.04899990463,0,0,NA,"Click To Continue","Continue Button",2,"object-1944","Task Instructions",NA,"SUPPRF43235"
"3",1697805153624,"20/10/2023 12:32:33",1697808753624,1,"20/10/2023 14:32:33",147683,3,"task-ybli",NA,32380698,9577007,NA,"rejected - time limit reached",NA,"65326ff35afdf92b45388b44","computer","Desktop or Laptop","Windows 10","Chrome 117.0.0.0","1366x768","1366x651",NA,NA,0,"Task Introduction and Instructions (removed audio and video)",3,"IJHAGBFCED","Passed AC2",NA,"Spreadsheet1",1,"Task Instructions","Screen 2","ce2tc8",2,"continue","",4782.961,4766.311,4782.961,4782.961,4766.311,4782.961,1,4782.961,0,0,NA,"Click To Continue","Continue Button",2,"object-7","Task Instructions",NA,"SUPPRF43235"
"4",1697805181518,"20/10/2023 12:33:01",1697808781518,1,"20/10/2023 14:33:01",147683,3,"task-ybli",NA,32380698,9577007,NA,"rejected - time limit reached",NA,"65326ff35afdf92b45388b44","computer","Desktop or Laptop","Windows 10","Chrome 117.0.0.0","1366x768","1366x651",NA,NA,0,"Task Introduction and Instructions (removed audio and video)",3,"IJHAGBFCED","Passed AC2",NA,"Spreadsheet1",1,"Task Instructions","Screen 5","spepx9",3,"continue","",27910.291,27898.739,27910.291,27910.291,27898.739,27910.291,1,27910.291,0,0,NA,"Click To Continue","Continue Button",2,"object-9","Task Instructions",NA,"SUPPRF43235"
"5",1697805184529,"20/10/2023 12:33:04",1697808784529,1,"20/10/2023 14:33:04",147683,3,"task-ybli",NA,32380698,9577007,NA,"rejected - time limit reached",NA,"65326ff35afdf92b45388b44","computer","Desktop or Laptop","Windows 10","Chrome 117.0.0.0","1366x768","1366x651",NA,NA,0,"Task Introduction and Instructions (removed audio and video)",3,"IJHAGBFCED","Passed AC2",NA,"Spreadsheet1",1,"Task Instructions","Screen 9","8nvnao",4,"continue","",3023.45200009537,3016.50700000001,3023.45200009537,3023.45200009537,3016.50700000001,3023.45200009537,1,3023.45200009537,0,0,NA,"Click To Continue","Continue Button",2,"object-44","Task Instructions",NA,"SUPPRF43235"
"6",1697805184532,"20/10/2023 12:33:04",1697808784532,1,"20/10/2023 14:33:04",147683,3,"task-ybli",NA,32380698,9577007,NA,"rejected - time limit reached",NA,"65326ff35afdf92b45388b44","computer","Desktop or Laptop","Windows 10","Chrome 117.0.0.0","1366x768","1366x651",NA,NA,0,"Task Introduction and Instructions (removed audio and video)",3,"IJHAGBFCED","Passed AC2",NA,"Spreadsheet1",NA,"","","",NA,"5","END",NA,NA,NA,NA,NA,NA,0,NA,NA,NA,NA,"","",NA,"","",NA,"SUPPRF43235"
"1",1697805768735,"20/10/2023 12:42:48",1697809368735,1,"20/10/2023 14:42:48",147683,3,"task-ybli",NA,32380949,9577338,NA,"complete",NA,"6532739f2c4691903668628b","computer","Desktop or Laptop","Windows 10","Chrome 118.0.0.0","1536x1024","1536x867",NA,NA,0,"Task Introduction and Instructions (removed audio and video)",3,"CDBEAFJGIH","Passed AC2",NA,"Spreadsheet1",NA,"","","",NA,"5","BEGIN",NA,NA,NA,NA,NA,NA,0,NA,NA,NA,NA,"","",NA,"","",NA,"SUPPRF06488"
"2",1697805771912,"20/10/2023 12:42:51",1697809371912,1,"20/10/2023 14:42:51",147683,3,"task-ybli",NA,32380949,9577338,NA,"complete",NA,"6532739f2c4691903668628b","computer","Desktop or Laptop","Windows 10","Chrome 118.0.0.0","1536x1024","1536x867",NA,NA,0,"Task Introduction and Instructions (removed audio and video)",3,"CDBEAFJGIH","Passed AC2",NA,"Spreadsheet1",1,"Task Instructions","Screen 1","anr7sn",1,"continue","",3067.216,3050.312,3067.216,3067.216,3050.312,3067.216,1,3067.216,0,0,NA,"Click To Continue","Continue Button",2,"object-1944","Task Instructions",NA,"SUPPRF06488"
"3",1697805775911,"20/10/2023 12:42:55",1697809375911,1,"20/10/2023 14:42:55",147683,3,"task-ybli",NA,32380949,9577338,NA,"complete",NA,"6532739f2c4691903668628b","computer","Desktop or Laptop","Windows 10","Chrome 118.0.0.0","1536x1024","1536x867",NA,NA,0,"Task Introduction and Instructions (removed audio and video)",3,"CDBEAFJGIH","Passed AC2",NA,"Spreadsheet1",1,"Task Instructions","Screen 2","ce2tc8",2,"continue","",4017.062,4000.124,4017.062,4017.062,4000.124,4017.062,1,4017.062,0,0,NA,"Click To Continue","Continue Button",2,"object-7","Task Instructions",NA,"SUPPRF06488"
"4",1697805778885,"20/10/2023 12:42:58",1697809378885,1,"20/10/2023 14:42:58",147683,3,"task-ybli",NA,32380949,9577338,NA,"complete",NA,"6532739f2c4691903668628b","computer","Desktop or Laptop","Windows 10","Chrome 118.0.0.0","1536x1024","1536x867",NA,NA,0,"Task Introduction and Instructions (removed audio and video)",3,"CDBEAFJGIH","Passed AC2",NA,"Spreadsheet1",1,"Task Instructions","Screen 5","spepx9",3,"continue","",2991.27500000298,2983.355,2991.27500000298,2991.27500000298,2983.355,2991.27500000298,1,2991.27500000298,0,0,NA,"Click To Continue","Continue Button",2,"object-9","Task Instructions",NA,"SUPPRF06488"
"5",1697805781619,"20/10/2023 12:43:01",1697809381619,1,"20/10/2023 14:43:01",147683,3,"task-ybli",NA,32380949,9577338,NA,"complete",NA,"6532739f2c4691903668628b","computer","Desktop or Laptop","Windows 10","Chrome 118.0.0.0","1536x1024","1536x867",NA,NA,0,"Task Introduction and Instructions (removed audio and video)",3,"CDBEAFJGIH","Passed AC2",NA,"Spreadsheet1",1,"Task Instructions","Screen 9","8nvnao",4,"continue","",2741.72,2733.449,2741.72,2741.72,2733.449,2741.72,1,2741.72,0,0,NA,"Click To Continue","Continue Button",2,"object-44","Task Instructions",NA,"SUPPRF06488"
"6",1697805781623,"20/10/2023 12:43:01",1697809381623,1,"20/10/2023 14:43:01",147683,3,"task-ybli",NA,32380949,9577338,NA,"complete",NA,"6532739f2c4691903668628b","computer","Desktop or Laptop","Windows 10","Chrome 118.0.0.0","1536x1024","1536x867",NA,NA,0,"Task Introduction and Instructions (removed audio and video)",3,"CDBEAFJGIH","Passed AC2",NA,"Spreadsheet1",NA,"","","",NA,"5","END",NA,NA,NA,NA,NA,NA,0,NA,NA,NA,NA,"","",NA,"","",NA,"SUPPRF06488"
"1",1697805893227,"20/10/2023 12:44:53",1697809493227,1,"20/10/2023 14:44:53",147683,3,"task-ybli",NA,32381028,9577244,NA,"complete",NA,"653272c16dd19336f4549895","computer","Desktop or Laptop","Windows 10","Chrome 118.0.0.0","1366x768","1366x619",NA,NA,0,"Task Introduction and Instructions (removed audio and video)",3,"BCADJEIFHG","Passed AC2",NA,"Spreadsheet1",NA,"","","",NA,"5","BEGIN",NA,NA,NA,NA,NA,NA,0,NA,NA,NA,NA,"","",NA,"","",NA,"SUPPRF78020"
"2",1697805896896,"20/10/2023 12:44:56",1697809496896,1,"20/10/2023 14:44:56",147683,3,"task-ybli",NA,32381028,9577244,NA,"complete",NA,"653272c16dd19336f4549895","computer","Desktop or Laptop","Windows 10","Chrome 118.0.0.0","1366x768","1366x619",NA,NA,0,"Task Introduction and Instructions (removed audio and video)",3,"BCADJEIFHG","Passed AC2",NA,"Spreadsheet1",1,"Task Instructions","Screen 1","anr7sn",1,"continue","",3613.77099995232,3599.846,3613.77099995232,3613.77099995232,3599.846,3613.77099995232,1,3613.77099995232,0,0,NA,"Click To Continue","Continue Button",2,"object-1944","Task Instructions",NA,"SUPPRF78020"
"3",1697805906159,"20/10/2023 12:45:06",1697809506159,1,"20/10/2023 14:45:06",147683,3,"task-ybli",NA,32381028,9577244,NA,"complete",NA,"653272c16dd19336f4549895","computer","Desktop or Laptop","Windows 10","Chrome 118.0.0.0","1366x768","1366x619",NA,NA,0,"Task Introduction and Instructions (removed audio and video)",3,"BCADJEIFHG","Passed AC2",NA,"Spreadsheet1",1,"Task Instructions","Screen 2","ce2tc8",2,"continue","",9277.32499992847,9265.979,9277.32499992847,9277.32499992847,9265.979,9277.32499992847,1,9277.32499992847,0,0,NA,"Click To Continue","Continue Button",2,"object-7","Task Instructions",NA,"SUPPRF78020"
"4",1697805909006,"20/10/2023 12:45:09",1697809509006,1,"20/10/2023 14:45:09",147683,3,"task-ybli",NA,32381028,9577244,NA,"complete",NA,"653272c16dd19336f4549895","computer","Desktop or Laptop","Windows 10","Chrome 118.0.0.0","1366x768","1366x619",NA,NA,0,"Task Introduction and Instructions (removed audio and video)",3,"BCADJEIFHG","Passed AC2",NA,"Spreadsheet1",1,"Task Instructions","Screen 5","spepx9",3,"continue","",2858.646,2849.782,2858.646,2858.646,2849.782,2858.646,1,2858.646,0,0,NA,"Click To Continue","Continue Button",2,"object-9","Task Instructions",NA,"SUPPRF78020"
"5",1697805912195,"20/10/2023 12:45:12",1697809512195,1,"20/10/2023 14:45:12",147683,3,"task-ybli",NA,32381028,9577244,NA,"complete",NA,"653272c16dd19336f4549895","computer","Desktop or Laptop","Windows 10","Chrome 118.0.0.0","1366x768","1366x619",NA,NA,0,"Task Introduction and Instructions (removed audio and video)",3,"BCADJEIFHG","Passed AC2",NA,"Spreadsheet1",1,"Task Instructions","Screen 9","8nvnao",4,"continue","",3197.16399995232,3183.113,3197.16399995232,3197.16399995232,3183.113,3197.16399995232,1,3197.16399995232,0,0,NA,"Click To Continue","Continue Button",2,"object-44","Task Instructions",NA,"SUPPRF78020"
"6",1697805912197,"20/10/2023 12:45:12",1697809512197,1,"20/10/2023 14:45:12",147683,3,"task-ybli",NA,32381028,9577244,NA,"complete",NA,"653272c16dd19336f4549895","computer","Desktop or Laptop","Windows 10","Chrome 118.0.0.0","1366x768","1366x619",NA,NA,0,"Task Introduction and Instructions (removed audio and video)",3,"BCADJEIFHG","Passed AC2",NA,"Spreadsheet1",NA,"","","",NA,"5","END",NA,NA,NA,NA,NA,NA,0,NA,NA,NA,NA,"","",NA,"","",NA,"SUPPRF78020"
"1",1697806022888,"20/10/2023 12:47:02",1697809622888,1,"20/10/2023 14:47:02",147683,3,"task-ybli",NA,32381085,9577396,NA,"complete",NA,"6532741adb139ac3ecdd48d4","computer","Desktop or Laptop","Mac OS 10.15.7","Chrome 117.0.0.0","1440x900","794x741",NA,NA,0,"Task Introduction and Instructions (removed audio and video)",3,"DECFBGAHJI","Passed AC2",NA,"Spreadsheet1",NA,"","","",NA,"5","BEGIN",NA,NA,NA,NA,NA,NA,0,NA,NA,NA,NA,"","",NA,"","",NA,"SUPPRF45081"
"2",1697806026064,"20/10/2023 12:47:06",1697809626064,1,"20/10/2023 14:47:06",147683,3,"task-ybli",NA,32381085,9577396,NA,"complete",NA,"6532741adb139ac3ecdd48d4","computer","Desktop or Laptop","Mac OS 10.15.7","Chrome 117.0.0.0","1440x900","794x741",NA,NA,0,"Task Introduction and Instructions (removed audio and video)",3,"DECFBGAHJI","Passed AC2",NA,"Spreadsheet1",1,"Task Instructions","Screen 1","anr7sn",1,"continue","",3099.876,3083.21,3099.876,3099.876,3083.21,3099.876,1,3099.876,0,0,NA,"Click To Continue","Continue Button",2,"object-1944","Task Instructions",NA,"SUPPRF45081"
"3",1697806031738,"20/10/2023 12:47:11",1697809631738,1,"20/10/2023 14:47:11",147683,3,"task-ybli",NA,32381085,9577396,NA,"complete",NA,"6532741adb139ac3ecdd48d4","computer","Desktop or Laptop","Mac OS 10.15.7","Chrome 117.0.0.0","1440x900","794x741",NA,NA,0,"Task Introduction and Instructions (removed audio and video)",3,"DECFBGAHJI","Passed AC2",NA,"Spreadsheet1",1,"Task Instructions","Screen 2","ce2tc8",2,"continue","",5692.45300003576,5683.344,5692.45300003576,5692.45300003576,5683.344,5692.45300003576,1,5692.45300003576,0,0,NA,"Click To Continue","Continue Button",2,"object-7","Task Instructions",NA,"SUPPRF45081"
"4",1697806034476,"20/10/2023 12:47:14",1697809634476,1,"20/10/2023 14:47:14",147683,3,"task-ybli",NA,32381085,9577396,NA,"complete",NA,"6532741adb139ac3ecdd48d4","computer","Desktop or Laptop","Mac OS 10.15.7","Chrome 117.0.0.0","1440x900","794x741",NA,NA,0,"Task Introduction and Instructions (removed audio and video)",3,"DECFBGAHJI","Passed AC2",NA,"Spreadsheet1",1,"Task Instructions","Screen 5","spepx9",3,"continue","",2747.60900003576,2733.224,2747.60900003576,2747.60900003576,2733.224,2747.60900003576,1,2747.60900003576,0,0,NA,"Click To Continue","Continue Button",2,"object-9","Task Instructions",NA,"SUPPRF45081"
"5",1697806036937,"20/10/2023 12:47:16",1697809636937,1,"20/10/2023 14:47:16",147683,3,"task-ybli",NA,32381085,9577396,NA,"complete",NA,"6532741adb139ac3ecdd48d4","computer","Desktop or Laptop","Mac OS 10.15.7","Chrome 117.0.0.0","1440x900","794x741",NA,NA,0,"Task Introduction and Instructions (removed audio and video)",3,"DECFBGAHJI","Passed AC2",NA,"Spreadsheet1",1,"Task Instructions","Screen 9","8nvnao",4,"continue","",2475.18500004768,2466.568,2475.18500004768,2475.18500004768,2466.568,2475.18500004768,1,2475.18500004768,0,0,NA,"Click To Continue","Continue Button",2,"object-44","Task Instructions",NA,"SUPPRF45081"
"6",1697806036939,"20/10/2023 12:47:16",1697809636939,1,"20/10/2023 14:47:16",147683,3,"task-ybli",NA,32381085,9577396,NA,"complete",NA,"6532741adb139ac3ecdd48d4","computer","Desktop or Laptop","Mac OS 10.15.7","Chrome 117.0.0.0","1440x900","794x741",NA,NA,0,"Task Introduction and Instructions (removed audio and video)",3,"DECFBGAHJI","Passed AC2",NA,"Spreadsheet1",NA,"","","",NA,"5","END",NA,NA,NA,NA,NA,NA,0,NA,NA,NA,NA,"","",NA,"","",NA,"SUPPRF45081"
"1",1697806043060,"20/10/2023 12:47:23",1697809643060,1,"20/10/2023 14:47:23",147683,3,"task-ybli",NA,32381094,9577424,NA,"complete",NA,"65327436bd8652e10f461c5e","tablet","Apple iPad","iOS 16.6","Chrome 118.0.5993.92","834x1112","782x719",NA,NA,0,"Task Introduction and Instructions (removed audio and video)",3,"EFDGCHBIAJ","Passed AC2",NA,"Spreadsheet1",NA,"","","",NA,"5","BEGIN",NA,NA,NA,NA,NA,NA,0,NA,NA,NA,NA,"","",NA,"","",NA,"SUPPRF55923"
"2",1697806046214,"20/10/2023 12:47:26",1697809646214,1,"20/10/2023 14:47:26",147683,3,"task-ybli",NA,32381094,9577424,NA,"complete",NA,"65327436bd8652e10f461c5e","tablet","Apple iPad","iOS 16.6","Chrome 118.0.5993.92","834x1112","782x719",NA,NA,0,"Task Introduction and Instructions (removed audio and video)",3,"EFDGCHBIAJ","Passed AC2",NA,"Spreadsheet1",1,"Task Instructions","Screen 1","anr7sn",1,"continue","",3082,3066,3082,3082,3066,3082,1,3082,0,0,NA,"Click To Continue","Continue Button",2,"object-1944","Task Instructions",NA,"SUPPRF55923"
"3",1697806057781,"20/10/2023 12:47:37",1697809657781,1,"20/10/2023 14:47:37",147683,3,"task-ybli",NA,32381094,9577424,NA,"complete",NA,"65327436bd8652e10f461c5e","tablet","Apple iPad","iOS 16.6","Chrome 118.0.5993.92","834x1112","782x719",NA,NA,0,"Task Introduction and Instructions (removed audio and video)",3,"EFDGCHBIAJ","Passed AC2",NA,"Spreadsheet1",1,"Task Instructions","Screen 2","ce2tc8",2,"continue","",11598,11584,11598,11598,11584,11598,1,11598,0,0,NA,"Click To Continue","Continue Button",2,"object-7","Task Instructions",NA,"SUPPRF55923"
"4",1697806060890,"20/10/2023 12:47:40",1697809660890,1,"20/10/2023 14:47:40",147683,3,"task-ybli",NA,32381094,9577424,NA,"complete",NA,"65327436bd8652e10f461c5e","tablet","Apple iPad","iOS 16.6","Chrome 118.0.5993.92","834x1112","782x719",NA,NA,0,"Task Introduction and Instructions (removed audio and video)",3,"EFDGCHBIAJ","Passed AC2",NA,"Spreadsheet1",1,"Task Instructions","Screen 5","spepx9",3,"continue","",3118,3101,3118,3118,3101,3118,1,3118,0,0,NA,"Click To Continue","Continue Button",2,"object-9","Task Instructions",NA,"SUPPRF55923"
"5",1697806068030,"20/10/2023 12:47:48",1697809668030,1,"20/10/2023 14:47:48",147683,3,"task-ybli",NA,32381094,9577424,NA,"complete",NA,"65327436bd8652e10f461c5e","tablet","Apple iPad","iOS 16.6","Chrome 118.0.5993.92","834x1112","1112x719",NA,NA,0,"Task Introduction and Instructions (removed audio and video)",3,"EFDGCHBIAJ","Passed AC2",NA,"Spreadsheet1",1,"Task Instructions","Screen 9","8nvnao",4,"continue","",7163,7150,7163,7163,7150,7163,1,7163,0,0,NA,"Click To Continue","Continue Button",2,"object-44","Task Instructions",NA,"SUPPRF55923"
"6",1697806068041,"20/10/2023 12:47:48",1697809668041,1,"20/10/2023 14:47:48",147683,3,"task-ybli",NA,32381094,9577424,NA,"complete",NA,"65327436bd8652e10f461c5e","tablet","Apple iPad","iOS 16.6","Chrome 118.0.5993.92","834x1112","1112x719",NA,NA,0,"Task Introduction and Instructions (removed audio and video)",3,"EFDGCHBIAJ","Passed AC2",NA,"Spreadsheet1",NA,"","","",NA,"5","END",NA,NA,NA,NA,NA,NA,0,NA,NA,NA,NA,"","",NA,"","",NA,"SUPPRF55923"
"1",1697806122715,"20/10/2023 12:48:42",1697809722715,1,"20/10/2023 14:48:42",147683,3,"task-ybli",NA,32381128,9577446,NA,"complete",NA,"653274782a9833c271b31a6e","computer","Desktop or Laptop","Windows 10","Chrome 118.0.0.0","1366x768","2049x927",NA,NA,0,"Task Introduction and Instructions (removed audio and video)",3,"FGEHDICJBA","Passed AC2",NA,"Spreadsheet1",NA,"","","",NA,"5","BEGIN",NA,NA,NA,NA,NA,NA,0,NA,NA,NA,NA,"","",NA,"","",NA,"SUPPRF05688"
"2",1697806126500,"20/10/2023 12:48:46",1697809726500,1,"20/10/2023 14:48:46",147683,3,"task-ybli",NA,32381128,9577446,NA,"complete",NA,"653274782a9833c271b31a6e","computer","Desktop or Laptop","Windows 10","Chrome 118.0.0.0","1366x768","2049x927",NA,NA,0,"Task Introduction and Instructions (removed audio and video)",3,"FGEHDICJBA","Passed AC2",NA,"Spreadsheet1",1,"Task Instructions","Screen 1","anr7sn",1,"continue","",3483.394,3466.652,3483.394,3483.394,3466.652,3483.394,1,3483.394,0,0,NA,"Click To Continue","Continue Button",2,"object-1944","Task Instructions",NA,"SUPPRF05688"
"3",1697806133970,"20/10/2023 12:48:53",1697809733970,1,"20/10/2023 14:48:53",147683,3,"task-ybli",NA,32381128,9577446,NA,"complete",NA,"653274782a9833c271b31a6e","computer","Desktop or Laptop","Windows 10","Chrome 118.0.0.0","1366x768","2049x927",NA,NA,0,"Task Introduction and Instructions (removed audio and video)",3,"FGEHDICJBA","Passed AC2",NA,"Spreadsheet1",1,"Task Instructions","Screen 2","ce2tc8",2,"continue","",7491.79399999404,7483.534,7491.79399999404,7491.79399999404,7483.534,7491.79399999404,1,7491.79399999404,0,0,NA,"Click To Continue","Continue Button",2,"object-7","Task Instructions",NA,"SUPPRF05688"
"4",1697806137956,"20/10/2023 12:48:57",1697809737956,1,"20/10/2023 14:48:57",147683,3,"task-ybli",NA,32381128,9577446,NA,"complete",NA,"653274782a9833c271b31a6e","computer","Desktop or Laptop","Windows 10","Chrome 118.0.0.0","1366x768","2049x927",NA,NA,0,"Task Introduction and Instructions (removed audio and video)",3,"FGEHDICJBA","Passed AC2",NA,"Spreadsheet1",1,"Task Instructions","Screen 5","spepx9",3,"continue","",3994.35999998808,3983.49,3994.35999998808,3994.35999998808,3983.49,3994.35999998808,1,3994.35999998808,0,0,NA,"Click To Continue","Continue Button",2,"object-9","Task Instructions",NA,"SUPPRF05688"
"5",1697806140613,"20/10/2023 12:49:00",1697809740613,1,"20/10/2023 14:49:00",147683,3,"task-ybli",NA,32381128,9577446,NA,"complete",NA,"653274782a9833c271b31a6e","computer","Desktop or Laptop","Windows 10","Chrome 118.0.0.0","1366x768","2049x927",NA,NA,0,"Task Introduction and Instructions (removed audio and video)",3,"FGEHDICJBA","Passed AC2",NA,"Spreadsheet1",1,"Task Instructions","Screen 9","8nvnao",4,"continue","",2666.56099999999,2649.896,2666.56099999999,2666.56099999999,2649.896,2666.56099999999,1,2666.56099999999,0,0,NA,"Click To Continue","Continue Button",2,"object-44","Task Instructions",NA,"SUPPRF05688"
"6",1697806140621,"20/10/2023 12:49:00",1697809740621,1,"20/10/2023 14:49:00",147683,3,"task-ybli",NA,32381128,9577446,NA,"complete",NA,"653274782a9833c271b31a6e","computer","Desktop or Laptop","Windows 10","Chrome 118.0.0.0","1366x768","2049x927",NA,NA,0,"Task Introduction and Instructions (removed audio and video)",3,"FGEHDICJBA","Passed AC2",NA,"Spreadsheet1",NA,"","","",NA,"5","END",NA,NA,NA,NA,NA,NA,0,NA,NA,NA,NA,"","",NA,"","",NA,"SUPPRF05688"
"1",1697806175781,"20/10/2023 12:49:35",1697809775781,1,"20/10/2023 14:49:35",147683,3,"task-ybli",NA,32381153,9577436,NA,"complete",NA,"653274794c2d3cfdfbb3c7b1","computer","Desktop or Laptop","Windows 10","Firefox 120.0","2560x1440","1279x1286",NA,NA,0,"Task Introduction and Instructions (removed audio and video)",3,"GHFIEJDACB","Passed AC2",NA,"Spreadsheet1",NA,"","","",NA,"5","BEGIN",NA,NA,NA,NA,NA,NA,0,NA,NA,NA,NA,"","",NA,"","",NA,"SUPPRF44350"
"2",1697806179934,"20/10/2023 12:49:39",1697809779934,1,"20/10/2023 14:49:39",147683,3,"task-ybli",NA,32381153,9577436,NA,"complete",NA,"653274794c2d3cfdfbb3c7b1","computer","Desktop or Laptop","Windows 10","Firefox 120.0","2560x1440","1279x1286",NA,NA,0,"Task Introduction and Instructions (removed audio and video)",3,"GHFIEJDACB","Passed AC2",NA,"Spreadsheet1",1,"Task Instructions","Screen 1","anr7sn",1,"continue","",4033.56,4016.88,4033.56,4033.56,4016.88,4033.56,1,4033.56,0,0,NA,"Click To Continue","Continue Button",2,"object-1944","Task Instructions",NA,"SUPPRF44350"
"3",1697806186729,"20/10/2023 12:49:46",1697809786729,1,"20/10/2023 14:49:46",147683,3,"task-ybli",NA,32381153,9577436,NA,"complete",NA,"653274794c2d3cfdfbb3c7b1","computer","Desktop or Laptop","Windows 10","Firefox 120.0","2560x1440","1279x1286",NA,NA,0,"Task Introduction and Instructions (removed audio and video)",3,"GHFIEJDACB","Passed AC2",NA,"Spreadsheet1",1,"Task Instructions","Screen 2","ce2tc8",2,"continue","",6811.5,6802.28,6811.5,6811.5,6802.28,6811.5,1,6811.5,0,0,NA,"Click To Continue","Continue Button",2,"object-7","Task Instructions",NA,"SUPPRF44350"
"4",1697806203274,"20/10/2023 12:50:03",1697809803274,1,"20/10/2023 14:50:03",147683,3,"task-ybli",NA,32381153,9577436,NA,"complete",NA,"653274794c2d3cfdfbb3c7b1","computer","Desktop or Laptop","Windows 10","Firefox 120.0","2560x1440","1279x1286",NA,NA,0,"Task Introduction and Instructions (removed audio and video)",3,"GHFIEJDACB","Passed AC2",NA,"Spreadsheet1",1,"Task Instructions","Screen 5","spepx9",3,"continue","",16555.22,16550.82,16555.22,16555.22,16550.82,16555.22,1,16555.22,0,0,NA,"Click To Continue","Continue Button",2,"object-9","Task Instructions",NA,"SUPPRF44350"
"5",1697806207915,"20/10/2023 12:50:07",1697809807915,1,"20/10/2023 14:50:07",147683,3,"task-ybli",NA,32381153,9577436,NA,"complete",NA,"653274794c2d3cfdfbb3c7b1","computer","Desktop or Laptop","Windows 10","Firefox 120.0","2560x1440","1279x1286",NA,NA,0,"Task Introduction and Instructions (removed audio and video)",3,"GHFIEJDACB","Passed AC2",NA,"Spreadsheet1",1,"Task Instructions","Screen 9","8nvnao",4,"response","bot",4645.4,4633.58,4645.4,4645.4,4633.58,4645.4,1,4645.4,0,0,NA,"Click Response","Response",5,"object-47","Task Instructions",NA,"SUPPRF44350"
"6",1697806207917,"20/10/2023 12:50:07",1697809807917,1,"20/10/2023 14:50:07",147683,3,"task-ybli",NA,32381153,9577436,NA,"complete",NA,"653274794c2d3cfdfbb3c7b1","computer","Desktop or Laptop","Windows 10","Firefox 120.0","2560x1440","1279x1286",NA,NA,0,"Task Introduction and Instructions (removed audio and video)",3,"GHFIEJDACB","Passed AC2",NA,"Spreadsheet1",NA,"","","",NA,"5","END",NA,NA,NA,NA,NA,NA,0,NA,NA,NA,NA,"","",NA,"","",NA,"SUPPRF44350"
"1",1697806268141,"20/10/2023 12:51:08",1697809868141,1,"20/10/2023 14:51:08",147683,3,"task-ybli",NA,32381191,9577432,NA,"complete",NA,"6532712d72e164e0bfb915f6","computer","Desktop or Laptop","Windows 10","Chrome 118.0.0.0","1923x947","1920x941",NA,NA,0,"Task Introduction and Instructions (removed audio and video)",3,"JAIBHCGDFE","Passed AC2",NA,"Spreadsheet1",NA,"","","",NA,"5","BEGIN",NA,NA,NA,NA,NA,NA,0,NA,NA,NA,NA,"","",NA,"","",NA,"SUPPRF73219"
"2",1697806279664,"20/10/2023 12:51:19",1697809879664,1,"20/10/2023 14:51:19",147683,3,"task-ybli",NA,32381191,9577432,NA,"complete",NA,"6532712d72e164e0bfb915f6","computer","Desktop or Laptop","Windows 10","Chrome 118.0.0.0","1923x947","1920x941",NA,NA,0,"Task Introduction and Instructions (removed audio and video)",3,"JAIBHCGDFE","Passed AC2",NA,"Spreadsheet1",1,"Task Instructions","Screen 1","anr7sn",1,"continue","",11502,11500,11502,11502,11500,11502,1,11502,0,0,NA,"Click To Continue","Continue Button",2,"object-1944","Task Instructions",NA,"SUPPRF73219"
"3",1697806284205,"20/10/2023 12:51:24",1697809884205,1,"20/10/2023 14:51:24",147683,3,"task-ybli",NA,32381191,9577432,NA,"complete",NA,"6532712d72e164e0bfb915f6","computer","Desktop or Laptop","Windows 10","Chrome 118.0.0.0","1923x947","1920x941",NA,NA,0,"Task Introduction and Instructions (removed audio and video)",3,"JAIBHCGDFE","Passed AC2",NA,"Spreadsheet1",1,"Task Instructions","Screen 2","ce2tc8",2,"continue","",4543,4533,4543,4543,4533,4543,1,4543,0,0,NA,"Click To Continue","Continue Button",2,"object-7","Task Instructions",NA,"SUPPRF73219"
"4",1697806287124,"20/10/2023 12:51:27",1697809887124,1,"20/10/2023 14:51:27",147683,3,"task-ybli",NA,32381191,9577432,NA,"complete",NA,"6532712d72e164e0bfb915f6","computer","Desktop or Laptop","Windows 10","Chrome 118.0.0.0","1923x947","1920x941",NA,NA,0,"Task Introduction and Instructions (removed audio and video)",3,"JAIBHCGDFE","Passed AC2",NA,"Spreadsheet1",1,"Task Instructions","Screen 5","spepx9",3,"continue","",2929,2917,2929,2929,2917,2929,1,2929,0,0,NA,"Click To Continue","Continue Button",2,"object-9","Task Instructions",NA,"SUPPRF73219"
"5",1697806289750,"20/10/2023 12:51:29",1697809889750,1,"20/10/2023 14:51:29",147683,3,"task-ybli",NA,32381191,9577432,NA,"complete",NA,"6532712d72e164e0bfb915f6","computer","Desktop or Laptop","Windows 10","Chrome 118.0.0.0","1923x947","1920x941",NA,NA,0,"Task Introduction and Instructions (removed audio and video)",3,"JAIBHCGDFE","Passed AC2",NA,"Spreadsheet1",1,"Task Instructions","Screen 9","8nvnao",4,"continue","",2637,2633,2637,2637,2633,2637,1,2637,0,0,NA,"Click To Continue","Continue Button",2,"object-44","Task Instructions",NA,"SUPPRF73219"
"6",1697806289753,"20/10/2023 12:51:29",1697809889753,1,"20/10/2023 14:51:29",147683,3,"task-ybli",NA,32381191,9577432,NA,"complete",NA,"6532712d72e164e0bfb915f6","computer","Desktop or Laptop","Windows 10","Chrome 118.0.0.0","1923x947","1920x941",NA,NA,0,"Task Introduction and Instructions (removed audio and video)",3,"JAIBHCGDFE","Passed AC2",NA,"Spreadsheet1",NA,"","","",NA,"5","END",NA,NA,NA,NA,NA,NA,0,NA,NA,NA,NA,"","",NA,"","",NA,"SUPPRF73219"
"1",1697806420231,"20/10/2023 12:53:40",1697810020231,1,"20/10/2023 14:53:40",147683,3,"task-ybli",NA,32381230,9577503,NA,"complete",NA,"653274d8009590ef598fd9dd","computer","Desktop or Laptop","Windows 10","Chrome 118.0.0.0","1280x720","1280x563",NA,NA,0,"Task Introduction and Instructions (removed audio and video)",3,"IJHAGBFCED","Passed AC2",NA,"Spreadsheet1",NA,"","","",NA,"5","BEGIN",NA,NA,NA,NA,NA,NA,0,NA,NA,NA,NA,"","",NA,"","",NA,"SUPPRF38095"
"2",1697806437072,"20/10/2023 12:53:57",1697810037072,1,"20/10/2023 14:53:57",147683,3,"task-ybli",NA,32381230,9577503,NA,"complete",NA,"653274d8009590ef598fd9dd","computer","Desktop or Laptop","Windows 10","Chrome 118.0.0.0","1280x720","1280x563",NA,NA,0,"Task Introduction and Instructions (removed audio and video)",3,"IJHAGBFCED","Passed AC2",NA,"Spreadsheet1",1,"Task Instructions","Screen 1","anr7sn",1,"continue","",16650.183,16633.446,16650.183,16650.183,16633.446,16650.183,1,16650.183,0,0,NA,"Click To Continue","Continue Button",2,"object-1944","Task Instructions",NA,"SUPPRF38095"
"3",1697806443031,"20/10/2023 12:54:03",1697810043031,1,"20/10/2023 14:54:03",147683,3,"task-ybli",NA,32381230,9577503,NA,"complete",NA,"653274d8009590ef598fd9dd","computer","Desktop or Laptop","Windows 10","Chrome 118.0.0.0","1280x720","1280x563",NA,NA,0,"Task Introduction and Instructions (removed audio and video)",3,"IJHAGBFCED","Passed AC2",NA,"Spreadsheet1",1,"Task Instructions","Screen 2","ce2tc8",2,"continue","",5988.85599999702,5983.731,5988.85599999702,5988.85599999702,5983.731,5988.85599999702,1,5988.85599999702,0,0,NA,"Click To Continue","Continue Button",2,"object-7","Task Instructions",NA,"SUPPRF38095"
"4",1697806445922,"20/10/2023 12:54:05",1697810045922,1,"20/10/2023 14:54:05",147683,3,"task-ybli",NA,32381230,9577503,NA,"complete",NA,"653274d8009590ef598fd9dd","computer","Desktop or Laptop","Windows 10","Chrome 118.0.0.0","1280x720","1280x563",NA,NA,0,"Task Introduction and Instructions (removed audio and video)",3,"IJHAGBFCED","Passed AC2",NA,"Spreadsheet1",1,"Task Instructions","Screen 5","spepx9",3,"continue","",2897.12499999702,2883.168,2897.12499999702,2897.12499999702,2883.168,2897.12499999702,1,2897.12499999702,0,0,NA,"Click To Continue","Continue Button",2,"object-9","Task Instructions",NA,"SUPPRF38095"
"5",1697806448771,"20/10/2023 12:54:08",1697810048771,1,"20/10/2023 14:54:08",147683,3,"task-ybli",NA,32381230,9577503,NA,"complete",NA,"653274d8009590ef598fd9dd","computer","Desktop or Laptop","Windows 10","Chrome 118.0.0.0","1280x720","1280x563",NA,NA,0,"Task Introduction and Instructions (removed audio and video)",3,"IJHAGBFCED","Passed AC2",NA,"Spreadsheet1",1,"Task Instructions","Screen 9","8nvnao",4,"continue","",2862.35700000298,2850.171,2862.35700000298,2862.35700000298,2850.171,2862.35700000298,1,2862.35700000298,0,0,NA,"Click To Continue","Continue Button",2,"object-44","Task Instructions",NA,"SUPPRF38095"
"6",1697806448788,"20/10/2023 12:54:08",1697810048788,1,"20/10/2023 14:54:08",147683,3,"task-ybli",NA,32381230,9577503,NA,"complete",NA,"653274d8009590ef598fd9dd","computer","Desktop or Laptop","Windows 10","Chrome 118.0.0.0","1280x720","1280x563",NA,NA,0,"Task Introduction and Instructions (removed audio and video)",3,"IJHAGBFCED","Passed AC2",NA,"Spreadsheet1",NA,"","","",NA,"5","END",NA,NA,NA,NA,NA,NA,0,NA,NA,NA,NA,"","",NA,"","",NA,"SUPPRF38095"
"1",1697806510810,"20/10/2023 12:55:10",1697810110810,1,"20/10/2023 14:55:10",147683,3,"task-ybli",NA,32381260,9577484,NA,"complete",NA,"653274e0a37f4de4ab6817c9","computer","Desktop or Laptop","Windows 10","Chrome 117.0.0.0","1920x1080","1920x963",NA,NA,0,"Task Introduction and Instructions (removed audio and video)",3,"HIGJFAEBDC","Passed AC2",NA,"Spreadsheet1",NA,"","","",NA,"5","BEGIN",NA,NA,NA,NA,NA,NA,0,NA,NA,NA,NA,"","",NA,"","",NA,"SUPPRF56321"
"2",1697806516747,"20/10/2023 12:55:16",1697810116747,1,"20/10/2023 14:55:16",147683,3,"task-ybli",NA,32381260,9577484,NA,"complete",NA,"653274e0a37f4de4ab6817c9","computer","Desktop or Laptop","Windows 10","Chrome 117.0.0.0","1920x1080","1920x963",NA,NA,0,"Task Introduction and Instructions (removed audio and video)",3,"HIGJFAEBDC","Passed AC2",NA,"Spreadsheet1",1,"Task Instructions","Screen 1","anr7sn",1,"continue","",5739.695,5723.028,5739.695,5739.695,5723.028,5739.695,1,5739.695,0,0,NA,"Click To Continue","Continue Button",2,"object-1944","Task Instructions",NA,"SUPPRF56321"
"3",1697806525681,"20/10/2023 12:55:25",1697810125681,1,"20/10/2023 14:55:25",147683,3,"task-ybli",NA,32381260,9577484,NA,"complete",NA,"653274e0a37f4de4ab6817c9","computer","Desktop or Laptop","Windows 10","Chrome 117.0.0.0","1920x1080","1920x963",NA,NA,0,"Task Introduction and Instructions (removed audio and video)",3,"HIGJFAEBDC","Passed AC2",NA,"Spreadsheet1",1,"Task Instructions","Screen 2","ce2tc8",2,"continue","",8926.693,8910.015,8926.693,8926.693,8910.015,8926.693,1,8926.693,0,0,NA,"Click To Continue","Continue Button",2,"object-7","Task Instructions",NA,"SUPPRF56321"
"4",1697806529519,"20/10/2023 12:55:29",1697810129519,1,"20/10/2023 14:55:29",147683,3,"task-ybli",NA,32381260,9577484,NA,"complete",NA,"653274e0a37f4de4ab6817c9","computer","Desktop or Laptop","Windows 10","Chrome 117.0.0.0","1920x1080","1920x963",NA,NA,0,"Task Introduction and Instructions (removed audio and video)",3,"HIGJFAEBDC","Passed AC2",NA,"Spreadsheet1",1,"Task Instructions","Screen 5","spepx9",3,"continue","",3887.24700000596,3871.113,3887.24700000596,3887.24700000596,3871.113,3887.24700000596,1,3887.24700000596,0,0,NA,"Click To Continue","Continue Button",2,"object-9","Task Instructions",NA,"SUPPRF56321"
"5",1697806532040,"20/10/2023 12:55:32",1697810132040,1,"20/10/2023 14:55:32",147683,3,"task-ybli",NA,32381260,9577484,NA,"complete",NA,"653274e0a37f4de4ab6817c9","computer","Desktop or Laptop","Windows 10","Chrome 117.0.0.0","1920x1080","1920x963",NA,NA,0,"Task Introduction and Instructions (removed audio and video)",3,"HIGJFAEBDC","Passed AC2",NA,"Spreadsheet1",1,"Task Instructions","Screen 9","8nvnao",4,"continue","",2536.208,2519.477,2536.208,2536.208,2519.477,2536.208,1,2536.208,0,0,NA,"Click To Continue","Continue Button",2,"object-44","Task Instructions",NA,"SUPPRF56321"
"6",1697806532064,"20/10/2023 12:55:32",1697810132064,1,"20/10/2023 14:55:32",147683,3,"task-ybli",NA,32381260,9577484,NA,"complete",NA,"653274e0a37f4de4ab6817c9","computer","Desktop or Laptop","Windows 10","Chrome 117.0.0.0","1920x1080","1920x963",NA,NA,0,"Task Introduction and Instructions (removed audio and video)",3,"HIGJFAEBDC","Passed AC2",NA,"Spreadsheet1",NA,"","","",NA,"5","END",NA,NA,NA,NA,NA,NA,0,NA,NA,NA,NA,"","",NA,"","",NA,"SUPPRF56321"
"1",1697806524670,"20/10/2023 12:55:24",1697810124670,1,"20/10/2023 14:55:24",147683,3,"task-ybli",NA,32381262,9577632,NA,"complete",NA,"6532766f7437bf7e1831323b","computer","Desktop or Laptop","Windows 10","Chrome 118.0.0.0","1280x720","1280x595",NA,NA,0,"Task Introduction and Instructions (removed audio and video)",3,"CDBEAFJGIH","Passed AC2",NA,"Spreadsheet1",NA,"","","",NA,"5","BEGIN",NA,NA,NA,NA,NA,NA,0,NA,NA,NA,NA,"","",NA,"","",NA,"SUPPRF46237"
"2",1697806528426,"20/10/2023 12:55:28",1697810128426,1,"20/10/2023 14:55:28",147683,3,"task-ybli",NA,32381262,9577632,NA,"complete",NA,"6532766f7437bf7e1831323b","computer","Desktop or Laptop","Windows 10","Chrome 118.0.0.0","1280x720","1280x595",NA,NA,0,"Task Introduction and Instructions (removed audio and video)",3,"CDBEAFJGIH","Passed AC2",NA,"Spreadsheet1",1,"Task Instructions","Screen 1","anr7sn",1,"continue","",3365.56,3349.558,3365.56,3365.56,3349.558,3365.56,1,3365.56,0,0,NA,"Click To Continue","Continue Button",2,"object-1944","Task Instructions",NA,"SUPPRF46237"
"3",1697806534573,"20/10/2023 12:55:34",1697810134573,1,"20/10/2023 14:55:34",147683,3,"task-ybli",NA,32381262,9577632,NA,"complete",NA,"6532766f7437bf7e1831323b","computer","Desktop or Laptop","Windows 10","Chrome 118.0.0.0","1280x720","1280x595",NA,NA,0,"Task Introduction and Instructions (removed audio and video)",3,"CDBEAFJGIH","Passed AC2",NA,"Spreadsheet1",1,"Task Instructions","Screen 2","ce2tc8",2,"continue","",6164.60200002384,6149.92,6164.60200002384,6164.60200002384,6149.92,6164.60200002384,1,6164.60200002384,0,0,NA,"Click To Continue","Continue Button",2,"object-7","Task Instructions",NA,"SUPPRF46237"
"4",1697806537324,"20/10/2023 12:55:37",1697810137324,1,"20/10/2023 14:55:37",147683,3,"task-ybli",NA,32381262,9577632,NA,"complete",NA,"6532766f7437bf7e1831323b","computer","Desktop or Laptop","Windows 10","Chrome 118.0.0.0","1280x720","1280x595",NA,NA,0,"Task Introduction and Instructions (removed audio and video)",3,"CDBEAFJGIH","Passed AC2",NA,"Spreadsheet1",1,"Task Instructions","Screen 5","spepx9",3,"continue","",2766.18200002384,2749.616,2766.18200002384,2766.18200002384,2749.616,2766.18200002384,1,2766.18200002384,0,0,NA,"Click To Continue","Continue Button",2,"object-9","Task Instructions",NA,"SUPPRF46237"
"5",1697806540143,"20/10/2023 12:55:40",1697810140143,1,"20/10/2023 14:55:40",147683,3,"task-ybli",NA,32381262,9577632,NA,"complete",NA,"6532766f7437bf7e1831323b","computer","Desktop or Laptop","Windows 10","Chrome 118.0.0.0","1280x720","1280x595",NA,NA,0,"Task Introduction and Instructions (removed audio and video)",3,"CDBEAFJGIH","Passed AC2",NA,"Spreadsheet1",1,"Task Instructions","Screen 9","8nvnao",4,"continue","",2834.966,2832.349,2834.966,2834.966,2832.349,2834.966,1,2834.966,0,0,NA,"Click To Continue","Continue Button",2,"object-44","Task Instructions",NA,"SUPPRF46237"
"6",1697806540149,"20/10/2023 12:55:40",1697810140149,1,"20/10/2023 14:55:40",147683,3,"task-ybli",NA,32381262,9577632,NA,"complete",NA,"6532766f7437bf7e1831323b","computer","Desktop or Laptop","Windows 10","Chrome 118.0.0.0","1280x720","1280x595",NA,NA,0,"Task Introduction and Instructions (removed audio and video)",3,"CDBEAFJGIH","Passed AC2",NA,"Spreadsheet1",NA,"","","",NA,"5","END",NA,NA,NA,NA,NA,NA,0,NA,NA,NA,NA,"","",NA,"","",NA,"SUPPRF46237"
"1",1697806530729,"20/10/2023 12:55:30",1697810130729,1,"20/10/2023 14:55:30",147683,3,"task-ybli",NA,32381266,9577571,NA,"complete",NA,"653275d5b71ece46e5b2b22f","computer","Desktop or Laptop","Linux x86_64","Chrome 117.0.0.0","412x915","980x1938",NA,NA,0,"Task Introduction and Instructions (removed audio and video)",3,"ABJCIDHEGF","Passed AC2",NA,"Spreadsheet1",NA,"","","",NA,"5","BEGIN",NA,NA,NA,NA,NA,NA,0,NA,NA,NA,NA,"","",NA,"","",NA,"SUPPRF57890"
"2",1697806533523,"20/10/2023 12:55:33",1697810133523,1,"20/10/2023 14:55:33",147683,3,"task-ybli",NA,32381266,9577571,NA,"complete",NA,"653275d5b71ece46e5b2b22f","computer","Desktop or Laptop","Linux x86_64","Chrome 117.0.0.0","412x915","980x1938",NA,NA,0,"Task Introduction and Instructions (removed audio and video)",3,"ABJCIDHEGF","Passed AC2",NA,"Spreadsheet1",1,"Task Instructions","Screen 1","anr7sn",1,"continue","",2699.858,2691.523,2699.858,2699.858,2691.523,2699.858,1,2699.858,0,0,NA,"Click To Continue","Continue Button",2,"object-1944","Task Instructions",NA,"SUPPRF57890"
"3",1697806540478,"20/10/2023 12:55:40",1697810140478,1,"20/10/2023 14:55:40",147683,3,"task-ybli",NA,32381266,9577571,NA,"complete",NA,"653275d5b71ece46e5b2b22f","computer","Desktop or Laptop","Linux x86_64","Chrome 117.0.0.0","412x915","980x1938",NA,NA,0,"Task Introduction and Instructions (removed audio and video)",3,"ABJCIDHEGF","Passed AC2",NA,"Spreadsheet1",1,"Task Instructions","Screen 2","ce2tc8",2,"continue","",6959.896,6951.56,6959.896,6959.896,6951.56,6959.896,1,6959.896,0,0,NA,"Click To Continue","Continue Button",2,"object-7","Task Instructions",NA,"SUPPRF57890"
"4",1697806543349,"20/10/2023 12:55:43",1697810143349,1,"20/10/2023 14:55:43",147683,3,"task-ybli",NA,32381266,9577571,NA,"complete",NA,"653275d5b71ece46e5b2b22f","computer","Desktop or Laptop","Linux x86_64","Chrome 117.0.0.0","412x915","980x1938",NA,NA,0,"Task Introduction and Instructions (removed audio and video)",3,"ABJCIDHEGF","Passed AC2",NA,"Spreadsheet1",1,"Task Instructions","Screen 5","spepx9",3,"continue","",2887.99900003576,2882.382,2887.99900003576,2887.99900003576,2882.382,2887.99900003576,1,2887.99900003576,0,0,NA,"Click To Continue","Continue Button",2,"object-9","Task Instructions",NA,"SUPPRF57890"
"5",1697806546117,"20/10/2023 12:55:46",1697810146117,1,"20/10/2023 14:55:46",147683,3,"task-ybli",NA,32381266,9577571,NA,"complete",NA,"653275d5b71ece46e5b2b22f","computer","Desktop or Laptop","Linux x86_64","Chrome 117.0.0.0","412x915","980x1938",NA,NA,0,"Task Introduction and Instructions (removed audio and video)",3,"ABJCIDHEGF","Passed AC2",NA,"Spreadsheet1",1,"Task Instructions","Screen 9","8nvnao",4,"continue","",2765.11,2756.782,2765.11,2765.11,2756.782,2765.11,1,2765.11,0,0,NA,"Click To Continue","Continue Button",2,"object-44","Task Instructions",NA,"SUPPRF57890"
"6",1697806546121,"20/10/2023 12:55:46",1697810146121,1,"20/10/2023 14:55:46",147683,3,"task-ybli",NA,32381266,9577571,NA,"complete",NA,"653275d5b71ece46e5b2b22f","computer","Desktop or Laptop","Linux x86_64","Chrome 117.0.0.0","412x915","980x1938",NA,NA,0,"Task Introduction and Instructions (removed audio and video)",3,"ABJCIDHEGF","Passed AC2",NA,"Spreadsheet1",NA,"","","",NA,"5","END",NA,NA,NA,NA,NA,NA,0,NA,NA,NA,NA,"","",NA,"","",NA,"SUPPRF57890"
"1",1697806622924,"20/10/2023 12:57:02",1697810222924,1,"20/10/2023 14:57:02",147683,3,"task-ybli",NA,32381294,9577621,NA,"complete",NA,"653275a907f258f0133c73a0","computer","Desktop or Laptop","Windows 10","Chrome 117.0.0.0","1920x1080","1920x969",NA,NA,0,"Task Introduction and Instructions (removed audio and video)",3,"BCADJEIFHG","Passed AC2",NA,"Spreadsheet1",NA,"","","",NA,"5","BEGIN",NA,NA,NA,NA,NA,NA,0,NA,NA,NA,NA,"","",NA,"","",NA,"SUPPRF67412"
"2",1697806626658,"20/10/2023 12:57:06",1697810226658,1,"20/10/2023 14:57:06",147683,3,"task-ybli",NA,32381294,9577621,NA,"complete",NA,"653275a907f258f0133c73a0","computer","Desktop or Laptop","Windows 10","Chrome 117.0.0.0","1920x1080","1920x969",NA,NA,0,"Task Introduction and Instructions (removed audio and video)",3,"BCADJEIFHG","Passed AC2",NA,"Spreadsheet1",1,"Task Instructions","Screen 1","anr7sn",1,"continue","",3648.767,3642.211,3648.767,3648.767,3642.211,3648.767,1,3648.767,0,0,NA,"Click To Continue","Continue Button",2,"object-1944","Task Instructions",NA,"SUPPRF67412"
"3",1697806637676,"20/10/2023 12:57:17",1697810237676,1,"20/10/2023 14:57:17",147683,3,"task-ybli",NA,32381294,9577621,NA,"complete",NA,"653275a907f258f0133c73a0","computer","Desktop or Laptop","Windows 10","Chrome 117.0.0.0","1920x1080","1920x969",NA,NA,0,"Task Introduction and Instructions (removed audio and video)",3,"BCADJEIFHG","Passed AC2",NA,"Spreadsheet1",1,"Task Instructions","Screen 2","ce2tc8",2,"continue","",11025.2560000477,11018.095,11025.2560000477,11025.2560000477,11018.095,11025.2560000477,1,11025.2560000477,0,0,NA,"Click To Continue","Continue Button",2,"object-7","Task Instructions",NA,"SUPPRF67412"
"4",1697806640519,"20/10/2023 12:57:20",1697810240519,1,"20/10/2023 14:57:20",147683,3,"task-ybli",NA,32381294,9577621,NA,"complete",NA,"653275a907f258f0133c73a0","computer","Desktop or Laptop","Windows 10","Chrome 117.0.0.0","1920x1080","1920x969",NA,NA,0,"Task Introduction and Instructions (removed audio and video)",3,"BCADJEIFHG","Passed AC2",NA,"Spreadsheet1",1,"Task Instructions","Screen 5","spepx9",3,"continue","",2850.16100004768,2842.174,2850.16100004768,2850.16100004768,2842.174,2850.16100004768,1,2850.16100004768,0,0,NA,"Click To Continue","Continue Button",2,"object-9","Task Instructions",NA,"SUPPRF67412"
"5",1697806643140,"20/10/2023 12:57:23",1697810243140,1,"20/10/2023 14:57:23",147683,3,"task-ybli",NA,32381294,9577621,NA,"complete",NA,"653275a907f258f0133c73a0","computer","Desktop or Laptop","Windows 10","Chrome 117.0.0.0","1920x1080","1920x969",NA,NA,0,"Task Introduction and Instructions (removed audio and video)",3,"BCADJEIFHG","Passed AC2",NA,"Spreadsheet1",1,"Task Instructions","Screen 9","8nvnao",4,"continue","",2628.787,2625.365,2628.787,2628.787,2625.365,2628.787,1,2628.787,0,0,NA,"Click To Continue","Continue Button",2,"object-44","Task Instructions",NA,"SUPPRF67412"
"6",1697806643141,"20/10/2023 12:57:23",1697810243141,1,"20/10/2023 14:57:23",147683,3,"task-ybli",NA,32381294,9577621,NA,"complete",NA,"653275a907f258f0133c73a0","computer","Desktop or Laptop","Windows 10","Chrome 117.0.0.0","1920x1080","1920x969",NA,NA,0,"Task Introduction and Instructions (removed audio and video)",3,"BCADJEIFHG","Passed AC2",NA,"Spreadsheet1",NA,"","","",NA,"5","END",NA,NA,NA,NA,NA,NA,0,NA,NA,NA,NA,"","",NA,"","",NA,"SUPPRF67412"
"1",1697815837044,"20/10/2023 15:30:37",1697819437044,1,"20/10/2023 17:30:37",147683,3,"task-ybli",NA,32384560,9582054,NA,"complete",NA,"653299da3bfc21d6421e75f1","computer","Desktop or Laptop","Windows 10","Chrome 118.0.0.0","2048x1152","2048x1006",NA,NA,0,"Task Introduction and Instructions (removed audio and video)",3,"DECFBGAHJI","Passed AC2",NA,"Spreadsheet1",NA,"","","",NA,"5","BEGIN",NA,NA,NA,NA,NA,NA,0,NA,NA,NA,NA,"","",NA,"","",NA,"SUPPRF14083"
"2",1697815841426,"20/10/2023 15:30:41",1697819441426,1,"20/10/2023 17:30:41",147683,3,"task-ybli",NA,32384560,9582054,NA,"complete",NA,"653299da3bfc21d6421e75f1","computer","Desktop or Laptop","Windows 10","Chrome 118.0.0.0","2048x1152","2048x1006",NA,NA,0,"Task Introduction and Instructions (removed audio and video)",3,"DECFBGAHJI","Passed AC2",NA,"Spreadsheet1",1,"Task Instructions","Screen 1","anr7sn",1,"continue","",4319,4315,4319,4319,4315,4319,1,4319,0,0,NA,"Click To Continue","Continue Button",2,"object-1944","Task Instructions",NA,"SUPPRF14083"
"3",1697815852435,"20/10/2023 15:30:52",1697819452435,1,"20/10/2023 17:30:52",147683,3,"task-ybli",NA,32384560,9582054,NA,"complete",NA,"653299da3bfc21d6421e75f1","computer","Desktop or Laptop","Windows 10","Chrome 118.0.0.0","2048x1152","2048x1006",NA,NA,0,"Task Introduction and Instructions (removed audio and video)",3,"DECFBGAHJI","Passed AC2",NA,"Spreadsheet1",1,"Task Instructions","Screen 2","ce2tc8",2,"continue","",11012,11006,11012,11012,11006,11012,1,11012,0,0,NA,"Click To Continue","Continue Button",2,"object-7","Task Instructions",NA,"SUPPRF14083"
"4",1697815855686,"20/10/2023 15:30:55",1697819455686,1,"20/10/2023 17:30:55",147683,3,"task-ybli",NA,32384560,9582054,NA,"complete",NA,"653299da3bfc21d6421e75f1","computer","Desktop or Laptop","Windows 10","Chrome 118.0.0.0","2048x1152","2048x1006",NA,NA,0,"Task Introduction and Instructions (removed audio and video)",3,"DECFBGAHJI","Passed AC2",NA,"Spreadsheet1",1,"Task Instructions","Screen 5","spepx9",3,"continue","",3259,3252,3259,3259,3252,3259,1,3259,0,0,NA,"Click To Continue","Continue Button",2,"object-9","Task Instructions",NA,"SUPPRF14083"
"5",1697815861544,"20/10/2023 15:31:01",1697819461544,1,"20/10/2023 17:31:01",147683,3,"task-ybli",NA,32384560,9582054,NA,"complete",NA,"653299da3bfc21d6421e75f1","computer","Desktop or Laptop","Windows 10","Chrome 118.0.0.0","2048x1152","2048x1006",NA,NA,0,"Task Introduction and Instructions (removed audio and video)",3,"DECFBGAHJI","Passed AC2",NA,"Spreadsheet1",1,"Task Instructions","Screen 9","8nvnao",4,"continue","",5864,5858,5864,5864,5858,5864,1,5864,0,0,NA,"Click To Continue","Continue Button",2,"object-44","Task Instructions",NA,"SUPPRF14083"
"6",1697815861547,"20/10/2023 15:31:01",1697819461547,1,"20/10/2023 17:31:01",147683,3,"task-ybli",NA,32384560,9582054,NA,"complete",NA,"653299da3bfc21d6421e75f1","computer","Desktop or Laptop","Windows 10","Chrome 118.0.0.0","2048x1152","2048x1006",NA,NA,0,"Task Introduction and Instructions (removed audio and video)",3,"DECFBGAHJI","Passed AC2",NA,"Spreadsheet1",NA,"","","",NA,"5","END",NA,NA,NA,NA,NA,NA,0,NA,NA,NA,NA,"","",NA,"","",NA,"SUPPRF14083"
"1",1698404738284,"27/10/2023 11:05:38",1698408338284,1,"27/10/2023 13:05:38",147683,3,"task-ybli",NA,32528213,9626905,NA,"complete",NA,"653b96f7a7133e760517252f","computer","Desktop or Laptop","Windows 10","Chrome 117.0.0.0","1536x864","1536x715",NA,NA,0,"Task Introduction and Instructions (removed audio and video)",3,"EFDGCHBIAJ","Passed AC2",NA,"Spreadsheet1",NA,"","","",NA,"5","BEGIN",NA,NA,NA,NA,NA,NA,0,NA,NA,NA,NA,"","",NA,"","",NA,"SUPPRF10753"
"2",1698404742655,"27/10/2023 11:05:42",1698408342655,1,"27/10/2023 13:05:42",147683,3,"task-ybli",NA,32528213,9626905,NA,"complete",NA,"653b96f7a7133e760517252f","computer","Desktop or Laptop","Windows 10","Chrome 117.0.0.0","1536x864","1536x715",NA,NA,0,"Task Introduction and Instructions (removed audio and video)",3,"EFDGCHBIAJ","Passed AC2",NA,"Spreadsheet1",1,"Task Instructions","Screen 1","anr7sn",1,"continue","",3873.57400009537,3863.927,3873.57400009537,3873.57400009537,3863.927,3873.57400009537,1,3873.57400009537,0,0,NA,"Click To Continue","Continue Button",2,"object-1944","Task Instructions",NA,"SUPPRF10753"
"3",1698404747513,"27/10/2023 11:05:47",1698408347513,1,"27/10/2023 13:05:47",147683,3,"task-ybli",NA,32528213,9626905,NA,"complete",NA,"653b96f7a7133e760517252f","computer","Desktop or Laptop","Windows 10","Chrome 117.0.0.0","1536x864","1536x715",NA,NA,0,"Task Introduction and Instructions (removed audio and video)",3,"EFDGCHBIAJ","Passed AC2",NA,"Spreadsheet1",1,"Task Instructions","Screen 2","ce2tc8",2,"continue","",4868.247,4862.266,4868.247,4868.247,4862.266,4868.247,1,4868.247,0,0,NA,"Click To Continue","Continue Button",2,"object-7","Task Instructions",NA,"SUPPRF10753"
"4",1698404751110,"27/10/2023 11:05:51",1698408351110,1,"27/10/2023 13:05:51",147683,3,"task-ybli",NA,32528213,9626905,NA,"complete",NA,"653b96f7a7133e760517252f","computer","Desktop or Laptop","Windows 10","Chrome 117.0.0.0","1536x864","1536x715",NA,NA,0,"Task Introduction and Instructions (removed audio and video)",3,"EFDGCHBIAJ","Passed AC2",NA,"Spreadsheet1",1,"Task Instructions","Screen 5","spepx9",3,"continue","",3602.78100019073,3596.906,3602.78100019073,3602.78100019073,3596.906,3602.78100019073,1,3602.78100019073,0,0,NA,"Click To Continue","Continue Button",2,"object-9","Task Instructions",NA,"SUPPRF10753"
"5",1698404753752,"27/10/2023 11:05:53",1698408353752,1,"27/10/2023 13:05:53",147683,3,"task-ybli",NA,32528213,9626905,NA,"complete",NA,"653b96f7a7133e760517252f","computer","Desktop or Laptop","Windows 10","Chrome 117.0.0.0","1536x864","1536x715",NA,NA,0,"Task Introduction and Instructions (removed audio and video)",3,"EFDGCHBIAJ","Passed AC2",NA,"Spreadsheet1",1,"Task Instructions","Screen 9","8nvnao",4,"continue","",2647.914,2631.243,2647.914,2647.914,2631.243,2647.914,1,2647.914,0,0,NA,"Click To Continue","Continue Button",2,"object-44","Task Instructions",NA,"SUPPRF10753"
"6",1698404753756,"27/10/2023 11:05:53",1698408353756,1,"27/10/2023 13:05:53",147683,3,"task-ybli",NA,32528213,9626905,NA,"complete",NA,"653b96f7a7133e760517252f","computer","Desktop or Laptop","Windows 10","Chrome 117.0.0.0","1536x864","1536x715",NA,NA,0,"Task Introduction and Instructions (removed audio and video)",3,"EFDGCHBIAJ","Passed AC2",NA,"Spreadsheet1",NA,"","","",NA,"5","END",NA,NA,NA,NA,NA,NA,0,NA,NA,NA,NA,"","",NA,"","",NA,"SUPPRF10753"
"1",1698405228919,"27/10/2023 11:13:48",1698408828919,1,"27/10/2023 13:13:48",147683,3,"task-ybli",NA,32528543,9627004,NA,"rejected - time limit reached",NA,"653b99e4d45d64daca915aa6","computer","Desktop or Laptop","Mac OS 10.15.7","Safari 17.0","834x1194","834x1087",NA,NA,0,"Task Introduction and Instructions (removed audio and video)",3,"IJHAGBFCED","Passed AC2",NA,"Spreadsheet1",NA,"","","",NA,"5","BEGIN",NA,NA,NA,NA,NA,NA,0,NA,NA,NA,NA,"","",NA,"","",NA,"SUPPRF28707"
"2",1698405231891,"27/10/2023 11:13:51",1698408831891,1,"27/10/2023 13:13:51",147683,3,"task-ybli",NA,32528543,9627004,NA,"rejected - time limit reached",NA,"653b99e4d45d64daca915aa6","computer","Desktop or Laptop","Mac OS 10.15.7","Safari 17.0","834x1194","834x1087",NA,NA,0,"Task Introduction and Instructions (removed audio and video)",3,"IJHAGBFCED","Passed AC2",NA,"Spreadsheet1",1,"Task Instructions","Screen 1","anr7sn",1,"continue","",2861,2835,2861,2861,2835,2861,1,2861,0,0,NA,"Click To Continue","Continue Button",2,"object-1944","Task Instructions",NA,"SUPPRF28707"
"3",1698405236373,"27/10/2023 11:13:56",1698408836373,1,"27/10/2023 13:13:56",147683,3,"task-ybli",NA,32528543,9627004,NA,"rejected - time limit reached",NA,"653b99e4d45d64daca915aa6","computer","Desktop or Laptop","Mac OS 10.15.7","Safari 17.0","834x1194","834x1087",NA,NA,0,"Task Introduction and Instructions (removed audio and video)",3,"IJHAGBFCED","Passed AC2",NA,"Spreadsheet1",1,"Task Instructions","Screen 2","ce2tc8",2,"continue","",4501,4468,4501,4501,4468,4501,1,4501,0,0,NA,"Click To Continue","Continue Button",2,"object-7","Task Instructions",NA,"SUPPRF28707"
"4",1698405238991,"27/10/2023 11:13:58",1698408838991,1,"27/10/2023 13:13:58",147683,3,"task-ybli",NA,32528543,9627004,NA,"rejected - time limit reached",NA,"653b99e4d45d64daca915aa6","computer","Desktop or Laptop","Mac OS 10.15.7","Safari 17.0","834x1194","834x1087",NA,NA,0,"Task Introduction and Instructions (removed audio and video)",3,"IJHAGBFCED","Passed AC2",NA,"Spreadsheet1",1,"Task Instructions","Screen 5","spepx9",3,"continue","",2658,2635,2658,2658,2635,2658,1,2658,0,0,NA,"Click To Continue","Continue Button",2,"object-9","Task Instructions",NA,"SUPPRF28707"
"5",1698405241408,"27/10/2023 11:14:01",1698408841408,1,"27/10/2023 13:14:01",147683,3,"task-ybli",NA,32528543,9627004,NA,"rejected - time limit reached",NA,"653b99e4d45d64daca915aa6","computer","Desktop or Laptop","Mac OS 10.15.7","Safari 17.0","834x1194","834x1087",NA,NA,0,"Task Introduction and Instructions (removed audio and video)",3,"IJHAGBFCED","Passed AC2",NA,"Spreadsheet1",1,"Task Instructions","Screen 9","8nvnao",4,"continue","",2435,2401,2435,2435,2401,2435,1,2435,0,0,NA,"Click To Continue","Continue Button",2,"object-44","Task Instructions",NA,"SUPPRF28707"
"6",1698405241416,"27/10/2023 11:14:01",1698408841416,1,"27/10/2023 13:14:01",147683,3,"task-ybli",NA,32528543,9627004,NA,"rejected - time limit reached",NA,"653b99e4d45d64daca915aa6","computer","Desktop or Laptop","Mac OS 10.15.7","Safari 17.0","834x1194","834x1087",NA,NA,0,"Task Introduction and Instructions (removed audio and video)",3,"IJHAGBFCED","Passed AC2",NA,"Spreadsheet1",NA,"","","",NA,"5","END",NA,NA,NA,NA,NA,NA,0,NA,NA,NA,NA,"","",NA,"","",NA,"SUPPRF28707"
"1",1698405450745,"27/10/2023 11:17:30",1698409050745,1,"27/10/2023 13:17:30",147683,3,"task-ybli",NA,32528677,9626957,NA,"complete",NA,"653b98889792ce22f72289d5","computer","Desktop or Laptop","Mac OS 10.15.1","Chrome 108.0.0.0","1440x900","1440x821",NA,NA,0,"Task Introduction and Instructions (removed audio and video)",3,"FGEHDICJBA","Passed AC2",NA,"Spreadsheet1",NA,"","","",NA,"5","BEGIN",NA,NA,NA,NA,NA,NA,0,NA,NA,NA,NA,"","",NA,"","",NA,"SUPPRF08085"
"2",1698405455174,"27/10/2023 11:17:35",1698409055174,1,"27/10/2023 13:17:35",147683,3,"task-ybli",NA,32528677,9626957,NA,"complete",NA,"653b98889792ce22f72289d5","computer","Desktop or Laptop","Mac OS 10.15.1","Chrome 108.0.0.0","1440x900","1440x821",NA,NA,0,"Task Introduction and Instructions (removed audio and video)",3,"FGEHDICJBA","Passed AC2",NA,"Spreadsheet1",1,"Task Instructions","Screen 1","anr7sn",1,"continue","",4283.918,4267.251,4283.918,4283.918,4267.251,4283.918,1,4283.918,0,0,NA,"Click To Continue","Continue Button",2,"object-1944","Task Instructions",NA,"SUPPRF08085"
"3",1698405467578,"27/10/2023 11:17:47",1698409067578,1,"27/10/2023 13:17:47",147683,3,"task-ybli",NA,32528677,9626957,NA,"complete",NA,"653b98889792ce22f72289d5","computer","Desktop or Laptop","Mac OS 10.15.1","Chrome 108.0.0.0","1440x900","1440x821",NA,NA,0,"Task Introduction and Instructions (removed audio and video)",3,"FGEHDICJBA","Passed AC2",NA,"Spreadsheet1",1,"Task Instructions","Screen 2","ce2tc8",2,"continue","",12424.5900000238,12417.68,12424.5900000238,12424.5900000238,12417.68,12424.5900000238,1,12424.5900000238,0,0,NA,"Click To Continue","Continue Button",2,"object-7","Task Instructions",NA,"SUPPRF08085"
"4",1698405470826,"27/10/2023 11:17:50",1698409070826,1,"27/10/2023 13:17:50",147683,3,"task-ybli",NA,32528677,9626957,NA,"complete",NA,"653b98889792ce22f72289d5","computer","Desktop or Laptop","Mac OS 10.15.1","Chrome 108.0.0.0","1440x900","1440x821",NA,NA,0,"Task Introduction and Instructions (removed audio and video)",3,"FGEHDICJBA","Passed AC2",NA,"Spreadsheet1",1,"Task Instructions","Screen 5","spepx9",3,"continue","",3255.61000007153,3250.065,3255.61000007153,3255.61000007153,3250.065,3255.61000007153,1,3255.61000007153,0,0,NA,"Click To Continue","Continue Button",2,"object-9","Task Instructions",NA,"SUPPRF08085"
"5",1698405474888,"27/10/2023 11:17:54",1698409074888,1,"27/10/2023 13:17:54",147683,3,"task-ybli",NA,32528677,9626957,NA,"complete",NA,"653b98889792ce22f72289d5","computer","Desktop or Laptop","Mac OS 10.15.1","Chrome 108.0.0.0","1440x900","1440x821",NA,NA,0,"Task Introduction and Instructions (removed audio and video)",3,"FGEHDICJBA","Passed AC2",NA,"Spreadsheet1",1,"Task Instructions","Screen 9","8nvnao",4,"continue","",4066.748,4050.081,4066.748,4066.748,4050.081,4066.748,1,4066.748,0,0,NA,"Click To Continue","Continue Button",2,"object-44","Task Instructions",NA,"SUPPRF08085"
"6",1698405474897,"27/10/2023 11:17:54",1698409074897,1,"27/10/2023 13:17:54",147683,3,"task-ybli",NA,32528677,9626957,NA,"complete",NA,"653b98889792ce22f72289d5","computer","Desktop or Laptop","Mac OS 10.15.1","Chrome 108.0.0.0","1440x900","1440x821",NA,NA,0,"Task Introduction and Instructions (removed audio and video)",3,"FGEHDICJBA","Passed AC2",NA,"Spreadsheet1",NA,"","","",NA,"5","END",NA,NA,NA,NA,NA,NA,0,NA,NA,NA,NA,"","",NA,"","",NA,"SUPPRF08085"
"1",1698405524280,"27/10/2023 11:18:44",1698409124280,1,"27/10/2023 13:18:44",147683,3,"task-ybli",NA,32528720,9626990,NA,"rejected - time limit reached",NA,"653b99aabc5cab731ac89e80","computer","Desktop or Laptop","Windows 10","Chrome 118.0.0.0","1280x720","1280x585",NA,NA,0,"Task Introduction and Instructions (removed audio and video)",3,"HIGJFAEBDC","Passed AC2",NA,"Spreadsheet1",NA,"","","",NA,"5","BEGIN",NA,NA,NA,NA,NA,NA,0,NA,NA,NA,NA,"","",NA,"","",NA,"SUPPRF09251"
"2",1698405528077,"27/10/2023 11:18:48",1698409128077,1,"27/10/2023 13:18:48",147683,3,"task-ybli",NA,32528720,9626990,NA,"rejected - time limit reached",NA,"653b99aabc5cab731ac89e80","computer","Desktop or Laptop","Windows 10","Chrome 118.0.0.0","1280x720","1280x585",NA,NA,0,"Task Introduction and Instructions (removed audio and video)",3,"HIGJFAEBDC","Passed AC2",NA,"Spreadsheet1",1,"Task Instructions","Screen 1","anr7sn",1,"continue","",3702.82800007153,3699.827,3702.82800007153,3702.82800007153,3699.827,3702.82800007153,1,3702.82800007153,0,0,NA,"Click To Continue","Continue Button",2,"object-1944","Task Instructions",NA,"SUPPRF09251"
"3",1698405537437,"27/10/2023 11:18:57",1698409137437,1,"27/10/2023 13:18:57",147683,3,"task-ybli",NA,32528720,9626990,NA,"rejected - time limit reached",NA,"653b99aabc5cab731ac89e80","computer","Desktop or Laptop","Windows 10","Chrome 118.0.0.0","1280x720","1280x585",NA,NA,0,"Task Introduction and Instructions (removed audio and video)",3,"HIGJFAEBDC","Passed AC2",NA,"Spreadsheet1",1,"Task Instructions","Screen 2","ce2tc8",2,"continue","",9363.701,9349.432,9363.701,9363.701,9349.432,9363.701,1,9363.701,0,0,NA,"Click To Continue","Continue Button",2,"object-7","Task Instructions",NA,"SUPPRF09251"
"4",1698405540732,"27/10/2023 11:19:00",1698409140732,1,"27/10/2023 13:19:00",147683,3,"task-ybli",NA,32528720,9626990,NA,"rejected - time limit reached",NA,"653b99aabc5cab731ac89e80","computer","Desktop or Laptop","Windows 10","Chrome 118.0.0.0","1280x720","1280x585",NA,NA,0,"Task Introduction and Instructions (removed audio and video)",3,"HIGJFAEBDC","Passed AC2",NA,"Spreadsheet1",1,"Task Instructions","Screen 5","spepx9",3,"continue","",3309.36900002384,3299.783,3309.36900002384,3309.36900002384,3299.783,3309.36900002384,1,3309.36900002384,0,0,NA,"Click To Continue","Continue Button",2,"object-9","Task Instructions",NA,"SUPPRF09251"
"5",1698405543931,"27/10/2023 11:19:03",1698409143931,1,"27/10/2023 13:19:03",147683,3,"task-ybli",NA,32528720,9626990,NA,"rejected - time limit reached",NA,"653b99aabc5cab731ac89e80","computer","Desktop or Laptop","Windows 10","Chrome 118.0.0.0","1280x720","1280x585",NA,NA,0,"Task Introduction and Instructions (removed audio and video)",3,"HIGJFAEBDC","Passed AC2",NA,"Spreadsheet1",1,"Task Instructions","Screen 9","8nvnao",4,"continue","",3208.58600002384,3199.811,3208.58600002384,3208.58600002384,3199.811,3208.58600002384,1,3208.58600002384,0,0,NA,"Click To Continue","Continue Button",2,"object-44","Task Instructions",NA,"SUPPRF09251"
"6",1698405543934,"27/10/2023 11:19:03",1698409143934,1,"27/10/2023 13:19:03",147683,3,"task-ybli",NA,32528720,9626990,NA,"rejected - time limit reached",NA,"653b99aabc5cab731ac89e80","computer","Desktop or Laptop","Windows 10","Chrome 118.0.0.0","1280x720","1280x585",NA,NA,0,"Task Introduction and Instructions (removed audio and video)",3,"HIGJFAEBDC","Passed AC2",NA,"Spreadsheet1",NA,"","","",NA,"5","END",NA,NA,NA,NA,NA,NA,0,NA,NA,NA,NA,"","",NA,"","",NA,"SUPPRF09251"
"1",1698405614903,"27/10/2023 11:20:14",1698409214903,1,"27/10/2023 13:20:14",147683,3,"task-ybli",NA,32528788,9627011,NA,"complete",NA,"653b9a1431eca6ab956f7067","computer","Desktop or Laptop","Windows 10","Chrome 117.0.0.0","1536x864","1536x739",NA,NA,0,"Task Introduction and Instructions (removed audio and video)",3,"JAIBHCGDFE","Passed AC2",NA,"Spreadsheet1",NA,"","","",NA,"5","BEGIN",NA,NA,NA,NA,NA,NA,0,NA,NA,NA,NA,"","",NA,"","",NA,"SUPPRF20625"
"2",1698405618406,"27/10/2023 11:20:18",1698409218406,1,"27/10/2023 13:20:18",147683,3,"task-ybli",NA,32528788,9627011,NA,"complete",NA,"653b9a1431eca6ab956f7067","computer","Desktop or Laptop","Windows 10","Chrome 117.0.0.0","1536x864","1536x739",NA,NA,0,"Task Introduction and Instructions (removed audio and video)",3,"JAIBHCGDFE","Passed AC2",NA,"Spreadsheet1",1,"Task Instructions","Screen 1","anr7sn",1,"continue","",3314.09099990463,3299.945,3314.09099990463,3314.09099990463,3299.945,3314.09099990463,1,3314.09099990463,0,0,NA,"Click To Continue","Continue Button",2,"object-1944","Task Instructions",NA,"SUPPRF20625"
"3",1698405622567,"27/10/2023 11:20:22",1698409222567,1,"27/10/2023 13:20:22",147683,3,"task-ybli",NA,32528788,9627011,NA,"complete",NA,"653b9a1431eca6ab956f7067","computer","Desktop or Laptop","Windows 10","Chrome 117.0.0.0","1536x864","1536x739",NA,NA,0,"Task Introduction and Instructions (removed audio and video)",3,"JAIBHCGDFE","Passed AC2",NA,"Spreadsheet1",1,"Task Instructions","Screen 2","ce2tc8",2,"continue","",4175.94599961853,4166.598,4175.94599961853,4175.94599961853,4166.598,4175.94599961853,1,4175.94599961853,0,0,NA,"Click To Continue","Continue Button",2,"object-7","Task Instructions",NA,"SUPPRF20625"
"4",1698405625869,"27/10/2023 11:20:25",1698409225869,1,"27/10/2023 13:20:25",147683,3,"task-ybli",NA,32528788,9627011,NA,"complete",NA,"653b9a1431eca6ab956f7067","computer","Desktop or Laptop","Windows 10","Chrome 117.0.0.0","1536x864","1536x739",NA,NA,0,"Task Introduction and Instructions (removed audio and video)",3,"JAIBHCGDFE","Passed AC2",NA,"Spreadsheet1",1,"Task Instructions","Screen 5","spepx9",3,"continue","",3312.2479997139,3299.94,3312.2479997139,3312.2479997139,3299.94,3312.2479997139,1,3312.2479997139,0,0,NA,"Click To Continue","Continue Button",2,"object-9","Task Instructions",NA,"SUPPRF20625"
"5",1698405631889,"27/10/2023 11:20:31",1698409231889,1,"27/10/2023 13:20:31",147683,3,"task-ybli",NA,32528788,9627011,NA,"complete",NA,"653b9a1431eca6ab956f7067","computer","Desktop or Laptop","Windows 10","Chrome 117.0.0.0","1536x864","1536x739",NA,NA,0,"Task Introduction and Instructions (removed audio and video)",3,"JAIBHCGDFE","Passed AC2",NA,"Spreadsheet1",1,"Task Instructions","Screen 9","8nvnao",4,"continue","",6032.10799990463,6016.538,6032.10799990463,6032.10799990463,6016.538,6032.10799990463,1,6032.10799990463,0,0,NA,"Click To Continue","Continue Button",2,"object-44","Task Instructions",NA,"SUPPRF20625"
"6",1698405631898,"27/10/2023 11:20:31",1698409231898,1,"27/10/2023 13:20:31",147683,3,"task-ybli",NA,32528788,9627011,NA,"complete",NA,"653b9a1431eca6ab956f7067","computer","Desktop or Laptop","Windows 10","Chrome 117.0.0.0","1536x864","1536x739",NA,NA,0,"Task Introduction and Instructions (removed audio and video)",3,"JAIBHCGDFE","Passed AC2",NA,"Spreadsheet1",NA,"","","",NA,"5","END",NA,NA,NA,NA,NA,NA,0,NA,NA,NA,NA,"","",NA,"","",NA,"SUPPRF20625"
"1",1698405640821,"27/10/2023 11:20:40",1698409240821,1,"27/10/2023 13:20:40",147683,3,"task-ybli",NA,32528805,9627036,NA,"complete",NA,"653b9b099570bcbdf8f677b6","computer","Desktop or Laptop","Windows 10","Chrome 118.0.0.0","1920x1080","1920x931",NA,NA,0,"Task Introduction and Instructions (removed audio and video)",3,"ABJCIDHEGF","Passed AC2",NA,"Spreadsheet1",NA,"","","",NA,"5","BEGIN",NA,NA,NA,NA,NA,NA,0,NA,NA,NA,NA,"","",NA,"","",NA,"SUPPRF48951"
"2",1698405643738,"27/10/2023 11:20:43",1698409243738,1,"27/10/2023 13:20:43",147683,3,"task-ybli",NA,32528805,9627036,NA,"complete",NA,"653b9b099570bcbdf8f677b6","computer","Desktop or Laptop","Windows 10","Chrome 118.0.0.0","1920x1080","1920x931",NA,NA,0,"Task Introduction and Instructions (removed audio and video)",3,"ABJCIDHEGF","Passed AC2",NA,"Spreadsheet1",1,"Task Instructions","Screen 1","anr7sn",1,"continue","",2764.927,2750.029,2764.927,2764.927,2750.029,2764.927,1,2764.927,0,0,NA,"Click To Continue","Continue Button",2,"object-1944","Task Instructions",NA,"SUPPRF48951"
"3",1698405650553,"27/10/2023 11:20:50",1698409250553,1,"27/10/2023 13:20:50",147683,3,"task-ybli",NA,32528805,9627036,NA,"complete",NA,"653b9b099570bcbdf8f677b6","computer","Desktop or Laptop","Windows 10","Chrome 118.0.0.0","1920x1080","1920x931",NA,NA,0,"Task Introduction and Instructions (removed audio and video)",3,"ABJCIDHEGF","Passed AC2",NA,"Spreadsheet1",1,"Task Instructions","Screen 2","ce2tc8",2,"continue","",6829.99800000894,6816.825,6829.99800000894,6829.99800000894,6816.825,6829.99800000894,1,6829.99800000894,0,0,NA,"Click To Continue","Continue Button",2,"object-7","Task Instructions",NA,"SUPPRF48951"
"4",1698405653374,"27/10/2023 11:20:53",1698409253374,1,"27/10/2023 13:20:53",147683,3,"task-ybli",NA,32528805,9627036,NA,"complete",NA,"653b9b099570bcbdf8f677b6","computer","Desktop or Laptop","Windows 10","Chrome 118.0.0.0","1920x1080","1920x931",NA,NA,0,"Task Introduction and Instructions (removed audio and video)",3,"ABJCIDHEGF","Passed AC2",NA,"Spreadsheet1",1,"Task Instructions","Screen 5","spepx9",3,"continue","",2833.394,2816.698,2833.394,2833.394,2816.698,2833.394,1,2833.394,0,0,NA,"Click To Continue","Continue Button",2,"object-9","Task Instructions",NA,"SUPPRF48951"
"5",1698405655978,"27/10/2023 11:20:55",1698409255978,1,"27/10/2023 13:20:55",147683,3,"task-ybli",NA,32528805,9627036,NA,"complete",NA,"653b9b099570bcbdf8f677b6","computer","Desktop or Laptop","Windows 10","Chrome 118.0.0.0","1920x1080","1920x931",NA,NA,0,"Task Introduction and Instructions (removed audio and video)",3,"ABJCIDHEGF","Passed AC2",NA,"Spreadsheet1",1,"Task Instructions","Screen 9","8nvnao",4,"continue","",2620.97500000894,2616.641,2620.97500000894,2620.97500000894,2616.641,2620.97500000894,1,2620.97500000894,0,0,NA,"Click To Continue","Continue Button",2,"object-44","Task Instructions",NA,"SUPPRF48951"
"6",1698405655979,"27/10/2023 11:20:55",1698409255979,1,"27/10/2023 13:20:55",147683,3,"task-ybli",NA,32528805,9627036,NA,"complete",NA,"653b9b099570bcbdf8f677b6","computer","Desktop or Laptop","Windows 10","Chrome 118.0.0.0","1920x1080","1920x931",NA,NA,0,"Task Introduction and Instructions (removed audio and video)",3,"ABJCIDHEGF","Passed AC2",NA,"Spreadsheet1",NA,"","","",NA,"5","END",NA,NA,NA,NA,NA,NA,0,NA,NA,NA,NA,"","",NA,"","",NA,"SUPPRF48951"
"1",1698405763710,"27/10/2023 11:22:43",1698409363710,1,"27/10/2023 13:22:43",147683,3,"task-ybli",NA,32528878,9626978,NA,"complete",NA,"653b99151d74d8d5110a1af1","computer","Desktop or Laptop","Windows 10","Chrome 118.0.0.0","1920x1080","958x921",NA,NA,0,"Task Introduction and Instructions (removed audio and video)",3,"GHFIEJDACB","Passed AC2",NA,"Spreadsheet1",NA,"","","",NA,"5","BEGIN",NA,NA,NA,NA,NA,NA,0,NA,NA,NA,NA,"","",NA,"","",NA,"SUPPRF69892"
"2",1698405766766,"27/10/2023 11:22:46",1698409366766,1,"27/10/2023 13:22:46",147683,3,"task-ybli",NA,32528878,9626978,NA,"complete",NA,"653b99151d74d8d5110a1af1","computer","Desktop or Laptop","Windows 10","Chrome 118.0.0.0","1920x1080","958x921",NA,NA,0,"Task Introduction and Instructions (removed audio and video)",3,"GHFIEJDACB","Passed AC2",NA,"Spreadsheet1",1,"Task Instructions","Screen 1","anr7sn",1,"continue","",3002.70999999972,3000.058,3002.70999999972,3002.70999999972,3000.058,3002.70999999972,1,3002.70999999972,0,0,NA,"Click To Continue","Continue Button",2,"object-1944","Task Instructions",NA,"SUPPRF69892"
"3",1698405773917,"27/10/2023 11:22:53",1698409373917,1,"27/10/2023 13:22:53",147683,3,"task-ybli",NA,32528878,9626978,NA,"complete",NA,"653b99151d74d8d5110a1af1","computer","Desktop or Laptop","Windows 10","Chrome 118.0.0.0","1920x1080","958x921",NA,NA,0,"Task Introduction and Instructions (removed audio and video)",3,"GHFIEJDACB","Passed AC2",NA,"Spreadsheet1",1,"Task Instructions","Screen 2","ce2tc8",2,"continue","",7154.65199999972,7148.633,7154.65199999972,7154.65199999972,7148.633,7154.65199999972,1,7154.65199999972,0,0,NA,"Click To Continue","Continue Button",2,"object-7","Task Instructions",NA,"SUPPRF69892"
"4",1698405777603,"27/10/2023 11:22:57",1698409377603,1,"27/10/2023 13:22:57",147683,3,"task-ybli",NA,32528878,9626978,NA,"complete",NA,"653b99151d74d8d5110a1af1","computer","Desktop or Laptop","Windows 10","Chrome 118.0.0.0","1920x1080","1920x931",NA,NA,0,"Task Introduction and Instructions (removed audio and video)",3,"GHFIEJDACB","Passed AC2",NA,"Spreadsheet1",1,"Task Instructions","Screen 5","spepx9",3,"continue","",3691.819,3689.497,3691.819,3691.819,3689.497,3691.819,1,3691.819,0,0,NA,"Click To Continue","Continue Button",2,"object-9","Task Instructions",NA,"SUPPRF69892"
"5",1698405780303,"27/10/2023 11:23:00",1698409380303,1,"27/10/2023 13:23:00",147683,3,"task-ybli",NA,32528878,9626978,NA,"complete",NA,"653b99151d74d8d5110a1af1","computer","Desktop or Laptop","Windows 10","Chrome 118.0.0.0","1920x1080","1920x931",NA,NA,0,"Task Introduction and Instructions (removed audio and video)",3,"GHFIEJDACB","Passed AC2",NA,"Spreadsheet1",1,"Task Instructions","Screen 9","8nvnao",4,"continue","",2702.12199999981,2689.263,2702.12199999981,2702.12199999981,2689.263,2702.12199999981,1,2702.12199999981,0,0,NA,"Click To Continue","Continue Button",2,"object-44","Task Instructions",NA,"SUPPRF69892"
"6",1698405780307,"27/10/2023 11:23:00",1698409380307,1,"27/10/2023 13:23:00",147683,3,"task-ybli",NA,32528878,9626978,NA,"complete",NA,"653b99151d74d8d5110a1af1","computer","Desktop or Laptop","Windows 10","Chrome 118.0.0.0","1920x1080","1920x931",NA,NA,0,"Task Introduction and Instructions (removed audio and video)",3,"GHFIEJDACB","Passed AC2",NA,"Spreadsheet1",NA,"","","",NA,"5","END",NA,NA,NA,NA,NA,NA,0,NA,NA,NA,NA,"","",NA,"","",NA,"SUPPRF69892"
"1",1698405886047,"27/10/2023 11:24:46",1698409486047,1,"27/10/2023 13:24:46",147683,3,"task-ybli",NA,32528948,9627067,NA,"complete",NA,"653b9bf465a41b0a85fdbf9a","computer","Desktop or Laptop","Windows 10","Chrome 118.0.0.0","1536x864","1536x707",NA,NA,0,"Task Introduction and Instructions (removed audio and video)",3,"DECFBGAHJI","Passed AC2",NA,"Spreadsheet1",NA,"","","",NA,"5","BEGIN",NA,NA,NA,NA,NA,NA,0,NA,NA,NA,NA,"","",NA,"","",NA,"SUPPRF06979"
"2",1698405889317,"27/10/2023 11:24:49",1698409489317,1,"27/10/2023 13:24:49",147683,3,"task-ybli",NA,32528948,9627067,NA,"complete",NA,"653b9bf465a41b0a85fdbf9a","computer","Desktop or Laptop","Windows 10","Chrome 118.0.0.0","1536x864","1536x707",NA,NA,0,"Task Introduction and Instructions (removed audio and video)",3,"DECFBGAHJI","Passed AC2",NA,"Spreadsheet1",1,"Task Instructions","Screen 1","anr7sn",1,"continue","",3180.23499990463,3164.016,3180.23499990463,3180.23499990463,3164.016,3180.23499990463,1,3180.23499990463,0,0,NA,"Click To Continue","Continue Button",2,"object-1944","Task Instructions",NA,"SUPPRF06979"
"3",1698405898268,"27/10/2023 11:24:58",1698409498268,1,"27/10/2023 13:24:58",147683,3,"task-ybli",NA,32528948,9627067,NA,"complete",NA,"653b9bf465a41b0a85fdbf9a","computer","Desktop or Laptop","Windows 10","Chrome 118.0.0.0","1536x864","1536x707",NA,NA,0,"Task Introduction and Instructions (removed audio and video)",3,"DECFBGAHJI","Passed AC2",NA,"Spreadsheet1",1,"Task Instructions","Screen 2","ce2tc8",2,"continue","",8967.71899990463,8958.287,8967.71899990463,8967.71899990463,8958.287,8967.71899990463,1,8967.71899990463,0,0,NA,"Click To Continue","Continue Button",2,"object-7","Task Instructions",NA,"SUPPRF06979"
"4",1698405901236,"27/10/2023 11:25:01",1698409501236,1,"27/10/2023 13:25:01",147683,3,"task-ybli",NA,32528948,9627067,NA,"complete",NA,"653b9bf465a41b0a85fdbf9a","computer","Desktop or Laptop","Windows 10","Chrome 118.0.0.0","1536x864","1536x707",NA,NA,0,"Task Introduction and Instructions (removed audio and video)",3,"DECFBGAHJI","Passed AC2",NA,"Spreadsheet1",1,"Task Instructions","Screen 5","spepx9",3,"continue","",2977.73199985695,2963.884,2977.73199985695,2977.73199985695,2963.884,2977.73199985695,1,2977.73199985695,0,0,NA,"Click To Continue","Continue Button",2,"object-9","Task Instructions",NA,"SUPPRF06979"
"5",1698405904115,"27/10/2023 11:25:04",1698409504115,1,"27/10/2023 13:25:04",147683,3,"task-ybli",NA,32528948,9627067,NA,"complete",NA,"653b9bf465a41b0a85fdbf9a","computer","Desktop or Laptop","Windows 10","Chrome 118.0.0.0","1536x864","1536x707",NA,NA,0,"Task Introduction and Instructions (removed audio and video)",3,"DECFBGAHJI","Passed AC2",NA,"Spreadsheet1",1,"Task Instructions","Screen 9","8nvnao",4,"continue","",2893.34799985695,2880.648,2893.34799985695,2893.34799985695,2880.648,2893.34799985695,1,2893.34799985695,0,0,NA,"Click To Continue","Continue Button",2,"object-44","Task Instructions",NA,"SUPPRF06979"
"6",1698405904118,"27/10/2023 11:25:04",1698409504118,1,"27/10/2023 13:25:04",147683,3,"task-ybli",NA,32528948,9627067,NA,"complete",NA,"653b9bf465a41b0a85fdbf9a","computer","Desktop or Laptop","Windows 10","Chrome 118.0.0.0","1536x864","1536x707",NA,NA,0,"Task Introduction and Instructions (removed audio and video)",3,"DECFBGAHJI","Passed AC2",NA,"Spreadsheet1",NA,"","","",NA,"5","END",NA,NA,NA,NA,NA,NA,0,NA,NA,NA,NA,"","",NA,"","",NA,"SUPPRF06979"
"1",1698405986276,"27/10/2023 11:26:26",1698409586276,1,"27/10/2023 13:26:26",147683,3,"task-ybli",NA,32529023,9627055,NA,"complete",NA,"653b9b91fc6155220cdbeeff","computer","Desktop or Laptop","Windows 10","Chrome 118.0.0.0","1366x768","1366x657",NA,NA,0,"Task Introduction and Instructions (removed audio and video)",3,"CDBEAFJGIH","Passed AC2",NA,"Spreadsheet1",NA,"","","",NA,"5","BEGIN",NA,NA,NA,NA,NA,NA,0,NA,NA,NA,NA,"","",NA,"","",NA,"SUPPRF59066"
"2",1698405991057,"27/10/2023 11:26:31",1698409591057,1,"27/10/2023 13:26:31",147683,3,"task-ybli",NA,32529023,9627055,NA,"complete",NA,"653b9b91fc6155220cdbeeff","computer","Desktop or Laptop","Windows 10","Chrome 118.0.0.0","1366x768","1366x657",NA,NA,0,"Task Introduction and Instructions (removed audio and video)",3,"CDBEAFJGIH","Passed AC2",NA,"Spreadsheet1",1,"Task Instructions","Screen 1","anr7sn",1,"continue","",4682.971,4666.394,4682.971,4682.971,4666.394,4682.971,1,4682.971,0,0,NA,"Click To Continue","Continue Button",2,"object-1944","Task Instructions",NA,"SUPPRF59066"
"3",1698406001381,"27/10/2023 11:26:41",1698409601381,1,"27/10/2023 13:26:41",147683,3,"task-ybli",NA,32529023,9627055,NA,"complete",NA,"653b9b91fc6155220cdbeeff","computer","Desktop or Laptop","Windows 10","Chrome 118.0.0.0","1366x768","1366x657",NA,NA,0,"Task Introduction and Instructions (removed audio and video)",3,"CDBEAFJGIH","Passed AC2",NA,"Spreadsheet1",1,"Task Instructions","Screen 2","ce2tc8",2,"continue","",10343.9230000477,10332.993,10343.9230000477,10343.9230000477,10332.993,10343.9230000477,1,10343.9230000477,0,0,NA,"Click To Continue","Continue Button",2,"object-7","Task Instructions",NA,"SUPPRF59066"
"4",1698406005176,"27/10/2023 11:26:45",1698409605176,1,"27/10/2023 13:26:45",147683,3,"task-ybli",NA,32529023,9627055,NA,"complete",NA,"653b9b91fc6155220cdbeeff","computer","Desktop or Laptop","Windows 10","Chrome 118.0.0.0","1366x768","1366x657",NA,NA,0,"Task Introduction and Instructions (removed audio and video)",3,"CDBEAFJGIH","Passed AC2",NA,"Spreadsheet1",1,"Task Instructions","Screen 5","spepx9",3,"continue","",3806.52999995232,3799.813,3806.52999995232,3806.52999995232,3799.813,3806.52999995232,1,3806.52999995232,0,0,NA,"Click To Continue","Continue Button",2,"object-9","Task Instructions",NA,"SUPPRF59066"
"5",1698406008239,"27/10/2023 11:26:48",1698409608239,1,"27/10/2023 13:26:48",147683,3,"task-ybli",NA,32529023,9627055,NA,"complete",NA,"653b9b91fc6155220cdbeeff","computer","Desktop or Laptop","Windows 10","Chrome 118.0.0.0","1366x768","1366x657",NA,NA,0,"Task Introduction and Instructions (removed audio and video)",3,"CDBEAFJGIH","Passed AC2",NA,"Spreadsheet1",1,"Task Instructions","Screen 9","8nvnao",4,"continue","",3066.527,3049.86,3066.527,3066.527,3049.86,3066.527,1,3066.527,0,0,NA,"Click To Continue","Continue Button",2,"object-44","Task Instructions",NA,"SUPPRF59066"
"6",1698406008247,"27/10/2023 11:26:48",1698409608247,1,"27/10/2023 13:26:48",147683,3,"task-ybli",NA,32529023,9627055,NA,"complete",NA,"653b9b91fc6155220cdbeeff","computer","Desktop or Laptop","Windows 10","Chrome 118.0.0.0","1366x768","1366x657",NA,NA,0,"Task Introduction and Instructions (removed audio and video)",3,"CDBEAFJGIH","Passed AC2",NA,"Spreadsheet1",NA,"","","",NA,"5","END",NA,NA,NA,NA,NA,NA,0,NA,NA,NA,NA,"","",NA,"","",NA,"SUPPRF59066"
"1",1698406031532,"27/10/2023 11:27:11",1698409631532,1,"27/10/2023 13:27:11",147683,3,"task-ybli",NA,32529048,9627085,NA,"complete",NA,"653b9c97254098f975d05ec8","computer","Desktop or Laptop","Windows 10","Chrome 118.0.0.0","1536x864","1707x795",NA,NA,0,"Task Introduction and Instructions (removed audio and video)",3,"FGEHDICJBA","Passed AC2",NA,"Spreadsheet1",NA,"","","",NA,"5","BEGIN",NA,NA,NA,NA,NA,NA,0,NA,NA,NA,NA,"","",NA,"","",NA,"SUPPRF09587"
"2",1698406034824,"27/10/2023 11:27:14",1698409634824,1,"27/10/2023 13:27:14",147683,3,"task-ybli",NA,32529048,9627085,NA,"complete",NA,"653b9c97254098f975d05ec8","computer","Desktop or Laptop","Windows 10","Chrome 118.0.0.0","1536x864","1707x795",NA,NA,0,"Task Introduction and Instructions (removed audio and video)",3,"FGEHDICJBA","Passed AC2",NA,"Spreadsheet1",1,"Task Instructions","Screen 1","anr7sn",1,"continue","",3252.36299996424,3239.369,3252.36299996424,3252.36299996424,3239.369,3252.36299996424,1,3252.36299996424,0,0,NA,"Click To Continue","Continue Button",2,"object-1944","Task Instructions",NA,"SUPPRF09587"
"3",1698406041184,"27/10/2023 11:27:21",1698409641184,1,"27/10/2023 13:27:21",147683,3,"task-ybli",NA,32529048,9627085,NA,"complete",NA,"653b9c97254098f975d05ec8","computer","Desktop or Laptop","Windows 10","Chrome 118.0.0.0","1536x864","1707x795",NA,NA,0,"Task Introduction and Instructions (removed audio and video)",3,"FGEHDICJBA","Passed AC2",NA,"Spreadsheet1",1,"Task Instructions","Screen 2","ce2tc8",2,"continue","",6373.19400001192,6363.084,6373.19400001192,6373.19400001192,6363.084,6373.19400001192,1,6373.19400001192,0,0,NA,"Click To Continue","Continue Button",2,"object-7","Task Instructions",NA,"SUPPRF09587"
"4",1698406043911,"27/10/2023 11:27:23",1698409643911,1,"27/10/2023 13:27:23",147683,3,"task-ybli",NA,32529048,9627085,NA,"complete",NA,"653b9c97254098f975d05ec8","computer","Desktop or Laptop","Windows 10","Chrome 118.0.0.0","1536x864","1707x795",NA,NA,0,"Task Introduction and Instructions (removed audio and video)",3,"FGEHDICJBA","Passed AC2",NA,"Spreadsheet1",1,"Task Instructions","Screen 5","spepx9",3,"continue","",2737.81,2724.473,2737.81,2737.81,2724.473,2737.81,1,2737.81,0,0,NA,"Click To Continue","Continue Button",2,"object-9","Task Instructions",NA,"SUPPRF09587"
