"Event.Index","UTC.Timestamp","UTC.Date.and.Time","Local.Timestamp","Local.Timezone","Local.Date.and.Time","Experiment.ID","Experiment.Version","Tree.Node.Key","Repeat.Key","Schedule.ID","Participant.Private.ID","Participant.Starting.Group","Participant.Status","Participant.Completion.Code","Participant.External.Session.ID","Participant.Device.Type","Participant.Device","Participant.OS","Participant.Browser","Participant.Monitor.Size","Participant.Viewport.Size","Checkpoint","Room.ID","Room.Order","Task.Name","Task.Version","order.ot79","branch.g31k","branch.5gtn","Spreadsheet","Trial.Number","Display","Screen","Screen.ID","Screen.Counter","Response.Type","Response","Onset.Time","Clock.Time","Reaction.Time","Absolute.Onset.Time","Absolute.Clock.Time","Absolute.Reaction.Time","Correct","Response.Onset","Response.Duration","Proportion","Tag","Component.Name","Object.Name","Object.Number","Object.ID","Spreadsheet..display","Manipulation..Spreadsheet","Random_ID"
"1",1697640437216,"18/10/2023 14:47:17",1697644037216,1,"18/10/2023 16:47:17",147683,3,"task-gjqt",NA,32336482,9561687,NA,"complete",NA,"652ffadb010422e0d379e4ca","computer","Desktop or Laptop","Windows 10","Chrome 117.0.0.0","1920x1080","1920x931",NA,NA,0,"BIQ (Charlotte)",3,"BCADJEIFHG","Passed AC2",NA,"Spreadsheet1",NA,"","","",NA,"5","BEGIN",NA,NA,NA,NA,NA,NA,0,NA,NA,NA,NA,"","",NA,"","",NA,"SUPPRF37681"
"2",1697640484847,"18/10/2023 14:48:04",1697644084847,1,"18/10/2023 16:48:04",147683,3,"task-gjqt",NA,32336482,9561687,NA,"complete",NA,"652ffadb010422e0d379e4ca","computer","Desktop or Laptop","Windows 10","Chrome 117.0.0.0","1920x1080","1920x931",NA,NA,0,"BIQ (Charlotte)",3,"BCADJEIFHG","Passed AC2",NA,"Spreadsheet1",1,"BIQ","Screen 1","9dh6eq",1,"continue","",47647.1840000477,47631.61,47647.1840000477,47647.1840000477,47631.61,47647.1840000477,1,47647.1840000477,0,0,NA,"Click To Continue","Continue Button",23,"object-48","BIQ",NA,"SUPPRF37681"
"3",1697640484850,"18/10/2023 14:48:04",1697644084850,1,"18/10/2023 16:48:04",147683,3,"task-gjqt",NA,32336482,9561687,NA,"complete",NA,"652ffadb010422e0d379e4ca","computer","Desktop or Laptop","Windows 10","Chrome 117.0.0.0","1920x1080","1920x931",NA,NA,0,"BIQ (Charlotte)",3,"BCADJEIFHG","Passed AC2",NA,"Spreadsheet1",1,"BIQ","Screen 1","9dh6eq",1,"response","6",39615.239,47631.61,47648.333,39615.239,47631.61,47648.333,1,39615.239,8033.094,0,NA,"Rating Scale","Rating Scale",3,"object-5","BIQ",NA,"SUPPRF37681"
"4",1697640484851,"18/10/2023 14:48:04",1697644084851,1,"18/10/2023 16:48:04",147683,3,"task-gjqt",NA,32336482,9561687,NA,"complete",NA,"652ffadb010422e0d379e4ca","computer","Desktop or Laptop","Windows 10","Chrome 117.0.0.0","1920x1080","1920x931",NA,NA,0,"BIQ (Charlotte)",3,"BCADJEIFHG","Passed AC2",NA,"Spreadsheet1",1,"BIQ","Screen 1","9dh6eq",1,"response","3",43998.371,47631.61,47648.333,43998.371,47631.61,47648.333,1,43998.371,3649.96199999999,0,NA,"Rating Scale","Rating Scale",10,"object-18","BIQ",NA,"SUPPRF37681"
"5",1697640484852,"18/10/2023 14:48:04",1697644084852,1,"18/10/2023 16:48:04",147683,3,"task-gjqt",NA,32336482,9561687,NA,"complete",NA,"652ffadb010422e0d379e4ca","computer","Desktop or Laptop","Windows 10","Chrome 117.0.0.0","1920x1080","1920x931",NA,NA,0,"BIQ (Charlotte)",3,"BCADJEIFHG","Passed AC2",NA,"Spreadsheet1",1,"BIQ","Screen 1","9dh6eq",1,"response","4",46598.278,47631.61,47648.333,46598.278,47631.61,47648.333,1,46598.278,1050.05499999999,0,NA,"Rating Scale","Rating Scale",17,"object-80","BIQ",NA,"SUPPRF37681"
"6",1697640497159,"18/10/2023 14:48:17",1697644097159,1,"18/10/2023 16:48:17",147683,3,"task-gjqt",NA,32336482,9561687,NA,"complete",NA,"652ffadb010422e0d379e4ca","computer","Desktop or Laptop","Windows 10","Chrome 117.0.0.0","1920x1080","1920x931",NA,NA,0,"BIQ (Charlotte)",3,"BCADJEIFHG","Passed AC2",NA,"Spreadsheet1",1,"BIQ","Screen 2","o21mwi",2,"continue","",12329.6739999523,12316.209,12329.6739999523,12329.6739999523,12316.209,12329.6739999523,1,12329.6739999523,0,0,NA,"Click To Continue","Continue Button",22,"object-50","BIQ",NA,"SUPPRF37681"
"7",1697640497163,"18/10/2023 14:48:17",1697644097163,1,"18/10/2023 16:48:17",147683,3,"task-gjqt",NA,32336482,9561687,NA,"complete",NA,"652ffadb010422e0d379e4ca","computer","Desktop or Laptop","Windows 10","Chrome 117.0.0.0","1920x1080","1920x931",NA,NA,0,"BIQ (Charlotte)",3,"BCADJEIFHG","Passed AC2",NA,"Spreadsheet1",1,"BIQ","Screen 2","o21mwi",2,"response","3",5899.76,12316.209,12332.874,5899.76,12316.209,12332.874,1,5899.76,6433.114,0,NA,"Rating Scale","Rating Scale",2,"object-259","BIQ",NA,"SUPPRF37681"
"8",1697640497164,"18/10/2023 14:48:17",1697644097164,1,"18/10/2023 16:48:17",147683,3,"task-gjqt",NA,32336482,9561687,NA,"complete",NA,"652ffadb010422e0d379e4ca","computer","Desktop or Laptop","Windows 10","Chrome 117.0.0.0","1920x1080","1920x931",NA,NA,0,"BIQ (Charlotte)",3,"BCADJEIFHG","Passed AC2",NA,"Spreadsheet1",1,"BIQ","Screen 2","o21mwi",2,"response","4",8349.673,12316.209,12332.878,8349.673,12316.209,12332.878,1,8349.673,3983.205,0,NA,"Rating Scale","Rating Scale",9,"object-36","BIQ",NA,"SUPPRF37681"
"9",1697640497164,"18/10/2023 14:48:17",1697644097164,1,"18/10/2023 16:48:17",147683,3,"task-gjqt",NA,32336482,9561687,NA,"complete",NA,"652ffadb010422e0d379e4ca","computer","Desktop or Laptop","Windows 10","Chrome 117.0.0.0","1920x1080","1920x931",NA,NA,0,"BIQ (Charlotte)",3,"BCADJEIFHG","Passed AC2",NA,"Spreadsheet1",1,"BIQ","Screen 2","o21mwi",2,"response","4",11516.22,12316.209,12332.878,11516.22,12316.209,12332.878,1,11516.22,816.658000000003,0,NA,"Rating Scale","Rating Scale",16,"object-86","BIQ",NA,"SUPPRF37681"
"10",1697640504847,"18/10/2023 14:48:24",1697644104847,1,"18/10/2023 16:48:24",147683,3,"task-gjqt",NA,32336482,9561687,NA,"complete",NA,"652ffadb010422e0d379e4ca","computer","Desktop or Laptop","Windows 10","Chrome 117.0.0.0","1920x1080","1920x931",NA,NA,0,"BIQ (Charlotte)",3,"BCADJEIFHG","Passed AC2",NA,"Spreadsheet1",1,"BIQ","Screen 3","iz3the",3,"continue","",7701.36500004768,7699.65900000001,7701.36500004768,7701.36500004768,7699.65900000001,7701.36500004768,1,7701.36500004768,0,0,NA,"Click To Continue","Continue Button",22,"object-73","BIQ",NA,"SUPPRF37681"
"11",1697640504848,"18/10/2023 14:48:24",1697644104848,1,"18/10/2023 16:48:24",147683,3,"task-gjqt",NA,32336482,9561687,NA,"complete",NA,"652ffadb010422e0d379e4ca","computer","Desktop or Laptop","Windows 10","Chrome 117.0.0.0","1920x1080","1920x931",NA,NA,0,"BIQ (Charlotte)",3,"BCADJEIFHG","Passed AC2",NA,"Spreadsheet1",1,"BIQ","Screen 3","iz3the",3,"response","2",3583.19,7699.65900000001,7702.26500002384,3583.19,7699.65900000001,7702.26500002384,1,3583.19,4119.07500002384,0,NA,"Rating Scale","Rating Scale",2,"object-53","BIQ",NA,"SUPPRF37681"
"12",1697640504849,"18/10/2023 14:48:24",1697644104849,1,"18/10/2023 16:48:24",147683,3,"task-gjqt",NA,32336482,9561687,NA,"complete",NA,"652ffadb010422e0d379e4ca","computer","Desktop or Laptop","Windows 10","Chrome 117.0.0.0","1920x1080","1920x931",NA,NA,0,"BIQ (Charlotte)",3,"BCADJEIFHG","Passed AC2",NA,"Spreadsheet1",1,"BIQ","Screen 3","iz3the",3,"response","3",5099.77,7699.65900000001,7702.86500004768,5099.77,7699.65900000001,7702.86500004768,1,5099.77,2603.09500004769,0,NA,"Rating Scale","Rating Scale",9,"object-60","BIQ",NA,"SUPPRF37681"
"13",1697640504850,"18/10/2023 14:48:24",1697644104850,1,"18/10/2023 16:48:24",147683,3,"task-gjqt",NA,32336482,9561687,NA,"complete",NA,"652ffadb010422e0d379e4ca","computer","Desktop or Laptop","Windows 10","Chrome 117.0.0.0","1920x1080","1920x931",NA,NA,0,"BIQ (Charlotte)",3,"BCADJEIFHG","Passed AC2",NA,"Spreadsheet1",1,"BIQ","Screen 3","iz3the",3,"response","4",7066.377,7699.65900000001,7703.76500002384,7066.377,7699.65900000001,7703.76500002384,1,7066.377,637.388000023842,0,NA,"Rating Scale","Rating Scale",16,"object-67","BIQ",NA,"SUPPRF37681"
"14",1697640504857,"18/10/2023 14:48:24",1697644104857,1,"18/10/2023 16:48:24",147683,3,"task-gjqt",NA,32336482,9561687,NA,"complete",NA,"652ffadb010422e0d379e4ca","computer","Desktop or Laptop","Windows 10","Chrome 117.0.0.0","1920x1080","1920x931",NA,NA,0,"BIQ (Charlotte)",3,"BCADJEIFHG","Passed AC2",NA,"Spreadsheet1",NA,"","","",NA,"5","END",NA,NA,NA,NA,NA,NA,0,NA,NA,NA,NA,"","",NA,"","",NA,"SUPPRF37681"
"1",1697662904550,"18/10/2023 21:01:44",1697666504550,1,"18/10/2023 23:01:44",147683,3,"task-gjqt",NA,32347616,9565152,NA,"complete",NA,"653053b8f7c0c5dea6665f6f","computer","Desktop or Laptop","Windows 10","Chrome 118.0.0.0","1536x864","1536x707",NA,NA,0,"BIQ (Charlotte)",3,"CDBEAFJGIH","Passed AC2",NA,"Spreadsheet1",NA,"","","",NA,"5","BEGIN",NA,NA,NA,NA,NA,NA,0,NA,NA,NA,NA,"","",NA,"","",NA,"SUPPRF11139"
"2",1697662972392,"18/10/2023 21:02:52",1697666572392,1,"18/10/2023 23:02:52",147683,3,"task-gjqt",NA,32347616,9565152,NA,"complete",NA,"653053b8f7c0c5dea6665f6f","computer","Desktop or Laptop","Windows 10","Chrome 118.0.0.0","1536x864","1536x707",NA,NA,0,"BIQ (Charlotte)",3,"CDBEAFJGIH","Passed AC2",NA,"Spreadsheet1",1,"BIQ","Screen 1","9dh6eq",1,"continue","",67840.733,67833.784,67840.733,67840.733,67833.784,67840.733,1,67840.733,0,0,NA,"Click To Continue","Continue Button",23,"object-48","BIQ",NA,"SUPPRF11139"
"3",1697662972396,"18/10/2023 21:02:52",1697666572396,1,"18/10/2023 23:02:52",147683,3,"task-gjqt",NA,32347616,9565152,NA,"complete",NA,"653053b8f7c0c5dea6665f6f","computer","Desktop or Laptop","Windows 10","Chrome 118.0.0.0","1536x864","1536x707",NA,NA,0,"BIQ (Charlotte)",3,"CDBEAFJGIH","Passed AC2",NA,"Spreadsheet1",1,"BIQ","Screen 1","9dh6eq",1,"response","7",58860.772,67833.784,67840.733,58860.772,67833.784,67840.733,1,58860.772,8979.96100000001,0,NA,"Rating Scale","Rating Scale",3,"object-5","BIQ",NA,"SUPPRF11139"
"4",1697662972397,"18/10/2023 21:02:52",1697666572397,1,"18/10/2023 23:02:52",147683,3,"task-gjqt",NA,32347616,9565152,NA,"complete",NA,"653053b8f7c0c5dea6665f6f","computer","Desktop or Laptop","Windows 10","Chrome 118.0.0.0","1536x864","1536x707",NA,NA,0,"BIQ (Charlotte)",3,"CDBEAFJGIH","Passed AC2",NA,"Spreadsheet1",1,"BIQ","Screen 1","9dh6eq",1,"response","5",63569.913,67833.784,67840.733,63569.913,67833.784,67840.733,1,63569.913,4270.82000000001,0,NA,"Rating Scale","Rating Scale",10,"object-18","BIQ",NA,"SUPPRF11139"
"5",1697662972398,"18/10/2023 21:02:52",1697666572398,1,"18/10/2023 23:02:52",147683,3,"task-gjqt",NA,32347616,9565152,NA,"complete",NA,"653053b8f7c0c5dea6665f6f","computer","Desktop or Laptop","Windows 10","Chrome 118.0.0.0","1536x864","1536x707",NA,NA,0,"BIQ (Charlotte)",3,"CDBEAFJGIH","Passed AC2",NA,"Spreadsheet1",1,"BIQ","Screen 1","9dh6eq",1,"response","3",66582.801,67833.784,67840.733,66582.801,67833.784,67840.733,1,66582.801,1257.93200000002,0,NA,"Rating Scale","Rating Scale",17,"object-80","BIQ",NA,"SUPPRF11139"
"6",1697662984795,"18/10/2023 21:03:04",1697666584795,1,"18/10/2023 23:03:04",147683,3,"task-gjqt",NA,32347616,9565152,NA,"complete",NA,"653053b8f7c0c5dea6665f6f","computer","Desktop or Laptop","Windows 10","Chrome 118.0.0.0","1536x864","1536x707",NA,NA,0,"BIQ (Charlotte)",3,"CDBEAFJGIH","Passed AC2",NA,"Spreadsheet1",1,"BIQ","Screen 2","o21mwi",2,"continue","",12422.507999997,12416.052,12422.507999997,12422.507999997,12416.052,12422.507999997,1,12422.507999997,0,0,NA,"Click To Continue","Continue Button",22,"object-50","BIQ",NA,"SUPPRF11139"
"7",1697662984797,"18/10/2023 21:03:04",1697666584797,1,"18/10/2023 23:03:04",147683,3,"task-gjqt",NA,32347616,9565152,NA,"complete",NA,"653053b8f7c0c5dea6665f6f","computer","Desktop or Laptop","Windows 10","Chrome 118.0.0.0","1536x864","1536x707",NA,NA,0,"BIQ (Charlotte)",3,"CDBEAFJGIH","Passed AC2",NA,"Spreadsheet1",1,"BIQ","Screen 2","o21mwi",2,"response","6",4402.09299999999,12416.052,12422.997,4402.09299999999,12416.052,12422.997,1,4402.09299999999,8020.90399999999,0,NA,"Rating Scale","Rating Scale",2,"object-259","BIQ",NA,"SUPPRF11139"
"8",1697662984797,"18/10/2023 21:03:04",1697666584797,1,"18/10/2023 23:03:04",147683,3,"task-gjqt",NA,32347616,9565152,NA,"complete",NA,"653053b8f7c0c5dea6665f6f","computer","Desktop or Laptop","Windows 10","Chrome 118.0.0.0","1536x864","1536x707",NA,NA,0,"BIQ (Charlotte)",3,"CDBEAFJGIH","Passed AC2",NA,"Spreadsheet1",1,"BIQ","Screen 2","o21mwi",2,"response","5",6978.927,12416.052,12422.997,6978.927,12416.052,12422.997,1,6978.927,5444.06999999999,0,NA,"Rating Scale","Rating Scale",9,"object-36","BIQ",NA,"SUPPRF11139"
"9",1697662984798,"18/10/2023 21:03:04",1697666584798,1,"18/10/2023 23:03:04",147683,3,"task-gjqt",NA,32347616,9565152,NA,"complete",NA,"653053b8f7c0c5dea6665f6f","computer","Desktop or Laptop","Windows 10","Chrome 118.0.0.0","1536x864","1536x707",NA,NA,0,"BIQ (Charlotte)",3,"CDBEAFJGIH","Passed AC2",NA,"Spreadsheet1",1,"BIQ","Screen 2","o21mwi",2,"response","2",11742.435,12416.052,12422.997,11742.435,12416.052,12422.997,1,11742.435,680.561999999991,0,NA,"Rating Scale","Rating Scale",16,"object-86","BIQ",NA,"SUPPRF11139"
"10",1697662994493,"18/10/2023 21:03:14",1697666594493,1,"18/10/2023 23:03:14",147683,3,"task-gjqt",NA,32347616,9565152,NA,"complete",NA,"653053b8f7c0c5dea6665f6f","computer","Desktop or Laptop","Windows 10","Chrome 118.0.0.0","1536x864","1536x707",NA,NA,0,"BIQ (Charlotte)",3,"CDBEAFJGIH","Passed AC2",NA,"Spreadsheet1",1,"BIQ","Screen 3","iz3the",3,"continue","",9701.658,9694.709,9701.658,9701.658,9694.709,9701.658,1,9701.658,0,0,NA,"Click To Continue","Continue Button",22,"object-73","BIQ",NA,"SUPPRF11139"
"11",1697662994494,"18/10/2023 21:03:14",1697666594494,1,"18/10/2023 23:03:14",147683,3,"task-gjqt",NA,32347616,9565152,NA,"complete",NA,"653053b8f7c0c5dea6665f6f","computer","Desktop or Laptop","Windows 10","Chrome 118.0.0.0","1536x864","1536x707",NA,NA,0,"BIQ (Charlotte)",3,"CDBEAFJGIH","Passed AC2",NA,"Spreadsheet1",1,"BIQ","Screen 3","iz3the",3,"response","2",3709.10000000001,9694.709,9701.658,3709.10000000001,9694.709,9701.658,1,3709.10000000001,5992.55799999999,0,NA,"Rating Scale","Rating Scale",2,"object-53","BIQ",NA,"SUPPRF11139"
"12",1697662994495,"18/10/2023 21:03:14",1697666594495,1,"18/10/2023 23:03:14",147683,3,"task-gjqt",NA,32347616,9565152,NA,"complete",NA,"653053b8f7c0c5dea6665f6f","computer","Desktop or Laptop","Windows 10","Chrome 118.0.0.0","1536x864","1536x707",NA,NA,0,"BIQ (Charlotte)",3,"CDBEAFJGIH","Passed AC2",NA,"Spreadsheet1",1,"BIQ","Screen 3","iz3the",3,"response","4",6569.41100000001,9694.709,9701.658,6569.41100000001,9694.709,9701.658,1,6569.41100000001,3132.24699999999,0,NA,"Rating Scale","Rating Scale",9,"object-60","BIQ",NA,"SUPPRF11139"
"13",1697662994496,"18/10/2023 21:03:14",1697666594496,1,"18/10/2023 23:03:14",147683,3,"task-gjqt",NA,32347616,9565152,NA,"complete",NA,"653053b8f7c0c5dea6665f6f","computer","Desktop or Laptop","Windows 10","Chrome 118.0.0.0","1536x864","1536x707",NA,NA,0,"BIQ (Charlotte)",3,"CDBEAFJGIH","Passed AC2",NA,"Spreadsheet1",1,"BIQ","Screen 3","iz3the",3,"response","3",8575.939,9694.709,9701.658,8575.939,9694.709,9701.658,1,8575.939,1125.719,0,NA,"Rating Scale","Rating Scale",16,"object-67","BIQ",NA,"SUPPRF11139"
"14",1697662994506,"18/10/2023 21:03:14",1697666594506,1,"18/10/2023 23:03:14",147683,3,"task-gjqt",NA,32347616,9565152,NA,"complete",NA,"653053b8f7c0c5dea6665f6f","computer","Desktop or Laptop","Windows 10","Chrome 118.0.0.0","1536x864","1536x707",NA,NA,0,"BIQ (Charlotte)",3,"CDBEAFJGIH","Passed AC2",NA,"Spreadsheet1",NA,"","","",NA,"5","END",NA,NA,NA,NA,NA,NA,0,NA,NA,NA,NA,"","",NA,"","",NA,"SUPPRF11139"
"1",1697728404912,"19/10/2023 15:13:24",1697732004912,1,"19/10/2023 17:13:24",147683,3,"task-gjqt",NA,32366074,9571426,NA,"complete",NA,"653154994fa6fef45b59128a","computer","Desktop or Laptop","Mac OS 10.15.7","Chrome 117.0.0.0","1440x900","1440x708",NA,NA,0,"BIQ (Charlotte)",3,"EFDGCHBIAJ","Passed AC2",NA,"Spreadsheet1",NA,"","","",NA,"5","BEGIN",NA,NA,NA,NA,NA,NA,0,NA,NA,NA,NA,"","",NA,"","",NA,"SUPPRF01788"
"2",1697728435647,"19/10/2023 15:13:55",1697732035647,1,"19/10/2023 17:13:55",147683,3,"task-gjqt",NA,32366074,9571426,NA,"complete",NA,"653154994fa6fef45b59128a","computer","Desktop or Laptop","Mac OS 10.15.7","Chrome 117.0.0.0","1440x900","1440x708",NA,NA,0,"BIQ (Charlotte)",3,"EFDGCHBIAJ","Passed AC2",NA,"Spreadsheet1",1,"BIQ","Screen 1","9dh6eq",1,"continue","",30758.3729999993,30748.748,30758.3729999993,30758.3729999993,30748.748,30758.3729999993,1,30758.3729999993,0,0,NA,"Click To Continue","Continue Button",23,"object-48","BIQ",NA,"SUPPRF01788"
"3",1697728435650,"19/10/2023 15:13:55",1697732035650,1,"19/10/2023 17:13:55",147683,3,"task-gjqt",NA,32366074,9571426,NA,"complete",NA,"653154994fa6fef45b59128a","computer","Desktop or Laptop","Mac OS 10.15.7","Chrome 117.0.0.0","1440x900","1440x708",NA,NA,0,"BIQ (Charlotte)",3,"EFDGCHBIAJ","Passed AC2",NA,"Spreadsheet1",1,"BIQ","Screen 1","9dh6eq",1,"response","4",12867.642,30748.748,30762.173,12867.642,30748.748,30762.173,1,12867.642,17894.531,0,NA,"Rating Scale","Rating Scale",3,"object-5","BIQ",NA,"SUPPRF01788"
"4",1697728435650,"19/10/2023 15:13:55",1697732035650,1,"19/10/2023 17:13:55",147683,3,"task-gjqt",NA,32366074,9571426,NA,"complete",NA,"653154994fa6fef45b59128a","computer","Desktop or Laptop","Mac OS 10.15.7","Chrome 117.0.0.0","1440x900","1440x708",NA,NA,0,"BIQ (Charlotte)",3,"EFDGCHBIAJ","Passed AC2",NA,"Spreadsheet1",1,"BIQ","Screen 1","9dh6eq",1,"response","2",19886.416,30748.748,30762.673,19886.416,30748.748,30762.673,1,19886.416,10876.257,0,NA,"Rating Scale","Rating Scale",10,"object-18","BIQ",NA,"SUPPRF01788"
"5",1697728435651,"19/10/2023 15:13:55",1697732035651,1,"19/10/2023 17:13:55",147683,3,"task-gjqt",NA,32366074,9571426,NA,"complete",NA,"653154994fa6fef45b59128a","computer","Desktop or Laptop","Mac OS 10.15.7","Chrome 117.0.0.0","1440x900","1440x708",NA,NA,0,"BIQ (Charlotte)",3,"EFDGCHBIAJ","Passed AC2",NA,"Spreadsheet1",1,"BIQ","Screen 1","9dh6eq",1,"response","4",27924.589,30748.748,30763.173,27924.589,30748.748,30763.173,1,27924.589,2838.584,0,NA,"Rating Scale","Rating Scale",17,"object-80","BIQ",NA,"SUPPRF01788"
"6",1697728461165,"19/10/2023 15:14:21",1697732061165,1,"19/10/2023 17:14:21",147683,3,"task-gjqt",NA,32366074,9571426,NA,"complete",NA,"653154994fa6fef45b59128a","computer","Desktop or Laptop","Mac OS 10.15.7","Chrome 117.0.0.0","1440x900","1440x708",NA,NA,0,"BIQ (Charlotte)",3,"EFDGCHBIAJ","Passed AC2",NA,"Spreadsheet1",1,"BIQ","Screen 2","o21mwi",2,"continue","",25528.1249999993,25518.269,25528.1249999993,25528.1249999993,25518.269,25528.1249999993,1,25528.1249999993,0,0,NA,"Click To Continue","Continue Button",22,"object-50","BIQ",NA,"SUPPRF01788"
"7",1697728461170,"19/10/2023 15:14:21",1697732061170,1,"19/10/2023 17:14:21",147683,3,"task-gjqt",NA,32366074,9571426,NA,"complete",NA,"653154994fa6fef45b59128a","computer","Desktop or Laptop","Mac OS 10.15.7","Chrome 117.0.0.0","1440x900","1440x708",NA,NA,0,"BIQ (Charlotte)",3,"EFDGCHBIAJ","Passed AC2",NA,"Spreadsheet1",1,"BIQ","Screen 2","o21mwi",2,"response","6",3759.97500000001,25518.269,25532.8249999985,3759.97500000001,25518.269,25532.8249999985,1,3759.97500000001,21772.8499999985,0,NA,"Rating Scale","Rating Scale",2,"object-259","BIQ",NA,"SUPPRF01788"
"8",1697728461171,"19/10/2023 15:14:21",1697732061171,1,"19/10/2023 17:14:21",147683,3,"task-gjqt",NA,32366074,9571426,NA,"complete",NA,"653154994fa6fef45b59128a","computer","Desktop or Laptop","Mac OS 10.15.7","Chrome 117.0.0.0","1440x900","1440x708",NA,NA,0,"BIQ (Charlotte)",3,"EFDGCHBIAJ","Passed AC2",NA,"Spreadsheet1",1,"BIQ","Screen 2","o21mwi",2,"response","3",13987.316,25518.269,25533.6249999993,13987.316,25518.269,25533.6249999993,1,13987.316,11546.3089999993,0,NA,"Rating Scale","Rating Scale",9,"object-36","BIQ",NA,"SUPPRF01788"
"9",1697728461171,"19/10/2023 15:14:21",1697732061171,1,"19/10/2023 17:14:21",147683,3,"task-gjqt",NA,32366074,9571426,NA,"complete",NA,"653154994fa6fef45b59128a","computer","Desktop or Laptop","Mac OS 10.15.7","Chrome 117.0.0.0","1440x900","1440x708",NA,NA,0,"BIQ (Charlotte)",3,"EFDGCHBIAJ","Passed AC2",NA,"Spreadsheet1",1,"BIQ","Screen 2","o21mwi",2,"response","5",21925.233,25518.269,25534.2249999989,21925.233,25518.269,25534.2249999989,1,21925.233,3608.99199999889,0,NA,"Rating Scale","Rating Scale",16,"object-86","BIQ",NA,"SUPPRF01788"
"10",1697728506239,"19/10/2023 15:15:06",1697732106239,1,"19/10/2023 17:15:06",147683,3,"task-gjqt",NA,32366074,9571426,NA,"complete",NA,"653154994fa6fef45b59128a","computer","Desktop or Laptop","Mac OS 10.15.7","Chrome 117.0.0.0","1440x900","1440x708",NA,NA,0,"BIQ (Charlotte)",3,"EFDGCHBIAJ","Passed AC2",NA,"Spreadsheet1",1,"BIQ","Screen 3","iz3the",3,"continue","",45082.656,45070.29,45082.656,45082.656,45070.29,45082.656,1,45082.656,0,0,NA,"Click To Continue","Continue Button",22,"object-73","BIQ",NA,"SUPPRF01788"
"11",1697728506243,"19/10/2023 15:15:06",1697732106243,1,"19/10/2023 17:15:06",147683,3,"task-gjqt",NA,32366074,9571426,NA,"complete",NA,"653154994fa6fef45b59128a","computer","Desktop or Laptop","Mac OS 10.15.7","Chrome 117.0.0.0","1440x900","1440x708",NA,NA,0,"BIQ (Charlotte)",3,"EFDGCHBIAJ","Passed AC2",NA,"Spreadsheet1",1,"BIQ","Screen 3","iz3the",3,"response","2",34441.905,45070.29,45087.001,34441.905,45070.29,45087.001,1,34441.905,10645.096,0,NA,"Rating Scale","Rating Scale",2,"object-53","BIQ",NA,"SUPPRF01788"
"12",1697728506247,"19/10/2023 15:15:06",1697732106247,1,"19/10/2023 17:15:06",147683,3,"task-gjqt",NA,32366074,9571426,NA,"complete",NA,"653154994fa6fef45b59128a","computer","Desktop or Laptop","Mac OS 10.15.7","Chrome 117.0.0.0","1440x900","1440x708",NA,NA,0,"BIQ (Charlotte)",3,"EFDGCHBIAJ","Passed AC2",NA,"Spreadsheet1",1,"BIQ","Screen 3","iz3the",3,"response","3",39471.916,45070.29,45087.001,39471.916,45070.29,45087.001,1,39471.916,5615.08500000002,0,NA,"Rating Scale","Rating Scale",9,"object-60","BIQ",NA,"SUPPRF01788"
"13",1697728506247,"19/10/2023 15:15:06",1697732106247,1,"19/10/2023 17:15:06",147683,3,"task-gjqt",NA,32366074,9571426,NA,"complete",NA,"653154994fa6fef45b59128a","computer","Desktop or Laptop","Mac OS 10.15.7","Chrome 117.0.0.0","1440x900","1440x708",NA,NA,0,"BIQ (Charlotte)",3,"EFDGCHBIAJ","Passed AC2",NA,"Spreadsheet1",1,"BIQ","Screen 3","iz3the",3,"response","5",43683.277,45070.29,45087.001,43683.277,45070.29,45087.001,1,43683.277,1403.72400000002,0,NA,"Rating Scale","Rating Scale",16,"object-67","BIQ",NA,"SUPPRF01788"
"14",1697728506252,"19/10/2023 15:15:06",1697732106252,1,"19/10/2023 17:15:06",147683,3,"task-gjqt",NA,32366074,9571426,NA,"complete",NA,"653154994fa6fef45b59128a","computer","Desktop or Laptop","Mac OS 10.15.7","Chrome 117.0.0.0","1440x900","1440x708",NA,NA,0,"BIQ (Charlotte)",3,"EFDGCHBIAJ","Passed AC2",NA,"Spreadsheet1",NA,"","","",NA,"5","END",NA,NA,NA,NA,NA,NA,0,NA,NA,NA,NA,"","",NA,"","",NA,"SUPPRF01788"
"1",1697819440731,"20/10/2023 16:30:40",1697805040731,-4,"20/10/2023 08:30:40",147683,3,"task-gjqt",NA,32380647,9577059,NA,"complete",NA,"6532706690febf7cc2ea91b4","computer","Desktop or Laptop","Mac OS 10.15.7","Chrome 117.0.0.0","1440x900","1440x815",NA,NA,0,"BIQ (Charlotte)",3,"JAIBHCGDFE","Passed AC2",NA,"Spreadsheet1",NA,"","","",NA,"5","BEGIN",NA,NA,NA,NA,NA,NA,0,NA,NA,NA,NA,"","",NA,"","",NA,"SUPPRF97235"
"2",1697819462149,"20/10/2023 16:31:02",1697805062149,-4,"20/10/2023 08:31:02",147683,3,"task-gjqt",NA,32380647,9577059,NA,"complete",NA,"6532706690febf7cc2ea91b4","computer","Desktop or Laptop","Mac OS 10.15.7","Chrome 117.0.0.0","1440x900","1440x815",NA,NA,0,"BIQ (Charlotte)",3,"JAIBHCGDFE","Passed AC2",NA,"Spreadsheet1",1,"BIQ","Screen 1","9dh6eq",1,"continue","",21430.851,21414.185,21430.851,21430.851,21414.185,21430.851,1,21430.851,0,0,NA,"Click To Continue","Continue Button",23,"object-48","BIQ",NA,"SUPPRF97235"
"3",1697819462153,"20/10/2023 16:31:02",1697805062153,-4,"20/10/2023 08:31:02",147683,3,"task-gjqt",NA,32380647,9577059,NA,"complete",NA,"6532706690febf7cc2ea91b4","computer","Desktop or Laptop","Mac OS 10.15.7","Chrome 117.0.0.0","1440x900","1440x815",NA,NA,0,"BIQ (Charlotte)",3,"JAIBHCGDFE","Passed AC2",NA,"Spreadsheet1",1,"BIQ","Screen 1","9dh6eq",1,"response","0",7707.305,21414.185,21430.851,7707.305,21414.185,21430.851,1,7707.305,13723.546,0,NA,"Rating Scale","Rating Scale",3,"object-5","BIQ",NA,"SUPPRF97235"
"4",1697819462154,"20/10/2023 16:31:02",1697805062154,-4,"20/10/2023 08:31:02",147683,3,"task-gjqt",NA,32380647,9577059,NA,"complete",NA,"6532706690febf7cc2ea91b4","computer","Desktop or Laptop","Mac OS 10.15.7","Chrome 117.0.0.0","1440x900","1440x815",NA,NA,0,"BIQ (Charlotte)",3,"JAIBHCGDFE","Passed AC2",NA,"Spreadsheet1",1,"BIQ","Screen 1","9dh6eq",1,"response","4",15031.107,21414.185,21430.851,15031.107,21414.185,21430.851,1,15031.107,6399.744,0,NA,"Rating Scale","Rating Scale",10,"object-18","BIQ",NA,"SUPPRF97235"
"5",1697819462154,"20/10/2023 16:31:02",1697805062154,-4,"20/10/2023 08:31:02",147683,3,"task-gjqt",NA,32380647,9577059,NA,"complete",NA,"6532706690febf7cc2ea91b4","computer","Desktop or Laptop","Mac OS 10.15.7","Chrome 117.0.0.0","1440x900","1440x815",NA,NA,0,"BIQ (Charlotte)",3,"JAIBHCGDFE","Passed AC2",NA,"Spreadsheet1",1,"BIQ","Screen 1","9dh6eq",1,"response","6",20530.887,21414.185,21430.851,20530.887,21414.185,21430.851,1,20530.887,899.963999999996,0,NA,"Rating Scale","Rating Scale",17,"object-80","BIQ",NA,"SUPPRF97235"
"6",1697819479074,"20/10/2023 16:31:19",1697805079074,-4,"20/10/2023 08:31:19",147683,3,"task-gjqt",NA,32380647,9577059,NA,"complete",NA,"6532706690febf7cc2ea91b4","computer","Desktop or Laptop","Mac OS 10.15.7","Chrome 117.0.0.0","1440x900","1440x815",NA,NA,0,"BIQ (Charlotte)",3,"JAIBHCGDFE","Passed AC2",NA,"Spreadsheet1",1,"BIQ","Screen 2","o21mwi",2,"continue","",16946.7310000015,16943.288,16946.7310000015,16946.7310000015,16943.288,16946.7310000015,1,16946.7310000015,0,0,NA,"Click To Continue","Continue Button",22,"object-50","BIQ",NA,"SUPPRF97235"
"7",1697819479080,"20/10/2023 16:31:19",1697805079080,-4,"20/10/2023 08:31:19",147683,3,"task-gjqt",NA,32380647,9577059,NA,"complete",NA,"6532706690febf7cc2ea91b4","computer","Desktop or Laptop","Mac OS 10.15.7","Chrome 117.0.0.0","1440x900","1440x815",NA,NA,0,"BIQ (Charlotte)",3,"JAIBHCGDFE","Passed AC2",NA,"Spreadsheet1",1,"BIQ","Screen 2","o21mwi",2,"response","5",4574.559,16943.288,16952.7310000015,4574.559,16943.288,16952.7310000015,1,4574.559,12378.1720000015,0,NA,"Rating Scale","Rating Scale",2,"object-259","BIQ",NA,"SUPPRF97235"
"8",1697819479081,"20/10/2023 16:31:19",1697805079081,-4,"20/10/2023 08:31:19",147683,3,"task-gjqt",NA,32380647,9577059,NA,"complete",NA,"6532706690febf7cc2ea91b4","computer","Desktop or Laptop","Mac OS 10.15.7","Chrome 117.0.0.0","1440x900","1440x815",NA,NA,0,"BIQ (Charlotte)",3,"JAIBHCGDFE","Passed AC2",NA,"Spreadsheet1",1,"BIQ","Screen 2","o21mwi",2,"response","8",7707.767,16943.288,16953.631,7707.767,16943.288,16953.631,1,7707.767,9245.864,0,NA,"Rating Scale","Rating Scale",9,"object-36","BIQ",NA,"SUPPRF97235"
"9",1697819479082,"20/10/2023 16:31:19",1697805079082,-4,"20/10/2023 08:31:19",147683,3,"task-gjqt",NA,32380647,9577059,NA,"complete",NA,"6532706690febf7cc2ea91b4","computer","Desktop or Laptop","Mac OS 10.15.7","Chrome 117.0.0.0","1440x900","1440x815",NA,NA,0,"BIQ (Charlotte)",3,"JAIBHCGDFE","Passed AC2",NA,"Spreadsheet1",1,"BIQ","Screen 2","o21mwi",2,"response","6",15060.03,16943.288,16954.2310000015,15060.03,16943.288,16954.2310000015,1,15060.03,1894.20100000149,0,NA,"Rating Scale","Rating Scale",16,"object-86","BIQ",NA,"SUPPRF97235"
"10",1697819493348,"20/10/2023 16:31:33",1697805093348,-4,"20/10/2023 08:31:33",147683,3,"task-gjqt",NA,32380647,9577059,NA,"complete",NA,"6532706690febf7cc2ea91b4","computer","Desktop or Laptop","Mac OS 10.15.7","Chrome 117.0.0.0","1440x900","1440x815",NA,NA,0,"BIQ (Charlotte)",3,"JAIBHCGDFE","Passed AC2",NA,"Spreadsheet1",1,"BIQ","Screen 3","iz3the",3,"continue","",14277.2429999985,14272.013,14277.2429999985,14277.2429999985,14272.013,14277.2429999985,1,14277.2429999985,0,0,NA,"Click To Continue","Continue Button",22,"object-73","BIQ",NA,"SUPPRF97235"
"11",1697819493352,"20/10/2023 16:31:33",1697805093352,-4,"20/10/2023 08:31:33",147683,3,"task-gjqt",NA,32380647,9577059,NA,"complete",NA,"6532706690febf7cc2ea91b4","computer","Desktop or Laptop","Mac OS 10.15.7","Chrome 117.0.0.0","1440x900","1440x815",NA,NA,0,"BIQ (Charlotte)",3,"JAIBHCGDFE","Passed AC2",NA,"Spreadsheet1",1,"BIQ","Screen 3","iz3the",3,"response","2",4433.156,14272.013,14280.9430000015,4433.156,14272.013,14280.9430000015,1,4433.156,9847.78700000149,0,NA,"Rating Scale","Rating Scale",2,"object-53","BIQ",NA,"SUPPRF97235"
"12",1697819493353,"20/10/2023 16:31:33",1697805093353,-4,"20/10/2023 08:31:33",147683,3,"task-gjqt",NA,32380647,9577059,NA,"complete",NA,"6532706690febf7cc2ea91b4","computer","Desktop or Laptop","Mac OS 10.15.7","Chrome 117.0.0.0","1440x900","1440x815",NA,NA,0,"BIQ (Charlotte)",3,"JAIBHCGDFE","Passed AC2",NA,"Spreadsheet1",1,"BIQ","Screen 3","iz3the",3,"response","5",9172.217,14272.013,14281.843,9172.217,14272.013,14281.843,1,9172.217,5109.626,0,NA,"Rating Scale","Rating Scale",9,"object-60","BIQ",NA,"SUPPRF97235"
"13",1697819493354,"20/10/2023 16:31:33",1697805093354,-4,"20/10/2023 08:31:33",147683,3,"task-gjqt",NA,32380647,9577059,NA,"complete",NA,"6532706690febf7cc2ea91b4","computer","Desktop or Laptop","Mac OS 10.15.7","Chrome 117.0.0.0","1440x900","1440x815",NA,NA,0,"BIQ (Charlotte)",3,"JAIBHCGDFE","Passed AC2",NA,"Spreadsheet1",1,"BIQ","Screen 3","iz3the",3,"response","5",13105.393,14272.013,14282.642999997,13105.393,14272.013,14282.642999997,1,13105.393,1177.24999999702,0,NA,"Rating Scale","Rating Scale",16,"object-67","BIQ",NA,"SUPPRF97235"
"14",1697819493360,"20/10/2023 16:31:33",1697805093360,-4,"20/10/2023 08:31:33",147683,3,"task-gjqt",NA,32380647,9577059,NA,"complete",NA,"6532706690febf7cc2ea91b4","computer","Desktop or Laptop","Mac OS 10.15.7","Chrome 117.0.0.0","1440x900","1440x815",NA,NA,0,"BIQ (Charlotte)",3,"JAIBHCGDFE","Passed AC2",NA,"Spreadsheet1",NA,"","","",NA,"5","END",NA,NA,NA,NA,NA,NA,0,NA,NA,NA,NA,"","",NA,"","",NA,"SUPPRF97235"
"1",1697801906790,"20/10/2023 11:38:26",1697805506790,1,"20/10/2023 13:38:26",147683,3,"task-gjqt",NA,32380858,9577424,NA,"complete",NA,"65327436bd8652e10f461c5e","tablet","Apple iPad","iOS 16.6","Chrome 118.0.5993.92","834x1112","782x719",NA,NA,0,"BIQ (Charlotte)",3,"EFDGCHBIAJ","Passed AC2",NA,"Spreadsheet1",NA,"","","",NA,"5","BEGIN",NA,NA,NA,NA,NA,NA,0,NA,NA,NA,NA,"","",NA,"","",NA,"SUPPRF55923"
"2",1697801946053,"20/10/2023 11:39:06",1697805546053,1,"20/10/2023 13:39:06",147683,3,"task-gjqt",NA,32380858,9577424,NA,"complete",NA,"65327436bd8652e10f461c5e","tablet","Apple iPad","iOS 16.6","Chrome 118.0.5993.92","834x1112","782x719",NA,NA,0,"BIQ (Charlotte)",3,"EFDGCHBIAJ","Passed AC2",NA,"Spreadsheet1",1,"BIQ","Screen 1","9dh6eq",1,"continue","",39253,39236,39253,39253,39236,39253,1,39253,0,0,NA,"Click To Continue","Continue Button",23,"object-48","BIQ",NA,"SUPPRF55923"
"3",1697801946059,"20/10/2023 11:39:06",1697805546059,1,"20/10/2023 13:39:06",147683,3,"task-gjqt",NA,32380858,9577424,NA,"complete",NA,"65327436bd8652e10f461c5e","tablet","Apple iPad","iOS 16.6","Chrome 118.0.5993.92","834x1112","782x719",NA,NA,0,"BIQ (Charlotte)",3,"EFDGCHBIAJ","Passed AC2",NA,"Spreadsheet1",1,"BIQ","Screen 1","9dh6eq",1,"response","6",18539,39236,39253,18539,39236,39253,1,18539,20714,0,NA,"Rating Scale","Rating Scale",3,"object-5","BIQ",NA,"SUPPRF55923"
"4",1697801946060,"20/10/2023 11:39:06",1697805546060,1,"20/10/2023 13:39:06",147683,3,"task-gjqt",NA,32380858,9577424,NA,"complete",NA,"65327436bd8652e10f461c5e","tablet","Apple iPad","iOS 16.6","Chrome 118.0.5993.92","834x1112","782x719",NA,NA,0,"BIQ (Charlotte)",3,"EFDGCHBIAJ","Passed AC2",NA,"Spreadsheet1",1,"BIQ","Screen 1","9dh6eq",1,"response","2",25454,39236,39253,25454,39236,39253,1,25454,13799,0,NA,"Rating Scale","Rating Scale",10,"object-18","BIQ",NA,"SUPPRF55923"
"5",1697801946060,"20/10/2023 11:39:06",1697805546060,1,"20/10/2023 13:39:06",147683,3,"task-gjqt",NA,32380858,9577424,NA,"complete",NA,"65327436bd8652e10f461c5e","tablet","Apple iPad","iOS 16.6","Chrome 118.0.5993.92","834x1112","782x719",NA,NA,0,"BIQ (Charlotte)",3,"EFDGCHBIAJ","Passed AC2",NA,"Spreadsheet1",1,"BIQ","Screen 1","9dh6eq",1,"response","3",38153,39236,39253,38153,39236,39253,1,38153,1100,0,NA,"Rating Scale","Rating Scale",17,"object-80","BIQ",NA,"SUPPRF55923"
"6",1697801973752,"20/10/2023 11:39:33",1697805573752,1,"20/10/2023 13:39:33",147683,3,"task-gjqt",NA,32380858,9577424,NA,"complete",NA,"65327436bd8652e10f461c5e","tablet","Apple iPad","iOS 16.6","Chrome 118.0.5993.92","834x1112","782x719",NA,NA,0,"BIQ (Charlotte)",3,"EFDGCHBIAJ","Passed AC2",NA,"Spreadsheet1",1,"BIQ","Screen 2","o21mwi",2,"continue","",27733,27719,27733,27733,27719,27733,1,27733,0,0,NA,"Click To Continue","Continue Button",22,"object-50","BIQ",NA,"SUPPRF55923"
"7",1697801973766,"20/10/2023 11:39:33",1697805573766,1,"20/10/2023 13:39:33",147683,3,"task-gjqt",NA,32380858,9577424,NA,"complete",NA,"65327436bd8652e10f461c5e","tablet","Apple iPad","iOS 16.6","Chrome 118.0.5993.92","834x1112","782x719",NA,NA,0,"BIQ (Charlotte)",3,"EFDGCHBIAJ","Passed AC2",NA,"Spreadsheet1",1,"BIQ","Screen 2","o21mwi",2,"response","4",7166,27719,27736,7166,27719,27736,1,7166,20570,0,NA,"Rating Scale","Rating Scale",2,"object-259","BIQ",NA,"SUPPRF55923"
"8",1697801973767,"20/10/2023 11:39:33",1697805573767,1,"20/10/2023 13:39:33",147683,3,"task-gjqt",NA,32380858,9577424,NA,"complete",NA,"65327436bd8652e10f461c5e","tablet","Apple iPad","iOS 16.6","Chrome 118.0.5993.92","834x1112","782x719",NA,NA,0,"BIQ (Charlotte)",3,"EFDGCHBIAJ","Passed AC2",NA,"Spreadsheet1",1,"BIQ","Screen 2","o21mwi",2,"response","2",18497,27719,27736,18497,27719,27736,1,18497,9239,0,NA,"Rating Scale","Rating Scale",9,"object-36","BIQ",NA,"SUPPRF55923"
"9",1697801973768,"20/10/2023 11:39:33",1697805573768,1,"20/10/2023 13:39:33",147683,3,"task-gjqt",NA,32380858,9577424,NA,"complete",NA,"65327436bd8652e10f461c5e","tablet","Apple iPad","iOS 16.6","Chrome 118.0.5993.92","834x1112","782x719",NA,NA,0,"BIQ (Charlotte)",3,"EFDGCHBIAJ","Passed AC2",NA,"Spreadsheet1",1,"BIQ","Screen 2","o21mwi",2,"response","4",27135,27719,27736,27135,27719,27736,1,27135,601,0,NA,"Rating Scale","Rating Scale",16,"object-86","BIQ",NA,"SUPPRF55923"
"10",1697801987380,"20/10/2023 11:39:47",1697805587380,1,"20/10/2023 13:39:47",147683,3,"task-gjqt",NA,32380858,9577424,NA,"complete",NA,"65327436bd8652e10f461c5e","tablet","Apple iPad","iOS 16.6","Chrome 118.0.5993.92","834x1112","782x719",NA,NA,0,"BIQ (Charlotte)",3,"EFDGCHBIAJ","Passed AC2",NA,"Spreadsheet1",1,"BIQ","Screen 3","iz3the",3,"continue","",13644,13633,13644,13644,13633,13644,1,13644,0,0,NA,"Click To Continue","Continue Button",22,"object-73","BIQ",NA,"SUPPRF55923"
"11",1697801987385,"20/10/2023 11:39:47",1697805587385,1,"20/10/2023 13:39:47",147683,3,"task-gjqt",NA,32380858,9577424,NA,"complete",NA,"65327436bd8652e10f461c5e","tablet","Apple iPad","iOS 16.6","Chrome 118.0.5993.92","834x1112","782x719",NA,NA,0,"BIQ (Charlotte)",3,"EFDGCHBIAJ","Passed AC2",NA,"Spreadsheet1",1,"BIQ","Screen 3","iz3the",3,"response","1",5495,13633,13649,5495,13633,13649,1,5495,8154,0,NA,"Rating Scale","Rating Scale",2,"object-53","BIQ",NA,"SUPPRF55923"
"12",1697801987386,"20/10/2023 11:39:47",1697805587386,1,"20/10/2023 13:39:47",147683,3,"task-gjqt",NA,32380858,9577424,NA,"complete",NA,"65327436bd8652e10f461c5e","tablet","Apple iPad","iOS 16.6","Chrome 118.0.5993.92","834x1112","782x719",NA,NA,0,"BIQ (Charlotte)",3,"EFDGCHBIAJ","Passed AC2",NA,"Spreadsheet1",1,"BIQ","Screen 3","iz3the",3,"response","5",9633,13633,13649,9633,13633,13649,1,9633,4016,0,NA,"Rating Scale","Rating Scale",9,"object-60","BIQ",NA,"SUPPRF55923"
"13",1697801987387,"20/10/2023 11:39:47",1697805587387,1,"20/10/2023 13:39:47",147683,3,"task-gjqt",NA,32380858,9577424,NA,"complete",NA,"65327436bd8652e10f461c5e","tablet","Apple iPad","iOS 16.6","Chrome 118.0.5993.92","834x1112","782x719",NA,NA,0,"BIQ (Charlotte)",3,"EFDGCHBIAJ","Passed AC2",NA,"Spreadsheet1",1,"BIQ","Screen 3","iz3the",3,"response","2",13165,13633,13649,13165,13633,13649,1,13165,484,0,NA,"Rating Scale","Rating Scale",16,"object-67","BIQ",NA,"SUPPRF55923"
"14",1697801987390,"20/10/2023 11:39:47",1697805587390,1,"20/10/2023 13:39:47",147683,3,"task-gjqt",NA,32380858,9577424,NA,"complete",NA,"65327436bd8652e10f461c5e","tablet","Apple iPad","iOS 16.6","Chrome 118.0.5993.92","834x1112","782x719",NA,NA,0,"BIQ (Charlotte)",3,"EFDGCHBIAJ","Passed AC2",NA,"Spreadsheet1",NA,"","","",NA,"5","END",NA,NA,NA,NA,NA,NA,0,NA,NA,NA,NA,"","",NA,"","",NA,"SUPPRF55923"
"1",1697801923702,"20/10/2023 11:38:43",1697805523702,1,"20/10/2023 13:38:43",147683,3,"task-gjqt",NA,32380865,9577446,NA,"complete",NA,"653274782a9833c271b31a6e","computer","Desktop or Laptop","Windows 10","Chrome 118.0.0.0","1366x768","2049x927",NA,NA,0,"BIQ (Charlotte)",3,"FGEHDICJBA","Passed AC2",NA,"Spreadsheet1",NA,"","","",NA,"5","BEGIN",NA,NA,NA,NA,NA,NA,0,NA,NA,NA,NA,"","",NA,"","",NA,"SUPPRF05688"
"2",1697801954716,"20/10/2023 11:39:14",1697805554716,1,"20/10/2023 13:39:14",147683,3,"task-gjqt",NA,32380865,9577446,NA,"complete",NA,"653274782a9833c271b31a6e","computer","Desktop or Laptop","Windows 10","Chrome 118.0.0.0","1366x768","2049x927",NA,NA,0,"BIQ (Charlotte)",3,"FGEHDICJBA","Passed AC2",NA,"Spreadsheet1",1,"BIQ","Screen 1","9dh6eq",1,"continue","",31067.2390000179,31050.762,31067.2390000179,31067.2390000179,31050.762,31067.2390000179,1,31067.2390000179,0,0,NA,"Click To Continue","Continue Button",23,"object-48","BIQ",NA,"SUPPRF05688"
"3",1697801954724,"20/10/2023 11:39:14",1697805554724,1,"20/10/2023 13:39:14",147683,3,"task-gjqt",NA,32380865,9577446,NA,"complete",NA,"653274782a9833c271b31a6e","computer","Desktop or Laptop","Windows 10","Chrome 118.0.0.0","1366x768","2049x927",NA,NA,0,"BIQ (Charlotte)",3,"FGEHDICJBA","Passed AC2",NA,"Spreadsheet1",1,"BIQ","Screen 1","9dh6eq",1,"response","6",9800.462,31050.762,31067.305,9800.462,31050.762,31067.305,1,9800.462,21266.843,0,NA,"Rating Scale","Rating Scale",3,"object-5","BIQ",NA,"SUPPRF05688"
"4",1697801954726,"20/10/2023 11:39:14",1697805554726,1,"20/10/2023 13:39:14",147683,3,"task-gjqt",NA,32380865,9577446,NA,"complete",NA,"653274782a9833c271b31a6e","computer","Desktop or Laptop","Windows 10","Chrome 118.0.0.0","1366x768","2049x927",NA,NA,0,"BIQ (Charlotte)",3,"FGEHDICJBA","Passed AC2",NA,"Spreadsheet1",1,"BIQ","Screen 1","9dh6eq",1,"response","4",24100.747,31050.762,31067.305,24100.747,31050.762,31067.305,1,24100.747,6966.558,0,NA,"Rating Scale","Rating Scale",10,"object-18","BIQ",NA,"SUPPRF05688"
"5",1697801954727,"20/10/2023 11:39:14",1697805554727,1,"20/10/2023 13:39:14",147683,3,"task-gjqt",NA,32380865,9577446,NA,"complete",NA,"653274782a9833c271b31a6e","computer","Desktop or Laptop","Windows 10","Chrome 118.0.0.0","1366x768","2049x927",NA,NA,0,"BIQ (Charlotte)",3,"FGEHDICJBA","Passed AC2",NA,"Spreadsheet1",1,"BIQ","Screen 1","9dh6eq",1,"response","2",29884.193,31050.762,31067.305,29884.193,31050.762,31067.305,1,29884.193,1183.112,0,NA,"Rating Scale","Rating Scale",17,"object-80","BIQ",NA,"SUPPRF05688"
"6",1697801989889,"20/10/2023 11:39:49",1697805589889,1,"20/10/2023 13:39:49",147683,3,"task-gjqt",NA,32380865,9577446,NA,"complete",NA,"653274782a9833c271b31a6e","computer","Desktop or Laptop","Windows 10","Chrome 118.0.0.0","1366x768","2049x927",NA,NA,0,"BIQ (Charlotte)",3,"FGEHDICJBA","Passed AC2",NA,"Spreadsheet1",1,"BIQ","Screen 2","o21mwi",2,"continue","",35191.876999994,35184.272,35191.876999994,35191.876999994,35184.272,35191.876999994,1,35191.876999994,0,0,NA,"Click To Continue","Continue Button",22,"object-50","BIQ",NA,"SUPPRF05688"
"7",1697801989897,"20/10/2023 11:39:49",1697805589897,1,"20/10/2023 13:39:49",147683,3,"task-gjqt",NA,32380865,9577446,NA,"complete",NA,"653274782a9833c271b31a6e","computer","Desktop or Laptop","Windows 10","Chrome 118.0.0.0","1366x768","2049x927",NA,NA,0,"BIQ (Charlotte)",3,"FGEHDICJBA","Passed AC2",NA,"Spreadsheet1",1,"BIQ","Screen 2","o21mwi",2,"response","5",6967.047,35184.272,35199.9770000179,6967.047,35184.272,35199.9770000179,1,6967.047,28232.9300000179,0,NA,"Rating Scale","Rating Scale",2,"object-259","BIQ",NA,"SUPPRF05688"
"8",1697801989900,"20/10/2023 11:39:49",1697805589900,1,"20/10/2023 13:39:49",147683,3,"task-gjqt",NA,32380865,9577446,NA,"complete",NA,"653274782a9833c271b31a6e","computer","Desktop or Laptop","Windows 10","Chrome 118.0.0.0","1366x768","2049x927",NA,NA,0,"BIQ (Charlotte)",3,"FGEHDICJBA","Passed AC2",NA,"Spreadsheet1",1,"BIQ","Screen 2","o21mwi",2,"response","4",23283.945,35184.272,35200.954,23283.945,35184.272,35200.954,1,23283.945,11917.009,0,NA,"Rating Scale","Rating Scale",9,"object-36","BIQ",NA,"SUPPRF05688"
"9",1697801989901,"20/10/2023 11:39:49",1697805589901,1,"20/10/2023 13:39:49",147683,3,"task-gjqt",NA,32380865,9577446,NA,"complete",NA,"653274782a9833c271b31a6e","computer","Desktop or Laptop","Windows 10","Chrome 118.0.0.0","1366x768","2049x927",NA,NA,0,"BIQ (Charlotte)",3,"FGEHDICJBA","Passed AC2",NA,"Spreadsheet1",1,"BIQ","Screen 2","o21mwi",2,"response","7",33500.916,35184.272,35200.954,33500.916,35184.272,35200.954,1,33500.916,1700.038,0,NA,"Rating Scale","Rating Scale",16,"object-86","BIQ",NA,"SUPPRF05688"
"10",1697802019992,"20/10/2023 11:40:19",1697805619992,1,"20/10/2023 13:40:19",147683,3,"task-gjqt",NA,32380865,9577446,NA,"complete",NA,"653274782a9833c271b31a6e","computer","Desktop or Laptop","Windows 10","Chrome 118.0.0.0","1366x768","2049x927",NA,NA,0,"BIQ (Charlotte)",3,"FGEHDICJBA","Passed AC2",NA,"Spreadsheet1",1,"BIQ","Screen 3","iz3the",3,"continue","",30110.8050000119,30100.972,30110.8050000119,30110.8050000119,30100.972,30110.8050000119,1,30110.8050000119,0,0,NA,"Click To Continue","Continue Button",22,"object-73","BIQ",NA,"SUPPRF05688"
"11",1697802020001,"20/10/2023 11:40:20",1697805620001,1,"20/10/2023 13:40:20",147683,3,"task-gjqt",NA,32380865,9577446,NA,"complete",NA,"653274782a9833c271b31a6e","computer","Desktop or Laptop","Windows 10","Chrome 118.0.0.0","1366x768","2049x927",NA,NA,0,"BIQ (Charlotte)",3,"FGEHDICJBA","Passed AC2",NA,"Spreadsheet1",1,"BIQ","Screen 3","iz3the",3,"response","3",21200.543,30100.972,30117.61,21200.543,30100.972,30117.61,1,21200.543,8917.06700000001,0,NA,"Rating Scale","Rating Scale",2,"object-53","BIQ",NA,"SUPPRF05688"
"12",1697802020003,"20/10/2023 11:40:20",1697805620003,1,"20/10/2023 13:40:20",147683,3,"task-gjqt",NA,32380865,9577446,NA,"complete",NA,"653274782a9833c271b31a6e","computer","Desktop or Laptop","Windows 10","Chrome 118.0.0.0","1366x768","2049x927",NA,NA,0,"BIQ (Charlotte)",3,"FGEHDICJBA","Passed AC2",NA,"Spreadsheet1",1,"BIQ","Screen 3","iz3the",3,"response","6",24933.996,30100.972,30117.61,24933.996,30100.972,30117.61,1,24933.996,5183.61400000002,0,NA,"Rating Scale","Rating Scale",9,"object-60","BIQ",NA,"SUPPRF05688"
"13",1697802020006,"20/10/2023 11:40:20",1697805620006,1,"20/10/2023 13:40:20",147683,3,"task-gjqt",NA,32380865,9577446,NA,"complete",NA,"653274782a9833c271b31a6e","computer","Desktop or Laptop","Windows 10","Chrome 118.0.0.0","1366x768","2049x927",NA,NA,0,"BIQ (Charlotte)",3,"FGEHDICJBA","Passed AC2",NA,"Spreadsheet1",1,"BIQ","Screen 3","iz3the",3,"response","5",28950.919,30100.972,30117.61,28950.919,30100.972,30117.61,1,28950.919,1166.69100000001,0,NA,"Rating Scale","Rating Scale",16,"object-67","BIQ",NA,"SUPPRF05688"
"14",1697802020022,"20/10/2023 11:40:20",1697805620022,1,"20/10/2023 13:40:20",147683,3,"task-gjqt",NA,32380865,9577446,NA,"complete",NA,"653274782a9833c271b31a6e","computer","Desktop or Laptop","Windows 10","Chrome 118.0.0.0","1366x768","2049x927",NA,NA,0,"BIQ (Charlotte)",3,"FGEHDICJBA","Passed AC2",NA,"Spreadsheet1",NA,"","","",NA,"5","END",NA,NA,NA,NA,NA,NA,0,NA,NA,NA,NA,"","",NA,"","",NA,"SUPPRF05688"
"1",1697802028325,"20/10/2023 11:40:28",1697805628325,1,"20/10/2023 13:40:28",147683,3,"task-gjqt",NA,32380901,9577436,NA,"complete",NA,"653274794c2d3cfdfbb3c7b1","computer","Desktop or Laptop","Windows 10","Firefox 120.0","2560x1440","1279x1286",NA,NA,0,"BIQ (Charlotte)",3,"GHFIEJDACB","Passed AC2",NA,"Spreadsheet1",NA,"","","",NA,"5","BEGIN",NA,NA,NA,NA,NA,NA,0,NA,NA,NA,NA,"","",NA,"","",NA,"SUPPRF44350"
"2",1697802065978,"20/10/2023 11:41:05",1697805665978,1,"20/10/2023 13:41:05",147683,3,"task-gjqt",NA,32380901,9577436,NA,"complete",NA,"653274794c2d3cfdfbb3c7b1","computer","Desktop or Laptop","Windows 10","Firefox 120.0","2560x1440","1279x1286",NA,NA,0,"BIQ (Charlotte)",3,"GHFIEJDACB","Passed AC2",NA,"Spreadsheet1",1,"BIQ","Screen 1","9dh6eq",1,"continue","",38919,38904.86,38919,38919,38904.86,38919,1,38919,0,0,NA,"Click To Continue","Continue Button",23,"object-48","BIQ",NA,"SUPPRF44350"
"3",1697802065981,"20/10/2023 11:41:05",1697805665981,1,"20/10/2023 13:41:05",147683,3,"task-gjqt",NA,32380901,9577436,NA,"complete",NA,"653274794c2d3cfdfbb3c7b1","computer","Desktop or Laptop","Windows 10","Firefox 120.0","2560x1440","1279x1286",NA,NA,0,"BIQ (Charlotte)",3,"GHFIEJDACB","Passed AC2",NA,"Spreadsheet1",1,"BIQ","Screen 1","9dh6eq",1,"response","8",20568.68,38904.86,38921.52,20568.68,38904.86,38921.52,1,20568.68,18352.84,0,NA,"Rating Scale","Rating Scale",3,"object-5","BIQ",NA,"SUPPRF44350"
"4",1697802065981,"20/10/2023 11:41:05",1697805665981,1,"20/10/2023 13:41:05",147683,3,"task-gjqt",NA,32380901,9577436,NA,"complete",NA,"653274794c2d3cfdfbb3c7b1","computer","Desktop or Laptop","Windows 10","Firefox 120.0","2560x1440","1279x1286",NA,NA,0,"BIQ (Charlotte)",3,"GHFIEJDACB","Passed AC2",NA,"Spreadsheet1",1,"BIQ","Screen 1","9dh6eq",1,"response","7",26752.32,38904.86,38921.52,26752.32,38904.86,38921.52,1,26752.32,12169.2,0,NA,"Rating Scale","Rating Scale",10,"object-18","BIQ",NA,"SUPPRF44350"
"5",1697802065981,"20/10/2023 11:41:05",1697805665981,1,"20/10/2023 13:41:05",147683,3,"task-gjqt",NA,32380901,9577436,NA,"complete",NA,"653274794c2d3cfdfbb3c7b1","computer","Desktop or Laptop","Windows 10","Firefox 120.0","2560x1440","1279x1286",NA,NA,0,"BIQ (Charlotte)",3,"GHFIEJDACB","Passed AC2",NA,"Spreadsheet1",1,"BIQ","Screen 1","9dh6eq",1,"response","0",30252.48,38904.86,38921.52,30252.48,38904.86,38921.52,1,30252.48,8669.04,0,NA,"Rating Scale","Rating Scale",17,"object-80","BIQ",NA,"SUPPRF44350"
"6",1697802090954,"20/10/2023 11:41:30",1697805690954,1,"20/10/2023 13:41:30",147683,3,"task-gjqt",NA,32380901,9577436,NA,"complete",NA,"653274794c2d3cfdfbb3c7b1","computer","Desktop or Laptop","Windows 10","Firefox 120.0","2560x1440","1279x1286",NA,NA,0,"BIQ (Charlotte)",3,"GHFIEJDACB","Passed AC2",NA,"Spreadsheet1",1,"BIQ","Screen 2","o21mwi",2,"continue","",24990.14,24984.58,24990.14,24990.14,24984.58,24990.14,1,24990.14,0,0,NA,"Click To Continue","Continue Button",22,"object-50","BIQ",NA,"SUPPRF44350"
"7",1697802090955,"20/10/2023 11:41:30",1697805690955,1,"20/10/2023 13:41:30",147683,3,"task-gjqt",NA,32380901,9577436,NA,"complete",NA,"653274794c2d3cfdfbb3c7b1","computer","Desktop or Laptop","Windows 10","Firefox 120.0","2560x1440","1279x1286",NA,NA,0,"BIQ (Charlotte)",3,"GHFIEJDACB","Passed AC2",NA,"Spreadsheet1",1,"BIQ","Screen 2","o21mwi",2,"response","7",3900.2,24984.58,24991.14,3900.2,24984.58,24991.14,1,3900.2,21090.94,0,NA,"Rating Scale","Rating Scale",2,"object-259","BIQ",NA,"SUPPRF44350"
"8",1697802090955,"20/10/2023 11:41:30",1697805690955,1,"20/10/2023 13:41:30",147683,3,"task-gjqt",NA,32380901,9577436,NA,"complete",NA,"653274794c2d3cfdfbb3c7b1","computer","Desktop or Laptop","Windows 10","Firefox 120.0","2560x1440","1279x1286",NA,NA,0,"BIQ (Charlotte)",3,"GHFIEJDACB","Passed AC2",NA,"Spreadsheet1",1,"BIQ","Screen 2","o21mwi",2,"response","0",12067.28,24984.58,24991.14,12067.28,24984.58,24991.14,1,12067.28,12923.86,0,NA,"Rating Scale","Rating Scale",9,"object-36","BIQ",NA,"SUPPRF44350"
"9",1697802090956,"20/10/2023 11:41:30",1697805690956,1,"20/10/2023 13:41:30",147683,3,"task-gjqt",NA,32380901,9577436,NA,"complete",NA,"653274794c2d3cfdfbb3c7b1","computer","Desktop or Laptop","Windows 10","Firefox 120.0","2560x1440","1279x1286",NA,NA,0,"BIQ (Charlotte)",3,"GHFIEJDACB","Passed AC2",NA,"Spreadsheet1",1,"BIQ","Screen 2","o21mwi",2,"response","0",22084.44,24984.58,24992.14,22084.44,24984.58,24992.14,1,22084.44,2907.7,0,NA,"Rating Scale","Rating Scale",16,"object-86","BIQ",NA,"SUPPRF44350"
"10",1697802114539,"20/10/2023 11:41:54",1697805714539,1,"20/10/2023 13:41:54",147683,3,"task-gjqt",NA,32380901,9577436,NA,"complete",NA,"653274794c2d3cfdfbb3c7b1","computer","Desktop or Laptop","Windows 10","Firefox 120.0","2560x1440","1279x1286",NA,NA,0,"BIQ (Charlotte)",3,"GHFIEJDACB","Passed AC2",NA,"Spreadsheet1",1,"BIQ","Screen 3","iz3the",3,"continue","",23590.56,23586.42,23590.56,23590.56,23586.42,23590.56,1,23590.56,0,0,NA,"Click To Continue","Continue Button",22,"object-73","BIQ",NA,"SUPPRF44350"
"11",1697802114540,"20/10/2023 11:41:54",1697805714540,1,"20/10/2023 13:41:54",147683,3,"task-gjqt",NA,32380901,9577436,NA,"complete",NA,"653274794c2d3cfdfbb3c7b1","computer","Desktop or Laptop","Windows 10","Firefox 120.0","2560x1440","1279x1286",NA,NA,0,"BIQ (Charlotte)",3,"GHFIEJDACB","Passed AC2",NA,"Spreadsheet1",1,"BIQ","Screen 3","iz3the",3,"response","0",6402.22,23586.42,23591.56,6402.22,23586.42,23591.56,1,6402.22,17189.34,0,NA,"Rating Scale","Rating Scale",2,"object-53","BIQ",NA,"SUPPRF44350"
"12",1697802114540,"20/10/2023 11:41:54",1697805714540,1,"20/10/2023 13:41:54",147683,3,"task-gjqt",NA,32380901,9577436,NA,"complete",NA,"653274794c2d3cfdfbb3c7b1","computer","Desktop or Laptop","Windows 10","Firefox 120.0","2560x1440","1279x1286",NA,NA,0,"BIQ (Charlotte)",3,"GHFIEJDACB","Passed AC2",NA,"Spreadsheet1",1,"BIQ","Screen 3","iz3the",3,"response","0",11402.48,23586.42,23591.56,11402.48,23586.42,23591.56,1,11402.48,12189.08,0,NA,"Rating Scale","Rating Scale",9,"object-60","BIQ",NA,"SUPPRF44350"
"13",1697802114540,"20/10/2023 11:41:54",1697805714540,1,"20/10/2023 13:41:54",147683,3,"task-gjqt",NA,32380901,9577436,NA,"complete",NA,"653274794c2d3cfdfbb3c7b1","computer","Desktop or Laptop","Windows 10","Firefox 120.0","2560x1440","1279x1286",NA,NA,0,"BIQ (Charlotte)",3,"GHFIEJDACB","Passed AC2",NA,"Spreadsheet1",1,"BIQ","Screen 3","iz3the",3,"response","2",14969.32,23586.42,23591.56,14969.32,23586.42,23591.56,1,14969.32,8622.24000000001,0,NA,"Rating Scale","Rating Scale",16,"object-67","BIQ",NA,"SUPPRF44350"
"14",1697802114541,"20/10/2023 11:41:54",1697805714541,1,"20/10/2023 13:41:54",147683,3,"task-gjqt",NA,32380901,9577436,NA,"complete",NA,"653274794c2d3cfdfbb3c7b1","computer","Desktop or Laptop","Windows 10","Firefox 120.0","2560x1440","1279x1286",NA,NA,0,"BIQ (Charlotte)",3,"GHFIEJDACB","Passed AC2",NA,"Spreadsheet1",NA,"","","",NA,"5","END",NA,NA,NA,NA,NA,NA,0,NA,NA,NA,NA,"","",NA,"","",NA,"SUPPRF44350"
"1",1697802033454,"20/10/2023 11:40:33",1697805633454,1,"20/10/2023 13:40:33",147683,3,"task-gjqt",NA,32380903,9577338,NA,"complete",NA,"6532739f2c4691903668628b","computer","Desktop or Laptop","Windows 10","Chrome 118.0.0.0","1536x1024","1536x867",NA,NA,0,"BIQ (Charlotte)",3,"CDBEAFJGIH","Passed AC2",NA,"Spreadsheet1",NA,"","","",NA,"5","BEGIN",NA,NA,NA,NA,NA,NA,0,NA,NA,NA,NA,"","",NA,"","",NA,"SUPPRF06488"
"2",1697802056841,"20/10/2023 11:40:56",1697805656841,1,"20/10/2023 13:40:56",147683,3,"task-gjqt",NA,32380903,9577338,NA,"complete",NA,"6532739f2c4691903668628b","computer","Desktop or Laptop","Windows 10","Chrome 118.0.0.0","1536x1024","1536x867",NA,NA,0,"BIQ (Charlotte)",3,"CDBEAFJGIH","Passed AC2",NA,"Spreadsheet1",1,"BIQ","Screen 1","9dh6eq",1,"continue","",24091.599999994,24075.644,24091.599999994,24091.599999994,24075.644,24091.599999994,1,24091.599999994,0,0,NA,"Click To Continue","Continue Button",23,"object-48","BIQ",NA,"SUPPRF06488"
"3",1697802056845,"20/10/2023 11:40:56",1697805656845,1,"20/10/2023 13:40:56",147683,3,"task-gjqt",NA,32380903,9577338,NA,"complete",NA,"6532739f2c4691903668628b","computer","Desktop or Laptop","Windows 10","Chrome 118.0.0.0","1536x1024","1536x867",NA,NA,0,"BIQ (Charlotte)",3,"CDBEAFJGIH","Passed AC2",NA,"Spreadsheet1",1,"BIQ","Screen 1","9dh6eq",1,"response","5",9324.634,24075.644,24092.568,9324.634,24075.644,24092.568,1,9324.634,14767.934,0,NA,"Rating Scale","Rating Scale",3,"object-5","BIQ",NA,"SUPPRF06488"
"4",1697802056846,"20/10/2023 11:40:56",1697805656846,1,"20/10/2023 13:40:56",147683,3,"task-gjqt",NA,32380903,9577338,NA,"complete",NA,"6532739f2c4691903668628b","computer","Desktop or Laptop","Windows 10","Chrome 118.0.0.0","1536x1024","1536x867",NA,NA,0,"BIQ (Charlotte)",3,"CDBEAFJGIH","Passed AC2",NA,"Spreadsheet1",1,"BIQ","Screen 1","9dh6eq",1,"response","4",16208.338,24075.644,24092.568,16208.338,24075.644,24092.568,1,16208.338,7884.23,0,NA,"Rating Scale","Rating Scale",10,"object-18","BIQ",NA,"SUPPRF06488"
"5",1697802056848,"20/10/2023 11:40:56",1697805656848,1,"20/10/2023 13:40:56",147683,3,"task-gjqt",NA,32380903,9577338,NA,"complete",NA,"6532739f2c4691903668628b","computer","Desktop or Laptop","Windows 10","Chrome 118.0.0.0","1536x1024","1536x867",NA,NA,0,"BIQ (Charlotte)",3,"CDBEAFJGIH","Passed AC2",NA,"Spreadsheet1",1,"BIQ","Screen 1","9dh6eq",1,"response","2",23442.014,24075.644,24092.568,23442.014,24075.644,24092.568,1,23442.014,650.554,0,NA,"Rating Scale","Rating Scale",17,"object-80","BIQ",NA,"SUPPRF06488"
"6",1697802069739,"20/10/2023 11:41:09",1697805669739,1,"20/10/2023 13:41:09",147683,3,"task-gjqt",NA,32380903,9577338,NA,"complete",NA,"6532739f2c4691903668628b","computer","Desktop or Laptop","Windows 10","Chrome 118.0.0.0","1536x1024","1536x867",NA,NA,0,"BIQ (Charlotte)",3,"CDBEAFJGIH","Passed AC2",NA,"Spreadsheet1",1,"BIQ","Screen 2","o21mwi",2,"continue","",12914.655999997,12900.226,12914.655999997,12914.655999997,12900.226,12914.655999997,1,12914.655999997,0,0,NA,"Click To Continue","Continue Button",22,"object-50","BIQ",NA,"SUPPRF06488"
"7",1697802069744,"20/10/2023 11:41:09",1697805669744,1,"20/10/2023 13:41:09",147683,3,"task-gjqt",NA,32380903,9577338,NA,"complete",NA,"6532739f2c4691903668628b","computer","Desktop or Laptop","Windows 10","Chrome 118.0.0.0","1536x1024","1536x867",NA,NA,0,"BIQ (Charlotte)",3,"CDBEAFJGIH","Passed AC2",NA,"Spreadsheet1",1,"BIQ","Screen 2","o21mwi",2,"response","7",3516.416,12900.226,12916.418,3516.416,12900.226,12916.418,1,3516.416,9400.002,0,NA,"Rating Scale","Rating Scale",2,"object-259","BIQ",NA,"SUPPRF06488"
"8",1697802069745,"20/10/2023 11:41:09",1697805669745,1,"20/10/2023 13:41:09",147683,3,"task-gjqt",NA,32380903,9577338,NA,"complete",NA,"6532739f2c4691903668628b","computer","Desktop or Laptop","Windows 10","Chrome 118.0.0.0","1536x1024","1536x867",NA,NA,0,"BIQ (Charlotte)",3,"CDBEAFJGIH","Passed AC2",NA,"Spreadsheet1",1,"BIQ","Screen 2","o21mwi",2,"response","2",6233.643,12900.226,12916.418,6233.643,12900.226,12916.418,1,6233.643,6682.77500000001,0,NA,"Rating Scale","Rating Scale",9,"object-36","BIQ",NA,"SUPPRF06488"
"9",1697802069746,"20/10/2023 11:41:09",1697805669746,1,"20/10/2023 13:41:09",147683,3,"task-gjqt",NA,32380903,9577338,NA,"complete",NA,"6532739f2c4691903668628b","computer","Desktop or Laptop","Windows 10","Chrome 118.0.0.0","1536x1024","1536x867",NA,NA,0,"BIQ (Charlotte)",3,"CDBEAFJGIH","Passed AC2",NA,"Spreadsheet1",1,"BIQ","Screen 2","o21mwi",2,"response","3",10733.441,12900.226,12916.418,10733.441,12900.226,12916.418,1,10733.441,2182.97700000001,0,NA,"Rating Scale","Rating Scale",16,"object-86","BIQ",NA,"SUPPRF06488"
"10",1697802079249,"20/10/2023 11:41:19",1697805679249,1,"20/10/2023 13:41:19",147683,3,"task-gjqt",NA,32380903,9577338,NA,"complete",NA,"6532739f2c4691903668628b","computer","Desktop or Laptop","Windows 10","Chrome 118.0.0.0","1536x1024","1536x867",NA,NA,0,"BIQ (Charlotte)",3,"CDBEAFJGIH","Passed AC2",NA,"Spreadsheet1",1,"BIQ","Screen 3","iz3the",3,"continue","",9524.63,9516.995,9524.63,9524.63,9516.995,9524.63,1,9524.63,0,0,NA,"Click To Continue","Continue Button",22,"object-73","BIQ",NA,"SUPPRF06488"
"11",1697802079250,"20/10/2023 11:41:19",1697805679250,1,"20/10/2023 13:41:19",147683,3,"task-gjqt",NA,32380903,9577338,NA,"complete",NA,"6532739f2c4691903668628b","computer","Desktop or Laptop","Windows 10","Chrome 118.0.0.0","1536x1024","1536x867",NA,NA,0,"BIQ (Charlotte)",3,"CDBEAFJGIH","Passed AC2",NA,"Spreadsheet1",1,"BIQ","Screen 3","iz3the",3,"response","1",2200.13299999999,9516.995,9525.52999999106,2200.13299999999,9516.995,9525.52999999106,1,2200.13299999999,7325.39699999106,0,NA,"Rating Scale","Rating Scale",2,"object-53","BIQ",NA,"SUPPRF06488"
"12",1697802079251,"20/10/2023 11:41:19",1697805679251,1,"20/10/2023 13:41:19",147683,3,"task-gjqt",NA,32380903,9577338,NA,"complete",NA,"6532739f2c4691903668628b","computer","Desktop or Laptop","Windows 10","Chrome 118.0.0.0","1536x1024","1536x867",NA,NA,0,"BIQ (Charlotte)",3,"CDBEAFJGIH","Passed AC2",NA,"Spreadsheet1",1,"BIQ","Screen 3","iz3the",3,"response","1",5917.905,9516.995,9526.42999999702,5917.905,9516.995,9526.42999999702,1,5917.905,3608.52499999702,0,NA,"Rating Scale","Rating Scale",9,"object-60","BIQ",NA,"SUPPRF06488"
"13",1697802079252,"20/10/2023 11:41:19",1697805679252,1,"20/10/2023 13:41:19",147683,3,"task-gjqt",NA,32380903,9577338,NA,"complete",NA,"6532739f2c4691903668628b","computer","Desktop or Laptop","Windows 10","Chrome 118.0.0.0","1536x1024","1536x867",NA,NA,0,"BIQ (Charlotte)",3,"CDBEAFJGIH","Passed AC2",NA,"Spreadsheet1",1,"BIQ","Screen 3","iz3the",3,"response","2",8000.416,9516.995,9527.32999998808,8000.416,9516.995,9527.32999998808,1,8000.416,1526.91399998808,0,NA,"Rating Scale","Rating Scale",16,"object-67","BIQ",NA,"SUPPRF06488"
"14",1697802079260,"20/10/2023 11:41:19",1697805679260,1,"20/10/2023 13:41:19",147683,3,"task-gjqt",NA,32380903,9577338,NA,"complete",NA,"6532739f2c4691903668628b","computer","Desktop or Laptop","Windows 10","Chrome 118.0.0.0","1536x1024","1536x867",NA,NA,0,"BIQ (Charlotte)",3,"CDBEAFJGIH","Passed AC2",NA,"Spreadsheet1",NA,"","","",NA,"5","END",NA,NA,NA,NA,NA,NA,0,NA,NA,NA,NA,"","",NA,"","",NA,"SUPPRF06488"
"1",1697802057233,"20/10/2023 11:40:57",1697805657233,1,"20/10/2023 13:40:57",147683,3,"task-gjqt",NA,32380908,9577396,NA,"complete",NA,"6532741adb139ac3ecdd48d4","computer","Desktop or Laptop","Mac OS 10.15.7","Chrome 117.0.0.0","1440x900","794x741",NA,NA,0,"BIQ (Charlotte)",3,"DECFBGAHJI","Passed AC2",NA,"Spreadsheet1",NA,"","","",NA,"5","BEGIN",NA,NA,NA,NA,NA,NA,0,NA,NA,NA,NA,"","",NA,"","",NA,"SUPPRF45081"
"2",1697802083295,"20/10/2023 11:41:23",1697805683295,1,"20/10/2023 13:41:23",147683,3,"task-gjqt",NA,32380908,9577396,NA,"complete",NA,"6532741adb139ac3ecdd48d4","computer","Desktop or Laptop","Mac OS 10.15.7","Chrome 117.0.0.0","1440x900","794x741",NA,NA,0,"BIQ (Charlotte)",3,"DECFBGAHJI","Passed AC2",NA,"Spreadsheet1",1,"BIQ","Screen 1","9dh6eq",1,"continue","",26083.132,26066.466,26083.132,26083.132,26066.466,26083.132,1,26083.132,0,0,NA,"Click To Continue","Continue Button",23,"object-48","BIQ",NA,"SUPPRF45081"
"3",1697802083298,"20/10/2023 11:41:23",1697805683298,1,"20/10/2023 13:41:23",147683,3,"task-gjqt",NA,32380908,9577396,NA,"complete",NA,"6532741adb139ac3ecdd48d4","computer","Desktop or Laptop","Mac OS 10.15.7","Chrome 117.0.0.0","1440x900","794x741",NA,NA,0,"BIQ (Charlotte)",3,"DECFBGAHJI","Passed AC2",NA,"Spreadsheet1",1,"BIQ","Screen 1","9dh6eq",1,"response","6",18399.869,26066.466,26083.132,18399.869,26066.466,26083.132,1,18399.869,7683.263,0,NA,"Rating Scale","Rating Scale",3,"object-5","BIQ",NA,"SUPPRF45081"
"4",1697802083299,"20/10/2023 11:41:23",1697805683299,1,"20/10/2023 13:41:23",147683,3,"task-gjqt",NA,32380908,9577396,NA,"complete",NA,"6532741adb139ac3ecdd48d4","computer","Desktop or Laptop","Mac OS 10.15.7","Chrome 117.0.0.0","1440x900","794x741",NA,NA,0,"BIQ (Charlotte)",3,"DECFBGAHJI","Passed AC2",NA,"Spreadsheet1",1,"BIQ","Screen 1","9dh6eq",1,"response","1",21549.743,26066.466,26083.132,21549.743,26066.466,26083.132,1,21549.743,4533.389,0,NA,"Rating Scale","Rating Scale",10,"object-18","BIQ",NA,"SUPPRF45081"
"5",1697802083300,"20/10/2023 11:41:23",1697805683300,1,"20/10/2023 13:41:23",147683,3,"task-gjqt",NA,32380908,9577396,NA,"complete",NA,"6532741adb139ac3ecdd48d4","computer","Desktop or Laptop","Mac OS 10.15.7","Chrome 117.0.0.0","1440x900","794x741",NA,NA,0,"BIQ (Charlotte)",3,"DECFBGAHJI","Passed AC2",NA,"Spreadsheet1",1,"BIQ","Screen 1","9dh6eq",1,"response","8",25316.496,26066.466,26083.132,25316.496,26066.466,26083.132,1,25316.496,766.636000000002,0,NA,"Rating Scale","Rating Scale",17,"object-80","BIQ",NA,"SUPPRF45081"
"6",1697802108781,"20/10/2023 11:41:48",1697805708781,1,"20/10/2023 13:41:48",147683,3,"task-gjqt",NA,32380908,9577396,NA,"complete",NA,"6532741adb139ac3ecdd48d4","computer","Desktop or Laptop","Mac OS 10.15.7","Chrome 117.0.0.0","1440x900","794x741",NA,NA,0,"BIQ (Charlotte)",3,"DECFBGAHJI","Passed AC2",NA,"Spreadsheet1",1,"BIQ","Screen 2","o21mwi",2,"continue","",25505.0239999881,25499.551,25505.0239999881,25505.0239999881,25499.551,25505.0239999881,1,25505.0239999881,0,0,NA,"Click To Continue","Continue Button",22,"object-50","BIQ",NA,"SUPPRF45081"
"7",1697802108787,"20/10/2023 11:41:48",1697805708787,1,"20/10/2023 13:41:48",147683,3,"task-gjqt",NA,32380908,9577396,NA,"complete",NA,"6532741adb139ac3ecdd48d4","computer","Desktop or Laptop","Mac OS 10.15.7","Chrome 117.0.0.0","1440x900","794x741",NA,NA,0,"BIQ (Charlotte)",3,"DECFBGAHJI","Passed AC2",NA,"Spreadsheet1",1,"BIQ","Screen 2","o21mwi",2,"response","4",6850.029,25499.551,25510.5239999881,6850.029,25499.551,25510.5239999881,1,6850.029,18660.4949999881,0,NA,"Rating Scale","Rating Scale",2,"object-259","BIQ",NA,"SUPPRF45081"
"8",1697802108788,"20/10/2023 11:41:48",1697805708788,1,"20/10/2023 13:41:48",147683,3,"task-gjqt",NA,32380908,9577396,NA,"complete",NA,"6532741adb139ac3ecdd48d4","computer","Desktop or Laptop","Mac OS 10.15.7","Chrome 117.0.0.0","1440x900","794x741",NA,NA,0,"BIQ (Charlotte)",3,"DECFBGAHJI","Passed AC2",NA,"Spreadsheet1",1,"BIQ","Screen 2","o21mwi",2,"response","8",10699.875,25499.551,25512.1240000119,10699.875,25499.551,25512.1240000119,1,10699.875,14812.2490000119,0,NA,"Rating Scale","Rating Scale",9,"object-36","BIQ",NA,"SUPPRF45081"
"9",1697802108788,"20/10/2023 11:41:48",1697805708788,1,"20/10/2023 13:41:48",147683,3,"task-gjqt",NA,32380908,9577396,NA,"complete",NA,"6532741adb139ac3ecdd48d4","computer","Desktop or Laptop","Mac OS 10.15.7","Chrome 117.0.0.0","1440x900","794x741",NA,NA,0,"BIQ (Charlotte)",3,"DECFBGAHJI","Passed AC2",NA,"Spreadsheet1",1,"BIQ","Screen 2","o21mwi",2,"response","7",24666.251,25499.551,25512.7239999762,24666.251,25499.551,25512.7239999762,1,24666.251,846.472999976155,0,NA,"Rating Scale","Rating Scale",16,"object-86","BIQ",NA,"SUPPRF45081"
"10",1697802126871,"20/10/2023 11:42:06",1697805726871,1,"20/10/2023 13:42:06",147683,3,"task-gjqt",NA,32380908,9577396,NA,"complete",NA,"6532741adb139ac3ecdd48d4","computer","Desktop or Laptop","Mac OS 10.15.7","Chrome 117.0.0.0","1440x900","794x741",NA,NA,0,"BIQ (Charlotte)",3,"DECFBGAHJI","Passed AC2",NA,"Spreadsheet1",1,"BIQ","Screen 3","iz3the",3,"continue","",18094.9729999881,18083.145,18094.9729999881,18094.9729999881,18083.145,18094.9729999881,1,18094.9729999881,0,0,NA,"Click To Continue","Continue Button",22,"object-73","BIQ",NA,"SUPPRF45081"
"11",1697802126876,"20/10/2023 11:42:06",1697805726876,1,"20/10/2023 13:42:06",147683,3,"task-gjqt",NA,32380908,9577396,NA,"complete",NA,"6532741adb139ac3ecdd48d4","computer","Desktop or Laptop","Mac OS 10.15.7","Chrome 117.0.0.0","1440x900","794x741",NA,NA,0,"BIQ (Charlotte)",3,"DECFBGAHJI","Passed AC2",NA,"Spreadsheet1",1,"BIQ","Screen 3","iz3the",3,"response","0",7349.975,18083.145,18099.811,7349.975,18083.145,18099.811,1,7349.975,10749.836,0,NA,"Rating Scale","Rating Scale",2,"object-53","BIQ",NA,"SUPPRF45081"
"12",1697802126878,"20/10/2023 11:42:06",1697805726878,1,"20/10/2023 13:42:06",147683,3,"task-gjqt",NA,32380908,9577396,NA,"complete",NA,"6532741adb139ac3ecdd48d4","computer","Desktop or Laptop","Mac OS 10.15.7","Chrome 117.0.0.0","1440x900","794x741",NA,NA,0,"BIQ (Charlotte)",3,"DECFBGAHJI","Passed AC2",NA,"Spreadsheet1",1,"BIQ","Screen 3","iz3the",3,"response","5",14666.615,18083.145,18099.811,14666.615,18083.145,18099.811,1,14666.615,3433.196,0,NA,"Rating Scale","Rating Scale",9,"object-60","BIQ",NA,"SUPPRF45081"
"13",1697802126880,"20/10/2023 11:42:06",1697805726880,1,"20/10/2023 13:42:06",147683,3,"task-gjqt",NA,32380908,9577396,NA,"complete",NA,"6532741adb139ac3ecdd48d4","computer","Desktop or Laptop","Mac OS 10.15.7","Chrome 117.0.0.0","1440x900","794x741",NA,NA,0,"BIQ (Charlotte)",3,"DECFBGAHJI","Passed AC2",NA,"Spreadsheet1",1,"BIQ","Screen 3","iz3the",3,"response","4",17333.175,18083.145,18099.811,17333.175,18083.145,18099.811,1,17333.175,766.635999999999,0,NA,"Rating Scale","Rating Scale",16,"object-67","BIQ",NA,"SUPPRF45081"
"14",1697802126888,"20/10/2023 11:42:06",1697805726888,1,"20/10/2023 13:42:06",147683,3,"task-gjqt",NA,32380908,9577396,NA,"complete",NA,"6532741adb139ac3ecdd48d4","computer","Desktop or Laptop","Mac OS 10.15.7","Chrome 117.0.0.0","1440x900","794x741",NA,NA,0,"BIQ (Charlotte)",3,"DECFBGAHJI","Passed AC2",NA,"Spreadsheet1",NA,"","","",NA,"5","END",NA,NA,NA,NA,NA,NA,0,NA,NA,NA,NA,"","",NA,"","",NA,"SUPPRF45081"
"1",1697802114653,"20/10/2023 11:41:54",1697805714653,1,"20/10/2023 13:41:54",147683,3,"task-gjqt",NA,32380929,9577244,NA,"complete",NA,"653272c16dd19336f4549895","computer","Desktop or Laptop","Windows 10","Chrome 118.0.0.0","1366x768","1366x619",NA,NA,0,"BIQ (Charlotte)",3,"BCADJEIFHG","Passed AC2",NA,"Spreadsheet1",NA,"","","",NA,"5","BEGIN",NA,NA,NA,NA,NA,NA,0,NA,NA,NA,NA,"","",NA,"","",NA,"SUPPRF78020"
"2",1697802161784,"20/10/2023 11:42:41",1697805761784,1,"20/10/2023 13:42:41",147683,3,"task-gjqt",NA,32380929,9577244,NA,"complete",NA,"653272c16dd19336f4549895","computer","Desktop or Laptop","Windows 10","Chrome 118.0.0.0","1366x768","1366x619",NA,NA,0,"BIQ (Charlotte)",3,"BCADJEIFHG","Passed AC2",NA,"Spreadsheet1",1,"BIQ","Screen 1","9dh6eq",1,"continue","",47137.5849999523,47129.828,47137.5849999523,47137.5849999523,47129.828,47137.5849999523,1,47137.5849999523,0,0,NA,"Click To Continue","Continue Button",23,"object-48","BIQ",NA,"SUPPRF78020"
"3",1697802161786,"20/10/2023 11:42:41",1697805761786,1,"20/10/2023 13:42:41",147683,3,"task-gjqt",NA,32380929,9577244,NA,"complete",NA,"653272c16dd19336f4549895","computer","Desktop or Laptop","Windows 10","Chrome 118.0.0.0","1366x768","1366x619",NA,NA,0,"BIQ (Charlotte)",3,"BCADJEIFHG","Passed AC2",NA,"Spreadsheet1",1,"BIQ","Screen 1","9dh6eq",1,"response","6",15465.514,47129.828,47140.785,15465.514,47129.828,47140.785,1,15465.514,31675.271,0,NA,"Rating Scale","Rating Scale",3,"object-5","BIQ",NA,"SUPPRF78020"
"4",1697802161787,"20/10/2023 11:42:41",1697805761787,1,"20/10/2023 13:42:41",147683,3,"task-gjqt",NA,32380929,9577244,NA,"complete",NA,"653272c16dd19336f4549895","computer","Desktop or Laptop","Windows 10","Chrome 118.0.0.0","1366x768","1366x619",NA,NA,0,"BIQ (Charlotte)",3,"BCADJEIFHG","Passed AC2",NA,"Spreadsheet1",1,"BIQ","Screen 1","9dh6eq",1,"response","6",38580.586,47129.828,47141.6849999762,38580.586,47129.828,47141.6849999762,1,38580.586,8561.09899997616,0,NA,"Rating Scale","Rating Scale",10,"object-18","BIQ",NA,"SUPPRF78020"
"5",1697802161787,"20/10/2023 11:42:41",1697805761787,1,"20/10/2023 13:42:41",147683,3,"task-gjqt",NA,32380929,9577244,NA,"complete",NA,"653272c16dd19336f4549895","computer","Desktop or Laptop","Windows 10","Chrome 118.0.0.0","1366x768","1366x619",NA,NA,0,"BIQ (Charlotte)",3,"BCADJEIFHG","Passed AC2",NA,"Spreadsheet1",1,"BIQ","Screen 1","9dh6eq",1,"response","2",45896.712,47129.828,47142.0849999523,45896.712,47129.828,47142.0849999523,1,45896.712,1245.37299995231,0,NA,"Rating Scale","Rating Scale",17,"object-80","BIQ",NA,"SUPPRF78020"
"6",1697802178208,"20/10/2023 11:42:58",1697805778208,1,"20/10/2023 13:42:58",147683,3,"task-gjqt",NA,32380929,9577244,NA,"complete",NA,"653272c16dd19336f4549895","computer","Desktop or Laptop","Windows 10","Chrome 118.0.0.0","1366x768","1366x619",NA,NA,0,"BIQ (Charlotte)",3,"BCADJEIFHG","Passed AC2",NA,"Spreadsheet1",1,"BIQ","Screen 2","o21mwi",2,"continue","",16432.295,16415.553,16432.295,16432.295,16415.553,16432.295,1,16432.295,0,0,NA,"Click To Continue","Continue Button",22,"object-50","BIQ",NA,"SUPPRF78020"
"7",1697802178210,"20/10/2023 11:42:58",1697805778210,1,"20/10/2023 13:42:58",147683,3,"task-gjqt",NA,32380929,9577244,NA,"complete",NA,"653272c16dd19336f4549895","computer","Desktop or Laptop","Windows 10","Chrome 118.0.0.0","1366x768","1366x619",NA,NA,0,"BIQ (Charlotte)",3,"BCADJEIFHG","Passed AC2",NA,"Spreadsheet1",1,"BIQ","Screen 2","o21mwi",2,"response","0",5633.025,16415.553,16432.295,5633.025,16415.553,16432.295,1,5633.025,10799.27,0,NA,"Rating Scale","Rating Scale",2,"object-259","BIQ",NA,"SUPPRF78020"
"8",1697802178211,"20/10/2023 11:42:58",1697805778211,1,"20/10/2023 13:42:58",147683,3,"task-gjqt",NA,32380929,9577244,NA,"complete",NA,"653272c16dd19336f4549895","computer","Desktop or Laptop","Windows 10","Chrome 118.0.0.0","1366x768","1366x619",NA,NA,0,"BIQ (Charlotte)",3,"BCADJEIFHG","Passed AC2",NA,"Spreadsheet1",1,"BIQ","Screen 2","o21mwi",2,"response","0",9199.43900000001,16415.553,16432.295,9199.43900000001,16415.553,16432.295,1,9199.43900000001,7232.85599999999,0,NA,"Rating Scale","Rating Scale",9,"object-36","BIQ",NA,"SUPPRF78020"
"9",1697802178212,"20/10/2023 11:42:58",1697805778212,1,"20/10/2023 13:42:58",147683,3,"task-gjqt",NA,32380929,9577244,NA,"complete",NA,"653272c16dd19336f4549895","computer","Desktop or Laptop","Windows 10","Chrome 118.0.0.0","1366x768","1366x619",NA,NA,0,"BIQ (Charlotte)",3,"BCADJEIFHG","Passed AC2",NA,"Spreadsheet1",1,"BIQ","Screen 2","o21mwi",2,"response","0",15048.995,16415.553,16432.295,15048.995,16415.553,16432.295,1,15048.995,1383.3,0,NA,"Rating Scale","Rating Scale",16,"object-86","BIQ",NA,"SUPPRF78020"
"10",1697802189794,"20/10/2023 11:43:09",1697805789794,1,"20/10/2023 13:43:09",147683,3,"task-gjqt",NA,32380929,9577244,NA,"complete",NA,"653272c16dd19336f4549895","computer","Desktop or Laptop","Windows 10","Chrome 118.0.0.0","1366x768","1366x619",NA,NA,0,"BIQ (Charlotte)",3,"BCADJEIFHG","Passed AC2",NA,"Spreadsheet1",1,"BIQ","Screen 3","iz3the",3,"continue","",11603.5039999046,11599.251,11603.5039999046,11603.5039999046,11599.251,11603.5039999046,1,11603.5039999046,0,0,NA,"Click To Continue","Continue Button",22,"object-73","BIQ",NA,"SUPPRF78020"
"11",1697802189798,"20/10/2023 11:43:09",1697805789798,1,"20/10/2023 13:43:09",147683,3,"task-gjqt",NA,32380929,9577244,NA,"complete",NA,"653272c16dd19336f4549895","computer","Desktop or Laptop","Windows 10","Chrome 118.0.0.0","1366x768","1366x619",NA,NA,0,"BIQ (Charlotte)",3,"BCADJEIFHG","Passed AC2",NA,"Spreadsheet1",1,"BIQ","Screen 3","iz3the",3,"response","0",5716.221,11599.251,11606.904,5716.221,11599.251,11606.904,1,5716.221,5890.683,0,NA,"Rating Scale","Rating Scale",2,"object-53","BIQ",NA,"SUPPRF78020"
"12",1697802189798,"20/10/2023 11:43:09",1697805789798,1,"20/10/2023 13:43:09",147683,3,"task-gjqt",NA,32380929,9577244,NA,"complete",NA,"653272c16dd19336f4549895","computer","Desktop or Laptop","Windows 10","Chrome 118.0.0.0","1366x768","1366x619",NA,NA,0,"BIQ (Charlotte)",3,"BCADJEIFHG","Passed AC2",NA,"Spreadsheet1",1,"BIQ","Screen 3","iz3the",3,"response","0",8265.946,11599.251,11607.6039999285,8265.946,11599.251,11607.6039999285,1,8265.946,3341.65799992847,0,NA,"Rating Scale","Rating Scale",9,"object-60","BIQ",NA,"SUPPRF78020"
"13",1697802189799,"20/10/2023 11:43:09",1697805789799,1,"20/10/2023 13:43:09",147683,3,"task-gjqt",NA,32380929,9577244,NA,"complete",NA,"653272c16dd19336f4549895","computer","Desktop or Laptop","Windows 10","Chrome 118.0.0.0","1366x768","1366x619",NA,NA,0,"BIQ (Charlotte)",3,"BCADJEIFHG","Passed AC2",NA,"Spreadsheet1",1,"BIQ","Screen 3","iz3the",3,"response","0",10415.926,11599.251,11608.2039999523,10415.926,11599.251,11608.2039999523,1,10415.926,1192.27799995232,0,NA,"Rating Scale","Rating Scale",16,"object-67","BIQ",NA,"SUPPRF78020"
"14",1697802189804,"20/10/2023 11:43:09",1697805789804,1,"20/10/2023 13:43:09",147683,3,"task-gjqt",NA,32380929,9577244,NA,"complete",NA,"653272c16dd19336f4549895","computer","Desktop or Laptop","Windows 10","Chrome 118.0.0.0","1366x768","1366x619",NA,NA,0,"BIQ (Charlotte)",3,"BCADJEIFHG","Passed AC2",NA,"Spreadsheet1",NA,"","","",NA,"5","END",NA,NA,NA,NA,NA,NA,0,NA,NA,NA,NA,"","",NA,"","",NA,"SUPPRF78020"
"1",1697802317387,"20/10/2023 11:45:17",1697805917387,1,"20/10/2023 13:45:17",147683,3,"task-gjqt",NA,32381039,9577484,NA,"complete",NA,"653274e0a37f4de4ab6817c9","computer","Desktop or Laptop","Windows 10","Chrome 117.0.0.0","1920x1080","1920x963",NA,NA,0,"BIQ (Charlotte)",3,"HIGJFAEBDC","Passed AC2",NA,"Spreadsheet1",NA,"","","",NA,"5","BEGIN",NA,NA,NA,NA,NA,NA,0,NA,NA,NA,NA,"","",NA,"","",NA,"SUPPRF56321"
"2",1697802366468,"20/10/2023 11:46:06",1697805966468,1,"20/10/2023 13:46:06",147683,3,"task-gjqt",NA,32381039,9577484,NA,"complete",NA,"653274e0a37f4de4ab6817c9","computer","Desktop or Laptop","Windows 10","Chrome 117.0.0.0","1920x1080","1920x963",NA,NA,0,"BIQ (Charlotte)",3,"HIGJFAEBDC","Passed AC2",NA,"Spreadsheet1",NA,"","","",NA,"5","BEGIN",NA,NA,NA,NA,NA,NA,0,NA,NA,NA,NA,"","",NA,"","",NA,"SUPPRF56321"
"3",1697802379327,"20/10/2023 11:46:19",1697805979327,1,"20/10/2023 13:46:19",147683,3,"task-gjqt",NA,32381039,9577484,NA,"complete",NA,"653274e0a37f4de4ab6817c9","computer","Desktop or Laptop","Windows 10","Chrome 117.0.0.0","1920x1080","1920x963",NA,NA,0,"BIQ (Charlotte)",3,"HIGJFAEBDC","Passed AC2",NA,"Spreadsheet1",1,"BIQ","Screen 1","9dh6eq",1,"continue","",12881.131,12864.417,12881.131,12881.131,12864.417,12881.131,1,12881.131,0,0,NA,"Click To Continue","Continue Button",23,"object-48","BIQ",NA,"SUPPRF56321"
"4",1697802379335,"20/10/2023 11:46:19",1697805979335,1,"20/10/2023 13:46:19",147683,3,"task-gjqt",NA,32381039,9577484,NA,"complete",NA,"653274e0a37f4de4ab6817c9","computer","Desktop or Laptop","Windows 10","Chrome 117.0.0.0","1920x1080","1920x963",NA,NA,0,"BIQ (Charlotte)",3,"HIGJFAEBDC","Passed AC2",NA,"Spreadsheet1",1,"BIQ","Screen 1","9dh6eq",1,"response","7",5422.71,12864.417,12881.131,5422.71,12864.417,12881.131,1,5422.71,7458.421,0,NA,"Rating Scale","Rating Scale",3,"object-5","BIQ",NA,"SUPPRF56321"
"5",1697802379337,"20/10/2023 11:46:19",1697805979337,1,"20/10/2023 13:46:19",147683,3,"task-gjqt",NA,32381039,9577484,NA,"complete",NA,"653274e0a37f4de4ab6817c9","computer","Desktop or Laptop","Windows 10","Chrome 117.0.0.0","1920x1080","1920x963",NA,NA,0,"BIQ (Charlotte)",3,"HIGJFAEBDC","Passed AC2",NA,"Spreadsheet1",1,"BIQ","Screen 1","9dh6eq",1,"response","6",7274.79,12864.417,12881.131,7274.79,12864.417,12881.131,1,7274.79,5606.341,0,NA,"Rating Scale","Rating Scale",10,"object-18","BIQ",NA,"SUPPRF56321"
"6",1697802379338,"20/10/2023 11:46:19",1697805979338,1,"20/10/2023 13:46:19",147683,3,"task-gjqt",NA,32381039,9577484,NA,"complete",NA,"653274e0a37f4de4ab6817c9","computer","Desktop or Laptop","Windows 10","Chrome 117.0.0.0","1920x1080","1920x963",NA,NA,0,"BIQ (Charlotte)",3,"HIGJFAEBDC","Passed AC2",NA,"Spreadsheet1",1,"BIQ","Screen 1","9dh6eq",1,"response","4",10995.641,12864.417,12881.131,10995.641,12864.417,12881.131,1,10995.641,1885.49,0,NA,"Rating Scale","Rating Scale",17,"object-80","BIQ",NA,"SUPPRF56321"
"7",1697802415754,"20/10/2023 11:46:55",1697806015754,1,"20/10/2023 13:46:55",147683,3,"task-gjqt",NA,32381039,9577484,NA,"complete",NA,"653274e0a37f4de4ab6817c9","computer","Desktop or Laptop","Windows 10","Chrome 117.0.0.0","1920x1080","1920x963",NA,NA,0,"BIQ (Charlotte)",3,"HIGJFAEBDC","Passed AC2",NA,"Spreadsheet1",1,"BIQ","Screen 2","o21mwi",2,"continue","",36451.194,36440.842,36451.194,36451.194,36440.842,36451.194,1,36451.194,0,0,NA,"Click To Continue","Continue Button",22,"object-50","BIQ",NA,"SUPPRF56321"
"8",1697802415764,"20/10/2023 11:46:55",1697806015764,1,"20/10/2023 13:46:55",147683,3,"task-gjqt",NA,32381039,9577484,NA,"complete",NA,"653274e0a37f4de4ab6817c9","computer","Desktop or Laptop","Windows 10","Chrome 117.0.0.0","1920x1080","1920x963",NA,NA,0,"BIQ (Charlotte)",3,"HIGJFAEBDC","Passed AC2",NA,"Spreadsheet1",1,"BIQ","Screen 2","o21mwi",2,"response","7",9443.89,36440.842,36457.513,9443.89,36440.842,36457.513,1,9443.89,27013.623,0,NA,"Rating Scale","Rating Scale",2,"object-259","BIQ",NA,"SUPPRF56321"
"9",1697802415765,"20/10/2023 11:46:55",1697806015765,1,"20/10/2023 13:46:55",147683,3,"task-gjqt",NA,32381039,9577484,NA,"complete",NA,"653274e0a37f4de4ab6817c9","computer","Desktop or Laptop","Windows 10","Chrome 117.0.0.0","1920x1080","1920x963",NA,NA,0,"BIQ (Charlotte)",3,"HIGJFAEBDC","Passed AC2",NA,"Spreadsheet1",1,"BIQ","Screen 2","o21mwi",2,"response","1",19939.011,36440.842,36457.513,19939.011,36440.842,36457.513,1,19939.011,16518.502,0,NA,"Rating Scale","Rating Scale",9,"object-36","BIQ",NA,"SUPPRF56321"
"10",1697802415768,"20/10/2023 11:46:55",1697806015768,1,"20/10/2023 13:46:55",147683,3,"task-gjqt",NA,32381039,9577484,NA,"complete",NA,"653274e0a37f4de4ab6817c9","computer","Desktop or Laptop","Windows 10","Chrome 117.0.0.0","1920x1080","1920x963",NA,NA,0,"BIQ (Charlotte)",3,"HIGJFAEBDC","Passed AC2",NA,"Spreadsheet1",1,"BIQ","Screen 2","o21mwi",2,"response","0",35956.946,36440.842,36457.513,35956.946,36440.842,36457.513,1,35956.946,500.56700000001,0,NA,"Rating Scale","Rating Scale",16,"object-86","BIQ",NA,"SUPPRF56321"
"11",1697802446667,"20/10/2023 11:47:26",1697806046667,1,"20/10/2023 13:47:26",147683,3,"task-gjqt",NA,32381039,9577484,NA,"complete",NA,"653274e0a37f4de4ab6817c9","computer","Desktop or Laptop","Windows 10","Chrome 117.0.0.0","1920x1080","1920x963",NA,NA,0,"BIQ (Charlotte)",3,"HIGJFAEBDC","Passed AC2",NA,"Spreadsheet1",1,"BIQ","Screen 3","iz3the",3,"continue","",30922.752000006,30918.015,30922.752000006,30922.752000006,30918.015,30922.752000006,1,30922.752000006,0,0,NA,"Click To Continue","Continue Button",22,"object-73","BIQ",NA,"SUPPRF56321"
"12",1697802446676,"20/10/2023 11:47:26",1697806046676,1,"20/10/2023 13:47:26",147683,3,"task-gjqt",NA,32381039,9577484,NA,"complete",NA,"653274e0a37f4de4ab6817c9","computer","Desktop or Laptop","Windows 10","Chrome 117.0.0.0","1920x1080","1920x963",NA,NA,0,"BIQ (Charlotte)",3,"HIGJFAEBDC","Passed AC2",NA,"Spreadsheet1",1,"BIQ","Screen 3","iz3the",3,"response","0",13915.577,30918.015,30932.852,13915.577,30918.015,30932.852,1,13915.577,17017.275,0,NA,"Rating Scale","Rating Scale",2,"object-53","BIQ",NA,"SUPPRF56321"
"13",1697802446679,"20/10/2023 11:47:26",1697806046679,1,"20/10/2023 13:47:26",147683,3,"task-gjqt",NA,32381039,9577484,NA,"complete",NA,"653274e0a37f4de4ab6817c9","computer","Desktop or Laptop","Windows 10","Chrome 117.0.0.0","1920x1080","1920x963",NA,NA,0,"BIQ (Charlotte)",3,"HIGJFAEBDC","Passed AC2",NA,"Spreadsheet1",1,"BIQ","Screen 3","iz3the",3,"response","0",17085.834,30918.015,30934.698,17085.834,30918.015,30934.698,1,17085.834,13848.864,0,NA,"Rating Scale","Rating Scale",9,"object-60","BIQ",NA,"SUPPRF56321"
"14",1697802446681,"20/10/2023 11:47:26",1697806046681,1,"20/10/2023 13:47:26",147683,3,"task-gjqt",NA,32381039,9577484,NA,"complete",NA,"653274e0a37f4de4ab6817c9","computer","Desktop or Laptop","Windows 10","Chrome 117.0.0.0","1920x1080","1920x963",NA,NA,0,"BIQ (Charlotte)",3,"HIGJFAEBDC","Passed AC2",NA,"Spreadsheet1",1,"BIQ","Screen 3","iz3the",3,"response","3",23309.47,30918.015,30934.698,23309.47,30918.015,30934.698,1,23309.47,7625.228,0,NA,"Rating Scale","Rating Scale",16,"object-67","BIQ",NA,"SUPPRF56321"
"15",1697802446698,"20/10/2023 11:47:26",1697806046698,1,"20/10/2023 13:47:26",147683,3,"task-gjqt",NA,32381039,9577484,NA,"complete",NA,"653274e0a37f4de4ab6817c9","computer","Desktop or Laptop","Windows 10","Chrome 117.0.0.0","1920x1080","1920x963",NA,NA,0,"BIQ (Charlotte)",3,"HIGJFAEBDC","Passed AC2",NA,"Spreadsheet1",NA,"","","",NA,"5","END",NA,NA,NA,NA,NA,NA,0,NA,NA,NA,NA,"","",NA,"","",NA,"SUPPRF56321"
"1",1697802370410,"20/10/2023 11:46:10",1697805970410,1,"20/10/2023 13:46:10",147683,3,"task-gjqt",NA,32381061,9577503,NA,"complete",NA,"653274d8009590ef598fd9dd","computer","Desktop or Laptop","Windows 10","Chrome 118.0.0.0","1280x720","1280x563",NA,NA,0,"BIQ (Charlotte)",3,"IJHAGBFCED","Passed AC2",NA,"Spreadsheet1",NA,"","","",NA,"5","BEGIN",NA,NA,NA,NA,NA,NA,0,NA,NA,NA,NA,"","",NA,"","",NA,"SUPPRF38095"
"2",1697802404156,"20/10/2023 11:46:44",1697806004156,1,"20/10/2023 13:46:44",147683,3,"task-gjqt",NA,32381061,9577503,NA,"complete",NA,"653274d8009590ef598fd9dd","computer","Desktop or Laptop","Windows 10","Chrome 118.0.0.0","1280x720","1280x563",NA,NA,0,"BIQ (Charlotte)",3,"IJHAGBFCED","Passed AC2",NA,"Spreadsheet1",1,"BIQ","Screen 1","9dh6eq",1,"continue","",33800.13,33783.596,33800.13,33800.13,33783.596,33800.13,1,33800.13,0,0,NA,"Click To Continue","Continue Button",23,"object-48","BIQ",NA,"SUPPRF38095"
"3",1697802404160,"20/10/2023 11:46:44",1697806004160,1,"20/10/2023 13:46:44",147683,3,"task-gjqt",NA,32381061,9577503,NA,"complete",NA,"653274d8009590ef598fd9dd","computer","Desktop or Laptop","Windows 10","Chrome 118.0.0.0","1280x720","1280x563",NA,NA,0,"BIQ (Charlotte)",3,"IJHAGBFCED","Passed AC2",NA,"Spreadsheet1",1,"BIQ","Screen 1","9dh6eq",1,"response","6",14283.318,33783.596,33800.13,14283.318,33783.596,33800.13,1,14283.318,19516.812,0,NA,"Rating Scale","Rating Scale",3,"object-5","BIQ",NA,"SUPPRF38095"
"4",1697802404160,"20/10/2023 11:46:44",1697806004160,1,"20/10/2023 13:46:44",147683,3,"task-gjqt",NA,32381061,9577503,NA,"complete",NA,"653274d8009590ef598fd9dd","computer","Desktop or Laptop","Windows 10","Chrome 118.0.0.0","1280x720","1280x563",NA,NA,0,"BIQ (Charlotte)",3,"IJHAGBFCED","Passed AC2",NA,"Spreadsheet1",1,"BIQ","Screen 1","9dh6eq",1,"response","7",17566.659,33783.596,33800.13,17566.659,33783.596,33800.13,1,17566.659,16233.471,0,NA,"Rating Scale","Rating Scale",10,"object-18","BIQ",NA,"SUPPRF38095"
"5",1697802404161,"20/10/2023 11:46:44",1697806004161,1,"20/10/2023 13:46:44",147683,3,"task-gjqt",NA,32381061,9577503,NA,"complete",NA,"653274d8009590ef598fd9dd","computer","Desktop or Laptop","Windows 10","Chrome 118.0.0.0","1280x720","1280x563",NA,NA,0,"BIQ (Charlotte)",3,"IJHAGBFCED","Passed AC2",NA,"Spreadsheet1",1,"BIQ","Screen 1","9dh6eq",1,"response","1",30033.62,33783.596,33800.13,30033.62,33783.596,33800.13,1,30033.62,3766.50999999999,0,NA,"Rating Scale","Rating Scale",17,"object-80","BIQ",NA,"SUPPRF38095"
"6",1697802430710,"20/10/2023 11:47:10",1697806030710,1,"20/10/2023 13:47:10",147683,3,"task-gjqt",NA,32381061,9577503,NA,"complete",NA,"653274d8009590ef598fd9dd","computer","Desktop or Laptop","Windows 10","Chrome 118.0.0.0","1280x720","1280x563",NA,NA,0,"BIQ (Charlotte)",3,"IJHAGBFCED","Passed AC2",NA,"Spreadsheet1",1,"BIQ","Screen 2","o21mwi",2,"continue","",26576.5310000119,26567.22,26576.5310000119,26576.5310000119,26567.22,26576.5310000119,1,26576.5310000119,0,0,NA,"Click To Continue","Continue Button",22,"object-50","BIQ",NA,"SUPPRF38095"
"7",1697802430720,"20/10/2023 11:47:10",1697806030720,1,"20/10/2023 13:47:10",147683,3,"task-gjqt",NA,32381061,9577503,NA,"complete",NA,"653274d8009590ef598fd9dd","computer","Desktop or Laptop","Windows 10","Chrome 118.0.0.0","1280x720","1280x563",NA,NA,0,"BIQ (Charlotte)",3,"IJHAGBFCED","Passed AC2",NA,"Spreadsheet1",1,"BIQ","Screen 2","o21mwi",2,"response","8",1716.896,26567.22,26583.79,1716.896,26567.22,26583.79,1,1716.896,24866.894,0,NA,"Rating Scale","Rating Scale",2,"object-259","BIQ",NA,"SUPPRF38095"
"8",1697802430722,"20/10/2023 11:47:10",1697806030722,1,"20/10/2023 13:47:10",147683,3,"task-gjqt",NA,32381061,9577503,NA,"complete",NA,"653274d8009590ef598fd9dd","computer","Desktop or Laptop","Windows 10","Chrome 118.0.0.0","1280x720","1280x563",NA,NA,0,"BIQ (Charlotte)",3,"IJHAGBFCED","Passed AC2",NA,"Spreadsheet1",1,"BIQ","Screen 2","o21mwi",2,"response","1",14100.459,26567.22,26583.79,14100.459,26567.22,26583.79,1,14100.459,12483.331,0,NA,"Rating Scale","Rating Scale",9,"object-36","BIQ",NA,"SUPPRF38095"
"9",1697802430723,"20/10/2023 11:47:10",1697806030723,1,"20/10/2023 13:47:10",147683,3,"task-gjqt",NA,32381061,9577503,NA,"complete",NA,"653274d8009590ef598fd9dd","computer","Desktop or Laptop","Windows 10","Chrome 118.0.0.0","1280x720","1280x563",NA,NA,0,"BIQ (Charlotte)",3,"IJHAGBFCED","Passed AC2",NA,"Spreadsheet1",1,"BIQ","Screen 2","o21mwi",2,"response","0",16467.182,26567.22,26583.79,16467.182,26567.22,26583.79,1,16467.182,10116.608,0,NA,"Rating Scale","Rating Scale",16,"object-86","BIQ",NA,"SUPPRF38095"
"10",1697802446934,"20/10/2023 11:47:26",1697806046934,1,"20/10/2023 13:47:26",147683,3,"task-gjqt",NA,32381061,9577503,NA,"complete",NA,"653274d8009590ef598fd9dd","computer","Desktop or Laptop","Windows 10","Chrome 118.0.0.0","1280x720","1280x563",NA,NA,0,"BIQ (Charlotte)",3,"IJHAGBFCED","Passed AC2",NA,"Spreadsheet1",1,"BIQ","Screen 3","iz3the",3,"continue","",16233.584,16216.906,16233.584,16233.584,16216.906,16233.584,1,16233.584,0,0,NA,"Click To Continue","Continue Button",22,"object-73","BIQ",NA,"SUPPRF38095"
"11",1697802446946,"20/10/2023 11:47:26",1697806046946,1,"20/10/2023 13:47:26",147683,3,"task-gjqt",NA,32381061,9577503,NA,"complete",NA,"653274d8009590ef598fd9dd","computer","Desktop or Laptop","Windows 10","Chrome 118.0.0.0","1280x720","1280x563",NA,NA,0,"BIQ (Charlotte)",3,"IJHAGBFCED","Passed AC2",NA,"Spreadsheet1",1,"BIQ","Screen 3","iz3the",3,"response","0",6400.107,16216.906,16233.584,6400.107,16216.906,16233.584,1,6400.107,9833.477,0,NA,"Rating Scale","Rating Scale",2,"object-53","BIQ",NA,"SUPPRF38095"
"12",1697802446948,"20/10/2023 11:47:26",1697806046948,1,"20/10/2023 13:47:26",147683,3,"task-gjqt",NA,32381061,9577503,NA,"complete",NA,"653274d8009590ef598fd9dd","computer","Desktop or Laptop","Windows 10","Chrome 118.0.0.0","1280x720","1280x563",NA,NA,0,"BIQ (Charlotte)",3,"IJHAGBFCED","Passed AC2",NA,"Spreadsheet1",1,"BIQ","Screen 3","iz3the",3,"response","0",11567.104,16216.906,16233.584,11567.104,16216.906,16233.584,1,11567.104,4666.48000000001,0,NA,"Rating Scale","Rating Scale",9,"object-60","BIQ",NA,"SUPPRF38095"
"13",1697802446950,"20/10/2023 11:47:26",1697806046950,1,"20/10/2023 13:47:26",147683,3,"task-gjqt",NA,32381061,9577503,NA,"complete",NA,"653274d8009590ef598fd9dd","computer","Desktop or Laptop","Windows 10","Chrome 118.0.0.0","1280x720","1280x563",NA,NA,0,"BIQ (Charlotte)",3,"IJHAGBFCED","Passed AC2",NA,"Spreadsheet1",1,"BIQ","Screen 3","iz3the",3,"response","4",12683.664,16216.906,16233.584,12683.664,16216.906,16233.584,1,12683.664,3549.92,0,NA,"Rating Scale","Rating Scale",16,"object-67","BIQ",NA,"SUPPRF38095"
"14",1697802446964,"20/10/2023 11:47:26",1697806046964,1,"20/10/2023 13:47:26",147683,3,"task-gjqt",NA,32381061,9577503,NA,"complete",NA,"653274d8009590ef598fd9dd","computer","Desktop or Laptop","Windows 10","Chrome 118.0.0.0","1280x720","1280x563",NA,NA,0,"BIQ (Charlotte)",3,"IJHAGBFCED","Passed AC2",NA,"Spreadsheet1",NA,"","","",NA,"5","END",NA,NA,NA,NA,NA,NA,0,NA,NA,NA,NA,"","",NA,"","",NA,"SUPPRF38095"
"1",1697802593147,"20/10/2023 11:49:53",1697806193147,1,"20/10/2023 13:49:53",147683,3,"task-gjqt",NA,32381164,9577432,NA,"complete",NA,"6532712d72e164e0bfb915f6","computer","Desktop or Laptop","Windows 10","Chrome 118.0.0.0","1923x947","1920x941",NA,NA,0,"BIQ (Charlotte)",3,"JAIBHCGDFE","Passed AC2",NA,"Spreadsheet1",NA,"","","",NA,"5","BEGIN",NA,NA,NA,NA,NA,NA,0,NA,NA,NA,NA,"","",NA,"","",NA,"SUPPRF73219"
"2",1697802614310,"20/10/2023 11:50:14",1697806214310,1,"20/10/2023 13:50:14",147683,3,"task-gjqt",NA,32381164,9577432,NA,"complete",NA,"6532712d72e164e0bfb915f6","computer","Desktop or Laptop","Windows 10","Chrome 118.0.0.0","1923x947","1920x941",NA,NA,0,"BIQ (Charlotte)",3,"JAIBHCGDFE","Passed AC2",NA,"Spreadsheet1",1,"BIQ","Screen 1","9dh6eq",1,"continue","",21714,21703,21714,21714,21703,21714,1,21714,0,0,NA,"Click To Continue","Continue Button",23,"object-48","BIQ",NA,"SUPPRF73219"
"3",1697802614311,"20/10/2023 11:50:14",1697806214311,1,"20/10/2023 13:50:14",147683,3,"task-gjqt",NA,32381164,9577432,NA,"complete",NA,"6532712d72e164e0bfb915f6","computer","Desktop or Laptop","Windows 10","Chrome 118.0.0.0","1923x947","1920x941",NA,NA,0,"BIQ (Charlotte)",3,"JAIBHCGDFE","Passed AC2",NA,"Spreadsheet1",1,"BIQ","Screen 1","9dh6eq",1,"response","3",13403,21703,21717,13403,21703,21717,1,13403,8314,0,NA,"Rating Scale","Rating Scale",3,"object-5","BIQ",NA,"SUPPRF73219"
"4",1697802614311,"20/10/2023 11:50:14",1697806214311,1,"20/10/2023 13:50:14",147683,3,"task-gjqt",NA,32381164,9577432,NA,"complete",NA,"6532712d72e164e0bfb915f6","computer","Desktop or Laptop","Windows 10","Chrome 118.0.0.0","1923x947","1920x941",NA,NA,0,"BIQ (Charlotte)",3,"JAIBHCGDFE","Passed AC2",NA,"Spreadsheet1",1,"BIQ","Screen 1","9dh6eq",1,"response","0",17853,21703,21717,17853,21703,21717,1,17853,3864,0,NA,"Rating Scale","Rating Scale",10,"object-18","BIQ",NA,"SUPPRF73219"
"5",1697802614311,"20/10/2023 11:50:14",1697806214311,1,"20/10/2023 13:50:14",147683,3,"task-gjqt",NA,32381164,9577432,NA,"complete",NA,"6532712d72e164e0bfb915f6","computer","Desktop or Laptop","Windows 10","Chrome 118.0.0.0","1923x947","1920x941",NA,NA,0,"BIQ (Charlotte)",3,"JAIBHCGDFE","Passed AC2",NA,"Spreadsheet1",1,"BIQ","Screen 1","9dh6eq",1,"response","8",20153,21703,21718,20153,21703,21718,1,20153,1565,0,NA,"Rating Scale","Rating Scale",17,"object-80","BIQ",NA,"SUPPRF73219"
"6",1697802626267,"20/10/2023 11:50:26",1697806226267,1,"20/10/2023 13:50:26",147683,3,"task-gjqt",NA,32381164,9577432,NA,"complete",NA,"6532712d72e164e0bfb915f6","computer","Desktop or Laptop","Windows 10","Chrome 118.0.0.0","1923x947","1920x941",NA,NA,0,"BIQ (Charlotte)",3,"JAIBHCGDFE","Passed AC2",NA,"Spreadsheet1",1,"BIQ","Screen 2","o21mwi",2,"continue","",11969,11966,11969,11969,11966,11969,1,11969,0,0,NA,"Click To Continue","Continue Button",22,"object-50","BIQ",NA,"SUPPRF73219"
"7",1697802626268,"20/10/2023 11:50:26",1697806226268,1,"20/10/2023 13:50:26",147683,3,"task-gjqt",NA,32381164,9577432,NA,"complete",NA,"6532712d72e164e0bfb915f6","computer","Desktop or Laptop","Windows 10","Chrome 118.0.0.0","1923x947","1920x941",NA,NA,0,"BIQ (Charlotte)",3,"JAIBHCGDFE","Passed AC2",NA,"Spreadsheet1",1,"BIQ","Screen 2","o21mwi",2,"response","4",4583,11966,11971,4583,11966,11971,1,4583,7388,0,NA,"Rating Scale","Rating Scale",2,"object-259","BIQ",NA,"SUPPRF73219"
"8",1697802626268,"20/10/2023 11:50:26",1697806226268,1,"20/10/2023 13:50:26",147683,3,"task-gjqt",NA,32381164,9577432,NA,"complete",NA,"6532712d72e164e0bfb915f6","computer","Desktop or Laptop","Windows 10","Chrome 118.0.0.0","1923x947","1920x941",NA,NA,0,"BIQ (Charlotte)",3,"JAIBHCGDFE","Passed AC2",NA,"Spreadsheet1",1,"BIQ","Screen 2","o21mwi",2,"response","8",7416,11966,11971,7416,11966,11971,1,7416,4555,0,NA,"Rating Scale","Rating Scale",9,"object-36","BIQ",NA,"SUPPRF73219"
"9",1697802626268,"20/10/2023 11:50:26",1697806226268,1,"20/10/2023 13:50:26",147683,3,"task-gjqt",NA,32381164,9577432,NA,"complete",NA,"6532712d72e164e0bfb915f6","computer","Desktop or Laptop","Windows 10","Chrome 118.0.0.0","1923x947","1920x941",NA,NA,0,"BIQ (Charlotte)",3,"JAIBHCGDFE","Passed AC2",NA,"Spreadsheet1",1,"BIQ","Screen 2","o21mwi",2,"response","4",10983,11966,11972,10983,11966,11972,1,10983,989,0,NA,"Rating Scale","Rating Scale",16,"object-86","BIQ",NA,"SUPPRF73219"
"10",1697802634773,"20/10/2023 11:50:34",1697806234773,1,"20/10/2023 13:50:34",147683,3,"task-gjqt",NA,32381164,9577432,NA,"complete",NA,"6532712d72e164e0bfb915f6","computer","Desktop or Laptop","Windows 10","Chrome 118.0.0.0","1923x947","1920x941",NA,NA,0,"BIQ (Charlotte)",3,"JAIBHCGDFE","Passed AC2",NA,"Spreadsheet1",1,"BIQ","Screen 3","iz3the",3,"continue","",8511,8500,8511,8511,8500,8511,1,8511,0,0,NA,"Click To Continue","Continue Button",22,"object-73","BIQ",NA,"SUPPRF73219"
"11",1697802634774,"20/10/2023 11:50:34",1697806234774,1,"20/10/2023 13:50:34",147683,3,"task-gjqt",NA,32381164,9577432,NA,"complete",NA,"6532712d72e164e0bfb915f6","computer","Desktop or Laptop","Windows 10","Chrome 118.0.0.0","1923x947","1920x941",NA,NA,0,"BIQ (Charlotte)",3,"JAIBHCGDFE","Passed AC2",NA,"Spreadsheet1",1,"BIQ","Screen 3","iz3the",3,"response","6",3867,8500,8511,3867,8500,8511,1,3867,4644,0,NA,"Rating Scale","Rating Scale",2,"object-53","BIQ",NA,"SUPPRF73219"
"12",1697802634774,"20/10/2023 11:50:34",1697806234774,1,"20/10/2023 13:50:34",147683,3,"task-gjqt",NA,32381164,9577432,NA,"complete",NA,"6532712d72e164e0bfb915f6","computer","Desktop or Laptop","Windows 10","Chrome 118.0.0.0","1923x947","1920x941",NA,NA,0,"BIQ (Charlotte)",3,"JAIBHCGDFE","Passed AC2",NA,"Spreadsheet1",1,"BIQ","Screen 3","iz3the",3,"response","6",5234,8500,8511,5234,8500,8511,1,5234,3277,0,NA,"Rating Scale","Rating Scale",9,"object-60","BIQ",NA,"SUPPRF73219"
"13",1697802634774,"20/10/2023 11:50:34",1697806234774,1,"20/10/2023 13:50:34",147683,3,"task-gjqt",NA,32381164,9577432,NA,"complete",NA,"6532712d72e164e0bfb915f6","computer","Desktop or Laptop","Windows 10","Chrome 118.0.0.0","1923x947","1920x941",NA,NA,0,"BIQ (Charlotte)",3,"JAIBHCGDFE","Passed AC2",NA,"Spreadsheet1",1,"BIQ","Screen 3","iz3the",3,"response","5",7833,8500,8512,7833,8500,8512,1,7833,679,0,NA,"Rating Scale","Rating Scale",16,"object-67","BIQ",NA,"SUPPRF73219"
"14",1697802634777,"20/10/2023 11:50:34",1697806234777,1,"20/10/2023 13:50:34",147683,3,"task-gjqt",NA,32381164,9577432,NA,"complete",NA,"6532712d72e164e0bfb915f6","computer","Desktop or Laptop","Windows 10","Chrome 118.0.0.0","1923x947","1920x941",NA,NA,0,"BIQ (Charlotte)",3,"JAIBHCGDFE","Passed AC2",NA,"Spreadsheet1",NA,"","","",NA,"5","END",NA,NA,NA,NA,NA,NA,0,NA,NA,NA,NA,"","",NA,"","",NA,"SUPPRF73219"
"1",1697802715841,"20/10/2023 11:51:55",1697806315841,1,"20/10/2023 13:51:55",147683,3,"task-gjqt",NA,32381202,9577632,NA,"complete",NA,"6532766f7437bf7e1831323b","computer","Desktop or Laptop","Windows 10","Chrome 118.0.0.0","1280x720","1280x595",NA,NA,0,"BIQ (Charlotte)",3,"CDBEAFJGIH","Passed AC2",NA,"Spreadsheet1",NA,"","","",NA,"5","BEGIN",NA,NA,NA,NA,NA,NA,0,NA,NA,NA,NA,"","",NA,"","",NA,"SUPPRF46237"
"2",1697802738050,"20/10/2023 11:52:18",1697806338050,1,"20/10/2023 13:52:18",147683,3,"task-gjqt",NA,32381202,9577632,NA,"complete",NA,"6532766f7437bf7e1831323b","computer","Desktop or Laptop","Windows 10","Chrome 118.0.0.0","1280x720","1280x595",NA,NA,0,"BIQ (Charlotte)",3,"CDBEAFJGIH","Passed AC2",NA,"Spreadsheet1",1,"BIQ","Screen 1","9dh6eq",1,"continue","",22230.922,22214.346,22230.922,22230.922,22214.346,22230.922,1,22230.922,0,0,NA,"Click To Continue","Continue Button",23,"object-48","BIQ",NA,"SUPPRF46237"
"3",1697802738057,"20/10/2023 11:52:18",1697806338057,1,"20/10/2023 13:52:18",147683,3,"task-gjqt",NA,32381202,9577632,NA,"complete",NA,"6532766f7437bf7e1831323b","computer","Desktop or Laptop","Windows 10","Chrome 118.0.0.0","1280x720","1280x595",NA,NA,0,"BIQ (Charlotte)",3,"CDBEAFJGIH","Passed AC2",NA,"Spreadsheet1",1,"BIQ","Screen 1","9dh6eq",1,"response","3",10165.146,22214.346,22230.922,10165.146,22214.346,22230.922,1,10165.146,12065.776,0,NA,"Rating Scale","Rating Scale",3,"object-5","BIQ",NA,"SUPPRF46237"
"4",1697802738058,"20/10/2023 11:52:18",1697806338058,1,"20/10/2023 13:52:18",147683,3,"task-gjqt",NA,32381202,9577632,NA,"complete",NA,"6532766f7437bf7e1831323b","computer","Desktop or Laptop","Windows 10","Chrome 118.0.0.0","1280x720","1280x595",NA,NA,0,"BIQ (Charlotte)",3,"CDBEAFJGIH","Passed AC2",NA,"Spreadsheet1",1,"BIQ","Screen 1","9dh6eq",1,"response","4",16998.3,22214.346,22230.922,16998.3,22214.346,22230.922,1,16998.3,5232.622,0,NA,"Rating Scale","Rating Scale",10,"object-18","BIQ",NA,"SUPPRF46237"
"5",1697802738060,"20/10/2023 11:52:18",1697806338060,1,"20/10/2023 13:52:18",147683,3,"task-gjqt",NA,32381202,9577632,NA,"complete",NA,"6532766f7437bf7e1831323b","computer","Desktop or Laptop","Windows 10","Chrome 118.0.0.0","1280x720","1280x595",NA,NA,0,"BIQ (Charlotte)",3,"CDBEAFJGIH","Passed AC2",NA,"Spreadsheet1",1,"BIQ","Screen 1","9dh6eq",1,"response","4",21164.478,22214.346,22230.922,21164.478,22214.346,22230.922,1,21164.478,1066.444,0,NA,"Rating Scale","Rating Scale",17,"object-80","BIQ",NA,"SUPPRF46237"
"6",1697802753575,"20/10/2023 11:52:33",1697806353575,1,"20/10/2023 13:52:33",147683,3,"task-gjqt",NA,32381202,9577632,NA,"complete",NA,"6532766f7437bf7e1831323b","computer","Desktop or Laptop","Windows 10","Chrome 118.0.0.0","1280x720","1280x595",NA,NA,0,"BIQ (Charlotte)",3,"CDBEAFJGIH","Passed AC2",NA,"Spreadsheet1",1,"BIQ","Screen 2","o21mwi",2,"continue","",15556.1650000715,15547.434,15556.1650000715,15556.1650000715,15547.434,15556.1650000715,1,15556.1650000715,0,0,NA,"Click To Continue","Continue Button",22,"object-50","BIQ",NA,"SUPPRF46237"
"7",1697802753583,"20/10/2023 11:52:33",1697806353583,1,"20/10/2023 13:52:33",147683,3,"task-gjqt",NA,32381202,9577632,NA,"complete",NA,"6532766f7437bf7e1831323b","computer","Desktop or Laptop","Windows 10","Chrome 118.0.0.0","1280x720","1280x595",NA,NA,0,"BIQ (Charlotte)",3,"CDBEAFJGIH","Passed AC2",NA,"Spreadsheet1",1,"BIQ","Screen 2","o21mwi",2,"response","5",6365.808,15547.434,15563.5650000477,6365.808,15547.434,15563.5650000477,1,6365.808,9197.75700004768,0,NA,"Rating Scale","Rating Scale",2,"object-259","BIQ",NA,"SUPPRF46237"
"8",1697802753585,"20/10/2023 11:52:33",1697806353585,1,"20/10/2023 13:52:33",147683,3,"task-gjqt",NA,32381202,9577632,NA,"complete",NA,"6532766f7437bf7e1831323b","computer","Desktop or Laptop","Windows 10","Chrome 118.0.0.0","1280x720","1280x595",NA,NA,0,"BIQ (Charlotte)",3,"CDBEAFJGIH","Passed AC2",NA,"Spreadsheet1",1,"BIQ","Screen 2","o21mwi",2,"response","5",10797.976,15547.434,15564.128,10797.976,15547.434,15564.128,1,10797.976,4766.15200000001,0,NA,"Rating Scale","Rating Scale",9,"object-36","BIQ",NA,"SUPPRF46237"
"9",1697802753586,"20/10/2023 11:52:33",1697806353586,1,"20/10/2023 13:52:33",147683,3,"task-gjqt",NA,32381202,9577632,NA,"complete",NA,"6532766f7437bf7e1831323b","computer","Desktop or Laptop","Windows 10","Chrome 118.0.0.0","1280x720","1280x595",NA,NA,0,"BIQ (Charlotte)",3,"CDBEAFJGIH","Passed AC2",NA,"Spreadsheet1",1,"BIQ","Screen 2","o21mwi",2,"response","4",14514.108,15547.434,15564.128,14514.108,15547.434,15564.128,1,14514.108,1050.02,0,NA,"Rating Scale","Rating Scale",16,"object-86","BIQ",NA,"SUPPRF46237"
"10",1697802771169,"20/10/2023 11:52:51",1697806371169,1,"20/10/2023 13:52:51",147683,3,"task-gjqt",NA,32381202,9577632,NA,"complete",NA,"6532766f7437bf7e1831323b","computer","Desktop or Laptop","Windows 10","Chrome 118.0.0.0","1280x720","1280x595",NA,NA,0,"BIQ (Charlotte)",3,"CDBEAFJGIH","Passed AC2",NA,"Spreadsheet1",1,"BIQ","Screen 3","iz3the",3,"continue","",17602.931,17597.848,17602.931,17602.931,17597.848,17602.931,1,17602.931,0,0,NA,"Click To Continue","Continue Button",22,"object-73","BIQ",NA,"SUPPRF46237"
"11",1697802771176,"20/10/2023 11:52:51",1697806371176,1,"20/10/2023 13:52:51",147683,3,"task-gjqt",NA,32381202,9577632,NA,"complete",NA,"6532766f7437bf7e1831323b","computer","Desktop or Laptop","Windows 10","Chrome 118.0.0.0","1280x720","1280x595",NA,NA,0,"BIQ (Charlotte)",3,"CDBEAFJGIH","Passed AC2",NA,"Spreadsheet1",1,"BIQ","Screen 3","iz3the",3,"response","1",10348.635,17597.848,17610.0310000238,10348.635,17597.848,17610.0310000238,1,10348.635,7261.39600002384,0,NA,"Rating Scale","Rating Scale",2,"object-53","BIQ",NA,"SUPPRF46237"
"12",1697802771178,"20/10/2023 11:52:51",1697806371178,1,"20/10/2023 13:52:51",147683,3,"task-gjqt",NA,32381202,9577632,NA,"complete",NA,"6532766f7437bf7e1831323b","computer","Desktop or Laptop","Windows 10","Chrome 118.0.0.0","1280x720","1280x595",NA,NA,0,"BIQ (Charlotte)",3,"CDBEAFJGIH","Passed AC2",NA,"Spreadsheet1",1,"BIQ","Screen 3","iz3the",3,"response","4",13148.183,17597.848,17612.0310000238,13148.183,17597.848,17612.0310000238,1,13148.183,4463.84800002384,0,NA,"Rating Scale","Rating Scale",9,"object-60","BIQ",NA,"SUPPRF46237"
