"Event.Index","UTC.Timestamp","UTC.Date.and.Time","Local.Timestamp","Local.Timezone","Local.Date.and.Time","Experiment.ID","Experiment.Version","Tree.Node.Key","Repeat.Key","Schedule.ID","Participant.Private.ID","Participant.Starting.Group","Participant.Status","Participant.Completion.Code","Participant.External.Session.ID","Participant.Device.Type","Participant.Device","Participant.OS","Participant.Browser","Participant.Monitor.Size","Participant.Viewport.Size","Checkpoint","Room.ID","Room.Order","Task.Name","Task.Version","order.ot79","branch.g31k","branch.5gtn","Spreadsheet","Trial.Number","Display","Screen","Screen.ID","Screen.Counter","Response.Type","Response","Onset.Time","Clock.Time","Reaction.Time","Absolute.Onset.Time","Absolute.Clock.Time","Absolute.Reaction.Time","Correct","Response.Onset","Response.Duration","Proportion","Tag","Component.Name","Object.Name","Object.Number","Object.ID","Spreadsheet..display","Manipulation..Spreadsheet","Random_ID"
"1",1705066665908,"12/01/2024 13:37:45",1705066665908,0,"12/01/2024 13:37:45",159402,5,"task-gjqt",NA,34161181,10092271,NA,"rejected - time limit reached",NA,"65a13ea9dc38b89f5c43fb80","computer","Desktop or Laptop","Mac OS 10.15.7","Chrome 120.0.0.0","1440x900","1440x779",NA,NA,0,"BIQ (Charlotte)",3,"CDBEAFJGIH","Passed AC2","","Spreadsheet1",NA,"","","",NA,"5","BEGIN",NA,NA,NA,NA,NA,NA,0,NA,NA,NA,NA,"","",NA,"","",NA,"SUPPRF02872"
"2",1705066695720,"12/01/2024 13:38:15",1705066695720,0,"12/01/2024 13:38:15",159402,5,"task-gjqt",NA,34161181,10092271,NA,"rejected - time limit reached",NA,"65a13ea9dc38b89f5c43fb80","computer","Desktop or Laptop","Mac OS 10.15.7","Chrome 120.0.0.0","1440x900","1440x779",NA,NA,0,"BIQ (Charlotte)",3,"CDBEAFJGIH","Passed AC2","","Spreadsheet1",1,"BIQ","Screen 1","9dh6eq",1,"continue","",29835.6999999046,29829.6,29835.6999999046,29835.6999999046,29829.6,29835.6999999046,1,29835.6999999046,0,0,NA,"Click To Continue","Continue Button",23,"object-48","BIQ",NA,"SUPPRF02872"
"3",1705066695724,"12/01/2024 13:38:15",1705066695724,0,"12/01/2024 13:38:15",159402,5,"task-gjqt",NA,34161181,10092271,NA,"rejected - time limit reached",NA,"65a13ea9dc38b89f5c43fb80","computer","Desktop or Laptop","Mac OS 10.15.7","Chrome 120.0.0.0","1440x900","1440x779",NA,NA,0,"BIQ (Charlotte)",3,"CDBEAFJGIH","Passed AC2","","Spreadsheet1",1,"BIQ","Screen 1","9dh6eq",1,"response","6",16928.4,29829.6,29841.1999999046,16928.4,29829.6,29841.1999999046,1,16928.4,12912.7999999046,0,NA,"Rating Scale","Rating Scale",3,"object-5","BIQ",NA,"SUPPRF02872"
"4",1705066695724,"12/01/2024 13:38:15",1705066695724,0,"12/01/2024 13:38:15",159402,5,"task-gjqt",NA,34161181,10092271,NA,"rejected - time limit reached",NA,"65a13ea9dc38b89f5c43fb80","computer","Desktop or Laptop","Mac OS 10.15.7","Chrome 120.0.0.0","1440x900","1440x779",NA,NA,0,"BIQ (Charlotte)",3,"CDBEAFJGIH","Passed AC2","","Spreadsheet1",1,"BIQ","Screen 1","9dh6eq",1,"response","7",23095,29829.6,29841.8999997139,23095,29829.6,29841.8999997139,1,23095,6746.8999997139,0,NA,"Rating Scale","Rating Scale",10,"object-18","BIQ",NA,"SUPPRF02872"
"5",1705066695725,"12/01/2024 13:38:15",1705066695725,0,"12/01/2024 13:38:15",159402,5,"task-gjqt",NA,34161181,10092271,NA,"rejected - time limit reached",NA,"65a13ea9dc38b89f5c43fb80","computer","Desktop or Laptop","Mac OS 10.15.7","Chrome 120.0.0.0","1440x900","1440x779",NA,NA,0,"BIQ (Charlotte)",3,"CDBEAFJGIH","Passed AC2","","Spreadsheet1",1,"BIQ","Screen 1","9dh6eq",1,"response","0",29111,29829.6,29842.3999997139,29111,29829.6,29842.3999997139,1,29111,731.399999713896,0,NA,"Rating Scale","Rating Scale",17,"object-80","BIQ",NA,"SUPPRF02872"
"6",1705066716022,"12/01/2024 13:38:36",1705066716022,0,"12/01/2024 13:38:36",159402,5,"task-gjqt",NA,34161181,10092271,NA,"rejected - time limit reached",NA,"65a13ea9dc38b89f5c43fb80","computer","Desktop or Laptop","Mac OS 10.15.7","Chrome 120.0.0.0","1440x900","1440x779",NA,NA,0,"BIQ (Charlotte)",3,"CDBEAFJGIH","Passed AC2","","Spreadsheet1",1,"BIQ","Screen 2","o21mwi",2,"continue","",20309.1999998093,20304.2,20309.1999998093,20309.1999998093,20304.2,20309.1999998093,1,20309.1999998093,0,0,NA,"Click To Continue","Continue Button",22,"object-50","BIQ",NA,"SUPPRF02872"
"7",1705066716026,"12/01/2024 13:38:36",1705066716026,0,"12/01/2024 13:38:36",159402,5,"task-gjqt",NA,34161181,10092271,NA,"rejected - time limit reached",NA,"65a13ea9dc38b89f5c43fb80","computer","Desktop or Laptop","Mac OS 10.15.7","Chrome 120.0.0.0","1440x900","1440x779",NA,NA,0,"BIQ (Charlotte)",3,"CDBEAFJGIH","Passed AC2","","Spreadsheet1",1,"BIQ","Screen 2","o21mwi",2,"response","7",6016,20304.2,20313.9000000954,6016,20304.2,20313.9000000954,1,6016,14297.9000000954,0,NA,"Rating Scale","Rating Scale",2,"object-259","BIQ",NA,"SUPPRF02872"
"8",1705066716027,"12/01/2024 13:38:36",1705066716027,0,"12/01/2024 13:38:36",159402,5,"task-gjqt",NA,34161181,10092271,NA,"rejected - time limit reached",NA,"65a13ea9dc38b89f5c43fb80","computer","Desktop or Laptop","Mac OS 10.15.7","Chrome 120.0.0.0","1440x900","1440x779",NA,NA,0,"BIQ (Charlotte)",3,"CDBEAFJGIH","Passed AC2","","Spreadsheet1",1,"BIQ","Screen 2","o21mwi",2,"response","1",11380.4,20304.2,20314.5999999046,11380.4,20304.2,20314.5999999046,1,11380.4,8934.19999990463,0,NA,"Rating Scale","Rating Scale",9,"object-36","BIQ",NA,"SUPPRF02872"
"9",1705066716028,"12/01/2024 13:38:36",1705066716028,0,"12/01/2024 13:38:36",159402,5,"task-gjqt",NA,34161181,10092271,NA,"rejected - time limit reached",NA,"65a13ea9dc38b89f5c43fb80","computer","Desktop or Laptop","Mac OS 10.15.7","Chrome 120.0.0.0","1440x900","1440x779",NA,NA,0,"BIQ (Charlotte)",3,"CDBEAFJGIH","Passed AC2","","Spreadsheet1",1,"BIQ","Screen 2","o21mwi",2,"response","0",19619.1,20304.2,20315.2999997139,19619.1,20304.2,20315.2999997139,1,19619.1,696.199999713899,0,NA,"Rating Scale","Rating Scale",16,"object-86","BIQ",NA,"SUPPRF02872"
"10",1705066726968,"12/01/2024 13:38:46",1705066726968,0,"12/01/2024 13:38:46",159402,5,"task-gjqt",NA,34161181,10092271,NA,"rejected - time limit reached",NA,"65a13ea9dc38b89f5c43fb80","computer","Desktop or Laptop","Mac OS 10.15.7","Chrome 120.0.0.0","1440x900","1440x779",NA,NA,0,"BIQ (Charlotte)",3,"CDBEAFJGIH","Passed AC2","","Spreadsheet1",1,"BIQ","Screen 3","iz3the",3,"continue","",10950.3999999046,10946,10950.3999999046,10950.3999999046,10946,10950.3999999046,1,10950.3999999046,0,0,NA,"Click To Continue","Continue Button",22,"object-73","BIQ",NA,"SUPPRF02872"
"11",1705066726973,"12/01/2024 13:38:46",1705066726973,0,"12/01/2024 13:38:46",159402,5,"task-gjqt",NA,34161181,10092271,NA,"rejected - time limit reached",NA,"65a13ea9dc38b89f5c43fb80","computer","Desktop or Laptop","Mac OS 10.15.7","Chrome 120.0.0.0","1440x900","1440x779",NA,NA,0,"BIQ (Charlotte)",3,"CDBEAFJGIH","Passed AC2","","Spreadsheet1",1,"BIQ","Screen 3","iz3the",3,"response","0",4679.10000000001,10946,10955.7000000954,4679.10000000001,10946,10955.7000000954,1,4679.10000000001,6276.60000009536,0,NA,"Rating Scale","Rating Scale",2,"object-53","BIQ",NA,"SUPPRF02872"
"12",1705066726973,"12/01/2024 13:38:46",1705066726973,0,"12/01/2024 13:38:46",159402,5,"task-gjqt",NA,34161181,10092271,NA,"rejected - time limit reached",NA,"65a13ea9dc38b89f5c43fb80","computer","Desktop or Laptop","Mac OS 10.15.7","Chrome 120.0.0.0","1440x900","1440x779",NA,NA,0,"BIQ (Charlotte)",3,"CDBEAFJGIH","Passed AC2","","Spreadsheet1",1,"BIQ","Screen 3","iz3the",3,"response","1",7035.4,10946,10956.4999998093,7035.4,10946,10956.4999998093,1,7035.4,3921.09999980927,0,NA,"Rating Scale","Rating Scale",9,"object-60","BIQ",NA,"SUPPRF02872"
"13",1705066726974,"12/01/2024 13:38:46",1705066726974,0,"12/01/2024 13:38:46",159402,5,"task-gjqt",NA,34161181,10092271,NA,"rejected - time limit reached",NA,"65a13ea9dc38b89f5c43fb80","computer","Desktop or Laptop","Mac OS 10.15.7","Chrome 120.0.0.0","1440x900","1440x779",NA,NA,0,"BIQ (Charlotte)",3,"CDBEAFJGIH","Passed AC2","","Spreadsheet1",1,"BIQ","Screen 3","iz3the",3,"response","0",9675.9,10946,10957.0999997139,9675.9,10946,10957.0999997139,1,9675.9,1281.1999997139,0,NA,"Rating Scale","Rating Scale",16,"object-67","BIQ",NA,"SUPPRF02872"
"14",1705066726981,"12/01/2024 13:38:46",1705066726981,0,"12/01/2024 13:38:46",159402,5,"task-gjqt",NA,34161181,10092271,NA,"rejected - time limit reached",NA,"65a13ea9dc38b89f5c43fb80","computer","Desktop or Laptop","Mac OS 10.15.7","Chrome 120.0.0.0","1440x900","1440x779",NA,NA,0,"BIQ (Charlotte)",3,"CDBEAFJGIH","Passed AC2","","Spreadsheet1",NA,"","","",NA,"5","END",NA,NA,NA,NA,NA,NA,0,NA,NA,NA,NA,"","",NA,"","",NA,"SUPPRF02872"
"1",1705066948338,"12/01/2024 13:42:28",1705066948338,0,"12/01/2024 13:42:28",159402,5,"task-gjqt",NA,34161308,10092228,NA,"complete",NA,"65a13d4a8402af9035477cdc","computer","Desktop or Laptop","Windows 10","Chrome 120.0.0.0","1920x1080","1920x955",NA,NA,0,"BIQ (Charlotte)",3,"ABJCIDHEGF","Passed AC2","","Spreadsheet1",NA,"","","",NA,"5","BEGIN",NA,NA,NA,NA,NA,NA,0,NA,NA,NA,NA,"","",NA,"","",NA,NA
"2",1705067056965,"12/01/2024 13:44:16",1705067056965,0,"12/01/2024 13:44:16",159402,5,"task-gjqt",NA,34161308,10092228,NA,"complete",NA,"65a13d4a8402af9035477cdc","computer","Desktop or Laptop","Windows 10","Chrome 120.0.0.0","1920x1080","1920x955",NA,NA,0,"BIQ (Charlotte)",3,"ABJCIDHEGF","Passed AC2","","Spreadsheet1",1,"BIQ","Screen 1","9dh6eq",1,"continue","",108646.200000048,108629.8,108646.200000048,108646.200000048,108629.8,108646.200000048,1,108646.200000048,0,0,NA,"Click To Continue","Continue Button",23,"object-48","BIQ",NA,NA
"3",1705067056966,"12/01/2024 13:44:16",1705067056966,0,"12/01/2024 13:44:16",159402,5,"task-gjqt",NA,34161308,10092228,NA,"complete",NA,"65a13d4a8402af9035477cdc","computer","Desktop or Laptop","Windows 10","Chrome 120.0.0.0","1920x1080","1920x955",NA,NA,0,"BIQ (Charlotte)",3,"ABJCIDHEGF","Passed AC2","","Spreadsheet1",1,"BIQ","Screen 1","9dh6eq",1,"response","5",31322.7,108629.8,108646.5,31322.7,108629.8,108646.5,1,31322.7,77323.8,0,NA,"Rating Scale","Rating Scale",3,"object-5","BIQ",NA,NA
"4",1705067056967,"12/01/2024 13:44:16",1705067056967,0,"12/01/2024 13:44:16",159402,5,"task-gjqt",NA,34161308,10092228,NA,"complete",NA,"65a13d4a8402af9035477cdc","computer","Desktop or Laptop","Windows 10","Chrome 120.0.0.0","1920x1080","1920x955",NA,NA,0,"BIQ (Charlotte)",3,"ABJCIDHEGF","Passed AC2","","Spreadsheet1",1,"BIQ","Screen 1","9dh6eq",1,"response","7",37387.2,108629.8,108646.5,37387.2,108629.8,108646.5,1,37387.2,71259.3,0,NA,"Rating Scale","Rating Scale",10,"object-18","BIQ",NA,NA
"5",1705067056967,"12/01/2024 13:44:16",1705067056967,0,"12/01/2024 13:44:16",159402,5,"task-gjqt",NA,34161308,10092228,NA,"complete",NA,"65a13d4a8402af9035477cdc","computer","Desktop or Laptop","Windows 10","Chrome 120.0.0.0","1920x1080","1920x955",NA,NA,0,"BIQ (Charlotte)",3,"ABJCIDHEGF","Passed AC2","","Spreadsheet1",1,"BIQ","Screen 1","9dh6eq",1,"response","1",106463.9,108629.8,108646.5,106463.9,108629.8,108646.5,1,106463.9,2182.60000000001,0,NA,"Rating Scale","Rating Scale",17,"object-80","BIQ",NA,NA
"6",1705067077477,"12/01/2024 13:44:37",1705067077477,0,"12/01/2024 13:44:37",159402,5,"task-gjqt",NA,34161308,10092228,NA,"complete",NA,"65a13d4a8402af9035477cdc","computer","Desktop or Laptop","Windows 10","Chrome 120.0.0.0","1920x1080","1920x955",NA,NA,0,"BIQ (Charlotte)",3,"ABJCIDHEGF","Passed AC2","","Spreadsheet1",1,"BIQ","Screen 2","o21mwi",2,"continue","",20531.4999999523,20526.6,20531.4999999523,20531.4999999523,20526.6,20531.4999999523,1,20531.4999999523,0,0,NA,"Click To Continue","Continue Button",22,"object-50","BIQ",NA,NA
"7",1705067077479,"12/01/2024 13:44:37",1705067077479,0,"12/01/2024 13:44:37",159402,5,"task-gjqt",NA,34161308,10092228,NA,"complete",NA,"65a13d4a8402af9035477cdc","computer","Desktop or Laptop","Windows 10","Chrome 120.0.0.0","1920x1080","1920x955",NA,NA,0,"BIQ (Charlotte)",3,"ABJCIDHEGF","Passed AC2","","Spreadsheet1",1,"BIQ","Screen 2","o21mwi",2,"response","7",5431.39999999999,20526.6,20532.9000000477,5431.39999999999,20526.6,20532.9000000477,1,5431.39999999999,15101.5000000477,0,NA,"Rating Scale","Rating Scale",2,"object-259","BIQ",NA,NA
"8",1705067077479,"12/01/2024 13:44:37",1705067077479,0,"12/01/2024 13:44:37",159402,5,"task-gjqt",NA,34161308,10092228,NA,"complete",NA,"65a13d4a8402af9035477cdc","computer","Desktop or Laptop","Windows 10","Chrome 120.0.0.0","1920x1080","1920x955",NA,NA,0,"BIQ (Charlotte)",3,"ABJCIDHEGF","Passed AC2","","Spreadsheet1",1,"BIQ","Screen 2","o21mwi",2,"response","1",6581.09999999999,20526.6,20533.2,6581.09999999999,20526.6,20533.2,1,6581.09999999999,13952.1,0,NA,"Rating Scale","Rating Scale",9,"object-36","BIQ",NA,NA
"9",1705067077479,"12/01/2024 13:44:37",1705067077479,0,"12/01/2024 13:44:37",159402,5,"task-gjqt",NA,34161308,10092228,NA,"complete",NA,"65a13d4a8402af9035477cdc","computer","Desktop or Laptop","Windows 10","Chrome 120.0.0.0","1920x1080","1920x955",NA,NA,0,"BIQ (Charlotte)",3,"ABJCIDHEGF","Passed AC2","","Spreadsheet1",1,"BIQ","Screen 2","o21mwi",2,"response","2",14462,20526.6,20533.4999999523,14462,20526.6,20533.4999999523,1,14462,6071.49999995231,0,NA,"Rating Scale","Rating Scale",16,"object-86","BIQ",NA,NA
"10",1705067096730,"12/01/2024 13:44:56",1705067096730,0,"12/01/2024 13:44:56",159402,5,"task-gjqt",NA,34161308,10092228,NA,"complete",NA,"65a13d4a8402af9035477cdc","computer","Desktop or Laptop","Windows 10","Chrome 120.0.0.0","1920x1080","1920x955",NA,NA,0,"BIQ (Charlotte)",3,"ABJCIDHEGF","Passed AC2","","Spreadsheet1",1,"BIQ","Screen 3","iz3the",3,"continue","",19257.2000001431,19243.2,19257.2000001431,19257.2000001431,19243.2,19257.2000001431,1,19257.2000001431,0,0,NA,"Click To Continue","Continue Button",22,"object-73","BIQ",NA,NA
"11",1705067096731,"12/01/2024 13:44:56",1705067096731,0,"12/01/2024 13:44:56",159402,5,"task-gjqt",NA,34161308,10092228,NA,"complete",NA,"65a13d4a8402af9035477cdc","computer","Desktop or Laptop","Windows 10","Chrome 120.0.0.0","1920x1080","1920x955",NA,NA,0,"BIQ (Charlotte)",3,"ABJCIDHEGF","Passed AC2","","Spreadsheet1",1,"BIQ","Screen 3","iz3the",3,"response","0",6680.80000000002,19243.2,19258.7000001431,6680.80000000002,19243.2,19258.7000001431,1,6680.80000000002,12577.900000143,0,NA,"Rating Scale","Rating Scale",2,"object-53","BIQ",NA,NA
"12",1705067096731,"12/01/2024 13:44:56",1705067096731,0,"12/01/2024 13:44:56",159402,5,"task-gjqt",NA,34161308,10092228,NA,"complete",NA,"65a13d4a8402af9035477cdc","computer","Desktop or Laptop","Windows 10","Chrome 120.0.0.0","1920x1080","1920x955",NA,NA,0,"BIQ (Charlotte)",3,"ABJCIDHEGF","Passed AC2","","Spreadsheet1",1,"BIQ","Screen 3","iz3the",3,"response","0",10579.5,19243.2,19259.0000000954,10579.5,19243.2,19259.0000000954,1,10579.5,8679.50000009537,0,NA,"Rating Scale","Rating Scale",9,"object-60","BIQ",NA,NA
"13",1705067096731,"12/01/2024 13:44:56",1705067096731,0,"12/01/2024 13:44:56",159402,5,"task-gjqt",NA,34161308,10092228,NA,"complete",NA,"65a13d4a8402af9035477cdc","computer","Desktop or Laptop","Windows 10","Chrome 120.0.0.0","1920x1080","1920x955",NA,NA,0,"BIQ (Charlotte)",3,"ABJCIDHEGF","Passed AC2","","Spreadsheet1",1,"BIQ","Screen 3","iz3the",3,"response","1",12895.7,19243.2,19259.2000001431,12895.7,19243.2,19259.2000001431,1,12895.7,6363.50000014305,0,NA,"Rating Scale","Rating Scale",16,"object-67","BIQ",NA,NA
"14",1705067096734,"12/01/2024 13:44:56",1705067096734,0,"12/01/2024 13:44:56",159402,5,"task-gjqt",NA,34161308,10092228,NA,"complete",NA,"65a13d4a8402af9035477cdc","computer","Desktop or Laptop","Windows 10","Chrome 120.0.0.0","1920x1080","1920x955",NA,NA,0,"BIQ (Charlotte)",3,"ABJCIDHEGF","Passed AC2","","Spreadsheet1",NA,"","","",NA,"5","END",NA,NA,NA,NA,NA,NA,0,NA,NA,NA,NA,"","",NA,"","",NA,NA
"1",1705067038134,"12/01/2024 13:43:58",1705067038134,0,"12/01/2024 13:43:58",159402,5,"task-gjqt",NA,34161349,10092266,NA,"rejected - time limit reached",NA,"65a13e9a34524cf2f4dd0256","computer","Desktop or Laptop","Mac OS 10.15.7","Chrome 120.0.0.0","1280x800","1280x713",NA,NA,0,"BIQ (Charlotte)",3,"BCADJEIFHG","Passed AC2","","Spreadsheet1",NA,"","","",NA,"5","BEGIN",NA,NA,NA,NA,NA,NA,0,NA,NA,NA,NA,"","",NA,"","",NA,"SUPPRF58347"
"2",1705067097889,"12/01/2024 13:44:57",1705067097889,0,"12/01/2024 13:44:57",159402,5,"task-gjqt",NA,34161349,10092266,NA,"rejected - time limit reached",NA,"65a13e9a34524cf2f4dd0256","computer","Desktop or Laptop","Mac OS 10.15.7","Chrome 120.0.0.0","1280x800","1280x713",NA,NA,0,"BIQ (Charlotte)",3,"BCADJEIFHG","Passed AC2","","Spreadsheet1",1,"BIQ","Screen 1","9dh6eq",1,"continue","",59763.0000000477,59753.7,59763.0000000477,59763.0000000477,59753.7,59763.0000000477,1,59763.0000000477,0,0,NA,"Click To Continue","Continue Button",23,"object-48","BIQ",NA,"SUPPRF58347"
"3",1705067097892,"12/01/2024 13:44:57",1705067097892,0,"12/01/2024 13:44:57",159402,5,"task-gjqt",NA,34161349,10092266,NA,"rejected - time limit reached",NA,"65a13e9a34524cf2f4dd0256","computer","Desktop or Laptop","Mac OS 10.15.7","Chrome 120.0.0.0","1280x800","1280x713",NA,NA,0,"BIQ (Charlotte)",3,"BCADJEIFHG","Passed AC2","","Spreadsheet1",1,"BIQ","Screen 1","9dh6eq",1,"response","7",12190.8,59753.7,59766.6000000119,12190.8,59753.7,59766.6000000119,1,12190.8,47575.8000000119,0,NA,"Rating Scale","Rating Scale",3,"object-5","BIQ",NA,"SUPPRF58347"
"4",1705067097892,"12/01/2024 13:44:57",1705067097892,0,"12/01/2024 13:44:57",159402,5,"task-gjqt",NA,34161349,10092266,NA,"rejected - time limit reached",NA,"65a13e9a34524cf2f4dd0256","computer","Desktop or Laptop","Mac OS 10.15.7","Chrome 120.0.0.0","1280x800","1280x713",NA,NA,0,"BIQ (Charlotte)",3,"BCADJEIFHG","Passed AC2","","Spreadsheet1",1,"BIQ","Screen 1","9dh6eq",1,"response","7",15435.2,59753.7,59767.0000000477,15435.2,59753.7,59767.0000000477,1,15435.2,44331.8000000477,0,NA,"Rating Scale","Rating Scale",10,"object-18","BIQ",NA,"SUPPRF58347"
"5",1705067097893,"12/01/2024 13:44:57",1705067097893,0,"12/01/2024 13:44:57",159402,5,"task-gjqt",NA,34161349,10092266,NA,"rejected - time limit reached",NA,"65a13e9a34524cf2f4dd0256","computer","Desktop or Laptop","Mac OS 10.15.7","Chrome 120.0.0.0","1280x800","1280x713",NA,NA,0,"BIQ (Charlotte)",3,"BCADJEIFHG","Passed AC2","","Spreadsheet1",1,"BIQ","Screen 1","9dh6eq",1,"response","6",58886.7,59753.7,59767.3,58886.7,59753.7,59767.3,1,58886.7,880.599999999999,0,NA,"Rating Scale","Rating Scale",17,"object-80","BIQ",NA,"SUPPRF58347"
"6",1705067152271,"12/01/2024 13:45:52",1705067152271,0,"12/01/2024 13:45:52",159402,5,"task-gjqt",NA,34161349,10092266,NA,"rejected - time limit reached",NA,"65a13e9a34524cf2f4dd0256","computer","Desktop or Laptop","Mac OS 10.15.7","Chrome 120.0.0.0","1280x800","1280x713",NA,NA,0,"BIQ (Charlotte)",3,"BCADJEIFHG","Passed AC2","","Spreadsheet1",1,"BIQ","Screen 2","o21mwi",2,"continue","",54390.2000000238,54383.7,54390.2000000238,54390.2000000238,54383.7,54390.2000000238,1,54390.2000000238,0,0,NA,"Click To Continue","Continue Button",22,"object-50","BIQ",NA,"SUPPRF58347"
"7",1705067152273,"12/01/2024 13:45:52",1705067152273,0,"12/01/2024 13:45:52",159402,5,"task-gjqt",NA,34161349,10092266,NA,"rejected - time limit reached",NA,"65a13e9a34524cf2f4dd0256","computer","Desktop or Laptop","Mac OS 10.15.7","Chrome 120.0.0.0","1280x800","1280x713",NA,NA,0,"BIQ (Charlotte)",3,"BCADJEIFHG","Passed AC2","","Spreadsheet1",1,"BIQ","Screen 2","o21mwi",2,"response","8",47292.7,54383.7,54392.7000000238,47292.7,54383.7,54392.7000000238,1,47292.7,7100.00000002384,0,NA,"Rating Scale","Rating Scale",2,"object-259","BIQ",NA,"SUPPRF58347"
"8",1705067152274,"12/01/2024 13:45:52",1705067152274,0,"12/01/2024 13:45:52",159402,5,"task-gjqt",NA,34161349,10092266,NA,"rejected - time limit reached",NA,"65a13e9a34524cf2f4dd0256","computer","Desktop or Laptop","Mac OS 10.15.7","Chrome 120.0.0.0","1280x800","1280x713",NA,NA,0,"BIQ (Charlotte)",3,"BCADJEIFHG","Passed AC2","","Spreadsheet1",1,"BIQ","Screen 2","o21mwi",2,"response","0",48876.7,54383.7,54393.1,48876.7,54383.7,54393.1,1,48876.7,5516.39999999999,0,NA,"Rating Scale","Rating Scale",9,"object-36","BIQ",NA,"SUPPRF58347"
"9",1705067152274,"12/01/2024 13:45:52",1705067152274,0,"12/01/2024 13:45:52",159402,5,"task-gjqt",NA,34161349,10092266,NA,"rejected - time limit reached",NA,"65a13e9a34524cf2f4dd0256","computer","Desktop or Laptop","Mac OS 10.15.7","Chrome 120.0.0.0","1280x800","1280x713",NA,NA,0,"BIQ (Charlotte)",3,"BCADJEIFHG","Passed AC2","","Spreadsheet1",1,"BIQ","Screen 2","o21mwi",2,"response","0",52661.7,54383.7,54393.5000000358,52661.7,54383.7,54393.5000000358,1,52661.7,1731.80000003576,0,NA,"Rating Scale","Rating Scale",16,"object-86","BIQ",NA,"SUPPRF58347"
"10",1705067302873,"12/01/2024 13:48:22",1705067302873,0,"12/01/2024 13:48:22",159402,5,"task-gjqt",NA,34161349,10092266,NA,"rejected - time limit reached",NA,"65a13e9a34524cf2f4dd0256","computer","Desktop or Laptop","Mac OS 10.15.7","Chrome 120.0.0.0","1280x800","1280x713",NA,NA,0,"BIQ (Charlotte)",3,"BCADJEIFHG","Passed AC2","","Spreadsheet1",1,"BIQ","Screen 3","iz3the",3,"continue","",150603.9,150595,150603.9,150603.9,150595,150603.9,1,150603.9,0,0,NA,"Click To Continue","Continue Button",22,"object-73","BIQ",NA,"SUPPRF58347"
"11",1705067302877,"12/01/2024 13:48:22",1705067302877,0,"12/01/2024 13:48:22",159402,5,"task-gjqt",NA,34161349,10092266,NA,"rejected - time limit reached",NA,"65a13e9a34524cf2f4dd0256","computer","Desktop or Laptop","Mac OS 10.15.7","Chrome 120.0.0.0","1280x800","1280x713",NA,NA,0,"BIQ (Charlotte)",3,"BCADJEIFHG","Passed AC2","","Spreadsheet1",1,"BIQ","Screen 3","iz3the",3,"response","1",68526.9,150595,150607.700000012,68526.9,150595,150607.700000012,1,68526.9,82080.8000000119,0,NA,"Rating Scale","Rating Scale",2,"object-53","BIQ",NA,"SUPPRF58347"
"12",1705067302878,"12/01/2024 13:48:22",1705067302878,0,"12/01/2024 13:48:22",159402,5,"task-gjqt",NA,34161349,10092266,NA,"rejected - time limit reached",NA,"65a13e9a34524cf2f4dd0256","computer","Desktop or Laptop","Mac OS 10.15.7","Chrome 120.0.0.0","1280x800","1280x713",NA,NA,0,"BIQ (Charlotte)",3,"BCADJEIFHG","Passed AC2","","Spreadsheet1",1,"BIQ","Screen 3","iz3the",3,"response","0",149185.6,150595,150608.500000024,149185.6,150595,150608.500000024,1,149185.6,1422.90000002383,0,NA,"Rating Scale","Rating Scale",9,"object-60","BIQ",NA,"SUPPRF58347"
"13",1705067302878,"12/01/2024 13:48:22",1705067302878,0,"12/01/2024 13:48:22",159402,5,"task-gjqt",NA,34161349,10092266,NA,"rejected - time limit reached",NA,"65a13e9a34524cf2f4dd0256","computer","Desktop or Laptop","Mac OS 10.15.7","Chrome 120.0.0.0","1280x800","1280x713",NA,NA,0,"BIQ (Charlotte)",3,"BCADJEIFHG","Passed AC2","","Spreadsheet1",1,"BIQ","Screen 3","iz3the",3,"response","0",149669.2,150595,150608.9,149669.2,150595,150608.9,1,149669.2,939.700000000012,0,NA,"Rating Scale","Rating Scale",16,"object-67","BIQ",NA,"SUPPRF58347"
"14",1705067302882,"12/01/2024 13:48:22",1705067302882,0,"12/01/2024 13:48:22",159402,5,"task-gjqt",NA,34161349,10092266,NA,"rejected - time limit reached",NA,"65a13e9a34524cf2f4dd0256","computer","Desktop or Laptop","Mac OS 10.15.7","Chrome 120.0.0.0","1280x800","1280x713",NA,NA,0,"BIQ (Charlotte)",3,"BCADJEIFHG","Passed AC2","","Spreadsheet1",NA,"","","",NA,"5","END",NA,NA,NA,NA,NA,NA,0,NA,NA,NA,NA,"","",NA,"","",NA,"SUPPRF58347"
"1",1705067109944,"12/01/2024 13:45:09",1705067109944,0,"12/01/2024 13:45:09",159402,5,"task-gjqt",NA,34161393,10092341,NA,"complete",NA,"65a1413217968f18371eb8d2","computer","Desktop or Laptop","Windows 10","Chrome 120.0.0.0","1366x768","1366x651",NA,NA,0,"BIQ (Charlotte)",3,"DECFBGAHJI","Passed AC2","","Spreadsheet1",NA,"","","",NA,"5","BEGIN",NA,NA,NA,NA,NA,NA,0,NA,NA,NA,NA,"","",NA,"","",NA,NA
"2",1705067136551,"12/01/2024 13:45:36",1705067136551,0,"12/01/2024 13:45:36",159402,5,"task-gjqt",NA,34161393,10092341,NA,"complete",NA,"65a1413217968f18371eb8d2","computer","Desktop or Laptop","Windows 10","Chrome 120.0.0.0","1366x768","1366x651",NA,NA,0,"BIQ (Charlotte)",3,"DECFBGAHJI","Passed AC2","","Spreadsheet1",1,"BIQ","Screen 1","9dh6eq",1,"continue","",26633.9,26617.3,26633.9,26633.9,26617.3,26633.9,1,26633.9,0,0,NA,"Click To Continue","Continue Button",23,"object-48","BIQ",NA,NA
"3",1705067136555,"12/01/2024 13:45:36",1705067136555,0,"12/01/2024 13:45:36",159402,5,"task-gjqt",NA,34161393,10092341,NA,"complete",NA,"65a1413217968f18371eb8d2","computer","Desktop or Laptop","Windows 10","Chrome 120.0.0.0","1366x768","1366x651",NA,NA,0,"BIQ (Charlotte)",3,"DECFBGAHJI","Passed AC2","","Spreadsheet1",1,"BIQ","Screen 1","9dh6eq",1,"response","3",13667,26617.3,26633.9,13667,26617.3,26633.9,1,13667,12966.9,0,NA,"Rating Scale","Rating Scale",3,"object-5","BIQ",NA,NA
"4",1705067136556,"12/01/2024 13:45:36",1705067136556,0,"12/01/2024 13:45:36",159402,5,"task-gjqt",NA,34161393,10092341,NA,"complete",NA,"65a1413217968f18371eb8d2","computer","Desktop or Laptop","Windows 10","Chrome 120.0.0.0","1366x768","1366x651",NA,NA,0,"BIQ (Charlotte)",3,"DECFBGAHJI","Passed AC2","","Spreadsheet1",1,"BIQ","Screen 1","9dh6eq",1,"response","6",21217.2,26617.3,26633.9,21217.2,26617.3,26633.9,1,21217.2,5416.7,0,NA,"Rating Scale","Rating Scale",10,"object-18","BIQ",NA,NA
"5",1705067136557,"12/01/2024 13:45:36",1705067136557,0,"12/01/2024 13:45:36",159402,5,"task-gjqt",NA,34161393,10092341,NA,"complete",NA,"65a1413217968f18371eb8d2","computer","Desktop or Laptop","Windows 10","Chrome 120.0.0.0","1366x768","1366x651",NA,NA,0,"BIQ (Charlotte)",3,"DECFBGAHJI","Passed AC2","","Spreadsheet1",1,"BIQ","Screen 1","9dh6eq",1,"response","4",26050.7,26617.3,26633.9,26050.7,26617.3,26633.9,1,26050.7,583.199999999997,0,NA,"Rating Scale","Rating Scale",17,"object-80","BIQ",NA,NA
"6",1705067158587,"12/01/2024 13:45:58",1705067158587,0,"12/01/2024 13:45:58",159402,5,"task-gjqt",NA,34161393,10092341,NA,"complete",NA,"65a1413217968f18371eb8d2","computer","Desktop or Laptop","Windows 10","Chrome 120.0.0.0","1366x768","1366x651",NA,NA,0,"BIQ (Charlotte)",3,"DECFBGAHJI","Passed AC2","","Spreadsheet1",1,"BIQ","Screen 2","o21mwi",2,"continue","",22057.7999999998,22050.7,22057.7999999998,22057.7999999998,22050.7,22057.7999999998,1,22057.7999999998,0,0,NA,"Click To Continue","Continue Button",22,"object-50","BIQ",NA,NA
"7",1705067158592,"12/01/2024 13:45:58",1705067158592,0,"12/01/2024 13:45:58",159402,5,"task-gjqt",NA,34161393,10092341,NA,"complete",NA,"65a1413217968f18371eb8d2","computer","Desktop or Laptop","Windows 10","Chrome 120.0.0.0","1366x768","1366x651",NA,NA,0,"BIQ (Charlotte)",3,"DECFBGAHJI","Passed AC2","","Spreadsheet1",1,"BIQ","Screen 2","o21mwi",2,"response","7",7333.6,22050.7,22063.0999999996,7333.6,22050.7,22063.0999999996,1,7333.6,14729.4999999996,0,NA,"Rating Scale","Rating Scale",2,"object-259","BIQ",NA,NA
"8",1705067158594,"12/01/2024 13:45:58",1705067158594,0,"12/01/2024 13:45:58",159402,5,"task-gjqt",NA,34161393,10092341,NA,"complete",NA,"65a1413217968f18371eb8d2","computer","Desktop or Laptop","Windows 10","Chrome 120.0.0.0","1366x768","1366x651",NA,NA,0,"BIQ (Charlotte)",3,"DECFBGAHJI","Passed AC2","","Spreadsheet1",1,"BIQ","Screen 2","o21mwi",2,"response","4",12567,22050.7,22064.4000000004,12567,22050.7,22064.4000000004,1,12567,9497.40000000037,0,NA,"Rating Scale","Rating Scale",9,"object-36","BIQ",NA,NA
"9",1705067158595,"12/01/2024 13:45:58",1705067158595,0,"12/01/2024 13:45:58",159402,5,"task-gjqt",NA,34161393,10092341,NA,"complete",NA,"65a1413217968f18371eb8d2","computer","Desktop or Laptop","Windows 10","Chrome 120.0.0.0","1366x768","1366x651",NA,NA,0,"BIQ (Charlotte)",3,"DECFBGAHJI","Passed AC2","","Spreadsheet1",1,"BIQ","Screen 2","o21mwi",2,"response","1",20967.3,22050.7,22065.5999999996,20967.3,22050.7,22065.5999999996,1,20967.3,1098.29999999962,0,NA,"Rating Scale","Rating Scale",16,"object-86","BIQ",NA,NA
"10",1705067175627,"12/01/2024 13:46:15",1705067175627,0,"12/01/2024 13:46:15",159402,5,"task-gjqt",NA,34161393,10092341,NA,"complete",NA,"65a1413217968f18371eb8d2","computer","Desktop or Laptop","Windows 10","Chrome 120.0.0.0","1366x768","1366x651",NA,NA,0,"BIQ (Charlotte)",3,"DECFBGAHJI","Passed AC2","","Spreadsheet1",1,"BIQ","Screen 3","iz3the",3,"continue","",17046.5000000002,17033.7,17046.5000000002,17046.5000000002,17033.7,17046.5000000002,1,17046.5000000002,0,0,NA,"Click To Continue","Continue Button",22,"object-73","BIQ",NA,NA
"11",1705067175632,"12/01/2024 13:46:15",1705067175632,0,"12/01/2024 13:46:15",159402,5,"task-gjqt",NA,34161393,10092341,NA,"complete",NA,"65a1413217968f18371eb8d2","computer","Desktop or Laptop","Windows 10","Chrome 120.0.0.0","1366x768","1366x651",NA,NA,0,"BIQ (Charlotte)",3,"DECFBGAHJI","Passed AC2","","Spreadsheet1",1,"BIQ","Screen 3","iz3the",3,"response","0",8216.9,17033.7,17050.3,8216.9,17033.7,17050.3,1,8216.9,8833.39999999999,0,NA,"Rating Scale","Rating Scale",2,"object-53","BIQ",NA,NA
"12",1705067175633,"12/01/2024 13:46:15",1705067175633,0,"12/01/2024 13:46:15",159402,5,"task-gjqt",NA,34161393,10092341,NA,"complete",NA,"65a1413217968f18371eb8d2","computer","Desktop or Laptop","Windows 10","Chrome 120.0.0.0","1366x768","1366x651",NA,NA,0,"BIQ (Charlotte)",3,"DECFBGAHJI","Passed AC2","","Spreadsheet1",1,"BIQ","Screen 3","iz3the",3,"response","1",11566.9,17033.7,17050.3,11566.9,17033.7,17050.3,1,11566.9,5483.39999999999,0,NA,"Rating Scale","Rating Scale",9,"object-60","BIQ",NA,NA
"13",1705067175634,"12/01/2024 13:46:15",1705067175634,0,"12/01/2024 13:46:15",159402,5,"task-gjqt",NA,34161393,10092341,NA,"complete",NA,"65a1413217968f18371eb8d2","computer","Desktop or Laptop","Windows 10","Chrome 120.0.0.0","1366x768","1366x651",NA,NA,0,"BIQ (Charlotte)",3,"DECFBGAHJI","Passed AC2","","Spreadsheet1",1,"BIQ","Screen 3","iz3the",3,"response","2",16283.7,17033.7,17050.3,16283.7,17033.7,17050.3,1,16283.7,766.599999999991,0,NA,"Rating Scale","Rating Scale",16,"object-67","BIQ",NA,NA
"14",1705067175643,"12/01/2024 13:46:15",1705067175643,0,"12/01/2024 13:46:15",159402,5,"task-gjqt",NA,34161393,10092341,NA,"complete",NA,"65a1413217968f18371eb8d2","computer","Desktop or Laptop","Windows 10","Chrome 120.0.0.0","1366x768","1366x651",NA,NA,0,"BIQ (Charlotte)",3,"DECFBGAHJI","Passed AC2","","Spreadsheet1",NA,"","","",NA,"5","END",NA,NA,NA,NA,NA,NA,0,NA,NA,NA,NA,"","",NA,"","",NA,NA
"1",1705067142402,"12/01/2024 13:45:42",1705070742402,1,"12/01/2024 15:45:42",159402,5,"task-gjqt",NA,34161402,10092350,NA,"complete",NA,"65a14121ab0b2cb97c719396","computer","Desktop or Laptop","Windows 10","Chrome 120.0.0.0","1600x900","1600x773",NA,NA,0,"BIQ (Charlotte)",3,"EFDGCHBIAJ","Passed AC2","","Spreadsheet1",NA,"","","",NA,"5","BEGIN",NA,NA,NA,NA,NA,NA,0,NA,NA,NA,NA,"","",NA,"","",NA,NA
"2",1705067196883,"12/01/2024 13:46:36",1705070796883,1,"12/01/2024 15:46:36",159402,5,"task-gjqt",NA,34161402,10092350,NA,"complete",NA,"65a14121ab0b2cb97c719396","computer","Desktop or Laptop","Windows 10","Chrome 120.0.0.0","1600x900","1600x773",NA,NA,0,"BIQ (Charlotte)",3,"EFDGCHBIAJ","Passed AC2","","Spreadsheet1",1,"BIQ","Screen 1","9dh6eq",1,"continue","",54505.2,54488.5,54505.2,54505.2,54488.5,54505.2,1,54505.2,0,0,NA,"Click To Continue","Continue Button",23,"object-48","BIQ",NA,NA
"3",1705067196891,"12/01/2024 13:46:36",1705070796891,1,"12/01/2024 15:46:36",159402,5,"task-gjqt",NA,34161402,10092350,NA,"complete",NA,"65a14121ab0b2cb97c719396","computer","Desktop or Laptop","Windows 10","Chrome 120.0.0.0","1600x900","1600x773",NA,NA,0,"BIQ (Charlotte)",3,"EFDGCHBIAJ","Passed AC2","","Spreadsheet1",1,"BIQ","Screen 1","9dh6eq",1,"response","8",31286.6,54488.5,54505.2,31286.6,54488.5,54505.2,1,31286.6,23218.6,0,NA,"Rating Scale","Rating Scale",3,"object-5","BIQ",NA,NA
"4",1705067196893,"12/01/2024 13:46:36",1705070796893,1,"12/01/2024 15:46:36",159402,5,"task-gjqt",NA,34161402,10092350,NA,"complete",NA,"65a14121ab0b2cb97c719396","computer","Desktop or Laptop","Windows 10","Chrome 120.0.0.0","1600x900","1600x773",NA,NA,0,"BIQ (Charlotte)",3,"EFDGCHBIAJ","Passed AC2","","Spreadsheet1",1,"BIQ","Screen 1","9dh6eq",1,"response","7",40654,54488.5,54505.2,40654,54488.5,54505.2,1,40654,13851.2,0,NA,"Rating Scale","Rating Scale",10,"object-18","BIQ",NA,NA
"5",1705067196894,"12/01/2024 13:46:36",1705070796894,1,"12/01/2024 15:46:36",159402,5,"task-gjqt",NA,34161402,10092350,NA,"complete",NA,"65a14121ab0b2cb97c719396","computer","Desktop or Laptop","Windows 10","Chrome 120.0.0.0","1600x900","1600x773",NA,NA,0,"BIQ (Charlotte)",3,"EFDGCHBIAJ","Passed AC2","","Spreadsheet1",1,"BIQ","Screen 1","9dh6eq",1,"response","1",52054.9,54488.5,54505.2,52054.9,54488.5,54505.2,1,52054.9,2450.30000000001,0,NA,"Rating Scale","Rating Scale",17,"object-80","BIQ",NA,NA
"6",1705067222531,"12/01/2024 13:47:02",1705070822531,1,"12/01/2024 15:47:02",159402,5,"task-gjqt",NA,34161402,10092350,NA,"complete",NA,"65a14121ab0b2cb97c719396","computer","Desktop or Laptop","Windows 10","Chrome 120.0.0.0","1600x900","1600x773",NA,NA,0,"BIQ (Charlotte)",3,"EFDGCHBIAJ","Passed AC2","","Spreadsheet1",1,"BIQ","Screen 2","o21mwi",2,"continue","",25675.9999999821,25668.9,25675.9999999821,25675.9999999821,25668.9,25675.9999999821,1,25675.9999999821,0,0,NA,"Click To Continue","Continue Button",22,"object-50","BIQ",NA,NA
"7",1705067222539,"12/01/2024 13:47:02",1705070822539,1,"12/01/2024 15:47:02",159402,5,"task-gjqt",NA,34161402,10092350,NA,"complete",NA,"65a14121ab0b2cb97c719396","computer","Desktop or Laptop","Windows 10","Chrome 120.0.0.0","1600x900","1600x773",NA,NA,0,"BIQ (Charlotte)",3,"EFDGCHBIAJ","Passed AC2","","Spreadsheet1",1,"BIQ","Screen 2","o21mwi",2,"response","7",8834.09999999999,25668.9,25683.299999994,8834.09999999999,25668.9,25683.299999994,1,8834.09999999999,16849.199999994,0,NA,"Rating Scale","Rating Scale",2,"object-259","BIQ",NA,NA
"8",1705067222541,"12/01/2024 13:47:02",1705070822541,1,"12/01/2024 15:47:02",159402,5,"task-gjqt",NA,34161402,10092350,NA,"complete",NA,"65a14121ab0b2cb97c719396","computer","Desktop or Laptop","Windows 10","Chrome 120.0.0.0","1600x900","1600x773",NA,NA,0,"BIQ (Charlotte)",3,"EFDGCHBIAJ","Passed AC2","","Spreadsheet1",1,"BIQ","Screen 2","o21mwi",2,"response","0",15084.6,25668.9,25685.299999994,15084.6,25668.9,25685.299999994,1,15084.6,10600.699999994,0,NA,"Rating Scale","Rating Scale",9,"object-36","BIQ",NA,NA
"9",1705067222543,"12/01/2024 13:47:02",1705070822543,1,"12/01/2024 15:47:02",159402,5,"task-gjqt",NA,34161402,10092350,NA,"complete",NA,"65a14121ab0b2cb97c719396","computer","Desktop or Laptop","Windows 10","Chrome 120.0.0.0","1600x900","1600x773",NA,NA,0,"BIQ (Charlotte)",3,"EFDGCHBIAJ","Passed AC2","","Spreadsheet1",1,"BIQ","Screen 2","o21mwi",2,"response","2",23685.3,25668.9,25685.6,23685.3,25668.9,25685.6,1,23685.3,2000.29999999999,0,NA,"Rating Scale","Rating Scale",16,"object-86","BIQ",NA,NA
"10",1705067245579,"12/01/2024 13:47:25",1705070845579,1,"12/01/2024 15:47:25",159402,5,"task-gjqt",NA,34161402,10092350,NA,"complete",NA,"65a14121ab0b2cb97c719396","computer","Desktop or Laptop","Windows 10","Chrome 120.0.0.0","1600x900","1600x773",NA,NA,0,"BIQ (Charlotte)",3,"EFDGCHBIAJ","Passed AC2","","Spreadsheet1",1,"BIQ","Screen 3","iz3the",3,"continue","",23054.4999999881,23052,23054.4999999881,23054.4999999881,23052,23054.4999999881,1,23054.4999999881,0,0,NA,"Click To Continue","Continue Button",22,"object-73","BIQ",NA,NA
"11",1705067245585,"12/01/2024 13:47:25",1705070845585,1,"12/01/2024 15:47:25",159402,5,"task-gjqt",NA,34161402,10092350,NA,"complete",NA,"65a14121ab0b2cb97c719396","computer","Desktop or Laptop","Windows 10","Chrome 120.0.0.0","1600x900","1600x773",NA,NA,0,"BIQ (Charlotte)",3,"EFDGCHBIAJ","Passed AC2","","Spreadsheet1",1,"BIQ","Screen 3","iz3the",3,"response","0",13434.5,23052,23060.899999994,13434.5,23052,23060.899999994,1,13434.5,9626.39999999404,0,NA,"Rating Scale","Rating Scale",2,"object-53","BIQ",NA,NA
"12",1705067245587,"12/01/2024 13:47:25",1705070845587,1,"12/01/2024 15:47:25",159402,5,"task-gjqt",NA,34161402,10092350,NA,"complete",NA,"65a14121ab0b2cb97c719396","computer","Desktop or Laptop","Windows 10","Chrome 120.0.0.0","1600x900","1600x773",NA,NA,0,"BIQ (Charlotte)",3,"EFDGCHBIAJ","Passed AC2","","Spreadsheet1",1,"BIQ","Screen 3","iz3the",3,"response","2",16968.1,23052,23062.5999999821,16968.1,23052,23062.5999999821,1,16968.1,6094.49999998212,0,NA,"Rating Scale","Rating Scale",9,"object-60","BIQ",NA,NA
"13",1705067245588,"12/01/2024 13:47:25",1705070845588,1,"12/01/2024 15:47:25",159402,5,"task-gjqt",NA,34161402,10092350,NA,"complete",NA,"65a14121ab0b2cb97c719396","computer","Desktop or Laptop","Windows 10","Chrome 120.0.0.0","1600x900","1600x773",NA,NA,0,"BIQ (Charlotte)",3,"EFDGCHBIAJ","Passed AC2","","Spreadsheet1",1,"BIQ","Screen 3","iz3the",3,"response","4",22302,23052,23064.5999999821,22302,23052,23064.5999999821,1,22302,762.599999982122,0,NA,"Rating Scale","Rating Scale",16,"object-67","BIQ",NA,NA
"14",1705067245601,"12/01/2024 13:47:25",1705070845601,1,"12/01/2024 15:47:25",159402,5,"task-gjqt",NA,34161402,10092350,NA,"complete",NA,"65a14121ab0b2cb97c719396","computer","Desktop or Laptop","Windows 10","Chrome 120.0.0.0","1600x900","1600x773",NA,NA,0,"BIQ (Charlotte)",3,"EFDGCHBIAJ","Passed AC2","","Spreadsheet1",NA,"","","",NA,"5","END",NA,NA,NA,NA,NA,NA,0,NA,NA,NA,NA,"","",NA,"","",NA,NA
"1",1705067283825,"12/01/2024 13:48:03",1705049283825,-5,"12/01/2024 03:48:03",159402,5,"task-gjqt",NA,34161466,10092292,NA,"rejected - time limit reached",NA,"65a13f5198d477a2587dbb50","computer","Desktop or Laptop","Windows 10","Chrome 120.0.0.0","1366x768","754x632",NA,NA,0,"BIQ (Charlotte)",3,"FGEHDICJBA","Passed AC2","","Spreadsheet1",NA,"","","",NA,"5","BEGIN",NA,NA,NA,NA,NA,NA,0,NA,NA,NA,NA,"","",NA,"","",NA,NA
"2",1705067433770,"12/01/2024 13:50:33",1705049433770,-5,"12/01/2024 03:50:33",159402,5,"task-gjqt",NA,34161466,10092292,NA,"rejected - time limit reached",NA,"65a13f5198d477a2587dbb50","computer","Desktop or Laptop","Windows 10","Chrome 120.0.0.0","1366x768","830x632",NA,NA,0,"BIQ (Charlotte)",3,"FGEHDICJBA","Passed AC2","","Spreadsheet1",1,"BIQ","Screen 1","9dh6eq",1,"continue","",149960.3,149943.7,149960.3,149960.3,149943.7,149960.3,1,149960.3,0,0,NA,"Click To Continue","Continue Button",23,"object-48","BIQ",NA,NA
"3",1705067433810,"12/01/2024 13:50:33",1705049433810,-5,"12/01/2024 03:50:33",159402,5,"task-gjqt",NA,34161466,10092292,NA,"rejected - time limit reached",NA,"65a13f5198d477a2587dbb50","computer","Desktop or Laptop","Windows 10","Chrome 120.0.0.0","1366x768","830x632",NA,NA,0,"BIQ (Charlotte)",3,"FGEHDICJBA","Passed AC2","","Spreadsheet1",1,"BIQ","Screen 1","9dh6eq",1,"response","7",121698,149943.7,149960.3,121698,149943.7,149960.3,1,121698,28262.3,0,NA,"Rating Scale","Rating Scale",3,"object-5","BIQ",NA,NA
"4",1705067433815,"12/01/2024 13:50:33",1705049433815,-5,"12/01/2024 03:50:33",159402,5,"task-gjqt",NA,34161466,10092292,NA,"rejected - time limit reached",NA,"65a13f5198d477a2587dbb50","computer","Desktop or Laptop","Windows 10","Chrome 120.0.0.0","1366x768","830x632",NA,NA,0,"BIQ (Charlotte)",3,"FGEHDICJBA","Passed AC2","","Spreadsheet1",1,"BIQ","Screen 1","9dh6eq",1,"response","4",144694.4,149943.7,149960.3,144694.4,149943.7,149960.3,1,144694.4,5265.90000000002,0,NA,"Rating Scale","Rating Scale",10,"object-18","BIQ",NA,NA
"5",1705067433828,"12/01/2024 13:50:33",1705049433828,-5,"12/01/2024 03:50:33",159402,5,"task-gjqt",NA,34161466,10092292,NA,"rejected - time limit reached",NA,"65a13f5198d477a2587dbb50","computer","Desktop or Laptop","Windows 10","Chrome 120.0.0.0","1366x768","830x632",NA,NA,0,"BIQ (Charlotte)",3,"FGEHDICJBA","Passed AC2","","Spreadsheet1",1,"BIQ","Screen 1","9dh6eq",1,"response","0",149210.5,149943.7,149960.3,149210.5,149943.7,149960.3,1,149210.5,749.800000000017,0,NA,"Rating Scale","Rating Scale",17,"object-80","BIQ",NA,NA
"6",1705067465945,"12/01/2024 13:51:05",1705049465945,-5,"12/01/2024 03:51:05",159402,5,"task-gjqt",NA,34161466,10092292,NA,"rejected - time limit reached",NA,"65a13f5198d477a2587dbb50","computer","Desktop or Laptop","Windows 10","Chrome 120.0.0.0","1366x768","830x632",NA,NA,0,"BIQ (Charlotte)",3,"FGEHDICJBA","Passed AC2","","Spreadsheet1",1,"BIQ","Screen 2","o21mwi",2,"continue","",32205.7000000022,32195.2,32205.7000000022,32205.7000000022,32195.2,32205.7000000022,1,32205.7000000022,0,0,NA,"Click To Continue","Continue Button",22,"object-50","BIQ",NA,NA
"7",1705067465954,"12/01/2024 13:51:05",1705049465954,-5,"12/01/2024 03:51:05",159402,5,"task-gjqt",NA,34161466,10092292,NA,"rejected - time limit reached",NA,"65a13f5198d477a2587dbb50","computer","Desktop or Laptop","Windows 10","Chrome 120.0.0.0","1366x768","830x632",NA,NA,0,"BIQ (Charlotte)",3,"FGEHDICJBA","Passed AC2","","Spreadsheet1",1,"BIQ","Screen 2","o21mwi",2,"response","8",15530.9,32195.2,32212,15530.9,32195.2,32212,1,15530.9,16681.1,0,NA,"Rating Scale","Rating Scale",2,"object-259","BIQ",NA,NA
"8",1705067465955,"12/01/2024 13:51:05",1705049465955,-5,"12/01/2024 03:51:05",159402,5,"task-gjqt",NA,34161466,10092292,NA,"rejected - time limit reached",NA,"65a13f5198d477a2587dbb50","computer","Desktop or Laptop","Windows 10","Chrome 120.0.0.0","1366x768","830x632",NA,NA,0,"BIQ (Charlotte)",3,"FGEHDICJBA","Passed AC2","","Spreadsheet1",1,"BIQ","Screen 2","o21mwi",2,"response","0",24929.6,32195.2,32212,24929.6,32195.2,32212,1,24929.6,7282.39999999999,0,NA,"Rating Scale","Rating Scale",9,"object-36","BIQ",NA,NA
"9",1705067465958,"12/01/2024 13:51:05",1705049465958,-5,"12/01/2024 03:51:05",159402,5,"task-gjqt",NA,34161466,10092292,NA,"rejected - time limit reached",NA,"65a13f5198d477a2587dbb50","computer","Desktop or Laptop","Windows 10","Chrome 120.0.0.0","1366x768","830x632",NA,NA,0,"BIQ (Charlotte)",3,"FGEHDICJBA","Passed AC2","","Spreadsheet1",1,"BIQ","Screen 2","o21mwi",2,"response","0",31128.7,32195.2,32212,31128.7,32195.2,32212,1,31128.7,1083.29999999999,0,NA,"Rating Scale","Rating Scale",16,"object-86","BIQ",NA,NA
"10",1705068282060,"12/01/2024 14:04:42",1705050282060,-5,"12/01/2024 04:04:42",159402,5,"task-gjqt",NA,34161466,10092292,NA,"rejected - time limit reached",NA,"65a13f5198d477a2587dbb50","computer","Desktop or Laptop","Windows 10","Chrome 120.0.0.0","1366x768","830x632",NA,NA,0,"BIQ (Charlotte)",3,"FGEHDICJBA","Passed AC2","","Spreadsheet1",1,"BIQ","Screen 3","iz3the",3,"continue","",816121.400000001,816110.1,816121.400000001,816121.400000001,816110.1,816121.400000001,1,816121.400000001,0,0,NA,"Click To Continue","Continue Button",22,"object-73","BIQ",NA,NA
"11",1705068282071,"12/01/2024 14:04:42",1705050282071,-5,"12/01/2024 04:04:42",159402,5,"task-gjqt",NA,34161466,10092292,NA,"rejected - time limit reached",NA,"65a13f5198d477a2587dbb50","computer","Desktop or Laptop","Windows 10","Chrome 120.0.0.0","1366x768","830x632",NA,NA,0,"BIQ (Charlotte)",3,"FGEHDICJBA","Passed AC2","","Spreadsheet1",1,"BIQ","Screen 3","iz3the",3,"response","4",802478.9,816110.1,816126.7,802478.9,816110.1,816126.7,1,802478.9,13647.7999999999,0,NA,"Rating Scale","Rating Scale",2,"object-53","BIQ",NA,NA
"12",1705068282074,"12/01/2024 14:04:42",1705050282074,-5,"12/01/2024 04:04:42",159402,5,"task-gjqt",NA,34161466,10092292,NA,"rejected - time limit reached",NA,"65a13f5198d477a2587dbb50","computer","Desktop or Laptop","Windows 10","Chrome 120.0.0.0","1366x768","830x632",NA,NA,0,"BIQ (Charlotte)",3,"FGEHDICJBA","Passed AC2","","Spreadsheet1",1,"BIQ","Screen 3","iz3the",3,"response","4",810144.3,816110.1,816126.7,810144.3,816110.1,816126.7,1,810144.3,5982.40000000002,0,NA,"Rating Scale","Rating Scale",9,"object-60","BIQ",NA,NA
"13",1705068282077,"12/01/2024 14:04:42",1705050282077,-5,"12/01/2024 04:04:42",159402,5,"task-gjqt",NA,34161466,10092292,NA,"rejected - time limit reached",NA,"65a13f5198d477a2587dbb50","computer","Desktop or Laptop","Windows 10","Chrome 120.0.0.0","1366x768","830x632",NA,NA,0,"BIQ (Charlotte)",3,"FGEHDICJBA","Passed AC2","","Spreadsheet1",1,"BIQ","Screen 3","iz3the",3,"response","7",811994.2,816110.1,816126.7,811994.2,816110.1,816126.7,1,811994.2,4132.5,0,NA,"Rating Scale","Rating Scale",16,"object-67","BIQ",NA,NA
"14",1705068282091,"12/01/2024 14:04:42",1705050282091,-5,"12/01/2024 04:04:42",159402,5,"task-gjqt",NA,34161466,10092292,NA,"rejected - time limit reached",NA,"65a13f5198d477a2587dbb50","computer","Desktop or Laptop","Windows 10","Chrome 120.0.0.0","1366x768","830x632",NA,NA,0,"BIQ (Charlotte)",3,"FGEHDICJBA","Passed AC2","","Spreadsheet1",NA,"","","",NA,"5","END",NA,NA,NA,NA,NA,NA,0,NA,NA,NA,NA,"","",NA,"","",NA,NA
"1",1705067751519,"12/01/2024 13:55:51",1705071351519,1,"12/01/2024 15:55:51",159402,5,"task-gjqt",NA,34161621,10092328,NA,"rejected - time limit reached",NA,"65a140c1207f7e97be430a58","computer","Desktop or Laptop","Windows 10","Chrome 120.0.0.0","1366x768","1366x607",NA,NA,0,"BIQ (Charlotte)",3,"GHFIEJDACB","Passed AC2","","Spreadsheet1",NA,"","","",NA,"5","BEGIN",NA,NA,NA,NA,NA,NA,0,NA,NA,NA,NA,"","",NA,"","",NA,NA
"2",1705067781070,"12/01/2024 13:56:21",1705071381070,1,"12/01/2024 15:56:21",159402,5,"task-gjqt",NA,34161621,10092328,NA,"rejected - time limit reached",NA,"65a140c1207f7e97be430a58","computer","Desktop or Laptop","Windows 10","Chrome 120.0.0.0","1366x768","1366x607",NA,NA,0,"BIQ (Charlotte)",3,"GHFIEJDACB","Passed AC2","","Spreadsheet1",1,"BIQ","Screen 1","9dh6eq",1,"continue","",29574.1,29557.4,29574.1,29574.1,29557.4,29574.1,1,29574.1,0,0,NA,"Click To Continue","Continue Button",23,"object-48","BIQ",NA,NA
"3",1705067781079,"12/01/2024 13:56:21",1705071381079,1,"12/01/2024 15:56:21",159402,5,"task-gjqt",NA,34161621,10092328,NA,"rejected - time limit reached",NA,"65a140c1207f7e97be430a58","computer","Desktop or Laptop","Windows 10","Chrome 120.0.0.0","1366x768","1366x607",NA,NA,0,"BIQ (Charlotte)",3,"GHFIEJDACB","Passed AC2","","Spreadsheet1",1,"BIQ","Screen 1","9dh6eq",1,"response","7",13586.5,29557.4,29574.1,13586.5,29557.4,29574.1,1,13586.5,15987.6,0,NA,"Rating Scale","Rating Scale",3,"object-5","BIQ",NA,NA
"4",1705067781080,"12/01/2024 13:56:21",1705071381080,1,"12/01/2024 15:56:21",159402,5,"task-gjqt",NA,34161621,10092328,NA,"rejected - time limit reached",NA,"65a140c1207f7e97be430a58","computer","Desktop or Laptop","Windows 10","Chrome 120.0.0.0","1366x768","1366x607",NA,NA,0,"BIQ (Charlotte)",3,"GHFIEJDACB","Passed AC2","","Spreadsheet1",1,"BIQ","Screen 1","9dh6eq",1,"response","7",27156.8,29557.4,29574.1,27156.8,29557.4,29574.1,1,27156.8,2417.3,0,NA,"Rating Scale","Rating Scale",10,"object-18","BIQ",NA,NA
"5",1705067781082,"12/01/2024 13:56:21",1705071381082,1,"12/01/2024 15:56:21",159402,5,"task-gjqt",NA,34161621,10092328,NA,"rejected - time limit reached",NA,"65a140c1207f7e97be430a58","computer","Desktop or Laptop","Windows 10","Chrome 120.0.0.0","1366x768","1366x607",NA,NA,0,"BIQ (Charlotte)",3,"GHFIEJDACB","Passed AC2","","Spreadsheet1",1,"BIQ","Screen 1","9dh6eq",1,"response","7",28707,29557.4,29574.1,28707,29557.4,29574.1,1,28707,867.100000000006,0,NA,"Rating Scale","Rating Scale",17,"object-80","BIQ",NA,NA
"6",1705067782355,"12/01/2024 13:56:22",1705071382355,1,"12/01/2024 15:56:22",159402,5,"task-gjqt",NA,34161621,10092328,NA,"rejected - time limit reached",NA,"65a140c1207f7e97be430a58","computer","Desktop or Laptop","Windows 10","Chrome 120.0.0.0","1366x768","1366x607",NA,NA,0,"BIQ (Charlotte)",3,"GHFIEJDACB","Passed AC2","","Spreadsheet1",1,"BIQ","Screen 2","o21mwi",2,"continue","",1317.10000000001,1300.4,1317.10000000001,1317.10000000001,1300.4,1317.10000000001,1,1317.10000000001,0,0,NA,"Click To Continue","Continue Button",22,"object-50","BIQ",NA,NA
"7",1705067788411,"12/01/2024 13:56:28",1705071388411,1,"12/01/2024 15:56:28",159402,5,"task-gjqt",NA,34161621,10092328,NA,"rejected - time limit reached",NA,"65a140c1207f7e97be430a58","computer","Desktop or Laptop","Windows 10","Chrome 120.0.0.0","1366x768","1366x607",NA,NA,0,"BIQ (Charlotte)",3,"GHFIEJDACB","Passed AC2","","Spreadsheet1",1,"BIQ","Screen 2","o21mwi",2,"continue","",7368.49999999999,7351.8,7368.49999999999,7368.49999999999,7351.8,7368.49999999999,1,7368.49999999999,0,0,NA,"Click To Continue","Continue Button",22,"object-50","BIQ",NA,NA
"8",1705067788796,"12/01/2024 13:56:28",1705071388796,1,"12/01/2024 15:56:28",159402,5,"task-gjqt",NA,34161621,10092328,NA,"rejected - time limit reached",NA,"65a140c1207f7e97be430a58","computer","Desktop or Laptop","Windows 10","Chrome 120.0.0.0","1366x768","1366x607",NA,NA,0,"BIQ (Charlotte)",3,"GHFIEJDACB","Passed AC2","","Spreadsheet1",1,"BIQ","Screen 2","o21mwi",2,"continue","",7761.1,7751.8,7761.1,7761.1,7751.8,7761.1,1,7761.1,0,0,NA,"Click To Continue","Continue Button",22,"object-50","BIQ",NA,NA
"9",1705067789079,"12/01/2024 13:56:29",1705071389079,1,"12/01/2024 15:56:29",159402,5,"task-gjqt",NA,34161621,10092328,NA,"rejected - time limit reached",NA,"65a140c1207f7e97be430a58","computer","Desktop or Laptop","Windows 10","Chrome 120.0.0.0","1366x768","1366x607",NA,NA,0,"BIQ (Charlotte)",3,"GHFIEJDACB","Passed AC2","","Spreadsheet1",1,"BIQ","Screen 2","o21mwi",2,"continue","",8044.1,8035.1,8044.1,8044.1,8035.1,8044.1,1,8044.1,0,0,NA,"Click To Continue","Continue Button",22,"object-50","BIQ",NA,NA
"10",1705067789334,"12/01/2024 13:56:29",1705071389334,1,"12/01/2024 15:56:29",159402,5,"task-gjqt",NA,34161621,10092328,NA,"rejected - time limit reached",NA,"65a140c1207f7e97be430a58","computer","Desktop or Laptop","Windows 10","Chrome 120.0.0.0","1366x768","1366x607",NA,NA,0,"BIQ (Charlotte)",3,"GHFIEJDACB","Passed AC2","","Spreadsheet1",1,"BIQ","Screen 2","o21mwi",2,"continue","",8298.80000000298,8285.1,8298.80000000298,8298.80000000298,8285.1,8298.80000000298,1,8298.80000000298,0,0,NA,"Click To Continue","Continue Button",22,"object-50","BIQ",NA,NA
"11",1705067789541,"12/01/2024 13:56:29",1705071389541,1,"12/01/2024 15:56:29",159402,5,"task-gjqt",NA,34161621,10092328,NA,"rejected - time limit reached",NA,"65a140c1207f7e97be430a58","computer","Desktop or Laptop","Windows 10","Chrome 120.0.0.0","1366x768","1366x607",NA,NA,0,"BIQ (Charlotte)",3,"GHFIEJDACB","Passed AC2","","Spreadsheet1",1,"BIQ","Screen 2","o21mwi",2,"continue","",8501.6,8485,8501.6,8501.6,8485,8501.6,1,8501.6,0,0,NA,"Click To Continue","Continue Button",22,"object-50","BIQ",NA,NA
"12",1705067789885,"12/01/2024 13:56:29",1705071389885,1,"12/01/2024 15:56:29",159402,5,"task-gjqt",NA,34161621,10092328,NA,"rejected - time limit reached",NA,"65a140c1207f7e97be430a58","computer","Desktop or Laptop","Windows 10","Chrome 120.0.0.0","1366x768","1366x607",NA,NA,0,"BIQ (Charlotte)",3,"GHFIEJDACB","Passed AC2","","Spreadsheet1",1,"BIQ","Screen 2","o21mwi",2,"continue","",8850.19999999404,8835.1,8850.19999999404,8850.19999999404,8835.1,8850.19999999404,1,8850.19999999404,0,0,NA,"Click To Continue","Continue Button",22,"object-50","BIQ",NA,NA
"13",1705067790115,"12/01/2024 13:56:30",1705071390115,1,"12/01/2024 15:56:30",159402,5,"task-gjqt",NA,34161621,10092328,NA,"rejected - time limit reached",NA,"65a140c1207f7e97be430a58","computer","Desktop or Laptop","Windows 10","Chrome 120.0.0.0","1366x768","1366x607",NA,NA,0,"BIQ (Charlotte)",3,"GHFIEJDACB","Passed AC2","","Spreadsheet1",1,"BIQ","Screen 2","o21mwi",2,"continue","",9080.00000000596,9068.4,9080.00000000596,9080.00000000596,9068.4,9080.00000000596,1,9080.00000000596,0,0,NA,"Click To Continue","Continue Button",22,"object-50","BIQ",NA,NA
"14",1705067790335,"12/01/2024 13:56:30",1705071390335,1,"12/01/2024 15:56:30",159402,5,"task-gjqt",NA,34161621,10092328,NA,"rejected - time limit reached",NA,"65a140c1207f7e97be430a58","computer","Desktop or Laptop","Windows 10","Chrome 120.0.0.0","1366x768","1366x607",NA,NA,0,"BIQ (Charlotte)",3,"GHFIEJDACB","Passed AC2","","Spreadsheet1",1,"BIQ","Screen 2","o21mwi",2,"continue","",9300.1,9285.1,9300.1,9300.1,9285.1,9300.1,1,9300.1,0,0,NA,"Click To Continue","Continue Button",22,"object-50","BIQ",NA,NA
"15",1705067790605,"12/01/2024 13:56:30",1705071390605,1,"12/01/2024 15:56:30",159402,5,"task-gjqt",NA,34161621,10092328,NA,"rejected - time limit reached",NA,"65a140c1207f7e97be430a58","computer","Desktop or Laptop","Windows 10","Chrome 120.0.0.0","1366x768","1366x607",NA,NA,0,"BIQ (Charlotte)",3,"GHFIEJDACB","Passed AC2","","Spreadsheet1",1,"BIQ","Screen 2","o21mwi",2,"continue","",9568.3,9551.7,9568.3,9568.3,9551.7,9568.3,1,9568.3,0,0,NA,"Click To Continue","Continue Button",22,"object-50","BIQ",NA,NA
"16",1705067791021,"12/01/2024 13:56:31",1705071391021,1,"12/01/2024 15:56:31",159402,5,"task-gjqt",NA,34161621,10092328,NA,"rejected - time limit reached",NA,"65a140c1207f7e97be430a58","computer","Desktop or Laptop","Windows 10","Chrome 120.0.0.0","1366x768","1366x607",NA,NA,0,"BIQ (Charlotte)",3,"GHFIEJDACB","Passed AC2","","Spreadsheet1",1,"BIQ","Screen 2","o21mwi",2,"continue","",9984.89999999999,9968.3,9984.89999999999,9984.89999999999,9968.3,9984.89999999999,1,9984.89999999999,0,0,NA,"Click To Continue","Continue Button",22,"object-50","BIQ",NA,NA
"17",1705067800917,"12/01/2024 13:56:40",1705071400917,1,"12/01/2024 15:56:40",159402,5,"task-gjqt",NA,34161621,10092328,NA,"rejected - time limit reached",NA,"65a140c1207f7e97be430a58","computer","Desktop or Laptop","Windows 10","Chrome 120.0.0.0","1366x768","1366x607",NA,NA,0,"BIQ (Charlotte)",3,"GHFIEJDACB","Passed AC2","","Spreadsheet1",1,"BIQ","Screen 2","o21mwi",2,"continue","",19882.399999997,19871.6,19882.399999997,19882.399999997,19871.6,19882.399999997,1,19882.399999997,0,0,NA,"Click To Continue","Continue Button",22,"object-50","BIQ",NA,NA
"18",1705067800938,"12/01/2024 13:56:40",1705071400938,1,"12/01/2024 15:56:40",159402,5,"task-gjqt",NA,34161621,10092328,NA,"rejected - time limit reached",NA,"65a140c1207f7e97be430a58","computer","Desktop or Laptop","Windows 10","Chrome 120.0.0.0","1366x768","1366x607",NA,NA,0,"BIQ (Charlotte)",3,"GHFIEJDACB","Passed AC2","","Spreadsheet1",1,"BIQ","Screen 2","o21mwi",2,"response","5",13753.4,19871.6,19888.3,13753.4,19871.6,19888.3,1,13753.4,6134.89999999999,0,NA,"Rating Scale","Rating Scale",2,"object-259","BIQ",NA,NA
"19",1705067800942,"12/01/2024 13:56:40",1705071400942,1,"12/01/2024 15:56:40",159402,5,"task-gjqt",NA,34161621,10092328,NA,"rejected - time limit reached",NA,"65a140c1207f7e97be430a58","computer","Desktop or Laptop","Windows 10","Chrome 120.0.0.0","1366x768","1366x607",NA,NA,0,"BIQ (Charlotte)",3,"GHFIEJDACB","Passed AC2","","Spreadsheet1",1,"BIQ","Screen 2","o21mwi",2,"response","5",14686.9,19871.6,19888.3,14686.9,19871.6,19888.3,1,14686.9,5201.39999999999,0,NA,"Rating Scale","Rating Scale",9,"object-36","BIQ",NA,NA
"20",1705067800945,"12/01/2024 13:56:40",1705071400945,1,"12/01/2024 15:56:40",159402,5,"task-gjqt",NA,34161621,10092328,NA,"rejected - time limit reached",NA,"65a140c1207f7e97be430a58","computer","Desktop or Laptop","Windows 10","Chrome 120.0.0.0","1366x768","1366x607",NA,NA,0,"BIQ (Charlotte)",3,"GHFIEJDACB","Passed AC2","","Spreadsheet1",1,"BIQ","Screen 2","o21mwi",2,"response","5",16687.2,19871.6,19888.3,16687.2,19871.6,19888.3,1,16687.2,3201.09999999999,0,NA,"Rating Scale","Rating Scale",16,"object-86","BIQ",NA,NA
"21",1705067807615,"12/01/2024 13:56:47",1705071407615,1,"12/01/2024 15:56:47",159402,5,"task-gjqt",NA,34161621,10092328,NA,"rejected - time limit reached",NA,"65a140c1207f7e97be430a58","computer","Desktop or Laptop","Windows 10","Chrome 120.0.0.0","1366x768","1366x607",NA,NA,0,"BIQ (Charlotte)",3,"GHFIEJDACB","Passed AC2","","Spreadsheet1",1,"BIQ","Screen 3","iz3the",3,"continue","",6708.20000000298,6701.5,6708.20000000298,6708.20000000298,6701.5,6708.20000000298,1,6708.20000000298,0,0,NA,"Click To Continue","Continue Button",22,"object-73","BIQ",NA,NA
"22",1705067807616,"12/01/2024 13:56:47",1705071407616,1,"12/01/2024 15:56:47",159402,5,"task-gjqt",NA,34161621,10092328,NA,"rejected - time limit reached",NA,"65a140c1207f7e97be430a58","computer","Desktop or Laptop","Windows 10","Chrome 120.0.0.0","1366x768","1366x607",NA,NA,0,"BIQ (Charlotte)",3,"GHFIEJDACB","Passed AC2","","Spreadsheet1",1,"BIQ","Screen 3","iz3the",3,"response","7",4267.5,6701.5,6709.20000000298,4267.5,6701.5,6709.20000000298,1,4267.5,2441.70000000298,0,NA,"Rating Scale","Rating Scale",2,"object-53","BIQ",NA,NA
"23",1705067807617,"12/01/2024 13:56:47",1705071407617,1,"12/01/2024 15:56:47",159402,5,"task-gjqt",NA,34161621,10092328,NA,"rejected - time limit reached",NA,"65a140c1207f7e97be430a58","computer","Desktop or Laptop","Windows 10","Chrome 120.0.0.0","1366x768","1366x607",NA,NA,0,"BIQ (Charlotte)",3,"GHFIEJDACB","Passed AC2","","Spreadsheet1",1,"BIQ","Screen 3","iz3the",3,"response","7",5117.8,6701.5,6710.20000000298,5117.8,6701.5,6710.20000000298,1,5117.8,1592.40000000298,0,NA,"Rating Scale","Rating Scale",9,"object-60","BIQ",NA,NA
"24",1705067807618,"12/01/2024 13:56:47",1705071407618,1,"12/01/2024 15:56:47",159402,5,"task-gjqt",NA,34161621,10092328,NA,"rejected - time limit reached",NA,"65a140c1207f7e97be430a58","computer","Desktop or Laptop","Windows 10","Chrome 120.0.0.0","1366x768","1366x607",NA,NA,0,"BIQ (Charlotte)",3,"GHFIEJDACB","Passed AC2","","Spreadsheet1",1,"BIQ","Screen 3","iz3the",3,"response","7",5884.60000000001,6701.5,6711.20000000298,5884.60000000001,6701.5,6711.20000000298,1,5884.60000000001,826.600000002974,0,NA,"Rating Scale","Rating Scale",16,"object-67","BIQ",NA,NA
"25",1705067807632,"12/01/2024 13:56:47",1705071407632,1,"12/01/2024 15:56:47",159402,5,"task-gjqt",NA,34161621,10092328,NA,"rejected - time limit reached",NA,"65a140c1207f7e97be430a58","computer","Desktop or Laptop","Windows 10","Chrome 120.0.0.0","1366x768","1366x607",NA,NA,0,"BIQ (Charlotte)",3,"GHFIEJDACB","Passed AC2","","Spreadsheet1",NA,"","","",NA,"5","END",NA,NA,NA,NA,NA,NA,0,NA,NA,NA,NA,"","",NA,"","",NA,NA
"1",1705067953814,"12/01/2024 13:59:13",1705067953814,0,"12/01/2024 13:59:13",159402,5,"task-gjqt",NA,34161699,10092431,NA,"complete",NA,"65a143f09dfe4b0e694834df","computer","Desktop or Laptop","Windows 10","Chrome 120.0.0.0","1286x608","1280x605",NA,NA,0,"BIQ (Charlotte)",3,"IJHAGBFCED","Passed AC2","","Spreadsheet1",NA,"","","",NA,"5","BEGIN",NA,NA,NA,NA,NA,NA,0,NA,NA,NA,NA,"","",NA,"","",NA,NA
"2",1705067978983,"12/01/2024 13:59:38",1705067978983,0,"12/01/2024 13:59:38",159402,5,"task-gjqt",NA,34161699,10092431,NA,"complete",NA,"65a143f09dfe4b0e694834df","computer","Desktop or Laptop","Windows 10","Chrome 120.0.0.0","1286x608","1280x605",NA,NA,0,"BIQ (Charlotte)",3,"IJHAGBFCED","Passed AC2","","Spreadsheet1",1,"BIQ","Screen 1","9dh6eq",1,"continue","",25177,25163,25177,25177,25163,25177,1,25177,0,0,NA,"Click To Continue","Continue Button",23,"object-48","BIQ",NA,NA
"3",1705067978988,"12/01/2024 13:59:38",1705067978988,0,"12/01/2024 13:59:38",159402,5,"task-gjqt",NA,34161699,10092431,NA,"complete",NA,"65a143f09dfe4b0e694834df","computer","Desktop or Laptop","Windows 10","Chrome 120.0.0.0","1286x608","1280x605",NA,NA,0,"BIQ (Charlotte)",3,"IJHAGBFCED","Passed AC2","","Spreadsheet1",1,"BIQ","Screen 1","9dh6eq",1,"response","6",10392,25163,25180,10392,25163,25180,1,10392,14788,0,NA,"Rating Scale","Rating Scale",3,"object-5","BIQ",NA,NA
"4",1705067978988,"12/01/2024 13:59:38",1705067978988,0,"12/01/2024 13:59:38",159402,5,"task-gjqt",NA,34161699,10092431,NA,"complete",NA,"65a143f09dfe4b0e694834df","computer","Desktop or Laptop","Windows 10","Chrome 120.0.0.0","1286x608","1280x605",NA,NA,0,"BIQ (Charlotte)",3,"IJHAGBFCED","Passed AC2","","Spreadsheet1",1,"BIQ","Screen 1","9dh6eq",1,"response","5",13573,25163,25180,13573,25163,25180,1,13573,11607,0,NA,"Rating Scale","Rating Scale",10,"object-18","BIQ",NA,NA
"5",1705067978989,"12/01/2024 13:59:38",1705067978989,0,"12/01/2024 13:59:38",159402,5,"task-gjqt",NA,34161699,10092431,NA,"complete",NA,"65a143f09dfe4b0e694834df","computer","Desktop or Laptop","Windows 10","Chrome 120.0.0.0","1286x608","1280x605",NA,NA,0,"BIQ (Charlotte)",3,"IJHAGBFCED","Passed AC2","","Spreadsheet1",1,"BIQ","Screen 1","9dh6eq",1,"response","3",23548,25163,25180,23548,25163,25180,1,23548,1632,0,NA,"Rating Scale","Rating Scale",17,"object-80","BIQ",NA,NA
"6",1705068003919,"12/01/2024 14:00:03",1705068003919,0,"12/01/2024 14:00:03",159402,5,"task-gjqt",NA,34161699,10092431,NA,"complete",NA,"65a143f09dfe4b0e694834df","computer","Desktop or Laptop","Windows 10","Chrome 120.0.0.0","1286x608","1280x605",NA,NA,0,"BIQ (Charlotte)",3,"IJHAGBFCED","Passed AC2","","Spreadsheet1",1,"BIQ","Screen 2","o21mwi",2,"continue","",24952,24946,24952,24952,24946,24952,1,24952,0,0,NA,"Click To Continue","Continue Button",22,"object-50","BIQ",NA,NA
"7",1705068003926,"12/01/2024 14:00:03",1705068003926,0,"12/01/2024 14:00:03",159402,5,"task-gjqt",NA,34161699,10092431,NA,"complete",NA,"65a143f09dfe4b0e694834df","computer","Desktop or Laptop","Windows 10","Chrome 120.0.0.0","1286x608","1280x605",NA,NA,0,"BIQ (Charlotte)",3,"IJHAGBFCED","Passed AC2","","Spreadsheet1",1,"BIQ","Screen 2","o21mwi",2,"response","6",8626,24946,24958,8626,24946,24958,1,8626,16332,0,NA,"Rating Scale","Rating Scale",2,"object-259","BIQ",NA,NA
"8",1705068003927,"12/01/2024 14:00:03",1705068003927,0,"12/01/2024 14:00:03",159402,5,"task-gjqt",NA,34161699,10092431,NA,"complete",NA,"65a143f09dfe4b0e694834df","computer","Desktop or Laptop","Windows 10","Chrome 120.0.0.0","1286x608","1280x605",NA,NA,0,"BIQ (Charlotte)",3,"IJHAGBFCED","Passed AC2","","Spreadsheet1",1,"BIQ","Screen 2","o21mwi",2,"response","4",13289,24946,24960,13289,24946,24960,1,13289,11671,0,NA,"Rating Scale","Rating Scale",9,"object-36","BIQ",NA,NA
"9",1705068003929,"12/01/2024 14:00:03",1705068003929,0,"12/01/2024 14:00:03",159402,5,"task-gjqt",NA,34161699,10092431,NA,"complete",NA,"65a143f09dfe4b0e694834df","computer","Desktop or Laptop","Windows 10","Chrome 120.0.0.0","1286x608","1280x605",NA,NA,0,"BIQ (Charlotte)",3,"IJHAGBFCED","Passed AC2","","Spreadsheet1",1,"BIQ","Screen 2","o21mwi",2,"response","0",23081,24946,24962,23081,24946,24962,1,23081,1881,0,NA,"Rating Scale","Rating Scale",16,"object-86","BIQ",NA,NA
"10",1705068015080,"12/01/2024 14:00:15",1705068015080,0,"12/01/2024 14:00:15",159402,5,"task-gjqt",NA,34161699,10092431,NA,"complete",NA,"65a143f09dfe4b0e694834df","computer","Desktop or Laptop","Windows 10","Chrome 120.0.0.0","1286x608","1280x605",NA,NA,0,"BIQ (Charlotte)",3,"IJHAGBFCED","Passed AC2","","Spreadsheet1",1,"BIQ","Screen 3","iz3the",3,"continue","",11167,11157,11167,11167,11157,11167,1,11167,0,0,NA,"Click To Continue","Continue Button",22,"object-73","BIQ",NA,NA
"11",1705068015082,"12/01/2024 14:00:15",1705068015082,0,"12/01/2024 14:00:15",159402,5,"task-gjqt",NA,34161699,10092431,NA,"complete",NA,"65a143f09dfe4b0e694834df","computer","Desktop or Laptop","Windows 10","Chrome 120.0.0.0","1286x608","1280x605",NA,NA,0,"BIQ (Charlotte)",3,"IJHAGBFCED","Passed AC2","","Spreadsheet1",1,"BIQ","Screen 3","iz3the",3,"response","0",4430,11157,11169,4430,11157,11169,1,4430,6739,0,NA,"Rating Scale","Rating Scale",2,"object-53","BIQ",NA,NA
"12",1705068015083,"12/01/2024 14:00:15",1705068015083,0,"12/01/2024 14:00:15",159402,5,"task-gjqt",NA,34161699,10092431,NA,"complete",NA,"65a143f09dfe4b0e694834df","computer","Desktop or Laptop","Windows 10","Chrome 120.0.0.0","1286x608","1280x605",NA,NA,0,"BIQ (Charlotte)",3,"IJHAGBFCED","Passed AC2","","Spreadsheet1",1,"BIQ","Screen 3","iz3the",3,"response","0",6961,11157,11170,6961,11157,11170,1,6961,4209,0,NA,"Rating Scale","Rating Scale",9,"object-60","BIQ",NA,NA
"13",1705068015083,"12/01/2024 14:00:15",1705068015083,0,"12/01/2024 14:00:15",159402,5,"task-gjqt",NA,34161699,10092431,NA,"complete",NA,"65a143f09dfe4b0e694834df","computer","Desktop or Laptop","Windows 10","Chrome 120.0.0.0","1286x608","1280x605",NA,NA,0,"BIQ (Charlotte)",3,"IJHAGBFCED","Passed AC2","","Spreadsheet1",1,"BIQ","Screen 3","iz3the",3,"response","4",10358,11157,11171,10358,11157,11171,1,10358,813,0,NA,"Rating Scale","Rating Scale",16,"object-67","BIQ",NA,NA
"14",1705068015087,"12/01/2024 14:00:15",1705068015087,0,"12/01/2024 14:00:15",159402,5,"task-gjqt",NA,34161699,10092431,NA,"complete",NA,"65a143f09dfe4b0e694834df","computer","Desktop or Laptop","Windows 10","Chrome 120.0.0.0","1286x608","1280x605",NA,NA,0,"BIQ (Charlotte)",3,"IJHAGBFCED","Passed AC2","","Spreadsheet1",NA,"","","",NA,"5","END",NA,NA,NA,NA,NA,NA,0,NA,NA,NA,NA,"","",NA,"","",NA,NA
"1",1705068086481,"12/01/2024 14:01:26",1705068086481,0,"12/01/2024 14:01:26",159402,5,"task-gjqt",NA,34161761,10092438,NA,"complete",NA,"65a1444298d477a2587dbcce","computer","Desktop or Laptop","Windows 10","Chrome 120.0.0.0","1920x1080","1920x919",NA,NA,0,"BIQ (Charlotte)",3,"JAIBHCGDFE","Passed AC2","","Spreadsheet1",NA,"","","",NA,"5","BEGIN",NA,NA,NA,NA,NA,NA,0,NA,NA,NA,NA,"","",NA,"","",NA,NA
"2",1705068111553,"12/01/2024 14:01:51",1705068111553,0,"12/01/2024 14:01:51",159402,5,"task-gjqt",NA,34161761,10092438,NA,"complete",NA,"65a1444298d477a2587dbcce","computer","Desktop or Laptop","Windows 10","Chrome 120.0.0.0","1920x1080","1920x919",NA,NA,0,"BIQ (Charlotte)",3,"JAIBHCGDFE","Passed AC2","","Spreadsheet1",1,"BIQ","Screen 1","9dh6eq",1,"continue","",25092.799999994,25077.4,25092.799999994,25092.799999994,25077.4,25092.799999994,1,25092.799999994,0,0,NA,"Click To Continue","Continue Button",23,"object-48","BIQ",NA,NA
"3",1705068111558,"12/01/2024 14:01:51",1705068111558,0,"12/01/2024 14:01:51",159402,5,"task-gjqt",NA,34161761,10092438,NA,"complete",NA,"65a1444298d477a2587dbcce","computer","Desktop or Laptop","Windows 10","Chrome 120.0.0.0","1920x1080","1920x919",NA,NA,0,"BIQ (Charlotte)",3,"JAIBHCGDFE","Passed AC2","","Spreadsheet1",1,"BIQ","Screen 1","9dh6eq",1,"response","4",9491.2,25077.4,25093.9,9491.2,25077.4,25093.9,1,9491.2,15602.7,0,NA,"Rating Scale","Rating Scale",3,"object-5","BIQ",NA,NA
"4",1705068111560,"12/01/2024 14:01:51",1705068111560,0,"12/01/2024 14:01:51",159402,5,"task-gjqt",NA,34161761,10092438,NA,"complete",NA,"65a1444298d477a2587dbcce","computer","Desktop or Laptop","Windows 10","Chrome 120.0.0.0","1920x1080","1920x919",NA,NA,0,"BIQ (Charlotte)",3,"JAIBHCGDFE","Passed AC2","","Spreadsheet1",1,"BIQ","Screen 1","9dh6eq",1,"response","3",15685.8,25077.4,25093.9,15685.8,25077.4,25093.9,1,15685.8,9408.1,0,NA,"Rating Scale","Rating Scale",10,"object-18","BIQ",NA,NA
"5",1705068111560,"12/01/2024 14:01:51",1705068111560,0,"12/01/2024 14:01:51",159402,5,"task-gjqt",NA,34161761,10092438,NA,"complete",NA,"65a1444298d477a2587dbcce","computer","Desktop or Laptop","Windows 10","Chrome 120.0.0.0","1920x1080","1920x919",NA,NA,0,"BIQ (Charlotte)",3,"JAIBHCGDFE","Passed AC2","","Spreadsheet1",1,"BIQ","Screen 1","9dh6eq",1,"response","8",23978.6,25077.4,25093.9,23978.6,25077.4,25093.9,1,23978.6,1115.3,0,NA,"Rating Scale","Rating Scale",17,"object-80","BIQ",NA,NA
"6",1705068134086,"12/01/2024 14:02:14",1705068134086,0,"12/01/2024 14:02:14",159402,5,"task-gjqt",NA,34161761,10092438,NA,"complete",NA,"65a1444298d477a2587dbcce","computer","Desktop or Laptop","Windows 10","Chrome 120.0.0.0","1920x1080","1920x919",NA,NA,0,"BIQ (Charlotte)",3,"JAIBHCGDFE","Passed AC2","","Spreadsheet1",1,"BIQ","Screen 2","o21mwi",2,"continue","",22547.4,22530.5,22547.4,22547.4,22530.5,22547.4,1,22547.4,0,0,NA,"Click To Continue","Continue Button",22,"object-50","BIQ",NA,NA
"7",1705068134091,"12/01/2024 14:02:14",1705068134091,0,"12/01/2024 14:02:14",159402,5,"task-gjqt",NA,34161761,10092438,NA,"complete",NA,"65a1444298d477a2587dbcce","computer","Desktop or Laptop","Windows 10","Chrome 120.0.0.0","1920x1080","1920x919",NA,NA,0,"BIQ (Charlotte)",3,"JAIBHCGDFE","Passed AC2","","Spreadsheet1",1,"BIQ","Screen 2","o21mwi",2,"response","2",4945.9,22530.5,22547.4,4945.9,22530.5,22547.4,1,4945.9,17601.5,0,NA,"Rating Scale","Rating Scale",2,"object-259","BIQ",NA,NA
"8",1705068134092,"12/01/2024 14:02:14",1705068134092,0,"12/01/2024 14:02:14",159402,5,"task-gjqt",NA,34161761,10092438,NA,"complete",NA,"65a1444298d477a2587dbcce","computer","Desktop or Laptop","Windows 10","Chrome 120.0.0.0","1920x1080","1920x919",NA,NA,0,"BIQ (Charlotte)",3,"JAIBHCGDFE","Passed AC2","","Spreadsheet1",1,"BIQ","Screen 2","o21mwi",2,"response","6",10524.1,22530.5,22547.4,10524.1,22530.5,22547.4,1,10524.1,12023.3,0,NA,"Rating Scale","Rating Scale",9,"object-36","BIQ",NA,NA
"9",1705068134093,"12/01/2024 14:02:14",1705068134093,0,"12/01/2024 14:02:14",159402,5,"task-gjqt",NA,34161761,10092438,NA,"complete",NA,"65a1444298d477a2587dbcce","computer","Desktop or Laptop","Windows 10","Chrome 120.0.0.0","1920x1080","1920x919",NA,NA,0,"BIQ (Charlotte)",3,"JAIBHCGDFE","Passed AC2","","Spreadsheet1",1,"BIQ","Screen 2","o21mwi",2,"response","0",21348.1,22530.5,22547.4,21348.1,22530.5,22547.4,1,21348.1,1199.29999999999,0,NA,"Rating Scale","Rating Scale",16,"object-86","BIQ",NA,NA
"10",1705068146806,"12/01/2024 14:02:26",1705068146806,0,"12/01/2024 14:02:26",159402,5,"task-gjqt",NA,34161761,10092438,NA,"complete",NA,"65a1444298d477a2587dbcce","computer","Desktop or Laptop","Windows 10","Chrome 120.0.0.0","1920x1080","1920x919",NA,NA,0,"BIQ (Charlotte)",3,"JAIBHCGDFE","Passed AC2","","Spreadsheet1",1,"BIQ","Screen 3","iz3the",3,"continue","",12732.099999997,12722.1,12732.099999997,12732.099999997,12722.1,12732.099999997,1,12732.099999997,0,0,NA,"Click To Continue","Continue Button",22,"object-73","BIQ",NA,NA
"11",1705068146812,"12/01/2024 14:02:26",1705068146812,0,"12/01/2024 14:02:26",159402,5,"task-gjqt",NA,34161761,10092438,NA,"complete",NA,"65a1444298d477a2587dbcce","computer","Desktop or Laptop","Windows 10","Chrome 120.0.0.0","1920x1080","1920x919",NA,NA,0,"BIQ (Charlotte)",3,"JAIBHCGDFE","Passed AC2","","Spreadsheet1",1,"BIQ","Screen 3","iz3the",3,"response","6",5195.2,12722.1,12737.200000006,5195.2,12722.1,12737.200000006,1,5195.2,7542.00000000596,0,NA,"Rating Scale","Rating Scale",2,"object-53","BIQ",NA,NA
"12",1705068146817,"12/01/2024 14:02:26",1705068146817,0,"12/01/2024 14:02:26",159402,5,"task-gjqt",NA,34161761,10092438,NA,"complete",NA,"65a1444298d477a2587dbcce","computer","Desktop or Laptop","Windows 10","Chrome 120.0.0.0","1920x1080","1920x919",NA,NA,0,"BIQ (Charlotte)",3,"JAIBHCGDFE","Passed AC2","","Spreadsheet1",1,"BIQ","Screen 3","iz3the",3,"response","6",9891.2,12722.1,12738.8,9891.2,12722.1,12738.8,1,9891.2,2847.60000000001,0,NA,"Rating Scale","Rating Scale",9,"object-60","BIQ",NA,NA
"13",1705068146819,"12/01/2024 14:02:26",1705068146819,0,"12/01/2024 14:02:26",159402,5,"task-gjqt",NA,34161761,10092438,NA,"complete",NA,"65a1444298d477a2587dbcce","computer","Desktop or Laptop","Windows 10","Chrome 120.0.0.0","1920x1080","1920x919",NA,NA,0,"BIQ (Charlotte)",3,"JAIBHCGDFE","Passed AC2","","Spreadsheet1",1,"BIQ","Screen 3","iz3the",3,"response","7",11922.8,12722.1,12738.8,11922.8,12722.1,12738.8,1,11922.8,816.000000000007,0,NA,"Rating Scale","Rating Scale",16,"object-67","BIQ",NA,NA
"14",1705068146825,"12/01/2024 14:02:26",1705068146825,0,"12/01/2024 14:02:26",159402,5,"task-gjqt",NA,34161761,10092438,NA,"complete",NA,"65a1444298d477a2587dbcce","computer","Desktop or Laptop","Windows 10","Chrome 120.0.0.0","1920x1080","1920x919",NA,NA,0,"BIQ (Charlotte)",3,"JAIBHCGDFE","Passed AC2","","Spreadsheet1",NA,"","","",NA,"5","END",NA,NA,NA,NA,NA,NA,0,NA,NA,NA,NA,"","",NA,"","",NA,NA
"1",1705068579003,"12/01/2024 14:09:39",1705068579003,0,"12/01/2024 14:09:39",159402,5,"task-gjqt",NA,34162060,10092474,NA,"complete",NA,"65a144f640468d7e7900997a","computer","Desktop or Laptop","Windows 10","Chrome 120.0.0.0","1920x1080","1920x921",NA,NA,0,"BIQ (Charlotte)",3,"ABJCIDHEGF","Passed AC2","","Spreadsheet1",NA,"","","",NA,"5","BEGIN",NA,NA,NA,NA,NA,NA,0,NA,NA,NA,NA,"","",NA,"","",NA,NA
"2",1705068610212,"12/01/2024 14:10:10",1705068610212,0,"12/01/2024 14:10:10",159402,5,"task-gjqt",NA,34162060,10092474,NA,"complete",NA,"65a144f640468d7e7900997a","computer","Desktop or Laptop","Windows 10","Chrome 120.0.0.0","1920x1080","1920x921",NA,NA,0,"BIQ (Charlotte)",3,"ABJCIDHEGF","Passed AC2","","Spreadsheet1",1,"BIQ","Screen 1","9dh6eq",1,"continue","",31226.2000000089,31213.8,31226.2000000089,31226.2000000089,31213.8,31226.2000000089,1,31226.2000000089,0,0,NA,"Click To Continue","Continue Button",23,"object-48","BIQ",NA,NA
"3",1705068610214,"12/01/2024 14:10:10",1705068610214,0,"12/01/2024 14:10:10",159402,5,"task-gjqt",NA,34162060,10092474,NA,"complete",NA,"65a144f640468d7e7900997a","computer","Desktop or Laptop","Windows 10","Chrome 120.0.0.0","1920x1080","1920x921",NA,NA,0,"BIQ (Charlotte)",3,"ABJCIDHEGF","Passed AC2","","Spreadsheet1",1,"BIQ","Screen 1","9dh6eq",1,"response","7",17256.1,31213.8,31228.300000003,17256.1,31213.8,31228.300000003,1,17256.1,13972.200000003,0,NA,"Rating Scale","Rating Scale",3,"object-5","BIQ",NA,NA
"4",1705068610214,"12/01/2024 14:10:10",1705068610214,0,"12/01/2024 14:10:10",159402,5,"task-gjqt",NA,34162060,10092474,NA,"complete",NA,"65a144f640468d7e7900997a","computer","Desktop or Laptop","Windows 10","Chrome 120.0.0.0","1920x1080","1920x921",NA,NA,0,"BIQ (Charlotte)",3,"ABJCIDHEGF","Passed AC2","","Spreadsheet1",1,"BIQ","Screen 1","9dh6eq",1,"response","7",23447.3,31213.8,31228.800000003,23447.3,31213.8,31228.800000003,1,23447.3,7781.50000000298,0,NA,"Rating Scale","Rating Scale",10,"object-18","BIQ",NA,NA
"5",1705068610215,"12/01/2024 14:10:10",1705068610215,0,"12/01/2024 14:10:10",159402,5,"task-gjqt",NA,34162060,10092474,NA,"complete",NA,"65a144f640468d7e7900997a","computer","Desktop or Laptop","Windows 10","Chrome 120.0.0.0","1920x1080","1920x921",NA,NA,0,"BIQ (Charlotte)",3,"ABJCIDHEGF","Passed AC2","","Spreadsheet1",1,"BIQ","Screen 1","9dh6eq",1,"response","1",27669.2,31213.8,31229.2000000089,27669.2,31213.8,31229.2000000089,1,27669.2,3560.00000000894,0,NA,"Rating Scale","Rating Scale",17,"object-80","BIQ",NA,NA
"6",1705068630544,"12/01/2024 14:10:30",1705068630544,0,"12/01/2024 14:10:30",159402,5,"task-gjqt",NA,34162060,10092474,NA,"complete",NA,"65a144f640468d7e7900997a","computer","Desktop or Laptop","Windows 10","Chrome 120.0.0.0","1920x1080","1920x921",NA,NA,0,"BIQ (Charlotte)",3,"ABJCIDHEGF","Passed AC2","","Spreadsheet1",1,"BIQ","Screen 2","o21mwi",2,"continue","",20344.1000000119,20341.9,20344.1000000119,20344.1000000119,20341.9,20344.1000000119,1,20344.1000000119,0,0,NA,"Click To Continue","Continue Button",22,"object-50","BIQ",NA,NA
"7",1705068630550,"12/01/2024 14:10:30",1705068630550,0,"12/01/2024 14:10:30",159402,5,"task-gjqt",NA,34162060,10092474,NA,"complete",NA,"65a144f640468d7e7900997a","computer","Desktop or Laptop","Windows 10","Chrome 120.0.0.0","1920x1080","1920x921",NA,NA,0,"BIQ (Charlotte)",3,"ABJCIDHEGF","Passed AC2","","Spreadsheet1",1,"BIQ","Screen 2","o21mwi",2,"response","8",4858.3,20341.9,20350.4000000089,4858.3,20341.9,20350.4000000089,1,4858.3,15492.1000000089,0,NA,"Rating Scale","Rating Scale",2,"object-259","BIQ",NA,NA
"8",1705068630551,"12/01/2024 14:10:30",1705068630551,0,"12/01/2024 14:10:30",159402,5,"task-gjqt",NA,34162060,10092474,NA,"complete",NA,"65a144f640468d7e7900997a","computer","Desktop or Laptop","Windows 10","Chrome 120.0.0.0","1920x1080","1920x921",NA,NA,0,"BIQ (Charlotte)",3,"ABJCIDHEGF","Passed AC2","","Spreadsheet1",1,"BIQ","Screen 2","o21mwi",2,"response","1",6939.7,20341.9,20351.8,6939.7,20341.9,20351.8,1,6939.7,13412.1,0,NA,"Rating Scale","Rating Scale",9,"object-36","BIQ",NA,NA
"9",1705068630553,"12/01/2024 14:10:30",1705068630553,0,"12/01/2024 14:10:30",159402,5,"task-gjqt",NA,34162060,10092474,NA,"complete",NA,"65a144f640468d7e7900997a","computer","Desktop or Laptop","Windows 10","Chrome 120.0.0.0","1920x1080","1920x921",NA,NA,0,"BIQ (Charlotte)",3,"ABJCIDHEGF","Passed AC2","","Spreadsheet1",1,"BIQ","Screen 2","o21mwi",2,"response","4",19037.8,20341.9,20353.1000000119,19037.8,20341.9,20353.1000000119,1,19037.8,1315.30000001192,0,NA,"Rating Scale","Rating Scale",16,"object-86","BIQ",NA,NA
"10",1705068650804,"12/01/2024 14:10:50",1705068650804,0,"12/01/2024 14:10:50",159402,5,"task-gjqt",NA,34162060,10092474,NA,"complete",NA,"65a144f640468d7e7900997a","computer","Desktop or Laptop","Windows 10","Chrome 120.0.0.0","1920x1080","1920x921",NA,NA,0,"BIQ (Charlotte)",3,"ABJCIDHEGF","Passed AC2","","Spreadsheet1",1,"BIQ","Screen 3","iz3the",3,"continue","",20262.9,20252.8,20262.9,20262.9,20252.8,20262.9,1,20262.9,0,0,NA,"Click To Continue","Continue Button",22,"object-73","BIQ",NA,NA
"11",1705068650808,"12/01/2024 14:10:50",1705068650808,0,"12/01/2024 14:10:50",159402,5,"task-gjqt",NA,34162060,10092474,NA,"complete",NA,"65a144f640468d7e7900997a","computer","Desktop or Laptop","Windows 10","Chrome 120.0.0.0","1920x1080","1920x921",NA,NA,0,"BIQ (Charlotte)",3,"ABJCIDHEGF","Passed AC2","","Spreadsheet1",1,"BIQ","Screen 3","iz3the",3,"response","0",8514.5,20252.8,20266.2000000119,8514.5,20252.8,20266.2000000119,1,8514.5,11751.7000000119,0,NA,"Rating Scale","Rating Scale",2,"object-53","BIQ",NA,NA
"12",1705068650808,"12/01/2024 14:10:50",1705068650808,0,"12/01/2024 14:10:50",159402,5,"task-gjqt",NA,34162060,10092474,NA,"complete",NA,"65a144f640468d7e7900997a","computer","Desktop or Laptop","Windows 10","Chrome 120.0.0.0","1920x1080","1920x921",NA,NA,0,"BIQ (Charlotte)",3,"ABJCIDHEGF","Passed AC2","","Spreadsheet1",1,"BIQ","Screen 3","iz3the",3,"response","1",11899.9,20252.8,20266.9,11899.9,20252.8,20266.9,1,11899.9,8367,0,NA,"Rating Scale","Rating Scale",9,"object-60","BIQ",NA,NA
"13",1705068650809,"12/01/2024 14:10:50",1705068650809,0,"12/01/2024 14:10:50",159402,5,"task-gjqt",NA,34162060,10092474,NA,"complete",NA,"65a144f640468d7e7900997a","computer","Desktop or Laptop","Windows 10","Chrome 120.0.0.0","1920x1080","1920x921",NA,NA,0,"BIQ (Charlotte)",3,"ABJCIDHEGF","Passed AC2","","Spreadsheet1",1,"BIQ","Screen 3","iz3the",3,"response","0",14994.3,20252.8,20267.5000000089,14994.3,20252.8,20267.5000000089,1,14994.3,5273.20000000895,0,NA,"Rating Scale","Rating Scale",16,"object-67","BIQ",NA,NA
"14",1705068650815,"12/01/2024 14:10:50",1705068650815,0,"12/01/2024 14:10:50",159402,5,"task-gjqt",NA,34162060,10092474,NA,"complete",NA,"65a144f640468d7e7900997a","computer","Desktop or Laptop","Windows 10","Chrome 120.0.0.0","1920x1080","1920x921",NA,NA,0,"BIQ (Charlotte)",3,"ABJCIDHEGF","Passed AC2","","Spreadsheet1",NA,"","","",NA,"5","END",NA,NA,NA,NA,NA,NA,0,NA,NA,NA,NA,"","",NA,"","",NA,NA
"1",1705068656839,"12/01/2024 14:10:56",1705068656839,0,"12/01/2024 14:10:56",159402,5,"task-gjqt",NA,34162111,10092500,NA,"complete",NA,"65a1468496048e77437194c7","computer","Desktop or Laptop","Mac OS 10.15.7","Chrome 120.0.0.0","1440x900","1018x697",NA,NA,0,"BIQ (Charlotte)",3,"BCADJEIFHG","Passed AC2","","Spreadsheet1",NA,"","","",NA,"5","BEGIN",NA,NA,NA,NA,NA,NA,0,NA,NA,NA,NA,"","",NA,"","",NA,NA
"2",1705068672764,"12/01/2024 14:11:12",1705068672764,0,"12/01/2024 14:11:12",159402,5,"task-gjqt",NA,34162111,10092500,NA,"complete",NA,"65a1468496048e77437194c7","computer","Desktop or Laptop","Mac OS 10.15.7","Chrome 120.0.0.0","1440x900","1018x697",NA,NA,0,"BIQ (Charlotte)",3,"BCADJEIFHG","Passed AC2","","Spreadsheet1",1,"BIQ","Screen 1","9dh6eq",1,"continue","",15931.8999998093,15916.6,15931.8999998093,15931.8999998093,15916.6,15931.8999998093,1,15931.8999998093,0,0,NA,"Click To Continue","Continue Button",23,"object-48","BIQ",NA,NA
"3",1705068672766,"12/01/2024 14:11:12",1705068672766,0,"12/01/2024 14:11:12",159402,5,"task-gjqt",NA,34162111,10092500,NA,"complete",NA,"65a1468496048e77437194c7","computer","Desktop or Laptop","Mac OS 10.15.7","Chrome 120.0.0.0","1440x900","1018x697",NA,NA,0,"BIQ (Charlotte)",3,"BCADJEIFHG","Passed AC2","","Spreadsheet1",1,"BIQ","Screen 1","9dh6eq",1,"response","7",10216.8,15916.6,15933.3,10216.8,15916.6,15933.3,1,10216.8,5716.5,0,NA,"Rating Scale","Rating Scale",3,"object-5","BIQ",NA,NA
"4",1705068672767,"12/01/2024 14:11:12",1705068672767,0,"12/01/2024 14:11:12",159402,5,"task-gjqt",NA,34162111,10092500,NA,"complete",NA,"65a1468496048e77437194c7","computer","Desktop or Laptop","Mac OS 10.15.7","Chrome 120.0.0.0","1440x900","1018x697",NA,NA,0,"BIQ (Charlotte)",3,"BCADJEIFHG","Passed AC2","","Spreadsheet1",1,"BIQ","Screen 1","9dh6eq",1,"response","6",11383.5,15916.6,15933.3,11383.5,15916.6,15933.3,1,11383.5,4549.8,0,NA,"Rating Scale","Rating Scale",10,"object-18","BIQ",NA,NA
"5",1705068672767,"12/01/2024 14:11:12",1705068672767,0,"12/01/2024 14:11:12",159402,5,"task-gjqt",NA,34162111,10092500,NA,"complete",NA,"65a1468496048e77437194c7","computer","Desktop or Laptop","Mac OS 10.15.7","Chrome 120.0.0.0","1440x900","1018x697",NA,NA,0,"BIQ (Charlotte)",3,"BCADJEIFHG","Passed AC2","","Spreadsheet1",1,"BIQ","Screen 1","9dh6eq",1,"response","1",14966.7,15916.6,15933.3,14966.7,15916.6,15933.3,1,14966.7,966.600000000002,0,NA,"Rating Scale","Rating Scale",17,"object-80","BIQ",NA,NA
"6",1705068690809,"12/01/2024 14:11:30",1705068690809,0,"12/01/2024 14:11:30",159402,5,"task-gjqt",NA,34162111,10092500,NA,"complete",NA,"65a1468496048e77437194c7","computer","Desktop or Laptop","Mac OS 10.15.7","Chrome 120.0.0.0","1440x900","1018x697",NA,NA,0,"BIQ (Charlotte)",3,"BCADJEIFHG","Passed AC2","","Spreadsheet1",1,"BIQ","Screen 2","o21mwi",2,"continue","",18060.8999997139,18050.2,18060.8999997139,18060.8999997139,18050.2,18060.8999997139,1,18060.8999997139,0,0,NA,"Click To Continue","Continue Button",22,"object-50","BIQ",NA,NA
"7",1705068690810,"12/01/2024 14:11:30",1705068690810,0,"12/01/2024 14:11:30",159402,5,"task-gjqt",NA,34162111,10092500,NA,"complete",NA,"65a1468496048e77437194c7","computer","Desktop or Laptop","Mac OS 10.15.7","Chrome 120.0.0.0","1440x900","1018x697",NA,NA,0,"BIQ (Charlotte)",3,"BCADJEIFHG","Passed AC2","","Spreadsheet1",1,"BIQ","Screen 2","o21mwi",2,"response","8",4750.3,18050.2,18062.8999997139,4750.3,18050.2,18062.8999997139,1,4750.3,13312.5999997139,0,NA,"Rating Scale","Rating Scale",2,"object-259","BIQ",NA,NA
"8",1705068690811,"12/01/2024 14:11:30",1705068690811,0,"12/01/2024 14:11:30",159402,5,"task-gjqt",NA,34162111,10092500,NA,"complete",NA,"65a1468496048e77437194c7","computer","Desktop or Laptop","Mac OS 10.15.7","Chrome 120.0.0.0","1440x900","1018x697",NA,NA,0,"BIQ (Charlotte)",3,"BCADJEIFHG","Passed AC2","","Spreadsheet1",1,"BIQ","Screen 2","o21mwi",2,"response","2",7350.2,18050.2,18063.1,7350.2,18050.2,18063.1,1,7350.2,10712.9,0,NA,"Rating Scale","Rating Scale",9,"object-36","BIQ",NA,NA
"9",1705068690811,"12/01/2024 14:11:30",1705068690811,0,"12/01/2024 14:11:30",159402,5,"task-gjqt",NA,34162111,10092500,NA,"complete",NA,"65a1468496048e77437194c7","computer","Desktop or Laptop","Mac OS 10.15.7","Chrome 120.0.0.0","1440x900","1018x697",NA,NA,0,"BIQ (Charlotte)",3,"BCADJEIFHG","Passed AC2","","Spreadsheet1",1,"BIQ","Screen 2","o21mwi",2,"response","0",14950.4,18050.2,18063.5000000954,14950.4,18050.2,18063.5000000954,1,14950.4,3113.10000009537,0,NA,"Rating Scale","Rating Scale",16,"object-86","BIQ",NA,NA
"10",1705068700839,"12/01/2024 14:11:40",1705068700839,0,"12/01/2024 14:11:40",159402,5,"task-gjqt",NA,34162111,10092500,NA,"complete",NA,"65a1468496048e77437194c7","computer","Desktop or Laptop","Mac OS 10.15.7","Chrome 120.0.0.0","1440x900","1018x697",NA,NA,0,"BIQ (Charlotte)",3,"BCADJEIFHG","Passed AC2","","Spreadsheet1",1,"BIQ","Screen 3","iz3the",3,"continue","",10041.0999998093,10033.5,10041.0999998093,10041.0999998093,10033.5,10041.0999998093,1,10041.0999998093,0,0,NA,"Click To Continue","Continue Button",22,"object-73","BIQ",NA,NA
"11",1705068700841,"12/01/2024 14:11:40",1705068700841,0,"12/01/2024 14:11:40",159402,5,"task-gjqt",NA,34162111,10092500,NA,"complete",NA,"65a1468496048e77437194c7","computer","Desktop or Laptop","Mac OS 10.15.7","Chrome 120.0.0.0","1440x900","1018x697",NA,NA,0,"BIQ (Charlotte)",3,"BCADJEIFHG","Passed AC2","","Spreadsheet1",1,"BIQ","Screen 3","iz3the",3,"response","0",4117,10033.5,10043.4,4117,10033.5,10043.4,1,4117,5926.4,0,NA,"Rating Scale","Rating Scale",2,"object-53","BIQ",NA,NA
"12",1705068700841,"12/01/2024 14:11:40",1705068700841,0,"12/01/2024 14:11:40",159402,5,"task-gjqt",NA,34162111,10092500,NA,"complete",NA,"65a1468496048e77437194c7","computer","Desktop or Laptop","Mac OS 10.15.7","Chrome 120.0.0.0","1440x900","1018x697",NA,NA,0,"BIQ (Charlotte)",3,"BCADJEIFHG","Passed AC2","","Spreadsheet1",1,"BIQ","Screen 3","iz3the",3,"response","0",5233.6,10033.5,10043.9,5233.6,10033.5,10043.9,1,5233.6,4810.3,0,NA,"Rating Scale","Rating Scale",9,"object-60","BIQ",NA,NA
"13",1705068700842,"12/01/2024 14:11:40",1705068700842,0,"12/01/2024 14:11:40",159402,5,"task-gjqt",NA,34162111,10092500,NA,"complete",NA,"65a1468496048e77437194c7","computer","Desktop or Laptop","Mac OS 10.15.7","Chrome 120.0.0.0","1440x900","1018x697",NA,NA,0,"BIQ (Charlotte)",3,"BCADJEIFHG","Passed AC2","","Spreadsheet1",1,"BIQ","Screen 3","iz3the",3,"response","3",5983.7,10033.5,10044.3000000954,5983.7,10033.5,10044.3000000954,1,5983.7,4060.60000009536,0,NA,"Rating Scale","Rating Scale",16,"object-67","BIQ",NA,NA
"14",1705068700848,"12/01/2024 14:11:40",1705068700848,0,"12/01/2024 14:11:40",159402,5,"task-gjqt",NA,34162111,10092500,NA,"complete",NA,"65a1468496048e77437194c7","computer","Desktop or Laptop","Mac OS 10.15.7","Chrome 120.0.0.0","1440x900","1018x697",NA,NA,0,"BIQ (Charlotte)",3,"BCADJEIFHG","Passed AC2","","Spreadsheet1",NA,"","","",NA,"5","END",NA,NA,NA,NA,NA,NA,0,NA,NA,NA,NA,"","",NA,"","",NA,NA
"1",1705068985620,"12/01/2024 14:16:25",1705068985620,0,"12/01/2024 14:16:25",159402,5,"task-gjqt",NA,34162305,10092331,NA,"rejected - time limit reached",NA,"65a14017fce482cb154d4a90","computer","Desktop or Laptop","Windows 10","Chrome 120.0.0.0","1366x768","1366x641",NA,NA,0,"BIQ (Charlotte)",3,"HIGJFAEBDC","Failed AC2","Passed AC1","Spreadsheet1",NA,"","","",NA,"5","BEGIN",NA,NA,NA,NA,NA,NA,0,NA,NA,NA,NA,"","",NA,"","",NA,NA
"2",1705069058033,"12/01/2024 14:17:38",1705069058033,0,"12/01/2024 14:17:38",159402,5,"task-gjqt",NA,34162305,10092331,NA,"rejected - time limit reached",NA,"65a14017fce482cb154d4a90","computer","Desktop or Laptop","Windows 10","Chrome 120.0.0.0","1366x768","1366x641",NA,NA,0,"BIQ (Charlotte)",3,"HIGJFAEBDC","Failed AC2","Passed AC1","Spreadsheet1",1,"BIQ","Screen 1","9dh6eq",1,"continue","",72439.2,72422.5,72439.2,72439.2,72422.5,72439.2,1,72439.2,0,0,NA,"Click To Continue","Continue Button",23,"object-48","BIQ",NA,NA
"3",1705069058036,"12/01/2024 14:17:38",1705069058036,0,"12/01/2024 14:17:38",159402,5,"task-gjqt",NA,34162305,10092331,NA,"rejected - time limit reached",NA,"65a14017fce482cb154d4a90","computer","Desktop or Laptop","Windows 10","Chrome 120.0.0.0","1366x768","1366x641",NA,NA,0,"BIQ (Charlotte)",3,"HIGJFAEBDC","Failed AC2","Passed AC1","Spreadsheet1",1,"BIQ","Screen 1","9dh6eq",1,"response","2",33777.4,72422.5,72439.2,33777.4,72422.5,72439.2,1,33777.4,38661.8,0,NA,"Rating Scale","Rating Scale",3,"object-5","BIQ",NA,NA
"4",1705069058039,"12/01/2024 14:17:38",1705069058039,0,"12/01/2024 14:17:38",159402,5,"task-gjqt",NA,34162305,10092331,NA,"rejected - time limit reached",NA,"65a14017fce482cb154d4a90","computer","Desktop or Laptop","Windows 10","Chrome 120.0.0.0","1366x768","1366x641",NA,NA,0,"BIQ (Charlotte)",3,"HIGJFAEBDC","Failed AC2","Passed AC1","Spreadsheet1",1,"BIQ","Screen 1","9dh6eq",1,"response","4",61707.2,72422.5,72439.2,61707.2,72422.5,72439.2,1,61707.2,10732,0,NA,"Rating Scale","Rating Scale",10,"object-18","BIQ",NA,NA
"5",1705069058039,"12/01/2024 14:17:38",1705069058039,0,"12/01/2024 14:17:38",159402,5,"task-gjqt",NA,34162305,10092331,NA,"rejected - time limit reached",NA,"65a14017fce482cb154d4a90","computer","Desktop or Laptop","Windows 10","Chrome 120.0.0.0","1366x768","1366x641",NA,NA,0,"BIQ (Charlotte)",3,"HIGJFAEBDC","Failed AC2","Passed AC1","Spreadsheet1",1,"BIQ","Screen 1","9dh6eq",1,"response","4",70639.5,72422.5,72439.2,70639.5,72422.5,72439.2,1,70639.5,1799.7,0,NA,"Rating Scale","Rating Scale",17,"object-80","BIQ",NA,NA
"6",1705069116510,"12/01/2024 14:18:36",1705069116510,0,"12/01/2024 14:18:36",159402,5,"task-gjqt",NA,34162305,10092331,NA,"rejected - time limit reached",NA,"65a14017fce482cb154d4a90","computer","Desktop or Laptop","Windows 10","Chrome 120.0.0.0","1366x768","1366x641",NA,NA,0,"BIQ (Charlotte)",3,"HIGJFAEBDC","Failed AC2","Passed AC1","Spreadsheet1",1,"BIQ","Screen 2","o21mwi",2,"continue","",58502.1,58492.7,58502.1,58502.1,58492.7,58502.1,1,58502.1,0,0,NA,"Click To Continue","Continue Button",22,"object-50","BIQ",NA,NA
"7",1705069116513,"12/01/2024 14:18:36",1705069116513,0,"12/01/2024 14:18:36",159402,5,"task-gjqt",NA,34162305,10092331,NA,"rejected - time limit reached",NA,"65a14017fce482cb154d4a90","computer","Desktop or Laptop","Windows 10","Chrome 120.0.0.0","1366x768","1366x641",NA,NA,0,"BIQ (Charlotte)",3,"HIGJFAEBDC","Failed AC2","Passed AC1","Spreadsheet1",1,"BIQ","Screen 2","o21mwi",2,"response","4",13631.7,58492.7,58505.0000000004,13631.7,58492.7,58505.0000000004,1,13631.7,44873.3000000004,0,NA,"Rating Scale","Rating Scale",2,"object-259","BIQ",NA,NA
"8",1705069116513,"12/01/2024 14:18:36",1705069116513,0,"12/01/2024 14:18:36",159402,5,"task-gjqt",NA,34162305,10092331,NA,"rejected - time limit reached",NA,"65a14017fce482cb154d4a90","computer","Desktop or Laptop","Windows 10","Chrome 120.0.0.0","1366x768","1366x641",NA,NA,0,"BIQ (Charlotte)",3,"HIGJFAEBDC","Failed AC2","Passed AC1","Spreadsheet1",1,"BIQ","Screen 2","o21mwi",2,"response","3",38145.3,58492.7,58505.7000000015,38145.3,58492.7,58505.7000000015,1,38145.3,20360.4000000015,0,NA,"Rating Scale","Rating Scale",9,"object-36","BIQ",NA,NA
"9",1705069116515,"12/01/2024 14:18:36",1705069116515,0,"12/01/2024 14:18:36",159402,5,"task-gjqt",NA,34162305,10092331,NA,"rejected - time limit reached",NA,"65a14017fce482cb154d4a90","computer","Desktop or Laptop","Windows 10","Chrome 120.0.0.0","1366x768","1366x641",NA,NA,0,"BIQ (Charlotte)",3,"HIGJFAEBDC","Failed AC2","Passed AC1","Spreadsheet1",1,"BIQ","Screen 2","o21mwi",2,"response","4",57176.1,58492.7,58506.7000000015,57176.1,58492.7,58506.7000000015,1,57176.1,1330.60000000149,0,NA,"Rating Scale","Rating Scale",16,"object-86","BIQ",NA,NA
"10",1705069911980,"12/01/2024 14:31:51",1705069911980,0,"12/01/2024 14:31:51",159402,5,"task-gjqt",NA,34162305,10092331,NA,"rejected - time limit reached",NA,"65a14017fce482cb154d4a90","computer","Desktop or Laptop","Windows 10","Chrome 120.0.0.0","1366x768","1366x641",NA,NA,0,"BIQ (Charlotte)",3,"HIGJFAEBDC","Failed AC2","Passed AC1","Spreadsheet1",1,"BIQ","Screen 3","iz3the",3,"continue","",795479.500000002,795466.9,795479.500000002,795479.500000002,795466.9,795479.500000002,1,795479.500000002,0,0,NA,"Click To Continue","Continue Button",22,"object-73","BIQ",NA,NA
"11",1705069911985,"12/01/2024 14:31:51",1705069911985,0,"12/01/2024 14:31:51",159402,5,"task-gjqt",NA,34162305,10092331,NA,"rejected - time limit reached",NA,"65a14017fce482cb154d4a90","computer","Desktop or Laptop","Windows 10","Chrome 120.0.0.0","1366x768","1366x641",NA,NA,0,"BIQ (Charlotte)",3,"HIGJFAEBDC","Failed AC2","Passed AC1","Spreadsheet1",1,"BIQ","Screen 3","iz3the",3,"response","6",791134.1,795466.9,795483.5,791134.1,795466.9,795483.5,1,791134.1,4349.40000000002,0,NA,"Rating Scale","Rating Scale",2,"object-53","BIQ",NA,NA
"12",1705069911986,"12/01/2024 14:31:51",1705069911986,0,"12/01/2024 14:31:51",159402,5,"task-gjqt",NA,34162305,10092331,NA,"rejected - time limit reached",NA,"65a14017fce482cb154d4a90","computer","Desktop or Laptop","Windows 10","Chrome 120.0.0.0","1366x768","1366x641",NA,NA,0,"BIQ (Charlotte)",3,"HIGJFAEBDC","Failed AC2","Passed AC1","Spreadsheet1",1,"BIQ","Screen 3","iz3the",3,"response","4",789434.4,795466.9,795483.5,789434.4,795466.9,795483.5,1,789434.4,6049.09999999998,0,NA,"Rating Scale","Rating Scale",9,"object-60","BIQ",NA,NA
"13",1705069911988,"12/01/2024 14:31:51",1705069911988,0,"12/01/2024 14:31:51",159402,5,"task-gjqt",NA,34162305,10092331,NA,"rejected - time limit reached",NA,"65a14017fce482cb154d4a90","computer","Desktop or Laptop","Windows 10","Chrome 120.0.0.0","1366x768","1366x641",NA,NA,0,"BIQ (Charlotte)",3,"HIGJFAEBDC","Failed AC2","Passed AC1","Spreadsheet1",1,"BIQ","Screen 3","iz3the",3,"response","4",794367.1,795466.9,795483.5,794367.1,795466.9,795483.5,1,794367.1,1116.40000000002,0,NA,"Rating Scale","Rating Scale",16,"object-67","BIQ",NA,NA
"14",1705069911997,"12/01/2024 14:31:51",1705069911997,0,"12/01/2024 14:31:51",159402,5,"task-gjqt",NA,34162305,10092331,NA,"rejected - time limit reached",NA,"65a14017fce482cb154d4a90","computer","Desktop or Laptop","Windows 10","Chrome 120.0.0.0","1366x768","1366x641",NA,NA,0,"BIQ (Charlotte)",3,"HIGJFAEBDC","Failed AC2","Passed AC1","Spreadsheet1",NA,"","","",NA,"5","END",NA,NA,NA,NA,NA,NA,0,NA,NA,NA,NA,"","",NA,"","",NA,NA
"1",1705069082603,"12/01/2024 14:18:02",1705069082603,0,"12/01/2024 14:18:02",159402,5,"task-gjqt",NA,34162343,10092547,NA,"complete",NA,"65a147618511659de5c88fb9","computer","Desktop or Laptop","Windows 10","Chrome 120.0.0.0","1707x1067","1707x898",NA,NA,0,"BIQ (Charlotte)",3,"CDBEAFJGIH","Passed AC2","","Spreadsheet1",NA,"","","",NA,"5","BEGIN",NA,NA,NA,NA,NA,NA,0,NA,NA,NA,NA,"","",NA,"","",NA,NA
"2",1705069150081,"12/01/2024 14:19:10",1705069150081,0,"12/01/2024 14:19:10",159402,5,"task-gjqt",NA,34162343,10092547,NA,"complete",NA,"65a147618511659de5c88fb9","computer","Desktop or Laptop","Windows 10","Chrome 120.0.0.0","1707x1067","1707x898",NA,NA,0,"BIQ (Charlotte)",3,"CDBEAFJGIH","Passed AC2","","Spreadsheet1",1,"BIQ","Screen 1","9dh6eq",1,"continue","",68137.5999999996,68130.7,68137.5999999996,68137.5999999996,68130.7,68137.5999999996,1,68137.5999999996,0,0,NA,"Click To Continue","Continue Button",23,"object-48","BIQ",NA,NA
"3",1705069150082,"12/01/2024 14:19:10",1705069150082,0,"12/01/2024 14:19:10",159402,5,"task-gjqt",NA,34162343,10092547,NA,"complete",NA,"65a147618511659de5c88fb9","computer","Desktop or Laptop","Windows 10","Chrome 120.0.0.0","1707x1067","1707x898",NA,NA,0,"BIQ (Charlotte)",3,"CDBEAFJGIH","Passed AC2","","Spreadsheet1",1,"BIQ","Screen 1","9dh6eq",1,"response","7",20448.2,68130.7,68139.5,20448.2,68130.7,68139.5,1,20448.2,47691.3,0,NA,"Rating Scale","Rating Scale",3,"object-5","BIQ",NA,NA
"4",1705069150083,"12/01/2024 14:19:10",1705069150083,0,"12/01/2024 14:19:10",159402,5,"task-gjqt",NA,34162343,10092547,NA,"complete",NA,"65a147618511659de5c88fb9","computer","Desktop or Laptop","Windows 10","Chrome 120.0.0.0","1707x1067","1707x898",NA,NA,0,"BIQ (Charlotte)",3,"CDBEAFJGIH","Passed AC2","","Spreadsheet1",1,"BIQ","Screen 1","9dh6eq",1,"response","6",34212.3,68130.7,68139.7999999989,34212.3,68130.7,68139.7999999989,1,34212.3,33927.4999999989,0,NA,"Rating Scale","Rating Scale",10,"object-18","BIQ",NA,NA
"5",1705069150083,"12/01/2024 14:19:10",1705069150083,0,"12/01/2024 14:19:10",159402,5,"task-gjqt",NA,34162343,10092547,NA,"complete",NA,"65a147618511659de5c88fb9","computer","Desktop or Laptop","Windows 10","Chrome 120.0.0.0","1707x1067","1707x898",NA,NA,0,"BIQ (Charlotte)",3,"CDBEAFJGIH","Passed AC2","","Spreadsheet1",1,"BIQ","Screen 1","9dh6eq",1,"response","2",64493.7,68130.7,68140,64493.7,68130.7,68140,1,64493.7,3646.3,0,NA,"Rating Scale","Rating Scale",17,"object-80","BIQ",NA,NA
"6",1705069178118,"12/01/2024 14:19:38",1705069178118,0,"12/01/2024 14:19:38",159402,5,"task-gjqt",NA,34162343,10092547,NA,"complete",NA,"65a147618511659de5c88fb9","computer","Desktop or Laptop","Windows 10","Chrome 120.0.0.0","1707x1067","1707x898",NA,NA,0,"BIQ (Charlotte)",3,"CDBEAFJGIH","Passed AC2","","Spreadsheet1",1,"BIQ","Screen 2","o21mwi",2,"continue","",28044.1999999985,28028.9,28044.1999999985,28044.1999999985,28028.9,28044.1999999985,1,28044.1999999985,0,0,NA,"Click To Continue","Continue Button",22,"object-50","BIQ",NA,NA
"7",1705069178119,"12/01/2024 14:19:38",1705069178119,0,"12/01/2024 14:19:38",159402,5,"task-gjqt",NA,34162343,10092547,NA,"complete",NA,"65a147618511659de5c88fb9","computer","Desktop or Laptop","Windows 10","Chrome 120.0.0.0","1707x1067","1707x898",NA,NA,0,"BIQ (Charlotte)",3,"CDBEAFJGIH","Passed AC2","","Spreadsheet1",1,"BIQ","Screen 2","o21mwi",2,"response","7",11161.5,28028.9,28045.5,11161.5,28028.9,28045.5,1,11161.5,16884,0,NA,"Rating Scale","Rating Scale",2,"object-259","BIQ",NA,NA
"8",1705069178120,"12/01/2024 14:19:38",1705069178120,0,"12/01/2024 14:19:38",159402,5,"task-gjqt",NA,34162343,10092547,NA,"complete",NA,"65a147618511659de5c88fb9","computer","Desktop or Laptop","Windows 10","Chrome 120.0.0.0","1707x1067","1707x898",NA,NA,0,"BIQ (Charlotte)",3,"CDBEAFJGIH","Passed AC2","","Spreadsheet1",1,"BIQ","Screen 2","o21mwi",2,"response","2",20087.4,28028.9,28045.5,20087.4,28028.9,28045.5,1,20087.4,7958.10000000001,0,NA,"Rating Scale","Rating Scale",9,"object-36","BIQ",NA,NA
"9",1705069178120,"12/01/2024 14:19:38",1705069178120,0,"12/01/2024 14:19:38",159402,5,"task-gjqt",NA,34162343,10092547,NA,"complete",NA,"65a147618511659de5c88fb9","computer","Desktop or Laptop","Windows 10","Chrome 120.0.0.0","1707x1067","1707x898",NA,NA,0,"BIQ (Charlotte)",3,"CDBEAFJGIH","Passed AC2","","Spreadsheet1",1,"BIQ","Screen 2","o21mwi",2,"response","2",26377.2,28028.9,28045.5,26377.2,28028.9,28045.5,1,26377.2,1668.30000000002,0,NA,"Rating Scale","Rating Scale",16,"object-86","BIQ",NA,NA
"10",1705069194202,"12/01/2024 14:19:54",1705069194202,0,"12/01/2024 14:19:54",159402,5,"task-gjqt",NA,34162343,10092547,NA,"complete",NA,"65a147618511659de5c88fb9","computer","Desktop or Laptop","Windows 10","Chrome 120.0.0.0","1707x1067","1707x898",NA,NA,0,"BIQ (Charlotte)",3,"CDBEAFJGIH","Passed AC2","","Spreadsheet1",1,"BIQ","Screen 3","iz3the",3,"continue","",16099.1999999989,16083.3,16099.1999999989,16099.1999999989,16083.3,16099.1999999989,1,16099.1999999989,0,0,NA,"Click To Continue","Continue Button",22,"object-73","BIQ",NA,NA
"11",1705069194203,"12/01/2024 14:19:54",1705069194203,0,"12/01/2024 14:19:54",159402,5,"task-gjqt",NA,34162343,10092547,NA,"complete",NA,"65a147618511659de5c88fb9","computer","Desktop or Laptop","Windows 10","Chrome 120.0.0.0","1707x1067","1707x898",NA,NA,0,"BIQ (Charlotte)",3,"CDBEAFJGIH","Passed AC2","","Spreadsheet1",1,"BIQ","Screen 3","iz3the",3,"response","2",6823.59999999999,16083.3,16100.1,6823.59999999999,16083.3,16100.1,1,6823.59999999999,9276.49999999999,0,NA,"Rating Scale","Rating Scale",2,"object-53","BIQ",NA,NA
"12",1705069194203,"12/01/2024 14:19:54",1705069194203,0,"12/01/2024 14:19:54",159402,5,"task-gjqt",NA,34162343,10092547,NA,"complete",NA,"65a147618511659de5c88fb9","computer","Desktop or Laptop","Windows 10","Chrome 120.0.0.0","1707x1067","1707x898",NA,NA,0,"BIQ (Charlotte)",3,"CDBEAFJGIH","Passed AC2","","Spreadsheet1",1,"BIQ","Screen 3","iz3the",3,"response","1",10127.3,16083.3,16100.1,10127.3,16083.3,16100.1,1,10127.3,5972.79999999999,0,NA,"Rating Scale","Rating Scale",9,"object-60","BIQ",NA,NA
"13",1705069194204,"12/01/2024 14:19:54",1705069194204,0,"12/01/2024 14:19:54",159402,5,"task-gjqt",NA,34162343,10092547,NA,"complete",NA,"65a147618511659de5c88fb9","computer","Desktop or Laptop","Windows 10","Chrome 120.0.0.0","1707x1067","1707x898",NA,NA,0,"BIQ (Charlotte)",3,"CDBEAFJGIH","Passed AC2","","Spreadsheet1",1,"BIQ","Screen 3","iz3the",3,"response","3",13363.7,16083.3,16100.1,13363.7,16083.3,16100.1,1,13363.7,2736.39999999998,0,NA,"Rating Scale","Rating Scale",16,"object-67","BIQ",NA,NA
"14",1705069194206,"12/01/2024 14:19:54",1705069194206,0,"12/01/2024 14:19:54",159402,5,"task-gjqt",NA,34162343,10092547,NA,"complete",NA,"65a147618511659de5c88fb9","computer","Desktop or Laptop","Windows 10","Chrome 120.0.0.0","1707x1067","1707x898",NA,NA,0,"BIQ (Charlotte)",3,"CDBEAFJGIH","Passed AC2","","Spreadsheet1",NA,"","","",NA,"5","END",NA,NA,NA,NA,NA,NA,0,NA,NA,NA,NA,"","",NA,"","",NA,NA
"1",1705069550628,"12/01/2024 14:25:50",1705073150628,1,"12/01/2024 16:25:50",159402,5,"task-gjqt",NA,34162655,10092575,NA,"complete",NA,"65a1472bf5ea01bcecb231f9","computer","Desktop or Laptop","Windows 10","Chrome 120.0.0.0","1366x768","1366x641",NA,NA,0,"BIQ (Charlotte)",3,"DECFBGAHJI","Passed AC2","","Spreadsheet1",NA,"","","",NA,"5","BEGIN",NA,NA,NA,NA,NA,NA,0,NA,NA,NA,NA,"","",NA,"","",NA,NA
