"Event.Index","UTC.Timestamp","UTC.Date.and.Time","Local.Timestamp","Local.Timezone","Local.Date.and.Time","Experiment.ID","Experiment.Version","Tree.Node.Key","Repeat.Key","Schedule.ID","Participant.Private.ID","Participant.Starting.Group","Participant.Status","Participant.Completion.Code","Participant.External.Session.ID","Participant.Device.Type","Participant.Device","Participant.OS","Participant.Browser","Participant.Monitor.Size","Participant.Viewport.Size","Checkpoint","Room.ID","Room.Order","Task.Name","Task.Version","order.ot79","branch.g31k","branch.5gtn","Spreadsheet","Trial.Number","Display","Screen","Screen.ID","Screen.Counter","Response.Type","Response","Onset.Time","Clock.Time","Reaction.Time","Absolute.Onset.Time","Absolute.Clock.Time","Absolute.Reaction.Time","Correct","Response.Onset","Response.Duration","Proportion","Tag","Component.Name","Object.Name","Object.Number","Object.ID","Spreadsheet..display","Manipulation..Spreadsheet","Random_ID"
"1",1699640075132,"10/11/2023 18:14:35",1699640075132,0,"10/11/2023 18:14:35",151512,5,"task-gjqt",NA,32874805,9735633,NA,"complete",NA,"654e710ffcc1748009be7272","computer","Desktop or Laptop","Mac OS 10.15.7","Chrome 119.0.0.0","1440x900","1440x702",NA,NA,0,"BIQ (Charlotte)",3,"ABJCIDHEGF","Passed AC2",NA,"Spreadsheet1",NA,"","","",NA,"5","BEGIN",NA,NA,NA,NA,NA,NA,0,NA,NA,NA,NA,"","",NA,"","",NA,"SUPPRF45424"
"2",1699640096621,"10/11/2023 18:14:56",1699640096621,0,"10/11/2023 18:14:56",151512,5,"task-gjqt",NA,32874805,9735633,NA,"complete",NA,"654e710ffcc1748009be7272","computer","Desktop or Laptop","Mac OS 10.15.7","Chrome 119.0.0.0","1440x900","1440x702",NA,NA,0,"BIQ (Charlotte)",3,"ABJCIDHEGF","Passed AC2",NA,"Spreadsheet1",1,"BIQ","Screen 1","9dh6eq",1,"continue","",21499.665,21482.999,21499.665,21499.665,21482.999,21499.665,1,21499.665,0,0,NA,"Click To Continue","Continue Button",23,"object-48","BIQ",NA,"SUPPRF45424"
"3",1699640096624,"10/11/2023 18:14:56",1699640096624,0,"10/11/2023 18:14:56",151512,5,"task-gjqt",NA,32874805,9735633,NA,"complete",NA,"654e710ffcc1748009be7272","computer","Desktop or Laptop","Mac OS 10.15.7","Chrome 119.0.0.0","1440x900","1440x702",NA,NA,0,"BIQ (Charlotte)",3,"ABJCIDHEGF","Passed AC2",NA,"Spreadsheet1",1,"BIQ","Screen 1","9dh6eq",1,"response","6",7549.698,21482.999,21499.665,7549.698,21482.999,21499.665,1,7549.698,13949.967,0,NA,"Rating Scale","Rating Scale",3,"object-5","BIQ",NA,"SUPPRF45424"
"4",1699640096625,"10/11/2023 18:14:56",1699640096625,0,"10/11/2023 18:14:56",151512,5,"task-gjqt",NA,32874805,9735633,NA,"complete",NA,"654e710ffcc1748009be7272","computer","Desktop or Laptop","Mac OS 10.15.7","Chrome 119.0.0.0","1440x900","1440x702",NA,NA,0,"BIQ (Charlotte)",3,"ABJCIDHEGF","Passed AC2",NA,"Spreadsheet1",1,"BIQ","Screen 1","9dh6eq",1,"response","7",15132.99,21482.999,21499.665,15132.99,21482.999,21499.665,1,15132.99,6366.675,0,NA,"Rating Scale","Rating Scale",10,"object-18","BIQ",NA,"SUPPRF45424"
"5",1699640096625,"10/11/2023 18:14:56",1699640096625,0,"10/11/2023 18:14:56",151512,5,"task-gjqt",NA,32874805,9735633,NA,"complete",NA,"654e710ffcc1748009be7272","computer","Desktop or Laptop","Mac OS 10.15.7","Chrome 119.0.0.0","1440x900","1440x702",NA,NA,0,"BIQ (Charlotte)",3,"ABJCIDHEGF","Passed AC2",NA,"Spreadsheet1",1,"BIQ","Screen 1","9dh6eq",1,"response","1",20699.697,21482.999,21499.665,20699.697,21482.999,21499.665,1,20699.697,799.967999999997,0,NA,"Rating Scale","Rating Scale",17,"object-80","BIQ",NA,"SUPPRF45424"
"6",1699640116120,"10/11/2023 18:15:16",1699640116120,0,"10/11/2023 18:15:16",151512,5,"task-gjqt",NA,32874805,9735633,NA,"complete",NA,"654e710ffcc1748009be7272","computer","Desktop or Laptop","Mac OS 10.15.7","Chrome 119.0.0.0","1440x900","1440x702",NA,NA,0,"BIQ (Charlotte)",3,"ABJCIDHEGF","Passed AC2",NA,"Spreadsheet1",1,"BIQ","Screen 2","o21mwi",2,"continue","",19523.275,19516.411,19523.275,19523.275,19516.411,19523.275,1,19523.275,0,0,NA,"Click To Continue","Continue Button",22,"object-50","BIQ",NA,"SUPPRF45424"
"7",1699640116123,"10/11/2023 18:15:16",1699640116123,0,"10/11/2023 18:15:16",151512,5,"task-gjqt",NA,32874805,9735633,NA,"complete",NA,"654e710ffcc1748009be7272","computer","Desktop or Laptop","Mac OS 10.15.7","Chrome 119.0.0.0","1440x900","1440x702",NA,NA,0,"BIQ (Charlotte)",3,"ABJCIDHEGF","Passed AC2",NA,"Spreadsheet1",1,"BIQ","Screen 2","o21mwi",2,"response","7",4466.488,19516.411,19527.5749999998,4466.488,19516.411,19527.5749999998,1,4466.488,15061.0869999998,0,NA,"Rating Scale","Rating Scale",2,"object-259","BIQ",NA,"SUPPRF45424"
"8",1699640116124,"10/11/2023 18:15:16",1699640116124,0,"10/11/2023 18:15:16",151512,5,"task-gjqt",NA,32874805,9735633,NA,"complete",NA,"654e710ffcc1748009be7272","computer","Desktop or Laptop","Mac OS 10.15.7","Chrome 119.0.0.0","1440x900","1440x702",NA,NA,0,"BIQ (Charlotte)",3,"ABJCIDHEGF","Passed AC2",NA,"Spreadsheet1",1,"BIQ","Screen 2","o21mwi",2,"response","2",12033.114,19516.411,19528.275,12033.114,19516.411,19528.275,1,12033.114,7495.161,0,NA,"Rating Scale","Rating Scale",9,"object-36","BIQ",NA,"SUPPRF45424"
"9",1699640116125,"10/11/2023 18:15:16",1699640116125,0,"10/11/2023 18:15:16",151512,5,"task-gjqt",NA,32874805,9735633,NA,"complete",NA,"654e710ffcc1748009be7272","computer","Desktop or Laptop","Mac OS 10.15.7","Chrome 119.0.0.0","1440x900","1440x702",NA,NA,0,"BIQ (Charlotte)",3,"ABJCIDHEGF","Passed AC2",NA,"Spreadsheet1",1,"BIQ","Screen 2","o21mwi",2,"response","2",18283.127,19516.411,19529.0749999998,18283.127,19516.411,19529.0749999998,1,18283.127,1245.94799999981,0,NA,"Rating Scale","Rating Scale",16,"object-86","BIQ",NA,"SUPPRF45424"
"10",1699640141490,"10/11/2023 18:15:41",1699640141490,0,"10/11/2023 18:15:41",151512,5,"task-gjqt",NA,32874805,9735633,NA,"complete",NA,"654e710ffcc1748009be7272","computer","Desktop or Laptop","Mac OS 10.15.7","Chrome 119.0.0.0","1440x900","1440x702",NA,NA,0,"BIQ (Charlotte)",3,"ABJCIDHEGF","Passed AC2",NA,"Spreadsheet1",1,"BIQ","Screen 3","iz3the",3,"continue","",25378.5639999997,25366.177,25378.5639999997,25378.5639999997,25366.177,25378.5639999997,1,25378.5639999997,0,0,NA,"Click To Continue","Continue Button",22,"object-73","BIQ",NA,"SUPPRF45424"
"11",1699640141495,"10/11/2023 18:15:41",1699640141495,0,"10/11/2023 18:15:41",151512,5,"task-gjqt",NA,32874805,9735633,NA,"complete",NA,"654e710ffcc1748009be7272","computer","Desktop or Laptop","Mac OS 10.15.7","Chrome 119.0.0.0","1440x900","1440x702",NA,NA,0,"BIQ (Charlotte)",3,"ABJCIDHEGF","Passed AC2",NA,"Spreadsheet1",1,"BIQ","Screen 3","iz3the",3,"response","1",9949.864,25366.177,25382.843,9949.864,25366.177,25382.843,1,9949.864,15432.979,0,NA,"Rating Scale","Rating Scale",2,"object-53","BIQ",NA,"SUPPRF45424"
"12",1699640141495,"10/11/2023 18:15:41",1699640141495,0,"10/11/2023 18:15:41",151512,5,"task-gjqt",NA,32874805,9735633,NA,"complete",NA,"654e710ffcc1748009be7272","computer","Desktop or Laptop","Mac OS 10.15.7","Chrome 119.0.0.0","1440x900","1440x702",NA,NA,0,"BIQ (Charlotte)",3,"ABJCIDHEGF","Passed AC2",NA,"Spreadsheet1",1,"BIQ","Screen 3","iz3the",3,"response","4",12916.412,25366.177,25382.843,12916.412,25366.177,25382.843,1,12916.412,12466.431,0,NA,"Rating Scale","Rating Scale",9,"object-60","BIQ",NA,"SUPPRF45424"
"13",1699640141496,"10/11/2023 18:15:41",1699640141496,0,"10/11/2023 18:15:41",151512,5,"task-gjqt",NA,32874805,9735633,NA,"complete",NA,"654e710ffcc1748009be7272","computer","Desktop or Laptop","Mac OS 10.15.7","Chrome 119.0.0.0","1440x900","1440x702",NA,NA,0,"BIQ (Charlotte)",3,"ABJCIDHEGF","Passed AC2",NA,"Spreadsheet1",1,"BIQ","Screen 3","iz3the",3,"response","4",22049.643,25366.177,25382.843,22049.643,25366.177,25382.843,1,22049.643,3333.19999999999,0,NA,"Rating Scale","Rating Scale",16,"object-67","BIQ",NA,"SUPPRF45424"
"14",1699640141503,"10/11/2023 18:15:41",1699640141503,0,"10/11/2023 18:15:41",151512,5,"task-gjqt",NA,32874805,9735633,NA,"complete",NA,"654e710ffcc1748009be7272","computer","Desktop or Laptop","Mac OS 10.15.7","Chrome 119.0.0.0","1440x900","1440x702",NA,NA,0,"BIQ (Charlotte)",3,"ABJCIDHEGF","Passed AC2",NA,"Spreadsheet1",NA,"","","",NA,"5","END",NA,NA,NA,NA,NA,NA,0,NA,NA,NA,NA,"","",NA,"","",NA,"SUPPRF45424"
"1",1699644783759,"10/11/2023 19:33:03",1699644783759,0,"10/11/2023 19:33:03",151512,5,"task-gjqt",NA,32875918,9736164,NA,"complete",NA,"654e824c01da0346f7d0bf9b","computer","Desktop or Laptop","Windows 10","Chrome 119.0.0.0","1280x720","1280x595",NA,NA,0,"BIQ (Charlotte)",3,"CDBEAFJGIH","Passed AC2",NA,"Spreadsheet1",NA,"","","",NA,"5","BEGIN",NA,NA,NA,NA,NA,NA,0,NA,NA,NA,NA,"","",NA,"","",NA,"SUPPRF45704"
"2",1699644833304,"10/11/2023 19:33:53",1699644833304,0,"10/11/2023 19:33:53",151512,5,"task-gjqt",NA,32875918,9736164,NA,"complete",NA,"654e824c01da0346f7d0bf9b","computer","Desktop or Laptop","Windows 10","Chrome 119.0.0.0","1280x720","1280x595",NA,NA,0,"BIQ (Charlotte)",3,"CDBEAFJGIH","Passed AC2",NA,"Spreadsheet1",1,"BIQ","Screen 1","9dh6eq",1,"continue","",49555.748,49539.089,49555.748,49555.748,49539.089,49555.748,1,49555.748,0,0,NA,"Click To Continue","Continue Button",23,"object-48","BIQ",NA,"SUPPRF45704"
"3",1699644833307,"10/11/2023 19:33:53",1699644833307,0,"10/11/2023 19:33:53",151512,5,"task-gjqt",NA,32875918,9736164,NA,"complete",NA,"654e824c01da0346f7d0bf9b","computer","Desktop or Laptop","Windows 10","Chrome 119.0.0.0","1280x720","1280x595",NA,NA,0,"BIQ (Charlotte)",3,"CDBEAFJGIH","Passed AC2",NA,"Spreadsheet1",1,"BIQ","Screen 1","9dh6eq",1,"response","6",33303.848,49539.089,49555.748,33303.848,49539.089,49555.748,1,33303.848,16251.9,0,NA,"Rating Scale","Rating Scale",3,"object-5","BIQ",NA,"SUPPRF45704"
"4",1699644833307,"10/11/2023 19:33:53",1699644833307,0,"10/11/2023 19:33:53",151512,5,"task-gjqt",NA,32875918,9736164,NA,"complete",NA,"654e824c01da0346f7d0bf9b","computer","Desktop or Laptop","Windows 10","Chrome 119.0.0.0","1280x720","1280x595",NA,NA,0,"BIQ (Charlotte)",3,"CDBEAFJGIH","Passed AC2",NA,"Spreadsheet1",1,"BIQ","Screen 1","9dh6eq",1,"response","3",43561.08,49539.089,49555.748,43561.08,49539.089,49555.748,1,43561.08,5994.668,0,NA,"Rating Scale","Rating Scale",10,"object-18","BIQ",NA,"SUPPRF45704"
"5",1699644833308,"10/11/2023 19:33:53",1699644833308,0,"10/11/2023 19:33:53",151512,5,"task-gjqt",NA,32875918,9736164,NA,"complete",NA,"654e824c01da0346f7d0bf9b","computer","Desktop or Laptop","Windows 10","Chrome 119.0.0.0","1280x720","1280x595",NA,NA,0,"BIQ (Charlotte)",3,"CDBEAFJGIH","Passed AC2",NA,"Spreadsheet1",1,"BIQ","Screen 1","9dh6eq",1,"response","4",48723.139,49539.089,49555.748,48723.139,49539.089,49555.748,1,48723.139,832.608999999997,0,NA,"Rating Scale","Rating Scale",17,"object-80","BIQ",NA,"SUPPRF45704"
"6",1699644868317,"10/11/2023 19:34:28",1699644868317,0,"10/11/2023 19:34:28",151512,5,"task-gjqt",NA,32875918,9736164,NA,"complete",NA,"654e824c01da0346f7d0bf9b","computer","Desktop or Laptop","Windows 10","Chrome 119.0.0.0","1280x720","1280x595",NA,NA,0,"BIQ (Charlotte)",3,"CDBEAFJGIH","Passed AC2",NA,"Spreadsheet1",1,"BIQ","Screen 2","o21mwi",2,"continue","",35031.135,35018.873,35031.135,35031.135,35018.873,35031.135,1,35031.135,0,0,NA,"Click To Continue","Continue Button",22,"object-50","BIQ",NA,"SUPPRF45704"
"7",1699644868321,"10/11/2023 19:34:28",1699644868321,0,"10/11/2023 19:34:28",151512,5,"task-gjqt",NA,32875918,9736164,NA,"complete",NA,"654e824c01da0346f7d0bf9b","computer","Desktop or Laptop","Windows 10","Chrome 119.0.0.0","1280x720","1280x595",NA,NA,0,"BIQ (Charlotte)",3,"CDBEAFJGIH","Passed AC2",NA,"Spreadsheet1",1,"BIQ","Screen 2","o21mwi",2,"response","7",13454.856,35018.873,35035.553,13454.856,35018.873,35035.553,1,13454.856,21580.697,0,NA,"Rating Scale","Rating Scale",2,"object-259","BIQ",NA,"SUPPRF45704"
"8",1699644868322,"10/11/2023 19:34:28",1699644868322,0,"10/11/2023 19:34:28",151512,5,"task-gjqt",NA,32875918,9736164,NA,"complete",NA,"654e824c01da0346f7d0bf9b","computer","Desktop or Laptop","Windows 10","Chrome 119.0.0.0","1280x720","1280x595",NA,NA,0,"BIQ (Charlotte)",3,"CDBEAFJGIH","Passed AC2",NA,"Spreadsheet1",1,"BIQ","Screen 2","o21mwi",2,"response","1",23945.424,35018.873,35035.553,23945.424,35018.873,35035.553,1,23945.424,11090.129,0,NA,"Rating Scale","Rating Scale",9,"object-36","BIQ",NA,"SUPPRF45704"
"9",1699644868323,"10/11/2023 19:34:28",1699644868323,0,"10/11/2023 19:34:28",151512,5,"task-gjqt",NA,32875918,9736164,NA,"complete",NA,"654e824c01da0346f7d0bf9b","computer","Desktop or Laptop","Windows 10","Chrome 119.0.0.0","1280x720","1280x595",NA,NA,0,"BIQ (Charlotte)",3,"CDBEAFJGIH","Passed AC2",NA,"Spreadsheet1",1,"BIQ","Screen 2","o21mwi",2,"response","2",34336.127,35018.873,35035.553,34336.127,35018.873,35035.553,1,34336.127,699.425999999992,0,NA,"Rating Scale","Rating Scale",16,"object-86","BIQ",NA,"SUPPRF45704"
"10",1699644894267,"10/11/2023 19:34:54",1699644894267,0,"10/11/2023 19:34:54",151512,5,"task-gjqt",NA,32875918,9736164,NA,"complete",NA,"654e824c01da0346f7d0bf9b","computer","Desktop or Laptop","Windows 10","Chrome 119.0.0.0","1280x720","1280x595",NA,NA,0,"BIQ (Charlotte)",3,"CDBEAFJGIH","Passed AC2",NA,"Spreadsheet1",1,"BIQ","Screen 3","iz3the",3,"continue","",25963.0620000119,25960.25,25963.0620000119,25963.0620000119,25960.25,25963.0620000119,1,25963.0620000119,0,0,NA,"Click To Continue","Continue Button",22,"object-73","BIQ",NA,"SUPPRF45704"
"11",1699644894272,"10/11/2023 19:34:54",1699644894272,0,"10/11/2023 19:34:54",151512,5,"task-gjqt",NA,32875918,9736164,NA,"complete",NA,"654e824c01da0346f7d0bf9b","computer","Desktop or Laptop","Windows 10","Chrome 119.0.0.0","1280x720","1280x595",NA,NA,0,"BIQ (Charlotte)",3,"CDBEAFJGIH","Passed AC2",NA,"Spreadsheet1",1,"BIQ","Screen 3","iz3the",3,"response","0",12838.548,25960.25,25967.262,12838.548,25960.25,25967.262,1,12838.548,13128.714,0,NA,"Rating Scale","Rating Scale",2,"object-53","BIQ",NA,"SUPPRF45704"
"12",1699644894273,"10/11/2023 19:34:54",1699644894273,0,"10/11/2023 19:34:54",151512,5,"task-gjqt",NA,32875918,9736164,NA,"complete",NA,"654e824c01da0346f7d0bf9b","computer","Desktop or Laptop","Windows 10","Chrome 119.0.0.0","1280x720","1280x595",NA,NA,0,"BIQ (Charlotte)",3,"CDBEAFJGIH","Passed AC2",NA,"Spreadsheet1",1,"BIQ","Screen 3","iz3the",3,"response","2",20598.427,25960.25,25968.6620000358,20598.427,25960.25,25968.6620000358,1,20598.427,5370.23500003577,0,NA,"Rating Scale","Rating Scale",9,"object-60","BIQ",NA,"SUPPRF45704"
"13",1699644894274,"10/11/2023 19:34:54",1699644894274,0,"10/11/2023 19:34:54",151512,5,"task-gjqt",NA,32875918,9736164,NA,"complete",NA,"654e824c01da0346f7d0bf9b","computer","Desktop or Laptop","Windows 10","Chrome 119.0.0.0","1280x720","1280x595",NA,NA,0,"BIQ (Charlotte)",3,"CDBEAFJGIH","Passed AC2",NA,"Spreadsheet1",1,"BIQ","Screen 3","iz3the",3,"response","1",24195.054,25960.25,25969.762,24195.054,25960.25,25969.762,1,24195.054,1774.708,0,NA,"Rating Scale","Rating Scale",16,"object-67","BIQ",NA,"SUPPRF45704"
"14",1699644894281,"10/11/2023 19:34:54",1699644894281,0,"10/11/2023 19:34:54",151512,5,"task-gjqt",NA,32875918,9736164,NA,"complete",NA,"654e824c01da0346f7d0bf9b","computer","Desktop or Laptop","Windows 10","Chrome 119.0.0.0","1280x720","1280x595",NA,NA,0,"BIQ (Charlotte)",3,"CDBEAFJGIH","Passed AC2",NA,"Spreadsheet1",NA,"","","",NA,"5","END",NA,NA,NA,NA,NA,NA,0,NA,NA,NA,NA,"","",NA,"","",NA,"SUPPRF45704"
"1",1699644682522,"10/11/2023 19:31:22",1699644682522,0,"10/11/2023 19:31:22",151512,5,"task-gjqt",NA,32875877,9736180,NA,"complete",NA,"654e7dc17634b6d7df3e7554","computer","Desktop or Laptop","Mac OS 10.15.7","Chrome 119.0.0.0","1440x900","1920x1039",NA,NA,0,"BIQ (Charlotte)",3,"DECFBGAHJI","Passed AC2",NA,"Spreadsheet1",NA,"","","",NA,"5","BEGIN",NA,NA,NA,NA,NA,NA,0,NA,NA,NA,NA,"","",NA,"","",NA,"SUPPRF70595"
"2",1699644705149,"10/11/2023 19:31:45",1699644705149,0,"10/11/2023 19:31:45",151512,5,"task-gjqt",NA,32875877,9736180,NA,"complete",NA,"654e7dc17634b6d7df3e7554","computer","Desktop or Laptop","Mac OS 10.15.7","Chrome 119.0.0.0","1440x900","1920x1039",NA,NA,0,"BIQ (Charlotte)",3,"DECFBGAHJI","Passed AC2",NA,"Spreadsheet1",1,"BIQ","Screen 1","9dh6eq",1,"continue","",22639.895,22623.175,22639.895,22639.895,22623.175,22639.895,1,22639.895,0,0,NA,"Click To Continue","Continue Button",23,"object-48","BIQ",NA,"SUPPRF70595"
"3",1699644705153,"10/11/2023 19:31:45",1699644705153,0,"10/11/2023 19:31:45",151512,5,"task-gjqt",NA,32875877,9736180,NA,"complete",NA,"654e7dc17634b6d7df3e7554","computer","Desktop or Laptop","Mac OS 10.15.7","Chrome 119.0.0.0","1440x900","1920x1039",NA,NA,0,"BIQ (Charlotte)",3,"DECFBGAHJI","Passed AC2",NA,"Spreadsheet1",1,"BIQ","Screen 1","9dh6eq",1,"response","5",8310.446,22623.175,22639.895,8310.446,22623.175,22639.895,1,8310.446,14329.449,0,NA,"Rating Scale","Rating Scale",3,"object-5","BIQ",NA,"SUPPRF70595"
"4",1699644705154,"10/11/2023 19:31:45",1699644705154,0,"10/11/2023 19:31:45",151512,5,"task-gjqt",NA,32875877,9736180,NA,"complete",NA,"654e7dc17634b6d7df3e7554","computer","Desktop or Laptop","Mac OS 10.15.7","Chrome 119.0.0.0","1440x900","1920x1039",NA,NA,0,"BIQ (Charlotte)",3,"DECFBGAHJI","Passed AC2",NA,"Spreadsheet1",1,"BIQ","Screen 1","9dh6eq",1,"response","6",13226.126,22623.175,22639.895,13226.126,22623.175,22639.895,1,13226.126,9413.769,0,NA,"Rating Scale","Rating Scale",10,"object-18","BIQ",NA,"SUPPRF70595"
"5",1699644705155,"10/11/2023 19:31:45",1699644705155,0,"10/11/2023 19:31:45",151512,5,"task-gjqt",NA,32875877,9736180,NA,"complete",NA,"654e7dc17634b6d7df3e7554","computer","Desktop or Laptop","Mac OS 10.15.7","Chrome 119.0.0.0","1440x900","1920x1039",NA,NA,0,"BIQ (Charlotte)",3,"DECFBGAHJI","Passed AC2",NA,"Spreadsheet1",1,"BIQ","Screen 1","9dh6eq",1,"response","6",16687.575,22623.175,22639.895,16687.575,22623.175,22639.895,1,16687.575,5952.32,0,NA,"Rating Scale","Rating Scale",17,"object-80","BIQ",NA,"SUPPRF70595"
"6",1699644716423,"10/11/2023 19:31:56",1699644716423,0,"10/11/2023 19:31:56",151512,5,"task-gjqt",NA,32875877,9736180,NA,"complete",NA,"654e7dc17634b6d7df3e7554","computer","Desktop or Laptop","Mac OS 10.15.7","Chrome 119.0.0.0","1440x900","1920x1039",NA,NA,0,"BIQ (Charlotte)",3,"DECFBGAHJI","Passed AC2",NA,"Spreadsheet1",1,"BIQ","Screen 2","o21mwi",2,"continue","",11297.679000006,11286.57,11297.679000006,11297.679000006,11286.57,11297.679000006,1,11297.679000006,0,0,NA,"Click To Continue","Continue Button",22,"object-50","BIQ",NA,"SUPPRF70595"
"7",1699644716426,"10/11/2023 19:31:56",1699644716426,0,"10/11/2023 19:31:56",151512,5,"task-gjqt",NA,32875877,9736180,NA,"complete",NA,"654e7dc17634b6d7df3e7554","computer","Desktop or Laptop","Mac OS 10.15.7","Chrome 119.0.0.0","1440x900","1920x1039",NA,NA,0,"BIQ (Charlotte)",3,"DECFBGAHJI","Passed AC2",NA,"Spreadsheet1",1,"BIQ","Screen 2","o21mwi",2,"response","4",2709.21,11286.57,11300.779,2709.21,11286.57,11300.779,1,2709.21,8591.569,0,NA,"Rating Scale","Rating Scale",2,"object-259","BIQ",NA,"SUPPRF70595"
"8",1699644716427,"10/11/2023 19:31:56",1699644716427,0,"10/11/2023 19:31:56",151512,5,"task-gjqt",NA,32875877,9736180,NA,"complete",NA,"654e7dc17634b6d7df3e7554","computer","Desktop or Laptop","Mac OS 10.15.7","Chrome 119.0.0.0","1440x900","1920x1039",NA,NA,0,"BIQ (Charlotte)",3,"DECFBGAHJI","Passed AC2",NA,"Spreadsheet1",1,"BIQ","Screen 2","o21mwi",2,"response","5",6671.85,11286.57,11301.878999994,6671.85,11286.57,11301.878999994,1,6671.85,4630.02899999404,0,NA,"Rating Scale","Rating Scale",9,"object-36","BIQ",NA,"SUPPRF70595"
"9",1699644716428,"10/11/2023 19:31:56",1699644716428,0,"10/11/2023 19:31:56",151512,5,"task-gjqt",NA,32875877,9736180,NA,"complete",NA,"654e7dc17634b6d7df3e7554","computer","Desktop or Laptop","Mac OS 10.15.7","Chrome 119.0.0.0","1440x900","1920x1039",NA,NA,0,"BIQ (Charlotte)",3,"DECFBGAHJI","Passed AC2",NA,"Spreadsheet1",1,"BIQ","Screen 2","o21mwi",2,"response","6",10383.69,11286.57,11302.779,10383.69,11286.57,11302.779,1,10383.69,919.089,0,NA,"Rating Scale","Rating Scale",16,"object-86","BIQ",NA,"SUPPRF70595"
"10",1699644727200,"10/11/2023 19:32:07",1699644727200,0,"10/11/2023 19:32:07",151512,5,"task-gjqt",NA,32875877,9736180,NA,"complete",NA,"654e7dc17634b6d7df3e7554","computer","Desktop or Laptop","Mac OS 10.15.7","Chrome 119.0.0.0","1440x900","1920x1039",NA,NA,0,"BIQ (Charlotte)",3,"DECFBGAHJI","Passed AC2",NA,"Spreadsheet1",1,"BIQ","Screen 3","iz3the",3,"continue","",10788.709,10785.285,10788.709,10788.709,10785.285,10788.709,1,10788.709,0,0,NA,"Click To Continue","Continue Button",22,"object-73","BIQ",NA,"SUPPRF70595"
"11",1699644727203,"10/11/2023 19:32:07",1699644727203,0,"10/11/2023 19:32:07",151512,5,"task-gjqt",NA,32875877,9736180,NA,"complete",NA,"654e7dc17634b6d7df3e7554","computer","Desktop or Laptop","Mac OS 10.15.7","Chrome 119.0.0.0","1440x900","1920x1039",NA,NA,0,"BIQ (Charlotte)",3,"DECFBGAHJI","Passed AC2",NA,"Spreadsheet1",1,"BIQ","Screen 3","iz3the",3,"response","1",5267.287,10785.285,10791.709,5267.287,10785.285,10791.709,1,5267.287,5524.422,0,NA,"Rating Scale","Rating Scale",2,"object-53","BIQ",NA,"SUPPRF70595"
"12",1699644727204,"10/11/2023 19:32:07",1699644727204,0,"10/11/2023 19:32:07",151512,5,"task-gjqt",NA,32875877,9736180,NA,"complete",NA,"654e7dc17634b6d7df3e7554","computer","Desktop or Laptop","Mac OS 10.15.7","Chrome 119.0.0.0","1440x900","1920x1039",NA,NA,0,"BIQ (Charlotte)",3,"DECFBGAHJI","Passed AC2",NA,"Spreadsheet1",1,"BIQ","Screen 3","iz3the",3,"response","5",6788.807,10785.285,10792.209,6788.807,10785.285,10792.209,1,6788.807,4003.402,0,NA,"Rating Scale","Rating Scale",9,"object-60","BIQ",NA,"SUPPRF70595"
"13",1699644727204,"10/11/2023 19:32:07",1699644727204,0,"10/11/2023 19:32:07",151512,5,"task-gjqt",NA,32875877,9736180,NA,"complete",NA,"654e7dc17634b6d7df3e7554","computer","Desktop or Laptop","Mac OS 10.15.7","Chrome 119.0.0.0","1440x900","1920x1039",NA,NA,0,"BIQ (Charlotte)",3,"DECFBGAHJI","Passed AC2",NA,"Spreadsheet1",1,"BIQ","Screen 3","iz3the",3,"response","6",8761.767,10785.285,10792.9090000179,8761.767,10785.285,10792.9090000179,1,8761.767,2031.14200001788,0,NA,"Rating Scale","Rating Scale",16,"object-67","BIQ",NA,"SUPPRF70595"
"14",1699644727211,"10/11/2023 19:32:07",1699644727211,0,"10/11/2023 19:32:07",151512,5,"task-gjqt",NA,32875877,9736180,NA,"complete",NA,"654e7dc17634b6d7df3e7554","computer","Desktop or Laptop","Mac OS 10.15.7","Chrome 119.0.0.0","1440x900","1920x1039",NA,NA,0,"BIQ (Charlotte)",3,"DECFBGAHJI","Passed AC2",NA,"Spreadsheet1",NA,"","","",NA,"5","END",NA,NA,NA,NA,NA,NA,0,NA,NA,NA,NA,"","",NA,"","",NA,"SUPPRF70595"
"1",1699645704912,"10/11/2023 19:48:24",1699624104912,-6,"10/11/2023 07:48:24",151512,5,"task-gjqt",NA,32876206,9736283,NA,"complete",NA,"654e8774ec3e795cee9c8c76","computer","Desktop or Laptop","Chromium OS 14541.0.0","Chrome 118.0.0.0","1536x864","1536x695",NA,NA,0,"BIQ (Charlotte)",3,"GHFIEJDACB","Passed AC2",NA,"Spreadsheet1",NA,"","","",NA,"5","BEGIN",NA,NA,NA,NA,NA,NA,0,NA,NA,NA,NA,"","",NA,"","",NA,"SUPPRF54185"
"2",1699645730142,"10/11/2023 19:48:50",1699624130142,-6,"10/11/2023 07:48:50",151512,5,"task-gjqt",NA,32876206,9736283,NA,"complete",NA,"654e8774ec3e795cee9c8c76","computer","Desktop or Laptop","Chromium OS 14541.0.0","Chrome 118.0.0.0","1536x864","1536x695",NA,NA,0,"BIQ (Charlotte)",3,"GHFIEJDACB","Passed AC2",NA,"Spreadsheet1",1,"BIQ","Screen 1","9dh6eq",1,"continue","",25245.927,25229.275,25245.927,25245.927,25229.275,25245.927,1,25245.927,0,0,NA,"Click To Continue","Continue Button",23,"object-48","BIQ",NA,"SUPPRF54185"
"3",1699645730153,"10/11/2023 19:48:50",1699624130153,-6,"10/11/2023 07:48:50",151512,5,"task-gjqt",NA,32876206,9736283,NA,"complete",NA,"654e8774ec3e795cee9c8c76","computer","Desktop or Laptop","Chromium OS 14541.0.0","Chrome 118.0.0.0","1536x864","1536x695",NA,NA,0,"BIQ (Charlotte)",3,"GHFIEJDACB","Passed AC2",NA,"Spreadsheet1",1,"BIQ","Screen 1","9dh6eq",1,"response","7",13588.806,25229.275,25245.927,13588.806,25229.275,25245.927,1,13588.806,11657.121,0,NA,"Rating Scale","Rating Scale",3,"object-5","BIQ",NA,"SUPPRF54185"
"4",1699645730153,"10/11/2023 19:48:50",1699624130153,-6,"10/11/2023 07:48:50",151512,5,"task-gjqt",NA,32876206,9736283,NA,"complete",NA,"654e8774ec3e795cee9c8c76","computer","Desktop or Laptop","Chromium OS 14541.0.0","Chrome 118.0.0.0","1536x864","1536x695",NA,NA,0,"BIQ (Charlotte)",3,"GHFIEJDACB","Passed AC2",NA,"Spreadsheet1",1,"BIQ","Screen 1","9dh6eq",1,"response","7",19217.534,25229.275,25245.927,19217.534,25229.275,25245.927,1,19217.534,6028.393,0,NA,"Rating Scale","Rating Scale",10,"object-18","BIQ",NA,"SUPPRF54185"
"5",1699645730154,"10/11/2023 19:48:50",1699624130154,-6,"10/11/2023 07:48:50",151512,5,"task-gjqt",NA,32876206,9736283,NA,"complete",NA,"654e8774ec3e795cee9c8c76","computer","Desktop or Laptop","Chromium OS 14541.0.0","Chrome 118.0.0.0","1536x864","1536x695",NA,NA,0,"BIQ (Charlotte)",3,"GHFIEJDACB","Passed AC2",NA,"Spreadsheet1",1,"BIQ","Screen 1","9dh6eq",1,"response","1",23064.217,25229.275,25245.927,23064.217,25229.275,25245.927,1,23064.217,2181.71,0,NA,"Rating Scale","Rating Scale",17,"object-80","BIQ",NA,"SUPPRF54185"
"6",1699645750067,"10/11/2023 19:49:10",1699624150067,-6,"10/11/2023 07:49:10",151512,5,"task-gjqt",NA,32876206,9736283,NA,"complete",NA,"654e8774ec3e795cee9c8c76","computer","Desktop or Laptop","Chromium OS 14541.0.0","Chrome 118.0.0.0","1536x864","1536x695",NA,NA,0,"BIQ (Charlotte)",3,"GHFIEJDACB","Passed AC2",NA,"Spreadsheet1",1,"BIQ","Screen 2","o21mwi",2,"continue","",19957.247,19950.022,19957.247,19957.247,19950.022,19957.247,1,19957.247,0,0,NA,"Click To Continue","Continue Button",22,"object-50","BIQ",NA,"SUPPRF54185"
"7",1699645750078,"10/11/2023 19:49:10",1699624150078,-6,"10/11/2023 07:49:10",151512,5,"task-gjqt",NA,32876206,9736283,NA,"complete",NA,"654e8774ec3e795cee9c8c76","computer","Desktop or Laptop","Chromium OS 14541.0.0","Chrome 118.0.0.0","1536x864","1536x695",NA,NA,0,"BIQ (Charlotte)",3,"GHFIEJDACB","Passed AC2",NA,"Spreadsheet1",1,"BIQ","Screen 2","o21mwi",2,"response","8",3863.421,19950.022,19966.674,3863.421,19950.022,19966.674,1,3863.421,16103.253,0,NA,"Rating Scale","Rating Scale",2,"object-259","BIQ",NA,"SUPPRF54185"
"8",1699645750081,"10/11/2023 19:49:10",1699624150081,-6,"10/11/2023 07:49:10",151512,5,"task-gjqt",NA,32876206,9736283,NA,"complete",NA,"654e8774ec3e795cee9c8c76","computer","Desktop or Laptop","Chromium OS 14541.0.0","Chrome 118.0.0.0","1536x864","1536x695",NA,NA,0,"BIQ (Charlotte)",3,"GHFIEJDACB","Passed AC2",NA,"Spreadsheet1",1,"BIQ","Screen 2","o21mwi",2,"response","1",5212.414,19950.022,19966.674,5212.414,19950.022,19966.674,1,5212.414,14754.26,0,NA,"Rating Scale","Rating Scale",9,"object-36","BIQ",NA,"SUPPRF54185"
"9",1699645750083,"10/11/2023 19:49:10",1699624150083,-6,"10/11/2023 07:49:10",151512,5,"task-gjqt",NA,32876206,9736283,NA,"complete",NA,"654e8774ec3e795cee9c8c76","computer","Desktop or Laptop","Chromium OS 14541.0.0","Chrome 118.0.0.0","1536x864","1536x695",NA,NA,0,"BIQ (Charlotte)",3,"GHFIEJDACB","Passed AC2",NA,"Spreadsheet1",1,"BIQ","Screen 2","o21mwi",2,"response","0",13538.839,19950.022,19966.674,13538.839,19950.022,19966.674,1,13538.839,6427.83500000001,0,NA,"Rating Scale","Rating Scale",16,"object-86","BIQ",NA,"SUPPRF54185"
"10",1699645758509,"10/11/2023 19:49:18",1699624158509,-6,"10/11/2023 07:49:18",151512,5,"task-gjqt",NA,32876206,9736283,NA,"complete",NA,"654e8774ec3e795cee9c8c76","computer","Desktop or Laptop","Chromium OS 14541.0.0","Chrome 118.0.0.0","1536x864","1536x695",NA,NA,0,"BIQ (Charlotte)",3,"GHFIEJDACB","Passed AC2",NA,"Spreadsheet1",1,"BIQ","Screen 3","iz3the",3,"continue","",8449.52500000447,8443.128,8449.52500000447,8449.52500000447,8443.128,8449.52500000447,1,8449.52500000447,0,0,NA,"Click To Continue","Continue Button",22,"object-73","BIQ",NA,"SUPPRF54185"
"11",1699645758510,"10/11/2023 19:49:18",1699624158510,-6,"10/11/2023 07:49:18",151512,5,"task-gjqt",NA,32876206,9736283,NA,"complete",NA,"654e8774ec3e795cee9c8c76","computer","Desktop or Laptop","Chromium OS 14541.0.0","Chrome 118.0.0.0","1536x864","1536x695",NA,NA,0,"BIQ (Charlotte)",3,"GHFIEJDACB","Passed AC2",NA,"Spreadsheet1",1,"BIQ","Screen 3","iz3the",3,"response","0",2964.432,8443.128,8450.82500000149,2964.432,8443.128,8450.82500000149,1,2964.432,5486.39300000149,0,NA,"Rating Scale","Rating Scale",2,"object-53","BIQ",NA,"SUPPRF54185"
"12",1699645758512,"10/11/2023 19:49:18",1699624158512,-6,"10/11/2023 07:49:18",151512,5,"task-gjqt",NA,32876206,9736283,NA,"complete",NA,"654e8774ec3e795cee9c8c76","computer","Desktop or Laptop","Chromium OS 14541.0.0","Chrome 118.0.0.0","1536x864","1536x695",NA,NA,0,"BIQ (Charlotte)",3,"GHFIEJDACB","Passed AC2",NA,"Spreadsheet1",1,"BIQ","Screen 3","iz3the",3,"response","0",3464.129,8443.128,8452.12500000596,3464.129,8443.128,8452.12500000596,1,3464.129,4987.99600000596,0,NA,"Rating Scale","Rating Scale",9,"object-60","BIQ",NA,"SUPPRF54185"
"13",1699645758513,"10/11/2023 19:49:18",1699624158513,-6,"10/11/2023 07:49:18",151512,5,"task-gjqt",NA,32876206,9736283,NA,"complete",NA,"654e8774ec3e795cee9c8c76","computer","Desktop or Laptop","Chromium OS 14541.0.0","Chrome 118.0.0.0","1536x864","1536x695",NA,NA,0,"BIQ (Charlotte)",3,"GHFIEJDACB","Passed AC2",NA,"Spreadsheet1",1,"BIQ","Screen 3","iz3the",3,"response","0",3880.455,8443.128,8453.82500000149,3880.455,8443.128,8453.82500000149,1,3880.455,4573.37000000149,0,NA,"Rating Scale","Rating Scale",16,"object-67","BIQ",NA,"SUPPRF54185"
"14",1699645758526,"10/11/2023 19:49:18",1699624158526,-6,"10/11/2023 07:49:18",151512,5,"task-gjqt",NA,32876206,9736283,NA,"complete",NA,"654e8774ec3e795cee9c8c76","computer","Desktop or Laptop","Chromium OS 14541.0.0","Chrome 118.0.0.0","1536x864","1536x695",NA,NA,0,"BIQ (Charlotte)",3,"GHFIEJDACB","Passed AC2",NA,"Spreadsheet1",NA,"","","",NA,"5","END",NA,NA,NA,NA,NA,NA,0,NA,NA,NA,NA,"","",NA,"","",NA,"SUPPRF54185"
"1",1699645893024,"10/11/2023 19:51:33",1699645893024,0,"10/11/2023 19:51:33",151512,5,"task-gjqt",NA,32876297,9736304,NA,"complete",NA,"654e87b6c618dea49325448a","computer","Desktop or Laptop","Windows 10","Chrome 119.0.0.0","1536x864","1536x747",NA,NA,0,"BIQ (Charlotte)",3,"HIGJFAEBDC","Passed AC2",NA,"Spreadsheet1",NA,"","","",NA,"5","BEGIN",NA,NA,NA,NA,NA,NA,0,NA,NA,NA,NA,"","",NA,"","",NA,"SUPPRF14173"
"2",1699645925349,"10/11/2023 19:52:05",1699645925349,0,"10/11/2023 19:52:05",151512,5,"task-gjqt",NA,32876297,9736304,NA,"complete",NA,"654e87b6c618dea49325448a","computer","Desktop or Laptop","Windows 10","Chrome 119.0.0.0","1536x864","1536x747",NA,NA,0,"BIQ (Charlotte)",3,"HIGJFAEBDC","Passed AC2",NA,"Spreadsheet1",1,"BIQ","Screen 1","9dh6eq",1,"continue","",32347.823,32331.138,32347.823,32347.823,32331.138,32347.823,1,32347.823,0,0,NA,"Click To Continue","Continue Button",23,"object-48","BIQ",NA,"SUPPRF14173"
"3",1699645925352,"10/11/2023 19:52:05",1699645925352,0,"10/11/2023 19:52:05",151512,5,"task-gjqt",NA,32876297,9736304,NA,"complete",NA,"654e87b6c618dea49325448a","computer","Desktop or Laptop","Windows 10","Chrome 119.0.0.0","1536x864","1536x747",NA,NA,0,"BIQ (Charlotte)",3,"HIGJFAEBDC","Passed AC2",NA,"Spreadsheet1",1,"BIQ","Screen 1","9dh6eq",1,"response","6",7791.654,32331.138,32347.823,7791.654,32331.138,32347.823,1,7791.654,24556.169,0,NA,"Rating Scale","Rating Scale",3,"object-5","BIQ",NA,"SUPPRF14173"
"4",1699645925353,"10/11/2023 19:52:05",1699645925353,0,"10/11/2023 19:52:05",151512,5,"task-gjqt",NA,32876297,9736304,NA,"complete",NA,"654e87b6c618dea49325448a","computer","Desktop or Laptop","Windows 10","Chrome 119.0.0.0","1536x864","1536x747",NA,NA,0,"BIQ (Charlotte)",3,"HIGJFAEBDC","Passed AC2",NA,"Spreadsheet1",1,"BIQ","Screen 1","9dh6eq",1,"response","7",18496.478,32331.138,32347.823,18496.478,32331.138,32347.823,1,18496.478,13851.345,0,NA,"Rating Scale","Rating Scale",10,"object-18","BIQ",NA,"SUPPRF14173"
"5",1699645925354,"10/11/2023 19:52:05",1699645925354,0,"10/11/2023 19:52:05",151512,5,"task-gjqt",NA,32876297,9736304,NA,"complete",NA,"654e87b6c618dea49325448a","computer","Desktop or Laptop","Windows 10","Chrome 119.0.0.0","1536x864","1536x747",NA,NA,0,"BIQ (Charlotte)",3,"HIGJFAEBDC","Passed AC2",NA,"Spreadsheet1",1,"BIQ","Screen 1","9dh6eq",1,"response","1",27520.043,32331.138,32347.823,27520.043,32331.138,32347.823,1,27520.043,4827.78,0,NA,"Rating Scale","Rating Scale",17,"object-80","BIQ",NA,"SUPPRF14173"
"6",1699645967467,"10/11/2023 19:52:47",1699645967467,0,"10/11/2023 19:52:47",151512,5,"task-gjqt",NA,32876297,9736304,NA,"complete",NA,"654e87b6c618dea49325448a","computer","Desktop or Laptop","Windows 10","Chrome 119.0.0.0","1536x864","1536x747",NA,NA,0,"BIQ (Charlotte)",3,"HIGJFAEBDC","Passed AC2",NA,"Spreadsheet1",1,"BIQ","Screen 2","o21mwi",2,"continue","",42134.033000006,42120.563,42134.033000006,42134.033000006,42120.563,42134.033000006,1,42134.033000006,0,0,NA,"Click To Continue","Continue Button",22,"object-50","BIQ",NA,"SUPPRF14173"
"7",1699645967473,"10/11/2023 19:52:47",1699645967473,0,"10/11/2023 19:52:47",151512,5,"task-gjqt",NA,32876297,9736304,NA,"complete",NA,"654e87b6c618dea49325448a","computer","Desktop or Laptop","Windows 10","Chrome 119.0.0.0","1536x864","1536x747",NA,NA,0,"BIQ (Charlotte)",3,"HIGJFAEBDC","Passed AC2",NA,"Spreadsheet1",1,"BIQ","Screen 2","o21mwi",2,"response","7",4944.845,42120.563,42137.418,4944.845,42120.563,42137.418,1,4944.845,37192.573,0,NA,"Rating Scale","Rating Scale",2,"object-259","BIQ",NA,"SUPPRF14173"
"8",1699645967473,"10/11/2023 19:52:47",1699645967473,0,"10/11/2023 19:52:47",151512,5,"task-gjqt",NA,32876297,9736304,NA,"complete",NA,"654e87b6c618dea49325448a","computer","Desktop or Laptop","Windows 10","Chrome 119.0.0.0","1536x864","1536x747",NA,NA,0,"BIQ (Charlotte)",3,"HIGJFAEBDC","Passed AC2",NA,"Spreadsheet1",1,"BIQ","Screen 2","o21mwi",2,"response","2",14833.955,42120.563,42137.418,14833.955,42120.563,42137.418,1,14833.955,27303.463,0,NA,"Rating Scale","Rating Scale",9,"object-36","BIQ",NA,"SUPPRF14173"
"9",1699645967474,"10/11/2023 19:52:47",1699645967474,0,"10/11/2023 19:52:47",151512,5,"task-gjqt",NA,32876297,9736304,NA,"complete",NA,"654e87b6c618dea49325448a","computer","Desktop or Laptop","Windows 10","Chrome 119.0.0.0","1536x864","1536x747",NA,NA,0,"BIQ (Charlotte)",3,"HIGJFAEBDC","Passed AC2",NA,"Spreadsheet1",1,"BIQ","Screen 2","o21mwi",2,"response","4",40938.629,42120.563,42137.418,40938.629,42120.563,42137.418,1,40938.629,1198.78899999999,0,NA,"Rating Scale","Rating Scale",16,"object-86","BIQ",NA,"SUPPRF14173"
"10",1699645987840,"10/11/2023 19:53:07",1699645987840,0,"10/11/2023 19:53:07",151512,5,"task-gjqt",NA,32876297,9736304,NA,"complete",NA,"654e87b6c618dea49325448a","computer","Desktop or Laptop","Windows 10","Chrome 119.0.0.0","1536x864","1536x747",NA,NA,0,"BIQ (Charlotte)",3,"HIGJFAEBDC","Passed AC2",NA,"Spreadsheet1",1,"BIQ","Screen 3","iz3the",3,"continue","",20386.270000003,20377.611,20386.270000003,20386.270000003,20377.611,20386.270000003,1,20386.270000003,0,0,NA,"Click To Continue","Continue Button",22,"object-73","BIQ",NA,"SUPPRF14173"
"11",1699645987845,"10/11/2023 19:53:07",1699645987845,0,"10/11/2023 19:53:07",151512,5,"task-gjqt",NA,32876297,9736304,NA,"complete",NA,"654e87b6c618dea49325448a","computer","Desktop or Laptop","Windows 10","Chrome 119.0.0.0","1536x864","1536x747",NA,NA,0,"BIQ (Charlotte)",3,"HIGJFAEBDC","Passed AC2",NA,"Spreadsheet1",1,"BIQ","Screen 3","iz3the",3,"response","1",4311.99400000001,20377.611,20391.1700000089,4311.99400000001,20377.611,20391.1700000089,1,4311.99400000001,16079.1760000089,0,NA,"Rating Scale","Rating Scale",2,"object-53","BIQ",NA,"SUPPRF14173"
"12",1699645987845,"10/11/2023 19:53:07",1699645987845,0,"10/11/2023 19:53:07",151512,5,"task-gjqt",NA,32876297,9736304,NA,"complete",NA,"654e87b6c618dea49325448a","computer","Desktop or Laptop","Windows 10","Chrome 119.0.0.0","1536x864","1536x747",NA,NA,0,"BIQ (Charlotte)",3,"HIGJFAEBDC","Passed AC2",NA,"Spreadsheet1",1,"BIQ","Screen 3","iz3the",3,"response","1",10671.616,20377.611,20391.8700000119,10671.616,20377.611,20391.8700000119,1,10671.616,9720.25400001192,0,NA,"Rating Scale","Rating Scale",9,"object-60","BIQ",NA,"SUPPRF14173"
"13",1699645987846,"10/11/2023 19:53:07",1699645987846,0,"10/11/2023 19:53:07",151512,5,"task-gjqt",NA,32876297,9736304,NA,"complete",NA,"654e87b6c618dea49325448a","computer","Desktop or Laptop","Windows 10","Chrome 119.0.0.0","1536x864","1536x747",NA,NA,0,"BIQ (Charlotte)",3,"HIGJFAEBDC","Passed AC2",NA,"Spreadsheet1",1,"BIQ","Screen 3","iz3the",3,"response","3",16931.415,20377.611,20392.57,16931.415,20377.611,20392.57,1,16931.415,3461.155,0,NA,"Rating Scale","Rating Scale",16,"object-67","BIQ",NA,"SUPPRF14173"
"14",1699645987853,"10/11/2023 19:53:07",1699645987853,0,"10/11/2023 19:53:07",151512,5,"task-gjqt",NA,32876297,9736304,NA,"complete",NA,"654e87b6c618dea49325448a","computer","Desktop or Laptop","Windows 10","Chrome 119.0.0.0","1536x864","1536x747",NA,NA,0,"BIQ (Charlotte)",3,"HIGJFAEBDC","Passed AC2",NA,"Spreadsheet1",NA,"","","",NA,"5","END",NA,NA,NA,NA,NA,NA,0,NA,NA,NA,NA,"","",NA,"","",NA,"SUPPRF14173"
"1",1699647019131,"10/11/2023 20:10:19",1699647019131,0,"10/11/2023 20:10:19",151512,5,"task-gjqt",NA,32876878,9736323,NA,"complete",NA,"654e88e1e05e35d574cedefe","computer","Desktop or Laptop","Windows 10","Chrome 119.0.0.0","1164x655","1164x507",NA,NA,0,"BIQ (Charlotte)",3,"CDBEAFJGIH","Passed AC2",NA,"Spreadsheet1",NA,"","","",NA,"5","BEGIN",NA,NA,NA,NA,NA,NA,0,NA,NA,NA,NA,"","",NA,"","",NA,"SUPPRF70880"
"2",1699647034322,"10/11/2023 20:10:34",1699647034322,0,"10/11/2023 20:10:34",151512,5,"task-gjqt",NA,32876878,9736323,NA,"complete",NA,"654e88e1e05e35d574cedefe","computer","Desktop or Laptop","Windows 10","Chrome 119.0.0.0","1164x655","931x405",NA,NA,0,"BIQ (Charlotte)",3,"CDBEAFJGIH","Passed AC2",NA,"Spreadsheet1",1,"BIQ","Screen 1","9dh6eq",1,"continue","",15198.7529999993,15182.19,15198.7529999993,15198.7529999993,15182.19,15198.7529999993,1,15198.7529999993,0,0,NA,"Click To Continue","Continue Button",23,"object-48","BIQ",NA,"SUPPRF70880"
"3",1699647034324,"10/11/2023 20:10:34",1699647034324,0,"10/11/2023 20:10:34",151512,5,"task-gjqt",NA,32876878,9736323,NA,"complete",NA,"654e88e1e05e35d574cedefe","computer","Desktop or Laptop","Windows 10","Chrome 119.0.0.0","1164x655","931x405",NA,NA,0,"BIQ (Charlotte)",3,"CDBEAFJGIH","Passed AC2",NA,"Spreadsheet1",1,"BIQ","Screen 1","9dh6eq",1,"response","7",7891.376,15182.19,15198.874,7891.376,15182.19,15198.874,1,7891.376,7307.498,0,NA,"Rating Scale","Rating Scale",3,"object-5","BIQ",NA,"SUPPRF70880"
"4",1699647034324,"10/11/2023 20:10:34",1699647034324,0,"10/11/2023 20:10:34",151512,5,"task-gjqt",NA,32876878,9736323,NA,"complete",NA,"654e88e1e05e35d574cedefe","computer","Desktop or Laptop","Windows 10","Chrome 119.0.0.0","1164x655","931x405",NA,NA,0,"BIQ (Charlotte)",3,"CDBEAFJGIH","Passed AC2",NA,"Spreadsheet1",1,"BIQ","Screen 1","9dh6eq",1,"response","0",11044.607,15182.19,15198.874,11044.607,15182.19,15198.874,1,11044.607,4154.267,0,NA,"Rating Scale","Rating Scale",10,"object-18","BIQ",NA,"SUPPRF70880"
"5",1699647034325,"10/11/2023 20:10:34",1699647034325,0,"10/11/2023 20:10:34",151512,5,"task-gjqt",NA,32876878,9736323,NA,"complete",NA,"654e88e1e05e35d574cedefe","computer","Desktop or Laptop","Windows 10","Chrome 119.0.0.0","1164x655","931x405",NA,NA,0,"BIQ (Charlotte)",3,"CDBEAFJGIH","Passed AC2",NA,"Spreadsheet1",1,"BIQ","Screen 1","9dh6eq",1,"response","5",14381.365,15182.19,15198.874,14381.365,15182.19,15198.874,1,14381.365,817.509000000002,0,NA,"Rating Scale","Rating Scale",17,"object-80","BIQ",NA,"SUPPRF70880"
"6",1699647045607,"10/11/2023 20:10:45",1699647045607,0,"10/11/2023 20:10:45",151512,5,"task-gjqt",NA,32876878,9736323,NA,"complete",NA,"654e88e1e05e35d574cedefe","computer","Desktop or Laptop","Windows 10","Chrome 119.0.0.0","1164x655","931x405",NA,NA,0,"BIQ (Charlotte)",3,"CDBEAFJGIH","Passed AC2",NA,"Spreadsheet1",1,"BIQ","Screen 2","o21mwi",2,"continue","",11302.2629999985,11294.906,11302.2629999985,11302.2629999985,11294.906,11302.2629999985,1,11302.2629999985,0,0,NA,"Click To Continue","Continue Button",22,"object-50","BIQ",NA,"SUPPRF70880"
"7",1699647045609,"10/11/2023 20:10:45",1699647045609,0,"10/11/2023 20:10:45",151512,5,"task-gjqt",NA,32876878,9736323,NA,"complete",NA,"654e88e1e05e35d574cedefe","computer","Desktop or Laptop","Windows 10","Chrome 119.0.0.0","1164x655","931x405",NA,NA,0,"BIQ (Charlotte)",3,"CDBEAFJGIH","Passed AC2",NA,"Spreadsheet1",1,"BIQ","Screen 2","o21mwi",2,"response","0",5272.07,11294.906,11304.4629999978,5272.07,11294.906,11304.4629999978,1,5272.07,6032.39299999777,0,NA,"Rating Scale","Rating Scale",2,"object-259","BIQ",NA,"SUPPRF70880"
"8",1699647045609,"10/11/2023 20:10:45",1699647045609,0,"10/11/2023 20:10:45",151512,5,"task-gjqt",NA,32876878,9736323,NA,"complete",NA,"654e88e1e05e35d574cedefe","computer","Desktop or Laptop","Windows 10","Chrome 119.0.0.0","1164x655","931x405",NA,NA,0,"BIQ (Charlotte)",3,"CDBEAFJGIH","Passed AC2",NA,"Spreadsheet1",1,"BIQ","Screen 2","o21mwi",2,"response","2",7507.697,11294.906,11304.9629999978,7507.697,11294.906,11304.9629999978,1,7507.697,3797.26599999777,0,NA,"Rating Scale","Rating Scale",9,"object-36","BIQ",NA,"SUPPRF70880"
"9",1699647045610,"10/11/2023 20:10:45",1699647045610,0,"10/11/2023 20:10:45",151512,5,"task-gjqt",NA,32876878,9736323,NA,"complete",NA,"654e88e1e05e35d574cedefe","computer","Desktop or Laptop","Windows 10","Chrome 119.0.0.0","1164x655","931x405",NA,NA,0,"BIQ (Charlotte)",3,"CDBEAFJGIH","Passed AC2",NA,"Spreadsheet1",1,"BIQ","Screen 2","o21mwi",2,"response","8",10627.555,11294.906,11305.7629999985,10627.555,11294.906,11305.7629999985,1,10627.555,678.207999998511,0,NA,"Rating Scale","Rating Scale",16,"object-86","BIQ",NA,"SUPPRF70880"
"10",1699647053512,"10/11/2023 20:10:53",1699647053512,0,"10/11/2023 20:10:53",151512,5,"task-gjqt",NA,32876878,9736323,NA,"complete",NA,"654e88e1e05e35d574cedefe","computer","Desktop or Laptop","Windows 10","Chrome 119.0.0.0","1164x655","931x405",NA,NA,0,"BIQ (Charlotte)",3,"CDBEAFJGIH","Passed AC2",NA,"Spreadsheet1",1,"BIQ","Screen 3","iz3the",3,"continue","",7912.35699999851,7908.11,7912.35699999851,7912.35699999851,7908.11,7912.35699999851,1,7912.35699999851,0,0,NA,"Click To Continue","Continue Button",22,"object-73","BIQ",NA,"SUPPRF70880"
"11",1699647053513,"10/11/2023 20:10:53",1699647053513,0,"10/11/2023 20:10:53",151512,5,"task-gjqt",NA,32876878,9736323,NA,"complete",NA,"654e88e1e05e35d574cedefe","computer","Desktop or Laptop","Windows 10","Chrome 119.0.0.0","1164x655","931x405",NA,NA,0,"BIQ (Charlotte)",3,"CDBEAFJGIH","Passed AC2",NA,"Spreadsheet1",1,"BIQ","Screen 3","iz3the",3,"response","6",3870.662,7908.11,7913.15699999925,3870.662,7908.11,7913.15699999925,1,3870.662,4042.49499999925,0,NA,"Rating Scale","Rating Scale",2,"object-53","BIQ",NA,"SUPPRF70880"
"12",1699647053513,"10/11/2023 20:10:53",1699647053513,0,"10/11/2023 20:10:53",151512,5,"task-gjqt",NA,32876878,9736323,NA,"complete",NA,"654e88e1e05e35d574cedefe","computer","Desktop or Laptop","Windows 10","Chrome 119.0.0.0","1164x655","931x405",NA,NA,0,"BIQ (Charlotte)",3,"CDBEAFJGIH","Passed AC2",NA,"Spreadsheet1",1,"BIQ","Screen 3","iz3the",3,"response","8",5572.385,7908.11,7913.65699999925,5572.385,7908.11,7913.65699999925,1,5572.385,2341.27199999926,0,NA,"Rating Scale","Rating Scale",9,"object-60","BIQ",NA,"SUPPRF70880"
"13",1699647053514,"10/11/2023 20:10:53",1699647053514,0,"10/11/2023 20:10:53",151512,5,"task-gjqt",NA,32876878,9736323,NA,"complete",NA,"654e88e1e05e35d574cedefe","computer","Desktop or Laptop","Windows 10","Chrome 119.0.0.0","1164x655","931x405",NA,NA,0,"BIQ (Charlotte)",3,"CDBEAFJGIH","Passed AC2",NA,"Spreadsheet1",1,"BIQ","Screen 3","iz3the",3,"response","2",7340.861,7908.11,7914.15699999925,7340.861,7908.11,7914.15699999925,1,7340.861,573.295999999253,0,NA,"Rating Scale","Rating Scale",16,"object-67","BIQ",NA,"SUPPRF70880"
"14",1699647053519,"10/11/2023 20:10:53",1699647053519,0,"10/11/2023 20:10:53",151512,5,"task-gjqt",NA,32876878,9736323,NA,"complete",NA,"654e88e1e05e35d574cedefe","computer","Desktop or Laptop","Windows 10","Chrome 119.0.0.0","1164x655","931x405",NA,NA,0,"BIQ (Charlotte)",3,"CDBEAFJGIH","Passed AC2",NA,"Spreadsheet1",NA,"","","",NA,"5","END",NA,NA,NA,NA,NA,NA,0,NA,NA,NA,NA,"","",NA,"","",NA,"SUPPRF70880"
"1",1699647015692,"10/11/2023 20:10:15",1699629015692,-5,"10/11/2023 10:10:15",151512,5,"task-gjqt",NA,32876871,9736332,NA,"complete",NA,"654e88c2ded265c5d1c67475","computer","Desktop or Laptop","Mac OS 10.15.7","Chrome 117.0.0.0","1440x900","1440x721",NA,NA,0,"BIQ (Charlotte)",3,"JAIBHCGDFE","Passed AC2",NA,"Spreadsheet1",NA,"","","",NA,"5","BEGIN",NA,NA,NA,NA,NA,NA,0,NA,NA,NA,NA,"","",NA,"","",NA,"SUPPRF18662"
"2",1699647045123,"10/11/2023 20:10:45",1699629045123,-5,"10/11/2023 10:10:45",151512,5,"task-gjqt",NA,32876871,9736332,NA,"complete",NA,"654e88c2ded265c5d1c67475","computer","Desktop or Laptop","Mac OS 10.15.7","Chrome 117.0.0.0","1440x900","1440x721",NA,NA,0,"BIQ (Charlotte)",3,"JAIBHCGDFE","Passed AC2",NA,"Spreadsheet1",1,"BIQ","Screen 1","9dh6eq",1,"continue","",29438.158,29421.492,29438.158,29438.158,29421.492,29438.158,1,29438.158,0,0,NA,"Click To Continue","Continue Button",23,"object-48","BIQ",NA,"SUPPRF18662"
"3",1699647045126,"10/11/2023 20:10:45",1699629045126,-5,"10/11/2023 10:10:45",151512,5,"task-gjqt",NA,32876871,9736332,NA,"complete",NA,"654e88c2ded265c5d1c67475","computer","Desktop or Laptop","Mac OS 10.15.7","Chrome 117.0.0.0","1440x900","1440x721",NA,NA,0,"BIQ (Charlotte)",3,"JAIBHCGDFE","Passed AC2",NA,"Spreadsheet1",1,"BIQ","Screen 1","9dh6eq",1,"response","4",10719.963,29421.492,29438.158,10719.963,29421.492,29438.158,1,10719.963,18718.195,0,NA,"Rating Scale","Rating Scale",3,"object-5","BIQ",NA,"SUPPRF18662"
"4",1699647045127,"10/11/2023 20:10:45",1699629045127,-5,"10/11/2023 10:10:45",151512,5,"task-gjqt",NA,32876871,9736332,NA,"complete",NA,"654e88c2ded265c5d1c67475","computer","Desktop or Laptop","Mac OS 10.15.7","Chrome 117.0.0.0","1440x900","1440x721",NA,NA,0,"BIQ (Charlotte)",3,"JAIBHCGDFE","Passed AC2",NA,"Spreadsheet1",1,"BIQ","Screen 1","9dh6eq",1,"response","6",20065.643,29421.492,29438.158,20065.643,29421.492,29438.158,1,20065.643,9372.51499999999,0,NA,"Rating Scale","Rating Scale",10,"object-18","BIQ",NA,"SUPPRF18662"
"5",1699647045127,"10/11/2023 20:10:45",1699629045127,-5,"10/11/2023 10:10:45",151512,5,"task-gjqt",NA,32876871,9736332,NA,"complete",NA,"654e88c2ded265c5d1c67475","computer","Desktop or Laptop","Mac OS 10.15.7","Chrome 117.0.0.0","1440x900","1440x721",NA,NA,0,"BIQ (Charlotte)",3,"JAIBHCGDFE","Passed AC2",NA,"Spreadsheet1",1,"BIQ","Screen 1","9dh6eq",1,"response","2",23188.408,29421.492,29438.158,23188.408,29421.492,29438.158,1,23188.408,6249.74999999999,0,NA,"Rating Scale","Rating Scale",17,"object-80","BIQ",NA,"SUPPRF18662"
"6",1699647056127,"10/11/2023 20:10:56",1699629056127,-5,"10/11/2023 10:10:56",151512,5,"task-gjqt",NA,32876871,9736332,NA,"complete",NA,"654e88c2ded265c5d1c67475","computer","Desktop or Laptop","Mac OS 10.15.7","Chrome 117.0.0.0","1440x900","1440x721",NA,NA,0,"BIQ (Charlotte)",3,"JAIBHCGDFE","Passed AC2",NA,"Spreadsheet1",1,"BIQ","Screen 2","o21mwi",2,"continue","",11026.0460000238,11013.623,11026.0460000238,11026.0460000238,11013.623,11026.0460000238,1,11026.0460000238,0,0,NA,"Click To Continue","Continue Button",22,"object-50","BIQ",NA,"SUPPRF18662"
"7",1699647056134,"10/11/2023 20:10:56",1699629056134,-5,"10/11/2023 10:10:56",151512,5,"task-gjqt",NA,32876871,9736332,NA,"complete",NA,"654e88c2ded265c5d1c67475","computer","Desktop or Laptop","Mac OS 10.15.7","Chrome 117.0.0.0","1440x900","1440x721",NA,NA,0,"BIQ (Charlotte)",3,"JAIBHCGDFE","Passed AC2",NA,"Spreadsheet1",1,"BIQ","Screen 2","o21mwi",2,"response","8",3897.241,11013.623,11030.289,3897.241,11013.623,11030.289,1,3897.241,7133.04800000001,0,NA,"Rating Scale","Rating Scale",2,"object-259","BIQ",NA,"SUPPRF18662"
"8",1699647056135,"10/11/2023 20:10:56",1699629056135,-5,"10/11/2023 10:10:56",151512,5,"task-gjqt",NA,32876871,9736332,NA,"complete",NA,"654e88c2ded265c5d1c67475","computer","Desktop or Laptop","Mac OS 10.15.7","Chrome 117.0.0.0","1440x900","1440x721",NA,NA,0,"BIQ (Charlotte)",3,"JAIBHCGDFE","Passed AC2",NA,"Spreadsheet1",1,"BIQ","Screen 2","o21mwi",2,"response","0",5697.169,11013.623,11030.289,5697.169,11013.623,11030.289,1,5697.169,5333.12000000001,0,NA,"Rating Scale","Rating Scale",9,"object-36","BIQ",NA,"SUPPRF18662"
"9",1699647056136,"10/11/2023 20:10:56",1699629056136,-5,"10/11/2023 10:10:56",151512,5,"task-gjqt",NA,32876871,9736332,NA,"complete",NA,"654e88c2ded265c5d1c67475","computer","Desktop or Laptop","Mac OS 10.15.7","Chrome 117.0.0.0","1440x900","1440x721",NA,NA,0,"BIQ (Charlotte)",3,"JAIBHCGDFE","Passed AC2",NA,"Spreadsheet1",1,"BIQ","Screen 2","o21mwi",2,"response","0",9213.69500000001,11013.623,11030.289,9213.69500000001,11013.623,11030.289,1,9213.69500000001,1816.594,0,NA,"Rating Scale","Rating Scale",16,"object-86","BIQ",NA,"SUPPRF18662"
"10",1699647084716,"10/11/2023 20:11:24",1699629084716,-5,"10/11/2023 10:11:24",151512,5,"task-gjqt",NA,32876871,9736332,NA,"complete",NA,"654e88c2ded265c5d1c67475","computer","Desktop or Laptop","Mac OS 10.15.7","Chrome 117.0.0.0","1440x900","1440x721",NA,NA,0,"BIQ (Charlotte)",3,"JAIBHCGDFE","Passed AC2",NA,"Spreadsheet1",1,"BIQ","Screen 3","iz3the",3,"continue","",28603.1230000119,28590.461,28603.1230000119,28603.1230000119,28590.461,28603.1230000119,1,28603.1230000119,0,0,NA,"Click To Continue","Continue Button",22,"object-73","BIQ",NA,"SUPPRF18662"
"11",1699647084725,"10/11/2023 20:11:24",1699629084725,-5,"10/11/2023 10:11:24",151512,5,"task-gjqt",NA,32876871,9736332,NA,"complete",NA,"654e88c2ded265c5d1c67475","computer","Desktop or Laptop","Mac OS 10.15.7","Chrome 117.0.0.0","1440x900","1440x721",NA,NA,0,"BIQ (Charlotte)",3,"JAIBHCGDFE","Passed AC2",NA,"Spreadsheet1",1,"BIQ","Screen 3","iz3the",3,"response","0",21519.498,28590.461,28607.127,21519.498,28590.461,28607.127,1,21519.498,7087.62900000002,0,NA,"Rating Scale","Rating Scale",2,"object-53","BIQ",NA,"SUPPRF18662"
"12",1699647084726,"10/11/2023 20:11:24",1699629084726,-5,"10/11/2023 10:11:24",151512,5,"task-gjqt",NA,32876871,9736332,NA,"complete",NA,"654e88c2ded265c5d1c67475","computer","Desktop or Laptop","Mac OS 10.15.7","Chrome 117.0.0.0","1440x900","1440x721",NA,NA,0,"BIQ (Charlotte)",3,"JAIBHCGDFE","Passed AC2",NA,"Spreadsheet1",1,"BIQ","Screen 3","iz3the",3,"response","0",22507.371,28590.461,28607.127,22507.371,28590.461,28607.127,1,22507.371,6099.75600000002,0,NA,"Rating Scale","Rating Scale",9,"object-60","BIQ",NA,"SUPPRF18662"
"13",1699647084726,"10/11/2023 20:11:24",1699629084726,-5,"10/11/2023 10:11:24",151512,5,"task-gjqt",NA,32876871,9736332,NA,"complete",NA,"654e88c2ded265c5d1c67475","computer","Desktop or Laptop","Mac OS 10.15.7","Chrome 117.0.0.0","1440x900","1440x721",NA,NA,0,"BIQ (Charlotte)",3,"JAIBHCGDFE","Passed AC2",NA,"Spreadsheet1",1,"BIQ","Screen 3","iz3the",3,"response","2",26073.895,28590.461,28607.127,26073.895,28590.461,28607.127,1,26073.895,2533.23200000002,0,NA,"Rating Scale","Rating Scale",16,"object-67","BIQ",NA,"SUPPRF18662"
"14",1699647084734,"10/11/2023 20:11:24",1699629084734,-5,"10/11/2023 10:11:24",151512,5,"task-gjqt",NA,32876871,9736332,NA,"complete",NA,"654e88c2ded265c5d1c67475","computer","Desktop or Laptop","Mac OS 10.15.7","Chrome 117.0.0.0","1440x900","1440x721",NA,NA,0,"BIQ (Charlotte)",3,"JAIBHCGDFE","Passed AC2",NA,"Spreadsheet1",NA,"","","",NA,"5","END",NA,NA,NA,NA,NA,NA,0,NA,NA,NA,NA,"","",NA,"","",NA,"SUPPRF18662"
"1",1699647047131,"10/11/2023 20:10:47",1699618247131,-8,"10/11/2023 04:10:47",151512,5,"task-gjqt",NA,32876893,9736448,NA,"complete",NA,"654e8aebc909ed72997ee012","computer","Desktop or Laptop","Windows 10","Chrome 119.0.0.0","1366x768","1366x641",NA,NA,0,"BIQ (Charlotte)",3,"FGEHDICJBA","Passed AC2",NA,"Spreadsheet1",NA,"","","",NA,"5","BEGIN",NA,NA,NA,NA,NA,NA,0,NA,NA,NA,NA,"","",NA,"","",NA,"SUPPRF71639"
"2",1699647097211,"10/11/2023 20:11:37",1699618297211,-8,"10/11/2023 04:11:37",151512,5,"task-gjqt",NA,32876893,9736448,NA,"complete",NA,"654e8aebc909ed72997ee012","computer","Desktop or Laptop","Windows 10","Chrome 119.0.0.0","1366x768","1366x641",NA,NA,0,"BIQ (Charlotte)",3,"FGEHDICJBA","Passed AC2",NA,"Spreadsheet1",1,"BIQ","Screen 1","9dh6eq",1,"continue","",50122.848,50110.466,50122.848,50122.848,50110.466,50122.848,1,50122.848,0,0,NA,"Click To Continue","Continue Button",23,"object-48","BIQ",NA,"SUPPRF71639"
"3",1699647097216,"10/11/2023 20:11:37",1699618297216,-8,"10/11/2023 04:11:37",151512,5,"task-gjqt",NA,32876893,9736448,NA,"complete",NA,"654e8aebc909ed72997ee012","computer","Desktop or Laptop","Windows 10","Chrome 119.0.0.0","1366x768","1366x641",NA,NA,0,"BIQ (Charlotte)",3,"FGEHDICJBA","Passed AC2",NA,"Spreadsheet1",1,"BIQ","Screen 1","9dh6eq",1,"response","6",30952.607,50110.466,50127.098,30952.607,50110.466,50127.098,1,30952.607,19174.491,0,NA,"Rating Scale","Rating Scale",3,"object-5","BIQ",NA,"SUPPRF71639"
"4",1699647097217,"10/11/2023 20:11:37",1699618297217,-8,"10/11/2023 04:11:37",151512,5,"task-gjqt",NA,32876893,9736448,NA,"complete",NA,"654e8aebc909ed72997ee012","computer","Desktop or Laptop","Windows 10","Chrome 119.0.0.0","1366x768","1366x641",NA,NA,0,"BIQ (Charlotte)",3,"FGEHDICJBA","Passed AC2",NA,"Spreadsheet1",1,"BIQ","Screen 1","9dh6eq",1,"response","2",40081.794,50110.466,50127.098,40081.794,50110.466,50127.098,1,40081.794,10045.304,0,NA,"Rating Scale","Rating Scale",10,"object-18","BIQ",NA,"SUPPRF71639"
"5",1699647097218,"10/11/2023 20:11:37",1699618297218,-8,"10/11/2023 04:11:37",151512,5,"task-gjqt",NA,32876893,9736448,NA,"complete",NA,"654e8aebc909ed72997ee012","computer","Desktop or Laptop","Windows 10","Chrome 119.0.0.0","1366x768","1366x641",NA,NA,0,"BIQ (Charlotte)",3,"FGEHDICJBA","Passed AC2",NA,"Spreadsheet1",1,"BIQ","Screen 1","9dh6eq",1,"response","7",47311.865,50110.466,50127.098,47311.865,50110.466,50127.098,1,47311.865,2815.23300000001,0,NA,"Rating Scale","Rating Scale",17,"object-80","BIQ",NA,"SUPPRF71639"
"6",1699647126894,"10/11/2023 20:12:06",1699618326894,-8,"10/11/2023 04:12:06",151512,5,"task-gjqt",NA,32876893,9736448,NA,"complete",NA,"654e8aebc909ed72997ee012","computer","Desktop or Laptop","Windows 10","Chrome 119.0.0.0","1366x768","1366x641",NA,NA,0,"BIQ (Charlotte)",3,"FGEHDICJBA","Passed AC2",NA,"Spreadsheet1",1,"BIQ","Screen 2","o21mwi",2,"continue","",29696.2819996185,29686.668,29696.2819996185,29696.2819996185,29686.668,29696.2819996185,1,29696.2819996185,0,0,NA,"Click To Continue","Continue Button",22,"object-50","BIQ",NA,"SUPPRF71639"
"7",1699647126903,"10/11/2023 20:12:06",1699618326903,-8,"10/11/2023 04:12:06",151512,5,"task-gjqt",NA,32876893,9736448,NA,"complete",NA,"654e8aebc909ed72997ee012","computer","Desktop or Laptop","Windows 10","Chrome 119.0.0.0","1366x768","1366x641",NA,NA,0,"BIQ (Charlotte)",3,"FGEHDICJBA","Passed AC2",NA,"Spreadsheet1",1,"BIQ","Screen 2","o21mwi",2,"response","1",5814.086,29686.668,29703.306,5814.086,29686.668,29703.306,1,5814.086,23889.22,0,NA,"Rating Scale","Rating Scale",2,"object-259","BIQ",NA,"SUPPRF71639"
"8",1699647126905,"10/11/2023 20:12:06",1699618326905,-8,"10/11/2023 04:12:06",151512,5,"task-gjqt",NA,32876893,9736448,NA,"complete",NA,"654e8aebc909ed72997ee012","computer","Desktop or Laptop","Windows 10","Chrome 119.0.0.0","1366x768","1366x641",NA,NA,0,"BIQ (Charlotte)",3,"FGEHDICJBA","Passed AC2",NA,"Spreadsheet1",1,"BIQ","Screen 2","o21mwi",2,"response","6",18508.342,29686.668,29703.306,18508.342,29686.668,29703.306,1,18508.342,11194.964,0,NA,"Rating Scale","Rating Scale",9,"object-36","BIQ",NA,"SUPPRF71639"
"9",1699647126907,"10/11/2023 20:12:06",1699618326907,-8,"10/11/2023 04:12:06",151512,5,"task-gjqt",NA,32876893,9736448,NA,"complete",NA,"654e8aebc909ed72997ee012","computer","Desktop or Laptop","Windows 10","Chrome 119.0.0.0","1366x768","1366x641",NA,NA,0,"BIQ (Charlotte)",3,"FGEHDICJBA","Passed AC2",NA,"Spreadsheet1",1,"BIQ","Screen 2","o21mwi",2,"response","5",28970.374,29686.668,29703.306,28970.374,29686.668,29703.306,1,28970.374,732.931999999986,0,NA,"Rating Scale","Rating Scale",16,"object-86","BIQ",NA,"SUPPRF71639"
"10",1699647153253,"10/11/2023 20:12:33",1699618353253,-8,"10/11/2023 04:12:33",151512,5,"task-gjqt",NA,32876893,9736448,NA,"complete",NA,"654e8aebc909ed72997ee012","computer","Desktop or Laptop","Windows 10","Chrome 119.0.0.0","1366x768","1366x641",NA,NA,0,"BIQ (Charlotte)",3,"FGEHDICJBA","Passed AC2",NA,"Spreadsheet1",1,"BIQ","Screen 3","iz3the",3,"continue","",26368.3139999046,26354.7,26368.3139999046,26368.3139999046,26354.7,26368.3139999046,1,26368.3139999046,0,0,NA,"Click To Continue","Continue Button",22,"object-73","BIQ",NA,"SUPPRF71639"
"11",1699647153262,"10/11/2023 20:12:33",1699618353262,-8,"10/11/2023 04:12:33",151512,5,"task-gjqt",NA,32876893,9736448,NA,"complete",NA,"654e8aebc909ed72997ee012","computer","Desktop or Laptop","Windows 10","Chrome 119.0.0.0","1366x768","1366x641",NA,NA,0,"BIQ (Charlotte)",3,"FGEHDICJBA","Passed AC2",NA,"Spreadsheet1",1,"BIQ","Screen 3","iz3the",3,"response","8",6097.23400000001,26354.7,26371.298,6097.23400000001,26354.7,26371.298,1,6097.23400000001,20274.064,0,NA,"Rating Scale","Rating Scale",2,"object-53","BIQ",NA,"SUPPRF71639"
"12",1699647153264,"10/11/2023 20:12:33",1699618353264,-8,"10/11/2023 04:12:33",151512,5,"task-gjqt",NA,32876893,9736448,NA,"complete",NA,"654e8aebc909ed72997ee012","computer","Desktop or Laptop","Windows 10","Chrome 119.0.0.0","1366x768","1366x641",NA,NA,0,"BIQ (Charlotte)",3,"FGEHDICJBA","Passed AC2",NA,"Spreadsheet1",1,"BIQ","Screen 3","iz3the",3,"response","8",12510.992,26354.7,26371.298,12510.992,26354.7,26371.298,1,12510.992,13860.306,0,NA,"Rating Scale","Rating Scale",9,"object-60","BIQ",NA,"SUPPRF71639"
"13",1699647153266,"10/11/2023 20:12:33",1699618353266,-8,"10/11/2023 04:12:33",151512,5,"task-gjqt",NA,32876893,9736448,NA,"complete",NA,"654e8aebc909ed72997ee012","computer","Desktop or Laptop","Windows 10","Chrome 119.0.0.0","1366x768","1366x641",NA,NA,0,"BIQ (Charlotte)",3,"FGEHDICJBA","Passed AC2",NA,"Spreadsheet1",1,"BIQ","Screen 3","iz3the",3,"response","8",24905.34,26354.7,26371.298,24905.34,26354.7,26371.298,1,24905.34,1465.958,0,NA,"Rating Scale","Rating Scale",16,"object-67","BIQ",NA,"SUPPRF71639"
"14",1699647153277,"10/11/2023 20:12:33",1699618353277,-8,"10/11/2023 04:12:33",151512,5,"task-gjqt",NA,32876893,9736448,NA,"complete",NA,"654e8aebc909ed72997ee012","computer","Desktop or Laptop","Windows 10","Chrome 119.0.0.0","1366x768","1366x641",NA,NA,0,"BIQ (Charlotte)",3,"FGEHDICJBA","Passed AC2",NA,"Spreadsheet1",NA,"","","",NA,"5","END",NA,NA,NA,NA,NA,NA,0,NA,NA,NA,NA,"","",NA,"","",NA,"SUPPRF71639"
"1",1699646861729,"10/11/2023 20:07:41",1699628861729,-5,"10/11/2023 10:07:41",151512,5,"task-gjqt",NA,32876784,9736452,NA,"complete",NA,"654e8d398eacfdd3d39eabfc","computer","Desktop or Laptop","Windows 10","Chrome 119.0.0.0","1280x575","1280x573",NA,NA,0,"BIQ (Charlotte)",3,"EFDGCHBIAJ","Passed AC2",NA,"Spreadsheet1",NA,"","","",NA,"5","BEGIN",NA,NA,NA,NA,NA,NA,0,NA,NA,NA,NA,"","",NA,"","",NA,"SUPPRF56870"
"2",1699646877295,"10/11/2023 20:07:57",1699628877295,-5,"10/11/2023 10:07:57",151512,5,"task-gjqt",NA,32876784,9736452,NA,"complete",NA,"654e8d398eacfdd3d39eabfc","computer","Desktop or Laptop","Windows 10","Chrome 119.0.0.0","1280x575","1280x573",NA,NA,0,"BIQ (Charlotte)",3,"EFDGCHBIAJ","Passed AC2",NA,"Spreadsheet1",1,"BIQ","Screen 1","9dh6eq",1,"continue","",15584,15568,15584,15584,15568,15584,1,15584,0,0,NA,"Click To Continue","Continue Button",23,"object-48","BIQ",NA,"SUPPRF56870"
"3",1699646877296,"10/11/2023 20:07:57",1699628877296,-5,"10/11/2023 10:07:57",151512,5,"task-gjqt",NA,32876784,9736452,NA,"complete",NA,"654e8d398eacfdd3d39eabfc","computer","Desktop or Laptop","Windows 10","Chrome 119.0.0.0","1280x575","1280x573",NA,NA,0,"BIQ (Charlotte)",3,"EFDGCHBIAJ","Passed AC2",NA,"Spreadsheet1",1,"BIQ","Screen 1","9dh6eq",1,"response","7",3480,15568,15585,3480,15568,15585,1,3480,12105,0,NA,"Rating Scale","Rating Scale",3,"object-5","BIQ",NA,"SUPPRF56870"
"4",1699646877297,"10/11/2023 20:07:57",1699628877297,-5,"10/11/2023 10:07:57",151512,5,"task-gjqt",NA,32876784,9736452,NA,"complete",NA,"654e8d398eacfdd3d39eabfc","computer","Desktop or Laptop","Windows 10","Chrome 119.0.0.0","1280x575","1280x573",NA,NA,0,"BIQ (Charlotte)",3,"EFDGCHBIAJ","Passed AC2",NA,"Spreadsheet1",1,"BIQ","Screen 1","9dh6eq",1,"response","3",7282,15568,15585,7282,15568,15585,1,7282,8303,0,NA,"Rating Scale","Rating Scale",10,"object-18","BIQ",NA,"SUPPRF56870"
"5",1699646877297,"10/11/2023 20:07:57",1699628877297,-5,"10/11/2023 10:07:57",151512,5,"task-gjqt",NA,32876784,9736452,NA,"complete",NA,"654e8d398eacfdd3d39eabfc","computer","Desktop or Laptop","Windows 10","Chrome 119.0.0.0","1280x575","1280x573",NA,NA,0,"BIQ (Charlotte)",3,"EFDGCHBIAJ","Passed AC2",NA,"Spreadsheet1",1,"BIQ","Screen 1","9dh6eq",1,"response","2",13550,15568,15585,13550,15568,15585,1,13550,2035,0,NA,"Rating Scale","Rating Scale",17,"object-80","BIQ",NA,"SUPPRF56870"
"6",1699646890846,"10/11/2023 20:08:10",1699628890846,-5,"10/11/2023 10:08:10",151512,5,"task-gjqt",NA,32876784,9736452,NA,"complete",NA,"654e8d398eacfdd3d39eabfc","computer","Desktop or Laptop","Windows 10","Chrome 119.0.0.0","1280x575","1280x573",NA,NA,0,"BIQ (Charlotte)",3,"EFDGCHBIAJ","Passed AC2",NA,"Spreadsheet1",1,"BIQ","Screen 2","o21mwi",2,"continue","",13567,13555,13567,13567,13555,13567,1,13567,0,0,NA,"Click To Continue","Continue Button",22,"object-50","BIQ",NA,"SUPPRF56870"
"7",1699646890849,"10/11/2023 20:08:10",1699628890849,-5,"10/11/2023 10:08:10",151512,5,"task-gjqt",NA,32876784,9736452,NA,"complete",NA,"654e8d398eacfdd3d39eabfc","computer","Desktop or Laptop","Windows 10","Chrome 119.0.0.0","1280x575","1280x573",NA,NA,0,"BIQ (Charlotte)",3,"EFDGCHBIAJ","Passed AC2",NA,"Spreadsheet1",1,"BIQ","Screen 2","o21mwi",2,"response","7",3184,13555,13570,3184,13555,13570,1,3184,10386,0,NA,"Rating Scale","Rating Scale",2,"object-259","BIQ",NA,"SUPPRF56870"
"8",1699646890850,"10/11/2023 20:08:10",1699628890850,-5,"10/11/2023 10:08:10",151512,5,"task-gjqt",NA,32876784,9736452,NA,"complete",NA,"654e8d398eacfdd3d39eabfc","computer","Desktop or Laptop","Windows 10","Chrome 119.0.0.0","1280x575","1280x573",NA,NA,0,"BIQ (Charlotte)",3,"EFDGCHBIAJ","Passed AC2",NA,"Spreadsheet1",1,"BIQ","Screen 2","o21mwi",2,"response","2",5602,13555,13570,5602,13555,13570,1,5602,7968,0,NA,"Rating Scale","Rating Scale",9,"object-36","BIQ",NA,"SUPPRF56870"
"9",1699646890850,"10/11/2023 20:08:10",1699628890850,-5,"10/11/2023 10:08:10",151512,5,"task-gjqt",NA,32876784,9736452,NA,"complete",NA,"654e8d398eacfdd3d39eabfc","computer","Desktop or Laptop","Windows 10","Chrome 119.0.0.0","1280x575","1280x573",NA,NA,0,"BIQ (Charlotte)",3,"EFDGCHBIAJ","Passed AC2",NA,"Spreadsheet1",1,"BIQ","Screen 2","o21mwi",2,"response","0",8386,13555,13570,8386,13555,13570,1,8386,5184,0,NA,"Rating Scale","Rating Scale",16,"object-86","BIQ",NA,"SUPPRF56870"
"10",1699646899699,"10/11/2023 20:08:19",1699628899699,-5,"10/11/2023 10:08:19",151512,5,"task-gjqt",NA,32876784,9736452,NA,"complete",NA,"654e8d398eacfdd3d39eabfc","computer","Desktop or Laptop","Windows 10","Chrome 119.0.0.0","1280x575","1280x573",NA,NA,0,"BIQ (Charlotte)",3,"EFDGCHBIAJ","Passed AC2",NA,"Spreadsheet1",1,"BIQ","Screen 3","iz3the",3,"continue","",8864,8854,8864,8864,8854,8864,1,8864,0,0,NA,"Click To Continue","Continue Button",22,"object-73","BIQ",NA,"SUPPRF56870"
"11",1699646899699,"10/11/2023 20:08:19",1699628899699,-5,"10/11/2023 10:08:19",151512,5,"task-gjqt",NA,32876784,9736452,NA,"complete",NA,"654e8d398eacfdd3d39eabfc","computer","Desktop or Laptop","Windows 10","Chrome 119.0.0.0","1280x575","1280x573",NA,NA,0,"BIQ (Charlotte)",3,"EFDGCHBIAJ","Passed AC2",NA,"Spreadsheet1",1,"BIQ","Screen 3","iz3the",3,"response","0",2768,8854,8865,2768,8854,8865,1,2768,6097,0,NA,"Rating Scale","Rating Scale",2,"object-53","BIQ",NA,"SUPPRF56870"
"12",1699646899700,"10/11/2023 20:08:19",1699628899700,-5,"10/11/2023 10:08:19",151512,5,"task-gjqt",NA,32876784,9736452,NA,"complete",NA,"654e8d398eacfdd3d39eabfc","computer","Desktop or Laptop","Windows 10","Chrome 119.0.0.0","1280x575","1280x573",NA,NA,0,"BIQ (Charlotte)",3,"EFDGCHBIAJ","Passed AC2",NA,"Spreadsheet1",1,"BIQ","Screen 3","iz3the",3,"response","1",6053,8854,8866,6053,8854,8866,1,6053,2813,0,NA,"Rating Scale","Rating Scale",9,"object-60","BIQ",NA,"SUPPRF56870"
"13",1699646899701,"10/11/2023 20:08:19",1699628899701,-5,"10/11/2023 10:08:19",151512,5,"task-gjqt",NA,32876784,9736452,NA,"complete",NA,"654e8d398eacfdd3d39eabfc","computer","Desktop or Laptop","Windows 10","Chrome 119.0.0.0","1280x575","1280x573",NA,NA,0,"BIQ (Charlotte)",3,"EFDGCHBIAJ","Passed AC2",NA,"Spreadsheet1",1,"BIQ","Screen 3","iz3the",3,"response","5",7970,8854,8867,7970,8854,8867,1,7970,897,0,NA,"Rating Scale","Rating Scale",16,"object-67","BIQ",NA,"SUPPRF56870"
"14",1699646899708,"10/11/2023 20:08:19",1699628899708,-5,"10/11/2023 10:08:19",151512,5,"task-gjqt",NA,32876784,9736452,NA,"complete",NA,"654e8d398eacfdd3d39eabfc","computer","Desktop or Laptop","Windows 10","Chrome 119.0.0.0","1280x575","1280x573",NA,NA,0,"BIQ (Charlotte)",3,"EFDGCHBIAJ","Passed AC2",NA,"Spreadsheet1",NA,"","","",NA,"5","END",NA,NA,NA,NA,NA,NA,0,NA,NA,NA,NA,"","",NA,"","",NA,"SUPPRF56870"
"1",1699647950969,"10/11/2023 20:25:50",1699647950969,0,"10/11/2023 20:25:50",151512,5,"task-gjqt",NA,32877306,9736517,NA,"complete",NA,"654e8ea629c9163bda2b2c90","computer","Desktop or Laptop","Windows 10","Chrome 119.0.0.0","1280x720","1280x595",NA,NA,0,"BIQ (Charlotte)",3,"GHFIEJDACB","Passed AC2",NA,"Spreadsheet1",NA,"","","",NA,"5","BEGIN",NA,NA,NA,NA,NA,NA,0,NA,NA,NA,NA,"","",NA,"","",NA,"SUPPRF12592"
"2",1699647992233,"10/11/2023 20:26:32",1699647992233,0,"10/11/2023 20:26:32",151512,5,"task-gjqt",NA,32877306,9736517,NA,"complete",NA,"654e8ea629c9163bda2b2c90","computer","Desktop or Laptop","Windows 10","Chrome 119.0.0.0","1280x720","1280x595",NA,NA,0,"BIQ (Charlotte)",3,"GHFIEJDACB","Passed AC2",NA,"Spreadsheet1",1,"BIQ","Screen 1","9dh6eq",1,"continue","",41306.2110000015,41294.701,41306.2110000015,41306.2110000015,41294.701,41306.2110000015,1,41306.2110000015,0,0,NA,"Click To Continue","Continue Button",23,"object-48","BIQ",NA,"SUPPRF12592"
"3",1699647992238,"10/11/2023 20:26:32",1699647992238,0,"10/11/2023 20:26:32",151512,5,"task-gjqt",NA,32877306,9736517,NA,"complete",NA,"654e8ea629c9163bda2b2c90","computer","Desktop or Laptop","Windows 10","Chrome 119.0.0.0","1280x720","1280x595",NA,NA,0,"BIQ (Charlotte)",3,"GHFIEJDACB","Passed AC2",NA,"Spreadsheet1",1,"BIQ","Screen 1","9dh6eq",1,"response","6",21930.513,41294.701,41311.275,21930.513,41294.701,41311.275,1,21930.513,19380.762,0,NA,"Rating Scale","Rating Scale",3,"object-5","BIQ",NA,"SUPPRF12592"
"4",1699647992239,"10/11/2023 20:26:32",1699647992239,0,"10/11/2023 20:26:32",151512,5,"task-gjqt",NA,32877306,9736517,NA,"complete",NA,"654e8ea629c9163bda2b2c90","computer","Desktop or Laptop","Windows 10","Chrome 119.0.0.0","1280x720","1280x595",NA,NA,0,"BIQ (Charlotte)",3,"GHFIEJDACB","Passed AC2",NA,"Spreadsheet1",1,"BIQ","Screen 1","9dh6eq",1,"response","7",33329.131,41294.701,41311.275,33329.131,41294.701,41311.275,1,33329.131,7982.14399999999,0,NA,"Rating Scale","Rating Scale",10,"object-18","BIQ",NA,"SUPPRF12592"
"5",1699647992240,"10/11/2023 20:26:32",1699647992240,0,"10/11/2023 20:26:32",151512,5,"task-gjqt",NA,32877306,9736517,NA,"complete",NA,"654e8ea629c9163bda2b2c90","computer","Desktop or Laptop","Windows 10","Chrome 119.0.0.0","1280x720","1280x595",NA,NA,0,"BIQ (Charlotte)",3,"GHFIEJDACB","Passed AC2",NA,"Spreadsheet1",1,"BIQ","Screen 1","9dh6eq",1,"response","0",40111.766,41294.701,41311.275,40111.766,41294.701,41311.275,1,40111.766,1199.50899999999,0,NA,"Rating Scale","Rating Scale",17,"object-80","BIQ",NA,"SUPPRF12592"
"6",1699648065033,"10/11/2023 20:27:45",1699648065033,0,"10/11/2023 20:27:45",151512,5,"task-gjqt",NA,32877306,9736517,NA,"complete",NA,"654e8ea629c9163bda2b2c90","computer","Desktop or Laptop","Windows 10","Chrome 119.0.0.0","1280x720","1280x595",NA,NA,0,"BIQ (Charlotte)",3,"GHFIEJDACB","Passed AC2",NA,"Spreadsheet1",1,"BIQ","Screen 2","o21mwi",2,"continue","",72813.91,72807.523,72813.91,72813.91,72807.523,72813.91,1,72813.91,0,0,NA,"Click To Continue","Continue Button",22,"object-50","BIQ",NA,"SUPPRF12592"
"7",1699648065038,"10/11/2023 20:27:45",1699648065038,0,"10/11/2023 20:27:45",151512,5,"task-gjqt",NA,32877306,9736517,NA,"complete",NA,"654e8ea629c9163bda2b2c90","computer","Desktop or Laptop","Windows 10","Chrome 119.0.0.0","1280x720","1280x595",NA,NA,0,"BIQ (Charlotte)",3,"GHFIEJDACB","Passed AC2",NA,"Spreadsheet1",1,"BIQ","Screen 2","o21mwi",2,"response","8",60092.287,72807.523,72819.7100000007,60092.287,72807.523,72819.7100000007,1,60092.287,12727.4230000008,0,NA,"Rating Scale","Rating Scale",2,"object-259","BIQ",NA,"SUPPRF12592"
"8",1699648065040,"10/11/2023 20:27:45",1699648065040,0,"10/11/2023 20:27:45",151512,5,"task-gjqt",NA,32877306,9736517,NA,"complete",NA,"654e8ea629c9163bda2b2c90","computer","Desktop or Laptop","Windows 10","Chrome 119.0.0.0","1280x720","1280x595",NA,NA,0,"BIQ (Charlotte)",3,"GHFIEJDACB","Passed AC2",NA,"Spreadsheet1",1,"BIQ","Screen 2","o21mwi",2,"response","0",64708.599,72807.523,72821.0100000015,64708.599,72807.523,72821.0100000015,1,64708.599,8112.41100000149,0,NA,"Rating Scale","Rating Scale",9,"object-36","BIQ",NA,"SUPPRF12592"
"9",1699648065041,"10/11/2023 20:27:45",1699648065041,0,"10/11/2023 20:27:45",151512,5,"task-gjqt",NA,32877306,9736517,NA,"complete",NA,"654e8ea629c9163bda2b2c90","computer","Desktop or Laptop","Windows 10","Chrome 119.0.0.0","1280x720","1280x595",NA,NA,0,"BIQ (Charlotte)",3,"GHFIEJDACB","Passed AC2",NA,"Spreadsheet1",1,"BIQ","Screen 2","o21mwi",2,"response","0",71657.414,72807.523,72822.0100000015,71657.414,72807.523,72822.0100000015,1,71657.414,1164.59600000149,0,NA,"Rating Scale","Rating Scale",16,"object-86","BIQ",NA,"SUPPRF12592"
"10",1699648074674,"10/11/2023 20:27:54",1699648074674,0,"10/11/2023 20:27:54",151512,5,"task-gjqt",NA,32877306,9736517,NA,"complete",NA,"654e8ea629c9163bda2b2c90","computer","Desktop or Laptop","Windows 10","Chrome 119.0.0.0","1280x720","1280x595",NA,NA,0,"BIQ (Charlotte)",3,"GHFIEJDACB","Passed AC2",NA,"Spreadsheet1",1,"BIQ","Screen 3","iz3the",3,"continue","",9647.78700000224,9632.144,9647.78700000224,9647.78700000224,9632.144,9647.78700000224,1,9647.78700000224,0,0,NA,"Click To Continue","Continue Button",22,"object-73","BIQ",NA,"SUPPRF12592"
"11",1699648074676,"10/11/2023 20:27:54",1699648074676,0,"10/11/2023 20:27:54",151512,5,"task-gjqt",NA,32877306,9736517,NA,"complete",NA,"654e8ea629c9163bda2b2c90","computer","Desktop or Laptop","Windows 10","Chrome 119.0.0.0","1280x720","1280x595",NA,NA,0,"BIQ (Charlotte)",3,"GHFIEJDACB","Passed AC2",NA,"Spreadsheet1",1,"BIQ","Screen 3","iz3the",3,"response","0",5299.152,9632.144,9649.023,5299.152,9632.144,9649.023,1,5299.152,4349.871,0,NA,"Rating Scale","Rating Scale",2,"object-53","BIQ",NA,"SUPPRF12592"
"12",1699648074677,"10/11/2023 20:27:54",1699648074677,0,"10/11/2023 20:27:54",151512,5,"task-gjqt",NA,32877306,9736517,NA,"complete",NA,"654e8ea629c9163bda2b2c90","computer","Desktop or Laptop","Windows 10","Chrome 119.0.0.0","1280x720","1280x595",NA,NA,0,"BIQ (Charlotte)",3,"GHFIEJDACB","Passed AC2",NA,"Spreadsheet1",1,"BIQ","Screen 3","iz3the",3,"response","0",6515.644,9632.144,9649.023,6515.644,9632.144,9649.023,1,6515.644,3133.379,0,NA,"Rating Scale","Rating Scale",9,"object-60","BIQ",NA,"SUPPRF12592"
"13",1699648074678,"10/11/2023 20:27:54",1699648074678,0,"10/11/2023 20:27:54",151512,5,"task-gjqt",NA,32877306,9736517,NA,"complete",NA,"654e8ea629c9163bda2b2c90","computer","Desktop or Laptop","Windows 10","Chrome 119.0.0.0","1280x720","1280x595",NA,NA,0,"BIQ (Charlotte)",3,"GHFIEJDACB","Passed AC2",NA,"Spreadsheet1",1,"BIQ","Screen 3","iz3the",3,"response","4",8715.287,9632.144,9649.023,8715.287,9632.144,9649.023,1,8715.287,933.736000000004,0,NA,"Rating Scale","Rating Scale",16,"object-67","BIQ",NA,"SUPPRF12592"
"14",1699648074691,"10/11/2023 20:27:54",1699648074691,0,"10/11/2023 20:27:54",151512,5,"task-gjqt",NA,32877306,9736517,NA,"complete",NA,"654e8ea629c9163bda2b2c90","computer","Desktop or Laptop","Windows 10","Chrome 119.0.0.0","1280x720","1280x595",NA,NA,0,"BIQ (Charlotte)",3,"GHFIEJDACB","Passed AC2",NA,"Spreadsheet1",NA,"","","",NA,"5","END",NA,NA,NA,NA,NA,NA,0,NA,NA,NA,NA,"","",NA,"","",NA,"SUPPRF12592"
"1",1699648397923,"10/11/2023 20:33:17",1699630397923,-5,"10/11/2023 10:33:17",151512,5,"task-gjqt",NA,32877526,9736544,NA,"complete",NA,"654e91b16820a1510682b4e1","computer","Desktop or Laptop","Mac OS 10.15.7","Chrome 115.0.0.0","1440x900","1440x815",NA,NA,0,"BIQ (Charlotte)",3,"HIGJFAEBDC","Passed AC2",NA,"Spreadsheet1",NA,"","","",NA,"5","BEGIN",NA,NA,NA,NA,NA,NA,0,NA,NA,NA,NA,"","",NA,"","",NA,"SUPPRF17225"
"2",1699648439542,"10/11/2023 20:33:59",1699630439542,-5,"10/11/2023 10:33:59",151512,5,"task-gjqt",NA,32877526,9736544,NA,"complete",NA,"654e91b16820a1510682b4e1","computer","Desktop or Laptop","Mac OS 10.15.7","Chrome 115.0.0.0","1440x900","1440x815",NA,NA,0,"BIQ (Charlotte)",3,"HIGJFAEBDC","Passed AC2",NA,"Spreadsheet1",1,"BIQ","Screen 1","9dh6eq",1,"continue","",41636.662,41619.995,41636.662,41636.662,41619.995,41636.662,1,41636.662,0,0,NA,"Click To Continue","Continue Button",23,"object-48","BIQ",NA,"SUPPRF17225"
"3",1699648439545,"10/11/2023 20:33:59",1699630439545,-5,"10/11/2023 10:33:59",151512,5,"task-gjqt",NA,32877526,9736544,NA,"complete",NA,"654e91b16820a1510682b4e1","computer","Desktop or Laptop","Mac OS 10.15.7","Chrome 115.0.0.0","1440x900","1440x815",NA,NA,0,"BIQ (Charlotte)",3,"HIGJFAEBDC","Passed AC2",NA,"Spreadsheet1",1,"BIQ","Screen 1","9dh6eq",1,"response","6",27552.094,41619.995,41636.662,27552.094,41619.995,41636.662,1,27552.094,14084.568,0,NA,"Rating Scale","Rating Scale",3,"object-5","BIQ",NA,"SUPPRF17225"
"4",1699648439545,"10/11/2023 20:33:59",1699630439545,-5,"10/11/2023 10:33:59",151512,5,"task-gjqt",NA,32877526,9736544,NA,"complete",NA,"654e91b16820a1510682b4e1","computer","Desktop or Laptop","Mac OS 10.15.7","Chrome 115.0.0.0","1440x900","1440x815",NA,NA,0,"BIQ (Charlotte)",3,"HIGJFAEBDC","Passed AC2",NA,"Spreadsheet1",1,"BIQ","Screen 1","9dh6eq",1,"response","5",32219.347,41619.995,41636.662,32219.347,41619.995,41636.662,1,32219.347,9417.31499999999,0,NA,"Rating Scale","Rating Scale",10,"object-18","BIQ",NA,"SUPPRF17225"
"5",1699648439546,"10/11/2023 20:33:59",1699630439546,-5,"10/11/2023 10:33:59",151512,5,"task-gjqt",NA,32877526,9736544,NA,"complete",NA,"654e91b16820a1510682b4e1","computer","Desktop or Laptop","Mac OS 10.15.7","Chrome 115.0.0.0","1440x900","1440x815",NA,NA,0,"BIQ (Charlotte)",3,"HIGJFAEBDC","Passed AC2",NA,"Spreadsheet1",1,"BIQ","Screen 1","9dh6eq",1,"response","7",37402.784,41619.995,41636.662,37402.784,41619.995,41636.662,1,37402.784,4233.87799999999,0,NA,"Rating Scale","Rating Scale",17,"object-80","BIQ",NA,"SUPPRF17225"
"6",1699648483150,"10/11/2023 20:34:43",1699630483150,-5,"10/11/2023 10:34:43",151512,5,"task-gjqt",NA,32877526,9736544,NA,"complete",NA,"654e91b16820a1510682b4e1","computer","Desktop or Laptop","Mac OS 10.15.7","Chrome 115.0.0.0","1440x900","1440x815",NA,NA,0,"BIQ (Charlotte)",3,"HIGJFAEBDC","Passed AC2",NA,"Spreadsheet1",1,"BIQ","Screen 2","o21mwi",2,"continue","",43627.2199999642,43619.505,43627.2199999642,43627.2199999642,43619.505,43627.2199999642,1,43627.2199999642,0,0,NA,"Click To Continue","Continue Button",22,"object-50","BIQ",NA,"SUPPRF17225"
"7",1699648483153,"10/11/2023 20:34:43",1699630483153,-5,"10/11/2023 10:34:43",151512,5,"task-gjqt",NA,32877526,9736544,NA,"complete",NA,"654e91b16820a1510682b4e1","computer","Desktop or Laptop","Mac OS 10.15.7","Chrome 115.0.0.0","1440x900","1440x815",NA,NA,0,"BIQ (Charlotte)",3,"HIGJFAEBDC","Passed AC2",NA,"Spreadsheet1",1,"BIQ","Screen 2","o21mwi",2,"response","7",7183.47700000001,43619.505,43630.62,7183.47700000001,43619.505,43630.62,1,7183.47700000001,36447.143,0,NA,"Rating Scale","Rating Scale",2,"object-259","BIQ",NA,"SUPPRF17225"
"8",1699648483154,"10/11/2023 20:34:43",1699630483154,-5,"10/11/2023 10:34:43",151512,5,"task-gjqt",NA,32877526,9736544,NA,"complete",NA,"654e91b16820a1510682b4e1","computer","Desktop or Laptop","Mac OS 10.15.7","Chrome 115.0.0.0","1440x900","1440x815",NA,NA,0,"BIQ (Charlotte)",3,"HIGJFAEBDC","Passed AC2",NA,"Spreadsheet1",1,"BIQ","Screen 2","o21mwi",2,"response","2",13800.768,43619.505,43631.2199999642,13800.768,43619.505,43631.2199999642,1,13800.768,29830.4519999642,0,NA,"Rating Scale","Rating Scale",9,"object-36","BIQ",NA,"SUPPRF17225"
"9",1699648483154,"10/11/2023 20:34:43",1699630483154,-5,"10/11/2023 10:34:43",151512,5,"task-gjqt",NA,32877526,9736544,NA,"complete",NA,"654e91b16820a1510682b4e1","computer","Desktop or Laptop","Mac OS 10.15.7","Chrome 115.0.0.0","1440x900","1440x815",NA,NA,0,"BIQ (Charlotte)",3,"HIGJFAEBDC","Passed AC2",NA,"Spreadsheet1",1,"BIQ","Screen 2","o21mwi",2,"response","6",42219.477,43619.505,43632.0199999762,42219.477,43619.505,43632.0199999762,1,42219.477,1412.54299997615,0,NA,"Rating Scale","Rating Scale",16,"object-86","BIQ",NA,"SUPPRF17225"
"10",1699648505895,"10/11/2023 20:35:05",1699630505895,-5,"10/11/2023 10:35:05",151512,5,"task-gjqt",NA,32877526,9736544,NA,"complete",NA,"654e91b16820a1510682b4e1","computer","Desktop or Laptop","Mac OS 10.15.7","Chrome 115.0.0.0","1440x900","1440x815",NA,NA,0,"BIQ (Charlotte)",3,"HIGJFAEBDC","Passed AC2",NA,"Spreadsheet1",1,"BIQ","Screen 3","iz3the",3,"continue","",22751.468,22734.801,22751.468,22751.468,22734.801,22751.468,1,22751.468,0,0,NA,"Click To Continue","Continue Button",22,"object-73","BIQ",NA,"SUPPRF17225"
"11",1699648505898,"10/11/2023 20:35:05",1699630505898,-5,"10/11/2023 10:35:05",151512,5,"task-gjqt",NA,32877526,9736544,NA,"complete",NA,"654e91b16820a1510682b4e1","computer","Desktop or Laptop","Mac OS 10.15.7","Chrome 115.0.0.0","1440x900","1440x815",NA,NA,0,"BIQ (Charlotte)",3,"HIGJFAEBDC","Passed AC2",NA,"Spreadsheet1",1,"BIQ","Screen 3","iz3the",3,"response","0",12184.102,22734.801,22751.468,12184.102,22734.801,22751.468,1,12184.102,10567.366,0,NA,"Rating Scale","Rating Scale",2,"object-53","BIQ",NA,"SUPPRF17225"
"12",1699648505899,"10/11/2023 20:35:05",1699630505899,-5,"10/11/2023 10:35:05",151512,5,"task-gjqt",NA,32877526,9736544,NA,"complete",NA,"654e91b16820a1510682b4e1","computer","Desktop or Laptop","Mac OS 10.15.7","Chrome 115.0.0.0","1440x900","1440x815",NA,NA,0,"BIQ (Charlotte)",3,"HIGJFAEBDC","Passed AC2",NA,"Spreadsheet1",1,"BIQ","Screen 3","iz3the",3,"response","0",18518.05,22734.801,22751.468,18518.05,22734.801,22751.468,1,18518.05,4233.41800000001,0,NA,"Rating Scale","Rating Scale",9,"object-60","BIQ",NA,"SUPPRF17225"
"13",1699648505899,"10/11/2023 20:35:05",1699630505899,-5,"10/11/2023 10:35:05",151512,5,"task-gjqt",NA,32877526,9736544,NA,"complete",NA,"654e91b16820a1510682b4e1","computer","Desktop or Laptop","Mac OS 10.15.7","Chrome 115.0.0.0","1440x900","1440x815",NA,NA,0,"BIQ (Charlotte)",3,"HIGJFAEBDC","Passed AC2",NA,"Spreadsheet1",1,"BIQ","Screen 3","iz3the",3,"response","0",21034.767,22734.801,22751.468,21034.767,22734.801,22751.468,1,21034.767,1716.701,0,NA,"Rating Scale","Rating Scale",16,"object-67","BIQ",NA,"SUPPRF17225"
"14",1699648505904,"10/11/2023 20:35:05",1699630505904,-5,"10/11/2023 10:35:05",151512,5,"task-gjqt",NA,32877526,9736544,NA,"complete",NA,"654e91b16820a1510682b4e1","computer","Desktop or Laptop","Mac OS 10.15.7","Chrome 115.0.0.0","1440x900","1440x815",NA,NA,0,"BIQ (Charlotte)",3,"HIGJFAEBDC","Passed AC2",NA,"Spreadsheet1",NA,"","","",NA,"5","END",NA,NA,NA,NA,NA,NA,0,NA,NA,NA,NA,"","",NA,"","",NA,"SUPPRF17225"
"1",1699648916708,"10/11/2023 20:41:56",1699627316708,-6,"10/11/2023 08:41:56",151512,5,"task-gjqt",NA,32877772,9736585,NA,"complete",NA,"654e93e48c82e7ef2c94ad9e","computer","Desktop or Laptop","Mac OS 10.15.7","Chrome 119.0.0.0","1470x956","1470x749",NA,NA,0,"BIQ (Charlotte)",3,"ABJCIDHEGF","Passed AC2",NA,"Spreadsheet1",NA,"","","",NA,"5","BEGIN",NA,NA,NA,NA,NA,NA,0,NA,NA,NA,NA,"","",NA,"","",NA,"SUPPRF53463"
"2",1699648947220,"10/11/2023 20:42:27",1699627347220,-6,"10/11/2023 08:42:27",151512,5,"task-gjqt",NA,32877772,9736585,NA,"complete",NA,"654e93e48c82e7ef2c94ad9e","computer","Desktop or Laptop","Mac OS 10.15.7","Chrome 119.0.0.0","1470x956","1470x749",NA,NA,0,"BIQ (Charlotte)",3,"ABJCIDHEGF","Passed AC2",NA,"Spreadsheet1",1,"BIQ","Screen 1","9dh6eq",1,"continue","",30533.633,30516.967,30533.633,30533.633,30516.967,30533.633,1,30533.633,0,0,NA,"Click To Continue","Continue Button",23,"object-48","BIQ",NA,"SUPPRF53463"
"3",1699648947223,"10/11/2023 20:42:27",1699627347223,-6,"10/11/2023 08:42:27",151512,5,"task-gjqt",NA,32877772,9736585,NA,"complete",NA,"654e93e48c82e7ef2c94ad9e","computer","Desktop or Laptop","Mac OS 10.15.7","Chrome 119.0.0.0","1470x956","1470x749",NA,NA,0,"BIQ (Charlotte)",3,"ABJCIDHEGF","Passed AC2",NA,"Spreadsheet1",1,"BIQ","Screen 1","9dh6eq",1,"response","7",23133.544,30516.967,30533.633,23133.544,30516.967,30533.633,1,23133.544,7400.08899999999,0,NA,"Rating Scale","Rating Scale",3,"object-5","BIQ",NA,"SUPPRF53463"
"4",1699648947223,"10/11/2023 20:42:27",1699627347223,-6,"10/11/2023 08:42:27",151512,5,"task-gjqt",NA,32877772,9736585,NA,"complete",NA,"654e93e48c82e7ef2c94ad9e","computer","Desktop or Laptop","Mac OS 10.15.7","Chrome 119.0.0.0","1470x956","1470x749",NA,NA,0,"BIQ (Charlotte)",3,"ABJCIDHEGF","Passed AC2",NA,"Spreadsheet1",1,"BIQ","Screen 1","9dh6eq",1,"response","8",23916.846,30516.967,30533.633,23916.846,30516.967,30533.633,1,23916.846,6616.787,0,NA,"Rating Scale","Rating Scale",10,"object-18","BIQ",NA,"SUPPRF53463"
"5",1699648947224,"10/11/2023 20:42:27",1699627347224,-6,"10/11/2023 08:42:27",151512,5,"task-gjqt",NA,32877772,9736585,NA,"complete",NA,"654e93e48c82e7ef2c94ad9e","computer","Desktop or Laptop","Mac OS 10.15.7","Chrome 119.0.0.0","1470x956","1470x749",NA,NA,0,"BIQ (Charlotte)",3,"ABJCIDHEGF","Passed AC2",NA,"Spreadsheet1",1,"BIQ","Screen 1","9dh6eq",1,"response","0",27116.718,30516.967,30533.633,27116.718,30516.967,30533.633,1,27116.718,3416.91499999999,0,NA,"Rating Scale","Rating Scale",17,"object-80","BIQ",NA,"SUPPRF53463"
"6",1699648972914,"10/11/2023 20:42:52",1699627372914,-6,"10/11/2023 08:42:52",151512,5,"task-gjqt",NA,32877772,9736585,NA,"complete",NA,"654e93e48c82e7ef2c94ad9e","computer","Desktop or Laptop","Mac OS 10.15.7","Chrome 119.0.0.0","1470x956","1470x749",NA,NA,0,"BIQ (Charlotte)",3,"ABJCIDHEGF","Passed AC2",NA,"Spreadsheet1",1,"BIQ","Screen 2","o21mwi",2,"continue","",25715.064000003,25699.716,25715.064000003,25715.064000003,25699.716,25715.064000003,1,25715.064000003,0,0,NA,"Click To Continue","Continue Button",22,"object-50","BIQ",NA,"SUPPRF53463"
"7",1699648972917,"10/11/2023 20:42:52",1699627372917,-6,"10/11/2023 08:42:52",151512,5,"task-gjqt",NA,32877772,9736585,NA,"complete",NA,"654e93e48c82e7ef2c94ad9e","computer","Desktop or Laptop","Mac OS 10.15.7","Chrome 119.0.0.0","1470x956","1470x749",NA,NA,0,"BIQ (Charlotte)",3,"ABJCIDHEGF","Passed AC2",NA,"Spreadsheet1",1,"BIQ","Screen 2","o21mwi",2,"response","8",7266.376,25699.716,25716.382,7266.376,25699.716,25716.382,1,7266.376,18450.006,0,NA,"Rating Scale","Rating Scale",2,"object-259","BIQ",NA,"SUPPRF53463"
"8",1699648972917,"10/11/2023 20:42:52",1699627372917,-6,"10/11/2023 08:42:52",151512,5,"task-gjqt",NA,32877772,9736585,NA,"complete",NA,"654e93e48c82e7ef2c94ad9e","computer","Desktop or Laptop","Mac OS 10.15.7","Chrome 119.0.0.0","1470x956","1470x749",NA,NA,0,"BIQ (Charlotte)",3,"ABJCIDHEGF","Passed AC2",NA,"Spreadsheet1",1,"BIQ","Screen 2","o21mwi",2,"response","1",10716.618,25699.716,25716.382,10716.618,25699.716,25716.382,1,10716.618,14999.764,0,NA,"Rating Scale","Rating Scale",9,"object-36","BIQ",NA,"SUPPRF53463"
"9",1699648972918,"10/11/2023 20:42:52",1699627372918,-6,"10/11/2023 08:42:52",151512,5,"task-gjqt",NA,32877772,9736585,NA,"complete",NA,"654e93e48c82e7ef2c94ad9e","computer","Desktop or Laptop","Mac OS 10.15.7","Chrome 119.0.0.0","1470x956","1470x749",NA,NA,0,"BIQ (Charlotte)",3,"ABJCIDHEGF","Passed AC2",NA,"Spreadsheet1",1,"BIQ","Screen 2","o21mwi",2,"response","0",24783.086,25699.716,25716.382,24783.086,25699.716,25716.382,1,24783.086,933.295999999995,0,NA,"Rating Scale","Rating Scale",16,"object-86","BIQ",NA,"SUPPRF53463"
"10",1699649001194,"10/11/2023 20:43:21",1699627401194,-6,"10/11/2023 08:43:21",151512,5,"task-gjqt",NA,32877772,9736585,NA,"complete",NA,"654e93e48c82e7ef2c94ad9e","computer","Desktop or Laptop","Mac OS 10.15.7","Chrome 119.0.0.0","1470x956","1470x749",NA,NA,0,"BIQ (Charlotte)",3,"ABJCIDHEGF","Passed AC2",NA,"Spreadsheet1",1,"BIQ","Screen 3","iz3the",3,"continue","",28294.447999997,28283.344,28294.447999997,28294.447999997,28283.344,28294.447999997,1,28294.447999997,0,0,NA,"Click To Continue","Continue Button",22,"object-73","BIQ",NA,"SUPPRF53463"
"11",1699649001196,"10/11/2023 20:43:21",1699627401196,-6,"10/11/2023 08:43:21",151512,5,"task-gjqt",NA,32877772,9736585,NA,"complete",NA,"654e93e48c82e7ef2c94ad9e","computer","Desktop or Laptop","Mac OS 10.15.7","Chrome 119.0.0.0","1470x956","1470x749",NA,NA,0,"BIQ (Charlotte)",3,"ABJCIDHEGF","Passed AC2",NA,"Spreadsheet1",1,"BIQ","Screen 3","iz3the",3,"response","0",9083.349,28283.344,28297.247999994,9083.349,28283.344,28297.247999994,1,9083.349,19213.898999994,0,NA,"Rating Scale","Rating Scale",2,"object-53","BIQ",NA,"SUPPRF53463"
"12",1699649001197,"10/11/2023 20:43:21",1699627401197,-6,"10/11/2023 08:43:21",151512,5,"task-gjqt",NA,32877772,9736585,NA,"complete",NA,"654e93e48c82e7ef2c94ad9e","computer","Desktop or Laptop","Mac OS 10.15.7","Chrome 119.0.0.0","1470x956","1470x749",NA,NA,0,"BIQ (Charlotte)",3,"ABJCIDHEGF","Passed AC2",NA,"Spreadsheet1",1,"BIQ","Screen 3","iz3the",3,"response","0",10833.279,28283.344,28297.648,10833.279,28283.344,28297.648,1,10833.279,17464.369,0,NA,"Rating Scale","Rating Scale",9,"object-60","BIQ",NA,"SUPPRF53463"
"13",1699649001197,"10/11/2023 20:43:21",1699627401197,-6,"10/11/2023 08:43:21",151512,5,"task-gjqt",NA,32877772,9736585,NA,"complete",NA,"654e93e48c82e7ef2c94ad9e","computer","Desktop or Laptop","Mac OS 10.15.7","Chrome 119.0.0.0","1470x956","1470x749",NA,NA,0,"BIQ (Charlotte)",3,"ABJCIDHEGF","Passed AC2",NA,"Spreadsheet1",1,"BIQ","Screen 3","iz3the",3,"response","1",11749.909,28283.344,28298.247999994,11749.909,28283.344,28298.247999994,1,11749.909,16548.338999994,0,NA,"Rating Scale","Rating Scale",16,"object-67","BIQ",NA,"SUPPRF53463"
"14",1699649001203,"10/11/2023 20:43:21",1699627401203,-6,"10/11/2023 08:43:21",151512,5,"task-gjqt",NA,32877772,9736585,NA,"complete",NA,"654e93e48c82e7ef2c94ad9e","computer","Desktop or Laptop","Mac OS 10.15.7","Chrome 119.0.0.0","1470x956","1470x749",NA,NA,0,"BIQ (Charlotte)",3,"ABJCIDHEGF","Passed AC2",NA,"Spreadsheet1",NA,"","","",NA,"5","END",NA,NA,NA,NA,NA,NA,0,NA,NA,NA,NA,"","",NA,"","",NA,"SUPPRF53463"
"1",1699650168765,"10/11/2023 21:02:48",1699628568765,-6,"10/11/2023 09:02:48",151512,5,"task-gjqt",NA,32878301,9736679,NA,"complete",NA,"654e8caeeb2bfc6a86d450c5","computer","Desktop or Laptop","Windows 10","Chrome 119.0.0.0","1536x864","1536x739",NA,NA,0,"BIQ (Charlotte)",3,"CDBEAFJGIH","Passed AC2",NA,"Spreadsheet1",NA,"","","",NA,"5","BEGIN",NA,NA,NA,NA,NA,NA,0,NA,NA,NA,NA,"","",NA,"","",NA,"SUPPRF78865"
"2",1699650198646,"10/11/2023 21:03:18",1699628598646,-6,"10/11/2023 09:03:18",151512,5,"task-gjqt",NA,32878301,9736679,NA,"complete",NA,"654e8caeeb2bfc6a86d450c5","computer","Desktop or Laptop","Windows 10","Chrome 119.0.0.0","1536x864","1536x739",NA,NA,0,"BIQ (Charlotte)",3,"CDBEAFJGIH","Passed AC2",NA,"Spreadsheet1",1,"BIQ","Screen 1","9dh6eq",1,"continue","",29887.314,29881.174,29887.314,29887.314,29881.174,29887.314,1,29887.314,0,0,NA,"Click To Continue","Continue Button",23,"object-48","BIQ",NA,"SUPPRF78865"
"3",1699650198648,"10/11/2023 21:03:18",1699628598648,-6,"10/11/2023 09:03:18",151512,5,"task-gjqt",NA,32878301,9736679,NA,"complete",NA,"654e8caeeb2bfc6a86d450c5","computer","Desktop or Laptop","Windows 10","Chrome 119.0.0.0","1536x864","1536x739",NA,NA,0,"BIQ (Charlotte)",3,"CDBEAFJGIH","Passed AC2",NA,"Spreadsheet1",1,"BIQ","Screen 1","9dh6eq",1,"response","3",20952.777,29881.174,29887.314,20952.777,29881.174,29887.314,1,20952.777,8934.537,0,NA,"Rating Scale","Rating Scale",3,"object-5","BIQ",NA,"SUPPRF78865"
"4",1699650198648,"10/11/2023 21:03:18",1699628598648,-6,"10/11/2023 09:03:18",151512,5,"task-gjqt",NA,32878301,9736679,NA,"complete",NA,"654e8caeeb2bfc6a86d450c5","computer","Desktop or Laptop","Windows 10","Chrome 119.0.0.0","1536x864","1536x739",NA,NA,0,"BIQ (Charlotte)",3,"CDBEAFJGIH","Passed AC2",NA,"Spreadsheet1",1,"BIQ","Screen 1","9dh6eq",1,"response","4",26907.034,29881.174,29887.314,26907.034,29881.174,29887.314,1,26907.034,2980.28,0,NA,"Rating Scale","Rating Scale",10,"object-18","BIQ",NA,"SUPPRF78865"
"5",1699650198648,"10/11/2023 21:03:18",1699628598648,-6,"10/11/2023 09:03:18",151512,5,"task-gjqt",NA,32878301,9736679,NA,"complete",NA,"654e8caeeb2bfc6a86d450c5","computer","Desktop or Laptop","Windows 10","Chrome 119.0.0.0","1536x864","1536x739",NA,NA,0,"BIQ (Charlotte)",3,"CDBEAFJGIH","Passed AC2",NA,"Spreadsheet1",1,"BIQ","Screen 1","9dh6eq",1,"response","3",29431.944,29881.174,29887.314,29431.944,29881.174,29887.314,1,29431.944,455.369999999999,0,NA,"Rating Scale","Rating Scale",17,"object-80","BIQ",NA,"SUPPRF78865"
"6",1699650215248,"10/11/2023 21:03:35",1699628615248,-6,"10/11/2023 09:03:35",151512,5,"task-gjqt",NA,32878301,9736679,NA,"complete",NA,"654e8caeeb2bfc6a86d450c5","computer","Desktop or Laptop","Windows 10","Chrome 119.0.0.0","1536x864","1536x739",NA,NA,0,"BIQ (Charlotte)",3,"CDBEAFJGIH","Passed AC2",NA,"Spreadsheet1",1,"BIQ","Screen 2","o21mwi",2,"continue","",16609.7290000238,16606.745,16609.7290000238,16609.7290000238,16606.745,16609.7290000238,1,16609.7290000238,0,0,NA,"Click To Continue","Continue Button",22,"object-50","BIQ",NA,"SUPPRF78865"
"7",1699650215250,"10/11/2023 21:03:35",1699628615250,-6,"10/11/2023 09:03:35",151512,5,"task-gjqt",NA,32878301,9736679,NA,"complete",NA,"654e8caeeb2bfc6a86d450c5","computer","Desktop or Laptop","Windows 10","Chrome 119.0.0.0","1536x864","1536x739",NA,NA,0,"BIQ (Charlotte)",3,"CDBEAFJGIH","Passed AC2",NA,"Spreadsheet1",1,"BIQ","Screen 2","o21mwi",2,"response","2",5377.715,16606.745,16611.5289999762,5377.715,16606.745,16611.5289999762,1,5377.715,11233.8139999762,0,NA,"Rating Scale","Rating Scale",2,"object-259","BIQ",NA,"SUPPRF78865"
"8",1699650215250,"10/11/2023 21:03:35",1699628615250,-6,"10/11/2023 09:03:35",151512,5,"task-gjqt",NA,32878301,9736679,NA,"complete",NA,"654e8caeeb2bfc6a86d450c5","computer","Desktop or Laptop","Windows 10","Chrome 119.0.0.0","1536x864","1536x739",NA,NA,0,"BIQ (Charlotte)",3,"CDBEAFJGIH","Passed AC2",NA,"Spreadsheet1",1,"BIQ","Screen 2","o21mwi",2,"response","4",10294.259,16606.745,16611.8290000477,10294.259,16606.745,16611.8290000477,1,10294.259,6317.57000004769,0,NA,"Rating Scale","Rating Scale",9,"object-36","BIQ",NA,"SUPPRF78865"
"9",1699650215251,"10/11/2023 21:03:35",1699628615251,-6,"10/11/2023 09:03:35",151512,5,"task-gjqt",NA,32878301,9736679,NA,"complete",NA,"654e8caeeb2bfc6a86d450c5","computer","Desktop or Laptop","Windows 10","Chrome 119.0.0.0","1536x864","1536x739",NA,NA,0,"BIQ (Charlotte)",3,"CDBEAFJGIH","Passed AC2",NA,"Spreadsheet1",1,"BIQ","Screen 2","o21mwi",2,"response","1",16005.831,16606.745,16612.129,16005.831,16606.745,16612.129,1,16005.831,606.298000000003,0,NA,"Rating Scale","Rating Scale",16,"object-86","BIQ",NA,"SUPPRF78865"
"10",1699650225071,"10/11/2023 21:03:45",1699628625071,-6,"10/11/2023 09:03:45",151512,5,"task-gjqt",NA,32878301,9736679,NA,"complete",NA,"654e8caeeb2bfc6a86d450c5","computer","Desktop or Laptop","Windows 10","Chrome 119.0.0.0","1536x864","1536x739",NA,NA,0,"BIQ (Charlotte)",3,"CDBEAFJGIH","Passed AC2",NA,"Spreadsheet1",1,"BIQ","Screen 3","iz3the",3,"continue","",9825.08400004768,9820.842,9825.08400004768,9825.08400004768,9820.842,9825.08400004768,1,9825.08400004768,0,0,NA,"Click To Continue","Continue Button",22,"object-73","BIQ",NA,"SUPPRF78865"
"11",1699650225071,"10/11/2023 21:03:45",1699628625071,-6,"10/11/2023 09:03:45",151512,5,"task-gjqt",NA,32878301,9736679,NA,"complete",NA,"654e8caeeb2bfc6a86d450c5","computer","Desktop or Laptop","Windows 10","Chrome 119.0.0.0","1536x864","1536x739",NA,NA,0,"BIQ (Charlotte)",3,"CDBEAFJGIH","Passed AC2",NA,"Spreadsheet1",1,"BIQ","Screen 3","iz3the",3,"response","0",3065.217,9820.842,9825.58400004768,3065.217,9820.842,9825.58400004768,1,3065.217,6760.36700004768,0,NA,"Rating Scale","Rating Scale",2,"object-53","BIQ",NA,"SUPPRF78865"
"12",1699650225071,"10/11/2023 21:03:45",1699628625071,-6,"10/11/2023 09:03:45",151512,5,"task-gjqt",NA,32878301,9736679,NA,"complete",NA,"654e8caeeb2bfc6a86d450c5","computer","Desktop or Laptop","Windows 10","Chrome 119.0.0.0","1536x864","1536x739",NA,NA,0,"BIQ (Charlotte)",3,"CDBEAFJGIH","Passed AC2",NA,"Spreadsheet1",1,"BIQ","Screen 3","iz3the",3,"response","2",6379.303,9820.842,9825.78399997616,6379.303,9820.842,9825.78399997616,1,6379.303,3446.48099997616,0,NA,"Rating Scale","Rating Scale",9,"object-60","BIQ",NA,"SUPPRF78865"
"13",1699650225071,"10/11/2023 21:03:45",1699628625071,-6,"10/11/2023 09:03:45",151512,5,"task-gjqt",NA,32878301,9736679,NA,"complete",NA,"654e8caeeb2bfc6a86d450c5","computer","Desktop or Laptop","Windows 10","Chrome 119.0.0.0","1536x864","1536x739",NA,NA,0,"BIQ (Charlotte)",3,"CDBEAFJGIH","Passed AC2",NA,"Spreadsheet1",1,"BIQ","Screen 3","iz3the",3,"response","5",9177.454,9820.842,9826.08400004768,9177.454,9820.842,9826.08400004768,1,9177.454,648.630000047684,0,NA,"Rating Scale","Rating Scale",16,"object-67","BIQ",NA,"SUPPRF78865"
"14",1699650225074,"10/11/2023 21:03:45",1699628625074,-6,"10/11/2023 09:03:45",151512,5,"task-gjqt",NA,32878301,9736679,NA,"complete",NA,"654e8caeeb2bfc6a86d450c5","computer","Desktop or Laptop","Windows 10","Chrome 119.0.0.0","1536x864","1536x739",NA,NA,0,"BIQ (Charlotte)",3,"CDBEAFJGIH","Passed AC2",NA,"Spreadsheet1",NA,"","","",NA,"5","END",NA,NA,NA,NA,NA,NA,0,NA,NA,NA,NA,"","",NA,"","",NA,"SUPPRF78865"
"1",1699651673934,"10/11/2023 21:27:53",1699651673934,0,"10/11/2023 21:27:53",151512,5,"task-gjqt",NA,32878790,9736778,NA,"complete",NA,"654e9f628012f644938982a3","computer","Desktop or Laptop","Mac OS 10.15.7","Chrome 109.0.0.0","1440x900","659x789",NA,NA,0,"BIQ (Charlotte)",3,"HIGJFAEBDC","Passed AC2",NA,"Spreadsheet1",NA,"","","",NA,"5","BEGIN",NA,NA,NA,NA,NA,NA,0,NA,NA,NA,NA,"","",NA,"","",NA,"SUPPRF82563"
"2",1699651717538,"10/11/2023 21:28:37",1699651717538,0,"10/11/2023 21:28:37",151512,5,"task-gjqt",NA,32878790,9736778,NA,"complete",NA,"654e9f628012f644938982a3","computer","Desktop or Laptop","Mac OS 10.15.7","Chrome 109.0.0.0","1440x900","659x789",NA,NA,0,"BIQ (Charlotte)",3,"HIGJFAEBDC","Passed AC2",NA,"Spreadsheet1",1,"BIQ","Screen 1","9dh6eq",1,"continue","",43616.318,43599.607,43616.318,43616.318,43599.607,43616.318,1,43616.318,0,0,NA,"Click To Continue","Continue Button",23,"object-48","BIQ",NA,"SUPPRF82563"
"3",1699651717541,"10/11/2023 21:28:37",1699651717541,0,"10/11/2023 21:28:37",151512,5,"task-gjqt",NA,32878790,9736778,NA,"complete",NA,"654e9f628012f644938982a3","computer","Desktop or Laptop","Mac OS 10.15.7","Chrome 109.0.0.0","1440x900","659x789",NA,NA,0,"BIQ (Charlotte)",3,"HIGJFAEBDC","Passed AC2",NA,"Spreadsheet1",1,"BIQ","Screen 1","9dh6eq",1,"response","5",9575.558,43599.607,43616.318,9575.558,43599.607,43616.318,1,9575.558,34040.76,0,NA,"Rating Scale","Rating Scale",3,"object-5","BIQ",NA,"SUPPRF82563"
"4",1699651717542,"10/11/2023 21:28:37",1699651717542,0,"10/11/2023 21:28:37",151512,5,"task-gjqt",NA,32878790,9736778,NA,"complete",NA,"654e9f628012f644938982a3","computer","Desktop or Laptop","Mac OS 10.15.7","Chrome 109.0.0.0","1440x900","659x789",NA,NA,0,"BIQ (Charlotte)",3,"HIGJFAEBDC","Passed AC2",NA,"Spreadsheet1",1,"BIQ","Screen 1","9dh6eq",1,"response","6",21072.886,43599.607,43616.318,21072.886,43599.607,43616.318,1,21072.886,22543.432,0,NA,"Rating Scale","Rating Scale",10,"object-18","BIQ",NA,"SUPPRF82563"
"5",1699651717542,"10/11/2023 21:28:37",1699651717542,0,"10/11/2023 21:28:37",151512,5,"task-gjqt",NA,32878790,9736778,NA,"complete",NA,"654e9f628012f644938982a3","computer","Desktop or Laptop","Mac OS 10.15.7","Chrome 109.0.0.0","1440x900","659x789",NA,NA,0,"BIQ (Charlotte)",3,"HIGJFAEBDC","Passed AC2",NA,"Spreadsheet1",1,"BIQ","Screen 1","9dh6eq",1,"response","4",32787.59,43599.607,43616.318,32787.59,43599.607,43616.318,1,32787.59,10828.728,0,NA,"Rating Scale","Rating Scale",17,"object-80","BIQ",NA,"SUPPRF82563"
"6",1699651735290,"10/11/2023 21:28:55",1699651735290,0,"10/11/2023 21:28:55",151512,5,"task-gjqt",NA,32878790,9736778,NA,"complete",NA,"654e9f628012f644938982a3","computer","Desktop or Laptop","Mac OS 10.15.7","Chrome 109.0.0.0","1440x900","659x789",NA,NA,0,"BIQ (Charlotte)",3,"HIGJFAEBDC","Passed AC2",NA,"Spreadsheet1",1,"BIQ","Screen 2","o21mwi",2,"continue","",17776.9420002861,17764.285,17776.9420002861,17776.9420002861,17764.285,17776.9420002861,1,17776.9420002861,0,0,NA,"Click To Continue","Continue Button",22,"object-50","BIQ",NA,"SUPPRF82563"
"7",1699651735295,"10/11/2023 21:28:55",1699651735295,0,"10/11/2023 21:28:55",151512,5,"task-gjqt",NA,32878790,9736778,NA,"complete",NA,"654e9f628012f644938982a3","computer","Desktop or Laptop","Mac OS 10.15.7","Chrome 109.0.0.0","1440x900","659x789",NA,NA,0,"BIQ (Charlotte)",3,"HIGJFAEBDC","Passed AC2",NA,"Spreadsheet1",1,"BIQ","Screen 2","o21mwi",2,"response","7",6166.593,17764.285,17780.4420002861,6166.593,17764.285,17780.4420002861,1,6166.593,11613.8490002861,0,NA,"Rating Scale","Rating Scale",2,"object-259","BIQ",NA,"SUPPRF82563"
"8",1699651735295,"10/11/2023 21:28:55",1699651735295,0,"10/11/2023 21:28:55",151512,5,"task-gjqt",NA,32878790,9736778,NA,"complete",NA,"654e9f628012f644938982a3","computer","Desktop or Laptop","Mac OS 10.15.7","Chrome 109.0.0.0","1440x900","659x789",NA,NA,0,"BIQ (Charlotte)",3,"HIGJFAEBDC","Passed AC2",NA,"Spreadsheet1",1,"BIQ","Screen 2","o21mwi",2,"response","2",9609.059,17764.285,17780.996,9609.059,17764.285,17780.996,1,9609.059,8171.93699999999,0,NA,"Rating Scale","Rating Scale",9,"object-36","BIQ",NA,"SUPPRF82563"
"9",1699651735296,"10/11/2023 21:28:55",1699651735296,0,"10/11/2023 21:28:55",151512,5,"task-gjqt",NA,32878790,9736778,NA,"complete",NA,"654e9f628012f644938982a3","computer","Desktop or Laptop","Mac OS 10.15.7","Chrome 109.0.0.0","1440x900","659x789",NA,NA,0,"BIQ (Charlotte)",3,"HIGJFAEBDC","Passed AC2",NA,"Spreadsheet1",1,"BIQ","Screen 2","o21mwi",2,"response","0",16510.96,17764.285,17780.996,16510.96,17764.285,17780.996,1,16510.96,1270.03599999999,0,NA,"Rating Scale","Rating Scale",16,"object-86","BIQ",NA,"SUPPRF82563"
"10",1699651748638,"10/11/2023 21:29:08",1699651748638,0,"10/11/2023 21:29:08",151512,5,"task-gjqt",NA,32878790,9736778,NA,"complete",NA,"654e9f628012f644938982a3","computer","Desktop or Laptop","Mac OS 10.15.7","Chrome 109.0.0.0","1440x900","659x789",NA,NA,0,"BIQ (Charlotte)",3,"HIGJFAEBDC","Passed AC2",NA,"Spreadsheet1",1,"BIQ","Screen 3","iz3the",3,"continue","",13359.7570001907,13352.268,13359.7570001907,13359.7570001907,13352.268,13359.7570001907,1,13359.7570001907,0,0,NA,"Click To Continue","Continue Button",22,"object-73","BIQ",NA,"SUPPRF82563"
"11",1699651748643,"10/11/2023 21:29:08",1699651748643,0,"10/11/2023 21:29:08",151512,5,"task-gjqt",NA,32878790,9736778,NA,"complete",NA,"654e9f628012f644938982a3","computer","Desktop or Laptop","Mac OS 10.15.7","Chrome 109.0.0.0","1440x900","659x789",NA,NA,0,"BIQ (Charlotte)",3,"HIGJFAEBDC","Passed AC2",NA,"Spreadsheet1",1,"BIQ","Screen 3","iz3the",3,"response","0",3776.865,13352.268,13364.957,3776.865,13352.268,13364.957,1,3776.865,9588.092,0,NA,"Rating Scale","Rating Scale",2,"object-53","BIQ",NA,"SUPPRF82563"
