"Event.Index","UTC.Timestamp","UTC.Date.and.Time","Local.Timestamp","Local.Timezone","Local.Date.and.Time","Experiment.ID","Experiment.Version","Tree.Node.Key","Repeat.Key","Schedule.ID","Participant.Private.ID","Participant.Starting.Group","Participant.Status","Participant.Completion.Code","Participant.External.Session.ID","Participant.Device.Type","Participant.Device","Participant.OS","Participant.Browser","Participant.Monitor.Size","Participant.Viewport.Size","Checkpoint","Room.ID","Room.Order","Task.Name","Task.Version","order.ot79","branch.g31k","branch.5gtn","Spreadsheet","Trial.Number","Display","Screen","Screen.ID","Screen.Counter","Response.Type","Response","Onset.Time","Clock.Time","Reaction.Time","Absolute.Onset.Time","Absolute.Clock.Time","Absolute.Reaction.Time","Correct","Response.Onset","Response.Duration","Proportion","Tag","Component.Name","Object.Name","Object.Number","Object.ID","Spreadsheet..display","Manipulation..Spreadsheet","Random_ID"
"1",1699640150196,"10/11/2023 18:15:50",1699640150196,0,"10/11/2023 18:15:50",151512,5,"task-w25u",NA,32874832,9735633,NA,"complete",NA,"654e710ffcc1748009be7272","computer","Desktop or Laptop","Mac OS 10.15.7","Chrome 119.0.0.0","1440x900","1440x702",NA,NA,0,"Task Introduction and Instructions (re-introduce video and audio)",1,"ABJCIDHEGF","Passed AC2",NA,"Spreadsheet1",NA,"","","",NA,"5","BEGIN",NA,NA,NA,NA,NA,NA,0,NA,NA,NA,NA,"","",NA,"","",NA,"SUPPRF45424"
"2",1699640154859,"10/11/2023 18:15:54",1699640154859,0,"10/11/2023 18:15:54",151512,5,"task-w25u",NA,32874832,9735633,NA,"complete",NA,"654e710ffcc1748009be7272","computer","Desktop or Laptop","Mac OS 10.15.7","Chrome 119.0.0.0","1440x900","1440x702",NA,NA,0,"Task Introduction and Instructions (re-introduce video and audio)",1,"ABJCIDHEGF","Passed AC2",NA,"Spreadsheet1",1,"Task Instructions","Screen 1","anr7sn",1,"continue","",4581.31700000019,4566.747,4581.31700000019,4581.31700000019,4566.747,4581.31700000019,1,4581.31700000019,0,0,NA,"Click To Continue","Continue Button",2,"object-1944","Task Instructions",NA,"SUPPRF45424"
"3",1699640161131,"10/11/2023 18:16:01",1699640161131,0,"10/11/2023 18:16:01",151512,5,"task-w25u",NA,32874832,9735633,NA,"complete",NA,"654e710ffcc1748009be7272","computer","Desktop or Laptop","Mac OS 10.15.7","Chrome 119.0.0.0","1440x900","1440x702",NA,NA,0,"Task Introduction and Instructions (re-introduce video and audio)",1,"ABJCIDHEGF","Passed AC2",NA,"Spreadsheet1",1,"Task Instructions","Screen 2","ce2tc8",2,"continue","",6286.66999999981,6283.082,6286.66999999981,6286.66999999981,6283.082,6286.66999999981,1,6286.66999999981,0,0,NA,"Click To Continue","Continue Button",2,"object-7","Task Instructions",NA,"SUPPRF45424"
"4",1699640163722,"10/11/2023 18:16:03",1699640163722,0,"10/11/2023 18:16:03",151512,5,"task-w25u",NA,32874832,9735633,NA,"complete",NA,"654e710ffcc1748009be7272","computer","Desktop or Laptop","Mac OS 10.15.7","Chrome 119.0.0.0","1440x900","1440x702",NA,NA,0,"Task Introduction and Instructions (re-introduce video and audio)",1,"ABJCIDHEGF","Passed AC2",NA,"Spreadsheet1",1,"Task Instructions","Screen 3","1qtc8v",3,"continue","",2595.38800000009,2583.492,2595.38800000009,2595.38800000009,2583.492,2595.38800000009,1,2595.38800000009,0,0,NA,"Click To Continue","Continue Button",2,"object-52","Task Instructions",NA,"SUPPRF45424"
"5",1699640166199,"10/11/2023 18:16:06",1699640166199,0,"10/11/2023 18:16:06",151512,5,"task-w25u",NA,32874832,9735633,NA,"complete",NA,"654e710ffcc1748009be7272","computer","Desktop or Laptop","Mac OS 10.15.7","Chrome 119.0.0.0","1440x900","1440x702",NA,NA,0,"Task Introduction and Instructions (re-introduce video and audio)",1,"ABJCIDHEGF","Passed AC2",NA,"Spreadsheet1",1,"Task Instructions","Screen 4","spepx9",4,"continue","",2488.39600000009,2483.234,2488.39600000009,2488.39600000009,2483.234,2488.39600000009,1,2488.39600000009,0,0,NA,"Click To Continue","Continue Button",2,"object-9","Task Instructions",NA,"SUPPRF45424"
"6",1699640168678,"10/11/2023 18:16:08",1699640168678,0,"10/11/2023 18:16:08",151512,5,"task-w25u",NA,32874832,9735633,NA,"complete",NA,"654e710ffcc1748009be7272","computer","Desktop or Laptop","Mac OS 10.15.7","Chrome 119.0.0.0","1440x900","1440x702",NA,NA,0,"Task Introduction and Instructions (re-introduce video and audio)",1,"ABJCIDHEGF","Passed AC2",NA,"Spreadsheet1",1,"Task Instructions","Screen 5","8nvnao",5,"continue","",2483.234,2466.568,2483.234,2483.234,2466.568,2483.234,1,2483.234,0,0,NA,"Click To Continue","Continue Button",2,"object-44","Task Instructions",NA,"SUPPRF45424"
"7",1699640168681,"10/11/2023 18:16:08",1699640168681,0,"10/11/2023 18:16:08",151512,5,"task-w25u",NA,32874832,9735633,NA,"complete",NA,"654e710ffcc1748009be7272","computer","Desktop or Laptop","Mac OS 10.15.7","Chrome 119.0.0.0","1440x900","1440x702",NA,NA,0,"Task Introduction and Instructions (re-introduce video and audio)",1,"ABJCIDHEGF","Passed AC2",NA,"Spreadsheet1",NA,"","","",NA,"5","END",NA,NA,NA,NA,NA,NA,0,NA,NA,NA,NA,"","",NA,"","",NA,"SUPPRF45424"
"1",1699644590073,"10/11/2023 19:29:50",1699644590073,0,"10/11/2023 19:29:50",151512,5,"task-w25u",NA,32875845,9736150,NA,"complete",NA,"654e81a2df6fc908052b2c4a","computer","Desktop or Laptop","Windows 10","Chrome 119.0.0.0","1280x720","1280x603",NA,NA,0,"Task Introduction and Instructions (re-introduce video and audio)",1,"BCADJEIFHG","Passed AC2",NA,"Spreadsheet1",NA,"","","",NA,"5","BEGIN",NA,NA,NA,NA,NA,NA,0,NA,NA,NA,NA,"","",NA,"","",NA,"SUPPRF89348"
"2",1699644641089,"10/11/2023 19:30:41",1699644641089,0,"10/11/2023 19:30:41",151512,5,"task-w25u",NA,32875845,9736150,NA,"complete",NA,"654e81a2df6fc908052b2c4a","computer","Desktop or Laptop","Windows 10","Chrome 119.0.0.0","1280x720","1280x603",NA,NA,0,"Task Introduction and Instructions (re-introduce video and audio)",1,"BCADJEIFHG","Passed AC2",NA,"Spreadsheet1",1,"Task Instructions","Screen 1","anr7sn",1,"continue","",50929.6799999046,50910.303,50929.6799999046,50929.6799999046,50910.303,50929.6799999046,1,50929.6799999046,0,0,NA,"Click To Continue","Continue Button",2,"object-1944","Task Instructions",NA,"SUPPRF89348"
"3",1699644658549,"10/11/2023 19:30:58",1699644658549,0,"10/11/2023 19:30:58",151512,5,"task-w25u",NA,32875845,9736150,NA,"complete",NA,"654e81a2df6fc908052b2c4a","computer","Desktop or Laptop","Windows 10","Chrome 119.0.0.0","1280x720","1280x603",NA,NA,0,"Task Introduction and Instructions (re-introduce video and audio)",1,"BCADJEIFHG","Passed AC2",NA,"Spreadsheet1",1,"Task Instructions","Screen 2","ce2tc8",2,"continue","",17483.8769999046,17469.964,17483.8769999046,17483.8769999046,17469.964,17483.8769999046,1,17483.8769999046,0,0,NA,"Click To Continue","Continue Button",2,"object-7","Task Instructions",NA,"SUPPRF89348"
"4",1699644661929,"10/11/2023 19:31:01",1699644661929,0,"10/11/2023 19:31:01",151512,5,"task-w25u",NA,32875845,9736150,NA,"complete",NA,"654e81a2df6fc908052b2c4a","computer","Desktop or Laptop","Windows 10","Chrome 119.0.0.0","1280x720","1280x603",NA,NA,0,"Task Introduction and Instructions (re-introduce video and audio)",1,"BCADJEIFHG","Passed AC2",NA,"Spreadsheet1",1,"Task Instructions","Screen 3","1qtc8v",3,"continue","",3394.01299992847,3367.579,3394.01299992847,3394.01299992847,3367.579,3394.01299992847,1,3394.01299992847,0,0,NA,"Click To Continue","Continue Button",2,"object-52","Task Instructions",NA,"SUPPRF89348"
"5",1699644664692,"10/11/2023 19:31:04",1699644664692,0,"10/11/2023 19:31:04",151512,5,"task-w25u",NA,32875845,9736150,NA,"complete",NA,"654e81a2df6fc908052b2c4a","computer","Desktop or Laptop","Windows 10","Chrome 119.0.0.0","1280x720","1280x603",NA,NA,0,"Task Introduction and Instructions (re-introduce video and audio)",1,"BCADJEIFHG","Passed AC2",NA,"Spreadsheet1",1,"Task Instructions","Screen 4","spepx9",4,"continue","",2789.53399995231,2767.34199999999,2789.53399995231,2789.53399995231,2767.34199999999,2789.53399995231,1,2789.53399995231,0,0,NA,"Click To Continue","Continue Button",2,"object-9","Task Instructions",NA,"SUPPRF89348"
"6",1699644667777,"10/11/2023 19:31:07",1699644667777,0,"10/11/2023 19:31:07",151512,5,"task-w25u",NA,32875845,9736150,NA,"complete",NA,"654e81a2df6fc908052b2c4a","computer","Desktop or Laptop","Windows 10","Chrome 119.0.0.0","1280x720","1280x603",NA,NA,0,"Task Introduction and Instructions (re-introduce video and audio)",1,"BCADJEIFHG","Passed AC2",NA,"Spreadsheet1",1,"Task Instructions","Screen 5","8nvnao",5,"continue","",3107.39200000001,3100.35900000001,3107.39200000001,3107.39200000001,3100.35900000001,3107.39200000001,1,3107.39200000001,0,0,NA,"Click To Continue","Continue Button",2,"object-44","Task Instructions",NA,"SUPPRF89348"
"7",1699644667781,"10/11/2023 19:31:07",1699644667781,0,"10/11/2023 19:31:07",151512,5,"task-w25u",NA,32875845,9736150,NA,"complete",NA,"654e81a2df6fc908052b2c4a","computer","Desktop or Laptop","Windows 10","Chrome 119.0.0.0","1280x720","1280x603",NA,NA,0,"Task Introduction and Instructions (re-introduce video and audio)",1,"BCADJEIFHG","Passed AC2",NA,"Spreadsheet1",NA,"","","",NA,"5","END",NA,NA,NA,NA,NA,NA,0,NA,NA,NA,NA,"","",NA,"","",NA,"SUPPRF89348"
"1",1699645148135,"10/11/2023 19:39:08",1699645148135,0,"10/11/2023 19:39:08",151512,5,"task-w25u",NA,32876022,9736164,NA,"complete",NA,"654e824c01da0346f7d0bf9b","computer","Desktop or Laptop","Windows 10","Chrome 119.0.0.0","1280x720","1280x595",NA,NA,0,"Task Introduction and Instructions (re-introduce video and audio)",1,"CDBEAFJGIH","Passed AC2",NA,"Spreadsheet1",NA,"","","",NA,"5","BEGIN",NA,NA,NA,NA,NA,NA,0,NA,NA,NA,NA,"","",NA,"","",NA,"SUPPRF45704"
"2",1699645152650,"10/11/2023 19:39:12",1699645152650,0,"10/11/2023 19:39:12",151512,5,"task-w25u",NA,32876022,9736164,NA,"complete",NA,"654e824c01da0346f7d0bf9b","computer","Desktop or Laptop","Windows 10","Chrome 119.0.0.0","1280x720","1280x595",NA,NA,0,"Task Introduction and Instructions (re-introduce video and audio)",1,"CDBEAFJGIH","Passed AC2",NA,"Spreadsheet1",1,"Task Instructions","Screen 1","anr7sn",1,"continue","",4461.95500002384,4446.055,4461.95500002384,4461.95500002384,4446.055,4461.95500002384,1,4461.95500002384,0,0,NA,"Click To Continue","Continue Button",2,"object-1944","Task Instructions",NA,"SUPPRF45704"
"3",1699645164083,"10/11/2023 19:39:24",1699645164083,0,"10/11/2023 19:39:24",151512,5,"task-w25u",NA,32876022,9736164,NA,"complete",NA,"654e824c01da0346f7d0bf9b","computer","Desktop or Laptop","Windows 10","Chrome 119.0.0.0","1280x720","1280x595",NA,NA,0,"Task Introduction and Instructions (re-introduce video and audio)",1,"CDBEAFJGIH","Passed AC2",NA,"Spreadsheet1",1,"Task Instructions","Screen 2","ce2tc8",2,"continue","",11439.859,11423.181,11439.859,11439.859,11423.181,11439.859,1,11439.859,0,0,NA,"Click To Continue","Continue Button",2,"object-7","Task Instructions",NA,"SUPPRF45704"
"4",1699645167241,"10/11/2023 19:39:27",1699645167241,0,"10/11/2023 19:39:27",151512,5,"task-w25u",NA,32876022,9736164,NA,"complete",NA,"654e824c01da0346f7d0bf9b","computer","Desktop or Laptop","Windows 10","Chrome 119.0.0.0","1280x720","1280x595",NA,NA,0,"Task Introduction and Instructions (re-introduce video and audio)",1,"CDBEAFJGIH","Passed AC2",NA,"Spreadsheet1",1,"Task Instructions","Screen 3","1qtc8v",3,"continue","",3180.498,3163.824,3180.498,3180.498,3163.824,3180.498,1,3180.498,0,0,NA,"Click To Continue","Continue Button",2,"object-52","Task Instructions",NA,"SUPPRF45704"
"5",1699645169995,"10/11/2023 19:39:29",1699645169995,0,"10/11/2023 19:39:29",151512,5,"task-w25u",NA,32876022,9736164,NA,"complete",NA,"654e824c01da0346f7d0bf9b","computer","Desktop or Laptop","Windows 10","Chrome 119.0.0.0","1280x720","1280x595",NA,NA,0,"Task Introduction and Instructions (re-introduce video and audio)",1,"CDBEAFJGIH","Passed AC2",NA,"Spreadsheet1",1,"Task Instructions","Screen 4","spepx9",4,"continue","",2773.69499997616,2764.21,2773.69499997616,2773.69499997616,2764.21,2773.69499997616,1,2773.69499997616,0,0,NA,"Click To Continue","Continue Button",2,"object-9","Task Instructions",NA,"SUPPRF45704"
"6",1699645172933,"10/11/2023 19:39:32",1699645172933,0,"10/11/2023 19:39:32",151512,5,"task-w25u",NA,32876022,9736164,NA,"complete",NA,"654e824c01da0346f7d0bf9b","computer","Desktop or Laptop","Windows 10","Chrome 119.0.0.0","1280x720","1280x595",NA,NA,0,"Task Introduction and Instructions (re-introduce video and audio)",1,"CDBEAFJGIH","Passed AC2",NA,"Spreadsheet1",1,"Task Instructions","Screen 5","8nvnao",5,"continue","",2947.292,2930.691,2947.292,2947.292,2930.691,2947.292,1,2947.292,0,0,NA,"Click To Continue","Continue Button",2,"object-44","Task Instructions",NA,"SUPPRF45704"
"7",1699645172936,"10/11/2023 19:39:32",1699645172936,0,"10/11/2023 19:39:32",151512,5,"task-w25u",NA,32876022,9736164,NA,"complete",NA,"654e824c01da0346f7d0bf9b","computer","Desktop or Laptop","Windows 10","Chrome 119.0.0.0","1280x720","1280x595",NA,NA,0,"Task Introduction and Instructions (re-introduce video and audio)",1,"CDBEAFJGIH","Passed AC2",NA,"Spreadsheet1",NA,"","","",NA,"5","END",NA,NA,NA,NA,NA,NA,0,NA,NA,NA,NA,"","",NA,"","",NA,"SUPPRF45704"
"1",1699644878090,"10/11/2023 19:34:38",1699644878090,0,"10/11/2023 19:34:38",151512,5,"task-w25u",NA,32875943,9736180,NA,"complete",NA,"654e7dc17634b6d7df3e7554","computer","Desktop or Laptop","Mac OS 10.15.7","Chrome 119.0.0.0","1440x900","1920x1039",NA,NA,0,"Task Introduction and Instructions (re-introduce video and audio)",1,"DECFBGAHJI","Passed AC2",NA,"Spreadsheet1",NA,"","","",NA,"5","BEGIN",NA,NA,NA,NA,NA,NA,0,NA,NA,NA,NA,"","",NA,"","",NA,"SUPPRF70595"
"2",1699644881609,"10/11/2023 19:34:41",1699644881609,0,"10/11/2023 19:34:41",151512,5,"task-w25u",NA,32875943,9736180,NA,"complete",NA,"654e7dc17634b6d7df3e7554","computer","Desktop or Laptop","Mac OS 10.15.7","Chrome 119.0.0.0","1440x900","1920x1039",NA,NA,0,"Task Introduction and Instructions (re-introduce video and audio)",1,"DECFBGAHJI","Passed AC2",NA,"Spreadsheet1",1,"Task Instructions","Screen 1","anr7sn",1,"continue","",3308.42,3293.84,3308.42,3308.42,3293.84,3308.42,1,3308.42,0,0,NA,"Click To Continue","Continue Button",2,"object-1944","Task Instructions",NA,"SUPPRF70595"
"3",1699644893790,"10/11/2023 19:34:53",1699644893790,0,"10/11/2023 19:34:53",151512,5,"task-w25u",NA,32875943,9736180,NA,"complete",NA,"654e7dc17634b6d7df3e7554","computer","Desktop or Laptop","Mac OS 10.15.7","Chrome 119.0.0.0","1440x900","1920x1039",NA,NA,0,"Task Introduction and Instructions (re-introduce video and audio)",1,"DECFBGAHJI","Passed AC2",NA,"Spreadsheet1",1,"Task Instructions","Screen 2","ce2tc8",2,"continue","",12196.08,12189.454,12196.08,12196.08,12189.454,12196.08,1,12196.08,0,0,NA,"Click To Continue","Continue Button",2,"object-7","Task Instructions",NA,"SUPPRF70595"
"4",1699644896892,"10/11/2023 19:34:56",1699644896892,0,"10/11/2023 19:34:56",151512,5,"task-w25u",NA,32875943,9736180,NA,"complete",NA,"654e7dc17634b6d7df3e7554","computer","Desktop or Laptop","Mac OS 10.15.7","Chrome 119.0.0.0","1440x900","1920x1039",NA,NA,0,"Task Introduction and Instructions (re-introduce video and audio)",1,"DECFBGAHJI","Passed AC2",NA,"Spreadsheet1",1,"Task Instructions","Screen 3","1qtc8v",3,"continue","",3108.82600001788,3093.2,3108.82600001788,3108.82600001788,3093.2,3108.82600001788,1,3108.82600001788,0,0,NA,"Click To Continue","Continue Button",2,"object-52","Task Instructions",NA,"SUPPRF70595"
"5",1699644899254,"10/11/2023 19:34:59",1699644899254,0,"10/11/2023 19:34:59",151512,5,"task-w25u",NA,32875943,9736180,NA,"complete",NA,"654e7dc17634b6d7df3e7554","computer","Desktop or Laptop","Mac OS 10.15.7","Chrome 119.0.0.0","1440x900","1920x1039",NA,NA,0,"Task Introduction and Instructions (re-introduce video and audio)",1,"DECFBGAHJI","Passed AC2",NA,"Spreadsheet1",1,"Task Instructions","Screen 4","spepx9",4,"continue","",2377.22600001192,2374.727,2377.22600001192,2377.22600001192,2374.727,2377.22600001192,1,2377.22600001192,0,0,NA,"Click To Continue","Continue Button",2,"object-9","Task Instructions",NA,"SUPPRF70595"
"6",1699644901994,"10/11/2023 19:35:01",1699644901994,0,"10/11/2023 19:35:01",151512,5,"task-w25u",NA,32875943,9736180,NA,"complete",NA,"654e7dc17634b6d7df3e7554","computer","Desktop or Laptop","Mac OS 10.15.7","Chrome 119.0.0.0","1440x900","1920x1039",NA,NA,0,"Task Introduction and Instructions (re-introduce video and audio)",1,"DECFBGAHJI","Passed AC2",NA,"Spreadsheet1",1,"Task Instructions","Screen 5","8nvnao",5,"continue","",2742.08,2725.36,2742.08,2742.08,2725.36,2742.08,1,2742.08,0,0,NA,"Click To Continue","Continue Button",2,"object-44","Task Instructions",NA,"SUPPRF70595"
"7",1699644901997,"10/11/2023 19:35:01",1699644901997,0,"10/11/2023 19:35:01",151512,5,"task-w25u",NA,32875943,9736180,NA,"complete",NA,"654e7dc17634b6d7df3e7554","computer","Desktop or Laptop","Mac OS 10.15.7","Chrome 119.0.0.0","1440x900","1920x1039",NA,NA,0,"Task Introduction and Instructions (re-introduce video and audio)",1,"DECFBGAHJI","Passed AC2",NA,"Spreadsheet1",NA,"","","",NA,"5","END",NA,NA,NA,NA,NA,NA,0,NA,NA,NA,NA,"","",NA,"","",NA,"SUPPRF70595"
"1",1699645989296,"10/11/2023 19:53:09",1699624389296,-6,"10/11/2023 07:53:09",151512,5,"task-w25u",NA,32876332,9736283,NA,"complete",NA,"654e8774ec3e795cee9c8c76","computer","Desktop or Laptop","Chromium OS 14541.0.0","Chrome 118.0.0.0","1536x864","1536x695",NA,NA,0,"Task Introduction and Instructions (re-introduce video and audio)",1,"GHFIEJDACB","Passed AC2",NA,"Spreadsheet1",NA,"","","",NA,"5","BEGIN",NA,NA,NA,NA,NA,NA,0,NA,NA,NA,NA,"","",NA,"","",NA,"SUPPRF54185"
"2",1699645992708,"10/11/2023 19:53:12",1699624392708,-6,"10/11/2023 07:53:12",151512,5,"task-w25u",NA,32876332,9736283,NA,"complete",NA,"654e8774ec3e795cee9c8c76","computer","Desktop or Laptop","Chromium OS 14541.0.0","Chrome 118.0.0.0","1536x864","1536x695",NA,NA,0,"Task Introduction and Instructions (re-introduce video and audio)",1,"GHFIEJDACB","Passed AC2",NA,"Spreadsheet1",1,"Task Instructions","Screen 1","anr7sn",1,"continue","",2741.51799999851,2731.079,2741.51799999851,2741.51799999851,2731.079,2741.51799999851,1,2741.51799999851,0,0,NA,"Click To Continue","Continue Button",2,"object-1944","Task Instructions",NA,"SUPPRF54185"
"3",1699645998929,"10/11/2023 19:53:18",1699624398929,-6,"10/11/2023 07:53:18",151512,5,"task-w25u",NA,32876332,9736283,NA,"complete",NA,"654e8774ec3e795cee9c8c76","computer","Desktop or Laptop","Chromium OS 14541.0.0","Chrome 118.0.0.0","1536x864","1536x695",NA,NA,0,"Task Introduction and Instructions (re-introduce video and audio)",1,"GHFIEJDACB","Passed AC2",NA,"Spreadsheet1",1,"Task Instructions","Screen 2","ce2tc8",2,"continue","",6235.63900000149,6228.131,6235.63900000149,6235.63900000149,6228.131,6235.63900000149,1,6235.63900000149,0,0,NA,"Click To Continue","Continue Button",2,"object-7","Task Instructions",NA,"SUPPRF54185"
"4",1699646001579,"10/11/2023 19:53:21",1699624401579,-6,"10/11/2023 07:53:21",151512,5,"task-w25u",NA,32876332,9736283,NA,"complete",NA,"654e8774ec3e795cee9c8c76","computer","Desktop or Laptop","Chromium OS 14541.0.0","Chrome 118.0.0.0","1536x864","1536x695",NA,NA,0,"Task Introduction and Instructions (re-introduce video and audio)",1,"GHFIEJDACB","Passed AC2",NA,"Spreadsheet1",1,"Task Instructions","Screen 3","1qtc8v",3,"continue","",2657.20799999702,2647.935,2657.20799999702,2657.20799999702,2647.935,2657.20799999702,1,2657.20799999702,0,0,NA,"Click To Continue","Continue Button",2,"object-52","Task Instructions",NA,"SUPPRF54185"
"5",1699646004176,"10/11/2023 19:53:24",1699624404176,-6,"10/11/2023 07:53:24",151512,5,"task-w25u",NA,32876332,9736283,NA,"complete",NA,"654e8774ec3e795cee9c8c76","computer","Desktop or Laptop","Chromium OS 14541.0.0","Chrome 118.0.0.0","1536x864","1536x695",NA,NA,0,"Task Introduction and Instructions (re-introduce video and audio)",1,"GHFIEJDACB","Passed AC2",NA,"Spreadsheet1",1,"Task Instructions","Screen 4","spepx9",4,"continue","",2607.07300000149,2597.878,2607.07300000149,2607.07300000149,2597.878,2607.07300000149,1,2607.07300000149,0,0,NA,"Click To Continue","Continue Button",2,"object-9","Task Instructions",NA,"SUPPRF54185"
"6",1699646006762,"10/11/2023 19:53:26",1699624406762,-6,"10/11/2023 07:53:26",151512,5,"task-w25u",NA,32876332,9736283,NA,"complete",NA,"654e8774ec3e795cee9c8c76","computer","Desktop or Laptop","Chromium OS 14541.0.0","Chrome 118.0.0.0","1536x864","1536x695",NA,NA,0,"Task Introduction and Instructions (re-introduce video and audio)",1,"GHFIEJDACB","Passed AC2",NA,"Spreadsheet1",1,"Task Instructions","Screen 5","8nvnao",5,"continue","",2594.79499999553,2581.231,2594.79499999553,2594.79499999553,2581.231,2594.79499999553,1,2594.79499999553,0,0,NA,"Click To Continue","Continue Button",2,"object-44","Task Instructions",NA,"SUPPRF54185"
"7",1699646006764,"10/11/2023 19:53:26",1699624406764,-6,"10/11/2023 07:53:26",151512,5,"task-w25u",NA,32876332,9736283,NA,"complete",NA,"654e8774ec3e795cee9c8c76","computer","Desktop or Laptop","Chromium OS 14541.0.0","Chrome 118.0.0.0","1536x864","1536x695",NA,NA,0,"Task Introduction and Instructions (re-introduce video and audio)",1,"GHFIEJDACB","Passed AC2",NA,"Spreadsheet1",NA,"","","",NA,"5","END",NA,NA,NA,NA,NA,NA,0,NA,NA,NA,NA,"","",NA,"","",NA,"SUPPRF54185"
"1",1699646320921,"10/11/2023 19:58:40",1699646320921,0,"10/11/2023 19:58:40",151512,5,"task-w25u",NA,32876473,9736304,NA,"complete",NA,"654e87b6c618dea49325448a","computer","Desktop or Laptop","Windows 10","Chrome 119.0.0.0","1536x864","1536x747",NA,NA,0,"Task Introduction and Instructions (re-introduce video and audio)",1,"HIGJFAEBDC","Passed AC2",NA,"Spreadsheet1",NA,"","","",NA,"5","BEGIN",NA,NA,NA,NA,NA,NA,0,NA,NA,NA,NA,"","",NA,"","",NA,"SUPPRF14173"
"2",1699646324243,"10/11/2023 19:58:44",1699646324243,0,"10/11/2023 19:58:44",151512,5,"task-w25u",NA,32876473,9736304,NA,"complete",NA,"654e87b6c618dea49325448a","computer","Desktop or Laptop","Windows 10","Chrome 119.0.0.0","1536x864","1536x747",NA,NA,0,"Task Introduction and Instructions (re-introduce video and audio)",1,"HIGJFAEBDC","Passed AC2",NA,"Spreadsheet1",1,"Task Instructions","Screen 1","anr7sn",1,"continue","",3228.22500000298,3213.388,3228.22500000298,3228.22500000298,3213.388,3228.22500000298,1,3228.22500000298,0,0,NA,"Click To Continue","Continue Button",2,"object-1944","Task Instructions",NA,"SUPPRF14173"
"3",1699646327102,"10/11/2023 19:58:47",1699646327102,0,"10/11/2023 19:58:47",151512,5,"task-w25u",NA,32876473,9736304,NA,"complete",NA,"654e87b6c618dea49325448a","computer","Desktop or Laptop","Windows 10","Chrome 119.0.0.0","1536x864","1536x747",NA,NA,0,"Task Introduction and Instructions (re-introduce video and audio)",1,"HIGJFAEBDC","Passed AC2",NA,"Spreadsheet1",1,"Task Instructions","Screen 2","ce2tc8",2,"continue","",2874.33700000298,2863.274,2874.33700000298,2874.33700000298,2863.274,2874.33700000298,1,2874.33700000298,0,0,NA,"Click To Continue","Continue Button",2,"object-7","Task Instructions",NA,"SUPPRF14173"
"4",1699646329715,"10/11/2023 19:58:49",1699646329715,0,"10/11/2023 19:58:49",151512,5,"task-w25u",NA,32876473,9736304,NA,"complete",NA,"654e87b6c618dea49325448a","computer","Desktop or Laptop","Windows 10","Chrome 119.0.0.0","1536x864","1536x747",NA,NA,0,"Task Introduction and Instructions (re-introduce video and audio)",1,"HIGJFAEBDC","Passed AC2",NA,"Spreadsheet1",1,"Task Instructions","Screen 3","1qtc8v",3,"continue","",2623.76300000596,2613.843,2623.76300000596,2623.76300000596,2613.843,2623.76300000596,1,2623.76300000596,0,0,NA,"Click To Continue","Continue Button",2,"object-52","Task Instructions",NA,"SUPPRF14173"
"5",1699646332244,"10/11/2023 19:58:52",1699646332244,0,"10/11/2023 19:58:52",151512,5,"task-w25u",NA,32876473,9736304,NA,"complete",NA,"654e87b6c618dea49325448a","computer","Desktop or Laptop","Windows 10","Chrome 119.0.0.0","1536x864","1536x747",NA,NA,0,"Task Introduction and Instructions (re-introduce video and audio)",1,"HIGJFAEBDC","Passed AC2",NA,"Spreadsheet1",1,"Task Instructions","Screen 4","spepx9",4,"continue","",2538.81999999702,2530.717,2538.81999999702,2538.81999999702,2530.717,2538.81999999702,1,2538.81999999702,0,0,NA,"Click To Continue","Continue Button",2,"object-9","Task Instructions",NA,"SUPPRF14173"
"6",1699646334578,"10/11/2023 19:58:54",1699646334578,0,"10/11/2023 19:58:54",151512,5,"task-w25u",NA,32876473,9736304,NA,"complete",NA,"654e87b6c618dea49325448a","computer","Desktop or Laptop","Windows 10","Chrome 119.0.0.0","1536x864","1536x747",NA,NA,0,"Task Introduction and Instructions (re-introduce video and audio)",1,"HIGJFAEBDC","Passed AC2",NA,"Spreadsheet1",1,"Task Instructions","Screen 5","8nvnao",5,"continue","",2342.40299999404,2330.752,2342.40299999404,2342.40299999404,2330.752,2342.40299999404,1,2342.40299999404,0,0,NA,"Click To Continue","Continue Button",2,"object-44","Task Instructions",NA,"SUPPRF14173"
"7",1699646334581,"10/11/2023 19:58:54",1699646334581,0,"10/11/2023 19:58:54",151512,5,"task-w25u",NA,32876473,9736304,NA,"complete",NA,"654e87b6c618dea49325448a","computer","Desktop or Laptop","Windows 10","Chrome 119.0.0.0","1536x864","1536x747",NA,NA,0,"Task Introduction and Instructions (re-introduce video and audio)",1,"HIGJFAEBDC","Passed AC2",NA,"Spreadsheet1",NA,"","","",NA,"5","END",NA,NA,NA,NA,NA,NA,0,NA,NA,NA,NA,"","",NA,"","",NA,"SUPPRF14173"
"1",1699647172191,"10/11/2023 20:12:52",1699647172191,0,"10/11/2023 20:12:52",151512,5,"task-w25u",NA,32876956,9736323,NA,"complete",NA,"654e88e1e05e35d574cedefe","computer","Desktop or Laptop","Windows 10","Chrome 119.0.0.0","1164x655","931x405",NA,NA,0,"Task Introduction and Instructions (re-introduce video and audio)",1,"CDBEAFJGIH","Passed AC2",NA,"Spreadsheet1",NA,"","","",NA,"5","BEGIN",NA,NA,NA,NA,NA,NA,0,NA,NA,NA,NA,"","",NA,"","",NA,"SUPPRF70880"
"2",1699647178295,"10/11/2023 20:12:58",1699647178295,0,"10/11/2023 20:12:58",151512,5,"task-w25u",NA,32876956,9736323,NA,"complete",NA,"654e88e1e05e35d574cedefe","computer","Desktop or Laptop","Windows 10","Chrome 119.0.0.0","1164x655","931x405",NA,NA,0,"Task Introduction and Instructions (re-introduce video and audio)",1,"CDBEAFJGIH","Passed AC2",NA,"Spreadsheet1",1,"Task Instructions","Screen 1","anr7sn",1,"continue","",6048.295,6039.5,6048.295,6048.295,6039.5,6048.295,1,6048.295,0,0,NA,"Click To Continue","Continue Button",2,"object-1944","Task Instructions",NA,"SUPPRF70880"
"3",1699647190865,"10/11/2023 20:13:10",1699647190865,0,"10/11/2023 20:13:10",151512,5,"task-w25u",NA,32876956,9736323,NA,"complete",NA,"654e88e1e05e35d574cedefe","computer","Desktop or Laptop","Windows 10","Chrome 119.0.0.0","1164x655","931x405",NA,NA,0,"Task Introduction and Instructions (re-introduce video and audio)",1,"CDBEAFJGIH","Passed AC2",NA,"Spreadsheet1",1,"Task Instructions","Screen 2","ce2tc8",2,"continue","",12578.6949999985,12562.885,12578.6949999985,12578.6949999985,12562.885,12578.6949999985,1,12578.6949999985,0,0,NA,"Click To Continue","Continue Button",2,"object-7","Task Instructions",NA,"SUPPRF70880"
"4",1699647210063,"10/11/2023 20:13:30",1699647210063,0,"10/11/2023 20:13:30",151512,5,"task-w25u",NA,32876956,9736323,NA,"complete",NA,"654e88e1e05e35d574cedefe","computer","Desktop or Laptop","Windows 10","Chrome 119.0.0.0","1164x655","931x405",NA,NA,0,"Task Introduction and Instructions (re-introduce video and audio)",1,"CDBEAFJGIH","Passed AC2",NA,"Spreadsheet1",1,"Task Instructions","Screen 3","1qtc8v",3,"continue","",19214.0100000015,19203.041,19214.0100000015,19214.0100000015,19203.041,19214.0100000015,1,19214.0100000015,0,0,NA,"Click To Continue","Continue Button",2,"object-52","Task Instructions",NA,"SUPPRF70880"
"5",1699647213599,"10/11/2023 20:13:33",1699647213599,0,"10/11/2023 20:13:33",151512,5,"task-w25u",NA,32876956,9736323,NA,"complete",NA,"654e88e1e05e35d574cedefe","computer","Desktop or Laptop","Windows 10","Chrome 119.0.0.0","1164x655","931x405",NA,NA,0,"Task Introduction and Instructions (re-introduce video and audio)",1,"CDBEAFJGIH","Passed AC2",NA,"Spreadsheet1",1,"Task Instructions","Screen 4","spepx9",4,"continue","",3547.369,3536.969,3547.369,3547.369,3536.969,3547.369,1,3547.369,0,0,NA,"Click To Continue","Continue Button",2,"object-9","Task Instructions",NA,"SUPPRF70880"
"6",1699647243903,"10/11/2023 20:14:03",1699647243903,0,"10/11/2023 20:14:03",151512,5,"task-w25u",NA,32876956,9736323,NA,"complete",NA,"654e88e1e05e35d574cedefe","computer","Desktop or Laptop","Windows 10","Chrome 119.0.0.0","1164x655","931x405",NA,NA,0,"Task Introduction and Instructions (re-introduce video and audio)",1,"CDBEAFJGIH","Passed AC2",NA,"Spreadsheet1",1,"Task Instructions","Screen 5","8nvnao",5,"continue","",30314.462,30297.764,30314.462,30314.462,30297.764,30314.462,1,30314.462,0,0,NA,"Click To Continue","Continue Button",2,"object-44","Task Instructions",NA,"SUPPRF70880"
"7",1699647243911,"10/11/2023 20:14:03",1699647243911,0,"10/11/2023 20:14:03",151512,5,"task-w25u",NA,32876956,9736323,NA,"complete",NA,"654e88e1e05e35d574cedefe","computer","Desktop or Laptop","Windows 10","Chrome 119.0.0.0","1164x655","931x405",NA,NA,0,"Task Introduction and Instructions (re-introduce video and audio)",1,"CDBEAFJGIH","Passed AC2",NA,"Spreadsheet1",NA,"","","",NA,"5","END",NA,NA,NA,NA,NA,NA,0,NA,NA,NA,NA,"","",NA,"","",NA,"SUPPRF70880"
"1",1699647141312,"10/11/2023 20:12:21",1699629141312,-5,"10/11/2023 10:12:21",151512,5,"task-w25u",NA,32876940,9736332,NA,"complete",NA,"654e88c2ded265c5d1c67475","computer","Desktop or Laptop","Mac OS 10.15.7","Chrome 117.0.0.0","1440x900","1440x721",NA,NA,0,"Task Introduction and Instructions (re-introduce video and audio)",1,"JAIBHCGDFE","Passed AC2",NA,"Spreadsheet1",NA,"","","",NA,"5","BEGIN",NA,NA,NA,NA,NA,NA,0,NA,NA,NA,NA,"","",NA,"","",NA,"SUPPRF18662"
"2",1699647145725,"10/11/2023 20:12:25",1699629145725,-5,"10/11/2023 10:12:25",151512,5,"task-w25u",NA,32876940,9736332,NA,"complete",NA,"654e88c2ded265c5d1c67475","computer","Desktop or Laptop","Mac OS 10.15.7","Chrome 117.0.0.0","1440x900","1440x721",NA,NA,0,"Task Introduction and Instructions (re-introduce video and audio)",1,"JAIBHCGDFE","Passed AC2",NA,"Spreadsheet1",1,"Task Instructions","Screen 1","anr7sn",1,"continue","",3615.65400001192,3599.856,3615.65400001192,3615.65400001192,3599.856,3615.65400001192,1,3615.65400001192,0,0,NA,"Click To Continue","Continue Button",2,"object-1944","Task Instructions",NA,"SUPPRF18662"
"3",1699647150343,"10/11/2023 20:12:30",1699629150343,-5,"10/11/2023 10:12:30",151512,5,"task-w25u",NA,32876940,9736332,NA,"complete",NA,"654e88c2ded265c5d1c67475","computer","Desktop or Laptop","Mac OS 10.15.7","Chrome 117.0.0.0","1440x900","1440x721",NA,NA,0,"Task Introduction and Instructions (re-introduce video and audio)",1,"JAIBHCGDFE","Passed AC2",NA,"Spreadsheet1",1,"Task Instructions","Screen 2","ce2tc8",2,"continue","",4633.148,4616.482,4633.148,4633.148,4616.482,4633.148,1,4633.148,0,0,NA,"Click To Continue","Continue Button",2,"object-7","Task Instructions",NA,"SUPPRF18662"
"4",1699647153565,"10/11/2023 20:12:33",1699629153565,-5,"10/11/2023 10:12:33",151512,5,"task-w25u",NA,32876940,9736332,NA,"complete",NA,"654e88c2ded265c5d1c67475","computer","Desktop or Laptop","Mac OS 10.15.7","Chrome 117.0.0.0","1440x900","1440x721",NA,NA,0,"Task Introduction and Instructions (re-introduce video and audio)",1,"JAIBHCGDFE","Passed AC2",NA,"Spreadsheet1",1,"Task Instructions","Screen 3","1qtc8v",3,"continue","",3239.103,3222.437,3239.103,3239.103,3222.437,3239.103,1,3239.103,0,0,NA,"Click To Continue","Continue Button",2,"object-52","Task Instructions",NA,"SUPPRF18662"
"5",1699647158688,"10/11/2023 20:12:38",1699629158688,-5,"10/11/2023 10:12:38",151512,5,"task-w25u",NA,32876940,9736332,NA,"complete",NA,"654e88c2ded265c5d1c67475","computer","Desktop or Laptop","Mac OS 10.15.7","Chrome 117.0.0.0","1440x900","1440x721",NA,NA,0,"Task Introduction and Instructions (re-introduce video and audio)",1,"JAIBHCGDFE","Passed AC2",NA,"Spreadsheet1",1,"Task Instructions","Screen 4","spepx9",4,"continue","",5140.579,5133.128,5140.579,5140.579,5133.128,5140.579,1,5140.579,0,0,NA,"Click To Continue","Continue Button",2,"object-9","Task Instructions",NA,"SUPPRF18662"
"6",1699647267411,"10/11/2023 20:14:27",1699629267411,-5,"10/11/2023 10:14:27",151512,5,"task-w25u",NA,32876940,9736332,NA,"complete",NA,"654e88c2ded265c5d1c67475","computer","Desktop or Laptop","Mac OS 10.15.7","Chrome 117.0.0.0","1440x900","1440x721",NA,NA,0,"Task Introduction and Instructions (re-introduce video and audio)",1,"JAIBHCGDFE","Passed AC2",NA,"Spreadsheet1",1,"Task Instructions","Screen 5","8nvnao",5,"continue","",108736.251000012,108730.664,108736.251000012,108736.251000012,108730.664,108736.251000012,1,108736.251000012,0,0,NA,"Click To Continue","Continue Button",2,"object-44","Task Instructions",NA,"SUPPRF18662"
"7",1699647267426,"10/11/2023 20:14:27",1699629267426,-5,"10/11/2023 10:14:27",151512,5,"task-w25u",NA,32876940,9736332,NA,"complete",NA,"654e88c2ded265c5d1c67475","computer","Desktop or Laptop","Mac OS 10.15.7","Chrome 117.0.0.0","1440x900","1440x721",NA,NA,0,"Task Introduction and Instructions (re-introduce video and audio)",1,"JAIBHCGDFE","Passed AC2",NA,"Spreadsheet1",NA,"","","",NA,"5","END",NA,NA,NA,NA,NA,NA,0,NA,NA,NA,NA,"","",NA,"","",NA,"SUPPRF18662"
"1",1699648010866,"10/11/2023 20:26:50",1699648010866,0,"10/11/2023 20:26:50",151512,5,"task-w25u",NA,32877343,9736443,NA,"complete",NA,"654e8cad78caccc654b40be2","computer","Desktop or Laptop","Chromium OS 14541.0.0","Chrome 118.0.0.0","1366x768","1366x644",NA,NA,0,"Task Introduction and Instructions (re-introduce video and audio)",1,"DECFBGAHJI","Passed AC2",NA,"Spreadsheet1",NA,"","","",NA,"5","BEGIN",NA,NA,NA,NA,NA,NA,0,NA,NA,NA,NA,"","",NA,"","",NA,"SUPPRF78305"
"2",1699648015122,"10/11/2023 20:26:55",1699648015122,0,"10/11/2023 20:26:55",151512,5,"task-w25u",NA,32877343,9736443,NA,"complete",NA,"654e8cad78caccc654b40be2","computer","Desktop or Laptop","Chromium OS 14541.0.0","Chrome 118.0.0.0","1366x768","1366x644",NA,NA,0,"Task Introduction and Instructions (re-introduce video and audio)",1,"DECFBGAHJI","Passed AC2",NA,"Spreadsheet1",1,"Task Instructions","Screen 1","anr7sn",1,"continue","",4105.47399999851,4095.99,4105.47399999851,4105.47399999851,4095.99,4105.47399999851,1,4105.47399999851,0,0,NA,"Click To Continue","Continue Button",2,"object-1944","Task Instructions",NA,"SUPPRF78305"
"3",1699648037552,"10/11/2023 20:27:17",1699648037552,0,"10/11/2023 20:27:17",151512,5,"task-w25u",NA,32877343,9736443,NA,"complete",NA,"654e8cad78caccc654b40be2","computer","Desktop or Laptop","Chromium OS 14541.0.0","Chrome 118.0.0.0","1366x768","1366x644",NA,NA,0,"Task Introduction and Instructions (re-introduce video and audio)",1,"DECFBGAHJI","Passed AC2",NA,"Spreadsheet1",1,"Task Instructions","Screen 2","ce2tc8",2,"continue","",22441.2839999993,22427.708,22441.2839999993,22441.2839999993,22427.708,22441.2839999993,1,22441.2839999993,0,0,NA,"Click To Continue","Continue Button",2,"object-7","Task Instructions",NA,"SUPPRF78305"
"4",1699648041812,"10/11/2023 20:27:21",1699648041812,0,"10/11/2023 20:27:21",151512,5,"task-w25u",NA,32877343,9736443,NA,"complete",NA,"654e8cad78caccc654b40be2","computer","Desktop or Laptop","Chromium OS 14541.0.0","Chrome 118.0.0.0","1366x768","1366x644",NA,NA,0,"Task Introduction and Instructions (re-introduce video and audio)",1,"DECFBGAHJI","Passed AC2",NA,"Spreadsheet1",1,"Task Instructions","Screen 3","1qtc8v",3,"continue","",4273.67600000075,4262.79,4273.67600000075,4273.67600000075,4262.79,4273.67600000075,1,4273.67600000075,0,0,NA,"Click To Continue","Continue Button",2,"object-52","Task Instructions",NA,"SUPPRF78305"
"5",1699648044422,"10/11/2023 20:27:24",1699648044422,0,"10/11/2023 20:27:24",151512,5,"task-w25u",NA,32877343,9736443,NA,"complete",NA,"654e8cad78caccc654b40be2","computer","Desktop or Laptop","Chromium OS 14541.0.0","Chrome 118.0.0.0","1366x768","1366x644",NA,NA,0,"Task Introduction and Instructions (re-introduce video and audio)",1,"DECFBGAHJI","Passed AC2",NA,"Spreadsheet1",1,"Task Instructions","Screen 4","spepx9",4,"continue","",2620.98599999851,2614.158,2620.98599999851,2620.98599999851,2614.158,2620.98599999851,1,2620.98599999851,0,0,NA,"Click To Continue","Continue Button",2,"object-9","Task Instructions",NA,"SUPPRF78305"
"6",1699648046869,"10/11/2023 20:27:26",1699648046869,0,"10/11/2023 20:27:26",151512,5,"task-w25u",NA,32877343,9736443,NA,"complete",NA,"654e8cad78caccc654b40be2","computer","Desktop or Laptop","Chromium OS 14541.0.0","Chrome 118.0.0.0","1366x768","1366x644",NA,NA,0,"Task Introduction and Instructions (re-introduce video and audio)",1,"DECFBGAHJI","Passed AC2",NA,"Spreadsheet1",1,"Task Instructions","Screen 5","8nvnao",5,"continue","",2453.428,2447.596,2453.428,2453.428,2447.596,2453.428,1,2453.428,0,0,NA,"Click To Continue","Continue Button",2,"object-44","Task Instructions",NA,"SUPPRF78305"
"7",1699648046879,"10/11/2023 20:27:26",1699648046879,0,"10/11/2023 20:27:26",151512,5,"task-w25u",NA,32877343,9736443,NA,"complete",NA,"654e8cad78caccc654b40be2","computer","Desktop or Laptop","Chromium OS 14541.0.0","Chrome 118.0.0.0","1366x768","1366x644",NA,NA,0,"Task Introduction and Instructions (re-introduce video and audio)",1,"DECFBGAHJI","Passed AC2",NA,"Spreadsheet1",NA,"","","",NA,"5","END",NA,NA,NA,NA,NA,NA,0,NA,NA,NA,NA,"","",NA,"","",NA,"SUPPRF78305"
"1",1699648074404,"10/11/2023 20:27:54",1699619274404,-8,"10/11/2023 04:27:54",151512,5,"task-w25u",NA,32877378,9736448,NA,"complete",NA,"654e8aebc909ed72997ee012","computer","Desktop or Laptop","Windows 10","Chrome 119.0.0.0","1366x768","1366x641",NA,NA,0,"Task Introduction and Instructions (re-introduce video and audio)",1,"FGEHDICJBA","Passed AC2",NA,"Spreadsheet1",NA,"","","",NA,"5","BEGIN",NA,NA,NA,NA,NA,NA,0,NA,NA,NA,NA,"","",NA,"","",NA,"SUPPRF71639"
"2",1699648084355,"10/11/2023 20:28:04",1699619284355,-8,"10/11/2023 04:28:04",151512,5,"task-w25u",NA,32877378,9736448,NA,"complete",NA,"654e8aebc909ed72997ee012","computer","Desktop or Laptop","Windows 10","Chrome 119.0.0.0","1366x768","1366x641",NA,NA,0,"Task Introduction and Instructions (re-introduce video and audio)",1,"FGEHDICJBA","Passed AC2",NA,"Spreadsheet1",1,"Task Instructions","Screen 1","anr7sn",1,"continue","",9795.663,9778.986,9795.663,9795.663,9778.986,9795.663,1,9795.663,0,0,NA,"Click To Continue","Continue Button",2,"object-1944","Task Instructions",NA,"SUPPRF71639"
"3",1699648106266,"10/11/2023 20:28:26",1699619306266,-8,"10/11/2023 04:28:26",151512,5,"task-w25u",NA,32877378,9736448,NA,"complete",NA,"654e8aebc909ed72997ee012","computer","Desktop or Laptop","Windows 10","Chrome 119.0.0.0","1366x768","1366x641",NA,NA,0,"Task Introduction and Instructions (re-introduce video and audio)",1,"FGEHDICJBA","Passed AC2",NA,"Spreadsheet1",1,"Task Instructions","Screen 2","ce2tc8",2,"continue","",21932.6449998093,21923.392,21932.6449998093,21932.6449998093,21923.392,21932.6449998093,1,21932.6449998093,0,0,NA,"Click To Continue","Continue Button",2,"object-7","Task Instructions",NA,"SUPPRF71639"
"4",1699648115753,"10/11/2023 20:28:35",1699619315753,-8,"10/11/2023 04:28:35",151512,5,"task-w25u",NA,32877378,9736448,NA,"complete",NA,"654e8aebc909ed72997ee012","computer","Desktop or Laptop","Windows 10","Chrome 119.0.0.0","1366x768","1366x641",NA,NA,0,"Task Introduction and Instructions (re-introduce video and audio)",1,"FGEHDICJBA","Passed AC2",NA,"Spreadsheet1",1,"Task Instructions","Screen 3","1qtc8v",3,"continue","",9495.61499999999,9479.003,9495.61499999999,9495.61499999999,9479.003,9495.61499999999,1,9495.61499999999,0,0,NA,"Click To Continue","Continue Button",2,"object-52","Task Instructions",NA,"SUPPRF71639"
"5",1699648191003,"10/11/2023 20:29:51",1699619391003,-8,"10/11/2023 04:29:51",151512,5,"task-w25u",NA,32877378,9736448,NA,"complete",NA,"654e8aebc909ed72997ee012","computer","Desktop or Laptop","Windows 10","Chrome 119.0.0.0","1366x768","1366x641",NA,NA,0,"Task Introduction and Instructions (re-introduce video and audio)",1,"FGEHDICJBA","Passed AC2",NA,"Spreadsheet1",1,"Task Instructions","Screen 4","spepx9",4,"continue","",75268.2499998093,75266.066,75268.2499998093,75268.2499998093,75266.066,75268.2499998093,1,75268.2499998093,0,0,NA,"Click To Continue","Continue Button",2,"object-9","Task Instructions",NA,"SUPPRF71639"
"6",1699648196826,"10/11/2023 20:29:56",1699619396826,-8,"10/11/2023 04:29:56",151512,5,"task-w25u",NA,32877378,9736448,NA,"complete",NA,"654e8aebc909ed72997ee012","computer","Desktop or Laptop","Windows 10","Chrome 119.0.0.0","1366x768","1366x641",NA,NA,0,"Task Introduction and Instructions (re-introduce video and audio)",1,"FGEHDICJBA","Passed AC2",NA,"Spreadsheet1",1,"Task Instructions","Screen 5","8nvnao",5,"continue","",5824.58399990463,5813.86099999999,5824.58399990463,5824.58399990463,5813.86099999999,5824.58399990463,1,5824.58399990463,0,0,NA,"Click To Continue","Continue Button",2,"object-44","Task Instructions",NA,"SUPPRF71639"
"7",1699648196840,"10/11/2023 20:29:56",1699619396840,-8,"10/11/2023 04:29:56",151512,5,"task-w25u",NA,32877378,9736448,NA,"complete",NA,"654e8aebc909ed72997ee012","computer","Desktop or Laptop","Windows 10","Chrome 119.0.0.0","1366x768","1366x641",NA,NA,0,"Task Introduction and Instructions (re-introduce video and audio)",1,"FGEHDICJBA","Passed AC2",NA,"Spreadsheet1",NA,"","","",NA,"5","END",NA,NA,NA,NA,NA,NA,0,NA,NA,NA,NA,"","",NA,"","",NA,"SUPPRF71639"
"1",1699647122393,"10/11/2023 20:12:02",1699629122393,-5,"10/11/2023 10:12:02",151512,5,"task-w25u",NA,32876931,9736452,NA,"complete",NA,"654e8d398eacfdd3d39eabfc","computer","Desktop or Laptop","Windows 10","Chrome 119.0.0.0","1280x575","1280x573",NA,NA,0,"Task Introduction and Instructions (re-introduce video and audio)",1,"EFDGCHBIAJ","Passed AC2",NA,"Spreadsheet1",NA,"","","",NA,"5","BEGIN",NA,NA,NA,NA,NA,NA,0,NA,NA,NA,NA,"","",NA,"","",NA,"SUPPRF56870"
"2",1699647125204,"10/11/2023 20:12:05",1699629125204,-5,"10/11/2023 10:12:05",151512,5,"task-w25u",NA,32876931,9736452,NA,"complete",NA,"654e8d398eacfdd3d39eabfc","computer","Desktop or Laptop","Windows 10","Chrome 119.0.0.0","1280x575","1280x573",NA,NA,0,"Task Introduction and Instructions (re-introduce video and audio)",1,"EFDGCHBIAJ","Passed AC2",NA,"Spreadsheet1",1,"Task Instructions","Screen 1","anr7sn",1,"continue","",2757,2751,2757,2757,2751,2757,1,2757,0,0,NA,"Click To Continue","Continue Button",2,"object-1944","Task Instructions",NA,"SUPPRF56870"
"3",1699647128037,"10/11/2023 20:12:08",1699629128037,-5,"10/11/2023 10:12:08",151512,5,"task-w25u",NA,32876931,9736452,NA,"complete",NA,"654e8d398eacfdd3d39eabfc","computer","Desktop or Laptop","Windows 10","Chrome 119.0.0.0","1280x575","1280x573",NA,NA,0,"Task Introduction and Instructions (re-introduce video and audio)",1,"EFDGCHBIAJ","Passed AC2",NA,"Spreadsheet1",1,"Task Instructions","Screen 2","ce2tc8",2,"continue","",2840,2834,2840,2840,2834,2840,1,2840,0,0,NA,"Click To Continue","Continue Button",2,"object-7","Task Instructions",NA,"SUPPRF56870"
"4",1699647131282,"10/11/2023 20:12:11",1699629131282,-5,"10/11/2023 10:12:11",151512,5,"task-w25u",NA,32876931,9736452,NA,"complete",NA,"654e8d398eacfdd3d39eabfc","computer","Desktop or Laptop","Windows 10","Chrome 119.0.0.0","1280x575","1280x573",NA,NA,0,"Task Introduction and Instructions (re-introduce video and audio)",1,"EFDGCHBIAJ","Passed AC2",NA,"Spreadsheet1",1,"Task Instructions","Screen 3","1qtc8v",3,"continue","",3251,3235,3251,3251,3235,3251,1,3251,0,0,NA,"Click To Continue","Continue Button",2,"object-52","Task Instructions",NA,"SUPPRF56870"
"5",1699647136850,"10/11/2023 20:12:16",1699629136850,-5,"10/11/2023 10:12:16",151512,5,"task-w25u",NA,32876931,9736452,NA,"complete",NA,"654e8d398eacfdd3d39eabfc","computer","Desktop or Laptop","Windows 10","Chrome 119.0.0.0","1280x575","1280x573",NA,NA,0,"Task Introduction and Instructions (re-introduce video and audio)",1,"EFDGCHBIAJ","Passed AC2",NA,"Spreadsheet1",1,"Task Instructions","Screen 4","spepx9",4,"continue","",5584,5569,5584,5584,5569,5584,1,5584,0,0,NA,"Click To Continue","Continue Button",2,"object-9","Task Instructions",NA,"SUPPRF56870"
"6",1699647139963,"10/11/2023 20:12:19",1699629139963,-5,"10/11/2023 10:12:19",151512,5,"task-w25u",NA,32876931,9736452,NA,"complete",NA,"654e8d398eacfdd3d39eabfc","computer","Desktop or Laptop","Windows 10","Chrome 119.0.0.0","1280x575","1280x573",NA,NA,0,"Task Introduction and Instructions (re-introduce video and audio)",1,"EFDGCHBIAJ","Passed AC2",NA,"Spreadsheet1",1,"Task Instructions","Screen 5","8nvnao",5,"continue","",3128,3117,3128,3128,3117,3128,1,3128,0,0,NA,"Click To Continue","Continue Button",2,"object-44","Task Instructions",NA,"SUPPRF56870"
"7",1699647139968,"10/11/2023 20:12:19",1699629139968,-5,"10/11/2023 10:12:19",151512,5,"task-w25u",NA,32876931,9736452,NA,"complete",NA,"654e8d398eacfdd3d39eabfc","computer","Desktop or Laptop","Windows 10","Chrome 119.0.0.0","1280x575","1280x573",NA,NA,0,"Task Introduction and Instructions (re-introduce video and audio)",1,"EFDGCHBIAJ","Passed AC2",NA,"Spreadsheet1",NA,"","","",NA,"5","END",NA,NA,NA,NA,NA,NA,0,NA,NA,NA,NA,"","",NA,"","",NA,"SUPPRF56870"
"1",1699648832039,"10/11/2023 20:40:32",1699648832039,0,"10/11/2023 20:40:32",151512,5,"task-w25u",NA,32877734,9736478,NA,"complete",NA,"654e8e12eb2bfc6a86d4511d","computer","Desktop or Laptop","Windows 10","Chrome 119.0.0.0","1366x768","1366x611",NA,NA,0,"Task Introduction and Instructions (re-introduce video and audio)",1,"JAIBHCGDFE","Passed AC2",NA,"Spreadsheet1",NA,"","","",NA,"5","BEGIN",NA,NA,NA,NA,NA,NA,0,NA,NA,NA,NA,"","",NA,"","",NA,"SUPPRF86502"
"2",1699648835293,"10/11/2023 20:40:35",1699648835293,0,"10/11/2023 20:40:35",151512,5,"task-w25u",NA,32877734,9736478,NA,"complete",NA,"654e8e12eb2bfc6a86d4511d","computer","Desktop or Laptop","Windows 10","Chrome 119.0.0.0","1366x768","1366x611",NA,NA,0,"Task Introduction and Instructions (re-introduce video and audio)",1,"JAIBHCGDFE","Passed AC2",NA,"Spreadsheet1",1,"Task Instructions","Screen 1","anr7sn",1,"continue","",3181.94100001192,3166.635,3181.94100001192,3181.94100001192,3166.635,3181.94100001192,1,3181.94100001192,0,0,NA,"Click To Continue","Continue Button",2,"object-1944","Task Instructions",NA,"SUPPRF86502"
"3",1699648839256,"10/11/2023 20:40:39",1699648839256,0,"10/11/2023 20:40:39",151512,5,"task-w25u",NA,32877734,9736478,NA,"complete",NA,"654e8e12eb2bfc6a86d4511d","computer","Desktop or Laptop","Windows 10","Chrome 119.0.0.0","1366x768","1366x611",NA,NA,0,"Task Introduction and Instructions (re-introduce video and audio)",1,"JAIBHCGDFE","Passed AC2",NA,"Spreadsheet1",1,"Task Instructions","Screen 2","ce2tc8",2,"continue","",3978.992,3962.276,3978.992,3978.992,3962.276,3978.992,1,3978.992,0,0,NA,"Click To Continue","Continue Button",2,"object-7","Task Instructions",NA,"SUPPRF86502"
"4",1699648842219,"10/11/2023 20:40:42",1699648842219,0,"10/11/2023 20:40:42",151512,5,"task-w25u",NA,32877734,9736478,NA,"complete",NA,"654e8e12eb2bfc6a86d4511d","computer","Desktop or Laptop","Windows 10","Chrome 119.0.0.0","1366x768","1366x611",NA,NA,0,"Task Introduction and Instructions (re-introduce video and audio)",1,"JAIBHCGDFE","Passed AC2",NA,"Spreadsheet1",1,"Task Instructions","Screen 3","1qtc8v",3,"continue","",2980.12999997616,2967.533,2980.12999997616,2980.12999997616,2967.533,2980.12999997616,1,2980.12999997616,0,0,NA,"Click To Continue","Continue Button",2,"object-52","Task Instructions",NA,"SUPPRF86502"
"5",1699648847191,"10/11/2023 20:40:47",1699648847191,0,"10/11/2023 20:40:47",151512,5,"task-w25u",NA,32877734,9736478,NA,"complete",NA,"654e8e12eb2bfc6a86d4511d","computer","Desktop or Laptop","Windows 10","Chrome 119.0.0.0","1366x768","1366x611",NA,NA,0,"Task Introduction and Instructions (re-introduce video and audio)",1,"JAIBHCGDFE","Passed AC2",NA,"Spreadsheet1",1,"Task Instructions","Screen 4","spepx9",4,"continue","",4984.59699997616,4973.633,4984.59699997616,4984.59699997616,4973.633,4984.59699997616,1,4984.59699997616,0,0,NA,"Click To Continue","Continue Button",2,"object-9","Task Instructions",NA,"SUPPRF86502"
"6",1699648852774,"10/11/2023 20:40:52",1699648852774,0,"10/11/2023 20:40:52",151512,5,"task-w25u",NA,32877734,9736478,NA,"complete",NA,"654e8e12eb2bfc6a86d4511d","computer","Desktop or Laptop","Windows 10","Chrome 119.0.0.0","1366x768","1366x611",NA,NA,0,"Task Introduction and Instructions (re-introduce video and audio)",1,"JAIBHCGDFE","Passed AC2",NA,"Spreadsheet1",1,"Task Instructions","Screen 5","8nvnao",5,"continue","",5593.96399997616,5587.13,5593.96399997616,5593.96399997616,5587.13,5593.96399997616,1,5593.96399997616,0,0,NA,"Click To Continue","Continue Button",2,"object-44","Task Instructions",NA,"SUPPRF86502"
"7",1699648852785,"10/11/2023 20:40:52",1699648852785,0,"10/11/2023 20:40:52",151512,5,"task-w25u",NA,32877734,9736478,NA,"complete",NA,"654e8e12eb2bfc6a86d4511d","computer","Desktop or Laptop","Windows 10","Chrome 119.0.0.0","1366x768","1366x611",NA,NA,0,"Task Introduction and Instructions (re-introduce video and audio)",1,"JAIBHCGDFE","Passed AC2",NA,"Spreadsheet1",NA,"","","",NA,"5","END",NA,NA,NA,NA,NA,NA,0,NA,NA,NA,NA,"","",NA,"","",NA,"SUPPRF86502"
"1",1699648529186,"10/11/2023 20:35:29",1699648529186,0,"10/11/2023 20:35:29",151512,5,"task-w25u",NA,32877589,9736517,NA,"complete",NA,"654e8ea629c9163bda2b2c90","computer","Desktop or Laptop","Windows 10","Chrome 119.0.0.0","1280x720","1280x595",NA,NA,0,"Task Introduction and Instructions (re-introduce video and audio)",1,"GHFIEJDACB","Passed AC2",NA,"Spreadsheet1",NA,"","","",NA,"5","BEGIN",NA,NA,NA,NA,NA,NA,0,NA,NA,NA,NA,"","",NA,"","",NA,"SUPPRF12592"
"2",1699648532300,"10/11/2023 20:35:32",1699648532300,0,"10/11/2023 20:35:32",151512,5,"task-w25u",NA,32877589,9736517,NA,"complete",NA,"654e8ea629c9163bda2b2c90","computer","Desktop or Laptop","Windows 10","Chrome 119.0.0.0","1280x720","1280x595",NA,NA,0,"Task Introduction and Instructions (re-introduce video and audio)",1,"GHFIEJDACB","Passed AC2",NA,"Spreadsheet1",1,"Task Instructions","Screen 1","anr7sn",1,"continue","",3049.721,3033.047,3049.721,3049.721,3033.047,3049.721,1,3049.721,0,0,NA,"Click To Continue","Continue Button",2,"object-1944","Task Instructions",NA,"SUPPRF12592"
"3",1699648536636,"10/11/2023 20:35:36",1699648536636,0,"10/11/2023 20:35:36",151512,5,"task-w25u",NA,32877589,9736517,NA,"complete",NA,"654e8ea629c9163bda2b2c90","computer","Desktop or Laptop","Windows 10","Chrome 119.0.0.0","1280x720","1280x595",NA,NA,0,"Task Introduction and Instructions (re-introduce video and audio)",1,"GHFIEJDACB","Passed AC2",NA,"Spreadsheet1",1,"Task Instructions","Screen 2","ce2tc8",2,"continue","",4353.87400000149,4349.43,4353.87400000149,4353.87400000149,4349.43,4353.87400000149,1,4353.87400000149,0,0,NA,"Click To Continue","Continue Button",2,"object-7","Task Instructions",NA,"SUPPRF12592"
"4",1699648539396,"10/11/2023 20:35:39",1699648539396,0,"10/11/2023 20:35:39",151512,5,"task-w25u",NA,32877589,9736517,NA,"complete",NA,"654e8ea629c9163bda2b2c90","computer","Desktop or Laptop","Windows 10","Chrome 119.0.0.0","1280x720","1280x595",NA,NA,0,"Task Introduction and Instructions (re-introduce video and audio)",1,"GHFIEJDACB","Passed AC2",NA,"Spreadsheet1",1,"Task Instructions","Screen 3","1qtc8v",3,"continue","",2764.54399999925,2749.69,2764.54399999925,2764.54399999925,2749.69,2764.54399999925,1,2764.54399999925,0,0,NA,"Click To Continue","Continue Button",2,"object-52","Task Instructions",NA,"SUPPRF12592"
"5",1699648542243,"10/11/2023 20:35:42",1699648542243,0,"10/11/2023 20:35:42",151512,5,"task-w25u",NA,32877589,9736517,NA,"complete",NA,"654e8ea629c9163bda2b2c90","computer","Desktop or Laptop","Windows 10","Chrome 119.0.0.0","1280x720","1280x595",NA,NA,0,"Task Introduction and Instructions (re-introduce video and audio)",1,"GHFIEJDACB","Passed AC2",NA,"Spreadsheet1",1,"Task Instructions","Screen 4","spepx9",4,"continue","",2862.55399999851,2849.592,2862.55399999851,2862.55399999851,2849.592,2862.55399999851,1,2862.55399999851,0,0,NA,"Click To Continue","Continue Button",2,"object-9","Task Instructions",NA,"SUPPRF12592"
"6",1699648544881,"10/11/2023 20:35:44",1699648544881,0,"10/11/2023 20:35:44",151512,5,"task-w25u",NA,32877589,9736517,NA,"complete",NA,"654e8ea629c9163bda2b2c90","computer","Desktop or Laptop","Windows 10","Chrome 119.0.0.0","1280x720","1280x595",NA,NA,0,"Task Introduction and Instructions (re-introduce video and audio)",1,"GHFIEJDACB","Passed AC2",NA,"Spreadsheet1",1,"Task Instructions","Screen 5","8nvnao",5,"continue","",2649.539,2632.925,2649.539,2649.539,2632.925,2649.539,1,2649.539,0,0,NA,"Click To Continue","Continue Button",2,"object-44","Task Instructions",NA,"SUPPRF12592"
"7",1699648544886,"10/11/2023 20:35:44",1699648544886,0,"10/11/2023 20:35:44",151512,5,"task-w25u",NA,32877589,9736517,NA,"complete",NA,"654e8ea629c9163bda2b2c90","computer","Desktop or Laptop","Windows 10","Chrome 119.0.0.0","1280x720","1280x595",NA,NA,0,"Task Introduction and Instructions (re-introduce video and audio)",1,"GHFIEJDACB","Passed AC2",NA,"Spreadsheet1",NA,"","","",NA,"5","END",NA,NA,NA,NA,NA,NA,0,NA,NA,NA,NA,"","",NA,"","",NA,"SUPPRF12592"
"1",1699649017681,"10/11/2023 20:43:37",1699627417681,-6,"10/11/2023 08:43:37",151512,5,"task-w25u",NA,32877823,9736585,NA,"complete",NA,"654e93e48c82e7ef2c94ad9e","computer","Desktop or Laptop","Mac OS 10.15.7","Chrome 119.0.0.0","1470x956","1470x749",NA,NA,0,"Task Introduction and Instructions (re-introduce video and audio)",1,"ABJCIDHEGF","Passed AC2",NA,"Spreadsheet1",NA,"","","",NA,"5","BEGIN",NA,NA,NA,NA,NA,NA,0,NA,NA,NA,NA,"","",NA,"","",NA,"SUPPRF53463"
"2",1699649022455,"10/11/2023 20:43:42",1699627422455,-6,"10/11/2023 08:43:42",151512,5,"task-w25u",NA,32877823,9736585,NA,"complete",NA,"654e93e48c82e7ef2c94ad9e","computer","Desktop or Laptop","Mac OS 10.15.7","Chrome 119.0.0.0","1470x956","1470x749",NA,NA,0,"Task Introduction and Instructions (re-introduce video and audio)",1,"ABJCIDHEGF","Passed AC2",NA,"Spreadsheet1",1,"Task Instructions","Screen 1","anr7sn",1,"continue","",4133.168,4116.502,4133.168,4133.168,4116.502,4133.168,1,4133.168,0,0,NA,"Click To Continue","Continue Button",2,"object-1944","Task Instructions",NA,"SUPPRF53463"
"3",1699649038031,"10/11/2023 20:43:58",1699627438031,-6,"10/11/2023 08:43:58",151512,5,"task-w25u",NA,32877823,9736585,NA,"complete",NA,"654e93e48c82e7ef2c94ad9e","computer","Desktop or Laptop","Mac OS 10.15.7","Chrome 119.0.0.0","1470x956","1470x749",NA,NA,0,"Task Introduction and Instructions (re-introduce video and audio)",1,"ABJCIDHEGF","Passed AC2",NA,"Spreadsheet1",1,"Task Instructions","Screen 2","ce2tc8",2,"continue","",15599.350000006,15583.468,15599.350000006,15599.350000006,15583.468,15599.350000006,1,15599.350000006,0,0,NA,"Click To Continue","Continue Button",2,"object-7","Task Instructions",NA,"SUPPRF53463"
"4",1699649045729,"10/11/2023 20:44:05",1699627445729,-6,"10/11/2023 08:44:05",151512,5,"task-w25u",NA,32877823,9736585,NA,"complete",NA,"654e93e48c82e7ef2c94ad9e","computer","Desktop or Laptop","Mac OS 10.15.7","Chrome 119.0.0.0","1470x956","1470x749",NA,NA,0,"Task Introduction and Instructions (re-introduce video and audio)",1,"ABJCIDHEGF","Passed AC2",NA,"Spreadsheet1",1,"Task Instructions","Screen 3","1qtc8v",3,"continue","",7713.88200000596,7699.692,7713.88200000596,7713.88200000596,7699.692,7713.88200000596,1,7713.88200000596,0,0,NA,"Click To Continue","Continue Button",2,"object-52","Task Instructions",NA,"SUPPRF53463"
"5",1699649055291,"10/11/2023 20:44:15",1699627455291,-6,"10/11/2023 08:44:15",151512,5,"task-w25u",NA,32877823,9736585,NA,"complete",NA,"654e93e48c82e7ef2c94ad9e","computer","Desktop or Laptop","Mac OS 10.15.7","Chrome 119.0.0.0","1470x956","1470x749",NA,NA,0,"Task Introduction and Instructions (re-introduce video and audio)",1,"ABJCIDHEGF","Passed AC2",NA,"Spreadsheet1",1,"Task Instructions","Screen 4","spepx9",4,"continue","",9575.49000000298,9566.658,9575.49000000298,9575.49000000298,9566.658,9575.49000000298,1,9575.49000000298,0,0,NA,"Click To Continue","Continue Button",2,"object-9","Task Instructions",NA,"SUPPRF53463"
"6",1699649059554,"10/11/2023 20:44:19",1699627459554,-6,"10/11/2023 08:44:19",151512,5,"task-w25u",NA,32877823,9736585,NA,"complete",NA,"654e93e48c82e7ef2c94ad9e","computer","Desktop or Laptop","Mac OS 10.15.7","Chrome 119.0.0.0","1470x956","1470x749",NA,NA,0,"Task Introduction and Instructions (re-introduce video and audio)",1,"ABJCIDHEGF","Passed AC2",NA,"Spreadsheet1",1,"Task Instructions","Screen 5","8nvnao",5,"continue","",4272.03200000596,4266.879,4272.03200000596,4272.03200000596,4266.879,4272.03200000596,1,4272.03200000596,0,0,NA,"Click To Continue","Continue Button",2,"object-44","Task Instructions",NA,"SUPPRF53463"
"7",1699649059560,"10/11/2023 20:44:19",1699627459560,-6,"10/11/2023 08:44:19",151512,5,"task-w25u",NA,32877823,9736585,NA,"complete",NA,"654e93e48c82e7ef2c94ad9e","computer","Desktop or Laptop","Mac OS 10.15.7","Chrome 119.0.0.0","1470x956","1470x749",NA,NA,0,"Task Introduction and Instructions (re-introduce video and audio)",1,"ABJCIDHEGF","Passed AC2",NA,"Spreadsheet1",NA,"","","",NA,"5","END",NA,NA,NA,NA,NA,NA,0,NA,NA,NA,NA,"","",NA,"","",NA,"SUPPRF53463"
"1",1699649078626,"10/11/2023 20:44:38",1699631078626,-5,"10/11/2023 10:44:38",151512,5,"task-w25u",NA,32877860,9736544,NA,"complete",NA,"654e91b16820a1510682b4e1","computer","Desktop or Laptop","Mac OS 10.15.7","Chrome 115.0.0.0","1440x900","1440x815",NA,NA,0,"Task Introduction and Instructions (re-introduce video and audio)",1,"HIGJFAEBDC","Passed AC2",NA,"Spreadsheet1",NA,"","","",NA,"5","BEGIN",NA,NA,NA,NA,NA,NA,0,NA,NA,NA,NA,"","",NA,"","",NA,"SUPPRF17225"
"2",1699649091772,"10/11/2023 20:44:51",1699631091772,-5,"10/11/2023 10:44:51",151512,5,"task-w25u",NA,32877860,9736544,NA,"complete",NA,"654e91b16820a1510682b4e1","computer","Desktop or Laptop","Mac OS 10.15.7","Chrome 115.0.0.0","1440x900","1440x815",NA,NA,0,"Task Introduction and Instructions (re-introduce video and audio)",1,"HIGJFAEBDC","Passed AC2",NA,"Spreadsheet1",1,"Task Instructions","Screen 1","anr7sn",1,"continue","",13095.3109999523,13084.608,13095.3109999523,13095.3109999523,13084.608,13095.3109999523,1,13095.3109999523,0,0,NA,"Click To Continue","Continue Button",2,"object-1944","Task Instructions",NA,"SUPPRF17225"
"3",1699649104770,"10/11/2023 20:45:04",1699631104770,-5,"10/11/2023 10:45:04",151512,5,"task-w25u",NA,32877860,9736544,NA,"complete",NA,"654e91b16820a1510682b4e1","computer","Desktop or Laptop","Mac OS 10.15.7","Chrome 115.0.0.0","1440x900","1440x815",NA,NA,0,"Task Introduction and Instructions (re-introduce video and audio)",1,"HIGJFAEBDC","Passed AC2",NA,"Spreadsheet1",1,"Task Instructions","Screen 2","ce2tc8",2,"continue","",13008.403,13000.73,13008.403,13008.403,13000.73,13008.403,1,13008.403,0,0,NA,"Click To Continue","Continue Button",2,"object-7","Task Instructions",NA,"SUPPRF17225"
"4",1699649110152,"10/11/2023 20:45:10",1699631110152,-5,"10/11/2023 10:45:10",151512,5,"task-w25u",NA,32877860,9736544,NA,"complete",NA,"654e91b16820a1510682b4e1","computer","Desktop or Laptop","Mac OS 10.15.7","Chrome 115.0.0.0","1440x900","1440x815",NA,NA,0,"Task Introduction and Instructions (re-introduce video and audio)",1,"HIGJFAEBDC","Passed AC2",NA,"Spreadsheet1",1,"Task Instructions","Screen 3","1qtc8v",3,"continue","",5389.57299997616,5383.441,5389.57299997616,5389.57299997616,5383.441,5389.57299997616,1,5389.57299997616,0,0,NA,"Click To Continue","Continue Button",2,"object-52","Task Instructions",NA,"SUPPRF17225"
"5",1699649140980,"10/11/2023 20:45:40",1699631140980,-5,"10/11/2023 10:45:40",151512,5,"task-w25u",NA,32877860,9736544,NA,"complete",NA,"654e91b16820a1510682b4e1","computer","Desktop or Laptop","Mac OS 10.15.7","Chrome 115.0.0.0","1440x900","1440x815",NA,NA,0,"Task Introduction and Instructions (re-introduce video and audio)",1,"HIGJFAEBDC","Passed AC2",NA,"Spreadsheet1",1,"Task Instructions","Screen 4","spepx9",4,"continue","",30833.4319999881,30819.242,30833.4319999881,30833.4319999881,30819.242,30833.4319999881,1,30833.4319999881,0,0,NA,"Click To Continue","Continue Button",2,"object-9","Task Instructions",NA,"SUPPRF17225"
"6",1699649144553,"10/11/2023 20:45:44",1699631144553,-5,"10/11/2023 10:45:44",151512,5,"task-w25u",NA,32877860,9736544,NA,"complete",NA,"654e91b16820a1510682b4e1","computer","Desktop or Laptop","Mac OS 10.15.7","Chrome 115.0.0.0","1440x900","1440x815",NA,NA,0,"Task Introduction and Instructions (re-introduce video and audio)",1,"HIGJFAEBDC","Passed AC2",NA,"Spreadsheet1",1,"Task Instructions","Screen 5","8nvnao",5,"continue","",3586.99,3583.40499999999,3586.99,3586.99,3583.40499999999,3586.99,1,3586.99,0,0,NA,"Click To Continue","Continue Button",2,"object-44","Task Instructions",NA,"SUPPRF17225"
"7",1699649144555,"10/11/2023 20:45:44",1699631144555,-5,"10/11/2023 10:45:44",151512,5,"task-w25u",NA,32877860,9736544,NA,"complete",NA,"654e91b16820a1510682b4e1","computer","Desktop or Laptop","Mac OS 10.15.7","Chrome 115.0.0.0","1440x900","1440x815",NA,NA,0,"Task Introduction and Instructions (re-introduce video and audio)",1,"HIGJFAEBDC","Passed AC2",NA,"Spreadsheet1",NA,"","","",NA,"5","END",NA,NA,NA,NA,NA,NA,0,NA,NA,NA,NA,"","",NA,"","",NA,"SUPPRF17225"
"1",1699650404065,"10/11/2023 21:06:44",1699632404065,-5,"10/11/2023 11:06:44",151512,5,"task-w25u",NA,32878318,9736663,NA,"complete",NA,"654e9831d2cecbb0572b0e0c","computer","Desktop or Laptop","Windows 10","Chrome 119.0.0.0","1366x768","1366x651",NA,NA,0,"Task Introduction and Instructions (re-introduce video and audio)",1,"BCADJEIFHG","Passed AC2",NA,"Spreadsheet1",NA,"","","",NA,"5","BEGIN",NA,NA,NA,NA,NA,NA,0,NA,NA,NA,NA,"","",NA,"","",NA,"SUPPRF34408"
"2",1699650407286,"10/11/2023 21:06:47",1699632407286,-5,"10/11/2023 11:06:47",151512,5,"task-w25u",NA,32878318,9736663,NA,"complete",NA,"654e9831d2cecbb0572b0e0c","computer","Desktop or Laptop","Windows 10","Chrome 119.0.0.0","1366x768","1366x651",NA,NA,0,"Task Introduction and Instructions (re-introduce video and audio)",1,"BCADJEIFHG","Passed AC2",NA,"Spreadsheet1",1,"Task Instructions","Screen 1","anr7sn",1,"continue","",2979.21999999925,2966.476,2979.21999999925,2979.21999999925,2966.476,2979.21999999925,1,2979.21999999925,0,0,NA,"Click To Continue","Continue Button",2,"object-1944","Task Instructions",NA,"SUPPRF34408"
"3",1699650411605,"10/11/2023 21:06:51",1699632411605,-5,"10/11/2023 11:06:51",151512,5,"task-w25u",NA,32878318,9736663,NA,"complete",NA,"654e9831d2cecbb0572b0e0c","computer","Desktop or Laptop","Windows 10","Chrome 119.0.0.0","1366x768","1366x651",NA,NA,0,"Task Introduction and Instructions (re-introduce video and audio)",1,"BCADJEIFHG","Passed AC2",NA,"Spreadsheet1",1,"Task Instructions","Screen 2","ce2tc8",2,"continue","",4331.544,4316.48,4331.544,4331.544,4316.48,4331.544,1,4331.544,0,0,NA,"Click To Continue","Continue Button",2,"object-7","Task Instructions",NA,"SUPPRF34408"
"4",1699650414348,"10/11/2023 21:06:54",1699632414348,-5,"10/11/2023 11:06:54",151512,5,"task-w25u",NA,32878318,9736663,NA,"complete",NA,"654e9831d2cecbb0572b0e0c","computer","Desktop or Laptop","Windows 10","Chrome 119.0.0.0","1366x768","1366x651",NA,NA,0,"Task Introduction and Instructions (re-introduce video and audio)",1,"BCADJEIFHG","Passed AC2",NA,"Spreadsheet1",1,"Task Instructions","Screen 3","1qtc8v",3,"continue","",2758.46399999851,2749.875,2758.46399999851,2758.46399999851,2749.875,2758.46399999851,1,2758.46399999851,0,0,NA,"Click To Continue","Continue Button",2,"object-52","Task Instructions",NA,"SUPPRF34408"
"5",1699650417203,"10/11/2023 21:06:57",1699632417203,-5,"10/11/2023 11:06:57",151512,5,"task-w25u",NA,32878318,9736663,NA,"complete",NA,"654e9831d2cecbb0572b0e0c","computer","Desktop or Laptop","Windows 10","Chrome 119.0.0.0","1366x768","1366x651",NA,NA,0,"Task Introduction and Instructions (re-introduce video and audio)",1,"BCADJEIFHG","Passed AC2",NA,"Spreadsheet1",1,"Task Instructions","Screen 4","spepx9",4,"continue","",2864.189,2849.864,2864.189,2864.189,2849.864,2864.189,1,2864.189,0,0,NA,"Click To Continue","Continue Button",2,"object-9","Task Instructions",NA,"SUPPRF34408"
"6",1699650420485,"10/11/2023 21:07:00",1699632420485,-5,"10/11/2023 11:07:00",151512,5,"task-w25u",NA,32878318,9736663,NA,"complete",NA,"654e9831d2cecbb0572b0e0c","computer","Desktop or Laptop","Windows 10","Chrome 119.0.0.0","1366x768","1366x651",NA,NA,0,"Task Introduction and Instructions (re-introduce video and audio)",1,"BCADJEIFHG","Passed AC2",NA,"Spreadsheet1",1,"Task Instructions","Screen 5","8nvnao",5,"continue","",3296.12500000075,3283.166,3296.12500000075,3296.12500000075,3283.166,3296.12500000075,1,3296.12500000075,0,0,NA,"Click To Continue","Continue Button",2,"object-44","Task Instructions",NA,"SUPPRF34408"
"7",1699650420488,"10/11/2023 21:07:00",1699632420488,-5,"10/11/2023 11:07:00",151512,5,"task-w25u",NA,32878318,9736663,NA,"complete",NA,"654e9831d2cecbb0572b0e0c","computer","Desktop or Laptop","Windows 10","Chrome 119.0.0.0","1366x768","1366x651",NA,NA,0,"Task Introduction and Instructions (re-introduce video and audio)",1,"BCADJEIFHG","Passed AC2",NA,"Spreadsheet1",NA,"","","",NA,"5","END",NA,NA,NA,NA,NA,NA,0,NA,NA,NA,NA,"","",NA,"","",NA,"SUPPRF34408"
"1",1699650344671,"10/11/2023 21:05:44",1699628744671,-6,"10/11/2023 09:05:44",151512,5,"task-w25u",NA,32878369,9736679,NA,"complete",NA,"654e8caeeb2bfc6a86d450c5","computer","Desktop or Laptop","Windows 10","Chrome 119.0.0.0","1536x864","1536x739",NA,NA,0,"Task Introduction and Instructions (re-introduce video and audio)",1,"CDBEAFJGIH","Passed AC2",NA,"Spreadsheet1",NA,"","","",NA,"5","BEGIN",NA,NA,NA,NA,NA,NA,0,NA,NA,NA,NA,"","",NA,"","",NA,"SUPPRF78865"
"2",1699650347926,"10/11/2023 21:05:47",1699628747926,-6,"10/11/2023 09:05:47",151512,5,"task-w25u",NA,32878369,9736679,NA,"complete",NA,"654e8caeeb2bfc6a86d450c5","computer","Desktop or Laptop","Windows 10","Chrome 119.0.0.0","1536x864","1536x739",NA,NA,0,"Task Introduction and Instructions (re-introduce video and audio)",1,"CDBEAFJGIH","Passed AC2",NA,"Spreadsheet1",1,"Task Instructions","Screen 1","anr7sn",1,"continue","",3170.76600004768,3168.806,3170.76600004768,3170.76600004768,3168.806,3170.76600004768,1,3170.76600004768,0,0,NA,"Click To Continue","Continue Button",2,"object-1944","Task Instructions",NA,"SUPPRF78865"
"3",1699650355668,"10/11/2023 21:05:55",1699628755668,-6,"10/11/2023 09:05:55",151512,5,"task-w25u",NA,32878369,9736679,NA,"complete",NA,"654e8caeeb2bfc6a86d450c5","computer","Desktop or Laptop","Windows 10","Chrome 119.0.0.0","1536x864","1536x739",NA,NA,0,"Task Introduction and Instructions (re-introduce video and audio)",1,"CDBEAFJGIH","Passed AC2",NA,"Spreadsheet1",1,"Task Instructions","Screen 2","ce2tc8",2,"continue","",7744.06000007153,7738.524,7744.06000007153,7744.06000007153,7738.524,7744.06000007153,1,7744.06000007153,0,0,NA,"Click To Continue","Continue Button",2,"object-7","Task Instructions",NA,"SUPPRF78865"
"4",1699650358230,"10/11/2023 21:05:58",1699628758230,-6,"10/11/2023 09:05:58",151512,5,"task-w25u",NA,32878369,9736679,NA,"complete",NA,"654e8caeeb2bfc6a86d450c5","computer","Desktop or Laptop","Windows 10","Chrome 119.0.0.0","1536x864","1536x739",NA,NA,0,"Task Introduction and Instructions (re-introduce video and audio)",1,"CDBEAFJGIH","Passed AC2",NA,"Spreadsheet1",1,"Task Instructions","Screen 3","1qtc8v",3,"continue","",2567.236,2561.529,2567.236,2567.236,2561.529,2567.236,1,2567.236,0,0,NA,"Click To Continue","Continue Button",2,"object-52","Task Instructions",NA,"SUPPRF78865"
"5",1699650360749,"10/11/2023 21:06:00",1699628760749,-6,"10/11/2023 09:06:00",151512,5,"task-w25u",NA,32878369,9736679,NA,"complete",NA,"654e8caeeb2bfc6a86d450c5","computer","Desktop or Laptop","Windows 10","Chrome 119.0.0.0","1536x864","1536x739",NA,NA,0,"Task Introduction and Instructions (re-introduce video and audio)",1,"CDBEAFJGIH","Passed AC2",NA,"Spreadsheet1",1,"Task Instructions","Screen 4","spepx9",4,"continue","",2525.106,2518.941,2525.106,2525.106,2518.941,2525.106,1,2525.106,0,0,NA,"Click To Continue","Continue Button",2,"object-9","Task Instructions",NA,"SUPPRF78865"
"6",1699650363204,"10/11/2023 21:06:03",1699628763204,-6,"10/11/2023 09:06:03",151512,5,"task-w25u",NA,32878369,9736679,NA,"complete",NA,"654e8caeeb2bfc6a86d450c5","computer","Desktop or Laptop","Windows 10","Chrome 119.0.0.0","1536x864","1536x739",NA,NA,0,"Task Introduction and Instructions (re-introduce video and audio)",1,"CDBEAFJGIH","Passed AC2",NA,"Spreadsheet1",1,"Task Instructions","Screen 5","8nvnao",5,"continue","",2460.66600009537,2458.161,2460.66600009537,2460.66600009537,2458.161,2460.66600009537,1,2460.66600009537,0,0,NA,"Click To Continue","Continue Button",2,"object-44","Task Instructions",NA,"SUPPRF78865"
"7",1699650363205,"10/11/2023 21:06:03",1699628763205,-6,"10/11/2023 09:06:03",151512,5,"task-w25u",NA,32878369,9736679,NA,"complete",NA,"654e8caeeb2bfc6a86d450c5","computer","Desktop or Laptop","Windows 10","Chrome 119.0.0.0","1536x864","1536x739",NA,NA,0,"Task Introduction and Instructions (re-introduce video and audio)",1,"CDBEAFJGIH","Passed AC2",NA,"Spreadsheet1",NA,"","","",NA,"5","END",NA,NA,NA,NA,NA,NA,0,NA,NA,NA,NA,"","",NA,"","",NA,"SUPPRF78865"
"1",1699651148182,"10/11/2023 21:19:08",1699625948182,-7,"10/11/2023 07:19:08",151512,5,"task-w25u",NA,32878595,9736713,NA,"complete",NA,"654e9ab67634b6d7df3e7ab5","computer","Desktop or Laptop","Windows 10","Chrome 119.0.0.0","2560x1440","2560x1315",NA,NA,0,"Task Introduction and Instructions (re-introduce video and audio)",1,"EFDGCHBIAJ","Passed AC2",NA,"Spreadsheet1",NA,"","","",NA,"5","BEGIN",NA,NA,NA,NA,NA,NA,0,NA,NA,NA,NA,"","",NA,"","",NA,"SUPPRF62860"
"2",1699651152357,"10/11/2023 21:19:12",1699625952357,-7,"10/11/2023 07:19:12",151512,5,"task-w25u",NA,32878595,9736713,NA,"complete",NA,"654e9ab67634b6d7df3e7ab5","computer","Desktop or Laptop","Windows 10","Chrome 119.0.0.0","2560x1440","2560x1315",NA,NA,0,"Task Introduction and Instructions (re-introduce video and audio)",1,"EFDGCHBIAJ","Passed AC2",NA,"Spreadsheet1",1,"Task Instructions","Screen 1","anr7sn",1,"continue","",3364.80499999702,3361.751,3364.80499999702,3364.80499999702,3361.751,3364.80499999702,1,3364.80499999702,0,0,NA,"Click To Continue","Continue Button",2,"object-1944","Task Instructions",NA,"SUPPRF62860"
"3",1699651161128,"10/11/2023 21:19:21",1699625961128,-7,"10/11/2023 07:19:21",151512,5,"task-w25u",NA,32878595,9736713,NA,"complete",NA,"654e9ab67634b6d7df3e7ab5","computer","Desktop or Laptop","Windows 10","Chrome 119.0.0.0","2560x1440","2560x1315",NA,NA,0,"Task Introduction and Instructions (re-introduce video and audio)",1,"EFDGCHBIAJ","Passed AC2",NA,"Spreadsheet1",1,"Task Instructions","Screen 2","ce2tc8",2,"continue","",8774.55399999702,8772.372,8774.55399999702,8774.55399999702,8772.372,8774.55399999702,1,8774.55399999702,0,0,NA,"Click To Continue","Continue Button",2,"object-7","Task Instructions",NA,"SUPPRF62860"
"4",1699651165229,"10/11/2023 21:19:25",1699625965229,-7,"10/11/2023 07:19:25",151512,5,"task-w25u",NA,32878595,9736713,NA,"complete",NA,"654e9ab67634b6d7df3e7ab5","computer","Desktop or Laptop","Windows 10","Chrome 119.0.0.0","2560x1440","2560x1315",NA,NA,0,"Task Introduction and Instructions (re-introduce video and audio)",1,"EFDGCHBIAJ","Passed AC2",NA,"Spreadsheet1",1,"Task Instructions","Screen 3","1qtc8v",3,"continue","",4103.58200000298,4098.316,4103.58200000298,4103.58200000298,4098.316,4103.58200000298,1,4103.58200000298,0,0,NA,"Click To Continue","Continue Button",2,"object-52","Task Instructions",NA,"SUPPRF62860"
"5",1699651167792,"10/11/2023 21:19:27",1699625967792,-7,"10/11/2023 07:19:27",151512,5,"task-w25u",NA,32878595,9736713,NA,"complete",NA,"654e9ab67634b6d7df3e7ab5","computer","Desktop or Laptop","Windows 10","Chrome 119.0.0.0","2560x1440","2560x1315",NA,NA,0,"Task Introduction and Instructions (re-introduce video and audio)",1,"EFDGCHBIAJ","Passed AC2",NA,"Spreadsheet1",1,"Task Instructions","Screen 4","spepx9",4,"continue","",2567.566,2562.736,2567.566,2567.566,2562.736,2567.566,1,2567.566,0,0,NA,"Click To Continue","Continue Button",2,"object-9","Task Instructions",NA,"SUPPRF62860"
"6",1699651170713,"10/11/2023 21:19:30",1699625970713,-7,"10/11/2023 07:19:30",151512,5,"task-w25u",NA,32878595,9736713,NA,"complete",NA,"654e9ab67634b6d7df3e7ab5","computer","Desktop or Laptop","Windows 10","Chrome 119.0.0.0","2560x1440","2560x1315",NA,NA,0,"Task Introduction and Instructions (re-introduce video and audio)",1,"EFDGCHBIAJ","Passed AC2",NA,"Spreadsheet1",1,"Task Instructions","Screen 5","8nvnao",5,"continue","",2924.299,2917.375,2924.299,2924.299,2917.375,2924.299,1,2924.299,0,0,NA,"Click To Continue","Continue Button",2,"object-44","Task Instructions",NA,"SUPPRF62860"
"7",1699651170715,"10/11/2023 21:19:30",1699625970715,-7,"10/11/2023 07:19:30",151512,5,"task-w25u",NA,32878595,9736713,NA,"complete",NA,"654e9ab67634b6d7df3e7ab5","computer","Desktop or Laptop","Windows 10","Chrome 119.0.0.0","2560x1440","2560x1315",NA,NA,0,"Task Introduction and Instructions (re-introduce video and audio)",1,"EFDGCHBIAJ","Passed AC2",NA,"Spreadsheet1",NA,"","","",NA,"5","END",NA,NA,NA,NA,NA,NA,0,NA,NA,NA,NA,"","",NA,"","",NA,"SUPPRF62860"
"1",1699651214422,"10/11/2023 21:20:14",1699633214422,-5,"10/11/2023 11:20:14",151512,5,"task-w25u",NA,32878615,9736705,NA,"complete",NA,"654e9ac010b0368c6d32ee16","computer","Desktop or Laptop","Mac OS 10.15.7","Chrome 119.0.0.0","1440x900","1388x733",NA,NA,0,"Task Introduction and Instructions (re-introduce video and audio)",1,"DECFBGAHJI","Passed AC2",NA,"Spreadsheet1",NA,"","","",NA,"5","BEGIN",NA,NA,NA,NA,NA,NA,0,NA,NA,NA,NA,"","",NA,"","",NA,"SUPPRF65333"
"2",1699651217539,"10/11/2023 21:20:17",1699633217539,-5,"10/11/2023 11:20:17",151512,5,"task-w25u",NA,32878615,9736705,NA,"complete",NA,"654e9ac010b0368c6d32ee16","computer","Desktop or Laptop","Mac OS 10.15.7","Chrome 119.0.0.0","1440x900","1388x733",NA,NA,0,"Task Introduction and Instructions (re-introduce video and audio)",1,"DECFBGAHJI","Passed AC2",NA,"Spreadsheet1",1,"Task Instructions","Screen 1","anr7sn",1,"continue","",3039.59100001788,3033.795,3039.59100001788,3039.59100001788,3033.795,3039.59100001788,1,3039.59100001788,0,0,NA,"Click To Continue","Continue Button",2,"object-1944","Task Instructions",NA,"SUPPRF65333"
"3",1699651257862,"10/11/2023 21:20:57",1699633257862,-5,"10/11/2023 11:20:57",151512,5,"task-w25u",NA,32878615,9736705,NA,"complete",NA,"654e9ac010b0368c6d32ee16","computer","Desktop or Laptop","Mac OS 10.15.7","Chrome 119.0.0.0","1440x900","1388x733",NA,NA,0,"Task Introduction and Instructions (re-introduce video and audio)",1,"DECFBGAHJI","Passed AC2",NA,"Spreadsheet1",1,"Task Instructions","Screen 2","ce2tc8",2,"continue","",40328.695999994,40325.395,40328.695999994,40328.695999994,40325.395,40328.695999994,1,40328.695999994,0,0,NA,"Click To Continue","Continue Button",2,"object-7","Task Instructions",NA,"SUPPRF65333"
"4",1699651262949,"10/11/2023 21:21:02",1699633262949,-5,"10/11/2023 11:21:02",151512,5,"task-w25u",NA,32878615,9736705,NA,"complete",NA,"654e9ac010b0368c6d32ee16","computer","Desktop or Laptop","Mac OS 10.15.7","Chrome 119.0.0.0","1440x900","1388x733",NA,NA,0,"Task Introduction and Instructions (re-introduce video and audio)",1,"DECFBGAHJI","Passed AC2",NA,"Spreadsheet1",1,"Task Instructions","Screen 3","1qtc8v",3,"continue","",5089.60100000596,5083.13,5089.60100000596,5089.60100000596,5083.13,5089.60100000596,1,5089.60100000596,0,0,NA,"Click To Continue","Continue Button",2,"object-52","Task Instructions",NA,"SUPPRF65333"
"5",1699651273179,"10/11/2023 21:21:13",1699633273179,-5,"10/11/2023 11:21:13",151512,5,"task-w25u",NA,32878615,9736705,NA,"complete",NA,"654e9ac010b0368c6d32ee16","computer","Desktop or Laptop","Mac OS 10.15.7","Chrome 119.0.0.0","1440x900","1388x733",NA,NA,0,"Task Introduction and Instructions (re-introduce video and audio)",1,"DECFBGAHJI","Passed AC2",NA,"Spreadsheet1",1,"Task Instructions","Screen 4","spepx9",4,"continue","",10236.971000006,10230.376,10236.971000006,10236.971000006,10230.376,10236.971000006,1,10236.971000006,0,0,NA,"Click To Continue","Continue Button",2,"object-9","Task Instructions",NA,"SUPPRF65333"
"6",1699651276521,"10/11/2023 21:21:16",1699633276521,-5,"10/11/2023 11:21:16",151512,5,"task-w25u",NA,32878615,9736705,NA,"complete",NA,"654e9ac010b0368c6d32ee16","computer","Desktop or Laptop","Mac OS 10.15.7","Chrome 119.0.0.0","1440x900","1388x733",NA,NA,0,"Task Introduction and Instructions (re-introduce video and audio)",1,"DECFBGAHJI","Passed AC2",NA,"Spreadsheet1",1,"Task Instructions","Screen 5","8nvnao",5,"continue","",3347.79499999404,3339.104,3347.79499999404,3347.79499999404,3339.104,3347.79499999404,1,3347.79499999404,0,0,NA,"Click To Continue","Continue Button",2,"object-44","Task Instructions",NA,"SUPPRF65333"
"7",1699651276522,"10/11/2023 21:21:16",1699633276522,-5,"10/11/2023 11:21:16",151512,5,"task-w25u",NA,32878615,9736705,NA,"complete",NA,"654e9ac010b0368c6d32ee16","computer","Desktop or Laptop","Mac OS 10.15.7","Chrome 119.0.0.0","1440x900","1388x733",NA,NA,0,"Task Introduction and Instructions (re-introduce video and audio)",1,"DECFBGAHJI","Passed AC2",NA,"Spreadsheet1",NA,"","","",NA,"5","END",NA,NA,NA,NA,NA,NA,0,NA,NA,NA,NA,"","",NA,"","",NA,"SUPPRF65333"
"1",1699652077002,"10/11/2023 21:34:37",1699630477002,-6,"10/11/2023 09:34:37",151512,5,"task-w25u",NA,32878891,9736767,NA,"complete",NA,"654e9bbf36e2a7120833f9b4","computer","Desktop or Laptop","Windows 10","Chrome 119.0.0.0","1536x864","1536x707",NA,NA,0,"Task Introduction and Instructions (re-introduce video and audio)",1,"GHFIEJDACB","Passed AC2",NA,"Spreadsheet1",NA,"","","",NA,"5","BEGIN",NA,NA,NA,NA,NA,NA,0,NA,NA,NA,NA,"","",NA,"","",NA,"SUPPRF61122"
"2",1699652080911,"10/11/2023 21:34:40",1699630480911,-6,"10/11/2023 09:34:40",151512,5,"task-w25u",NA,32878891,9736767,NA,"complete",NA,"654e9bbf36e2a7120833f9b4","computer","Desktop or Laptop","Windows 10","Chrome 119.0.0.0","1536x864","1536x707",NA,NA,0,"Task Introduction and Instructions (re-introduce video and audio)",1,"GHFIEJDACB","Passed AC2",NA,"Spreadsheet1",1,"Task Instructions","Screen 1","anr7sn",1,"continue","",3811.10000001788,3800.229,3811.10000001788,3811.10000001788,3800.229,3811.10000001788,1,3811.10000001788,0,0,NA,"Click To Continue","Continue Button",2,"object-1944","Task Instructions",NA,"SUPPRF61122"
"3",1699652097664,"10/11/2023 21:34:57",1699630497664,-6,"10/11/2023 09:34:57",151512,5,"task-w25u",NA,32878891,9736767,NA,"complete",NA,"654e9bbf36e2a7120833f9b4","computer","Desktop or Laptop","Windows 10","Chrome 119.0.0.0","1536x864","1536x707",NA,NA,0,"Task Introduction and Instructions (re-introduce video and audio)",1,"GHFIEJDACB","Passed AC2",NA,"Spreadsheet1",1,"Task Instructions","Screen 2","ce2tc8",2,"continue","",16765.9710000119,16750.883,16765.9710000119,16765.9710000119,16750.883,16765.9710000119,1,16765.9710000119,0,0,NA,"Click To Continue","Continue Button",2,"object-7","Task Instructions",NA,"SUPPRF61122"
"4",1699652100579,"10/11/2023 21:35:00",1699630500579,-6,"10/11/2023 09:35:00",151512,5,"task-w25u",NA,32878891,9736767,NA,"complete",NA,"654e9bbf36e2a7120833f9b4","computer","Desktop or Laptop","Windows 10","Chrome 119.0.0.0","1536x864","1536x707",NA,NA,0,"Task Introduction and Instructions (re-introduce video and audio)",1,"GHFIEJDACB","Passed AC2",NA,"Spreadsheet1",1,"Task Instructions","Screen 3","1qtc8v",3,"continue","",2930.18800000596,2916.789,2930.18800000596,2930.18800000596,2916.789,2930.18800000596,1,2930.18800000596,0,0,NA,"Click To Continue","Continue Button",2,"object-52","Task Instructions",NA,"SUPPRF61122"
"5",1699652103554,"10/11/2023 21:35:03",1699630503554,-6,"10/11/2023 09:35:03",151512,5,"task-w25u",NA,32878891,9736767,NA,"complete",NA,"654e9bbf36e2a7120833f9b4","computer","Desktop or Laptop","Windows 10","Chrome 119.0.0.0","1536x864","1536x707",NA,NA,0,"Task Introduction and Instructions (re-introduce video and audio)",1,"GHFIEJDACB","Passed AC2",NA,"Spreadsheet1",1,"Task Instructions","Screen 4","spepx9",4,"continue","",2988.499,2983.598,2988.499,2988.499,2983.598,2988.499,1,2988.499,0,0,NA,"Click To Continue","Continue Button",2,"object-9","Task Instructions",NA,"SUPPRF61122"
"6",1699652106544,"10/11/2023 21:35:06",1699630506544,-6,"10/11/2023 09:35:06",151512,5,"task-w25u",NA,32878891,9736767,NA,"complete",NA,"654e9bbf36e2a7120833f9b4","computer","Desktop or Laptop","Windows 10","Chrome 119.0.0.0","1536x864","1536x707",NA,NA,0,"Task Introduction and Instructions (re-introduce video and audio)",1,"GHFIEJDACB","Passed AC2",NA,"Spreadsheet1",1,"Task Instructions","Screen 5","8nvnao",5,"continue","",2994.70100001192,2983.439,2994.70100001192,2994.70100001192,2983.439,2994.70100001192,1,2994.70100001192,0,0,NA,"Click To Continue","Continue Button",2,"object-44","Task Instructions",NA,"SUPPRF61122"
"7",1699652106547,"10/11/2023 21:35:06",1699630506547,-6,"10/11/2023 09:35:06",151512,5,"task-w25u",NA,32878891,9736767,NA,"complete",NA,"654e9bbf36e2a7120833f9b4","computer","Desktop or Laptop","Windows 10","Chrome 119.0.0.0","1536x864","1536x707",NA,NA,0,"Task Introduction and Instructions (re-introduce video and audio)",1,"GHFIEJDACB","Passed AC2",NA,"Spreadsheet1",NA,"","","",NA,"5","END",NA,NA,NA,NA,NA,NA,0,NA,NA,NA,NA,"","",NA,"","",NA,"SUPPRF61122"
"1",1699652076550,"10/11/2023 21:34:36",1699652076550,0,"10/11/2023 21:34:36",151512,5,"task-w25u",NA,32878892,9736778,NA,"complete",NA,"654e9f628012f644938982a3","computer","Desktop or Laptop","Mac OS 10.15.7","Chrome 109.0.0.0","1440x900","659x789",NA,NA,0,"Task Introduction and Instructions (re-introduce video and audio)",1,"HIGJFAEBDC","Passed AC2",NA,"Spreadsheet1",NA,"","","",NA,"5","BEGIN",NA,NA,NA,NA,NA,NA,0,NA,NA,NA,NA,"","",NA,"","",NA,"SUPPRF82563"
"2",1699652080464,"10/11/2023 21:34:40",1699652080464,0,"10/11/2023 21:34:40",151512,5,"task-w25u",NA,32878892,9736778,NA,"complete",NA,"654e9f628012f644938982a3","computer","Desktop or Laptop","Mac OS 10.15.7","Chrome 109.0.0.0","1440x900","659x789",NA,NA,0,"Task Introduction and Instructions (re-introduce video and audio)",1,"HIGJFAEBDC","Passed AC2",NA,"Spreadsheet1",1,"Task Instructions","Screen 1","anr7sn",1,"continue","",3843.53,3826.819,3843.53,3843.53,3826.819,3843.53,1,3843.53,0,0,NA,"Click To Continue","Continue Button",2,"object-1944","Task Instructions",NA,"SUPPRF82563"
"3",1699652085763,"10/11/2023 21:34:45",1699652085763,0,"10/11/2023 21:34:45",151512,5,"task-w25u",NA,32878892,9736778,NA,"complete",NA,"654e9f628012f644938982a3","computer","Desktop or Laptop","Mac OS 10.15.7","Chrome 109.0.0.0","1440x900","659x789",NA,NA,0,"Task Introduction and Instructions (re-introduce video and audio)",1,"HIGJFAEBDC","Passed AC2",NA,"Spreadsheet1",1,"Task Instructions","Screen 2","ce2tc8",2,"continue","",5320.29599990463,5314.21,5320.29599990463,5320.29599990463,5314.21,5320.29599990463,1,5320.29599990463,0,0,NA,"Click To Continue","Continue Button",2,"object-7","Task Instructions",NA,"SUPPRF82563"
"4",1699652089269,"10/11/2023 21:34:49",1699652089269,0,"10/11/2023 21:34:49",151512,5,"task-w25u",NA,32878892,9736778,NA,"complete",NA,"654e9f628012f644938982a3","computer","Desktop or Laptop","Mac OS 10.15.7","Chrome 109.0.0.0","1440x900","659x789",NA,NA,0,"Task Introduction and Instructions (re-introduce video and audio)",1,"HIGJFAEBDC","Passed AC2",NA,"Spreadsheet1",1,"Task Instructions","Screen 3","1qtc8v",3,"continue","",3509.31,3492.599,3509.31,3509.31,3492.599,3509.31,1,3509.31,0,0,NA,"Click To Continue","Continue Button",2,"object-52","Task Instructions",NA,"SUPPRF82563"
"5",1699652097143,"10/11/2023 21:34:57",1699652097143,0,"10/11/2023 21:34:57",151512,5,"task-w25u",NA,32878892,9736778,NA,"complete",NA,"654e9f628012f644938982a3","computer","Desktop or Laptop","Mac OS 10.15.7","Chrome 109.0.0.0","1440x900","659x789",NA,NA,0,"Task Introduction and Instructions (re-introduce video and audio)",1,"HIGJFAEBDC","Passed AC2",NA,"Spreadsheet1",1,"Task Instructions","Screen 4","spepx9",4,"continue","",7892.08699980927,7887.876,7892.08699980927,7892.08699980927,7887.876,7892.08699980927,1,7892.08699980927,0,0,NA,"Click To Continue","Continue Button",2,"object-9","Task Instructions",NA,"SUPPRF82563"
"6",1699652100282,"10/11/2023 21:35:00",1699652100282,0,"10/11/2023 21:35:00",151512,5,"task-w25u",NA,32878892,9736778,NA,"complete",NA,"654e9f628012f644938982a3","computer","Desktop or Laptop","Mac OS 10.15.7","Chrome 109.0.0.0","1440x900","659x789",NA,NA,0,"Task Introduction and Instructions (re-introduce video and audio)",1,"HIGJFAEBDC","Passed AC2",NA,"Spreadsheet1",1,"Task Instructions","Screen 5","8nvnao",5,"continue","",3144.11099990463,3141.668,3144.11099990463,3144.11099990463,3141.668,3144.11099990463,1,3144.11099990463,0,0,NA,"Click To Continue","Continue Button",2,"object-44","Task Instructions",NA,"SUPPRF82563"
"7",1699652100290,"10/11/2023 21:35:00",1699652100290,0,"10/11/2023 21:35:00",151512,5,"task-w25u",NA,32878892,9736778,NA,"complete",NA,"654e9f628012f644938982a3","computer","Desktop or Laptop","Mac OS 10.15.7","Chrome 109.0.0.0","1440x900","659x789",NA,NA,0,"Task Introduction and Instructions (re-introduce video and audio)",1,"HIGJFAEBDC","Passed AC2",NA,"Spreadsheet1",NA,"","","",NA,"5","END",NA,NA,NA,NA,NA,NA,0,NA,NA,NA,NA,"","",NA,"","",NA,"SUPPRF82563"
"1",1699653000924,"10/11/2023 21:50:00",1699631400924,-6,"10/11/2023 09:50:00",151512,5,"task-w25u",NA,32879065,9736805,NA,"complete",NA,"654ea1f4a6d9987cb675dc3e","computer","Desktop or Laptop","Mac OS 10.15.7","Chrome 119.0.0.0","1440x900","1440x813",NA,NA,0,"Task Introduction and Instructions (re-introduce video and audio)",1,"IJHAGBFCED","Passed AC2",NA,"Spreadsheet1",NA,"","","",NA,"5","BEGIN",NA,NA,NA,NA,NA,NA,0,NA,NA,NA,NA,"","",NA,"","",NA,"SUPPRF20210"
"2",1699653004593,"10/11/2023 21:50:04",1699631404593,-6,"10/11/2023 09:50:04",151512,5,"task-w25u",NA,32879065,9736805,NA,"complete",NA,"654ea1f4a6d9987cb675dc3e","computer","Desktop or Laptop","Mac OS 10.15.7","Chrome 119.0.0.0","1440x900","1440x813",NA,NA,0,"Task Introduction and Instructions (re-introduce video and audio)",1,"IJHAGBFCED","Passed AC2",NA,"Spreadsheet1",1,"Task Instructions","Screen 1","anr7sn",1,"continue","",3575.91599998212,3566.524,3575.91599998212,3575.91599998212,3566.524,3575.91599998212,1,3575.91599998212,0,0,NA,"Click To Continue","Continue Button",2,"object-1944","Task Instructions",NA,"SUPPRF20210"
"3",1699653015742,"10/11/2023 21:50:15",1699631415742,-6,"10/11/2023 09:50:15",151512,5,"task-w25u",NA,32879065,9736805,NA,"complete",NA,"654ea1f4a6d9987cb675dc3e","computer","Desktop or Laptop","Mac OS 10.15.7","Chrome 119.0.0.0","1440x900","1440x813",NA,NA,0,"Task Introduction and Instructions (re-introduce video and audio)",1,"IJHAGBFCED","Passed AC2",NA,"Spreadsheet1",1,"Task Instructions","Screen 2","ce2tc8",2,"continue","",11159.3919999821,11151.085,11159.3919999821,11159.3919999821,11151.085,11159.3919999821,1,11159.3919999821,0,0,NA,"Click To Continue","Continue Button",2,"object-7","Task Instructions",NA,"SUPPRF20210"
"4",1699653021024,"10/11/2023 21:50:21",1699631421024,-6,"10/11/2023 09:50:21",151512,5,"task-w25u",NA,32879065,9736805,NA,"complete",NA,"654ea1f4a6d9987cb675dc3e","computer","Desktop or Laptop","Mac OS 10.15.7","Chrome 119.0.0.0","1440x900","1440x813",NA,NA,0,"Task Introduction and Instructions (re-introduce video and audio)",1,"IJHAGBFCED","Passed AC2",NA,"Spreadsheet1",1,"Task Instructions","Screen 3","1qtc8v",3,"continue","",5290.60699999404,5283.122,5290.60699999404,5290.60699999404,5283.122,5290.60699999404,1,5290.60699999404,0,0,NA,"Click To Continue","Continue Button",2,"object-52","Task Instructions",NA,"SUPPRF20210"
"5",1699653023841,"10/11/2023 21:50:23",1699631423841,-6,"10/11/2023 09:50:23",151512,5,"task-w25u",NA,32879065,9736805,NA,"complete",NA,"654ea1f4a6d9987cb675dc3e","computer","Desktop or Laptop","Mac OS 10.15.7","Chrome 119.0.0.0","1440x900","1440x813",NA,NA,0,"Task Introduction and Instructions (re-introduce video and audio)",1,"IJHAGBFCED","Passed AC2",NA,"Spreadsheet1",1,"Task Instructions","Screen 4","spepx9",4,"continue","",2825.18499998212,2816.554,2825.18499998212,2825.18499998212,2816.554,2825.18499998212,1,2825.18499998212,0,0,NA,"Click To Continue","Continue Button",2,"object-9","Task Instructions",NA,"SUPPRF20210"
"6",1699653026742,"10/11/2023 21:50:26",1699631426742,-6,"10/11/2023 09:50:26",151512,5,"task-w25u",NA,32879065,9736805,NA,"complete",NA,"654ea1f4a6d9987cb675dc3e","computer","Desktop or Laptop","Mac OS 10.15.7","Chrome 119.0.0.0","1440x900","1440x813",NA,NA,0,"Task Introduction and Instructions (re-introduce video and audio)",1,"IJHAGBFCED","Passed AC2",NA,"Spreadsheet1",1,"Task Instructions","Screen 5","8nvnao",5,"continue","",2909.23099997616,2900.708,2909.23099997616,2909.23099997616,2900.708,2909.23099997616,1,2909.23099997616,0,0,NA,"Click To Continue","Continue Button",2,"object-44","Task Instructions",NA,"SUPPRF20210"
"7",1699653026747,"10/11/2023 21:50:26",1699631426747,-6,"10/11/2023 09:50:26",151512,5,"task-w25u",NA,32879065,9736805,NA,"complete",NA,"654ea1f4a6d9987cb675dc3e","computer","Desktop or Laptop","Mac OS 10.15.7","Chrome 119.0.0.0","1440x900","1440x813",NA,NA,0,"Task Introduction and Instructions (re-introduce video and audio)",1,"IJHAGBFCED","Passed AC2",NA,"Spreadsheet1",NA,"","","",NA,"5","END",NA,NA,NA,NA,NA,NA,0,NA,NA,NA,NA,"","",NA,"","",NA,"SUPPRF20210"
"1",1699653454455,"10/11/2023 21:57:34",1699653454455,0,"10/11/2023 21:57:34",151512,5,"task-w25u",NA,32879165,9736829,NA,"complete",NA,"654ea570a32d75b458870ff5","computer","Desktop or Laptop","Mac OS 10.15.7","Chrome 117.0.0.0","1440x900","1440x783",NA,NA,0,"Task Introduction and Instructions (re-introduce video and audio)",1,"ABJCIDHEGF","Passed AC2",NA,"Spreadsheet1",NA,"","","",NA,"5","BEGIN",NA,NA,NA,NA,NA,NA,0,NA,NA,NA,NA,"","",NA,"","",NA,"SUPPRF37840"
"2",1699653459771,"10/11/2023 21:57:39",1699653459771,0,"10/11/2023 21:57:39",151512,5,"task-w25u",NA,32879165,9736829,NA,"complete",NA,"654ea570a32d75b458870ff5","computer","Desktop or Laptop","Mac OS 10.15.7","Chrome 117.0.0.0","1440x900","1440x783",NA,NA,0,"Task Introduction and Instructions (re-introduce video and audio)",1,"ABJCIDHEGF","Passed AC2",NA,"Spreadsheet1",1,"Task Instructions","Screen 1","anr7sn",1,"continue","",5261.45499999776,5250.052,5261.45499999776,5261.45499999776,5250.052,5261.45499999776,1,5261.45499999776,0,0,NA,"Click To Continue","Continue Button",2,"object-1944","Task Instructions",NA,"SUPPRF37840"
"3",1699653463681,"10/11/2023 21:57:43",1699653463681,0,"10/11/2023 21:57:43",151512,5,"task-w25u",NA,32879165,9736829,NA,"complete",NA,"654ea570a32d75b458870ff5","computer","Desktop or Laptop","Mac OS 10.15.7","Chrome 117.0.0.0","1440x900","1440x783",NA,NA,0,"Task Introduction and Instructions (re-introduce video and audio)",1,"ABJCIDHEGF","Passed AC2",NA,"Spreadsheet1",1,"Task Instructions","Screen 2","ce2tc8",2,"continue","",3916.51,3899.844,3916.51,3916.51,3899.844,3916.51,1,3916.51,0,0,NA,"Click To Continue","Continue Button",2,"object-7","Task Instructions",NA,"SUPPRF37840"
"4",1699653466638,"10/11/2023 21:57:46",1699653466638,0,"10/11/2023 21:57:46",151512,5,"task-w25u",NA,32879165,9736829,NA,"complete",NA,"654ea570a32d75b458870ff5","computer","Desktop or Laptop","Mac OS 10.15.7","Chrome 117.0.0.0","1440x900","1440x783",NA,NA,0,"Task Introduction and Instructions (re-introduce video and audio)",1,"ABJCIDHEGF","Passed AC2",NA,"Spreadsheet1",1,"Task Instructions","Screen 3","1qtc8v",3,"continue","",2979.25900000075,2966.548,2979.25900000075,2979.25900000075,2966.548,2979.25900000075,1,2979.25900000075,0,0,NA,"Click To Continue","Continue Button",2,"object-52","Task Instructions",NA,"SUPPRF37840"
"5",1699653470111,"10/11/2023 21:57:50",1699653470111,0,"10/11/2023 21:57:50",151512,5,"task-w25u",NA,32879165,9736829,NA,"complete",NA,"654ea570a32d75b458870ff5","computer","Desktop or Laptop","Mac OS 10.15.7","Chrome 117.0.0.0","1440x900","1440x783",NA,NA,0,"Task Introduction and Instructions (re-introduce video and audio)",1,"ABJCIDHEGF","Passed AC2",NA,"Spreadsheet1",1,"Task Instructions","Screen 4","spepx9",4,"continue","",3483.457,3466.791,3483.457,3483.457,3466.791,3483.457,1,3483.457,0,0,NA,"Click To Continue","Continue Button",2,"object-9","Task Instructions",NA,"SUPPRF37840"
"6",1699653473035,"10/11/2023 21:57:53",1699653473035,0,"10/11/2023 21:57:53",151512,5,"task-w25u",NA,32879165,9736829,NA,"complete",NA,"654ea570a32d75b458870ff5","computer","Desktop or Laptop","Mac OS 10.15.7","Chrome 117.0.0.0","1440x900","1440x783",NA,NA,0,"Task Introduction and Instructions (re-introduce video and audio)",1,"ABJCIDHEGF","Passed AC2",NA,"Spreadsheet1",1,"Task Instructions","Screen 5","8nvnao",5,"continue","",2943.31999999925,2933.216,2943.31999999925,2943.31999999925,2933.216,2943.31999999925,1,2943.31999999925,0,0,NA,"Click To Continue","Continue Button",2,"object-44","Task Instructions",NA,"SUPPRF37840"
"7",1699653473039,"10/11/2023 21:57:53",1699653473039,0,"10/11/2023 21:57:53",151512,5,"task-w25u",NA,32879165,9736829,NA,"complete",NA,"654ea570a32d75b458870ff5","computer","Desktop or Laptop","Mac OS 10.15.7","Chrome 117.0.0.0","1440x900","1440x783",NA,NA,0,"Task Introduction and Instructions (re-introduce video and audio)",1,"ABJCIDHEGF","Passed AC2",NA,"Spreadsheet1",NA,"","","",NA,"5","END",NA,NA,NA,NA,NA,NA,0,NA,NA,NA,NA,"","",NA,"","",NA,"SUPPRF37840"
"1",1699653997839,"10/11/2023 22:06:37",1699653997839,0,"10/11/2023 22:06:37",151512,5,"task-w25u",NA,32879250,9736857,NA,"complete",NA,"654ea629b060f1ea2d712e0b","computer","Desktop or Laptop","Chromium OS 14541.0.0","Chrome 114.0.0.0","1536x864","1536x714",NA,NA,0,"Task Introduction and Instructions (re-introduce video and audio)",1,"BCADJEIFHG","Passed AC2",NA,"Spreadsheet1",NA,"","","",NA,"5","BEGIN",NA,NA,NA,NA,NA,NA,0,NA,NA,NA,NA,"","",NA,"","",NA,"SUPPRF61000"
"2",1699654001511,"10/11/2023 22:06:41",1699654001511,0,"10/11/2023 22:06:41",151512,5,"task-w25u",NA,32879250,9736857,NA,"complete",NA,"654ea629b060f1ea2d712e0b","computer","Desktop or Laptop","Chromium OS 14541.0.0","Chrome 114.0.0.0","1536x864","1536x714",NA,NA,0,"Task Introduction and Instructions (re-introduce video and audio)",1,"BCADJEIFHG","Passed AC2",NA,"Spreadsheet1",1,"Task Instructions","Screen 1","anr7sn",1,"continue","",3437.97,3421.318,3437.97,3437.97,3421.318,3437.97,1,3437.97,0,0,NA,"Click To Continue","Continue Button",2,"object-1944","Task Instructions",NA,"SUPPRF61000"
"3",1699654009310,"10/11/2023 22:06:49",1699654009310,0,"10/11/2023 22:06:49",151512,5,"task-w25u",NA,32879250,9736857,NA,"complete",NA,"654ea629b060f1ea2d712e0b","computer","Desktop or Laptop","Chromium OS 14541.0.0","Chrome 114.0.0.0","1536x864","1536x714",NA,NA,0,"Task Introduction and Instructions (re-introduce video and audio)",1,"BCADJEIFHG","Passed AC2",NA,"Spreadsheet1",1,"Task Instructions","Screen 2","ce2tc8",2,"continue","",7826.282,7814.333,7826.282,7826.282,7814.333,7826.282,1,7826.282,0,0,NA,"Click To Continue","Continue Button",2,"object-7","Task Instructions",NA,"SUPPRF61000"
"4",1699654014382,"10/11/2023 22:06:54",1699654014382,0,"10/11/2023 22:06:54",151512,5,"task-w25u",NA,32879250,9736857,NA,"complete",NA,"654ea629b060f1ea2d712e0b","computer","Desktop or Laptop","Chromium OS 14541.0.0","Chrome 114.0.0.0","1536x864","1536x714",NA,NA,0,"Task Introduction and Instructions (re-introduce video and audio)",1,"BCADJEIFHG","Passed AC2",NA,"Spreadsheet1",1,"Task Instructions","Screen 3","1qtc8v",3,"continue","",5083.34900000002,5070.04,5083.34900000002,5083.34900000002,5070.04,5083.34900000002,1,5083.34900000002,0,0,NA,"Click To Continue","Continue Button",2,"object-52","Task Instructions",NA,"SUPPRF61000"
"5",1699654017451,"10/11/2023 22:06:57",1699654017451,0,"10/11/2023 22:06:57",151512,5,"task-w25u",NA,32879250,9736857,NA,"complete",NA,"654ea629b060f1ea2d712e0b","computer","Desktop or Laptop","Chromium OS 14541.0.0","Chrome 114.0.0.0","1536x864","1536x714",NA,NA,0,"Task Introduction and Instructions (re-introduce video and audio)",1,"BCADJEIFHG","Passed AC2",NA,"Spreadsheet1",1,"Task Instructions","Screen 4","spepx9",4,"continue","",3082.909,3067.575,3082.909,3082.909,3067.575,3082.909,1,3082.909,0,0,NA,"Click To Continue","Continue Button",2,"object-9","Task Instructions",NA,"SUPPRF61000"
"6",1699654020358,"10/11/2023 22:07:00",1699654020358,0,"10/11/2023 22:07:00",151512,5,"task-w25u",NA,32879250,9736857,NA,"complete",NA,"654ea629b060f1ea2d712e0b","computer","Desktop or Laptop","Chromium OS 14541.0.0","Chrome 114.0.0.0","1536x864","1536x714",NA,NA,0,"Task Introduction and Instructions (re-introduce video and audio)",1,"BCADJEIFHG","Passed AC2",NA,"Spreadsheet1",1,"Task Instructions","Screen 5","8nvnao",5,"continue","",2922.03400000007,2907.053,2922.03400000007,2922.03400000007,2907.053,2922.03400000007,1,2922.03400000007,0,0,NA,"Click To Continue","Continue Button",2,"object-44","Task Instructions",NA,"SUPPRF61000"
"7",1699654020376,"10/11/2023 22:07:00",1699654020376,0,"10/11/2023 22:07:00",151512,5,"task-w25u",NA,32879250,9736857,NA,"complete",NA,"654ea629b060f1ea2d712e0b","computer","Desktop or Laptop","Chromium OS 14541.0.0","Chrome 114.0.0.0","1536x864","1536x714",NA,NA,0,"Task Introduction and Instructions (re-introduce video and audio)",1,"BCADJEIFHG","Passed AC2",NA,"Spreadsheet1",NA,"","","",NA,"5","END",NA,NA,NA,NA,NA,NA,0,NA,NA,NA,NA,"","",NA,"","",NA,"SUPPRF61000"
"1",1699655676926,"10/11/2023 22:34:36",1699655676926,0,"10/11/2023 22:34:36",151512,5,"task-w25u",NA,32879507,9736920,NA,"complete",NA,"654ead8e088c1a923e367b62","computer","Desktop or Laptop","Windows 10","Chrome 119.0.0.0","1280x720","1280x603",NA,NA,0,"Task Introduction and Instructions (re-introduce video and audio)",1,"CDBEAFJGIH","Passed AC2",NA,"Spreadsheet1",NA,"","","",NA,"5","BEGIN",NA,NA,NA,NA,NA,NA,0,NA,NA,NA,NA,"","",NA,"","",NA,"SUPPRF77020"
"2",1699655680221,"10/11/2023 22:34:40",1699655680221,0,"10/11/2023 22:34:40",151512,5,"task-w25u",NA,32879507,9736920,NA,"complete",NA,"654ead8e088c1a923e367b62","computer","Desktop or Laptop","Windows 10","Chrome 119.0.0.0","1280x720","1280x603",NA,NA,0,"Task Introduction and Instructions (re-introduce video and audio)",1,"CDBEAFJGIH","Passed AC2",NA,"Spreadsheet1",1,"Task Instructions","Screen 1","anr7sn",1,"continue","",3191.59399997616,3183.164,3191.59399997616,3191.59399997616,3183.164,3191.59399997616,1,3191.59399997616,0,0,NA,"Click To Continue","Continue Button",2,"object-1944","Task Instructions",NA,"SUPPRF77020"
"3",1699655696553,"10/11/2023 22:34:56",1699655696553,0,"10/11/2023 22:34:56",151512,5,"task-w25u",NA,32879507,9736920,NA,"complete",NA,"654ead8e088c1a923e367b62","computer","Desktop or Laptop","Windows 10","Chrome 119.0.0.0","1280x720","1280x603",NA,NA,0,"Task Introduction and Instructions (re-introduce video and audio)",1,"CDBEAFJGIH","Passed AC2",NA,"Spreadsheet1",1,"Task Instructions","Screen 2","ce2tc8",2,"continue","",16340.9299999762,16333.64,16340.9299999762,16340.9299999762,16333.64,16340.9299999762,1,16340.9299999762,0,0,NA,"Click To Continue","Continue Button",2,"object-7","Task Instructions",NA,"SUPPRF77020"
"4",1699655699854,"10/11/2023 22:34:59",1699655699854,0,"10/11/2023 22:34:59",151512,5,"task-w25u",NA,32879507,9736920,NA,"complete",NA,"654ead8e088c1a923e367b62","computer","Desktop or Laptop","Windows 10","Chrome 119.0.0.0","1280x720","1280x603",NA,NA,0,"Task Introduction and Instructions (re-introduce video and audio)",1,"CDBEAFJGIH","Passed AC2",NA,"Spreadsheet1",1,"Task Instructions","Screen 3","1qtc8v",3,"continue","",3309.18999995232,3299.896,3309.18999995232,3309.18999995232,3299.896,3309.18999995232,1,3309.18999995232,0,0,NA,"Click To Continue","Continue Button",2,"object-52","Task Instructions",NA,"SUPPRF77020"
