"Event.Index","UTC.Timestamp","UTC.Date.and.Time","Local.Timestamp","Local.Timezone","Local.Date.and.Time","Experiment.ID","Experiment.Version","Tree.Node.Key","Repeat.Key","Schedule.ID","Participant.Private.ID","Participant.Starting.Group","Participant.Status","Participant.Completion.Code","Participant.External.Session.ID","Participant.Device.Type","Participant.Device","Participant.OS","Participant.Browser","Participant.Monitor.Size","Participant.Viewport.Size","Checkpoint","Room.ID","Room.Order","Task.Name","Task.Version","order.ot79","branch.g31k","branch.5gtn","Spreadsheet","Trial.Number","Display","Screen","Screen.ID","Screen.Counter","Response.Type","Response","Onset.Time","Clock.Time","Reaction.Time","Absolute.Onset.Time","Absolute.Clock.Time","Absolute.Reaction.Time","Correct","Response.Onset","Response.Duration","Proportion","Tag","Component.Name","Object.Name","Object.Number","Object.ID","Spreadsheet..display","Manipulation..Spreadsheet","Random_ID"
"1",1694559174470,"12/09/2023 22:52:54",1694533974470,-7,"12/09/2023 08:52:54",143025,5,"task-hbx7",NA,31648683,9353750,NA,"complete","ndjutm","3BC8WZX3V9VQJVYH6NY8URUQ9WKRRE","computer","Desktop or Laptop","Chromium OS 14816.131.0","Chrome 103.0.0.0","1366x768","1366x665",NA,NA,0,"Task Introduction and Instructions (Clone)",9,"ABC","Passed AC2","","Spreadsheet1",NA,"","","",NA,"5","BEGIN",NA,NA,NA,NA,NA,NA,0,NA,NA,NA,NA,"","",NA,"","",NA,"SUPAMT03638"
"2",1694559179519,"12/09/2023 22:52:59",1694533979519,-7,"12/09/2023 08:52:59",143025,5,"task-hbx7",NA,31648683,9353750,NA,"complete","ndjutm","3BC8WZX3V9VQJVYH6NY8URUQ9WKRRE","computer","Desktop or Laptop","Chromium OS 14816.131.0","Chrome 103.0.0.0","1366x768","1366x665",NA,NA,0,"Task Introduction and Instructions (Clone)",9,"ABC","Passed AC2","","Spreadsheet1",1,"Task Instructions","Screen 1","anr7sn",1,"continue","",3863.37599999404,3848.707,3863.37599999404,3863.37599999404,3848.707,3863.37599999404,1,3863.37599999404,0,0,NA,"Click To Continue","Continue Button",2,"object-1944","Task Instructions",NA,"SUPAMT03638"
"3",1694559183934,"12/09/2023 22:53:03",1694533983934,-7,"12/09/2023 08:53:03",143025,5,"task-hbx7",NA,31648683,9353750,NA,"complete","ndjutm","3BC8WZX3V9VQJVYH6NY8URUQ9WKRRE","computer","Desktop or Laptop","Chromium OS 14816.131.0","Chrome 103.0.0.0","1366x768","1366x665",NA,NA,0,"Task Introduction and Instructions (Clone)",9,"ABC","Passed AC2","","Spreadsheet1",1,"Task Instructions","Screen 2","ce2tc8",2,"continue","",4431.46900000596,4415.178,4431.46900000596,4431.46900000596,4415.178,4431.46900000596,1,4431.46900000596,0,0,NA,"Click To Continue","Continue Button",2,"object-7","Task Instructions",NA,"SUPAMT03638"
"4",1694559186681,"12/09/2023 22:53:06",1694533986681,-7,"12/09/2023 08:53:06",143025,5,"task-hbx7",NA,31648683,9353750,NA,"complete","ndjutm","3BC8WZX3V9VQJVYH6NY8URUQ9WKRRE","computer","Desktop or Laptop","Chromium OS 14816.131.0","Chrome 103.0.0.0","1366x768","1366x665",NA,NA,0,"Task Introduction and Instructions (Clone)",9,"ABC","Passed AC2","","Spreadsheet1",1,"Task Instructions","Screen 5","spepx9",3,"continue","",2762.99099999404,2749.075,2762.99099999404,2762.99099999404,2749.075,2762.99099999404,1,2762.99099999404,0,0,NA,"Click To Continue","Continue Button",2,"object-9","Task Instructions",NA,"SUPAMT03638"
"5",1694559189168,"12/09/2023 22:53:09",1694533989168,-7,"12/09/2023 08:53:09",143025,5,"task-hbx7",NA,31648683,9353750,NA,"complete","ndjutm","3BC8WZX3V9VQJVYH6NY8URUQ9WKRRE","computer","Desktop or Laptop","Chromium OS 14816.131.0","Chrome 103.0.0.0","1366x768","1366x665",NA,NA,0,"Task Introduction and Instructions (Clone)",9,"ABC","Passed AC2","","Spreadsheet1",1,"Task Instructions","Screen 9","8nvnao",4,"continue","",2499.163,2482.502,2499.163,2499.163,2482.502,2499.163,1,2499.163,0,0,NA,"Click To Continue","Continue Button",2,"object-44","Task Instructions",NA,"SUPAMT03638"
"6",1694559189186,"12/09/2023 22:53:09",1694533989186,-7,"12/09/2023 08:53:09",143025,5,"task-hbx7",NA,31648683,9353750,NA,"complete","ndjutm","3BC8WZX3V9VQJVYH6NY8URUQ9WKRRE","computer","Desktop or Laptop","Chromium OS 14816.131.0","Chrome 103.0.0.0","1366x768","1366x665",NA,NA,0,"Task Introduction and Instructions (Clone)",9,"ABC","Passed AC2","","Spreadsheet1",NA,"","","",NA,"5","END",NA,NA,NA,NA,NA,NA,0,NA,NA,NA,NA,"","",NA,"","",NA,"SUPAMT03638"
"1",1694552071832,"12/09/2023 20:54:31",1694537671832,-4,"12/09/2023 12:54:31",143025,5,"task-hbx7",NA,31651388,9354964,NA,"complete","mkqlbn","3W92K5RLW0GT7FH0I0QFSNEX2K6V5V","computer","Desktop or Laptop","Windows 10","Chrome 115.0.0.0","1364x768","1364x651",NA,NA,0,"Task Introduction and Instructions (Clone)",9,"BCA","Passed AC2","","Spreadsheet1",NA,"","","",NA,"5","BEGIN",NA,NA,NA,NA,NA,NA,0,NA,NA,NA,NA,"","",NA,"","",NA,"SUPAMT38237"
"2",1694552208029,"12/09/2023 20:56:48",1694537808029,-4,"12/09/2023 12:56:48",143025,5,"task-hbx7",NA,31651388,9354964,NA,"complete","mkqlbn","3W92K5RLW0GT7FH0I0QFSNEX2K6V5V","computer","Desktop or Laptop","Windows 10","Chrome 115.0.0.0","1364x768","1364x651",NA,NA,0,"Task Introduction and Instructions (Clone)",9,"BCA","Passed AC2","","Spreadsheet1",1,"Task Instructions","Screen 1","anr7sn",1,"continue","",136146.010000191,136137.128,136146.010000191,136146.010000191,136137.128,136146.010000191,1,136146.010000191,0,0,NA,"Click To Continue","Continue Button",2,"object-1944","Task Instructions",NA,"SUPAMT38237"
"3",1694552215444,"12/09/2023 20:56:55",1694537815444,-4,"12/09/2023 12:56:55",143025,5,"task-hbx7",NA,31651388,9354964,NA,"complete","mkqlbn","3W92K5RLW0GT7FH0I0QFSNEX2K6V5V","computer","Desktop or Laptop","Windows 10","Chrome 115.0.0.0","1364x768","1364x651",NA,NA,0,"Task Introduction and Instructions (Clone)",9,"BCA","Passed AC2","","Spreadsheet1",1,"Task Instructions","Screen 2","ce2tc8",2,"continue","",7423.98200009536,7410.48499999999,7423.98200009536,7423.98200009536,7410.48499999999,7423.98200009536,1,7423.98200009536,0,0,NA,"Click To Continue","Continue Button",2,"object-7","Task Instructions",NA,"SUPAMT38237"
"4",1694552219310,"12/09/2023 20:56:59",1694537819310,-4,"12/09/2023 12:56:59",143025,5,"task-hbx7",NA,31651388,9354964,NA,"complete","mkqlbn","3W92K5RLW0GT7FH0I0QFSNEX2K6V5V","computer","Desktop or Laptop","Windows 10","Chrome 115.0.0.0","1364x768","1364x651",NA,NA,0,"Task Introduction and Instructions (Clone)",9,"BCA","Passed AC2","","Spreadsheet1",1,"Task Instructions","Screen 5","spepx9",3,"continue","",3877.79700028611,3869.18300000002,3877.79700028611,3877.79700028611,3869.18300000002,3877.79700028611,1,3877.79700028611,0,0,NA,"Click To Continue","Continue Button",2,"object-9","Task Instructions",NA,"SUPAMT38237"
"5",1694552223133,"12/09/2023 20:57:03",1694537823133,-4,"12/09/2023 12:57:03",143025,5,"task-hbx7",NA,31651388,9354964,NA,"complete","mkqlbn","3W92K5RLW0GT7FH0I0QFSNEX2K6V5V","computer","Desktop or Laptop","Windows 10","Chrome 115.0.0.0","1364x768","1364x651",NA,NA,0,"Task Introduction and Instructions (Clone)",9,"BCA","Passed AC2","","Spreadsheet1",1,"Task Instructions","Screen 9","8nvnao",4,"continue","",3832.21400019072,3822.897,3832.21400019072,3832.21400019072,3822.897,3832.21400019072,1,3832.21400019072,0,0,NA,"Click To Continue","Continue Button",2,"object-44","Task Instructions",NA,"SUPAMT38237"
"6",1694552223146,"12/09/2023 20:57:03",1694537823146,-4,"12/09/2023 12:57:03",143025,5,"task-hbx7",NA,31651388,9354964,NA,"complete","mkqlbn","3W92K5RLW0GT7FH0I0QFSNEX2K6V5V","computer","Desktop or Laptop","Windows 10","Chrome 115.0.0.0","1364x768","1364x651",NA,NA,0,"Task Introduction and Instructions (Clone)",9,"BCA","Passed AC2","","Spreadsheet1",NA,"","","",NA,"5","END",NA,NA,NA,NA,NA,NA,0,NA,NA,NA,NA,"","",NA,"","",NA,"SUPAMT38237"
"1",1694625908657,"13/09/2023 17:25:08",1694611508657,-4,"13/09/2023 09:25:08",143025,5,"task-hbx7",NA,31667238,9360998,NA,"complete","vocxfu","3LKC68YZ3G2SUENNDPRANVX2QT4WOC","computer","Desktop or Laptop","Mac OS 10.15.7","Chrome 116.0.0.0","1440x900","1440x815",NA,NA,0,"Task Introduction and Instructions (Clone)",9,"ABC","Passed AC2","","Spreadsheet1",NA,"","","",NA,"5","BEGIN",NA,NA,NA,NA,NA,NA,0,NA,NA,NA,NA,"","",NA,"","",NA,"SUPAMT57106"
"2",1694625911536,"13/09/2023 17:25:11",1694611511536,-4,"13/09/2023 09:25:11",143025,5,"task-hbx7",NA,31667238,9360998,NA,"complete","vocxfu","3LKC68YZ3G2SUENNDPRANVX2QT4WOC","computer","Desktop or Laptop","Mac OS 10.15.7","Chrome 116.0.0.0","1440x900","1440x815",NA,NA,0,"Task Introduction and Instructions (Clone)",9,"ABC","Passed AC2","","Spreadsheet1",1,"Task Instructions","Screen 1","anr7sn",1,"continue","",2829.839,2816.554,2829.839,2829.839,2816.554,2829.839,1,2829.839,0,0,NA,"Click To Continue","Continue Button",2,"object-1944","Task Instructions",NA,"SUPAMT57106"
"3",1694625914413,"13/09/2023 17:25:14",1694611514413,-4,"13/09/2023 09:25:14",143025,5,"task-hbx7",NA,31667238,9360998,NA,"complete","vocxfu","3LKC68YZ3G2SUENNDPRANVX2QT4WOC","computer","Desktop or Laptop","Mac OS 10.15.7","Chrome 116.0.0.0","1440x900","1440x815",NA,NA,0,"Task Introduction and Instructions (Clone)",9,"ABC","Passed AC2","","Spreadsheet1",1,"Task Instructions","Screen 2","ce2tc8",2,"continue","",2891.38500002384,2883.218,2891.38500002384,2891.38500002384,2883.218,2891.38500002384,1,2891.38500002384,0,0,NA,"Click To Continue","Continue Button",2,"object-7","Task Instructions",NA,"SUPAMT57106"
"4",1694625920150,"13/09/2023 17:25:20",1694611520150,-4,"13/09/2023 09:25:20",143025,5,"task-hbx7",NA,31667238,9360998,NA,"complete","vocxfu","3LKC68YZ3G2SUENNDPRANVX2QT4WOC","computer","Desktop or Laptop","Mac OS 10.15.7","Chrome 116.0.0.0","1440x900","1440x815",NA,NA,0,"Task Introduction and Instructions (Clone)",9,"ABC","Passed AC2","","Spreadsheet1",1,"Task Instructions","Screen 5","spepx9",3,"continue","",5745.067,5739.602,5745.067,5745.067,5739.602,5745.067,1,5745.067,0,0,NA,"Click To Continue","Continue Button",2,"object-9","Task Instructions",NA,"SUPAMT57106"
"5",1694625923398,"13/09/2023 17:25:23",1694611523398,-4,"13/09/2023 09:25:23",143025,5,"task-hbx7",NA,31667238,9360998,NA,"complete","vocxfu","3LKC68YZ3G2SUENNDPRANVX2QT4WOC","computer","Desktop or Laptop","Mac OS 10.15.7","Chrome 116.0.0.0","1440x900","1440x815",NA,NA,0,"Task Introduction and Instructions (Clone)",9,"ABC","Passed AC2","","Spreadsheet1",1,"Task Instructions","Screen 9","8nvnao",4,"continue","",3253.16499998808,3249.87,3253.16499998808,3253.16499998808,3249.87,3253.16499998808,1,3253.16499998808,0,0,NA,"Click To Continue","Continue Button",2,"object-44","Task Instructions",NA,"SUPAMT57106"
"6",1694625923402,"13/09/2023 17:25:23",1694611523402,-4,"13/09/2023 09:25:23",143025,5,"task-hbx7",NA,31667238,9360998,NA,"complete","vocxfu","3LKC68YZ3G2SUENNDPRANVX2QT4WOC","computer","Desktop or Laptop","Mac OS 10.15.7","Chrome 116.0.0.0","1440x900","1440x815",NA,NA,0,"Task Introduction and Instructions (Clone)",9,"ABC","Passed AC2","","Spreadsheet1",NA,"","","",NA,"5","END",NA,NA,NA,NA,NA,NA,0,NA,NA,NA,NA,"","",NA,"","",NA,"SUPAMT57106"
"1",1694714116674,"14/09/2023 17:55:16",1694696116674,-5,"14/09/2023 07:55:16",143025,5,"task-hbx7",NA,31682804,9365141,NA,"complete","qjsujo","3MH9DQ7572BRAXHKU6Z10Y33EMBGU9","computer","Desktop or Laptop","Windows 10","Chrome 116.0.0.0","1600x900","1600x783",NA,NA,0,"Task Introduction and Instructions (Clone)",9,"BCA","Failed AC2","Passed AC1","Spreadsheet1",NA,"","","",NA,"5","BEGIN",NA,NA,NA,NA,NA,NA,0,NA,NA,NA,NA,"","",NA,"","",NA,"SUPAMT72552"
"2",1694714121399,"14/09/2023 17:55:21",1694696121399,-5,"14/09/2023 07:55:21",143025,5,"task-hbx7",NA,31682804,9365141,NA,"complete","qjsujo","3MH9DQ7572BRAXHKU6Z10Y33EMBGU9","computer","Desktop or Laptop","Windows 10","Chrome 116.0.0.0","1600x900","1600x783",NA,NA,0,"Task Introduction and Instructions (Clone)",9,"BCA","Failed AC2","Passed AC1","Spreadsheet1",1,"Task Instructions","Screen 1","anr7sn",1,"continue","",3992.88400001192,3977.178,3992.88400001192,3992.88400001192,3977.178,3992.88400001192,1,3992.88400001192,0,0,NA,"Click To Continue","Continue Button",2,"object-1944","Task Instructions",NA,"SUPAMT72552"
"3",1694714125962,"14/09/2023 17:55:25",1694696125962,-5,"14/09/2023 07:55:25",143025,5,"task-hbx7",NA,31682804,9365141,NA,"complete","qjsujo","3MH9DQ7572BRAXHKU6Z10Y33EMBGU9","computer","Desktop or Laptop","Windows 10","Chrome 116.0.0.0","1600x900","1600x783",NA,NA,0,"Task Introduction and Instructions (Clone)",9,"BCA","Failed AC2","Passed AC1","Spreadsheet1",1,"Task Instructions","Screen 2","ce2tc8",2,"continue","",4579.60600000298,4568.509,4579.60600000298,4579.60600000298,4568.509,4579.60600000298,1,4579.60600000298,0,0,NA,"Click To Continue","Continue Button",2,"object-7","Task Instructions",NA,"SUPAMT72552"
"4",1694714128732,"14/09/2023 17:55:28",1694696128732,-5,"14/09/2023 07:55:28",143025,5,"task-hbx7",NA,31682804,9365141,NA,"complete","qjsujo","3MH9DQ7572BRAXHKU6Z10Y33EMBGU9","computer","Desktop or Laptop","Windows 10","Chrome 116.0.0.0","1600x900","1600x783",NA,NA,0,"Task Introduction and Instructions (Clone)",9,"BCA","Failed AC2","Passed AC1","Spreadsheet1",1,"Task Instructions","Screen 5","spepx9",3,"continue","",2778.79700000596,2763.352,2778.79700000596,2778.79700000596,2763.352,2778.79700000596,1,2778.79700000596,0,0,NA,"Click To Continue","Continue Button",2,"object-9","Task Instructions",NA,"SUPAMT72552"
"5",1694714131399,"14/09/2023 17:55:31",1694696131399,-5,"14/09/2023 07:55:31",143025,5,"task-hbx7",NA,31682804,9365141,NA,"complete","qjsujo","3MH9DQ7572BRAXHKU6Z10Y33EMBGU9","computer","Desktop or Laptop","Windows 10","Chrome 116.0.0.0","1600x900","1600x783",NA,NA,0,"Task Introduction and Instructions (Clone)",9,"BCA","Failed AC2","Passed AC1","Spreadsheet1",1,"Task Instructions","Screen 9","8nvnao",4,"continue","",2681.924,2665.258,2681.924,2681.924,2665.258,2681.924,1,2681.924,0,0,NA,"Click To Continue","Continue Button",2,"object-44","Task Instructions",NA,"SUPAMT72552"
"6",1694714131402,"14/09/2023 17:55:31",1694696131402,-5,"14/09/2023 07:55:31",143025,5,"task-hbx7",NA,31682804,9365141,NA,"complete","qjsujo","3MH9DQ7572BRAXHKU6Z10Y33EMBGU9","computer","Desktop or Laptop","Windows 10","Chrome 116.0.0.0","1600x900","1600x783",NA,NA,0,"Task Introduction and Instructions (Clone)",9,"BCA","Failed AC2","Passed AC1","Spreadsheet1",NA,"","","",NA,"5","END",NA,NA,NA,NA,NA,NA,0,NA,NA,NA,NA,"","",NA,"","",NA,"SUPAMT72552"
