"Event.Index","UTC.Timestamp","UTC.Date.and.Time","Local.Timestamp","Local.Timezone","Local.Date.and.Time","Experiment.ID","Experiment.Version","Tree.Node.Key","Repeat.Key","Schedule.ID","Participant.Starting.Group","Participant.Status","Participant.Completion.Code","Participant.Device.Type","Participant.Device","Participant.OS","Participant.Browser","Participant.Monitor.Size","Participant.Viewport.Size","Checkpoint","Room.ID","Room.Order","Task.Name","Task.Version","order.ot79","branch.g31k","branch.5gtn","Spreadsheet","Current.Spreadsheet","Trial.Number","Display","Screen","Screen.ID","Screen.Counter","Response.Type","Response","Onset.Time","Clock.Time","Reaction.Time","Absolute.Onset.Time","Absolute.Clock.Time","Absolute.Reaction.Time","Correct","Response.Onset","Response.Duration","Proportion","Tag","Component.Name","Object.Name","Object.Number","Object.ID","Spreadsheet..display","Manipulation..Spreadsheet","Random_ID"
1,1722274534476,"29/07/2024 17:35:34",1722278134476,1,"29/07/2024 19:35:34",185160,1,"task-8tuj",NA,39265730,NA,"rejected - time limit reached",NA,"computer","Desktop or Laptop","Windows 10","Chrome 126.0.0.0","1536x864","1536x695",NA,NA,0,"Task Introduction and Instructions (re-introduce video and audio) (Clone) (Clone)",3,"ABICHDGEF","Passed AC2","","Spreadsheet1","Spreadsheet1",NA,"","","",NA,"info","BEGIN",NA,NA,NA,NA,NA,NA,0,NA,NA,NA,NA,"","",NA,"","",NA,"SUPPRF23034"
2,1722274538116,"29/07/2024 17:35:38",1722278138116,1,"29/07/2024 19:35:38",185160,1,"task-8tuj",NA,39265730,NA,"rejected - time limit reached",NA,"computer","Desktop or Laptop","Windows 10","Chrome 126.0.0.0","1536x864","1536x695",NA,NA,0,"Task Introduction and Instructions (re-introduce video and audio) (Clone) (Clone)",3,"ABICHDGEF","Passed AC2","","Spreadsheet1","Spreadsheet1",1,"Task Instructions","Screen 1","anr7sn",1,"continue","",3562.30000000596,3549.5,3562.30000000596,3562.30000000596,3549.5,3562.30000000596,1,3562.30000000596,0,0,NA,"Click To Continue","Continue Button",3,"object-60","Task Instructions",NA,"SUPPRF23034"
3,1722274553355,"29/07/2024 17:35:53",1722278153355,1,"29/07/2024 19:35:53",185160,1,"task-8tuj",NA,39265730,NA,"rejected - time limit reached",NA,"computer","Desktop or Laptop","Windows 10","Chrome 126.0.0.0","1536x864","1536x695",NA,NA,0,"Task Introduction and Instructions (re-introduce video and audio) (Clone) (Clone)",3,"ABICHDGEF","Passed AC2","","Spreadsheet1","Spreadsheet1",1,"Task Instructions","Screen 4","spepx9",2,"continue","",15252.0000000089,15248.1,15252.0000000089,15252.0000000089,15248.1,15252.0000000089,1,15252.0000000089,0,0,NA,"Click To Continue","Continue Button",2,"object-9","Task Instructions",NA,"SUPPRF23034"
4,1722274567453,"29/07/2024 17:36:07",1722278167453,1,"29/07/2024 19:36:07",185160,1,"task-8tuj",NA,39265730,NA,"rejected - time limit reached",NA,"computer","Desktop or Laptop","Windows 10","Chrome 126.0.0.0","1536x864","1536x695",NA,NA,0,"Task Introduction and Instructions (re-introduce video and audio) (Clone) (Clone)",3,"ABICHDGEF","Passed AC2","","Spreadsheet1","Spreadsheet1",1,"Task Instructions","Screen 2","ce2tc8",3,"continue","",14102.700000006,14098.2,14102.700000006,14102.700000006,14098.2,14102.700000006,1,14102.700000006,0,0,NA,"Click To Continue","Continue Button",3,"object-59","Task Instructions",NA,"SUPPRF23034"
5,1722274592014,"29/07/2024 17:36:32",1722278192014,1,"29/07/2024 19:36:32",185160,1,"task-8tuj",NA,39265730,NA,"rejected - time limit reached",NA,"computer","Desktop or Laptop","Windows 10","Chrome 126.0.0.0","1536x864","1536x695",NA,NA,0,"Task Introduction and Instructions (re-introduce video and audio) (Clone) (Clone)",3,"ABICHDGEF","Passed AC2","","Spreadsheet1","Spreadsheet1",1,"Task Instructions","Screen 3","1qtc8v",4,"continue","",24565.500000006,24563.3,24565.500000006,24565.500000006,24563.3,24565.500000006,1,24565.500000006,0,0,NA,"Click To Continue","Continue Button",2,"object-2983","Task Instructions",NA,"SUPPRF23034"
6,1722274635409,"29/07/2024 17:37:15",1722278235409,1,"29/07/2024 19:37:15",185160,1,"task-8tuj",NA,39265730,NA,"rejected - time limit reached",NA,"computer","Desktop or Laptop","Windows 10","Chrome 126.0.0.0","1536x864","1536x695",NA,NA,0,"Task Introduction and Instructions (re-introduce video and audio) (Clone) (Clone)",3,"ABICHDGEF","Passed AC2","","Spreadsheet1","Spreadsheet1",1,"Task Instructions","Screen 12","1a4vu2",5,"continue","",43396.9000000089,43394.4,43396.9000000089,43396.9000000089,43394.4,43396.9000000089,1,43396.9000000089,0,0,NA,"Click To Continue","Continue Button",2,"object-2466","Task Instructions",NA,"SUPPRF23034"
7,1722274640701,"29/07/2024 17:37:20",1722278240701,1,"29/07/2024 19:37:20",185160,1,"task-8tuj",NA,39265730,NA,"rejected - time limit reached",NA,"computer","Desktop or Laptop","Windows 10","Chrome 126.0.0.0","1536x864","1536x695",NA,NA,0,"Task Introduction and Instructions (re-introduce video and audio) (Clone) (Clone)",3,"ABICHDGEF","Passed AC2","","Spreadsheet1","Spreadsheet1",1,"Task Instructions","Screen 13","q9vwda",6,"continue","",5293.30000000595,5282.59999999999,5293.30000000595,5293.30000000595,5282.59999999999,5293.30000000595,1,5293.30000000595,0,0,NA,"Click To Continue","Continue Button",2,"object-2989","Task Instructions",NA,"SUPPRF23034"
8,1722274645326,"29/07/2024 17:37:25",1722278245326,1,"29/07/2024 19:37:25",185160,1,"task-8tuj",NA,39265730,NA,"rejected - time limit reached",NA,"computer","Desktop or Laptop","Windows 10","Chrome 126.0.0.0","1536x864","1536x695",NA,NA,0,"Task Introduction and Instructions (re-introduce video and audio) (Clone) (Clone)",3,"ABICHDGEF","Passed AC2","","Spreadsheet1","Spreadsheet1",1,"Task Instructions","Screen 11","oyulb7",7,"continue","",4635.8,4632.8,4635.8,4635.8,4632.8,4635.8,1,4635.8,0,0,NA,"Click To Continue","Continue Button",2,"object-52","Task Instructions",NA,"SUPPRF23034"
9,1722274648144,"29/07/2024 17:37:28",1722278248144,1,"29/07/2024 19:37:28",185160,1,"task-8tuj",NA,39265730,NA,"rejected - time limit reached",NA,"computer","Desktop or Laptop","Windows 10","Chrome 126.0.0.0","1536x864","1536x695",NA,NA,0,"Task Introduction and Instructions (re-introduce video and audio) (Clone) (Clone)",3,"ABICHDGEF","Passed AC2","","Spreadsheet1","Spreadsheet1",1,"Task Instructions","Screen 5","8nvnao",8,"continue","",2821.60000000894,2816.39999999999,2821.60000000894,2821.60000000894,2816.39999999999,2821.60000000894,1,2821.60000000894,0,0,NA,"Click To Continue","Continue Button",2,"object-44","Task Instructions",NA,"SUPPRF23034"
10,1722274648149,"29/07/2024 17:37:28",1722278248149,1,"29/07/2024 19:37:28",185160,1,"task-8tuj",NA,39265730,NA,"rejected - time limit reached",NA,"computer","Desktop or Laptop","Windows 10","Chrome 126.0.0.0","1536x864","1536x695",NA,NA,0,"Task Introduction and Instructions (re-introduce video and audio) (Clone) (Clone)",3,"ABICHDGEF","Passed AC2","","Spreadsheet1","Spreadsheet1",NA,"","","",NA,"info","END",NA,NA,NA,NA,NA,NA,0,NA,NA,NA,NA,"","",NA,"","",NA,"SUPPRF23034"
1,1722270199794,"29/07/2024 16:23:19",1722273799794,1,"29/07/2024 18:23:19",185160,1,"task-8tuj",NA,39264025,NA,"complete",NA,"computer","Desktop or Laptop","Mac OS 10.15.7","Chrome 126.0.0.0","1728x1117","1728x982",NA,NA,0,"Task Introduction and Instructions (re-introduce video and audio) (Clone) (Clone)",3,"BCADIEHFG","Passed AC2","","Spreadsheet1","Spreadsheet1",NA,"","","",NA,"info","BEGIN",NA,NA,NA,NA,NA,NA,0,NA,NA,NA,NA,"","",NA,"","",NA,"SUPPRF33328"
2,1722270203345,"29/07/2024 16:23:23",1722273803345,1,"29/07/2024 18:23:23",185160,1,"task-8tuj",NA,39264025,NA,"complete",NA,"computer","Desktop or Laptop","Mac OS 10.15.7","Chrome 126.0.0.0","1728x1117","1728x982",NA,NA,0,"Task Introduction and Instructions (re-introduce video and audio) (Clone) (Clone)",3,"BCADIEHFG","Passed AC2","","Spreadsheet1","Spreadsheet1",1,"Task Instructions","Screen 1","anr7sn",1,"continue","",3515.10000003576,3508.7,3515.10000003576,3515.10000003576,3508.7,3515.10000003576,1,3515.10000003576,0,0,NA,"Click To Continue","Continue Button",3,"object-60","Task Instructions",NA,"SUPPRF33328"
3,1722270209573,"29/07/2024 16:23:29",1722273809573,1,"29/07/2024 18:23:29",185160,1,"task-8tuj",NA,39264025,NA,"complete",NA,"computer","Desktop or Laptop","Mac OS 10.15.7","Chrome 126.0.0.0","1728x1117","1728x982",NA,NA,0,"Task Introduction and Instructions (re-introduce video and audio) (Clone) (Clone)",3,"BCADIEHFG","Passed AC2","","Spreadsheet1","Spreadsheet1",1,"Task Instructions","Screen 4","spepx9",2,"continue","",6235.19999998808,6227.3,6235.19999998808,6235.19999998808,6227.3,6235.19999998808,1,6235.19999998808,0,0,NA,"Click To Continue","Continue Button",2,"object-9","Task Instructions",NA,"SUPPRF33328"
4,1722270216923,"29/07/2024 16:23:36",1722273816923,1,"29/07/2024 18:23:36",185160,1,"task-8tuj",NA,39264025,NA,"complete",NA,"computer","Desktop or Laptop","Mac OS 10.15.7","Chrome 126.0.0.0","1728x1117","1728x982",NA,NA,0,"Task Introduction and Instructions (re-introduce video and audio) (Clone) (Clone)",3,"BCADIEHFG","Passed AC2","","Spreadsheet1","Spreadsheet1",1,"Task Instructions","Screen 2","ce2tc8",3,"continue","",7357.10000003576,7353.4,7357.10000003576,7357.10000003576,7353.4,7357.10000003576,1,7357.10000003576,0,0,NA,"Click To Continue","Continue Button",3,"object-59","Task Instructions",NA,"SUPPRF33328"
5,1722270226272,"29/07/2024 16:23:46",1722273826272,1,"29/07/2024 18:23:46",185160,1,"task-8tuj",NA,39264025,NA,"complete",NA,"computer","Desktop or Laptop","Mac OS 10.15.7","Chrome 126.0.0.0","1728x1117","1728x982",NA,NA,0,"Task Introduction and Instructions (re-introduce video and audio) (Clone) (Clone)",3,"BCADIEHFG","Passed AC2","","Spreadsheet1","Spreadsheet1",1,"Task Instructions","Screen 3","1qtc8v",4,"continue","",9352.60000001192,9349.4,9352.60000001192,9352.60000001192,9349.4,9352.60000001192,1,9352.60000001192,0,0,NA,"Click To Continue","Continue Button",2,"object-2983","Task Instructions",NA,"SUPPRF33328"
6,1722270233861,"29/07/2024 16:23:53",1722273833861,1,"29/07/2024 18:23:53",185160,1,"task-8tuj",NA,39264025,NA,"complete",NA,"computer","Desktop or Laptop","Mac OS 10.15.7","Chrome 126.0.0.0","1728x1117","1728x982",NA,NA,0,"Task Introduction and Instructions (re-introduce video and audio) (Clone) (Clone)",3,"BCADIEHFG","Passed AC2","","Spreadsheet1","Spreadsheet1",1,"Task Instructions","Screen 12","1a4vu2",5,"continue","",7566.2,7557.4,7566.2,7566.2,7557.4,7566.2,1,7566.2,0,0,NA,"Click To Continue","Continue Button",2,"object-2466","Task Instructions",NA,"SUPPRF33328"
7,1722270239233,"29/07/2024 16:23:59",1722273839233,1,"29/07/2024 18:23:59",185160,1,"task-8tuj",NA,39264025,NA,"complete",NA,"computer","Desktop or Laptop","Mac OS 10.15.7","Chrome 126.0.0.0","1728x1117","1728x982",NA,NA,0,"Task Introduction and Instructions (re-introduce video and audio) (Clone) (Clone)",3,"BCADIEHFG","Passed AC2","","Spreadsheet1","Spreadsheet1",1,"Task Instructions","Screen 13","q9vwda",6,"continue","",5407,5400.4,5407,5407,5400.4,5407,1,5407,0,0,NA,"Click To Continue","Continue Button",2,"object-2989","Task Instructions",NA,"SUPPRF33328"
8,1722270241860,"29/07/2024 16:24:01",1722273841860,1,"29/07/2024 18:24:01",185160,1,"task-8tuj",NA,39264025,NA,"complete",NA,"computer","Desktop or Laptop","Mac OS 10.15.7","Chrome 126.0.0.0","1728x1117","1728x982",NA,NA,0,"Task Introduction and Instructions (re-introduce video and audio) (Clone) (Clone)",3,"BCADIEHFG","Passed AC2","","Spreadsheet1","Spreadsheet1",1,"Task Instructions","Screen 11","oyulb7",7,"continue","",2634.29999998808,2631.6,2634.29999998808,2634.29999998808,2631.6,2634.29999998808,1,2634.29999998808,0,0,NA,"Click To Continue","Continue Button",2,"object-52","Task Instructions",NA,"SUPPRF33328"
9,1722270245005,"29/07/2024 16:24:05",1722273845005,1,"29/07/2024 18:24:05",185160,1,"task-8tuj",NA,39264025,NA,"complete",NA,"computer","Desktop or Laptop","Mac OS 10.15.7","Chrome 126.0.0.0","1728x1117","1728x982",NA,NA,0,"Task Introduction and Instructions (re-introduce video and audio) (Clone) (Clone)",3,"BCADIEHFG","Passed AC2","","Spreadsheet1","Spreadsheet1",1,"Task Instructions","Screen 5","8nvnao",8,"continue","",3147.5,3146.1,3147.5,3147.5,3146.1,3147.5,1,3147.5,0,0,NA,"Click To Continue","Continue Button",2,"object-44","Task Instructions",NA,"SUPPRF33328"
10,1722270245013,"29/07/2024 16:24:05",1722273845013,1,"29/07/2024 18:24:05",185160,1,"task-8tuj",NA,39264025,NA,"complete",NA,"computer","Desktop or Laptop","Mac OS 10.15.7","Chrome 126.0.0.0","1728x1117","1728x982",NA,NA,0,"Task Introduction and Instructions (re-introduce video and audio) (Clone) (Clone)",3,"BCADIEHFG","Passed AC2","","Spreadsheet1","Spreadsheet1",NA,"","","",NA,"info","END",NA,NA,NA,NA,NA,NA,0,NA,NA,NA,NA,"","",NA,"","",NA,"SUPPRF33328"
1,1722271213521,"29/07/2024 16:40:13",1722274813521,1,"29/07/2024 18:40:13",185160,1,"task-8tuj",NA,39264775,NA,"complete",NA,"computer","Desktop or Laptop","Windows 10","Chrome 127.0.0.0","1920x1080","1920x893",NA,NA,0,"Task Introduction and Instructions (re-introduce video and audio) (Clone) (Clone)",3,"IAHBGCFDE","Passed AC2","","Spreadsheet1","Spreadsheet1",NA,"","","",NA,"info","BEGIN",NA,NA,NA,NA,NA,NA,0,NA,NA,NA,NA,"","",NA,"","",NA,"SUPPRF51437"
2,1722271216648,"29/07/2024 16:40:16",1722274816648,1,"29/07/2024 18:40:16",185160,1,"task-8tuj",NA,39264775,NA,"complete",NA,"computer","Desktop or Laptop","Windows 10","Chrome 127.0.0.0","1920x1080","1920x893",NA,NA,0,"Task Introduction and Instructions (re-introduce video and audio) (Clone) (Clone)",3,"IAHBGCFDE","Passed AC2","","Spreadsheet1","Spreadsheet1",1,"Task Instructions","Screen 1","anr7sn",1,"continue","",3072.40000009537,3067.1,3072.40000009537,3072.40000009537,3067.1,3072.40000009537,1,3072.40000009537,0,0,NA,"Click To Continue","Continue Button",3,"object-60","Task Instructions",NA,"SUPPRF51437"
3,1722271219354,"29/07/2024 16:40:19",1722274819354,1,"29/07/2024 18:40:19",185160,1,"task-8tuj",NA,39264775,NA,"complete",NA,"computer","Desktop or Laptop","Windows 10","Chrome 127.0.0.0","1920x1080","1920x893",NA,NA,0,"Task Introduction and Instructions (re-introduce video and audio) (Clone) (Clone)",3,"IAHBGCFDE","Passed AC2","","Spreadsheet1","Spreadsheet1",1,"Task Instructions","Screen 4","spepx9",2,"continue","",2712.1000002861,2699.8,2712.1000002861,2712.1000002861,2699.8,2712.1000002861,1,2712.1000002861,0,0,NA,"Click To Continue","Continue Button",2,"object-9","Task Instructions",NA,"SUPPRF51437"
4,1722271228291,"29/07/2024 16:40:28",1722274828291,1,"29/07/2024 18:40:28",185160,1,"task-8tuj",NA,39264775,NA,"complete",NA,"computer","Desktop or Laptop","Windows 10","Chrome 127.0.0.0","1920x1080","1920x893",NA,NA,0,"Task Introduction and Instructions (re-introduce video and audio) (Clone) (Clone)",3,"IAHBGCFDE","Passed AC2","","Spreadsheet1","Spreadsheet1",1,"Task Instructions","Screen 2","ce2tc8",3,"continue","",8948.8000002861,8933.5,8948.8000002861,8948.8000002861,8933.5,8948.8000002861,1,8948.8000002861,0,0,NA,"Click To Continue","Continue Button",3,"object-59","Task Instructions",NA,"SUPPRF51437"
5,1722271237980,"29/07/2024 16:40:37",1722274837980,1,"29/07/2024 18:40:37",185160,1,"task-8tuj",NA,39264775,NA,"complete",NA,"computer","Desktop or Laptop","Windows 10","Chrome 127.0.0.0","1920x1080","1920x893",NA,NA,0,"Task Introduction and Instructions (re-introduce video and audio) (Clone) (Clone)",3,"IAHBGCFDE","Passed AC2","","Spreadsheet1","Spreadsheet1",1,"Task Instructions","Screen 3","1qtc8v",4,"continue","",9704.3000002861,9700.3,9704.3000002861,9704.3000002861,9700.3,9704.3000002861,1,9704.3000002861,0,0,NA,"Click To Continue","Continue Button",2,"object-2983","Task Instructions",NA,"SUPPRF51437"
6,1722271242283,"29/07/2024 16:40:42",1722274842283,1,"29/07/2024 18:40:42",185160,1,"task-8tuj",NA,39264775,NA,"complete",NA,"computer","Desktop or Laptop","Windows 10","Chrome 127.0.0.0","1920x1080","1920x893",NA,NA,0,"Task Introduction and Instructions (re-introduce video and audio) (Clone) (Clone)",3,"IAHBGCFDE","Passed AC2","","Spreadsheet1","Spreadsheet1",1,"Task Instructions","Screen 12","1a4vu2",5,"continue","",4307.39999990463,4300.2,4307.39999990463,4307.39999990463,4300.2,4307.39999990463,1,4307.39999990463,0,0,NA,"Click To Continue","Continue Button",2,"object-2466","Task Instructions",NA,"SUPPRF51437"
7,1722271246900,"29/07/2024 16:40:46",1722274846900,1,"29/07/2024 18:40:46",185160,1,"task-8tuj",NA,39264775,NA,"complete",NA,"computer","Desktop or Laptop","Windows 10","Chrome 127.0.0.0","1920x1080","1920x893",NA,NA,0,"Task Introduction and Instructions (re-introduce video and audio) (Clone) (Clone)",3,"IAHBGCFDE","Passed AC2","","Spreadsheet1","Spreadsheet1",1,"Task Instructions","Screen 13","q9vwda",6,"continue","",4623.90000019073,4616.8,4623.90000019073,4623.90000019073,4616.8,4623.90000019073,1,4623.90000019073,0,0,NA,"Click To Continue","Continue Button",2,"object-2989","Task Instructions",NA,"SUPPRF51437"
8,1722271249490,"29/07/2024 16:40:49",1722274849490,1,"29/07/2024 18:40:49",185160,1,"task-8tuj",NA,39264775,NA,"complete",NA,"computer","Desktop or Laptop","Windows 10","Chrome 127.0.0.0","1920x1080","1920x893",NA,NA,0,"Task Introduction and Instructions (re-introduce video and audio) (Clone) (Clone)",3,"IAHBGCFDE","Passed AC2","","Spreadsheet1","Spreadsheet1",1,"Task Instructions","Screen 11","oyulb7",7,"continue","",2597.39999990464,2583.5,2597.39999990464,2597.39999990464,2583.5,2597.39999990464,1,2597.39999990464,0,0,NA,"Click To Continue","Continue Button",2,"object-52","Task Instructions",NA,"SUPPRF51437"
9,1722271252325,"29/07/2024 16:40:52",1722274852325,1,"29/07/2024 18:40:52",185160,1,"task-8tuj",NA,39264775,NA,"complete",NA,"computer","Desktop or Laptop","Windows 10","Chrome 127.0.0.0","1920x1080","1920x893",NA,NA,0,"Task Introduction and Instructions (re-introduce video and audio) (Clone) (Clone)",3,"IAHBGCFDE","Passed AC2","","Spreadsheet1","Spreadsheet1",1,"Task Instructions","Screen 5","8nvnao",8,"continue","",2848.3,2833.2,2848.3,2848.3,2833.2,2848.3,1,2848.3,0,0,NA,"Click To Continue","Continue Button",2,"object-44","Task Instructions",NA,"SUPPRF51437"
10,1722271252328,"29/07/2024 16:40:52",1722274852328,1,"29/07/2024 18:40:52",185160,1,"task-8tuj",NA,39264775,NA,"complete",NA,"computer","Desktop or Laptop","Windows 10","Chrome 127.0.0.0","1920x1080","1920x893",NA,NA,0,"Task Introduction and Instructions (re-introduce video and audio) (Clone) (Clone)",3,"IAHBGCFDE","Passed AC2","","Spreadsheet1","Spreadsheet1",NA,"","","",NA,"info","END",NA,NA,NA,NA,NA,NA,0,NA,NA,NA,NA,"","",NA,"","",NA,"SUPPRF51437"
1,1722270558751,"29/07/2024 16:29:18",1722256158751,-4,"29/07/2024 08:29:18",185160,1,"task-8tuj",NA,39264314,NA,"complete",NA,"computer","Desktop or Laptop","Mac OS 10.15.7","Chrome 126.0.0.0","1440x900","1440x813",NA,NA,0,"Task Introduction and Instructions (re-introduce video and audio) (Clone) (Clone)",3,"EFDGCHBIA","Passed AC2","","Spreadsheet1","Spreadsheet1",NA,"","","",NA,"info","BEGIN",NA,NA,NA,NA,NA,NA,0,NA,NA,NA,NA,"","",NA,"","",NA,"SUPPRF82983"
2,1722270563353,"29/07/2024 16:29:23",1722256163353,-4,"29/07/2024 08:29:23",185160,1,"task-8tuj",NA,39264314,NA,"complete",NA,"computer","Desktop or Laptop","Mac OS 10.15.7","Chrome 126.0.0.0","1440x900","1440x813",NA,NA,0,"Task Introduction and Instructions (re-introduce video and audio) (Clone) (Clone)",3,"EFDGCHBIA","Passed AC2","","Spreadsheet1","Spreadsheet1",1,"Task Instructions","Screen 1","anr7sn",1,"continue","",3988.49999999851,3981,3988.49999999851,3988.49999999851,3981,3988.49999999851,1,3988.49999999851,0,0,NA,"Click To Continue","Continue Button",3,"object-60","Task Instructions",NA,"SUPPRF82983"
3,1722270566476,"29/07/2024 16:29:26",1722256166476,-4,"29/07/2024 08:29:26",185160,1,"task-8tuj",NA,39264314,NA,"complete",NA,"computer","Desktop or Laptop","Mac OS 10.15.7","Chrome 126.0.0.0","1440x900","1440x813",NA,NA,0,"Task Introduction and Instructions (re-introduce video and audio) (Clone) (Clone)",3,"EFDGCHBIA","Passed AC2","","Spreadsheet1","Spreadsheet1",1,"Task Instructions","Screen 4","spepx9",2,"continue","",3131.2,3114.4,3131.2,3131.2,3114.4,3131.2,1,3131.2,0,0,NA,"Click To Continue","Continue Button",2,"object-9","Task Instructions",NA,"SUPPRF82983"
4,1722270575476,"29/07/2024 16:29:35",1722256175476,-4,"29/07/2024 08:29:35",185160,1,"task-8tuj",NA,39264314,NA,"complete",NA,"computer","Desktop or Laptop","Mac OS 10.15.7","Chrome 126.0.0.0","1440x900","1440x813",NA,NA,0,"Task Introduction and Instructions (re-introduce video and audio) (Clone) (Clone)",3,"EFDGCHBIA","Passed AC2","","Spreadsheet1","Spreadsheet1",1,"Task Instructions","Screen 2","ce2tc8",3,"continue","",9017.30000000149,9011.5,9017.30000000149,9017.30000000149,9011.5,9017.30000000149,1,9017.30000000149,0,0,NA,"Click To Continue","Continue Button",3,"object-59","Task Instructions",NA,"SUPPRF82983"
5,1722270583623,"29/07/2024 16:29:43",1722256183623,-4,"29/07/2024 08:29:43",185160,1,"task-8tuj",NA,39264314,NA,"complete",NA,"computer","Desktop or Laptop","Mac OS 10.15.7","Chrome 126.0.0.0","1440x900","1440x813",NA,NA,0,"Task Introduction and Instructions (re-introduce video and audio) (Clone) (Clone)",3,"EFDGCHBIA","Passed AC2","","Spreadsheet1","Spreadsheet1",1,"Task Instructions","Screen 3","1qtc8v",4,"continue","",8151.99999999702,8143.8,8151.99999999702,8151.99999999702,8143.8,8151.99999999702,1,8151.99999999702,0,0,NA,"Click To Continue","Continue Button",2,"object-2983","Task Instructions",NA,"SUPPRF82983"
6,1722270589103,"29/07/2024 16:29:49",1722256189103,-4,"29/07/2024 08:29:49",185160,1,"task-8tuj",NA,39264314,NA,"complete",NA,"computer","Desktop or Laptop","Mac OS 10.15.7","Chrome 126.0.0.0","1440x900","1440x813",NA,NA,0,"Task Introduction and Instructions (re-introduce video and audio) (Clone) (Clone)",3,"EFDGCHBIA","Passed AC2","","Spreadsheet1","Spreadsheet1",1,"Task Instructions","Screen 12","1a4vu2",5,"continue","",5488.00000000149,5479.8,5488.00000000149,5488.00000000149,5479.8,5488.00000000149,1,5488.00000000149,0,0,NA,"Click To Continue","Continue Button",2,"object-2466","Task Instructions",NA,"SUPPRF82983"
7,1722270593988,"29/07/2024 16:29:53",1722256193988,-4,"29/07/2024 08:29:53",185160,1,"task-8tuj",NA,39264314,NA,"complete",NA,"computer","Desktop or Laptop","Mac OS 10.15.7","Chrome 126.0.0.0","1440x900","1440x813",NA,NA,0,"Task Introduction and Instructions (re-introduce video and audio) (Clone) (Clone)",3,"EFDGCHBIA","Passed AC2","","Spreadsheet1","Spreadsheet1",1,"Task Instructions","Screen 13","q9vwda",6,"continue","",4893.6,4881,4893.6,4893.6,4881,4893.6,1,4893.6,0,0,NA,"Click To Continue","Continue Button",2,"object-2989","Task Instructions",NA,"SUPPRF82983"
8,1722270600014,"29/07/2024 16:30:00",1722256200014,-4,"29/07/2024 08:30:00",185160,1,"task-8tuj",NA,39264314,NA,"complete",NA,"computer","Desktop or Laptop","Mac OS 10.15.7","Chrome 126.0.0.0","1440x900","1440x813",NA,NA,0,"Task Introduction and Instructions (re-introduce video and audio) (Clone) (Clone)",3,"EFDGCHBIA","Passed AC2","","Spreadsheet1","Spreadsheet1",1,"Task Instructions","Screen 11","oyulb7",7,"continue","",6038.6,6028.6,6038.6,6038.6,6028.6,6038.6,1,6038.6,0,0,NA,"Click To Continue","Continue Button",2,"object-52","Task Instructions",NA,"SUPPRF82983"
9,1722270608834,"29/07/2024 16:30:08",1722256208834,-4,"29/07/2024 08:30:08",185160,1,"task-8tuj",NA,39264314,NA,"complete",NA,"computer","Desktop or Laptop","Mac OS 10.15.7","Chrome 126.0.0.0","1440x900","1440x813",NA,NA,0,"Task Introduction and Instructions (re-introduce video and audio) (Clone) (Clone)",3,"EFDGCHBIA","Passed AC2","","Spreadsheet1","Spreadsheet1",1,"Task Instructions","Screen 5","8nvnao",8,"continue","",8826.2,8810.5,8826.2,8826.2,8810.5,8826.2,1,8826.2,0,0,NA,"Click To Continue","Continue Button",2,"object-44","Task Instructions",NA,"SUPPRF82983"
10,1722270608842,"29/07/2024 16:30:08",1722256208842,-4,"29/07/2024 08:30:08",185160,1,"task-8tuj",NA,39264314,NA,"complete",NA,"computer","Desktop or Laptop","Mac OS 10.15.7","Chrome 126.0.0.0","1440x900","1440x813",NA,NA,0,"Task Introduction and Instructions (re-introduce video and audio) (Clone) (Clone)",3,"EFDGCHBIA","Passed AC2","","Spreadsheet1","Spreadsheet1",NA,"","","",NA,"info","END",NA,NA,NA,NA,NA,NA,0,NA,NA,NA,NA,"","",NA,"","",NA,"SUPPRF82983"
1,1722270358893,"29/07/2024 16:25:58",1722273958893,1,"29/07/2024 18:25:58",185160,1,"task-8tuj",NA,39264163,NA,"complete",NA,"computer","Desktop or Laptop","Mac OS 10.15.7","Chrome 126.0.0.0","1440x900","1440x779",NA,NA,0,"Task Introduction and Instructions (re-introduce video and audio) (Clone) (Clone)",3,"DECFBGAHI","Passed AC2","","Spreadsheet1","Spreadsheet1",NA,"","","",NA,"info","BEGIN",NA,NA,NA,NA,NA,NA,0,NA,NA,NA,NA,"","",NA,"","",NA,"SUPPRF42289"
2,1722270362287,"29/07/2024 16:26:02",1722273962287,1,"29/07/2024 18:26:02",185160,1,"task-8tuj",NA,39264163,NA,"complete",NA,"computer","Desktop or Laptop","Mac OS 10.15.7","Chrome 126.0.0.0","1440x900","1440x779",NA,NA,0,"Task Introduction and Instructions (re-introduce video and audio) (Clone) (Clone)",3,"DECFBGAHI","Passed AC2","","Spreadsheet1","Spreadsheet1",1,"Task Instructions","Screen 1","anr7sn",1,"continue","",3330.60000000002,3316.8,3330.60000000002,3330.60000000002,3316.8,3330.60000000002,1,3330.60000000002,0,0,NA,"Click To Continue","Continue Button",3,"object-60","Task Instructions",NA,"SUPPRF42289"
3,1722270365354,"29/07/2024 16:26:05",1722273965354,1,"29/07/2024 18:26:05",185160,1,"task-8tuj",NA,39264163,NA,"complete",NA,"computer","Desktop or Laptop","Mac OS 10.15.7","Chrome 126.0.0.0","1440x900","1440x779",NA,NA,0,"Task Introduction and Instructions (re-introduce video and audio) (Clone) (Clone)",3,"DECFBGAHI","Passed AC2","","Spreadsheet1","Spreadsheet1",1,"Task Instructions","Screen 4","spepx9",2,"continue","",3081.00000000004,3066.8,3081.00000000004,3081.00000000004,3066.8,3081.00000000004,1,3081.00000000004,0,0,NA,"Click To Continue","Continue Button",2,"object-9","Task Instructions",NA,"SUPPRF42289"
4,1722270369738,"29/07/2024 16:26:09",1722273969738,1,"29/07/2024 18:26:09",185160,1,"task-8tuj",NA,39264163,NA,"complete",NA,"computer","Desktop or Laptop","Mac OS 10.15.7","Chrome 126.0.0.0","1440x900","1440x779",NA,NA,0,"Task Introduction and Instructions (re-introduce video and audio) (Clone) (Clone)",3,"DECFBGAHI","Passed AC2","","Spreadsheet1","Spreadsheet1",1,"Task Instructions","Screen 2","ce2tc8",3,"continue","",4397.89999999999,4383.4,4397.89999999999,4397.89999999999,4383.4,4397.89999999999,1,4397.89999999999,0,0,NA,"Click To Continue","Continue Button",3,"object-59","Task Instructions",NA,"SUPPRF42289"
5,1722270463306,"29/07/2024 16:27:43",1722274063306,1,"29/07/2024 18:27:43",185160,1,"task-8tuj",NA,39264163,NA,"complete",NA,"computer","Desktop or Laptop","Mac OS 10.15.7","Chrome 126.0.0.0","1440x900","1440x779",NA,NA,0,"Task Introduction and Instructions (re-introduce video and audio) (Clone) (Clone)",3,"DECFBGAHI","Passed AC2","","Spreadsheet1","Spreadsheet1",1,"Task Instructions","Screen 3","1qtc8v",4,"continue","",93585.2,93569.3,93585.2,93585.2,93569.3,93585.2,1,93585.2,0,0,NA,"Click To Continue","Continue Button",2,"object-2983","Task Instructions",NA,"SUPPRF42289"
6,1722270468455,"29/07/2024 16:27:48",1722274068455,1,"29/07/2024 18:27:48",185160,1,"task-8tuj",NA,39264163,NA,"complete",NA,"computer","Desktop or Laptop","Mac OS 10.15.7","Chrome 126.0.0.0","1440x900","1440x779",NA,NA,0,"Task Introduction and Instructions (re-introduce video and audio) (Clone) (Clone)",3,"DECFBGAHI","Passed AC2","","Spreadsheet1","Spreadsheet1",1,"Task Instructions","Screen 12","1a4vu2",5,"continue","",5165.40000000005,5150.89999999999,5165.40000000005,5165.40000000005,5150.89999999999,5165.40000000005,1,5165.40000000005,0,0,NA,"Click To Continue","Continue Button",2,"object-2466","Task Instructions",NA,"SUPPRF42289"
7,1722270477672,"29/07/2024 16:27:57",1722274077672,1,"29/07/2024 18:27:57",185160,1,"task-8tuj",NA,39264163,NA,"complete",NA,"computer","Desktop or Laptop","Mac OS 10.15.7","Chrome 126.0.0.0","1440x900","1440x779",NA,NA,0,"Task Introduction and Instructions (re-introduce video and audio) (Clone) (Clone)",3,"DECFBGAHI","Passed AC2","","Spreadsheet1","Spreadsheet1",1,"Task Instructions","Screen 13","q9vwda",6,"continue","",9231.70000000001,9217,9231.70000000001,9231.70000000001,9217,9231.70000000001,1,9231.70000000001,0,0,NA,"Click To Continue","Continue Button",2,"object-2989","Task Instructions",NA,"SUPPRF42289"
8,1722270480688,"29/07/2024 16:28:00",1722274080688,1,"29/07/2024 18:28:00",185160,1,"task-8tuj",NA,39264163,NA,"complete",NA,"computer","Desktop or Laptop","Mac OS 10.15.7","Chrome 126.0.0.0","1440x900","1440x779",NA,NA,0,"Task Introduction and Instructions (re-introduce video and audio) (Clone) (Clone)",3,"DECFBGAHI","Passed AC2","","Spreadsheet1","Spreadsheet1",1,"Task Instructions","Screen 11","oyulb7",7,"continue","",3031.60000000003,3016.8,3031.60000000003,3031.60000000003,3016.8,3031.60000000003,1,3031.60000000003,0,0,NA,"Click To Continue","Continue Button",2,"object-52","Task Instructions",NA,"SUPPRF42289"
9,1722270484038,"29/07/2024 16:28:04",1722274084038,1,"29/07/2024 18:28:04",185160,1,"task-8tuj",NA,39264163,NA,"complete",NA,"computer","Desktop or Laptop","Mac OS 10.15.7","Chrome 126.0.0.0","1440x900","1440x779",NA,NA,0,"Task Introduction and Instructions (re-introduce video and audio) (Clone) (Clone)",3,"DECFBGAHI","Passed AC2","","Spreadsheet1","Spreadsheet1",1,"Task Instructions","Screen 5","8nvnao",8,"continue","",3364.49999999999,3350.09999999999,3364.49999999999,3364.49999999999,3350.09999999999,3364.49999999999,1,3364.49999999999,0,0,NA,"Click To Continue","Continue Button",2,"object-44","Task Instructions",NA,"SUPPRF42289"
10,1722270484041,"29/07/2024 16:28:04",1722274084041,1,"29/07/2024 18:28:04",185160,1,"task-8tuj",NA,39264163,NA,"complete",NA,"computer","Desktop or Laptop","Mac OS 10.15.7","Chrome 126.0.0.0","1440x900","1440x779",NA,NA,0,"Task Introduction and Instructions (re-introduce video and audio) (Clone) (Clone)",3,"DECFBGAHI","Passed AC2","","Spreadsheet1","Spreadsheet1",NA,"","","",NA,"info","END",NA,NA,NA,NA,NA,NA,0,NA,NA,NA,NA,"","",NA,"","",NA,"SUPPRF42289"
1,1722270858865,"29/07/2024 16:34:18",1722274458865,1,"29/07/2024 18:34:18",185160,1,"task-8tuj",NA,39264539,NA,"complete",NA,"computer","Desktop or Laptop","Windows 10","Chrome 126.0.0.0","1504x1003","1504x868",NA,NA,0,"Task Introduction and Instructions (re-introduce video and audio) (Clone) (Clone)",3,"FGEHDICAB","Passed AC2","","Spreadsheet1","Spreadsheet1",NA,"","","",NA,"info","BEGIN",NA,NA,NA,NA,NA,NA,0,NA,NA,NA,NA,"","",NA,"","",NA,"SUPPRF97636"
2,1722270862027,"29/07/2024 16:34:22",1722274462027,1,"29/07/2024 18:34:22",185160,1,"task-8tuj",NA,39264539,NA,"complete",NA,"computer","Desktop or Laptop","Windows 10","Chrome 126.0.0.0","1504x1003","1504x868",NA,NA,0,"Task Introduction and Instructions (re-introduce video and audio) (Clone) (Clone)",3,"FGEHDICAB","Passed AC2","","Spreadsheet1","Spreadsheet1",1,"Task Instructions","Screen 1","anr7sn",1,"continue","",3064.39999997616,3050.4,3064.39999997616,3064.39999997616,3050.4,3064.39999997616,1,3064.39999997616,0,0,NA,"Click To Continue","Continue Button",3,"object-60","Task Instructions",NA,"SUPPRF97636"
3,1722270918733,"29/07/2024 16:35:18",1722274518733,1,"29/07/2024 18:35:18",185160,1,"task-8tuj",NA,39264539,NA,"complete",NA,"computer","Desktop or Laptop","Windows 10","Chrome 126.0.0.0","1504x1003","1504x868",NA,NA,0,"Task Introduction and Instructions (re-introduce video and audio) (Clone) (Clone)",3,"FGEHDICAB","Passed AC2","","Spreadsheet1","Spreadsheet1",1,"Task Instructions","Screen 4","spepx9",2,"continue","",56720,56703.2,56720,56720,56703.2,56720,1,56720,0,0,NA,"Click To Continue","Continue Button",2,"object-9","Task Instructions",NA,"SUPPRF97636"
4,1722270945796,"29/07/2024 16:35:45",1722274545796,1,"29/07/2024 18:35:45",185160,1,"task-8tuj",NA,39264539,NA,"complete",NA,"computer","Desktop or Laptop","Windows 10","Chrome 126.0.0.0","1504x1003","1504x868",NA,NA,0,"Task Introduction and Instructions (re-introduce video and audio) (Clone) (Clone)",3,"FGEHDICAB","Passed AC2","","Spreadsheet1","Spreadsheet1",1,"Task Instructions","Screen 2","ce2tc8",3,"continue","",27080.0999999881,27068,27080.0999999881,27080.0999999881,27068,27080.0999999881,1,27080.0999999881,0,0,NA,"Click To Continue","Continue Button",3,"object-59","Task Instructions",NA,"SUPPRF97636"
5,1722270957296,"29/07/2024 16:35:57",1722274557296,1,"29/07/2024 18:35:57",185160,1,"task-8tuj",NA,39264539,NA,"complete",NA,"computer","Desktop or Laptop","Windows 10","Chrome 126.0.0.0","1504x1003","1504x868",NA,NA,0,"Task Introduction and Instructions (re-introduce video and audio) (Clone) (Clone)",3,"FGEHDICAB","Passed AC2","","Spreadsheet1","Spreadsheet1",1,"Task Instructions","Screen 3","1qtc8v",4,"continue","",11512.0999999881,11500.6,11512.0999999881,11512.0999999881,11500.6,11512.0999999881,1,11512.0999999881,0,0,NA,"Click To Continue","Continue Button",2,"object-2983","Task Instructions",NA,"SUPPRF97636"
6,1722271007949,"29/07/2024 16:36:47",1722274607949,1,"29/07/2024 18:36:47",185160,1,"task-8tuj",NA,39264539,NA,"complete",NA,"computer","Desktop or Laptop","Windows 10","Chrome 126.0.0.0","1504x1003","1504x868",NA,NA,0,"Task Introduction and Instructions (re-introduce video and audio) (Clone) (Clone)",3,"FGEHDICAB","Passed AC2","","Spreadsheet1","Spreadsheet1",1,"Task Instructions","Screen 12","1a4vu2",5,"continue","",50669.5,50652.8,50669.5,50669.5,50652.8,50669.5,1,50669.5,0,0,NA,"Click To Continue","Continue Button",2,"object-2466","Task Instructions",NA,"SUPPRF97636"
7,1722271013577,"29/07/2024 16:36:53",1722274613577,1,"29/07/2024 18:36:53",185160,1,"task-8tuj",NA,39264539,NA,"complete",NA,"computer","Desktop or Laptop","Windows 10","Chrome 126.0.0.0","1504x1003","1504x868",NA,NA,0,"Task Introduction and Instructions (re-introduce video and audio) (Clone) (Clone)",3,"FGEHDICAB","Passed AC2","","Spreadsheet1","Spreadsheet1",1,"Task Instructions","Screen 13","q9vwda",6,"continue","",5646.5,5633.5,5646.5,5646.5,5633.5,5646.5,1,5646.5,0,0,NA,"Click To Continue","Continue Button",2,"object-2989","Task Instructions",NA,"SUPPRF97636"
8,1722271027341,"29/07/2024 16:37:07",1722274627341,1,"29/07/2024 18:37:07",185160,1,"task-8tuj",NA,39264539,NA,"complete",NA,"computer","Desktop or Laptop","Windows 10","Chrome 126.0.0.0","1504x1003","1504x868",NA,NA,0,"Task Introduction and Instructions (re-introduce video and audio) (Clone) (Clone)",3,"FGEHDICAB","Passed AC2","","Spreadsheet1","Spreadsheet1",1,"Task Instructions","Screen 11","oyulb7",7,"continue","",13777.5,13767,13777.5,13777.5,13767,13777.5,1,13777.5,0,0,NA,"Click To Continue","Continue Button",2,"object-52","Task Instructions",NA,"SUPPRF97636"
9,1722271030115,"29/07/2024 16:37:10",1722274630115,1,"29/07/2024 18:37:10",185160,1,"task-8tuj",NA,39264539,NA,"complete",NA,"computer","Desktop or Laptop","Windows 10","Chrome 126.0.0.0","1504x1003","1504x868",NA,NA,0,"Task Introduction and Instructions (re-introduce video and audio) (Clone) (Clone)",3,"FGEHDICAB","Passed AC2","","Spreadsheet1","Spreadsheet1",1,"Task Instructions","Screen 5","8nvnao",8,"continue","",2783.59999996424,2767.20000000001,2783.59999996424,2783.59999996424,2767.20000000001,2783.59999996424,1,2783.59999996424,0,0,NA,"Click To Continue","Continue Button",2,"object-44","Task Instructions",NA,"SUPPRF97636"
10,1722271030117,"29/07/2024 16:37:10",1722274630117,1,"29/07/2024 18:37:10",185160,1,"task-8tuj",NA,39264539,NA,"complete",NA,"computer","Desktop or Laptop","Windows 10","Chrome 126.0.0.0","1504x1003","1504x868",NA,NA,0,"Task Introduction and Instructions (re-introduce video and audio) (Clone) (Clone)",3,"FGEHDICAB","Passed AC2","","Spreadsheet1","Spreadsheet1",NA,"","","",NA,"info","END",NA,NA,NA,NA,NA,NA,0,NA,NA,NA,NA,"","",NA,"","",NA,"SUPPRF97636"
1,1722271006745,"29/07/2024 16:36:46",1722256606745,-4,"29/07/2024 08:36:46",185160,1,"task-8tuj",NA,39264605,NA,"complete",NA,"computer","Desktop or Laptop","Windows 10","Chrome 126.0.0.0","1536x960","1536x843",NA,NA,0,"Task Introduction and Instructions (re-introduce video and audio) (Clone) (Clone)",3,"FGEHDICAB","Passed AC2","","Spreadsheet1","Spreadsheet1",NA,"","","",NA,"info","BEGIN",NA,NA,NA,NA,NA,NA,0,NA,NA,NA,NA,"","",NA,"","",NA,"SUPPRF03187"
2,1722271016331,"29/07/2024 16:36:56",1722256616331,-4,"29/07/2024 08:36:56",185160,1,"task-8tuj",NA,39264605,NA,"complete",NA,"computer","Desktop or Laptop","Windows 10","Chrome 126.0.0.0","1536x960","1536x843",NA,NA,0,"Task Introduction and Instructions (re-introduce video and audio) (Clone) (Clone)",3,"FGEHDICAB","Passed AC2","","Spreadsheet1","Spreadsheet1",1,"Task Instructions","Screen 1","anr7sn",1,"continue","",9431.20000014305,9424.6,9431.20000014305,9431.20000014305,9424.6,9431.20000014305,1,9431.20000014305,0,0,NA,"Click To Continue","Continue Button",3,"object-60","Task Instructions",NA,"SUPPRF03187"
3,1722271021570,"29/07/2024 16:37:01",1722256621570,-4,"29/07/2024 08:37:01",185160,1,"task-8tuj",NA,39264605,NA,"complete",NA,"computer","Desktop or Laptop","Windows 10","Chrome 126.0.0.0","1536x960","1536x843",NA,NA,0,"Task Introduction and Instructions (re-introduce video and audio) (Clone) (Clone)",3,"FGEHDICAB","Passed AC2","","Spreadsheet1","Spreadsheet1",1,"Task Instructions","Screen 4","spepx9",2,"continue","",5245.70000004768,5237.7,5245.70000004768,5245.70000004768,5237.7,5245.70000004768,1,5245.70000004768,0,0,NA,"Click To Continue","Continue Button",2,"object-9","Task Instructions",NA,"SUPPRF03187"
4,1722271028264,"29/07/2024 16:37:08",1722256628264,-4,"29/07/2024 08:37:08",185160,1,"task-8tuj",NA,39264605,NA,"complete",NA,"computer","Desktop or Laptop","Windows 10","Chrome 126.0.0.0","1536x960","1536x843",NA,NA,0,"Task Introduction and Instructions (re-introduce video and audio) (Clone) (Clone)",3,"FGEHDICAB","Passed AC2","","Spreadsheet1","Spreadsheet1",1,"Task Instructions","Screen 2","ce2tc8",3,"continue","",6702.40000014305,6689,6702.40000014305,6702.40000014305,6689,6702.40000014305,1,6702.40000014305,0,0,NA,"Click To Continue","Continue Button",3,"object-59","Task Instructions",NA,"SUPPRF03187"
5,1722271036003,"29/07/2024 16:37:16",1722256636003,-4,"29/07/2024 08:37:16",185160,1,"task-8tuj",NA,39264605,NA,"complete",NA,"computer","Desktop or Laptop","Windows 10","Chrome 126.0.0.0","1536x960","1536x843",NA,NA,0,"Task Introduction and Instructions (re-introduce video and audio) (Clone) (Clone)",3,"FGEHDICAB","Passed AC2","","Spreadsheet1","Spreadsheet1",1,"Task Instructions","Screen 3","1qtc8v",4,"continue","",7752.60000019073,7739.7,7752.60000019073,7752.60000019073,7739.7,7752.60000019073,1,7752.60000019073,0,0,NA,"Click To Continue","Continue Button",2,"object-2983","Task Instructions",NA,"SUPPRF03187"
6,1722271040586,"29/07/2024 16:37:20",1722256640586,-4,"29/07/2024 08:37:20",185160,1,"task-8tuj",NA,39264605,NA,"complete",NA,"computer","Desktop or Laptop","Windows 10","Chrome 126.0.0.0","1536x960","1536x843",NA,NA,0,"Task Introduction and Instructions (re-introduce video and audio) (Clone) (Clone)",3,"FGEHDICAB","Passed AC2","","Spreadsheet1","Spreadsheet1",1,"Task Instructions","Screen 12","1a4vu2",5,"continue","",4595.50000009537,4587.1,4595.50000009537,4595.50000009537,4587.1,4595.50000009537,1,4595.50000009537,0,0,NA,"Click To Continue","Continue Button",2,"object-2466","Task Instructions",NA,"SUPPRF03187"
7,1722271049166,"29/07/2024 16:37:29",1722256649166,-4,"29/07/2024 08:37:29",185160,1,"task-8tuj",NA,39264605,NA,"complete",NA,"computer","Desktop or Laptop","Windows 10","Chrome 126.0.0.0","1536x960","1536x843",NA,NA,0,"Task Introduction and Instructions (re-introduce video and audio) (Clone) (Clone)",3,"FGEHDICAB","Passed AC2","","Spreadsheet1","Spreadsheet1",1,"Task Instructions","Screen 13","q9vwda",6,"continue","",8588.90000009537,8573.8,8588.90000009537,8588.90000009537,8573.8,8588.90000009537,1,8588.90000009537,0,0,NA,"Click To Continue","Continue Button",2,"object-2989","Task Instructions",NA,"SUPPRF03187"
8,1722271056081,"29/07/2024 16:37:36",1722256656081,-4,"29/07/2024 08:37:36",185160,1,"task-8tuj",NA,39264605,NA,"complete",NA,"computer","Desktop or Laptop","Windows 10","Chrome 126.0.0.0","1536x960","1536x843",NA,NA,0,"Task Introduction and Instructions (re-introduce video and audio) (Clone) (Clone)",3,"FGEHDICAB","Passed AC2","","Spreadsheet1","Spreadsheet1",1,"Task Instructions","Screen 11","oyulb7",7,"continue","",6929.80000014305,6922.3,6929.80000014305,6929.80000014305,6922.3,6929.80000014305,1,6929.80000014305,0,0,NA,"Click To Continue","Continue Button",2,"object-52","Task Instructions",NA,"SUPPRF03187"
9,1722271068461,"29/07/2024 16:37:48",1722256668461,-4,"29/07/2024 08:37:48",185160,1,"task-8tuj",NA,39264605,NA,"complete",NA,"computer","Desktop or Laptop","Windows 10","Chrome 126.0.0.0","1536x960","1536x843",NA,NA,0,"Task Introduction and Instructions (re-introduce video and audio) (Clone) (Clone)",3,"FGEHDICAB","Passed AC2","","Spreadsheet1","Spreadsheet1",1,"Task Instructions","Screen 5","8nvnao",8,"continue","",12387.1000000477,12377.1,12387.1000000477,12387.1000000477,12377.1,12387.1000000477,1,12387.1000000477,0,0,NA,"Click To Continue","Continue Button",2,"object-44","Task Instructions",NA,"SUPPRF03187"
10,1722271068466,"29/07/2024 16:37:48",1722256668466,-4,"29/07/2024 08:37:48",185160,1,"task-8tuj",NA,39264605,NA,"complete",NA,"computer","Desktop or Laptop","Windows 10","Chrome 126.0.0.0","1536x960","1536x843",NA,NA,0,"Task Introduction and Instructions (re-introduce video and audio) (Clone) (Clone)",3,"FGEHDICAB","Passed AC2","","Spreadsheet1","Spreadsheet1",NA,"","","",NA,"info","END",NA,NA,NA,NA,NA,NA,0,NA,NA,NA,NA,"","",NA,"","",NA,"SUPPRF03187"
1,1722270986830,"29/07/2024 16:36:26",1722274586830,1,"29/07/2024 18:36:26",185160,1,"task-8tuj",NA,39264620,NA,"complete",NA,"computer","Desktop or Laptop","Windows 10","Chrome 109.0.0.0","1366x768","1366x625",NA,NA,0,"Task Introduction and Instructions (re-introduce video and audio) (Clone) (Clone)",3,"HIGAFBECD","Passed AC2","","Spreadsheet1","Spreadsheet1",NA,"","","",NA,"info","BEGIN",NA,NA,NA,NA,NA,NA,0,NA,NA,NA,NA,"","",NA,"","",NA,"SUPPRF90629"
2,1722270992000,"29/07/2024 16:36:32",1722274592000,1,"29/07/2024 18:36:32",185160,1,"task-8tuj",NA,39264620,NA,"complete",NA,"computer","Desktop or Laptop","Windows 10","Chrome 109.0.0.0","1366x768","1366x625",NA,NA,0,"Task Introduction and Instructions (re-introduce video and audio) (Clone) (Clone)",3,"HIGAFBECD","Passed AC2","","Spreadsheet1","Spreadsheet1",1,"Task Instructions","Screen 1","anr7sn",1,"continue","",4913.595,4896.938,4913.595,4913.595,4896.938,4913.595,1,4913.595,0,0,NA,"Click To Continue","Continue Button",3,"object-60","Task Instructions",NA,"SUPPRF90629"
3,1722270994860,"29/07/2024 16:36:34",1722274594860,1,"29/07/2024 18:36:34",185160,1,"task-8tuj",NA,39264620,NA,"complete",NA,"computer","Desktop or Laptop","Windows 10","Chrome 109.0.0.0","1366x768","1366x625",NA,NA,0,"Task Introduction and Instructions (re-introduce video and audio) (Clone) (Clone)",3,"HIGAFBECD","Passed AC2","","Spreadsheet1","Spreadsheet1",1,"Task Instructions","Screen 4","spepx9",2,"continue","",2882.864,2866.199,2882.864,2882.864,2866.199,2882.864,1,2882.864,0,0,NA,"Click To Continue","Continue Button",2,"object-9","Task Instructions",NA,"SUPPRF90629"
4,1722270997555,"29/07/2024 16:36:37",1722274597555,1,"29/07/2024 18:36:37",185160,1,"task-8tuj",NA,39264620,NA,"complete",NA,"computer","Desktop or Laptop","Windows 10","Chrome 109.0.0.0","1366x768","1366x625",NA,NA,0,"Task Introduction and Instructions (re-introduce video and audio) (Clone) (Clone)",3,"HIGAFBECD","Passed AC2","","Spreadsheet1","Spreadsheet1",1,"Task Instructions","Screen 2","ce2tc8",3,"continue","",2714.078,2697.416,2714.078,2714.078,2697.416,2714.078,1,2714.078,0,0,NA,"Click To Continue","Continue Button",3,"object-59","Task Instructions",NA,"SUPPRF90629"
5,1722271001827,"29/07/2024 16:36:41",1722274601827,1,"29/07/2024 18:36:41",185160,1,"task-8tuj",NA,39264620,NA,"complete",NA,"computer","Desktop or Laptop","Windows 10","Chrome 109.0.0.0","1366x768","1366x625",NA,NA,0,"Task Introduction and Instructions (re-introduce video and audio) (Clone) (Clone)",3,"HIGAFBECD","Passed AC2","","Spreadsheet1","Spreadsheet1",1,"Task Instructions","Screen 3","1qtc8v",4,"continue","",4291.32599999851,4278.648,4291.32599999851,4291.32599999851,4278.648,4291.32599999851,1,4291.32599999851,0,0,NA,"Click To Continue","Continue Button",2,"object-2983","Task Instructions",NA,"SUPPRF90629"
6,1722271006412,"29/07/2024 16:36:46",1722274606412,1,"29/07/2024 18:36:46",185160,1,"task-8tuj",NA,39264620,NA,"complete",NA,"computer","Desktop or Laptop","Windows 10","Chrome 109.0.0.0","1366x768","1366x625",NA,NA,0,"Task Introduction and Instructions (re-introduce video and audio) (Clone) (Clone)",3,"HIGAFBECD","Passed AC2","","Spreadsheet1","Spreadsheet1",1,"Task Instructions","Screen 12","1a4vu2",5,"continue","",4597.241,4580.588,4597.241,4597.241,4580.588,4597.241,1,4597.241,0,0,NA,"Click To Continue","Continue Button",2,"object-2466","Task Instructions",NA,"SUPPRF90629"
7,1722271011835,"29/07/2024 16:36:51",1722274611835,1,"29/07/2024 18:36:51",185160,1,"task-8tuj",NA,39264620,NA,"complete",NA,"computer","Desktop or Laptop","Windows 10","Chrome 109.0.0.0","1366x768","1366x625",NA,NA,0,"Task Introduction and Instructions (re-introduce video and audio) (Clone) (Clone)",3,"HIGAFBECD","Passed AC2","","Spreadsheet1","Spreadsheet1",1,"Task Instructions","Screen 13","q9vwda",6,"continue","",5440.08999999851,5429.96,5440.08999999851,5440.08999999851,5429.96,5440.08999999851,1,5440.08999999851,0,0,NA,"Click To Continue","Continue Button",2,"object-2989","Task Instructions",NA,"SUPPRF90629"
8,1722271014843,"29/07/2024 16:36:54",1722274614843,1,"29/07/2024 18:36:54",185160,1,"task-8tuj",NA,39264620,NA,"complete",NA,"computer","Desktop or Laptop","Windows 10","Chrome 109.0.0.0","1366x768","1366x625",NA,NA,0,"Task Introduction and Instructions (re-introduce video and audio) (Clone) (Clone)",3,"HIGAFBECD","Passed AC2","","Spreadsheet1","Spreadsheet1",1,"Task Instructions","Screen 11","oyulb7",7,"continue","",3013.29,2996.644,3013.29,3013.29,2996.644,3013.29,1,3013.29,0,0,NA,"Click To Continue","Continue Button",2,"object-52","Task Instructions",NA,"SUPPRF90629"
9,1722271018060,"29/07/2024 16:36:58",1722274618060,1,"29/07/2024 18:36:58",185160,1,"task-8tuj",NA,39264620,NA,"complete",NA,"computer","Desktop or Laptop","Windows 10","Chrome 109.0.0.0","1366x768","1366x625",NA,NA,0,"Task Introduction and Instructions (re-introduce video and audio) (Clone) (Clone)",3,"HIGAFBECD","Passed AC2","","Spreadsheet1","Spreadsheet1",1,"Task Instructions","Screen 5","8nvnao",8,"continue","",3232.76399999999,3216.112,3232.76399999999,3232.76399999999,3216.112,3232.76399999999,1,3232.76399999999,0,0,NA,"Click To Continue","Continue Button",2,"object-44","Task Instructions",NA,"SUPPRF90629"
10,1722271018067,"29/07/2024 16:36:58",1722274618067,1,"29/07/2024 18:36:58",185160,1,"task-8tuj",NA,39264620,NA,"complete",NA,"computer","Desktop or Laptop","Windows 10","Chrome 109.0.0.0","1366x768","1366x625",NA,NA,0,"Task Introduction and Instructions (re-introduce video and audio) (Clone) (Clone)",3,"HIGAFBECD","Passed AC2","","Spreadsheet1","Spreadsheet1",NA,"","","",NA,"info","END",NA,NA,NA,NA,NA,NA,0,NA,NA,NA,NA,"","",NA,"","",NA,"SUPPRF90629"
1,1722271016560,"29/07/2024 16:36:56",1722274616560,1,"29/07/2024 18:36:56",185160,1,"task-8tuj",NA,39264656,NA,"complete",NA,"computer","Desktop or Laptop","Windows 10","Chrome 127.0.0.0","1536x864","1536x730",NA,NA,0,"Task Introduction and Instructions (re-introduce video and audio) (Clone) (Clone)",3,"ABICHDGEF","Passed AC2","","Spreadsheet1","Spreadsheet1",NA,"","","",NA,"info","BEGIN",NA,NA,NA,NA,NA,NA,0,NA,NA,NA,NA,"","",NA,"","",NA,"SUPPRF84910"
2,1722271021960,"29/07/2024 16:37:01",1722274621960,1,"29/07/2024 18:37:01",185160,1,"task-8tuj",NA,39264656,NA,"complete",NA,"computer","Desktop or Laptop","Windows 10","Chrome 127.0.0.0","1536x864","1536x730",NA,NA,0,"Task Introduction and Instructions (re-introduce video and audio) (Clone) (Clone)",3,"ABICHDGEF","Passed AC2","","Spreadsheet1","Spreadsheet1",1,"Task Instructions","Screen 1","anr7sn",1,"continue","",5253.80000002384,5249.7,5253.80000002384,5253.80000002384,5249.7,5253.80000002384,1,5253.80000002384,0,0,NA,"Click To Continue","Continue Button",3,"object-60","Task Instructions",NA,"SUPPRF84910"
3,1722271024722,"29/07/2024 16:37:04",1722274624722,1,"29/07/2024 18:37:04",185160,1,"task-8tuj",NA,39264656,NA,"complete",NA,"computer","Desktop or Laptop","Windows 10","Chrome 127.0.0.0","1536x864","1536x730",NA,NA,0,"Task Introduction and Instructions (re-introduce video and audio) (Clone) (Clone)",3,"ABICHDGEF","Passed AC2","","Spreadsheet1","Spreadsheet1",1,"Task Instructions","Screen 4","spepx9",2,"continue","",2766.29999995232,2750,2766.29999995232,2766.29999995232,2750,2766.29999995232,1,2766.29999995232,0,0,NA,"Click To Continue","Continue Button",2,"object-9","Task Instructions",NA,"SUPPRF84910"
4,1722271051843,"29/07/2024 16:37:31",1722274651843,1,"29/07/2024 18:37:31",185160,1,"task-8tuj",NA,39264656,NA,"complete",NA,"computer","Desktop or Laptop","Windows 10","Chrome 127.0.0.0","1536x864","1536x730",NA,NA,0,"Task Introduction and Instructions (re-introduce video and audio) (Clone) (Clone)",3,"ABICHDGEF","Passed AC2","","Spreadsheet1","Spreadsheet1",1,"Task Instructions","Screen 2","ce2tc8",3,"continue","",27138,27131.9,27138,27138,27131.9,27138,1,27138,0,0,NA,"Click To Continue","Continue Button",3,"object-59","Task Instructions",NA,"SUPPRF84910"
5,1722271067158,"29/07/2024 16:37:47",1722274667158,1,"29/07/2024 18:37:47",185160,1,"task-8tuj",NA,39264656,NA,"complete",NA,"computer","Desktop or Laptop","Windows 10","Chrome 127.0.0.0","1536x864","1536x730",NA,NA,0,"Task Introduction and Instructions (re-introduce video and audio) (Clone) (Clone)",3,"ABICHDGEF","Passed AC2","","Spreadsheet1","Spreadsheet1",1,"Task Instructions","Screen 3","1qtc8v",4,"continue","",15320.7000000238,15315.9,15320.7000000238,15320.7000000238,15315.9,15320.7000000238,1,15320.7000000238,0,0,NA,"Click To Continue","Continue Button",2,"object-2983","Task Instructions",NA,"SUPPRF84910"
6,1722271078441,"29/07/2024 16:37:58",1722274678441,1,"29/07/2024 18:37:58",185160,1,"task-8tuj",NA,39264656,NA,"complete",NA,"computer","Desktop or Laptop","Windows 10","Chrome 127.0.0.0","1536x864","1536x730",NA,NA,0,"Task Introduction and Instructions (re-introduce video and audio) (Clone) (Clone)",3,"ABICHDGEF","Passed AC2","","Spreadsheet1","Spreadsheet1",1,"Task Instructions","Screen 12","1a4vu2",5,"continue","",11287.4000000477,11282.7,11287.4000000477,11287.4000000477,11282.7,11287.4000000477,1,11287.4000000477,0,0,NA,"Click To Continue","Continue Button",2,"object-2466","Task Instructions",NA,"SUPPRF84910"
7,1722271085653,"29/07/2024 16:38:05",1722274685653,1,"29/07/2024 18:38:05",185160,1,"task-8tuj",NA,39264656,NA,"complete",NA,"computer","Desktop or Laptop","Windows 10","Chrome 127.0.0.0","1536x864","1536x730",NA,NA,0,"Task Introduction and Instructions (re-introduce video and audio) (Clone) (Clone)",3,"ABICHDGEF","Passed AC2","","Spreadsheet1","Spreadsheet1",1,"Task Instructions","Screen 13","q9vwda",6,"continue","",7217.70000004768,7216.3,7217.70000004768,7217.70000004768,7216.3,7217.70000004768,1,7217.70000004768,0,0,NA,"Click To Continue","Continue Button",2,"object-2989","Task Instructions",NA,"SUPPRF84910"
8,1722271092372,"29/07/2024 16:38:12",1722274692372,1,"29/07/2024 18:38:12",185160,1,"task-8tuj",NA,39264656,NA,"complete",NA,"computer","Desktop or Laptop","Windows 10","Chrome 127.0.0.0","1536x864","1536x730",NA,NA,0,"Task Introduction and Instructions (re-introduce video and audio) (Clone) (Clone)",3,"ABICHDGEF","Passed AC2","","Spreadsheet1","Spreadsheet1",1,"Task Instructions","Screen 11","oyulb7",7,"continue","",6720.2,6716.2,6720.2,6720.2,6716.2,6720.2,1,6720.2,0,0,NA,"Click To Continue","Continue Button",2,"object-52","Task Instructions",NA,"SUPPRF84910"
9,1722271094930,"29/07/2024 16:38:14",1722274694930,1,"29/07/2024 18:38:14",185160,1,"task-8tuj",NA,39264656,NA,"complete",NA,"computer","Desktop or Laptop","Windows 10","Chrome 127.0.0.0","1536x864","1536x730",NA,NA,0,"Task Introduction and Instructions (re-introduce video and audio) (Clone) (Clone)",3,"ABICHDGEF","Passed AC2","","Spreadsheet1","Spreadsheet1",1,"Task Instructions","Screen 5","8nvnao",8,"continue","",2561.29999995232,2550.10000000001,2561.29999995232,2561.29999995232,2550.10000000001,2561.29999995232,1,2561.29999995232,0,0,NA,"Click To Continue","Continue Button",2,"object-44","Task Instructions",NA,"SUPPRF84910"
10,1722271094932,"29/07/2024 16:38:14",1722274694932,1,"29/07/2024 18:38:14",185160,1,"task-8tuj",NA,39264656,NA,"complete",NA,"computer","Desktop or Laptop","Windows 10","Chrome 127.0.0.0","1536x864","1536x730",NA,NA,0,"Task Introduction and Instructions (re-introduce video and audio) (Clone) (Clone)",3,"ABICHDGEF","Passed AC2","","Spreadsheet1","Spreadsheet1",NA,"","","",NA,"info","END",NA,NA,NA,NA,NA,NA,0,NA,NA,NA,NA,"","",NA,"","",NA,"SUPPRF84910"
1,1722271078076,"29/07/2024 16:37:58",1722274678076,1,"29/07/2024 18:37:58",185160,1,"task-8tuj",NA,39264690,NA,"complete",NA,"computer","Desktop or Laptop","Windows 10","Chrome 126.0.0.0","1280x720","1707x746",NA,NA,0,"Task Introduction and Instructions (re-introduce video and audio) (Clone) (Clone)",3,"DECFBGAHI","Passed AC2","","Spreadsheet1","Spreadsheet1",NA,"","","",NA,"info","BEGIN",NA,NA,NA,NA,NA,NA,0,NA,NA,NA,NA,"","",NA,"","",NA,"SUPPRF27738"
2,1722271082472,"29/07/2024 16:38:02",1722274682472,1,"29/07/2024 18:38:02",185160,1,"task-8tuj",NA,39264690,NA,"complete",NA,"computer","Desktop or Laptop","Windows 10","Chrome 126.0.0.0","1280x720","1707x746",NA,NA,0,"Task Introduction and Instructions (re-introduce video and audio) (Clone) (Clone)",3,"DECFBGAHI","Passed AC2","","Spreadsheet1","Spreadsheet1",1,"Task Instructions","Screen 1","anr7sn",1,"continue","",4306.80000004768,4298.5,4306.80000004768,4306.80000004768,4298.5,4306.80000004768,1,4306.80000004768,0,0,NA,"Click To Continue","Continue Button",3,"object-60","Task Instructions",NA,"SUPPRF27738"
3,1722271086177,"29/07/2024 16:38:06",1722274686177,1,"29/07/2024 18:38:06",185160,1,"task-8tuj",NA,39264690,NA,"complete",NA,"computer","Desktop or Laptop","Windows 10","Chrome 126.0.0.0","1280x720","1707x746",NA,NA,0,"Task Introduction and Instructions (re-introduce video and audio) (Clone) (Clone)",3,"DECFBGAHI","Passed AC2","","Spreadsheet1","Spreadsheet1",1,"Task Instructions","Screen 4","spepx9",2,"continue","",3713.90000001192,3698.7,3713.90000001192,3713.90000001192,3698.7,3713.90000001192,1,3713.90000001192,0,0,NA,"Click To Continue","Continue Button",2,"object-9","Task Instructions",NA,"SUPPRF27738"
4,1722271104005,"29/07/2024 16:38:24",1722274704005,1,"29/07/2024 18:38:24",185160,1,"task-8tuj",NA,39264690,NA,"complete",NA,"computer","Desktop or Laptop","Windows 10","Chrome 126.0.0.0","1280x720","1707x746",NA,NA,0,"Task Introduction and Instructions (re-introduce video and audio) (Clone) (Clone)",3,"DECFBGAHI","Passed AC2","","Spreadsheet1","Spreadsheet1",1,"Task Instructions","Screen 2","ce2tc8",3,"continue","",17843.3000000358,17827.5,17843.3000000358,17843.3000000358,17827.5,17843.3000000358,1,17843.3000000358,0,0,NA,"Click To Continue","Continue Button",3,"object-59","Task Instructions",NA,"SUPPRF27738"
5,1722271118585,"29/07/2024 16:38:38",1722274718585,1,"29/07/2024 18:38:38",185160,1,"task-8tuj",NA,39264690,NA,"complete",NA,"computer","Desktop or Laptop","Windows 10","Chrome 126.0.0.0","1280x720","1707x746",NA,NA,0,"Task Introduction and Instructions (re-introduce video and audio) (Clone) (Clone)",3,"DECFBGAHI","Passed AC2","","Spreadsheet1","Spreadsheet1",1,"Task Instructions","Screen 3","1qtc8v",4,"continue","",14595,14578.3,14595,14595,14578.3,14595,1,14595,0,0,NA,"Click To Continue","Continue Button",2,"object-2983","Task Instructions",NA,"SUPPRF27738"
6,1722271125098,"29/07/2024 16:38:45",1722274725098,1,"29/07/2024 18:38:45",185160,1,"task-8tuj",NA,39264690,NA,"complete",NA,"computer","Desktop or Laptop","Windows 10","Chrome 126.0.0.0","1280x720","1707x746",NA,NA,0,"Task Introduction and Instructions (re-introduce video and audio) (Clone) (Clone)",3,"DECFBGAHI","Passed AC2","","Spreadsheet1","Spreadsheet1",1,"Task Instructions","Screen 12","1a4vu2",5,"continue","",6530.50000003576,6514.5,6530.50000003576,6530.50000003576,6514.5,6530.50000003576,1,6530.50000003576,0,0,NA,"Click To Continue","Continue Button",2,"object-2466","Task Instructions",NA,"SUPPRF27738"
7,1722271129877,"29/07/2024 16:38:49",1722274729877,1,"29/07/2024 18:38:49",185160,1,"task-8tuj",NA,39264690,NA,"complete",NA,"computer","Desktop or Laptop","Windows 10","Chrome 126.0.0.0","1280x720","1707x746",NA,NA,0,"Task Introduction and Instructions (re-introduce video and audio) (Clone) (Clone)",3,"DECFBGAHI","Passed AC2","","Spreadsheet1","Spreadsheet1",1,"Task Instructions","Screen 13","q9vwda",6,"continue","",4794.30000004768,4781.7,4794.30000004768,4794.30000004768,4781.7,4794.30000004768,1,4794.30000004768,0,0,NA,"Click To Continue","Continue Button",2,"object-2989","Task Instructions",NA,"SUPPRF27738"
8,1722271134347,"29/07/2024 16:38:54",1722274734347,1,"29/07/2024 18:38:54",185160,1,"task-8tuj",NA,39264690,NA,"complete",NA,"computer","Desktop or Laptop","Windows 10","Chrome 126.0.0.0","1280x720","1707x746",NA,NA,0,"Task Introduction and Instructions (re-introduce video and audio) (Clone) (Clone)",3,"DECFBGAHI","Passed AC2","","Spreadsheet1","Spreadsheet1",1,"Task Instructions","Screen 11","oyulb7",7,"continue","",4482.4,4465.4,4482.4,4482.4,4465.4,4482.4,1,4482.4,0,0,NA,"Click To Continue","Continue Button",2,"object-52","Task Instructions",NA,"SUPPRF27738"
9,1722271137011,"29/07/2024 16:38:57",1722274737011,1,"29/07/2024 18:38:57",185160,1,"task-8tuj",NA,39264690,NA,"complete",NA,"computer","Desktop or Laptop","Windows 10","Chrome 126.0.0.0","1280x720","1707x746",NA,NA,0,"Task Introduction and Instructions (re-introduce video and audio) (Clone) (Clone)",3,"DECFBGAHI","Passed AC2","","Spreadsheet1","Spreadsheet1",1,"Task Instructions","Screen 5","8nvnao",8,"continue","",2681.70000004768,2665.6,2681.70000004768,2681.70000004768,2665.6,2681.70000004768,1,2681.70000004768,0,0,NA,"Click To Continue","Continue Button",2,"object-44","Task Instructions",NA,"SUPPRF27738"
10,1722271137014,"29/07/2024 16:38:57",1722274737014,1,"29/07/2024 18:38:57",185160,1,"task-8tuj",NA,39264690,NA,"complete",NA,"computer","Desktop or Laptop","Windows 10","Chrome 126.0.0.0","1280x720","1707x746",NA,NA,0,"Task Introduction and Instructions (re-introduce video and audio) (Clone) (Clone)",3,"DECFBGAHI","Passed AC2","","Spreadsheet1","Spreadsheet1",NA,"","","",NA,"info","END",NA,NA,NA,NA,NA,NA,0,NA,NA,NA,NA,"","",NA,"","",NA,"SUPPRF27738"
1,1722271126561,"29/07/2024 16:38:46",1722274726561,1,"29/07/2024 18:38:46",185160,1,"task-8tuj",NA,39264718,NA,"complete",NA,"computer","Desktop or Laptop","Windows 10","Chrome 126.0.0.0","1280x720","1280x585",NA,NA,0,"Task Introduction and Instructions (re-introduce video and audio) (Clone) (Clone)",3,"HIGAFBECD","Passed AC2","","Spreadsheet1","Spreadsheet1",NA,"","","",NA,"info","BEGIN",NA,NA,NA,NA,NA,NA,0,NA,NA,NA,NA,"","",NA,"","",NA,"SUPPRF56835"
2,1722271130227,"29/07/2024 16:38:50",1722274730227,1,"29/07/2024 18:38:50",185160,1,"task-8tuj",NA,39264718,NA,"complete",NA,"computer","Desktop or Laptop","Windows 10","Chrome 126.0.0.0","1280x720","1280x585",NA,NA,0,"Task Introduction and Instructions (re-introduce video and audio) (Clone) (Clone)",3,"HIGAFBECD","Passed AC2","","Spreadsheet1","Spreadsheet1",1,"Task Instructions","Screen 1","anr7sn",1,"continue","",3603.5,3597.2,3603.5,3603.5,3597.2,3603.5,1,3603.5,0,0,NA,"Click To Continue","Continue Button",3,"object-60","Task Instructions",NA,"SUPPRF56835"
3,1722271133163,"29/07/2024 16:38:53",1722274733163,1,"29/07/2024 18:38:53",185160,1,"task-8tuj",NA,39264718,NA,"complete",NA,"computer","Desktop or Laptop","Windows 10","Chrome 126.0.0.0","1280x720","1280x585",NA,NA,0,"Task Introduction and Instructions (re-introduce video and audio) (Clone) (Clone)",3,"HIGAFBECD","Passed AC2","","Spreadsheet1","Spreadsheet1",1,"Task Instructions","Screen 4","spepx9",2,"continue","",2942.09999999702,2930.8,2942.09999999702,2942.09999999702,2930.8,2942.09999999702,1,2942.09999999702,0,0,NA,"Click To Continue","Continue Button",2,"object-9","Task Instructions",NA,"SUPPRF56835"
4,1722271586761,"29/07/2024 16:46:26",1722275186761,1,"29/07/2024 18:46:26",185160,1,"task-8tuj",NA,39264718,NA,"complete",NA,"computer","Desktop or Laptop","Windows 10","Chrome 126.0.0.0","1280x720","1280x585",NA,NA,0,"Task Introduction and Instructions (re-introduce video and audio) (Clone) (Clone)",3,"HIGAFBECD","Passed AC2","","Spreadsheet1","Spreadsheet1",1,"Task Instructions","Screen 2","ce2tc8",3,"continue","",453607.5,453591,453607.5,453607.5,453591,453607.5,1,453607.5,0,0,NA,"Click To Continue","Continue Button",3,"object-59","Task Instructions",NA,"SUPPRF56835"
5,1722271598153,"29/07/2024 16:46:38",1722275198153,1,"29/07/2024 18:46:38",185160,1,"task-8tuj",NA,39264718,NA,"complete",NA,"computer","Desktop or Laptop","Windows 10","Chrome 126.0.0.0","1280x720","1280x585",NA,NA,0,"Task Introduction and Instructions (re-introduce video and audio) (Clone) (Clone)",3,"HIGAFBECD","Passed AC2","","Spreadsheet1","Spreadsheet1",1,"Task Instructions","Screen 3","1qtc8v",4,"continue","",11410.6000000089,11407.3,11410.6000000089,11410.6000000089,11407.3,11410.6000000089,1,11410.6000000089,0,0,NA,"Click To Continue","Continue Button",2,"object-2983","Task Instructions",NA,"SUPPRF56835"
6,1722271743045,"29/07/2024 16:49:03",1722275343045,1,"29/07/2024 18:49:03",185160,1,"task-8tuj",NA,39264718,NA,"complete",NA,"computer","Desktop or Laptop","Windows 10","Chrome 126.0.0.0","1280x720","1280x585",NA,NA,0,"Task Introduction and Instructions (re-introduce video and audio) (Clone) (Clone)",3,"HIGAFBECD","Passed AC2","","Spreadsheet1","Spreadsheet1",1,"Task Instructions","Screen 12","1a4vu2",5,"continue","",144894.800000009,144879.9,144894.800000009,144894.800000009,144879.9,144894.800000009,1,144894.800000009,0,0,NA,"Click To Continue","Continue Button",2,"object-2466","Task Instructions",NA,"SUPPRF56835"
7,1722271747662,"29/07/2024 16:49:07",1722275347662,1,"29/07/2024 18:49:07",185160,1,"task-8tuj",NA,39264718,NA,"complete",NA,"computer","Desktop or Laptop","Windows 10","Chrome 126.0.0.0","1280x720","1280x585",NA,NA,0,"Task Introduction and Instructions (re-introduce video and audio) (Clone) (Clone)",3,"HIGAFBECD","Passed AC2","","Spreadsheet1","Spreadsheet1",1,"Task Instructions","Screen 13","q9vwda",6,"continue","",4630.40000000002,4613.30000000005,4630.40000000002,4630.40000000002,4613.30000000005,4630.40000000002,1,4630.40000000002,0,0,NA,"Click To Continue","Continue Button",2,"object-2989","Task Instructions",NA,"SUPPRF56835"
8,1722271750237,"29/07/2024 16:49:10",1722275350237,1,"29/07/2024 18:49:10",185160,1,"task-8tuj",NA,39264718,NA,"complete",NA,"computer","Desktop or Laptop","Windows 10","Chrome 126.0.0.0","1280x720","1280x585",NA,NA,0,"Task Introduction and Instructions (re-introduce video and audio) (Clone) (Clone)",3,"HIGAFBECD","Passed AC2","","Spreadsheet1","Spreadsheet1",1,"Task Instructions","Screen 11","oyulb7",7,"continue","",2593.10000000894,2580.80000000005,2593.10000000894,2593.10000000894,2580.80000000005,2593.10000000894,1,2593.10000000894,0,0,NA,"Click To Continue","Continue Button",2,"object-52","Task Instructions",NA,"SUPPRF56835"
9,1722271753293,"29/07/2024 16:49:13",1722275353293,1,"29/07/2024 18:49:13",185160,1,"task-8tuj",NA,39264718,NA,"complete",NA,"computer","Desktop or Laptop","Windows 10","Chrome 126.0.0.0","1280x720","1280x585",NA,NA,0,"Task Introduction and Instructions (re-introduce video and audio) (Clone) (Clone)",3,"HIGAFBECD","Passed AC2","","Spreadsheet1","Spreadsheet1",1,"Task Instructions","Screen 5","8nvnao",8,"continue","",3068.69999999995,3064.89999999991,3068.69999999995,3068.69999999995,3064.89999999991,3068.69999999995,1,3068.69999999995,0,0,NA,"Click To Continue","Continue Button",2,"object-44","Task Instructions",NA,"SUPPRF56835"
10,1722271753299,"29/07/2024 16:49:13",1722275353299,1,"29/07/2024 18:49:13",185160,1,"task-8tuj",NA,39264718,NA,"complete",NA,"computer","Desktop or Laptop","Windows 10","Chrome 126.0.0.0","1280x720","1280x585",NA,NA,0,"Task Introduction and Instructions (re-introduce video and audio) (Clone) (Clone)",3,"HIGAFBECD","Passed AC2","","Spreadsheet1","Spreadsheet1",NA,"","","",NA,"info","END",NA,NA,NA,NA,NA,NA,0,NA,NA,NA,NA,"","",NA,"","",NA,"SUPPRF56835"
1,1722271175602,"29/07/2024 16:39:35",1722274775602,1,"29/07/2024 18:39:35",185160,1,"task-8tuj",NA,39264752,NA,"complete",NA,"computer","Desktop or Laptop","Windows 10","Chrome 126.0.0.0","1280x720","1280x593",NA,NA,0,"Task Introduction and Instructions (re-introduce video and audio) (Clone) (Clone)",3,"BCADIEHFG","Failed AC2","Passed AC1","Spreadsheet1","Spreadsheet1",NA,"","","",NA,"info","BEGIN",NA,NA,NA,NA,NA,NA,0,NA,NA,NA,NA,"","",NA,"","",NA,"SUPPRF00984"
2,1722271179939,"29/07/2024 16:39:39",1722274779939,1,"29/07/2024 18:39:39",185160,1,"task-8tuj",NA,39264752,NA,"complete",NA,"computer","Desktop or Laptop","Windows 10","Chrome 126.0.0.0","1280x720","1280x593",NA,NA,0,"Task Introduction and Instructions (re-introduce video and audio) (Clone) (Clone)",3,"BCADIEHFG","Failed AC2","Passed AC1","Spreadsheet1","Spreadsheet1",1,"Task Instructions","Screen 1","anr7sn",1,"continue","",4282.5,4265.5,4282.5,4282.5,4265.5,4282.5,1,4282.5,0,0,NA,"Click To Continue","Continue Button",3,"object-60","Task Instructions",NA,"SUPPRF00984"
3,1722271183549,"29/07/2024 16:39:43",1722274783549,1,"29/07/2024 18:39:43",185160,1,"task-8tuj",NA,39264752,NA,"complete",NA,"computer","Desktop or Laptop","Windows 10","Chrome 126.0.0.0","1280x720","1280x593",NA,NA,0,"Task Introduction and Instructions (re-introduce video and audio) (Clone) (Clone)",3,"BCADIEHFG","Failed AC2","Passed AC1","Spreadsheet1","Spreadsheet1",1,"Task Instructions","Screen 4","spepx9",2,"continue","",3629.09999996424,3615.1,3629.09999996424,3629.09999996424,3615.1,3629.09999996424,1,3629.09999996424,0,0,NA,"Click To Continue","Continue Button",2,"object-9","Task Instructions",NA,"SUPPRF00984"
4,1722271193784,"29/07/2024 16:39:53",1722274793784,1,"29/07/2024 18:39:53",185160,1,"task-8tuj",NA,39264752,NA,"complete",NA,"computer","Desktop or Laptop","Windows 10","Chrome 126.0.0.0","1280x720","1280x593",NA,NA,0,"Task Introduction and Instructions (re-introduce video and audio) (Clone) (Clone)",3,"BCADIEHFG","Failed AC2","Passed AC1","Spreadsheet1","Spreadsheet1",1,"Task Instructions","Screen 2","ce2tc8",3,"continue","",10249.6999999523,10246.7,10249.6999999523,10249.6999999523,10246.7,10249.6999999523,1,10249.6999999523,0,0,NA,"Click To Continue","Continue Button",3,"object-59","Task Instructions",NA,"SUPPRF00984"
5,1722271204471,"29/07/2024 16:40:04",1722274804471,1,"29/07/2024 18:40:04",185160,1,"task-8tuj",NA,39264752,NA,"complete",NA,"computer","Desktop or Laptop","Windows 10","Chrome 126.0.0.0","1280x720","1280x593",NA,NA,0,"Task Introduction and Instructions (re-introduce video and audio) (Clone) (Clone)",3,"BCADIEHFG","Failed AC2","Passed AC1","Spreadsheet1","Spreadsheet1",1,"Task Instructions","Screen 3","1qtc8v",4,"continue","",10689.7,10679.6,10689.7,10689.7,10679.6,10689.7,1,10689.7,0,0,NA,"Click To Continue","Continue Button",2,"object-2983","Task Instructions",NA,"SUPPRF00984"
6,1722271214123,"29/07/2024 16:40:14",1722274814123,1,"29/07/2024 18:40:14",185160,1,"task-8tuj",NA,39264752,NA,"complete",NA,"computer","Desktop or Laptop","Windows 10","Chrome 126.0.0.0","1280x720","1280x593",NA,NA,0,"Task Introduction and Instructions (re-introduce video and audio) (Clone) (Clone)",3,"BCADIEHFG","Failed AC2","Passed AC1","Spreadsheet1","Spreadsheet1",1,"Task Instructions","Screen 12","1a4vu2",5,"continue","",9662.19999996424,9646.8,9662.19999996424,9662.19999996424,9646.8,9662.19999996424,1,9662.19999996424,0,0,NA,"Click To Continue","Continue Button",2,"object-2466","Task Instructions",NA,"SUPPRF00984"
7,1722271219129,"29/07/2024 16:40:19",1722274819129,1,"29/07/2024 18:40:19",185160,1,"task-8tuj",NA,39264752,NA,"complete",NA,"computer","Desktop or Laptop","Windows 10","Chrome 126.0.0.0","1280x720","1280x593",NA,NA,0,"Task Introduction and Instructions (re-introduce video and audio) (Clone) (Clone)",3,"BCADIEHFG","Failed AC2","Passed AC1","Spreadsheet1","Spreadsheet1",1,"Task Instructions","Screen 13","q9vwda",6,"continue","",5021.09999995232,5014.9,5021.09999995232,5021.09999995232,5014.9,5021.09999995232,1,5021.09999995232,0,0,NA,"Click To Continue","Continue Button",2,"object-2989","Task Instructions",NA,"SUPPRF00984"
8,1722271224411,"29/07/2024 16:40:24",1722274824411,1,"29/07/2024 18:40:24",185160,1,"task-8tuj",NA,39264752,NA,"complete",NA,"computer","Desktop or Laptop","Windows 10","Chrome 126.0.0.0","1280x720","1280x593",NA,NA,0,"Task Introduction and Instructions (re-introduce video and audio) (Clone) (Clone)",3,"BCADIEHFG","Failed AC2","Passed AC1","Spreadsheet1","Spreadsheet1",1,"Task Instructions","Screen 11","oyulb7",7,"continue","",5288.69999995232,5281.9,5288.69999995232,5288.69999995232,5281.9,5288.69999995232,1,5288.69999995232,0,0,NA,"Click To Continue","Continue Button",2,"object-52","Task Instructions",NA,"SUPPRF00984"
9,1722271227395,"29/07/2024 16:40:27",1722274827395,1,"29/07/2024 18:40:27",185160,1,"task-8tuj",NA,39264752,NA,"complete",NA,"computer","Desktop or Laptop","Windows 10","Chrome 126.0.0.0","1280x720","1280x593",NA,NA,0,"Task Introduction and Instructions (re-introduce video and audio) (Clone) (Clone)",3,"BCADIEHFG","Failed AC2","Passed AC1","Spreadsheet1","Spreadsheet1",1,"Task Instructions","Screen 5","8nvnao",8,"continue","",2990.39999997616,2982.3,2990.39999997616,2990.39999997616,2982.3,2990.39999997616,1,2990.39999997616,0,0,NA,"Click To Continue","Continue Button",2,"object-44","Task Instructions",NA,"SUPPRF00984"
10,1722271227399,"29/07/2024 16:40:27",1722274827399,1,"29/07/2024 18:40:27",185160,1,"task-8tuj",NA,39264752,NA,"complete",NA,"computer","Desktop or Laptop","Windows 10","Chrome 126.0.0.0","1280x720","1280x593",NA,NA,0,"Task Introduction and Instructions (re-introduce video and audio) (Clone) (Clone)",3,"BCADIEHFG","Failed AC2","Passed AC1","Spreadsheet1","Spreadsheet1",NA,"","","",NA,"info","END",NA,NA,NA,NA,NA,NA,0,NA,NA,NA,NA,"","",NA,"","",NA,"SUPPRF00984"
1,1722271211848,"29/07/2024 16:40:11",1722256811848,-4,"29/07/2024 08:40:11",185160,1,"task-8tuj",NA,39264770,NA,"complete",NA,"computer","Desktop or Laptop","Mac OS 10.15.7","Chrome 126.0.0.0","1920x1080","1200x844",NA,NA,0,"Task Introduction and Instructions (re-introduce video and audio) (Clone) (Clone)",3,"CDBEAFIGH","Passed AC2","","Spreadsheet1","Spreadsheet1",NA,"","","",NA,"info","BEGIN",NA,NA,NA,NA,NA,NA,0,NA,NA,NA,NA,"","",NA,"","",NA,"SUPPRF95116"
2,1722271214784,"29/07/2024 16:40:14",1722256814784,-4,"29/07/2024 08:40:14",185160,1,"task-8tuj",NA,39264770,NA,"complete",NA,"computer","Desktop or Laptop","Mac OS 10.15.7","Chrome 126.0.0.0","1920x1080","1200x844",NA,NA,0,"Task Introduction and Instructions (re-introduce video and audio) (Clone) (Clone)",3,"CDBEAFIGH","Passed AC2","","Spreadsheet1","Spreadsheet1",1,"Task Instructions","Screen 1","anr7sn",1,"continue","",2875.00000003576,2867.7,2875.00000003576,2875.00000003576,2867.7,2875.00000003576,1,2875.00000003576,0,0,NA,"Click To Continue","Continue Button",3,"object-60","Task Instructions",NA,"SUPPRF95116"
3,1722271217407,"29/07/2024 16:40:17",1722256817407,-4,"29/07/2024 08:40:17",185160,1,"task-8tuj",NA,39264770,NA,"complete",NA,"computer","Desktop or Laptop","Mac OS 10.15.7","Chrome 126.0.0.0","1920x1080","1200x844",NA,NA,0,"Task Introduction and Instructions (re-introduce video and audio) (Clone) (Clone)",3,"CDBEAFIGH","Passed AC2","","Spreadsheet1","Spreadsheet1",1,"Task Instructions","Screen 4","spepx9",2,"continue","",2630.80000003576,2627.3,2630.80000003576,2630.80000003576,2627.3,2630.80000003576,1,2630.80000003576,0,0,NA,"Click To Continue","Continue Button",2,"object-9","Task Instructions",NA,"SUPPRF95116"
4,1722271242421,"29/07/2024 16:40:42",1722256842421,-4,"29/07/2024 08:40:42",185160,1,"task-8tuj",NA,39264770,NA,"complete",NA,"computer","Desktop or Laptop","Mac OS 10.15.7","Chrome 126.0.0.0","1920x1080","1200x844",NA,NA,0,"Task Introduction and Instructions (re-introduce video and audio) (Clone) (Clone)",3,"CDBEAFIGH","Passed AC2","","Spreadsheet1","Spreadsheet1",1,"Task Instructions","Screen 2","ce2tc8",3,"continue","",25017.8000000477,25009.1,25017.8000000477,25017.8000000477,25009.1,25017.8000000477,1,25017.8000000477,0,0,NA,"Click To Continue","Continue Button",3,"object-59","Task Instructions",NA,"SUPPRF95116"
5,1722271252860,"29/07/2024 16:40:52",1722256852860,-4,"29/07/2024 08:40:52",185160,1,"task-8tuj",NA,39264770,NA,"complete",NA,"computer","Desktop or Laptop","Mac OS 10.15.7","Chrome 126.0.0.0","1920x1080","1200x844",NA,NA,0,"Task Introduction and Instructions (re-introduce video and audio) (Clone) (Clone)",3,"CDBEAFIGH","Passed AC2","","Spreadsheet1","Spreadsheet1",1,"Task Instructions","Screen 3","1qtc8v",4,"continue","",10448.3000000119,10444.5,10448.3000000119,10448.3000000119,10444.5,10448.3000000119,1,10448.3000000119,0,0,NA,"Click To Continue","Continue Button",2,"object-2983","Task Instructions",NA,"SUPPRF95116"
6,1722271255422,"29/07/2024 16:40:55",1722256855422,-4,"29/07/2024 08:40:55",185160,1,"task-8tuj",NA,39264770,NA,"complete",NA,"computer","Desktop or Laptop","Mac OS 10.15.7","Chrome 126.0.0.0","1920x1080","1200x844",NA,NA,0,"Task Introduction and Instructions (re-introduce video and audio) (Clone) (Clone)",3,"CDBEAFIGH","Passed AC2","","Spreadsheet1","Spreadsheet1",1,"Task Instructions","Screen 12","1a4vu2",5,"continue","",2565.90000003576,2560.5,2565.90000003576,2565.90000003576,2560.5,2565.90000003576,1,2565.90000003576,0,0,NA,"Click To Continue","Continue Button",2,"object-2466","Task Instructions",NA,"SUPPRF95116"
7,1722271259887,"29/07/2024 16:40:59",1722256859887,-4,"29/07/2024 08:40:59",185160,1,"task-8tuj",NA,39264770,NA,"complete",NA,"computer","Desktop or Laptop","Mac OS 10.15.7","Chrome 126.0.0.0","1920x1080","1200x844",NA,NA,0,"Task Introduction and Instructions (re-introduce video and audio) (Clone) (Clone)",3,"CDBEAFIGH","Passed AC2","","Spreadsheet1","Spreadsheet1",1,"Task Instructions","Screen 13","q9vwda",6,"continue","",4470.60000002384,4468.8,4470.60000002384,4470.60000002384,4468.8,4470.60000002384,1,4470.60000002384,0,0,NA,"Click To Continue","Continue Button",2,"object-2989","Task Instructions",NA,"SUPPRF95116"
8,1722271263612,"29/07/2024 16:41:03",1722256863612,-4,"29/07/2024 08:41:03",185160,1,"task-8tuj",NA,39264770,NA,"complete",NA,"computer","Desktop or Laptop","Mac OS 10.15.7","Chrome 126.0.0.0","1920x1080","1200x844",NA,NA,0,"Task Introduction and Instructions (re-introduce video and audio) (Clone) (Clone)",3,"CDBEAFIGH","Passed AC2","","Spreadsheet1","Spreadsheet1",1,"Task Instructions","Screen 11","oyulb7",7,"continue","",3727.10000003576,3721.39999999999,3727.10000003576,3727.10000003576,3721.39999999999,3727.10000003576,1,3727.10000003576,0,0,NA,"Click To Continue","Continue Button",2,"object-52","Task Instructions",NA,"SUPPRF95116"
9,1722271266073,"29/07/2024 16:41:06",1722256866073,-4,"29/07/2024 08:41:06",185160,1,"task-8tuj",NA,39264770,NA,"complete",NA,"computer","Desktop or Laptop","Mac OS 10.15.7","Chrome 126.0.0.0","1920x1080","1200x844",NA,NA,0,"Task Introduction and Instructions (re-introduce video and audio) (Clone) (Clone)",3,"CDBEAFIGH","Passed AC2","","Spreadsheet1","Spreadsheet1",1,"Task Instructions","Screen 5","8nvnao",8,"continue","",2466.50000000001,2453.7,2466.50000000001,2466.50000000001,2453.7,2466.50000000001,1,2466.50000000001,0,0,NA,"Click To Continue","Continue Button",2,"object-44","Task Instructions",NA,"SUPPRF95116"
10,1722271266075,"29/07/2024 16:41:06",1722256866075,-4,"29/07/2024 08:41:06",185160,1,"task-8tuj",NA,39264770,NA,"complete",NA,"computer","Desktop or Laptop","Mac OS 10.15.7","Chrome 126.0.0.0","1920x1080","1200x844",NA,NA,0,"Task Introduction and Instructions (re-introduce video and audio) (Clone) (Clone)",3,"CDBEAFIGH","Passed AC2","","Spreadsheet1","Spreadsheet1",NA,"","","",NA,"info","END",NA,NA,NA,NA,NA,NA,0,NA,NA,NA,NA,"","",NA,"","",NA,"SUPPRF95116"
1,1722271209786,"29/07/2024 16:40:09",1722274809786,1,"29/07/2024 18:40:09",185160,1,"task-8tuj",NA,39264778,NA,"complete",NA,"computer","Desktop or Laptop","Windows 10","Chrome 127.0.0.0","1920x1080","1920x945",NA,NA,0,"Task Introduction and Instructions (re-introduce video and audio) (Clone) (Clone)",3,"CDBEAFIGH","Passed AC2","","Spreadsheet1","Spreadsheet1",NA,"","","",NA,"info","BEGIN",NA,NA,NA,NA,NA,NA,0,NA,NA,NA,NA,"","",NA,"","",NA,"SUPPRF64792"
2,1722271218489,"29/07/2024 16:40:18",1722274818489,1,"29/07/2024 18:40:18",185160,1,"task-8tuj",NA,39264778,NA,"complete",NA,"computer","Desktop or Laptop","Windows 10","Chrome 127.0.0.0","1920x1080","1920x945",NA,NA,0,"Task Introduction and Instructions (re-introduce video and audio) (Clone) (Clone)",3,"CDBEAFIGH","Passed AC2","","Spreadsheet1","Spreadsheet1",1,"Task Instructions","Screen 1","anr7sn",1,"continue","",8663.40000000596,8650.6,8663.40000000596,8663.40000000596,8650.6,8663.40000000596,1,8663.40000000596,0,0,NA,"Click To Continue","Continue Button",3,"object-60","Task Instructions",NA,"SUPPRF64792"
3,1722271234149,"29/07/2024 16:40:34",1722274834149,1,"29/07/2024 18:40:34",185160,1,"task-8tuj",NA,39264778,NA,"complete",NA,"computer","Desktop or Laptop","Windows 10","Chrome 127.0.0.0","1920x1080","1920x945",NA,NA,0,"Task Introduction and Instructions (re-introduce video and audio) (Clone) (Clone)",3,"CDBEAFIGH","Passed AC2","","Spreadsheet1","Spreadsheet1",1,"Task Instructions","Screen 4","spepx9",2,"continue","",15672.7000000119,15667.7,15672.7000000119,15672.7000000119,15667.7,15672.7000000119,1,15672.7000000119,0,0,NA,"Click To Continue","Continue Button",2,"object-9","Task Instructions",NA,"SUPPRF64792"
4,1722271250174,"29/07/2024 16:40:50",1722274850174,1,"29/07/2024 18:40:50",185160,1,"task-8tuj",NA,39264778,NA,"complete",NA,"computer","Desktop or Laptop","Windows 10","Chrome 127.0.0.0","1920x1080","1920x945",NA,NA,0,"Task Introduction and Instructions (re-introduce video and audio) (Clone) (Clone)",3,"CDBEAFIGH","Passed AC2","","Spreadsheet1","Spreadsheet1",1,"Task Instructions","Screen 2","ce2tc8",3,"continue","",16029.3999999881,16017.5,16029.3999999881,16029.3999999881,16017.5,16029.3999999881,1,16029.3999999881,0,0,NA,"Click To Continue","Continue Button",3,"object-59","Task Instructions",NA,"SUPPRF64792"
5,1722271266152,"29/07/2024 16:41:06",1722274866152,1,"29/07/2024 18:41:06",185160,1,"task-8tuj",NA,39264778,NA,"complete",NA,"computer","Desktop or Laptop","Windows 10","Chrome 127.0.0.0","1920x1080","1920x945",NA,NA,0,"Task Introduction and Instructions (re-introduce video and audio) (Clone) (Clone)",3,"CDBEAFIGH","Passed AC2","","Spreadsheet1","Spreadsheet1",1,"Task Instructions","Screen 3","1qtc8v",4,"continue","",15990.0000000119,15984.2,15990.0000000119,15990.0000000119,15984.2,15990.0000000119,1,15990.0000000119,0,0,NA,"Click To Continue","Continue Button",2,"object-2983","Task Instructions",NA,"SUPPRF64792"
6,1722271277669,"29/07/2024 16:41:17",1722274877669,1,"29/07/2024 18:41:17",185160,1,"task-8tuj",NA,39264778,NA,"complete",NA,"computer","Desktop or Laptop","Windows 10","Chrome 127.0.0.0","1920x1080","1920x945",NA,NA,0,"Task Introduction and Instructions (re-introduce video and audio) (Clone) (Clone)",3,"CDBEAFIGH","Passed AC2","","Spreadsheet1","Spreadsheet1",1,"Task Instructions","Screen 12","1a4vu2",5,"continue","",11522.900000006,11517.4,11522.900000006,11522.900000006,11517.4,11522.900000006,1,11522.900000006,0,0,NA,"Click To Continue","Continue Button",2,"object-2466","Task Instructions",NA,"SUPPRF64792"
7,1722271283842,"29/07/2024 16:41:23",1722274883842,1,"29/07/2024 18:41:23",185160,1,"task-8tuj",NA,39264778,NA,"complete",NA,"computer","Desktop or Laptop","Windows 10","Chrome 127.0.0.0","1920x1080","1920x945",NA,NA,0,"Task Introduction and Instructions (re-introduce video and audio) (Clone) (Clone)",3,"CDBEAFIGH","Passed AC2","","Spreadsheet1","Spreadsheet1",1,"Task Instructions","Screen 13","q9vwda",6,"continue","",6178.29999998808,6166.8,6178.29999998808,6178.29999998808,6166.8,6178.29999998808,1,6178.29999998808,0,0,NA,"Click To Continue","Continue Button",2,"object-2989","Task Instructions",NA,"SUPPRF64792"
8,1722271289524,"29/07/2024 16:41:29",1722274889524,1,"29/07/2024 18:41:29",185160,1,"task-8tuj",NA,39264778,NA,"complete",NA,"computer","Desktop or Laptop","Windows 10","Chrome 127.0.0.0","1920x1080","1920x945",NA,NA,0,"Task Introduction and Instructions (re-introduce video and audio) (Clone) (Clone)",3,"CDBEAFIGH","Passed AC2","","Spreadsheet1","Spreadsheet1",1,"Task Instructions","Screen 11","oyulb7",7,"continue","",5694.49999998808,5683.8,5694.49999998808,5694.49999998808,5683.8,5694.49999998808,1,5694.49999998808,0,0,NA,"Click To Continue","Continue Button",2,"object-52","Task Instructions",NA,"SUPPRF64792"
9,1722271292841,"29/07/2024 16:41:32",1722274892841,1,"29/07/2024 18:41:32",185160,1,"task-8tuj",NA,39264778,NA,"complete",NA,"computer","Desktop or Laptop","Windows 10","Chrome 127.0.0.0","1920x1080","1920x945",NA,NA,0,"Task Introduction and Instructions (re-introduce video and audio) (Clone) (Clone)",3,"CDBEAFIGH","Passed AC2","","Spreadsheet1","Spreadsheet1",1,"Task Instructions","Screen 5","8nvnao",8,"continue","",3327.5,3316.7,3327.5,3327.5,3316.7,3327.5,1,3327.5,0,0,NA,"Click To Continue","Continue Button",2,"object-44","Task Instructions",NA,"SUPPRF64792"
10,1722271292843,"29/07/2024 16:41:32",1722274892843,1,"29/07/2024 18:41:32",185160,1,"task-8tuj",NA,39264778,NA,"complete",NA,"computer","Desktop or Laptop","Windows 10","Chrome 127.0.0.0","1920x1080","1920x945",NA,NA,0,"Task Introduction and Instructions (re-introduce video and audio) (Clone) (Clone)",3,"CDBEAFIGH","Passed AC2","","Spreadsheet1","Spreadsheet1",NA,"","","",NA,"info","END",NA,NA,NA,NA,NA,NA,0,NA,NA,NA,NA,"","",NA,"","",NA,"SUPPRF64792"
1,1722271428348,"29/07/2024 16:43:48",1722257028348,-4,"29/07/2024 08:43:48",185160,1,"task-8tuj",NA,39264866,NA,"complete",NA,"computer","Desktop or Laptop","Windows 10","Chrome 127.0.0.0","1280x720","1280x593",NA,NA,0,"Task Introduction and Instructions (re-introduce video and audio) (Clone) (Clone)",3,"GHFIEADBC","Passed AC2","","Spreadsheet1","Spreadsheet1",NA,"","","",NA,"info","BEGIN",NA,NA,NA,NA,NA,NA,0,NA,NA,NA,NA,"","",NA,"","",NA,"SUPPRF69466"
2,1722271432612,"29/07/2024 16:43:52",1722257032612,-4,"29/07/2024 08:43:52",185160,1,"task-8tuj",NA,39264866,NA,"complete",NA,"computer","Desktop or Laptop","Windows 10","Chrome 127.0.0.0","1280x720","1280x593",NA,NA,0,"Task Introduction and Instructions (re-introduce video and audio) (Clone) (Clone)",3,"GHFIEADBC","Passed AC2","","Spreadsheet1","Spreadsheet1",1,"Task Instructions","Screen 1","anr7sn",1,"continue","",4081.8,4065.1,4081.8,4081.8,4065.1,4081.8,1,4081.8,0,0,NA,"Click To Continue","Continue Button",3,"object-60","Task Instructions",NA,"SUPPRF69466"
3,1722271436548,"29/07/2024 16:43:56",1722257036548,-4,"29/07/2024 08:43:56",185160,1,"task-8tuj",NA,39264866,NA,"complete",NA,"computer","Desktop or Laptop","Windows 10","Chrome 127.0.0.0","1280x720","1280x593",NA,NA,0,"Task Introduction and Instructions (re-introduce video and audio) (Clone) (Clone)",3,"GHFIEADBC","Passed AC2","","Spreadsheet1","Spreadsheet1",1,"Task Instructions","Screen 4","spepx9",2,"continue","",3954.70000000596,3948.4,3954.70000000596,3954.70000000596,3948.4,3954.70000000596,1,3954.70000000596,0,0,NA,"Click To Continue","Continue Button",2,"object-9","Task Instructions",NA,"SUPPRF69466"
4,1722271455929,"29/07/2024 16:44:15",1722257055929,-4,"29/07/2024 08:44:15",185160,1,"task-8tuj",NA,39264866,NA,"complete",NA,"computer","Desktop or Laptop","Windows 10","Chrome 127.0.0.0","1280x720","1280x593",NA,NA,0,"Task Introduction and Instructions (re-introduce video and audio) (Clone) (Clone)",3,"GHFIEADBC","Passed AC2","","Spreadsheet1","Spreadsheet1",1,"Task Instructions","Screen 2","ce2tc8",3,"continue","",19387.300000006,19375.5,19387.300000006,19387.300000006,19375.5,19387.300000006,1,19387.300000006,0,0,NA,"Click To Continue","Continue Button",3,"object-59","Task Instructions",NA,"SUPPRF69466"
5,1722271474034,"29/07/2024 16:44:34",1722257074034,-4,"29/07/2024 08:44:34",185160,1,"task-8tuj",NA,39264866,NA,"complete",NA,"computer","Desktop or Laptop","Windows 10","Chrome 127.0.0.0","1280x720","1280x593",NA,NA,0,"Task Introduction and Instructions (re-introduce video and audio) (Clone) (Clone)",3,"GHFIEADBC","Passed AC2","","Spreadsheet1","Spreadsheet1",1,"Task Instructions","Screen 3","1qtc8v",4,"continue","",18117.4,18109.4,18117.4,18117.4,18109.4,18117.4,1,18117.4,0,0,NA,"Click To Continue","Continue Button",2,"object-2983","Task Instructions",NA,"SUPPRF69466"
6,1722271482791,"29/07/2024 16:44:42",1722257082791,-4,"29/07/2024 08:44:42",185160,1,"task-8tuj",NA,39264866,NA,"complete",NA,"computer","Desktop or Laptop","Windows 10","Chrome 127.0.0.0","1280x720","1280x593",NA,NA,0,"Task Introduction and Instructions (re-introduce video and audio) (Clone) (Clone)",3,"GHFIEADBC","Passed AC2","","Spreadsheet1","Spreadsheet1",1,"Task Instructions","Screen 12","1a4vu2",5,"continue","",8763.2,8746.6,8763.2,8763.2,8746.6,8763.2,1,8763.2,0,0,NA,"Click To Continue","Continue Button",2,"object-2466","Task Instructions",NA,"SUPPRF69466"
7,1722271488224,"29/07/2024 16:44:48",1722257088224,-4,"29/07/2024 08:44:48",185160,1,"task-8tuj",NA,39264866,NA,"complete",NA,"computer","Desktop or Laptop","Windows 10","Chrome 127.0.0.0","1280x720","1280x593",NA,NA,0,"Task Introduction and Instructions (re-introduce video and audio) (Clone) (Clone)",3,"GHFIEADBC","Passed AC2","","Spreadsheet1","Spreadsheet1",1,"Task Instructions","Screen 13","q9vwda",6,"continue","",5450.80000000596,5447.8,5450.80000000596,5450.80000000596,5447.8,5450.80000000596,1,5450.80000000596,0,0,NA,"Click To Continue","Continue Button",2,"object-2989","Task Instructions",NA,"SUPPRF69466"
8,1722271492019,"29/07/2024 16:44:52",1722257092019,-4,"29/07/2024 08:44:52",185160,1,"task-8tuj",NA,39264866,NA,"complete",NA,"computer","Desktop or Laptop","Windows 10","Chrome 127.0.0.0","1280x720","1280x593",NA,NA,0,"Task Introduction and Instructions (re-introduce video and audio) (Clone) (Clone)",3,"GHFIEADBC","Passed AC2","","Spreadsheet1","Spreadsheet1",1,"Task Instructions","Screen 11","oyulb7",7,"continue","",3797.6,3781.9,3797.6,3797.6,3781.9,3797.6,1,3797.6,0,0,NA,"Click To Continue","Continue Button",2,"object-52","Task Instructions",NA,"SUPPRF69466"
9,1722271496543,"29/07/2024 16:44:56",1722257096543,-4,"29/07/2024 08:44:56",185160,1,"task-8tuj",NA,39264866,NA,"complete",NA,"computer","Desktop or Laptop","Windows 10","Chrome 127.0.0.0","1280x720","1280x593",NA,NA,0,"Task Introduction and Instructions (re-introduce video and audio) (Clone) (Clone)",3,"GHFIEADBC","Passed AC2","","Spreadsheet1","Spreadsheet1",1,"Task Instructions","Screen 5","8nvnao",8,"continue","",4540.50000001192,4531.5,4540.50000001192,4540.50000001192,4531.5,4540.50000001192,1,4540.50000001192,0,0,NA,"Click To Continue","Continue Button",2,"object-44","Task Instructions",NA,"SUPPRF69466"
10,1722271496558,"29/07/2024 16:44:56",1722257096558,-4,"29/07/2024 08:44:56",185160,1,"task-8tuj",NA,39264866,NA,"complete",NA,"computer","Desktop or Laptop","Windows 10","Chrome 127.0.0.0","1280x720","1280x593",NA,NA,0,"Task Introduction and Instructions (re-introduce video and audio) (Clone) (Clone)",3,"GHFIEADBC","Passed AC2","","Spreadsheet1","Spreadsheet1",NA,"","","",NA,"info","END",NA,NA,NA,NA,NA,NA,0,NA,NA,NA,NA,"","",NA,"","",NA,"SUPPRF69466"
1,1722271618228,"29/07/2024 16:46:58",1722275218228,1,"29/07/2024 18:46:58",185160,1,"task-8tuj",NA,39264943,NA,"complete",NA,"computer","Desktop or Laptop","Windows 10","Chrome 126.0.0.0","2048x1152","2048x1063",NA,NA,0,"Task Introduction and Instructions (re-introduce video and audio) (Clone) (Clone)",3,"DECFBGAHI","Passed AC2","","Spreadsheet1","Spreadsheet1",NA,"","","",NA,"info","BEGIN",NA,NA,NA,NA,NA,NA,0,NA,NA,NA,NA,"","",NA,"","",NA,"SUPPRF94433"
2,1722271621469,"29/07/2024 16:47:01",1722275221469,1,"29/07/2024 18:47:01",185160,1,"task-8tuj",NA,39264943,NA,"complete",NA,"computer","Desktop or Laptop","Windows 10","Chrome 126.0.0.0","2048x1152","2048x1063",NA,NA,0,"Task Introduction and Instructions (re-introduce video and audio) (Clone) (Clone)",3,"DECFBGAHI","Passed AC2","","Spreadsheet1","Spreadsheet1",1,"Task Instructions","Screen 1","anr7sn",1,"continue","",3181.3,3171.5,3181.3,3181.3,3171.5,3181.3,1,3181.3,0,0,NA,"Click To Continue","Continue Button",3,"object-60","Task Instructions",NA,"SUPPRF94433"
3,1722271624895,"29/07/2024 16:47:04",1722275224895,1,"29/07/2024 18:47:04",185160,1,"task-8tuj",NA,39264943,NA,"complete",NA,"computer","Desktop or Laptop","Windows 10","Chrome 126.0.0.0","2048x1152","2048x1063",NA,NA,0,"Task Introduction and Instructions (re-introduce video and audio) (Clone) (Clone)",3,"DECFBGAHI","Passed AC2","","Spreadsheet1","Spreadsheet1",1,"Task Instructions","Screen 4","spepx9",2,"continue","",3435.59999999702,3422,3435.59999999702,3435.59999999702,3422,3435.59999999702,1,3435.59999999702,0,0,NA,"Click To Continue","Continue Button",2,"object-9","Task Instructions",NA,"SUPPRF94433"
4,1722271644151,"29/07/2024 16:47:24",1722275244151,1,"29/07/2024 18:47:24",185160,1,"task-8tuj",NA,39264943,NA,"complete",NA,"computer","Desktop or Laptop","Windows 10","Chrome 126.0.0.0","2048x1152","2048x1063",NA,NA,0,"Task Introduction and Instructions (re-introduce video and audio) (Clone) (Clone)",3,"DECFBGAHI","Passed AC2","","Spreadsheet1","Spreadsheet1",1,"Task Instructions","Screen 2","ce2tc8",3,"continue","",19269.399999994,19261.8,19269.399999994,19269.399999994,19261.8,19269.399999994,1,19269.399999994,0,0,NA,"Click To Continue","Continue Button",3,"object-59","Task Instructions",NA,"SUPPRF94433"
5,1722271654577,"29/07/2024 16:47:34",1722275254577,1,"29/07/2024 18:47:34",185160,1,"task-8tuj",NA,39264943,NA,"complete",NA,"computer","Desktop or Laptop","Windows 10","Chrome 126.0.0.0","2048x1152","2048x1063",NA,NA,0,"Task Introduction and Instructions (re-introduce video and audio) (Clone) (Clone)",3,"DECFBGAHI","Passed AC2","","Spreadsheet1","Spreadsheet1",1,"Task Instructions","Screen 3","1qtc8v",4,"continue","",10432.1,10415.4,10432.1,10432.1,10415.4,10432.1,1,10432.1,0,0,NA,"Click To Continue","Continue Button",2,"object-2983","Task Instructions",NA,"SUPPRF94433"
6,1722271661211,"29/07/2024 16:47:41",1722275261211,1,"29/07/2024 18:47:41",185160,1,"task-8tuj",NA,39264943,NA,"complete",NA,"computer","Desktop or Laptop","Windows 10","Chrome 126.0.0.0","2048x1152","2048x1063",NA,NA,0,"Task Introduction and Instructions (re-introduce video and audio) (Clone) (Clone)",3,"DECFBGAHI","Passed AC2","","Spreadsheet1","Spreadsheet1",1,"Task Instructions","Screen 12","1a4vu2",5,"continue","",6652.69999999404,6643,6652.69999999404,6652.69999999404,6643,6652.69999999404,1,6652.69999999404,0,0,NA,"Click To Continue","Continue Button",2,"object-2466","Task Instructions",NA,"SUPPRF94433"
7,1722271666218,"29/07/2024 16:47:46",1722275266218,1,"29/07/2024 18:47:46",185160,1,"task-8tuj",NA,39264943,NA,"complete",NA,"computer","Desktop or Laptop","Windows 10","Chrome 126.0.0.0","2048x1152","2048x1063",NA,NA,0,"Task Introduction and Instructions (re-introduce video and audio) (Clone) (Clone)",3,"DECFBGAHI","Passed AC2","","Spreadsheet1","Spreadsheet1",1,"Task Instructions","Screen 13","q9vwda",6,"continue","",5016.89999999702,5007.4,5016.89999999702,5016.89999999702,5007.4,5016.89999999702,1,5016.89999999702,0,0,NA,"Click To Continue","Continue Button",2,"object-2989","Task Instructions",NA,"SUPPRF94433"
8,1722271669298,"29/07/2024 16:47:49",1722275269298,1,"29/07/2024 18:47:49",185160,1,"task-8tuj",NA,39264943,NA,"complete",NA,"computer","Desktop or Laptop","Windows 10","Chrome 126.0.0.0","2048x1152","2048x1063",NA,NA,0,"Task Introduction and Instructions (re-introduce video and audio) (Clone) (Clone)",3,"DECFBGAHI","Passed AC2","","Spreadsheet1","Spreadsheet1",1,"Task Instructions","Screen 11","oyulb7",7,"continue","",3089.79999999404,3087.89999999999,3089.79999999404,3089.79999999404,3087.89999999999,3089.79999999404,1,3089.79999999404,0,0,NA,"Click To Continue","Continue Button",2,"object-52","Task Instructions",NA,"SUPPRF94433"
9,1722271672102,"29/07/2024 16:47:52",1722275272102,1,"29/07/2024 18:47:52",185160,1,"task-8tuj",NA,39264943,NA,"complete",NA,"computer","Desktop or Laptop","Windows 10","Chrome 126.0.0.0","2048x1152","2048x1063",NA,NA,0,"Task Introduction and Instructions (re-introduce video and audio) (Clone) (Clone)",3,"DECFBGAHI","Passed AC2","","Spreadsheet1","Spreadsheet1",1,"Task Instructions","Screen 5","8nvnao",8,"continue","",2804.2,2787.5,2804.2,2804.2,2787.5,2804.2,1,2804.2,0,0,NA,"Click To Continue","Continue Button",2,"object-44","Task Instructions",NA,"SUPPRF94433"
10,1722271672105,"29/07/2024 16:47:52",1722275272105,1,"29/07/2024 18:47:52",185160,1,"task-8tuj",NA,39264943,NA,"complete",NA,"computer","Desktop or Laptop","Windows 10","Chrome 126.0.0.0","2048x1152","2048x1063",NA,NA,0,"Task Introduction and Instructions (re-introduce video and audio) (Clone) (Clone)",3,"DECFBGAHI","Passed AC2","","Spreadsheet1","Spreadsheet1",NA,"","","",NA,"info","END",NA,NA,NA,NA,NA,NA,0,NA,NA,NA,NA,"","",NA,"","",NA,"SUPPRF94433"
1,1722271753846,"29/07/2024 16:49:13",1722275353846,1,"29/07/2024 18:49:13",185160,1,"task-8tuj",NA,39264986,NA,"complete",NA,"computer","Desktop or Laptop","Windows 10","Chrome 126.0.0.0","1440x900","1440x773",NA,NA,0,"Task Introduction and Instructions (re-introduce video and audio) (Clone) (Clone)",3,"BCADIEHFG","Passed AC2","","Spreadsheet1","Spreadsheet1",NA,"","","",NA,"info","BEGIN",NA,NA,NA,NA,NA,NA,0,NA,NA,NA,NA,"","",NA,"","",NA,"SUPPRF32459"
2,1722271761024,"29/07/2024 16:49:21",1722275361024,1,"29/07/2024 18:49:21",185160,1,"task-8tuj",NA,39264986,NA,"complete",NA,"computer","Desktop or Laptop","Windows 10","Chrome 126.0.0.0","1440x900","1440x773",NA,NA,0,"Task Introduction and Instructions (re-introduce video and audio) (Clone) (Clone)",3,"BCADIEHFG","Passed AC2","","Spreadsheet1","Spreadsheet1",1,"Task Instructions","Screen 1","anr7sn",1,"continue","",7126.59999998808,7113.4,7126.59999998808,7126.59999998808,7113.4,7126.59999998808,1,7126.59999998808,0,0,NA,"Click To Continue","Continue Button",3,"object-60","Task Instructions",NA,"SUPPRF32459"
3,1722271770559,"29/07/2024 16:49:30",1722275370559,1,"29/07/2024 18:49:30",185160,1,"task-8tuj",NA,39264986,NA,"complete",NA,"computer","Desktop or Laptop","Windows 10","Chrome 126.0.0.0","1440x900","1440x773",NA,NA,0,"Task Introduction and Instructions (re-introduce video and audio) (Clone) (Clone)",3,"BCADIEHFG","Passed AC2","","Spreadsheet1","Spreadsheet1",1,"Task Instructions","Screen 4","spepx9",2,"continue","",9546.79999995232,9534.7,9546.79999995232,9546.79999995232,9534.7,9546.79999995232,1,9546.79999995232,0,0,NA,"Click To Continue","Continue Button",2,"object-9","Task Instructions",NA,"SUPPRF32459"
4,1722271781837,"29/07/2024 16:49:41",1722275381837,1,"29/07/2024 18:49:41",185160,1,"task-8tuj",NA,39264986,NA,"complete",NA,"computer","Desktop or Laptop","Windows 10","Chrome 126.0.0.0","1440x900","1440x773",NA,NA,0,"Task Introduction and Instructions (re-introduce video and audio) (Clone) (Clone)",3,"BCADIEHFG","Passed AC2","","Spreadsheet1","Spreadsheet1",1,"Task Instructions","Screen 2","ce2tc8",3,"continue","",11290.1999999762,11287.6,11290.1999999762,11290.1999999762,11287.6,11290.1999999762,1,11290.1999999762,0,0,NA,"Click To Continue","Continue Button",3,"object-59","Task Instructions",NA,"SUPPRF32459"
5,1722272257470,"29/07/2024 16:57:37",1722275857470,1,"29/07/2024 18:57:37",185160,1,"task-8tuj",NA,39264986,NA,"complete",NA,"computer","Desktop or Laptop","Windows 10","Chrome 126.0.0.0","1440x900","1440x773",NA,NA,0,"Task Introduction and Instructions (re-introduce video and audio) (Clone) (Clone)",3,"BCADIEHFG","Passed AC2","","Spreadsheet1","Spreadsheet1",1,"Task Instructions","Screen 3","1qtc8v",4,"continue","",475624.8,475608.4,475624.8,475624.8,475608.4,475624.8,1,475624.8,0,0,NA,"Click To Continue","Continue Button",2,"object-2983","Task Instructions",NA,"SUPPRF32459"
6,1722272273627,"29/07/2024 16:57:53",1722275873627,1,"29/07/2024 18:57:53",185160,1,"task-8tuj",NA,39264986,NA,"complete",NA,"computer","Desktop or Laptop","Windows 10","Chrome 126.0.0.0","1440x900","1440x773",NA,NA,0,"Task Introduction and Instructions (re-introduce video and audio) (Clone) (Clone)",3,"BCADIEHFG","Passed AC2","","Spreadsheet1","Spreadsheet1",1,"Task Instructions","Screen 12","1a4vu2",5,"continue","",16175.8,16163.9,16175.8,16175.8,16163.9,16175.8,1,16175.8,0,0,NA,"Click To Continue","Continue Button",2,"object-2466","Task Instructions",NA,"SUPPRF32459"
7,1722272403319,"29/07/2024 17:00:03",1722276003319,1,"29/07/2024 19:00:03",185160,1,"task-8tuj",NA,39264986,NA,"complete",NA,"computer","Desktop or Laptop","Windows 10","Chrome 126.0.0.0","1440x900","1440x773",NA,NA,0,"Task Introduction and Instructions (re-introduce video and audio) (Clone) (Clone)",3,"BCADIEHFG","Passed AC2","","Spreadsheet1","Spreadsheet1",1,"Task Instructions","Screen 13","q9vwda",6,"continue","",129701.099999988,129693.2,129701.099999988,129701.099999988,129693.2,129701.099999988,1,129701.099999988,0,0,NA,"Click To Continue","Continue Button",2,"object-2989","Task Instructions",NA,"SUPPRF32459"
8,1722272412649,"29/07/2024 17:00:12",1722276012649,1,"29/07/2024 19:00:12",185160,1,"task-8tuj",NA,39264986,NA,"complete",NA,"computer","Desktop or Laptop","Windows 10","Chrome 126.0.0.0","1440x900","1440x773",NA,NA,0,"Task Introduction and Instructions (re-introduce video and audio) (Clone) (Clone)",3,"BCADIEHFG","Passed AC2","","Spreadsheet1","Spreadsheet1",1,"Task Instructions","Screen 11","oyulb7",7,"continue","",9337.29999996419,9334,9337.29999996419,9337.29999996419,9334,9337.29999996419,1,9337.29999996419,0,0,NA,"Click To Continue","Continue Button",2,"object-52","Task Instructions",NA,"SUPPRF32459"
9,1722272416013,"29/07/2024 17:00:16",1722276016013,1,"29/07/2024 19:00:16",185160,1,"task-8tuj",NA,39264986,NA,"complete",NA,"computer","Desktop or Laptop","Windows 10","Chrome 126.0.0.0","1440x900","1440x773",NA,NA,0,"Task Introduction and Instructions (re-introduce video and audio) (Clone) (Clone)",3,"BCADIEHFG","Passed AC2","","Spreadsheet1","Spreadsheet1",1,"Task Instructions","Screen 5","8nvnao",8,"continue","",3367.29999996419,3356.19999999995,3367.29999996419,3367.29999996419,3356.19999999995,3367.29999996419,1,3367.29999996419,0,0,NA,"Click To Continue","Continue Button",2,"object-44","Task Instructions",NA,"SUPPRF32459"
10,1722272416016,"29/07/2024 17:00:16",1722276016016,1,"29/07/2024 19:00:16",185160,1,"task-8tuj",NA,39264986,NA,"complete",NA,"computer","Desktop or Laptop","Windows 10","Chrome 126.0.0.0","1440x900","1440x773",NA,NA,0,"Task Introduction and Instructions (re-introduce video and audio) (Clone) (Clone)",3,"BCADIEHFG","Passed AC2","","Spreadsheet1","Spreadsheet1",NA,"","","",NA,"info","END",NA,NA,NA,NA,NA,NA,0,NA,NA,NA,NA,"","",NA,"","",NA,"SUPPRF32459"
