"Event.Index","UTC.Timestamp","UTC.Date.and.Time","Local.Timestamp","Local.Timezone","Local.Date.and.Time","Experiment.ID","Experiment.Version","Tree.Node.Key","Repeat.Key","Schedule.ID","Participant.Starting.Group","Participant.Status","Participant.Completion.Code","Participant.Device.Type","Participant.Device","Participant.OS","Participant.Browser","Participant.Monitor.Size","Participant.Viewport.Size","Checkpoint","Room.ID","Room.Order","Task.Name","Task.Version","order.ot79","branch.g31k","branch.5gtn","Spreadsheet","Current.Spreadsheet","Trial.Number","Display","Screen","Screen.ID","Screen.Counter","Response.Type","Response","Onset.Time","Clock.Time","Reaction.Time","Absolute.Onset.Time","Absolute.Clock.Time","Absolute.Reaction.Time","Correct","Response.Onset","Response.Duration","Proportion","Tag","Component.Name","Object.Name","Object.Number","Object.ID","Spreadsheet..display","Manipulation..Spreadsheet","Random_ID"
1,1722273093125,"29/07/2024 17:11:33",1722276693125,1,"29/07/2024 19:11:33",185160,1,"task-7hcp",NA,39265339,NA,"rejected - time limit reached",NA,"computer","Desktop or Laptop","Windows 10","Chrome 126.0.0.0","1536x864","1536x695",NA,NA,0,"BIQ (Charlotte)",5,"ABICHDGEF","Passed AC2","","Spreadsheet1","Spreadsheet1",NA,"","","",NA,"info","BEGIN",NA,NA,NA,NA,NA,NA,0,NA,NA,NA,NA,"","",NA,"","",NA,"SUPPRF23034"
2,1722273683957,"29/07/2024 17:21:23",1722277283957,1,"29/07/2024 19:21:23",185160,1,"task-7hcp",NA,39265339,NA,"rejected - time limit reached",NA,"computer","Desktop or Laptop","Windows 10","Chrome 126.0.0.0","1536x864","1536x695",NA,NA,0,"BIQ (Charlotte)",5,"ABICHDGEF","Passed AC2","","Spreadsheet1","Spreadsheet1",1,"BIQ","Screen 1","9dh6eq",1,"continue","",590840.47,590823.47,590840.47,590840.47,590823.47,590840.47,1,590840.47,0,0,NA,"Click To Continue","Continue Button",16,"object-48","BIQ",NA,"SUPPRF23034"
3,1722273683971,"29/07/2024 17:21:23",1722277283971,1,"29/07/2024 19:21:23",185160,1,"task-7hcp",NA,39265339,NA,"rejected - time limit reached",NA,"computer","Desktop or Laptop","Windows 10","Chrome 126.0.0.0","1536x864","1536x695",NA,NA,0,"BIQ (Charlotte)",5,"ABICHDGEF","Passed AC2","","Spreadsheet1","Spreadsheet1",1,"BIQ","Screen 1","9dh6eq",1,"response","6",104603.37,590823.47,590840.47,104603.37,590823.47,590840.47,1,104603.37,486237.1,0,NA,"Rating Scale","Rating Scale",3,"object-5","BIQ",NA,"SUPPRF23034"
4,1722273683972,"29/07/2024 17:21:23",1722277283972,1,"29/07/2024 19:21:23",185160,1,"task-7hcp",NA,39265339,NA,"rejected - time limit reached",NA,"computer","Desktop or Laptop","Windows 10","Chrome 126.0.0.0","1536x864","1536x695",NA,NA,0,"BIQ (Charlotte)",5,"ABICHDGEF","Passed AC2","","Spreadsheet1","Spreadsheet1",1,"BIQ","Screen 1","9dh6eq",1,"response","4",589973.17,590823.47,590840.47,589973.17,590823.47,590840.47,1,589973.17,867.300000000047,0,NA,"Rating Scale","Rating Scale",10,"object-18","BIQ",NA,"SUPPRF23034"
5,1722273750847,"29/07/2024 17:22:30",1722277350847,1,"29/07/2024 19:22:30",185160,1,"task-7hcp",NA,39265339,NA,"rejected - time limit reached",NA,"computer","Desktop or Laptop","Windows 10","Chrome 126.0.0.0","1536x864","1536x695",NA,NA,0,"BIQ (Charlotte)",5,"ABICHDGEF","Passed AC2","","Spreadsheet1","Spreadsheet1",1,"BIQ","Screen 2","svpz34",2,"continue","",66915.9000000029,66907.8999999999,66915.9000000029,66915.9000000029,66907.8999999999,66915.9000000029,1,66915.9000000029,0,0,NA,"Click To Continue","Continue Button",7,"object-1017","BIQ",NA,"SUPPRF23034"
6,1722273750850,"29/07/2024 17:22:30",1722277350850,1,"29/07/2024 19:22:30",185160,1,"task-7hcp",NA,39265339,NA,"rejected - time limit reached",NA,"computer","Desktop or Laptop","Windows 10","Chrome 126.0.0.0","1536x864","1536x695",NA,NA,0,"BIQ (Charlotte)",5,"ABICHDGEF","Passed AC2","","Spreadsheet1","Spreadsheet1",1,"BIQ","Screen 2","svpz34",2,"response","0",63208,66907.8999999999,66919.1000000059,63208,66907.8999999999,66919.1000000059,1,63208,3711.10000000591,0,NA,"Rating Scale","Rating Scale",8,"object-118","BIQ",NA,"SUPPRF23034"
7,1722273750850,"29/07/2024 17:22:30",1722277350850,1,"29/07/2024 19:22:30",185160,1,"task-7hcp",NA,39265339,NA,"rejected - time limit reached",NA,"computer","Desktop or Laptop","Windows 10","Chrome 126.0.0.0","1536x864","1536x695",NA,NA,0,"BIQ (Charlotte)",5,"ABICHDGEF","Passed AC2","","Spreadsheet1","Spreadsheet1",1,"BIQ","Screen 2","svpz34",2,"response","1",66341,66907.8999999999,66919.499999997,66341,66907.8999999999,66919.499999997,1,66341,578.499999996973,0,NA,"Rating Scale","Rating Scale",10,"object-121","BIQ",NA,"SUPPRF23034"
8,1722273908175,"29/07/2024 17:25:08",1722277508175,1,"29/07/2024 19:25:08",185160,1,"task-7hcp",NA,39265339,NA,"rejected - time limit reached",NA,"computer","Desktop or Laptop","Windows 10","Chrome 126.0.0.0","1536x864","1536x695",NA,NA,0,"BIQ (Charlotte)",5,"ABICHDGEF","Passed AC2","","Spreadsheet1","Spreadsheet1",1,"BIQ","Screen 3","o21mwi",3,"continue","",157335.899999994,157329.2,157335.899999994,157335.899999994,157329.2,157335.899999994,1,157335.899999994,0,0,NA,"Click To Continue","Continue Button",15,"object-50","BIQ",NA,"SUPPRF23034"
9,1722273908178,"29/07/2024 17:25:08",1722277508178,1,"29/07/2024 19:25:08",185160,1,"task-7hcp",NA,39265339,NA,"rejected - time limit reached",NA,"computer","Desktop or Laptop","Windows 10","Chrome 126.0.0.0","1536x864","1536x695",NA,NA,0,"BIQ (Charlotte)",5,"ABICHDGEF","Passed AC2","","Spreadsheet1","Spreadsheet1",1,"BIQ","Screen 3","o21mwi",3,"response","4",102902.9,157329.2,157338.700000006,102902.9,157329.2,157338.700000006,1,102902.9,54435.800000006,0,NA,"Rating Scale","Rating Scale",2,"object-36","BIQ",NA,"SUPPRF23034"
10,1722273908179,"29/07/2024 17:25:08",1722277508179,1,"29/07/2024 19:25:08",185160,1,"task-7hcp",NA,39265339,NA,"rejected - time limit reached",NA,"computer","Desktop or Laptop","Windows 10","Chrome 126.0.0.0","1536x864","1536x695",NA,NA,0,"BIQ (Charlotte)",5,"ABICHDGEF","Passed AC2","","Spreadsheet1","Spreadsheet1",1,"BIQ","Screen 3","o21mwi",3,"response","2",156695.9,157329.2,157339.500000003,156695.9,157329.2,157339.500000003,1,156695.9,643.600000003004,0,NA,"Rating Scale","Rating Scale",9,"object-86","BIQ",NA,"SUPPRF23034"
11,1722273940502,"29/07/2024 17:25:40",1722277540502,1,"29/07/2024 19:25:40",185160,1,"task-7hcp",NA,39265339,NA,"rejected - time limit reached",NA,"computer","Desktop or Laptop","Windows 10","Chrome 126.0.0.0","1536x864","1536x695",NA,NA,0,"BIQ (Charlotte)",5,"ABICHDGEF","Passed AC2","","Spreadsheet1","Spreadsheet1",1,"BIQ","Screen 4","iz3the",4,"continue","",32334.0000000059,32329.2,32334.0000000059,32334.0000000059,32329.2,32334.0000000059,1,32334.0000000059,0,0,NA,"Click To Continue","Continue Button",22,"object-73","BIQ",NA,"SUPPRF23034"
12,1722273940505,"29/07/2024 17:25:40",1722277540505,1,"29/07/2024 19:25:40",185160,1,"task-7hcp",NA,39265339,NA,"rejected - time limit reached",NA,"computer","Desktop or Laptop","Windows 10","Chrome 126.0.0.0","1536x864","1536x695",NA,NA,0,"BIQ (Charlotte)",5,"ABICHDGEF","Passed AC2","","Spreadsheet1","Spreadsheet1",1,"BIQ","Screen 4","iz3the",4,"response","3",20064,32329.2,32336.5000000059,20064,32329.2,32336.5000000059,1,20064,12272.5000000059,0,NA,"Rating Scale","Rating Scale",2,"object-53","BIQ",NA,"SUPPRF23034"
13,1722273940505,"29/07/2024 17:25:40",1722277540505,1,"29/07/2024 19:25:40",185160,1,"task-7hcp",NA,39265339,NA,"rejected - time limit reached",NA,"computer","Desktop or Laptop","Windows 10","Chrome 126.0.0.0","1536x864","1536x695",NA,NA,0,"BIQ (Charlotte)",5,"ABICHDGEF","Passed AC2","","Spreadsheet1","Spreadsheet1",1,"BIQ","Screen 4","iz3the",4,"response","5",22464,32329.2,32336.899999997,22464,32329.2,32336.899999997,1,22464,9872.899999997,0,NA,"Rating Scale","Rating Scale",9,"object-60","BIQ",NA,"SUPPRF23034"
14,1722273940505,"29/07/2024 17:25:40",1722277540505,1,"29/07/2024 19:25:40",185160,1,"task-7hcp",NA,39265339,NA,"rejected - time limit reached",NA,"computer","Desktop or Laptop","Windows 10","Chrome 126.0.0.0","1536x864","1536x695",NA,NA,0,"BIQ (Charlotte)",5,"ABICHDGEF","Passed AC2","","Spreadsheet1","Spreadsheet1",1,"BIQ","Screen 4","iz3the",4,"response","6",29729.4,32329.2,32337.199999994,29729.4,32329.2,32337.199999994,1,29729.4,2607.79999999399,0,NA,"Rating Scale","Rating Scale",16,"object-67","BIQ",NA,"SUPPRF23034"
15,1722273940510,"29/07/2024 17:25:40",1722277540510,1,"29/07/2024 19:25:40",185160,1,"task-7hcp",NA,39265339,NA,"rejected - time limit reached",NA,"computer","Desktop or Laptop","Windows 10","Chrome 126.0.0.0","1536x864","1536x695",NA,NA,0,"BIQ (Charlotte)",5,"ABICHDGEF","Passed AC2","","Spreadsheet1","Spreadsheet1",NA,"","","",NA,"info","END",NA,NA,NA,NA,NA,NA,0,NA,NA,NA,NA,"","",NA,"","",NA,"SUPPRF23034"
1,1722270011159,"29/07/2024 16:20:11",1722273611159,1,"29/07/2024 18:20:11",185160,1,"task-7hcp",NA,39263903,NA,"complete",NA,"computer","Desktop or Laptop","Mac OS 10.15.7","Chrome 126.0.0.0","1728x1117","1728x982",NA,NA,0,"BIQ (Charlotte)",5,"BCADIEHFG","Passed AC2","","Spreadsheet1","Spreadsheet1",NA,"","","",NA,"info","BEGIN",NA,NA,NA,NA,NA,NA,0,NA,NA,NA,NA,"","",NA,"","",NA,"SUPPRF33328"
2,1722270025395,"29/07/2024 16:20:25",1722273625395,1,"29/07/2024 18:20:25",185160,1,"task-7hcp",NA,39263903,NA,"complete",NA,"computer","Desktop or Laptop","Mac OS 10.15.7","Chrome 126.0.0.0","1728x1117","1728x982",NA,NA,0,"BIQ (Charlotte)",5,"BCADIEHFG","Passed AC2","","Spreadsheet1","Spreadsheet1",1,"BIQ","Screen 1","9dh6eq",1,"continue","",14931,14927.6,14931,14931,14927.6,14931,1,14931,0,0,NA,"Click To Continue","Continue Button",16,"object-48","BIQ",NA,"SUPPRF33328"
3,1722270025396,"29/07/2024 16:20:25",1722273625396,1,"29/07/2024 18:20:25",185160,1,"task-7hcp",NA,39263903,NA,"complete",NA,"computer","Desktop or Laptop","Mac OS 10.15.7","Chrome 126.0.0.0","1728x1117","1728x982",NA,NA,0,"BIQ (Charlotte)",5,"BCADIEHFG","Passed AC2","","Spreadsheet1","Spreadsheet1",1,"BIQ","Screen 1","9dh6eq",1,"response","4",6538.4,14927.6,14932.5999999642,6538.4,14927.6,14932.5999999642,1,6538.4,8394.19999996424,0,NA,"Rating Scale","Rating Scale",3,"object-5","BIQ",NA,"SUPPRF33328"
4,1722270025396,"29/07/2024 16:20:25",1722273625396,1,"29/07/2024 18:20:25",185160,1,"task-7hcp",NA,39263903,NA,"complete",NA,"computer","Desktop or Laptop","Mac OS 10.15.7","Chrome 126.0.0.0","1728x1117","1728x982",NA,NA,0,"BIQ (Charlotte)",5,"BCADIEHFG","Passed AC2","","Spreadsheet1","Spreadsheet1",1,"BIQ","Screen 1","9dh6eq",1,"response","3",12740.1,14927.6,14932.7999999523,12740.1,14927.6,14932.7999999523,1,12740.1,2192.69999995232,0,NA,"Rating Scale","Rating Scale",10,"object-18","BIQ",NA,"SUPPRF33328"
5,1722270034548,"29/07/2024 16:20:34",1722273634548,1,"29/07/2024 18:20:34",185160,1,"task-7hcp",NA,39263903,NA,"complete",NA,"computer","Desktop or Laptop","Mac OS 10.15.7","Chrome 126.0.0.0","1728x1117","1728x982",NA,NA,0,"BIQ (Charlotte)",5,"BCADIEHFG","Passed AC2","","Spreadsheet1","Spreadsheet1",1,"BIQ","Screen 2","svpz34",2,"continue","",9155.79999997616,9152.3,9155.79999997616,9155.79999997616,9152.3,9155.79999997616,1,9155.79999997616,0,0,NA,"Click To Continue","Continue Button",7,"object-1017","BIQ",NA,"SUPPRF33328"
6,1722270034548,"29/07/2024 16:20:34",1722273634548,1,"29/07/2024 18:20:34",185160,1,"task-7hcp",NA,39263903,NA,"complete",NA,"computer","Desktop or Laptop","Mac OS 10.15.7","Chrome 126.0.0.0","1728x1117","1728x982",NA,NA,0,"BIQ (Charlotte)",5,"BCADIEHFG","Passed AC2","","Spreadsheet1","Spreadsheet1",1,"BIQ","Screen 2","svpz34",2,"response","4",3119.7,9152.3,9156.69999995232,3119.7,9152.3,9156.69999995232,1,3119.7,6036.99999995232,0,NA,"Rating Scale","Rating Scale",8,"object-118","BIQ",NA,"SUPPRF33328"
7,1722270034548,"29/07/2024 16:20:34",1722273634548,1,"29/07/2024 18:20:34",185160,1,"task-7hcp",NA,39263903,NA,"complete",NA,"computer","Desktop or Laptop","Mac OS 10.15.7","Chrome 126.0.0.0","1728x1117","1728x982",NA,NA,0,"BIQ (Charlotte)",5,"BCADIEHFG","Passed AC2","","Spreadsheet1","Spreadsheet1",1,"BIQ","Screen 2","svpz34",2,"response","0",8311.8,9152.3,9156.79999997616,8311.8,9152.3,9156.79999997616,1,8311.8,844.999999976157,0,NA,"Rating Scale","Rating Scale",10,"object-121","BIQ",NA,"SUPPRF33328"
8,1722270044294,"29/07/2024 16:20:44",1722273644294,1,"29/07/2024 18:20:44",185160,1,"task-7hcp",NA,39263903,NA,"complete",NA,"computer","Desktop or Laptop","Mac OS 10.15.7","Chrome 126.0.0.0","1728x1117","1728x982",NA,NA,0,"BIQ (Charlotte)",5,"BCADIEHFG","Passed AC2","","Spreadsheet1","Spreadsheet1",1,"BIQ","Screen 3","o21mwi",3,"continue","",9749.69999996424,9742.5,9749.69999996424,9749.69999996424,9742.5,9749.69999996424,1,9749.69999996424,0,0,NA,"Click To Continue","Continue Button",15,"object-50","BIQ",NA,"SUPPRF33328"
9,1722270044299,"29/07/2024 16:20:44",1722273644299,1,"29/07/2024 18:20:44",185160,1,"task-7hcp",NA,39263903,NA,"complete",NA,"computer","Desktop or Laptop","Mac OS 10.15.7","Chrome 126.0.0.0","1728x1117","1728x982",NA,NA,0,"BIQ (Charlotte)",5,"BCADIEHFG","Passed AC2","","Spreadsheet1","Spreadsheet1",1,"BIQ","Screen 3","o21mwi",3,"response","4",5715.9,9742.5,9750.7,5715.9,9742.5,9750.7,1,5715.9,4034.80000000001,0,NA,"Rating Scale","Rating Scale",2,"object-36","BIQ",NA,"SUPPRF33328"
10,1722270044299,"29/07/2024 16:20:44",1722273644299,1,"29/07/2024 18:20:44",185160,1,"task-7hcp",NA,39263903,NA,"complete",NA,"computer","Desktop or Laptop","Mac OS 10.15.7","Chrome 126.0.0.0","1728x1117","1728x982",NA,NA,0,"BIQ (Charlotte)",5,"BCADIEHFG","Passed AC2","","Spreadsheet1","Spreadsheet1",1,"BIQ","Screen 3","o21mwi",3,"response","0",8650.6,9742.5,9750.7,8650.6,9742.5,9750.7,1,8650.6,1100.10000000001,0,NA,"Rating Scale","Rating Scale",9,"object-86","BIQ",NA,"SUPPRF33328"
11,1722270053663,"29/07/2024 16:20:53",1722273653663,1,"29/07/2024 18:20:53",185160,1,"task-7hcp",NA,39263903,NA,"complete",NA,"computer","Desktop or Laptop","Mac OS 10.15.7","Chrome 126.0.0.0","1728x1117","1728x982",NA,NA,0,"BIQ (Charlotte)",5,"BCADIEHFG","Passed AC2","","Spreadsheet1","Spreadsheet1",1,"BIQ","Screen 4","iz3the",4,"continue","",9376.79999998808,9375.1,9376.79999998808,9376.79999998808,9375.1,9376.79999998808,1,9376.79999998808,0,0,NA,"Click To Continue","Continue Button",22,"object-73","BIQ",NA,"SUPPRF33328"
12,1722270053663,"29/07/2024 16:20:53",1722273653663,1,"29/07/2024 18:20:53",185160,1,"task-7hcp",NA,39263903,NA,"complete",NA,"computer","Desktop or Laptop","Mac OS 10.15.7","Chrome 126.0.0.0","1728x1117","1728x982",NA,NA,0,"BIQ (Charlotte)",5,"BCADIEHFG","Passed AC2","","Spreadsheet1","Spreadsheet1",1,"BIQ","Screen 4","iz3the",4,"response","0",2926,9375.1,9377.49999997616,2926,9375.1,9377.49999997616,1,2926,6451.49999997616,0,NA,"Rating Scale","Rating Scale",2,"object-53","BIQ",NA,"SUPPRF33328"
13,1722270053664,"29/07/2024 16:20:53",1722273653664,1,"29/07/2024 18:20:53",185160,1,"task-7hcp",NA,39263903,NA,"complete",NA,"computer","Desktop or Laptop","Mac OS 10.15.7","Chrome 126.0.0.0","1728x1117","1728x982",NA,NA,0,"BIQ (Charlotte)",5,"BCADIEHFG","Passed AC2","","Spreadsheet1","Spreadsheet1",1,"BIQ","Screen 4","iz3the",4,"response","0",5092.4,9375.1,9377.79999998808,5092.4,9375.1,9377.79999998808,1,5092.4,4285.39999998808,0,NA,"Rating Scale","Rating Scale",9,"object-60","BIQ",NA,"SUPPRF33328"
14,1722270053664,"29/07/2024 16:20:53",1722273653664,1,"29/07/2024 18:20:53",185160,1,"task-7hcp",NA,39263903,NA,"complete",NA,"computer","Desktop or Laptop","Mac OS 10.15.7","Chrome 126.0.0.0","1728x1117","1728x982",NA,NA,0,"BIQ (Charlotte)",5,"BCADIEHFG","Passed AC2","","Spreadsheet1","Spreadsheet1",1,"BIQ","Screen 4","iz3the",4,"response","4",8015.4,9375.1,9377.99999997616,8015.4,9375.1,9377.99999997616,1,8015.4,1362.59999997616,0,NA,"Rating Scale","Rating Scale",16,"object-67","BIQ",NA,"SUPPRF33328"
15,1722270053665,"29/07/2024 16:20:53",1722273653665,1,"29/07/2024 18:20:53",185160,1,"task-7hcp",NA,39263903,NA,"complete",NA,"computer","Desktop or Laptop","Mac OS 10.15.7","Chrome 126.0.0.0","1728x1117","1728x982",NA,NA,0,"BIQ (Charlotte)",5,"BCADIEHFG","Passed AC2","","Spreadsheet1","Spreadsheet1",NA,"","","",NA,"info","END",NA,NA,NA,NA,NA,NA,0,NA,NA,NA,NA,"","",NA,"","",NA,"SUPPRF33328"
1,1722270958951,"29/07/2024 16:35:58",1722274558951,1,"29/07/2024 18:35:58",185160,1,"task-7hcp",NA,39264613,NA,"complete",NA,"computer","Desktop or Laptop","Windows 10","Chrome 127.0.0.0","1920x1080","1920x893",NA,NA,0,"BIQ (Charlotte)",5,"IAHBGCFDE","Passed AC2","","Spreadsheet1","Spreadsheet1",NA,"","","",NA,"info","BEGIN",NA,NA,NA,NA,NA,NA,0,NA,NA,NA,NA,"","",NA,"","",NA,"SUPPRF51437"
2,1722270973834,"29/07/2024 16:36:13",1722274573834,1,"29/07/2024 18:36:13",185160,1,"task-7hcp",NA,39264613,NA,"complete",NA,"computer","Desktop or Laptop","Windows 10","Chrome 127.0.0.0","1920x1080","1920x893",NA,NA,0,"BIQ (Charlotte)",5,"IAHBGCFDE","Passed AC2","","Spreadsheet1","Spreadsheet1",1,"BIQ","Screen 1","9dh6eq",1,"continue","",14897.0000001907,14883.7,14897.0000001907,14897.0000001907,14883.7,14897.0000001907,1,14897.0000001907,0,0,NA,"Click To Continue","Continue Button",16,"object-48","BIQ",NA,"SUPPRF51437"
3,1722270973835,"29/07/2024 16:36:13",1722274573835,1,"29/07/2024 18:36:13",185160,1,"task-7hcp",NA,39264613,NA,"complete",NA,"computer","Desktop or Laptop","Windows 10","Chrome 127.0.0.0","1920x1080","1920x893",NA,NA,0,"BIQ (Charlotte)",5,"IAHBGCFDE","Passed AC2","","Spreadsheet1","Spreadsheet1",1,"BIQ","Screen 1","9dh6eq",1,"response","7",10250.3,14883.7,14899.0000001907,10250.3,14883.7,14899.0000001907,1,10250.3,4648.70000019073,0,NA,"Rating Scale","Rating Scale",3,"object-5","BIQ",NA,"SUPPRF51437"
4,1722270973836,"29/07/2024 16:36:13",1722274573836,1,"29/07/2024 18:36:13",185160,1,"task-7hcp",NA,39264613,NA,"complete",NA,"computer","Desktop or Laptop","Windows 10","Chrome 127.0.0.0","1920x1080","1920x893",NA,NA,0,"BIQ (Charlotte)",5,"IAHBGCFDE","Passed AC2","","Spreadsheet1","Spreadsheet1",1,"BIQ","Screen 1","9dh6eq",1,"response","6",14166.9,14883.7,14899.2999999046,14166.9,14883.7,14899.2999999046,1,14166.9,732.399999904632,0,NA,"Rating Scale","Rating Scale",10,"object-18","BIQ",NA,"SUPPRF51437"
5,1722270987051,"29/07/2024 16:36:27",1722274587051,1,"29/07/2024 18:36:27",185160,1,"task-7hcp",NA,39264613,NA,"complete",NA,"computer","Desktop or Laptop","Windows 10","Chrome 127.0.0.0","1920x1080","1920x893",NA,NA,0,"BIQ (Charlotte)",5,"IAHBGCFDE","Passed AC2","","Spreadsheet1","Spreadsheet1",1,"BIQ","Screen 2","svpz34",2,"continue","",13230.5,13216.9,13230.5,13230.5,13216.9,13230.5,1,13230.5,0,0,NA,"Click To Continue","Continue Button",7,"object-1017","BIQ",NA,"SUPPRF51437"
6,1722270987055,"29/07/2024 16:36:27",1722274587055,1,"29/07/2024 18:36:27",185160,1,"task-7hcp",NA,39264613,NA,"complete",NA,"computer","Desktop or Laptop","Windows 10","Chrome 127.0.0.0","1920x1080","1920x893",NA,NA,0,"BIQ (Charlotte)",5,"IAHBGCFDE","Passed AC2","","Spreadsheet1","Spreadsheet1",1,"BIQ","Screen 2","svpz34",2,"response","5",8350.2,13216.9,13233.4,8350.2,13216.9,13233.4,1,8350.2,4883.2,0,NA,"Rating Scale","Rating Scale",8,"object-118","BIQ",NA,"SUPPRF51437"
7,1722270987055,"29/07/2024 16:36:27",1722274587055,1,"29/07/2024 18:36:27",185160,1,"task-7hcp",NA,39264613,NA,"complete",NA,"computer","Desktop or Laptop","Windows 10","Chrome 127.0.0.0","1920x1080","1920x893",NA,NA,0,"BIQ (Charlotte)",5,"IAHBGCFDE","Passed AC2","","Spreadsheet1","Spreadsheet1",1,"BIQ","Screen 2","svpz34",2,"response","6",12450.1,13216.9,13233.4,12450.1,13216.9,13233.4,1,12450.1,783.300000000003,0,NA,"Rating Scale","Rating Scale",10,"object-121","BIQ",NA,"SUPPRF51437"
8,1722270992535,"29/07/2024 16:36:32",1722274592535,1,"29/07/2024 18:36:32",185160,1,"task-7hcp",NA,39264613,NA,"complete",NA,"computer","Desktop or Laptop","Windows 10","Chrome 127.0.0.0","1920x1080","1920x893",NA,NA,0,"BIQ (Charlotte)",5,"IAHBGCFDE","Passed AC2","","Spreadsheet1","Spreadsheet1",1,"BIQ","Screen 3","o21mwi",3,"continue","",5497.19999990463,5483.6,5497.19999990463,5497.19999990463,5483.6,5497.19999990463,1,5497.19999990463,0,0,NA,"Click To Continue","Continue Button",15,"object-50","BIQ",NA,"SUPPRF51437"
9,1722270992536,"29/07/2024 16:36:32",1722274592536,1,"29/07/2024 18:36:32",185160,1,"task-7hcp",NA,39264613,NA,"complete",NA,"computer","Desktop or Laptop","Windows 10","Chrome 127.0.0.0","1920x1080","1920x893",NA,NA,0,"BIQ (Charlotte)",5,"IAHBGCFDE","Passed AC2","","Spreadsheet1","Spreadsheet1",1,"BIQ","Screen 3","o21mwi",3,"response","4",2416.7,5483.6,5498.19999990463,2416.7,5483.6,5498.19999990463,1,2416.7,3081.49999990463,0,NA,"Rating Scale","Rating Scale",2,"object-36","BIQ",NA,"SUPPRF51437"
10,1722270992536,"29/07/2024 16:36:32",1722274592536,1,"29/07/2024 18:36:32",185160,1,"task-7hcp",NA,39264613,NA,"complete",NA,"computer","Desktop or Laptop","Windows 10","Chrome 127.0.0.0","1920x1080","1920x893",NA,NA,0,"BIQ (Charlotte)",5,"IAHBGCFDE","Passed AC2","","Spreadsheet1","Spreadsheet1",1,"BIQ","Screen 3","o21mwi",3,"response","4",4633.6,5483.6,5498.50000009537,4633.6,5483.6,5498.50000009537,1,4633.6,864.900000095367,0,NA,"Rating Scale","Rating Scale",9,"object-86","BIQ",NA,"SUPPRF51437"
11,1722271002139,"29/07/2024 16:36:42",1722274602139,1,"29/07/2024 18:36:42",185160,1,"task-7hcp",NA,39264613,NA,"complete",NA,"computer","Desktop or Laptop","Windows 10","Chrome 127.0.0.0","1920x1080","1920x893",NA,NA,0,"BIQ (Charlotte)",5,"IAHBGCFDE","Passed AC2","","Spreadsheet1","Spreadsheet1",1,"BIQ","Screen 4","iz3the",4,"continue","",9616.6,9600,9616.6,9616.6,9600,9616.6,1,9616.6,0,0,NA,"Click To Continue","Continue Button",22,"object-73","BIQ",NA,"SUPPRF51437"
12,1722271002142,"29/07/2024 16:36:42",1722274602142,1,"29/07/2024 18:36:42",185160,1,"task-7hcp",NA,39264613,NA,"complete",NA,"computer","Desktop or Laptop","Windows 10","Chrome 127.0.0.0","1920x1080","1920x893",NA,NA,0,"BIQ (Charlotte)",5,"IAHBGCFDE","Passed AC2","","Spreadsheet1","Spreadsheet1",1,"BIQ","Screen 4","iz3the",4,"response","2",2650.1,9600,9616.6,2650.1,9600,9616.6,1,2650.1,6966.5,0,NA,"Rating Scale","Rating Scale",2,"object-53","BIQ",NA,"SUPPRF51437"
13,1722271002142,"29/07/2024 16:36:42",1722274602142,1,"29/07/2024 18:36:42",185160,1,"task-7hcp",NA,39264613,NA,"complete",NA,"computer","Desktop or Laptop","Windows 10","Chrome 127.0.0.0","1920x1080","1920x893",NA,NA,0,"BIQ (Charlotte)",5,"IAHBGCFDE","Passed AC2","","Spreadsheet1","Spreadsheet1",1,"BIQ","Screen 4","iz3the",4,"response","6",6116.8,9600,9616.6,6116.8,9600,9616.6,1,6116.8,3499.8,0,NA,"Rating Scale","Rating Scale",9,"object-60","BIQ",NA,"SUPPRF51437"
14,1722271002142,"29/07/2024 16:36:42",1722274602142,1,"29/07/2024 18:36:42",185160,1,"task-7hcp",NA,39264613,NA,"complete",NA,"computer","Desktop or Laptop","Windows 10","Chrome 127.0.0.0","1920x1080","1920x893",NA,NA,0,"BIQ (Charlotte)",5,"IAHBGCFDE","Passed AC2","","Spreadsheet1","Spreadsheet1",1,"BIQ","Screen 4","iz3the",4,"response","3",8883.3,9600,9616.6,8883.3,9600,9616.6,1,8883.3,733.299999999996,0,NA,"Rating Scale","Rating Scale",16,"object-67","BIQ",NA,"SUPPRF51437"
15,1722271002145,"29/07/2024 16:36:42",1722274602145,1,"29/07/2024 18:36:42",185160,1,"task-7hcp",NA,39264613,NA,"complete",NA,"computer","Desktop or Laptop","Windows 10","Chrome 127.0.0.0","1920x1080","1920x893",NA,NA,0,"BIQ (Charlotte)",5,"IAHBGCFDE","Passed AC2","","Spreadsheet1","Spreadsheet1",NA,"","","",NA,"info","END",NA,NA,NA,NA,NA,NA,0,NA,NA,NA,NA,"","",NA,"","",NA,"SUPPRF51437"
1,1722270333037,"29/07/2024 16:25:33",1722255933037,-4,"29/07/2024 08:25:33",185160,1,"task-7hcp",NA,39264135,NA,"complete",NA,"computer","Desktop or Laptop","Mac OS 10.15.7","Chrome 126.0.0.0","1440x900","1440x813",NA,NA,0,"BIQ (Charlotte)",5,"EFDGCHBIA","Passed AC2","","Spreadsheet1","Spreadsheet1",NA,"","","",NA,"info","BEGIN",NA,NA,NA,NA,NA,NA,0,NA,NA,NA,NA,"","",NA,"","",NA,"SUPPRF82983"
2,1722270350001,"29/07/2024 16:25:50",1722255950001,-4,"29/07/2024 08:25:50",185160,1,"task-7hcp",NA,39264135,NA,"complete",NA,"computer","Desktop or Laptop","Mac OS 10.15.7","Chrome 126.0.0.0","1440x900","1440x813",NA,NA,0,"BIQ (Charlotte)",5,"EFDGCHBIA","Passed AC2","","Spreadsheet1","Spreadsheet1",1,"BIQ","Screen 1","9dh6eq",1,"continue","",16984.9140000045,16969.914,16984.9140000045,16984.9140000045,16969.914,16984.9140000045,1,16984.9140000045,0,0,NA,"Click To Continue","Continue Button",16,"object-48","BIQ",NA,"SUPPRF82983"
3,1722270350005,"29/07/2024 16:25:50",1722255950005,-4,"29/07/2024 08:25:50",185160,1,"task-7hcp",NA,39264135,NA,"complete",NA,"computer","Desktop or Laptop","Mac OS 10.15.7","Chrome 126.0.0.0","1440x900","1440x813",NA,NA,0,"BIQ (Charlotte)",5,"EFDGCHBIA","Passed AC2","","Spreadsheet1","Spreadsheet1",1,"BIQ","Screen 1","9dh6eq",1,"response","6",9974.014,16969.914,16987.214,9974.014,16969.914,16987.214,1,9974.014,7013.2,0,NA,"Rating Scale","Rating Scale",3,"object-5","BIQ",NA,"SUPPRF82983"
4,1722270350005,"29/07/2024 16:25:50",1722255950005,-4,"29/07/2024 08:25:50",185160,1,"task-7hcp",NA,39264135,NA,"complete",NA,"computer","Desktop or Laptop","Mac OS 10.15.7","Chrome 126.0.0.0","1440x900","1440x813",NA,NA,0,"BIQ (Charlotte)",5,"EFDGCHBIA","Passed AC2","","Spreadsheet1","Spreadsheet1",1,"BIQ","Screen 1","9dh6eq",1,"response","8",14088.514,16969.914,16987.214,14088.514,16969.914,16987.214,1,14088.514,2898.7,0,NA,"Rating Scale","Rating Scale",10,"object-18","BIQ",NA,"SUPPRF82983"
5,1722270360400,"29/07/2024 16:26:00",1722255960400,-4,"29/07/2024 08:26:00",185160,1,"task-7hcp",NA,39264135,NA,"complete",NA,"computer","Desktop or Laptop","Mac OS 10.15.7","Chrome 126.0.0.0","1440x900","1440x813",NA,NA,0,"BIQ (Charlotte)",5,"EFDGCHBIA","Passed AC2","","Spreadsheet1","Spreadsheet1",1,"BIQ","Screen 2","svpz34",2,"continue","",10415.2,10409.8,10415.2,10415.2,10409.8,10415.2,1,10415.2,0,0,NA,"Click To Continue","Continue Button",7,"object-1017","BIQ",NA,"SUPPRF82983"
6,1722270360405,"29/07/2024 16:26:00",1722255960405,-4,"29/07/2024 08:26:00",185160,1,"task-7hcp",NA,39264135,NA,"complete",NA,"computer","Desktop or Laptop","Mac OS 10.15.7","Chrome 126.0.0.0","1440x900","1440x813",NA,NA,0,"BIQ (Charlotte)",5,"EFDGCHBIA","Passed AC2","","Spreadsheet1","Spreadsheet1",1,"BIQ","Screen 2","svpz34",2,"response","0",3681,10409.8,10419.900000003,3681,10409.8,10419.900000003,1,3681,6738.90000000298,0,NA,"Rating Scale","Rating Scale",8,"object-118","BIQ",NA,"SUPPRF82983"
7,1722270360405,"29/07/2024 16:26:00",1722255960405,-4,"29/07/2024 08:26:00",185160,1,"task-7hcp",NA,39264135,NA,"complete",NA,"computer","Desktop or Laptop","Mac OS 10.15.7","Chrome 126.0.0.0","1440x900","1440x813",NA,NA,0,"BIQ (Charlotte)",5,"EFDGCHBIA","Passed AC2","","Spreadsheet1","Spreadsheet1",1,"BIQ","Screen 2","svpz34",2,"response","4",9609.8,10409.8,10420.5999999985,9609.8,10409.8,10420.5999999985,1,9609.8,810.799999998511,0,NA,"Rating Scale","Rating Scale",10,"object-121","BIQ",NA,"SUPPRF82983"
8,1722270382310,"29/07/2024 16:26:22",1722255982310,-4,"29/07/2024 08:26:22",185160,1,"task-7hcp",NA,39264135,NA,"complete",NA,"computer","Desktop or Laptop","Mac OS 10.15.7","Chrome 126.0.0.0","1440x900","1440x813",NA,NA,0,"BIQ (Charlotte)",5,"EFDGCHBIA","Passed AC2","","Spreadsheet1","Spreadsheet1",1,"BIQ","Screen 3","o21mwi",3,"continue","",21914.600000003,21902,21914.600000003,21914.600000003,21902,21914.600000003,1,21914.600000003,0,0,NA,"Click To Continue","Continue Button",15,"object-50","BIQ",NA,"SUPPRF82983"
9,1722270382314,"29/07/2024 16:26:22",1722255982314,-4,"29/07/2024 08:26:22",185160,1,"task-7hcp",NA,39264135,NA,"complete",NA,"computer","Desktop or Laptop","Mac OS 10.15.7","Chrome 126.0.0.0","1440x900","1440x813",NA,NA,0,"BIQ (Charlotte)",5,"EFDGCHBIA","Passed AC2","","Spreadsheet1","Spreadsheet1",1,"BIQ","Screen 3","o21mwi",3,"response","0",14123.9,21902,21918.5,14123.9,21902,21918.5,1,14123.9,7794.6,0,NA,"Rating Scale","Rating Scale",2,"object-36","BIQ",NA,"SUPPRF82983"
10,1722270382314,"29/07/2024 16:26:22",1722255982314,-4,"29/07/2024 08:26:22",185160,1,"task-7hcp",NA,39264135,NA,"complete",NA,"computer","Desktop or Laptop","Mac OS 10.15.7","Chrome 126.0.0.0","1440x900","1440x813",NA,NA,0,"BIQ (Charlotte)",5,"EFDGCHBIA","Passed AC2","","Spreadsheet1","Spreadsheet1",1,"BIQ","Screen 3","o21mwi",3,"response","0",18038.5,21902,21918.5,18038.5,21902,21918.5,1,18038.5,3880,0,NA,"Rating Scale","Rating Scale",9,"object-86","BIQ",NA,"SUPPRF82983"
11,1722270397136,"29/07/2024 16:26:37",1722255997136,-4,"29/07/2024 08:26:37",185160,1,"task-7hcp",NA,39264135,NA,"complete",NA,"computer","Desktop or Laptop","Mac OS 10.15.7","Chrome 126.0.0.0","1440x900","1440x813",NA,NA,0,"BIQ (Charlotte)",5,"EFDGCHBIA","Passed AC2","","Spreadsheet1","Spreadsheet1",1,"BIQ","Screen 4","iz3the",4,"continue","",14839.2000000045,14823.4,14839.2000000045,14839.2000000045,14823.4,14839.2000000045,1,14839.2000000045,0,0,NA,"Click To Continue","Continue Button",22,"object-73","BIQ",NA,"SUPPRF82983"
12,1722270397140,"29/07/2024 16:26:37",1722255997140,-4,"29/07/2024 08:26:37",185160,1,"task-7hcp",NA,39264135,NA,"complete",NA,"computer","Desktop or Laptop","Mac OS 10.15.7","Chrome 126.0.0.0","1440x900","1440x813",NA,NA,0,"BIQ (Charlotte)",5,"EFDGCHBIA","Passed AC2","","Spreadsheet1","Spreadsheet1",1,"BIQ","Screen 4","iz3the",4,"response","0",3314.1,14823.4,14840.1,3314.1,14823.4,14840.1,1,3314.1,11526,0,NA,"Rating Scale","Rating Scale",2,"object-53","BIQ",NA,"SUPPRF82983"
13,1722270397141,"29/07/2024 16:26:37",1722255997141,-4,"29/07/2024 08:26:37",185160,1,"task-7hcp",NA,39264135,NA,"complete",NA,"computer","Desktop or Laptop","Mac OS 10.15.7","Chrome 126.0.0.0","1440x900","1440x813",NA,NA,0,"BIQ (Charlotte)",5,"EFDGCHBIA","Passed AC2","","Spreadsheet1","Spreadsheet1",1,"BIQ","Screen 4","iz3the",4,"response","0",5312.7,14823.4,14840.1,5312.7,14823.4,14840.1,1,5312.7,9527.39999999999,0,NA,"Rating Scale","Rating Scale",9,"object-60","BIQ",NA,"SUPPRF82983"
14,1722270397141,"29/07/2024 16:26:37",1722255997141,-4,"29/07/2024 08:26:37",185160,1,"task-7hcp",NA,39264135,NA,"complete",NA,"computer","Desktop or Laptop","Mac OS 10.15.7","Chrome 126.0.0.0","1440x900","1440x813",NA,NA,0,"BIQ (Charlotte)",5,"EFDGCHBIA","Passed AC2","","Spreadsheet1","Spreadsheet1",1,"BIQ","Screen 4","iz3the",4,"response","0",6412,14823.4,14840.1,6412,14823.4,14840.1,1,6412,8428.1,0,NA,"Rating Scale","Rating Scale",16,"object-67","BIQ",NA,"SUPPRF82983"
15,1722270397149,"29/07/2024 16:26:37",1722255997149,-4,"29/07/2024 08:26:37",185160,1,"task-7hcp",NA,39264135,NA,"complete",NA,"computer","Desktop or Laptop","Mac OS 10.15.7","Chrome 126.0.0.0","1440x900","1440x813",NA,NA,0,"BIQ (Charlotte)",5,"EFDGCHBIA","Passed AC2","","Spreadsheet1","Spreadsheet1",NA,"","","",NA,"info","END",NA,NA,NA,NA,NA,NA,0,NA,NA,NA,NA,"","",NA,"","",NA,"SUPPRF82983"
1,1722270223772,"29/07/2024 16:23:43",1722273823772,1,"29/07/2024 18:23:43",185160,1,"task-7hcp",NA,39264047,NA,"complete",NA,"computer","Desktop or Laptop","Mac OS 10.15.7","Chrome 126.0.0.0","1440x900","1440x779",NA,NA,0,"BIQ (Charlotte)",5,"DECFBGAHI","Passed AC2","","Spreadsheet1","Spreadsheet1",NA,"","","",NA,"info","BEGIN",NA,NA,NA,NA,NA,NA,0,NA,NA,NA,NA,"","",NA,"","",NA,"SUPPRF42289"
2,1722270241278,"29/07/2024 16:24:01",1722273841278,1,"29/07/2024 18:24:01",185160,1,"task-7hcp",NA,39264047,NA,"complete",NA,"computer","Desktop or Laptop","Mac OS 10.15.7","Chrome 126.0.0.0","1440x900","1440x779",NA,NA,0,"BIQ (Charlotte)",5,"DECFBGAHI","Passed AC2","","Spreadsheet1","Spreadsheet1",1,"BIQ","Screen 1","9dh6eq",1,"continue","",17517.14,17500.54,17517.14,17517.14,17500.54,17517.14,1,17517.14,0,0,NA,"Click To Continue","Continue Button",16,"object-48","BIQ",NA,"SUPPRF42289"
3,1722270241280,"29/07/2024 16:24:01",1722273841280,1,"29/07/2024 18:24:01",185160,1,"task-7hcp",NA,39264047,NA,"complete",NA,"computer","Desktop or Laptop","Mac OS 10.15.7","Chrome 126.0.0.0","1440x900","1440x779",NA,NA,0,"BIQ (Charlotte)",5,"DECFBGAHI","Passed AC2","","Spreadsheet1","Spreadsheet1",1,"BIQ","Screen 1","9dh6eq",1,"response","5",7283.54,17500.54,17517.14,7283.54,17500.54,17517.14,1,7283.54,10233.6,0,NA,"Rating Scale","Rating Scale",3,"object-5","BIQ",NA,"SUPPRF42289"
4,1722270241280,"29/07/2024 16:24:01",1722273841280,1,"29/07/2024 18:24:01",185160,1,"task-7hcp",NA,39264047,NA,"complete",NA,"computer","Desktop or Laptop","Mac OS 10.15.7","Chrome 126.0.0.0","1440x900","1440x779",NA,NA,0,"BIQ (Charlotte)",5,"DECFBGAHI","Passed AC2","","Spreadsheet1","Spreadsheet1",1,"BIQ","Screen 1","9dh6eq",1,"response","4",9783.64,17500.54,17517.14,9783.64,17500.54,17517.14,1,9783.64,7733.5,0,NA,"Rating Scale","Rating Scale",10,"object-18","BIQ",NA,"SUPPRF42289"
5,1722270246388,"29/07/2024 16:24:06",1722273846388,1,"29/07/2024 18:24:06",185160,1,"task-7hcp",NA,39264047,NA,"complete",NA,"computer","Desktop or Laptop","Mac OS 10.15.7","Chrome 126.0.0.0","1440x900","1440x779",NA,NA,0,"BIQ (Charlotte)",5,"DECFBGAHI","Passed AC2","","Spreadsheet1","Spreadsheet1",1,"BIQ","Screen 2","svpz34",2,"continue","",5131.80000000001,5116.8,5131.80000000001,5131.80000000001,5116.8,5131.80000000001,1,5131.80000000001,0,0,NA,"Click To Continue","Continue Button",7,"object-1017","BIQ",NA,"SUPPRF42289"
6,1722270246389,"29/07/2024 16:24:06",1722273846389,1,"29/07/2024 18:24:06",185160,1,"task-7hcp",NA,39264047,NA,"complete",NA,"computer","Desktop or Laptop","Mac OS 10.15.7","Chrome 126.0.0.0","1440x900","1440x779",NA,NA,0,"BIQ (Charlotte)",5,"DECFBGAHI","Passed AC2","","Spreadsheet1","Spreadsheet1",1,"BIQ","Screen 2","svpz34",2,"response","4",3250.1,5116.8,5132.6,3250.1,5116.8,5132.6,1,3250.1,1882.5,0,NA,"Rating Scale","Rating Scale",8,"object-118","BIQ",NA,"SUPPRF42289"
7,1722270246389,"29/07/2024 16:24:06",1722273846389,1,"29/07/2024 18:24:06",185160,1,"task-7hcp",NA,39264047,NA,"complete",NA,"computer","Desktop or Laptop","Mac OS 10.15.7","Chrome 126.0.0.0","1440x900","1440x779",NA,NA,0,"BIQ (Charlotte)",5,"DECFBGAHI","Passed AC2","","Spreadsheet1","Spreadsheet1",1,"BIQ","Screen 2","svpz34",2,"response","4",4266.8,5116.8,5133.1,4266.8,5116.8,5133.1,1,4266.8,866.299999999999,0,NA,"Rating Scale","Rating Scale",10,"object-121","BIQ",NA,"SUPPRF42289"
8,1722270256521,"29/07/2024 16:24:16",1722273856521,1,"29/07/2024 18:24:16",185160,1,"task-7hcp",NA,39264047,NA,"complete",NA,"computer","Desktop or Laptop","Mac OS 10.15.7","Chrome 126.0.0.0","1440x900","1440x779",NA,NA,0,"BIQ (Charlotte)",5,"DECFBGAHI","Passed AC2","","Spreadsheet1","Spreadsheet1",1,"BIQ","Screen 3","o21mwi",3,"continue","",10148.5,10133.7,10148.5,10148.5,10133.7,10148.5,1,10148.5,0,0,NA,"Click To Continue","Continue Button",15,"object-50","BIQ",NA,"SUPPRF42289"
9,1722270256525,"29/07/2024 16:24:16",1722273856525,1,"29/07/2024 18:24:16",185160,1,"task-7hcp",NA,39264047,NA,"complete",NA,"computer","Desktop or Laptop","Mac OS 10.15.7","Chrome 126.0.0.0","1440x900","1440x779",NA,NA,0,"BIQ (Charlotte)",5,"DECFBGAHI","Passed AC2","","Spreadsheet1","Spreadsheet1",1,"BIQ","Screen 3","o21mwi",3,"response","3",2533.4,10133.7,10150.3,2533.4,10133.7,10150.3,1,2533.4,7616.9,0,NA,"Rating Scale","Rating Scale",2,"object-36","BIQ",NA,"SUPPRF42289"
10,1722270256525,"29/07/2024 16:24:16",1722273856525,1,"29/07/2024 18:24:16",185160,1,"task-7hcp",NA,39264047,NA,"complete",NA,"computer","Desktop or Laptop","Mac OS 10.15.7","Chrome 126.0.0.0","1440x900","1440x779",NA,NA,0,"BIQ (Charlotte)",5,"DECFBGAHI","Passed AC2","","Spreadsheet1","Spreadsheet1",1,"BIQ","Screen 3","o21mwi",3,"response","4",3333.5,10133.7,10150.3,3333.5,10133.7,10150.3,1,3333.5,6816.8,0,NA,"Rating Scale","Rating Scale",9,"object-86","BIQ",NA,"SUPPRF42289"
11,1722270267505,"29/07/2024 16:24:27",1722273867505,1,"29/07/2024 18:24:27",185160,1,"task-7hcp",NA,39264047,NA,"complete",NA,"computer","Desktop or Laptop","Mac OS 10.15.7","Chrome 126.0.0.0","1440x900","1440x779",NA,NA,0,"BIQ (Charlotte)",5,"DECFBGAHI","Passed AC2","","Spreadsheet1","Spreadsheet1",1,"BIQ","Screen 4","iz3the",4,"continue","",10998.5,10983.8,10998.5,10998.5,10983.8,10998.5,1,10998.5,0,0,NA,"Click To Continue","Continue Button",22,"object-73","BIQ",NA,"SUPPRF42289"
12,1722270267507,"29/07/2024 16:24:27",1722273867507,1,"29/07/2024 18:24:27",185160,1,"task-7hcp",NA,39264047,NA,"complete",NA,"computer","Desktop or Laptop","Mac OS 10.15.7","Chrome 126.0.0.0","1440x900","1440x779",NA,NA,0,"BIQ (Charlotte)",5,"DECFBGAHI","Passed AC2","","Spreadsheet1","Spreadsheet1",1,"BIQ","Screen 4","iz3the",4,"response","4",7450.3,10983.8,11000.5,7450.3,10983.8,11000.5,1,7450.3,3550.2,0,NA,"Rating Scale","Rating Scale",2,"object-53","BIQ",NA,"SUPPRF42289"
13,1722270267508,"29/07/2024 16:24:27",1722273867508,1,"29/07/2024 18:24:27",185160,1,"task-7hcp",NA,39264047,NA,"complete",NA,"computer","Desktop or Laptop","Mac OS 10.15.7","Chrome 126.0.0.0","1440x900","1440x779",NA,NA,0,"BIQ (Charlotte)",5,"DECFBGAHI","Passed AC2","","Spreadsheet1","Spreadsheet1",1,"BIQ","Screen 4","iz3the",4,"response","3",9116.1,10983.8,11000.5,9116.1,10983.8,11000.5,1,9116.1,1884.39999999999,0,NA,"Rating Scale","Rating Scale",9,"object-60","BIQ",NA,"SUPPRF42289"
14,1722270267508,"29/07/2024 16:24:27",1722273867508,1,"29/07/2024 18:24:27",185160,1,"task-7hcp",NA,39264047,NA,"complete",NA,"computer","Desktop or Laptop","Mac OS 10.15.7","Chrome 126.0.0.0","1440x900","1440x779",NA,NA,0,"BIQ (Charlotte)",5,"DECFBGAHI","Passed AC2","","Spreadsheet1","Spreadsheet1",1,"BIQ","Screen 4","iz3the",4,"response","4",9967.1,10983.8,11000.5,9967.1,10983.8,11000.5,1,9967.1,1033.39999999999,0,NA,"Rating Scale","Rating Scale",16,"object-67","BIQ",NA,"SUPPRF42289"
15,1722270267514,"29/07/2024 16:24:27",1722273867514,1,"29/07/2024 18:24:27",185160,1,"task-7hcp",NA,39264047,NA,"complete",NA,"computer","Desktop or Laptop","Mac OS 10.15.7","Chrome 126.0.0.0","1440x900","1440x779",NA,NA,0,"BIQ (Charlotte)",5,"DECFBGAHI","Passed AC2","","Spreadsheet1","Spreadsheet1",NA,"","","",NA,"info","END",NA,NA,NA,NA,NA,NA,0,NA,NA,NA,NA,"","",NA,"","",NA,"SUPPRF42289"
1,1722270560345,"29/07/2024 16:29:20",1722274160345,1,"29/07/2024 18:29:20",185160,1,"task-7hcp",NA,39264305,NA,"complete",NA,"computer","Desktop or Laptop","Windows 10","Chrome 109.0.0.0","1366x768","1366x625",NA,NA,0,"BIQ (Charlotte)",5,"HIGAFBECD","Passed AC2","","Spreadsheet1","Spreadsheet1",NA,"","","",NA,"info","BEGIN",NA,NA,NA,NA,NA,NA,0,NA,NA,NA,NA,"","",NA,"","",NA,"SUPPRF90629"
2,1722270593285,"29/07/2024 16:29:53",1722274193285,1,"29/07/2024 18:29:53",185160,1,"task-7hcp",NA,39264305,NA,"complete",NA,"computer","Desktop or Laptop","Windows 10","Chrome 109.0.0.0","1366x768","1366x625",NA,NA,0,"BIQ (Charlotte)",5,"HIGAFBECD","Passed AC2","","Spreadsheet1","Spreadsheet1",1,"BIQ","Screen 1","9dh6eq",1,"continue","",32994.365,32977.711,32994.365,32994.365,32977.711,32994.365,1,32994.365,0,0,NA,"Click To Continue","Continue Button",16,"object-48","BIQ",NA,"SUPPRF90629"
3,1722270593293,"29/07/2024 16:29:53",1722274193293,1,"29/07/2024 18:29:53",185160,1,"task-7hcp",NA,39264305,NA,"complete",NA,"computer","Desktop or Laptop","Windows 10","Chrome 109.0.0.0","1366x768","1366x625",NA,NA,0,"BIQ (Charlotte)",5,"HIGAFBECD","Passed AC2","","Spreadsheet1","Spreadsheet1",1,"BIQ","Screen 1","9dh6eq",1,"response","5",22116.677,32977.711,32994.365,22116.677,32977.711,32994.365,1,22116.677,10877.688,0,NA,"Rating Scale","Rating Scale",3,"object-5","BIQ",NA,"SUPPRF90629"
4,1722270593296,"29/07/2024 16:29:53",1722274193296,1,"29/07/2024 18:29:53",185160,1,"task-7hcp",NA,39264305,NA,"complete",NA,"computer","Desktop or Laptop","Windows 10","Chrome 109.0.0.0","1366x768","1366x625",NA,NA,0,"BIQ (Charlotte)",5,"HIGAFBECD","Passed AC2","","Spreadsheet1","Spreadsheet1",1,"BIQ","Screen 1","9dh6eq",1,"response","6",30945.798,32977.711,32994.365,30945.798,32977.711,32994.365,1,30945.798,2048.567,0,NA,"Rating Scale","Rating Scale",10,"object-18","BIQ",NA,"SUPPRF90629"
5,1722270604564,"29/07/2024 16:30:04",1722274204564,1,"29/07/2024 18:30:04",185160,1,"task-7hcp",NA,39264305,NA,"complete",NA,"computer","Desktop or Laptop","Windows 10","Chrome 109.0.0.0","1366x768","1366x625",NA,NA,0,"BIQ (Charlotte)",5,"HIGAFBECD","Passed AC2","","Spreadsheet1","Spreadsheet1",1,"BIQ","Screen 2","svpz34",2,"continue","",11305.3249999985,11293.008,11305.3249999985,11305.3249999985,11293.008,11305.3249999985,1,11305.3249999985,0,0,NA,"Click To Continue","Continue Button",7,"object-1017","BIQ",NA,"SUPPRF90629"
6,1722270604572,"29/07/2024 16:30:04",1722274204572,1,"29/07/2024 18:30:04",185160,1,"task-7hcp",NA,39264305,NA,"complete",NA,"computer","Desktop or Laptop","Windows 10","Chrome 109.0.0.0","1366x768","1366x625",NA,NA,0,"BIQ (Charlotte)",5,"HIGAFBECD","Passed AC2","","Spreadsheet1","Spreadsheet1",1,"BIQ","Screen 2","svpz34",2,"response","2",4946.64,11293.008,11309.676,4946.64,11293.008,11309.676,1,4946.64,6363.036,0,NA,"Rating Scale","Rating Scale",8,"object-118","BIQ",NA,"SUPPRF90629"
7,1722270604574,"29/07/2024 16:30:04",1722274204574,1,"29/07/2024 18:30:04",185160,1,"task-7hcp",NA,39264305,NA,"complete",NA,"computer","Desktop or Laptop","Windows 10","Chrome 109.0.0.0","1366x768","1366x625",NA,NA,0,"BIQ (Charlotte)",5,"HIGAFBECD","Passed AC2","","Spreadsheet1","Spreadsheet1",1,"BIQ","Screen 2","svpz34",2,"response","6",10227.852,11293.008,11309.676,10227.852,11293.008,11309.676,1,10227.852,1081.82399999999,0,NA,"Rating Scale","Rating Scale",10,"object-121","BIQ",NA,"SUPPRF90629"
8,1722270621500,"29/07/2024 16:30:21",1722274221500,1,"29/07/2024 18:30:21",185160,1,"task-7hcp",NA,39264305,NA,"complete",NA,"computer","Desktop or Laptop","Windows 10","Chrome 109.0.0.0","1366x768","1366x625",NA,NA,0,"BIQ (Charlotte)",5,"HIGAFBECD","Passed AC2","","Spreadsheet1","Spreadsheet1",1,"BIQ","Screen 3","o21mwi",3,"continue","",16947.917,16938.125,16947.917,16947.917,16938.125,16947.917,1,16947.917,0,0,NA,"Click To Continue","Continue Button",15,"object-50","BIQ",NA,"SUPPRF90629"
9,1722270621506,"29/07/2024 16:30:21",1722274221506,1,"29/07/2024 18:30:21",185160,1,"task-7hcp",NA,39264305,NA,"complete",NA,"computer","Desktop or Laptop","Windows 10","Chrome 109.0.0.0","1366x768","1366x625",NA,NA,0,"BIQ (Charlotte)",5,"HIGAFBECD","Passed AC2","","Spreadsheet1","Spreadsheet1",1,"BIQ","Screen 3","o21mwi",3,"response","2",6229.068,16938.125,16954.5170000015,6229.068,16938.125,16954.5170000015,1,6229.068,10725.4490000015,0,NA,"Rating Scale","Rating Scale",2,"object-36","BIQ",NA,"SUPPRF90629"
10,1722270621511,"29/07/2024 16:30:21",1722274221511,1,"29/07/2024 18:30:21",185160,1,"task-7hcp",NA,39264305,NA,"complete",NA,"computer","Desktop or Laptop","Windows 10","Chrome 109.0.0.0","1366x768","1366x625",NA,NA,0,"BIQ (Charlotte)",5,"HIGAFBECD","Passed AC2","","Spreadsheet1","Spreadsheet1",1,"BIQ","Screen 3","o21mwi",3,"response","2",16188.643,16938.125,16954.781,16188.643,16938.125,16954.781,1,16188.643,766.137999999992,0,NA,"Rating Scale","Rating Scale",9,"object-86","BIQ",NA,"SUPPRF90629"
11,1722270642988,"29/07/2024 16:30:42",1722274242988,1,"29/07/2024 18:30:42",185160,1,"task-7hcp",NA,39264305,NA,"complete",NA,"computer","Desktop or Laptop","Windows 10","Chrome 109.0.0.0","1366x768","1366x625",NA,NA,0,"BIQ (Charlotte)",5,"HIGAFBECD","Passed AC2","","Spreadsheet1","Spreadsheet1",1,"BIQ","Screen 4","iz3the",4,"continue","",21498.6919999985,21485.905,21498.6919999985,21498.6919999985,21485.905,21498.6919999985,1,21498.6919999985,0,0,NA,"Click To Continue","Continue Button",22,"object-73","BIQ",NA,"SUPPRF90629"
12,1722270642996,"29/07/2024 16:30:42",1722274242996,1,"29/07/2024 18:30:42",185160,1,"task-7hcp",NA,39264305,NA,"complete",NA,"computer","Desktop or Laptop","Windows 10","Chrome 109.0.0.0","1366x768","1366x625",NA,NA,0,"BIQ (Charlotte)",5,"HIGAFBECD","Passed AC2","","Spreadsheet1","Spreadsheet1",1,"BIQ","Screen 4","iz3the",4,"response","2",5412.818,21485.905,21502.573,5412.818,21485.905,21502.573,1,5412.818,16089.755,0,NA,"Rating Scale","Rating Scale",2,"object-53","BIQ",NA,"SUPPRF90629"
13,1722270642998,"29/07/2024 16:30:42",1722274242998,1,"29/07/2024 18:30:42",185160,1,"task-7hcp",NA,39264305,NA,"complete",NA,"computer","Desktop or Laptop","Windows 10","Chrome 109.0.0.0","1366x768","1366x625",NA,NA,0,"BIQ (Charlotte)",5,"HIGAFBECD","Passed AC2","","Spreadsheet1","Spreadsheet1",1,"BIQ","Screen 4","iz3the",4,"response","1",17438.029,21485.905,21502.573,17438.029,21485.905,21502.573,1,17438.029,4064.54399999999,0,NA,"Rating Scale","Rating Scale",9,"object-60","BIQ",NA,"SUPPRF90629"
14,1722270643000,"29/07/2024 16:30:43",1722274243000,1,"29/07/2024 18:30:43",185160,1,"task-7hcp",NA,39264305,NA,"complete",NA,"computer","Desktop or Laptop","Windows 10","Chrome 109.0.0.0","1366x768","1366x625",NA,NA,0,"BIQ (Charlotte)",5,"HIGAFBECD","Passed AC2","","Spreadsheet1","Spreadsheet1",1,"BIQ","Screen 4","iz3the",4,"response","4",20619.995,21485.905,21502.573,20619.995,21485.905,21502.573,1,20619.995,882.577999999994,0,NA,"Rating Scale","Rating Scale",16,"object-67","BIQ",NA,"SUPPRF90629"
15,1722270643024,"29/07/2024 16:30:43",1722274243024,1,"29/07/2024 18:30:43",185160,1,"task-7hcp",NA,39264305,NA,"complete",NA,"computer","Desktop or Laptop","Windows 10","Chrome 109.0.0.0","1366x768","1366x625",NA,NA,0,"BIQ (Charlotte)",5,"HIGAFBECD","Passed AC2","","Spreadsheet1","Spreadsheet1",NA,"","","",NA,"info","END",NA,NA,NA,NA,NA,NA,0,NA,NA,NA,NA,"","",NA,"","",NA,"SUPPRF90629"
1,1722270583020,"29/07/2024 16:29:43",1722274183020,1,"29/07/2024 18:29:43",185160,1,"task-7hcp",NA,39264327,NA,"complete",NA,"computer","Desktop or Laptop","Windows 10","Chrome 126.0.0.0","1504x1003","1504x868",NA,NA,0,"BIQ (Charlotte)",5,"FGEHDICAB","Passed AC2","","Spreadsheet1","Spreadsheet1",NA,"","","",NA,"info","BEGIN",NA,NA,NA,NA,NA,NA,0,NA,NA,NA,NA,"","",NA,"","",NA,"SUPPRF97636"
2,1722270620612,"29/07/2024 16:30:20",1722274220612,1,"29/07/2024 18:30:20",185160,1,"task-7hcp",NA,39264327,NA,"complete",NA,"computer","Desktop or Laptop","Windows 10","Chrome 126.0.0.0","1504x1003","1504x868",NA,NA,0,"BIQ (Charlotte)",5,"FGEHDICAB","Passed AC2","","Spreadsheet1","Spreadsheet1",1,"BIQ","Screen 1","9dh6eq",1,"continue","",39145.1999999881,39134.3,39145.1999999881,39145.1999999881,39134.3,39145.1999999881,1,39145.1999999881,0,0,NA,"Click To Continue","Continue Button",16,"object-48","BIQ",NA,"SUPPRF97636"
3,1722270620616,"29/07/2024 16:30:20",1722274220616,1,"29/07/2024 18:30:20",185160,1,"task-7hcp",NA,39264327,NA,"complete",NA,"computer","Desktop or Laptop","Windows 10","Chrome 126.0.0.0","1504x1003","1504x868",NA,NA,0,"BIQ (Charlotte)",5,"FGEHDICAB","Passed AC2","","Spreadsheet1","Spreadsheet1",1,"BIQ","Screen 1","9dh6eq",1,"response","7",25099.9,39134.3,39150,25099.9,39134.3,39150,1,25099.9,14050.1,0,NA,"Rating Scale","Rating Scale",3,"object-5","BIQ",NA,"SUPPRF97636"
4,1722270620617,"29/07/2024 16:30:20",1722274220617,1,"29/07/2024 18:30:20",185160,1,"task-7hcp",NA,39264327,NA,"complete",NA,"computer","Desktop or Laptop","Windows 10","Chrome 126.0.0.0","1504x1003","1504x868",NA,NA,0,"BIQ (Charlotte)",5,"FGEHDICAB","Passed AC2","","Spreadsheet1","Spreadsheet1",1,"BIQ","Screen 1","9dh6eq",1,"response","6",37317.2,39134.3,39150.6000000238,37317.2,39134.3,39150.6000000238,1,37317.2,1833.40000002384,0,NA,"Rating Scale","Rating Scale",10,"object-18","BIQ",NA,"SUPPRF97636"
5,1722270630070,"29/07/2024 16:30:30",1722274230070,1,"29/07/2024 18:30:30",185160,1,"task-7hcp",NA,39264327,NA,"complete",NA,"computer","Desktop or Laptop","Windows 10","Chrome 126.0.0.0","1504x1003","1504x868",NA,NA,0,"BIQ (Charlotte)",5,"FGEHDICAB","Passed AC2","","Spreadsheet1","Spreadsheet1",1,"BIQ","Screen 2","svpz34",2,"continue","",9470.2,9467,9470.2,9470.2,9467,9470.2,1,9470.2,0,0,NA,"Click To Continue","Continue Button",7,"object-1017","BIQ",NA,"SUPPRF97636"
6,1722270630071,"29/07/2024 16:30:30",1722274230071,1,"29/07/2024 18:30:30",185160,1,"task-7hcp",NA,39264327,NA,"complete",NA,"computer","Desktop or Laptop","Windows 10","Chrome 126.0.0.0","1504x1003","1504x868",NA,NA,0,"BIQ (Charlotte)",5,"FGEHDICAB","Passed AC2","","Spreadsheet1","Spreadsheet1",1,"BIQ","Screen 2","svpz34",2,"response","1",4133.5,9467,9470.89999998808,4133.5,9467,9470.89999998808,1,4133.5,5337.39999998808,0,NA,"Rating Scale","Rating Scale",8,"object-118","BIQ",NA,"SUPPRF97636"
7,1722270630071,"29/07/2024 16:30:30",1722274230071,1,"29/07/2024 18:30:30",185160,1,"task-7hcp",NA,39264327,NA,"complete",NA,"computer","Desktop or Laptop","Windows 10","Chrome 126.0.0.0","1504x1003","1504x868",NA,NA,0,"BIQ (Charlotte)",5,"FGEHDICAB","Passed AC2","","Spreadsheet1","Spreadsheet1",1,"BIQ","Screen 2","svpz34",2,"response","8",7233.39999999999,9467,9471.2,7233.39999999999,9467,9471.2,1,7233.39999999999,2237.8,0,NA,"Rating Scale","Rating Scale",10,"object-121","BIQ",NA,"SUPPRF97636"
8,1722270644862,"29/07/2024 16:30:44",1722274244862,1,"29/07/2024 18:30:44",185160,1,"task-7hcp",NA,39264327,NA,"complete",NA,"computer","Desktop or Laptop","Windows 10","Chrome 126.0.0.0","1504x1003","1504x868",NA,NA,0,"BIQ (Charlotte)",5,"FGEHDICAB","Passed AC2","","Spreadsheet1","Spreadsheet1",1,"BIQ","Screen 3","o21mwi",3,"continue","",14794.8000000238,14784.3,14794.8000000238,14794.8000000238,14784.3,14794.8000000238,1,14794.8000000238,0,0,NA,"Click To Continue","Continue Button",15,"object-50","BIQ",NA,"SUPPRF97636"
9,1722270644866,"29/07/2024 16:30:44",1722274244866,1,"29/07/2024 18:30:44",185160,1,"task-7hcp",NA,39264327,NA,"complete",NA,"computer","Desktop or Laptop","Windows 10","Chrome 126.0.0.0","1504x1003","1504x868",NA,NA,0,"BIQ (Charlotte)",5,"FGEHDICAB","Passed AC2","","Spreadsheet1","Spreadsheet1",1,"BIQ","Screen 3","o21mwi",3,"response","1",6000.2,14784.3,14799.3000000238,6000.2,14784.3,14799.3000000238,1,6000.2,8799.10000002384,0,NA,"Rating Scale","Rating Scale",2,"object-36","BIQ",NA,"SUPPRF97636"
10,1722270644867,"29/07/2024 16:30:44",1722274244867,1,"29/07/2024 18:30:44",185160,1,"task-7hcp",NA,39264327,NA,"complete",NA,"computer","Desktop or Laptop","Windows 10","Chrome 126.0.0.0","1504x1003","1504x868",NA,NA,0,"BIQ (Charlotte)",5,"FGEHDICAB","Passed AC2","","Spreadsheet1","Spreadsheet1",1,"BIQ","Screen 3","o21mwi",3,"response","0",12800.6,14784.3,14800.0999999762,12800.6,14784.3,14800.0999999762,1,12800.6,1999.49999997616,0,NA,"Rating Scale","Rating Scale",9,"object-86","BIQ",NA,"SUPPRF97636"
11,1722270652910,"29/07/2024 16:30:52",1722274252910,1,"29/07/2024 18:30:52",185160,1,"task-7hcp",NA,39264327,NA,"complete",NA,"computer","Desktop or Laptop","Windows 10","Chrome 126.0.0.0","1504x1003","1504x868",NA,NA,0,"BIQ (Charlotte)",5,"FGEHDICAB","Passed AC2","","Spreadsheet1","Spreadsheet1",1,"BIQ","Screen 4","iz3the",4,"continue","",8058.9,8050.4,8058.9,8058.9,8050.4,8058.9,1,8058.9,0,0,NA,"Click To Continue","Continue Button",22,"object-73","BIQ",NA,"SUPPRF97636"
12,1722270652911,"29/07/2024 16:30:52",1722274252911,1,"29/07/2024 18:30:52",185160,1,"task-7hcp",NA,39264327,NA,"complete",NA,"computer","Desktop or Laptop","Windows 10","Chrome 126.0.0.0","1504x1003","1504x868",NA,NA,0,"BIQ (Charlotte)",5,"FGEHDICAB","Passed AC2","","Spreadsheet1","Spreadsheet1",1,"BIQ","Screen 4","iz3the",4,"response","0",3150.00000000001,8050.4,8059.70000001192,3150.00000000001,8050.4,8059.70000001192,1,3150.00000000001,4909.70000001192,0,NA,"Rating Scale","Rating Scale",2,"object-53","BIQ",NA,"SUPPRF97636"
13,1722270652911,"29/07/2024 16:30:52",1722274252911,1,"29/07/2024 18:30:52",185160,1,"task-7hcp",NA,39264327,NA,"complete",NA,"computer","Desktop or Laptop","Windows 10","Chrome 126.0.0.0","1504x1003","1504x868",NA,NA,0,"BIQ (Charlotte)",5,"FGEHDICAB","Passed AC2","","Spreadsheet1","Spreadsheet1",1,"BIQ","Screen 4","iz3the",4,"response","0",4850.00000000001,8050.4,8060.20000001192,4850.00000000001,8050.4,8060.20000001192,1,4850.00000000001,3210.20000001192,0,NA,"Rating Scale","Rating Scale",9,"object-60","BIQ",NA,"SUPPRF97636"
14,1722270652912,"29/07/2024 16:30:52",1722274252912,1,"29/07/2024 18:30:52",185160,1,"task-7hcp",NA,39264327,NA,"complete",NA,"computer","Desktop or Laptop","Windows 10","Chrome 126.0.0.0","1504x1003","1504x868",NA,NA,0,"BIQ (Charlotte)",5,"FGEHDICAB","Passed AC2","","Spreadsheet1","Spreadsheet1",1,"BIQ","Screen 4","iz3the",4,"response","0",6883.4,8050.4,8060.79999997616,6883.4,8050.4,8060.79999997616,1,6883.4,1177.39999997616,0,NA,"Rating Scale","Rating Scale",16,"object-67","BIQ",NA,"SUPPRF97636"
15,1722270652920,"29/07/2024 16:30:52",1722274252920,1,"29/07/2024 18:30:52",185160,1,"task-7hcp",NA,39264327,NA,"complete",NA,"computer","Desktop or Laptop","Windows 10","Chrome 126.0.0.0","1504x1003","1504x868",NA,NA,0,"BIQ (Charlotte)",5,"FGEHDICAB","Passed AC2","","Spreadsheet1","Spreadsheet1",NA,"","","",NA,"info","END",NA,NA,NA,NA,NA,NA,0,NA,NA,NA,NA,"","",NA,"","",NA,"SUPPRF97636"
1,1722270622857,"29/07/2024 16:30:22",1722274222857,1,"29/07/2024 18:30:22",185160,1,"task-7hcp",NA,39264369,NA,"complete",NA,"computer","Desktop or Laptop","Windows 10","Chrome 127.0.0.0","1536x864","1536x730",NA,NA,0,"BIQ (Charlotte)",5,"ABICHDGEF","Passed AC2","","Spreadsheet1","Spreadsheet1",NA,"","","",NA,"info","BEGIN",NA,NA,NA,NA,NA,NA,0,NA,NA,NA,NA,"","",NA,"","",NA,"SUPPRF84910"
2,1722270659749,"29/07/2024 16:30:59",1722274259749,1,"29/07/2024 18:30:59",185160,1,"task-7hcp",NA,39264369,NA,"complete",NA,"computer","Desktop or Laptop","Windows 10","Chrome 127.0.0.0","1536x864","1536x730",NA,NA,0,"BIQ (Charlotte)",5,"ABICHDGEF","Passed AC2","","Spreadsheet1","Spreadsheet1",1,"BIQ","Screen 1","9dh6eq",1,"continue","",36898.3,36881.6,36898.3,36898.3,36881.6,36898.3,1,36898.3,0,0,NA,"Click To Continue","Continue Button",16,"object-48","BIQ",NA,"SUPPRF84910"
3,1722270659752,"29/07/2024 16:30:59",1722274259752,1,"29/07/2024 18:30:59",185160,1,"task-7hcp",NA,39264369,NA,"complete",NA,"computer","Desktop or Laptop","Windows 10","Chrome 127.0.0.0","1536x864","1536x730",NA,NA,0,"BIQ (Charlotte)",5,"ABICHDGEF","Passed AC2","","Spreadsheet1","Spreadsheet1",1,"BIQ","Screen 1","9dh6eq",1,"response","6",20348.9,36881.6,36898.3,20348.9,36881.6,36898.3,1,20348.9,16549.4,0,NA,"Rating Scale","Rating Scale",3,"object-5","BIQ",NA,"SUPPRF84910"
4,1722270659753,"29/07/2024 16:30:59",1722274259753,1,"29/07/2024 18:30:59",185160,1,"task-7hcp",NA,39264369,NA,"complete",NA,"computer","Desktop or Laptop","Windows 10","Chrome 127.0.0.0","1536x864","1536x730",NA,NA,0,"BIQ (Charlotte)",5,"ABICHDGEF","Passed AC2","","Spreadsheet1","Spreadsheet1",1,"BIQ","Screen 1","9dh6eq",1,"response","4",33998.6,36881.6,36898.3,33998.6,36881.6,36898.3,1,33998.6,2899.7,0,NA,"Rating Scale","Rating Scale",10,"object-18","BIQ",NA,"SUPPRF84910"
5,1722270678319,"29/07/2024 16:31:18",1722274278319,1,"29/07/2024 18:31:18",185160,1,"task-7hcp",NA,39264369,NA,"complete",NA,"computer","Desktop or Laptop","Windows 10","Chrome 127.0.0.0","1536x864","1536x730",NA,NA,0,"BIQ (Charlotte)",5,"ABICHDGEF","Passed AC2","","Spreadsheet1","Spreadsheet1",1,"BIQ","Screen 2","svpz34",2,"continue","",18594.0000000238,18582.5,18594.0000000238,18594.0000000238,18582.5,18594.0000000238,1,18594.0000000238,0,0,NA,"Click To Continue","Continue Button",7,"object-1017","BIQ",NA,"SUPPRF84910"
6,1722270678322,"29/07/2024 16:31:18",1722274278322,1,"29/07/2024 18:31:18",185160,1,"task-7hcp",NA,39264369,NA,"complete",NA,"computer","Desktop or Laptop","Windows 10","Chrome 127.0.0.0","1536x864","1536x730",NA,NA,0,"BIQ (Charlotte)",5,"ABICHDGEF","Passed AC2","","Spreadsheet1","Spreadsheet1",1,"BIQ","Screen 2","svpz34",2,"response","2",8982.6,18582.5,18597.5000000238,8982.6,18582.5,18597.5000000238,1,8982.6,9614.90000002384,0,NA,"Rating Scale","Rating Scale",8,"object-118","BIQ",NA,"SUPPRF84910"
7,1722270678322,"29/07/2024 16:31:18",1722274278322,1,"29/07/2024 18:31:18",185160,1,"task-7hcp",NA,39264369,NA,"complete",NA,"computer","Desktop or Laptop","Windows 10","Chrome 127.0.0.0","1536x864","1536x730",NA,NA,0,"BIQ (Charlotte)",5,"ABICHDGEF","Passed AC2","","Spreadsheet1","Spreadsheet1",1,"BIQ","Screen 2","svpz34",2,"response","8",15148.9,18582.5,18598.0000000238,15148.9,18582.5,18598.0000000238,1,15148.9,3449.10000002384,0,NA,"Rating Scale","Rating Scale",10,"object-121","BIQ",NA,"SUPPRF84910"
8,1722270699987,"29/07/2024 16:31:39",1722274299987,1,"29/07/2024 18:31:39",185160,1,"task-7hcp",NA,39264369,NA,"complete",NA,"computer","Desktop or Laptop","Windows 10","Chrome 127.0.0.0","1536x864","1536x730",NA,NA,0,"BIQ (Charlotte)",5,"ABICHDGEF","Passed AC2","","Spreadsheet1","Spreadsheet1",1,"BIQ","Screen 3","o21mwi",3,"continue","",21679.4,21665.1,21679.4,21679.4,21665.1,21679.4,1,21679.4,0,0,NA,"Click To Continue","Continue Button",15,"object-50","BIQ",NA,"SUPPRF84910"
9,1722270699989,"29/07/2024 16:31:39",1722274299989,1,"29/07/2024 18:31:39",185160,1,"task-7hcp",NA,39264369,NA,"complete",NA,"computer","Desktop or Laptop","Windows 10","Chrome 127.0.0.0","1536x864","1536x730",NA,NA,0,"BIQ (Charlotte)",5,"ABICHDGEF","Passed AC2","","Spreadsheet1","Spreadsheet1",1,"BIQ","Screen 3","o21mwi",3,"response","1",7733,21665.1,21681.7,7733,21665.1,21681.7,1,7733,13948.7,0,NA,"Rating Scale","Rating Scale",2,"object-36","BIQ",NA,"SUPPRF84910"
10,1722270699990,"29/07/2024 16:31:39",1722274299990,1,"29/07/2024 18:31:39",185160,1,"task-7hcp",NA,39264369,NA,"complete",NA,"computer","Desktop or Laptop","Windows 10","Chrome 127.0.0.0","1536x864","1536x730",NA,NA,0,"BIQ (Charlotte)",5,"ABICHDGEF","Passed AC2","","Spreadsheet1","Spreadsheet1",1,"BIQ","Screen 3","o21mwi",3,"response","4",16665.4,21665.1,21681.7,16665.4,21665.1,21681.7,1,16665.4,5016.29999999999,0,NA,"Rating Scale","Rating Scale",9,"object-86","BIQ",NA,"SUPPRF84910"
11,1722270719006,"29/07/2024 16:31:59",1722274319006,1,"29/07/2024 18:31:59",185160,1,"task-7hcp",NA,39264369,NA,"complete",NA,"computer","Desktop or Laptop","Windows 10","Chrome 127.0.0.0","1536x864","1536x730",NA,NA,0,"BIQ (Charlotte)",5,"ABICHDGEF","Passed AC2","","Spreadsheet1","Spreadsheet1",1,"BIQ","Screen 4","iz3the",4,"continue","",19033.6999999762,19032.4,19033.6999999762,19033.6999999762,19032.4,19033.6999999762,1,19033.6999999762,0,0,NA,"Click To Continue","Continue Button",22,"object-73","BIQ",NA,"SUPPRF84910"
12,1722270719009,"29/07/2024 16:31:59",1722274319009,1,"29/07/2024 18:31:59",185160,1,"task-7hcp",NA,39264369,NA,"complete",NA,"computer","Desktop or Laptop","Windows 10","Chrome 127.0.0.0","1536x864","1536x730",NA,NA,0,"BIQ (Charlotte)",5,"ABICHDGEF","Passed AC2","","Spreadsheet1","Spreadsheet1",1,"BIQ","Screen 4","iz3the",4,"response","0",5866.40000000001,19032.4,19036.6999999762,5866.40000000001,19032.4,19036.6999999762,1,5866.40000000001,13170.2999999762,0,NA,"Rating Scale","Rating Scale",2,"object-53","BIQ",NA,"SUPPRF84910"
13,1722270719009,"29/07/2024 16:31:59",1722274319009,1,"29/07/2024 18:31:59",185160,1,"task-7hcp",NA,39264369,NA,"complete",NA,"computer","Desktop or Laptop","Windows 10","Chrome 127.0.0.0","1536x864","1536x730",NA,NA,0,"BIQ (Charlotte)",5,"ABICHDGEF","Passed AC2","","Spreadsheet1","Spreadsheet1",1,"BIQ","Screen 4","iz3the",4,"response","0",10416.6,19032.4,19037.0999999523,10416.6,19032.4,19037.0999999523,1,10416.6,8620.49999995231,0,NA,"Rating Scale","Rating Scale",9,"object-60","BIQ",NA,"SUPPRF84910"
14,1722270719010,"29/07/2024 16:31:59",1722274319010,1,"29/07/2024 18:31:59",185160,1,"task-7hcp",NA,39264369,NA,"complete",NA,"computer","Desktop or Laptop","Windows 10","Chrome 127.0.0.0","1536x864","1536x730",NA,NA,0,"BIQ (Charlotte)",5,"ABICHDGEF","Passed AC2","","Spreadsheet1","Spreadsheet1",1,"BIQ","Screen 4","iz3the",4,"response","2",15399.1,19032.4,19037.5999999523,15399.1,19032.4,19037.5999999523,1,15399.1,3638.49999995231,0,NA,"Rating Scale","Rating Scale",16,"object-67","BIQ",NA,"SUPPRF84910"
15,1722270719016,"29/07/2024 16:31:59",1722274319016,1,"29/07/2024 18:31:59",185160,1,"task-7hcp",NA,39264369,NA,"complete",NA,"computer","Desktop or Laptop","Windows 10","Chrome 127.0.0.0","1536x864","1536x730",NA,NA,0,"BIQ (Charlotte)",5,"ABICHDGEF","Passed AC2","","Spreadsheet1","Spreadsheet1",NA,"","","",NA,"info","END",NA,NA,NA,NA,NA,NA,0,NA,NA,NA,NA,"","",NA,"","",NA,"SUPPRF84910"
1,1722270709194,"29/07/2024 16:31:49",1722274309194,1,"29/07/2024 18:31:49",185160,1,"task-7hcp",NA,39264431,NA,"complete",NA,"computer","Desktop or Laptop","Windows 10","Chrome 126.0.0.0","1280x720","1280x593",NA,NA,0,"BIQ (Charlotte)",5,"BCADIEHFG","Failed AC2","Passed AC1","Spreadsheet1","Spreadsheet1",NA,"","","",NA,"info","BEGIN",NA,NA,NA,NA,NA,NA,0,NA,NA,NA,NA,"","",NA,"","",NA,"SUPPRF00984"
2,1722270742793,"29/07/2024 16:32:22",1722274342793,1,"29/07/2024 18:32:22",185160,1,"task-7hcp",NA,39264431,NA,"complete",NA,"computer","Desktop or Laptop","Windows 10","Chrome 126.0.0.0","1280x720","1280x593",NA,NA,0,"BIQ (Charlotte)",5,"BCADIEHFG","Failed AC2","Passed AC1","Spreadsheet1","Spreadsheet1",1,"BIQ","Screen 1","9dh6eq",1,"continue","",33605.3,33588.5,33605.3,33605.3,33588.5,33605.3,1,33605.3,0,0,NA,"Click To Continue","Continue Button",16,"object-48","BIQ",NA,"SUPPRF00984"
3,1722270742797,"29/07/2024 16:32:22",1722274342797,1,"29/07/2024 18:32:22",185160,1,"task-7hcp",NA,39264431,NA,"complete",NA,"computer","Desktop or Laptop","Windows 10","Chrome 126.0.0.0","1280x720","1280x593",NA,NA,0,"BIQ (Charlotte)",5,"BCADIEHFG","Failed AC2","Passed AC1","Spreadsheet1","Spreadsheet1",1,"BIQ","Screen 1","9dh6eq",1,"response","7",17377.1,33588.5,33605.3,17377.1,33588.5,33605.3,1,17377.1,16228.2,0,NA,"Rating Scale","Rating Scale",3,"object-5","BIQ",NA,"SUPPRF00984"
4,1722270742797,"29/07/2024 16:32:22",1722274342797,1,"29/07/2024 18:32:22",185160,1,"task-7hcp",NA,39264431,NA,"complete",NA,"computer","Desktop or Laptop","Windows 10","Chrome 126.0.0.0","1280x720","1280x593",NA,NA,0,"BIQ (Charlotte)",5,"BCADIEHFG","Failed AC2","Passed AC1","Spreadsheet1","Spreadsheet1",1,"BIQ","Screen 1","9dh6eq",1,"response","7",32005.7,33588.5,33605.3,32005.7,33588.5,33605.3,1,32005.7,1599.59999999999,0,NA,"Rating Scale","Rating Scale",10,"object-18","BIQ",NA,"SUPPRF00984"
5,1722270759488,"29/07/2024 16:32:39",1722274359488,1,"29/07/2024 18:32:39",185160,1,"task-7hcp",NA,39264431,NA,"complete",NA,"computer","Desktop or Laptop","Windows 10","Chrome 126.0.0.0","1280x720","1280x593",NA,NA,0,"BIQ (Charlotte)",5,"BCADIEHFG","Failed AC2","Passed AC1","Spreadsheet1","Spreadsheet1",1,"BIQ","Screen 2","svpz34",2,"continue","",16720.1000000119,16710.8,16720.1000000119,16720.1000000119,16710.8,16720.1000000119,1,16720.1000000119,0,0,NA,"Click To Continue","Continue Button",7,"object-1017","BIQ",NA,"SUPPRF00984"
6,1722270759492,"29/07/2024 16:32:39",1722274359492,1,"29/07/2024 18:32:39",185160,1,"task-7hcp",NA,39264431,NA,"complete",NA,"computer","Desktop or Laptop","Windows 10","Chrome 126.0.0.0","1280x720","1280x593",NA,NA,0,"BIQ (Charlotte)",5,"BCADIEHFG","Failed AC2","Passed AC1","Spreadsheet1","Spreadsheet1",1,"BIQ","Screen 2","svpz34",2,"response","1",7363.9,16710.8,16724.8,7363.9,16710.8,16724.8,1,7363.9,9360.9,0,NA,"Rating Scale","Rating Scale",8,"object-118","BIQ",NA,"SUPPRF00984"
7,1722270759493,"29/07/2024 16:32:39",1722274359493,1,"29/07/2024 18:32:39",185160,1,"task-7hcp",NA,39264431,NA,"complete",NA,"computer","Desktop or Laptop","Windows 10","Chrome 126.0.0.0","1280x720","1280x593",NA,NA,0,"BIQ (Charlotte)",5,"BCADIEHFG","Failed AC2","Passed AC1","Spreadsheet1","Spreadsheet1",1,"BIQ","Screen 2","svpz34",2,"response","8",15361.3,16710.8,16725.9000000238,15361.3,16710.8,16725.9000000238,1,15361.3,1364.60000002384,0,NA,"Rating Scale","Rating Scale",10,"object-121","BIQ",NA,"SUPPRF00984"
8,1722270781558,"29/07/2024 16:33:01",1722274381558,1,"29/07/2024 18:33:01",185160,1,"task-7hcp",NA,39264431,NA,"complete",NA,"computer","Desktop or Laptop","Windows 10","Chrome 126.0.0.0","1280x720","1280x593",NA,NA,0,"BIQ (Charlotte)",5,"BCADIEHFG","Failed AC2","Passed AC1","Spreadsheet1","Spreadsheet1",1,"BIQ","Screen 3","o21mwi",3,"continue","",22079.3000000119,22075.8,22079.3000000119,22079.3000000119,22075.8,22079.3000000119,1,22079.3000000119,0,0,NA,"Click To Continue","Continue Button",15,"object-50","BIQ",NA,"SUPPRF00984"
9,1722270781563,"29/07/2024 16:33:01",1722274381563,1,"29/07/2024 18:33:01",185160,1,"task-7hcp",NA,39264431,NA,"complete",NA,"computer","Desktop or Laptop","Windows 10","Chrome 126.0.0.0","1280x720","1280x593",NA,NA,0,"BIQ (Charlotte)",5,"BCADIEHFG","Failed AC2","Passed AC1","Spreadsheet1","Spreadsheet1",1,"BIQ","Screen 3","o21mwi",3,"response","1",4582.1,22075.8,22084.3000000119,4582.1,22075.8,22084.3000000119,1,4582.1,17502.2000000119,0,NA,"Rating Scale","Rating Scale",2,"object-36","BIQ",NA,"SUPPRF00984"
10,1722270781564,"29/07/2024 16:33:01",1722274381564,1,"29/07/2024 18:33:01",185160,1,"task-7hcp",NA,39264431,NA,"complete",NA,"computer","Desktop or Laptop","Windows 10","Chrome 126.0.0.0","1280x720","1280x593",NA,NA,0,"BIQ (Charlotte)",5,"BCADIEHFG","Failed AC2","Passed AC1","Spreadsheet1","Spreadsheet1",1,"BIQ","Screen 3","o21mwi",3,"response","0",21142.8,22075.8,22085.5,21142.8,22075.8,22085.5,1,21142.8,942.699999999997,0,NA,"Rating Scale","Rating Scale",9,"object-86","BIQ",NA,"SUPPRF00984"
11,1722270799666,"29/07/2024 16:33:19",1722274399666,1,"29/07/2024 18:33:19",185160,1,"task-7hcp",NA,39264431,NA,"complete",NA,"computer","Desktop or Laptop","Windows 10","Chrome 126.0.0.0","1280x720","1280x593",NA,NA,0,"BIQ (Charlotte)",5,"BCADIEHFG","Failed AC2","Passed AC1","Spreadsheet1","Spreadsheet1",1,"BIQ","Screen 4","iz3the",4,"continue","",18112.0000000119,18110.6,18112.0000000119,18112.0000000119,18110.6,18112.0000000119,1,18112.0000000119,0,0,NA,"Click To Continue","Continue Button",22,"object-73","BIQ",NA,"SUPPRF00984"
12,1722270799668,"29/07/2024 16:33:19",1722274399668,1,"29/07/2024 18:33:19",185160,1,"task-7hcp",NA,39264431,NA,"complete",NA,"computer","Desktop or Laptop","Windows 10","Chrome 126.0.0.0","1280x720","1280x593",NA,NA,0,"BIQ (Charlotte)",5,"BCADIEHFG","Failed AC2","Passed AC1","Spreadsheet1","Spreadsheet1",1,"BIQ","Screen 4","iz3the",4,"response","0",11129.6,18110.6,18114.1000000358,11129.6,18110.6,18114.1000000358,1,11129.6,6984.50000003577,0,NA,"Rating Scale","Rating Scale",2,"object-53","BIQ",NA,"SUPPRF00984"
13,1722270799668,"29/07/2024 16:33:19",1722274399668,1,"29/07/2024 18:33:19",185160,1,"task-7hcp",NA,39264431,NA,"complete",NA,"computer","Desktop or Laptop","Windows 10","Chrome 126.0.0.0","1280x720","1280x593",NA,NA,0,"BIQ (Charlotte)",5,"BCADIEHFG","Failed AC2","Passed AC1","Spreadsheet1","Spreadsheet1",1,"BIQ","Screen 4","iz3the",4,"response","0",14078.6,18110.6,18114.3999999881,14078.6,18110.6,18114.3999999881,1,14078.6,4035.79999998808,0,NA,"Rating Scale","Rating Scale",9,"object-60","BIQ",NA,"SUPPRF00984"
14,1722270799668,"29/07/2024 16:33:19",1722274399668,1,"29/07/2024 18:33:19",185160,1,"task-7hcp",NA,39264431,NA,"complete",NA,"computer","Desktop or Laptop","Windows 10","Chrome 126.0.0.0","1280x720","1280x593",NA,NA,0,"BIQ (Charlotte)",5,"BCADIEHFG","Failed AC2","Passed AC1","Spreadsheet1","Spreadsheet1",1,"BIQ","Screen 4","iz3the",4,"response","0",17177.7,18110.6,18114.6000000358,17177.7,18110.6,18114.6000000358,1,17177.7,936.900000035763,0,NA,"Rating Scale","Rating Scale",16,"object-67","BIQ",NA,"SUPPRF00984"
15,1722270799672,"29/07/2024 16:33:19",1722274399672,1,"29/07/2024 18:33:19",185160,1,"task-7hcp",NA,39264431,NA,"complete",NA,"computer","Desktop or Laptop","Windows 10","Chrome 126.0.0.0","1280x720","1280x593",NA,NA,0,"BIQ (Charlotte)",5,"BCADIEHFG","Failed AC2","Passed AC1","Spreadsheet1","Spreadsheet1",NA,"","","",NA,"info","END",NA,NA,NA,NA,NA,NA,0,NA,NA,NA,NA,"","",NA,"","",NA,"SUPPRF00984"
1,1722270747742,"29/07/2024 16:32:27",1722256347742,-4,"29/07/2024 08:32:27",185160,1,"task-7hcp",NA,39264457,NA,"complete",NA,"computer","Desktop or Laptop","Windows 10","Chrome 126.0.0.0","1536x960","1536x843",NA,NA,0,"BIQ (Charlotte)",5,"FGEHDICAB","Passed AC2","","Spreadsheet1","Spreadsheet1",NA,"","","",NA,"info","BEGIN",NA,NA,NA,NA,NA,NA,0,NA,NA,NA,NA,"","",NA,"","",NA,"SUPPRF03187"
2,1722270770831,"29/07/2024 16:32:50",1722256370831,-4,"29/07/2024 08:32:50",185160,1,"task-7hcp",NA,39264457,NA,"complete",NA,"computer","Desktop or Laptop","Windows 10","Chrome 126.0.0.0","1536x960","1536x843",NA,NA,0,"BIQ (Charlotte)",5,"FGEHDICAB","Passed AC2","","Spreadsheet1","Spreadsheet1",1,"BIQ","Screen 1","9dh6eq",1,"continue","",23096.4999998569,23085.8,23096.4999998569,23096.4999998569,23085.8,23096.4999998569,1,23096.4999998569,0,0,NA,"Click To Continue","Continue Button",16,"object-48","BIQ",NA,"SUPPRF03187"
3,1722270770833,"29/07/2024 16:32:50",1722256370833,-4,"29/07/2024 08:32:50",185160,1,"task-7hcp",NA,39264457,NA,"complete",NA,"computer","Desktop or Laptop","Windows 10","Chrome 126.0.0.0","1536x960","1536x843",NA,NA,0,"BIQ (Charlotte)",5,"FGEHDICAB","Passed AC2","","Spreadsheet1","Spreadsheet1",1,"BIQ","Screen 1","9dh6eq",1,"response","7",9474.6,23085.8,23098.3000000477,9474.6,23085.8,23098.3000000477,1,9474.6,13623.7000000477,0,NA,"Rating Scale","Rating Scale",3,"object-5","BIQ",NA,"SUPPRF03187"
4,1722270770833,"29/07/2024 16:32:50",1722256370833,-4,"29/07/2024 08:32:50",185160,1,"task-7hcp",NA,39264457,NA,"complete",NA,"computer","Desktop or Laptop","Windows 10","Chrome 126.0.0.0","1536x960","1536x843",NA,NA,0,"BIQ (Charlotte)",5,"FGEHDICAB","Passed AC2","","Spreadsheet1","Spreadsheet1",1,"BIQ","Screen 1","9dh6eq",1,"response","8",19216,23085.8,23098.6,19216,23085.8,23098.6,1,19216,3882.6,0,NA,"Rating Scale","Rating Scale",10,"object-18","BIQ",NA,"SUPPRF03187"
5,1722270780619,"29/07/2024 16:33:00",1722256380619,-4,"29/07/2024 08:33:00",185160,1,"task-7hcp",NA,39264457,NA,"complete",NA,"computer","Desktop or Laptop","Windows 10","Chrome 126.0.0.0","1536x960","1536x843",NA,NA,0,"BIQ (Charlotte)",5,"FGEHDICAB","Passed AC2","","Spreadsheet1","Spreadsheet1",1,"BIQ","Screen 2","svpz34",2,"continue","",9799.00000004768,9791.6,9799.00000004768,9799.00000004768,9791.6,9799.00000004768,1,9799.00000004768,0,0,NA,"Click To Continue","Continue Button",7,"object-1017","BIQ",NA,"SUPPRF03187"
6,1722270780619,"29/07/2024 16:33:00",1722256380619,-4,"29/07/2024 08:33:00",185160,1,"task-7hcp",NA,39264457,NA,"complete",NA,"computer","Desktop or Laptop","Windows 10","Chrome 126.0.0.0","1536x960","1536x843",NA,NA,0,"BIQ (Charlotte)",5,"FGEHDICAB","Passed AC2","","Spreadsheet1","Spreadsheet1",1,"BIQ","Screen 2","svpz34",2,"response","0",4036.7,9791.6,9799.50000004768,4036.7,9791.6,9799.50000004768,1,4036.7,5762.80000004768,0,NA,"Rating Scale","Rating Scale",8,"object-118","BIQ",NA,"SUPPRF03187"
7,1722270780620,"29/07/2024 16:33:00",1722256380620,-4,"29/07/2024 08:33:00",185160,1,"task-7hcp",NA,39264457,NA,"complete",NA,"computer","Desktop or Laptop","Windows 10","Chrome 126.0.0.0","1536x960","1536x843",NA,NA,0,"BIQ (Charlotte)",5,"FGEHDICAB","Passed AC2","","Spreadsheet1","Spreadsheet1",1,"BIQ","Screen 2","svpz34",2,"response","8",8857.4,9791.6,9799.69999985695,8857.4,9791.6,9799.69999985695,1,8857.4,942.29999985695,0,NA,"Rating Scale","Rating Scale",10,"object-121","BIQ",NA,"SUPPRF03187"
8,1722270784017,"29/07/2024 16:33:04",1722256384017,-4,"29/07/2024 08:33:04",185160,1,"task-7hcp",NA,39264457,NA,"complete",NA,"computer","Desktop or Laptop","Windows 10","Chrome 126.0.0.0","1536x960","1536x843",NA,NA,0,"BIQ (Charlotte)",5,"FGEHDICAB","Passed AC2","","Spreadsheet1","Spreadsheet1",1,"BIQ","Screen 3","o21mwi",3,"continue","",3403,3386.2,3403,3403,3386.2,3403,1,3403,0,0,NA,"Click To Continue","Continue Button",15,"object-50","BIQ",NA,"SUPPRF03187"
9,1722270795446,"29/07/2024 16:33:15",1722256395446,-4,"29/07/2024 08:33:15",185160,1,"task-7hcp",NA,39264457,NA,"complete",NA,"computer","Desktop or Laptop","Windows 10","Chrome 126.0.0.0","1536x960","1536x843",NA,NA,0,"BIQ (Charlotte)",5,"FGEHDICAB","Passed AC2","","Spreadsheet1","Spreadsheet1",1,"BIQ","Screen 3","o21mwi",3,"continue","",14834.0999998569,14829,14834.0999998569,14834.0999998569,14829,14834.0999998569,1,14834.0999998569,0,0,NA,"Click To Continue","Continue Button",15,"object-50","BIQ",NA,"SUPPRF03187"
10,1722270795447,"29/07/2024 16:33:15",1722256395447,-4,"29/07/2024 08:33:15",185160,1,"task-7hcp",NA,39264457,NA,"complete",NA,"computer","Desktop or Laptop","Windows 10","Chrome 126.0.0.0","1536x960","1536x843",NA,NA,0,"BIQ (Charlotte)",5,"FGEHDICAB","Passed AC2","","Spreadsheet1","Spreadsheet1",1,"BIQ","Screen 3","o21mwi",3,"response","0",7005.8,14829,14835.0999998569,7005.8,14829,14835.0999998569,1,7005.8,7829.29999985695,0,NA,"Rating Scale","Rating Scale",2,"object-36","BIQ",NA,"SUPPRF03187"
11,1722270795447,"29/07/2024 16:33:15",1722256395447,-4,"29/07/2024 08:33:15",185160,1,"task-7hcp",NA,39264457,NA,"complete",NA,"computer","Desktop or Laptop","Windows 10","Chrome 126.0.0.0","1536x960","1536x843",NA,NA,0,"BIQ (Charlotte)",5,"FGEHDICAB","Passed AC2","","Spreadsheet1","Spreadsheet1",1,"BIQ","Screen 3","o21mwi",3,"response","7",13127.6,14829,14835.2999999046,13127.6,14829,14835.2999999046,1,13127.6,1707.69999990463,0,NA,"Rating Scale","Rating Scale",9,"object-86","BIQ",NA,"SUPPRF03187"
12,1722270804529,"29/07/2024 16:33:24",1722256404529,-4,"29/07/2024 08:33:24",185160,1,"task-7hcp",NA,39264457,NA,"complete",NA,"computer","Desktop or Laptop","Windows 10","Chrome 126.0.0.0","1536x960","1536x843",NA,NA,0,"BIQ (Charlotte)",5,"FGEHDICAB","Passed AC2","","Spreadsheet1","Spreadsheet1",1,"BIQ","Screen 4","iz3the",4,"continue","",9088.90000004768,9074.2,9088.90000004768,9088.90000004768,9074.2,9088.90000004768,1,9088.90000004768,0,0,NA,"Click To Continue","Continue Button",22,"object-73","BIQ",NA,"SUPPRF03187"
13,1722270804530,"29/07/2024 16:33:24",1722256404530,-4,"29/07/2024 08:33:24",185160,1,"task-7hcp",NA,39264457,NA,"complete",NA,"computer","Desktop or Laptop","Windows 10","Chrome 126.0.0.0","1536x960","1536x843",NA,NA,0,"BIQ (Charlotte)",5,"FGEHDICAB","Passed AC2","","Spreadsheet1","Spreadsheet1",1,"BIQ","Screen 4","iz3the",4,"response","0",3302.7,9074.2,9089.09999985695,3302.7,9074.2,9089.09999985695,1,3302.7,5786.39999985695,0,NA,"Rating Scale","Rating Scale",2,"object-53","BIQ",NA,"SUPPRF03187"
14,1722270804530,"29/07/2024 16:33:24",1722256404530,-4,"29/07/2024 08:33:24",185160,1,"task-7hcp",NA,39264457,NA,"complete",NA,"computer","Desktop or Laptop","Windows 10","Chrome 126.0.0.0","1536x960","1536x843",NA,NA,0,"BIQ (Charlotte)",5,"FGEHDICAB","Passed AC2","","Spreadsheet1","Spreadsheet1",1,"BIQ","Screen 4","iz3the",4,"response","0",4837.3,9074.2,9089.40000004768,4837.3,9074.2,9089.40000004768,1,4837.3,4252.10000004769,0,NA,"Rating Scale","Rating Scale",9,"object-60","BIQ",NA,"SUPPRF03187"
15,1722270804530,"29/07/2024 16:33:24",1722256404530,-4,"29/07/2024 08:33:24",185160,1,"task-7hcp",NA,39264457,NA,"complete",NA,"computer","Desktop or Laptop","Windows 10","Chrome 126.0.0.0","1536x960","1536x843",NA,NA,0,"BIQ (Charlotte)",5,"FGEHDICAB","Passed AC2","","Spreadsheet1","Spreadsheet1",1,"BIQ","Screen 4","iz3the",4,"response","4",5854.8,9074.2,9089.59999985695,5854.8,9074.2,9089.59999985695,1,5854.8,3234.79999985695,0,NA,"Rating Scale","Rating Scale",16,"object-67","BIQ",NA,"SUPPRF03187"
16,1722270804533,"29/07/2024 16:33:24",1722256404533,-4,"29/07/2024 08:33:24",185160,1,"task-7hcp",NA,39264457,NA,"complete",NA,"computer","Desktop or Laptop","Windows 10","Chrome 126.0.0.0","1536x960","1536x843",NA,NA,0,"BIQ (Charlotte)",5,"FGEHDICAB","Passed AC2","","Spreadsheet1","Spreadsheet1",NA,"","","",NA,"info","END",NA,NA,NA,NA,NA,NA,0,NA,NA,NA,NA,"","",NA,"","",NA,"SUPPRF03187"
1,1722270813479,"29/07/2024 16:33:33",1722274413479,1,"29/07/2024 18:33:33",185160,1,"task-7hcp",NA,39264505,NA,"complete",NA,"computer","Desktop or Laptop","Windows 10","Chrome 126.0.0.0","1280x720","1707x746",NA,NA,0,"BIQ (Charlotte)",5,"DECFBGAHI","Passed AC2","","Spreadsheet1","Spreadsheet1",NA,"","","",NA,"info","BEGIN",NA,NA,NA,NA,NA,NA,0,NA,NA,NA,NA,"","",NA,"","",NA,"SUPPRF27738"
2,1722270834906,"29/07/2024 16:33:54",1722274434906,1,"29/07/2024 18:33:54",185160,1,"task-7hcp",NA,39264505,NA,"complete",NA,"computer","Desktop or Laptop","Windows 10","Chrome 126.0.0.0","1280x720","1707x746",NA,NA,0,"BIQ (Charlotte)",5,"DECFBGAHI","Passed AC2","","Spreadsheet1","Spreadsheet1",1,"BIQ","Screen 1","9dh6eq",1,"continue","",21437.4759999881,21425.676,21437.4759999881,21437.4759999881,21425.676,21437.4759999881,1,21437.4759999881,0,0,NA,"Click To Continue","Continue Button",16,"object-48","BIQ",NA,"SUPPRF27738"
3,1722270834908,"29/07/2024 16:33:54",1722274434908,1,"29/07/2024 18:33:54",185160,1,"task-7hcp",NA,39264505,NA,"complete",NA,"computer","Desktop or Laptop","Windows 10","Chrome 126.0.0.0","1280x720","1707x746",NA,NA,0,"BIQ (Charlotte)",5,"DECFBGAHI","Passed AC2","","Spreadsheet1","Spreadsheet1",1,"BIQ","Screen 1","9dh6eq",1,"response","7",11445.876,21425.676,21439.6760000358,11445.876,21425.676,21439.6760000358,1,11445.876,9993.80000003576,0,NA,"Rating Scale","Rating Scale",3,"object-5","BIQ",NA,"SUPPRF27738"
4,1722270834908,"29/07/2024 16:33:54",1722274434908,1,"29/07/2024 18:33:54",185160,1,"task-7hcp",NA,39264505,NA,"complete",NA,"computer","Desktop or Laptop","Windows 10","Chrome 126.0.0.0","1280x720","1707x746",NA,NA,0,"BIQ (Charlotte)",5,"DECFBGAHI","Passed AC2","","Spreadsheet1","Spreadsheet1",1,"BIQ","Screen 1","9dh6eq",1,"response","0",17043.876,21425.676,21439.9759999881,17043.876,21425.676,21439.9759999881,1,17043.876,4396.09999998808,0,NA,"Rating Scale","Rating Scale",10,"object-18","BIQ",NA,"SUPPRF27738"
5,1722270853765,"29/07/2024 16:34:13",1722274453765,1,"29/07/2024 18:34:13",185160,1,"task-7hcp",NA,39264505,NA,"complete",NA,"computer","Desktop or Laptop","Windows 10","Chrome 126.0.0.0","1280x720","1707x746",NA,NA,0,"BIQ (Charlotte)",5,"DECFBGAHI","Passed AC2","","Spreadsheet1","Spreadsheet1",1,"BIQ","Screen 2","svpz34",2,"continue","",18869.9000000119,18860.4,18869.9000000119,18869.9000000119,18860.4,18869.9000000119,1,18869.9000000119,0,0,NA,"Click To Continue","Continue Button",7,"object-1017","BIQ",NA,"SUPPRF27738"
6,1722270853766,"29/07/2024 16:34:13",1722274453766,1,"29/07/2024 18:34:13",185160,1,"task-7hcp",NA,39264505,NA,"complete",NA,"computer","Desktop or Laptop","Windows 10","Chrome 126.0.0.0","1280x720","1707x746",NA,NA,0,"BIQ (Charlotte)",5,"DECFBGAHI","Passed AC2","","Spreadsheet1","Spreadsheet1",1,"BIQ","Screen 2","svpz34",2,"response","4",10946.5,18860.4,18871.5000000358,10946.5,18860.4,18871.5000000358,1,10946.5,7925.00000003576,0,NA,"Rating Scale","Rating Scale",8,"object-118","BIQ",NA,"SUPPRF27738"
7,1722270853766,"29/07/2024 16:34:13",1722274453766,1,"29/07/2024 18:34:13",185160,1,"task-7hcp",NA,39264505,NA,"complete",NA,"computer","Desktop or Laptop","Windows 10","Chrome 126.0.0.0","1280x720","1707x746",NA,NA,0,"BIQ (Charlotte)",5,"DECFBGAHI","Passed AC2","","Spreadsheet1","Spreadsheet1",1,"BIQ","Screen 2","svpz34",2,"response","4",14895.2,18860.4,18871.7000000238,14895.2,18860.4,18871.7000000238,1,14895.2,3976.50000002384,0,NA,"Rating Scale","Rating Scale",10,"object-121","BIQ",NA,"SUPPRF27738"
8,1722270878214,"29/07/2024 16:34:38",1722274478214,1,"29/07/2024 18:34:38",185160,1,"task-7hcp",NA,39264505,NA,"complete",NA,"computer","Desktop or Laptop","Windows 10","Chrome 126.0.0.0","1280x720","1707x746",NA,NA,0,"BIQ (Charlotte)",5,"DECFBGAHI","Passed AC2","","Spreadsheet1","Spreadsheet1",1,"BIQ","Screen 3","o21mwi",3,"continue","",24458.3999999881,24441.8,24458.3999999881,24458.3999999881,24441.8,24458.3999999881,1,24458.3999999881,0,0,NA,"Click To Continue","Continue Button",15,"object-50","BIQ",NA,"SUPPRF27738"
9,1722270878217,"29/07/2024 16:34:38",1722274478217,1,"29/07/2024 18:34:38",185160,1,"task-7hcp",NA,39264505,NA,"complete",NA,"computer","Desktop or Laptop","Windows 10","Chrome 126.0.0.0","1280x720","1707x746",NA,NA,0,"BIQ (Charlotte)",5,"DECFBGAHI","Passed AC2","","Spreadsheet1","Spreadsheet1",1,"BIQ","Screen 3","o21mwi",3,"response","1",8513.8,24441.8,24458.6,8513.8,24441.8,24458.6,1,8513.8,15944.8,0,NA,"Rating Scale","Rating Scale",2,"object-36","BIQ",NA,"SUPPRF27738"
10,1722270878217,"29/07/2024 16:34:38",1722274478217,1,"29/07/2024 18:34:38",185160,1,"task-7hcp",NA,39264505,NA,"complete",NA,"computer","Desktop or Laptop","Windows 10","Chrome 126.0.0.0","1280x720","1707x746",NA,NA,0,"BIQ (Charlotte)",5,"DECFBGAHI","Passed AC2","","Spreadsheet1","Spreadsheet1",1,"BIQ","Screen 3","o21mwi",3,"response","2",15261.5,24441.8,24458.6,15261.5,24441.8,24458.6,1,15261.5,9197.10000000001,0,NA,"Rating Scale","Rating Scale",9,"object-86","BIQ",NA,"SUPPRF27738"
11,1722270894798,"29/07/2024 16:34:54",1722274494798,1,"29/07/2024 18:34:54",185160,1,"task-7hcp",NA,39264505,NA,"complete",NA,"computer","Desktop or Laptop","Windows 10","Chrome 126.0.0.0","1280x720","1707x746",NA,NA,0,"BIQ (Charlotte)",5,"DECFBGAHI","Passed AC2","","Spreadsheet1","Spreadsheet1",1,"BIQ","Screen 4","iz3the",4,"continue","",16600.5000000238,16594.3,16600.5000000238,16600.5000000238,16594.3,16600.5000000238,1,16600.5000000238,0,0,NA,"Click To Continue","Continue Button",22,"object-73","BIQ",NA,"SUPPRF27738"
12,1722270894799,"29/07/2024 16:34:54",1722274494799,1,"29/07/2024 18:34:54",185160,1,"task-7hcp",NA,39264505,NA,"complete",NA,"computer","Desktop or Laptop","Windows 10","Chrome 126.0.0.0","1280x720","1707x746",NA,NA,0,"BIQ (Charlotte)",5,"DECFBGAHI","Passed AC2","","Spreadsheet1","Spreadsheet1",1,"BIQ","Screen 4","iz3the",4,"response","1",6197.7,16594.3,16602.5999999881,6197.7,16594.3,16602.5999999881,1,6197.7,10404.8999999881,0,NA,"Rating Scale","Rating Scale",2,"object-53","BIQ",NA,"SUPPRF27738"
13,1722270894800,"29/07/2024 16:34:54",1722274494800,1,"29/07/2024 18:34:54",185160,1,"task-7hcp",NA,39264505,NA,"complete",NA,"computer","Desktop or Laptop","Windows 10","Chrome 126.0.0.0","1280x720","1707x746",NA,NA,0,"BIQ (Charlotte)",5,"DECFBGAHI","Passed AC2","","Spreadsheet1","Spreadsheet1",1,"BIQ","Screen 4","iz3the",4,"response","2",9729.89999999999,16594.3,16602.7000000119,9729.89999999999,16594.3,16602.7000000119,1,9729.89999999999,6872.80000001192,0,NA,"Rating Scale","Rating Scale",9,"object-60","BIQ",NA,"SUPPRF27738"
14,1722270894800,"29/07/2024 16:34:54",1722274494800,1,"29/07/2024 18:34:54",185160,1,"task-7hcp",NA,39264505,NA,"complete",NA,"computer","Desktop or Laptop","Windows 10","Chrome 126.0.0.0","1280x720","1707x746",NA,NA,0,"BIQ (Charlotte)",5,"DECFBGAHI","Passed AC2","","Spreadsheet1","Spreadsheet1",1,"BIQ","Screen 4","iz3the",4,"response","1",15045.1,16594.3,16602.9,15045.1,16594.3,16602.9,1,15045.1,1557.8,0,NA,"Rating Scale","Rating Scale",16,"object-67","BIQ",NA,"SUPPRF27738"
15,1722270894803,"29/07/2024 16:34:54",1722274494803,1,"29/07/2024 18:34:54",185160,1,"task-7hcp",NA,39264505,NA,"complete",NA,"computer","Desktop or Laptop","Windows 10","Chrome 126.0.0.0","1280x720","1707x746",NA,NA,0,"BIQ (Charlotte)",5,"DECFBGAHI","Passed AC2","","Spreadsheet1","Spreadsheet1",NA,"","","",NA,"info","END",NA,NA,NA,NA,NA,NA,0,NA,NA,NA,NA,"","",NA,"","",NA,"SUPPRF27738"
1,1722270832121,"29/07/2024 16:33:52",1722274432121,1,"29/07/2024 18:33:52",185160,1,"task-7hcp",NA,39264520,NA,"complete",NA,"computer","Desktop or Laptop","Windows 10","Chrome 126.0.0.0","1280x720","1280x585",NA,NA,0,"BIQ (Charlotte)",5,"HIGAFBECD","Passed AC2","","Spreadsheet1","Spreadsheet1",NA,"","","",NA,"info","BEGIN",NA,NA,NA,NA,NA,NA,0,NA,NA,NA,NA,"","",NA,"","",NA,"SUPPRF56835"
2,1722270861096,"29/07/2024 16:34:21",1722274461096,1,"29/07/2024 18:34:21",185160,1,"task-7hcp",NA,39264520,NA,"complete",NA,"computer","Desktop or Laptop","Windows 10","Chrome 126.0.0.0","1280x720","1280x585",NA,NA,0,"BIQ (Charlotte)",5,"HIGAFBECD","Passed AC2","","Spreadsheet1","Spreadsheet1",1,"BIQ","Screen 1","9dh6eq",1,"continue","",28992.274,28975.774,28992.274,28992.274,28975.774,28992.274,1,28992.274,0,0,NA,"Click To Continue","Continue Button",16,"object-48","BIQ",NA,"SUPPRF56835"
3,1722270861099,"29/07/2024 16:34:21",1722274461099,1,"29/07/2024 18:34:21",185160,1,"task-7hcp",NA,39264520,NA,"complete",NA,"computer","Desktop or Laptop","Windows 10","Chrome 126.0.0.0","1280x720","1280x585",NA,NA,0,"BIQ (Charlotte)",5,"HIGAFBECD","Passed AC2","","Spreadsheet1","Spreadsheet1",1,"BIQ","Screen 1","9dh6eq",1,"response","7",15721.274,28975.774,28992.274,15721.274,28975.774,28992.274,1,15721.274,13271,0,NA,"Rating Scale","Rating Scale",3,"object-5","BIQ",NA,"SUPPRF56835"
4,1722270861099,"29/07/2024 16:34:21",1722274461099,1,"29/07/2024 18:34:21",185160,1,"task-7hcp",NA,39264520,NA,"complete",NA,"computer","Desktop or Laptop","Windows 10","Chrome 126.0.0.0","1280x720","1280x585",NA,NA,0,"BIQ (Charlotte)",5,"HIGAFBECD","Passed AC2","","Spreadsheet1","Spreadsheet1",1,"BIQ","Screen 1","9dh6eq",1,"response","7",27144.974,28975.774,28992.274,27144.974,28975.774,28992.274,1,27144.974,1847.3,0,NA,"Rating Scale","Rating Scale",10,"object-18","BIQ",NA,"SUPPRF56835"
5,1722270872486,"29/07/2024 16:34:32",1722274472486,1,"29/07/2024 18:34:32",185160,1,"task-7hcp",NA,39264520,NA,"complete",NA,"computer","Desktop or Laptop","Windows 10","Chrome 126.0.0.0","1280x720","1280x585",NA,NA,0,"BIQ (Charlotte)",5,"HIGAFBECD","Passed AC2","","Spreadsheet1","Spreadsheet1",1,"BIQ","Screen 2","svpz34",2,"continue","",11408.299999994,11391.4,11408.299999994,11408.299999994,11391.4,11408.299999994,1,11408.299999994,0,0,NA,"Click To Continue","Continue Button",7,"object-1017","BIQ",NA,"SUPPRF56835"
6,1722270872489,"29/07/2024 16:34:32",1722274472489,1,"29/07/2024 18:34:32",185160,1,"task-7hcp",NA,39264520,NA,"complete",NA,"computer","Desktop or Laptop","Windows 10","Chrome 126.0.0.0","1280x720","1280x585",NA,NA,0,"BIQ (Charlotte)",5,"HIGAFBECD","Passed AC2","","Spreadsheet1","Spreadsheet1",1,"BIQ","Screen 2","svpz34",2,"response","1",6527.9,11391.4,11409,6527.9,11391.4,11409,1,6527.9,4881.1,0,NA,"Rating Scale","Rating Scale",8,"object-118","BIQ",NA,"SUPPRF56835"
7,1722270872490,"29/07/2024 16:34:32",1722274472490,1,"29/07/2024 18:34:32",185160,1,"task-7hcp",NA,39264520,NA,"complete",NA,"computer","Desktop or Laptop","Windows 10","Chrome 126.0.0.0","1280x720","1280x585",NA,NA,0,"BIQ (Charlotte)",5,"HIGAFBECD","Passed AC2","","Spreadsheet1","Spreadsheet1",1,"BIQ","Screen 2","svpz34",2,"response","1",9508.9,11391.4,11409,9508.9,11391.4,11409,1,9508.9,1900.1,0,NA,"Rating Scale","Rating Scale",10,"object-121","BIQ",NA,"SUPPRF56835"
8,1722270885352,"29/07/2024 16:34:45",1722274485352,1,"29/07/2024 18:34:45",185160,1,"task-7hcp",NA,39264520,NA,"complete",NA,"computer","Desktop or Laptop","Windows 10","Chrome 126.0.0.0","1280x720","1280x585",NA,NA,0,"BIQ (Charlotte)",5,"HIGAFBECD","Passed AC2","","Spreadsheet1","Spreadsheet1",1,"BIQ","Screen 3","o21mwi",3,"continue","",12882.399999994,12871.9,12882.399999994,12882.399999994,12871.9,12882.399999994,1,12882.399999994,0,0,NA,"Click To Continue","Continue Button",15,"object-50","BIQ",NA,"SUPPRF56835"
9,1722270885356,"29/07/2024 16:34:45",1722274485356,1,"29/07/2024 18:34:45",185160,1,"task-7hcp",NA,39264520,NA,"complete",NA,"computer","Desktop or Laptop","Windows 10","Chrome 126.0.0.0","1280x720","1280x585",NA,NA,0,"BIQ (Charlotte)",5,"HIGAFBECD","Passed AC2","","Spreadsheet1","Spreadsheet1",1,"BIQ","Screen 3","o21mwi",3,"response","2",4545.4,12871.9,12886.6999999911,4545.4,12871.9,12886.6999999911,1,4545.4,8341.29999999106,0,NA,"Rating Scale","Rating Scale",2,"object-36","BIQ",NA,"SUPPRF56835"
10,1722270885357,"29/07/2024 16:34:45",1722274485357,1,"29/07/2024 18:34:45",185160,1,"task-7hcp",NA,39264520,NA,"complete",NA,"computer","Desktop or Laptop","Windows 10","Chrome 126.0.0.0","1280x720","1280x585",NA,NA,0,"BIQ (Charlotte)",5,"HIGAFBECD","Passed AC2","","Spreadsheet1","Spreadsheet1",1,"BIQ","Screen 3","o21mwi",3,"response","1",11956.1,12871.9,12887.599999997,11956.1,12871.9,12887.599999997,1,11956.1,931.499999997017,0,NA,"Rating Scale","Rating Scale",9,"object-86","BIQ",NA,"SUPPRF56835"
11,1722270903874,"29/07/2024 16:35:03",1722274503874,1,"29/07/2024 18:35:03",185160,1,"task-7hcp",NA,39264520,NA,"complete",NA,"computer","Desktop or Laptop","Windows 10","Chrome 126.0.0.0","1280x720","1280x585",NA,NA,0,"BIQ (Charlotte)",5,"HIGAFBECD","Passed AC2","","Spreadsheet1","Spreadsheet1",1,"BIQ","Screen 4","iz3the",4,"continue","",18532.699999997,18517.9,18532.699999997,18532.699999997,18517.9,18532.699999997,1,18532.699999997,0,0,NA,"Click To Continue","Continue Button",22,"object-73","BIQ",NA,"SUPPRF56835"
12,1722270903878,"29/07/2024 16:35:03",1722274503878,1,"29/07/2024 18:35:03",185160,1,"task-7hcp",NA,39264520,NA,"complete",NA,"computer","Desktop or Laptop","Windows 10","Chrome 126.0.0.0","1280x720","1280x585",NA,NA,0,"BIQ (Charlotte)",5,"HIGAFBECD","Passed AC2","","Spreadsheet1","Spreadsheet1",1,"BIQ","Screen 4","iz3the",4,"response","0",8043.3,18517.9,18534.7,8043.3,18517.9,18534.7,1,8043.3,10491.4,0,NA,"Rating Scale","Rating Scale",2,"object-53","BIQ",NA,"SUPPRF56835"
13,1722270903878,"29/07/2024 16:35:03",1722274503878,1,"29/07/2024 18:35:03",185160,1,"task-7hcp",NA,39264520,NA,"complete",NA,"computer","Desktop or Laptop","Windows 10","Chrome 126.0.0.0","1280x720","1280x585",NA,NA,0,"BIQ (Charlotte)",5,"HIGAFBECD","Passed AC2","","Spreadsheet1","Spreadsheet1",1,"BIQ","Screen 4","iz3the",4,"response","1",9359.5,18517.9,18534.7,9359.5,18517.9,18534.7,1,9359.5,9175.2,0,NA,"Rating Scale","Rating Scale",9,"object-60","BIQ",NA,"SUPPRF56835"
14,1722270903879,"29/07/2024 16:35:03",1722274503879,1,"29/07/2024 18:35:03",185160,1,"task-7hcp",NA,39264520,NA,"complete",NA,"computer","Desktop or Laptop","Windows 10","Chrome 126.0.0.0","1280x720","1280x585",NA,NA,0,"BIQ (Charlotte)",5,"HIGAFBECD","Passed AC2","","Spreadsheet1","Spreadsheet1",1,"BIQ","Screen 4","iz3the",4,"response","3",15753.4,18517.9,18534.7,15753.4,18517.9,18534.7,1,15753.4,2781.3,0,NA,"Rating Scale","Rating Scale",16,"object-67","BIQ",NA,"SUPPRF56835"
15,1722270903883,"29/07/2024 16:35:03",1722274503883,1,"29/07/2024 18:35:03",185160,1,"task-7hcp",NA,39264520,NA,"complete",NA,"computer","Desktop or Laptop","Windows 10","Chrome 126.0.0.0","1280x720","1280x585",NA,NA,0,"BIQ (Charlotte)",5,"HIGAFBECD","Passed AC2","","Spreadsheet1","Spreadsheet1",NA,"","","",NA,"info","END",NA,NA,NA,NA,NA,NA,0,NA,NA,NA,NA,"","",NA,"","",NA,"SUPPRF56835"
1,1722270854874,"29/07/2024 16:34:14",1722256454874,-4,"29/07/2024 08:34:14",185160,1,"task-7hcp",NA,39264537,NA,"complete",NA,"computer","Desktop or Laptop","Mac OS 10.15.7","Chrome 126.0.0.0","1920x1080","1200x844",NA,NA,0,"BIQ (Charlotte)",5,"CDBEAFIGH","Passed AC2","","Spreadsheet1","Spreadsheet1",NA,"","","",NA,"info","BEGIN",NA,NA,NA,NA,NA,NA,0,NA,NA,NA,NA,"","",NA,"","",NA,"SUPPRF95116"
2,1722270859582,"29/07/2024 16:34:19",1722256459582,-4,"29/07/2024 08:34:19",185160,1,"task-7hcp",NA,39264537,NA,"complete",NA,"computer","Desktop or Laptop","Mac OS 10.15.7","Chrome 126.0.0.0","1920x1080","1200x844",NA,NA,0,"BIQ (Charlotte)",5,"CDBEAFIGH","Passed AC2","","Spreadsheet1","Spreadsheet1",1,"BIQ","Screen 1","9dh6eq",1,"continue","",4717.80000001192,4708.6,4717.80000001192,4717.80000001192,4708.6,4717.80000001192,1,4717.80000001192,0,0,NA,"Click To Continue","Continue Button",16,"object-48","BIQ",NA,"SUPPRF95116"
3,1722270859583,"29/07/2024 16:34:19",1722256459583,-4,"29/07/2024 08:34:19",185160,1,"task-7hcp",NA,39264537,NA,"complete",NA,"computer","Desktop or Laptop","Mac OS 10.15.7","Chrome 126.0.0.0","1920x1080","1200x844",NA,NA,0,"BIQ (Charlotte)",5,"CDBEAFIGH","Passed AC2","","Spreadsheet1","Spreadsheet1",1,"BIQ","Screen 1","9dh6eq",1,"response","6",1293.6,4708.6,4719.70000004768,1293.6,4708.6,4719.70000004768,1,1293.6,3426.10000004768,0,NA,"Rating Scale","Rating Scale",3,"object-5","BIQ",NA,"SUPPRF95116"
4,1722270859583,"29/07/2024 16:34:19",1722256459583,-4,"29/07/2024 08:34:19",185160,1,"task-7hcp",NA,39264537,NA,"complete",NA,"computer","Desktop or Laptop","Mac OS 10.15.7","Chrome 126.0.0.0","1920x1080","1200x844",NA,NA,0,"BIQ (Charlotte)",5,"CDBEAFIGH","Passed AC2","","Spreadsheet1","Spreadsheet1",1,"BIQ","Screen 1","9dh6eq",1,"response","4",1934.2,4708.6,4720,1934.2,4708.6,4720,1,1934.2,2785.8,0,NA,"Rating Scale","Rating Scale",10,"object-18","BIQ",NA,"SUPPRF95116"
5,1722270863087,"29/07/2024 16:34:23",1722256463087,-4,"29/07/2024 08:34:23",185160,1,"task-7hcp",NA,39264537,NA,"complete",NA,"computer","Desktop or Laptop","Mac OS 10.15.7","Chrome 126.0.0.0","1920x1080","1200x844",NA,NA,0,"BIQ (Charlotte)",5,"CDBEAFIGH","Passed AC2","","Spreadsheet1","Spreadsheet1",1,"BIQ","Screen 2","svpz34",2,"continue","",3515.00000002384,3507.8,3515.00000002384,3515.00000002384,3507.8,3515.00000002384,1,3515.00000002384,0,0,NA,"Click To Continue","Continue Button",7,"object-1017","BIQ",NA,"SUPPRF95116"
6,1722270863087,"29/07/2024 16:34:23",1722256463087,-4,"29/07/2024 08:34:23",185160,1,"task-7hcp",NA,39264537,NA,"complete",NA,"computer","Desktop or Laptop","Mac OS 10.15.7","Chrome 126.0.0.0","1920x1080","1200x844",NA,NA,0,"BIQ (Charlotte)",5,"CDBEAFIGH","Passed AC2","","Spreadsheet1","Spreadsheet1",1,"BIQ","Screen 2","svpz34",2,"response","7",2134.1,3507.8,3515.50000002384,2134.1,3507.8,3515.50000002384,1,2134.1,1381.40000002384,0,NA,"Rating Scale","Rating Scale",8,"object-118","BIQ",NA,"SUPPRF95116"
7,1722270863088,"29/07/2024 16:34:23",1722256463088,-4,"29/07/2024 08:34:23",185160,1,"task-7hcp",NA,39264537,NA,"complete",NA,"computer","Desktop or Laptop","Mac OS 10.15.7","Chrome 126.0.0.0","1920x1080","1200x844",NA,NA,0,"BIQ (Charlotte)",5,"CDBEAFIGH","Passed AC2","","Spreadsheet1","Spreadsheet1",1,"BIQ","Screen 2","svpz34",2,"response","5",2681,3507.8,3515.9,2681,3507.8,3515.9,1,2681,834.9,0,NA,"Rating Scale","Rating Scale",10,"object-121","BIQ",NA,"SUPPRF95116"
8,1722270867069,"29/07/2024 16:34:27",1722256467069,-4,"29/07/2024 08:34:27",185160,1,"task-7hcp",NA,39264537,NA,"complete",NA,"computer","Desktop or Laptop","Mac OS 10.15.7","Chrome 126.0.0.0","1920x1080","1200x844",NA,NA,0,"BIQ (Charlotte)",5,"CDBEAFIGH","Passed AC2","","Spreadsheet1","Spreadsheet1",1,"BIQ","Screen 3","o21mwi",3,"continue","",3987.5,3974.6,3987.5,3987.5,3974.6,3987.5,1,3987.5,0,0,NA,"Click To Continue","Continue Button",15,"object-50","BIQ",NA,"SUPPRF95116"
9,1722270867072,"29/07/2024 16:34:27",1722256467072,-4,"29/07/2024 08:34:27",185160,1,"task-7hcp",NA,39264537,NA,"complete",NA,"computer","Desktop or Laptop","Mac OS 10.15.7","Chrome 126.0.0.0","1920x1080","1200x844",NA,NA,0,"BIQ (Charlotte)",5,"CDBEAFIGH","Passed AC2","","Spreadsheet1","Spreadsheet1",1,"BIQ","Screen 3","o21mwi",3,"response","6",2094.3,3974.6,3987.5,2094.3,3974.6,3987.5,1,2094.3,1893.2,0,NA,"Rating Scale","Rating Scale",2,"object-36","BIQ",NA,"SUPPRF95116"
10,1722270867073,"29/07/2024 16:34:27",1722256467073,-4,"29/07/2024 08:34:27",185160,1,"task-7hcp",NA,39264537,NA,"complete",NA,"computer","Desktop or Laptop","Mac OS 10.15.7","Chrome 126.0.0.0","1920x1080","1200x844",NA,NA,0,"BIQ (Charlotte)",5,"CDBEAFIGH","Passed AC2","","Spreadsheet1","Spreadsheet1",1,"BIQ","Screen 3","o21mwi",3,"response","3",2614.5,3974.6,3987.5,2614.5,3974.6,3987.5,1,2614.5,1373,0,NA,"Rating Scale","Rating Scale",9,"object-86","BIQ",NA,"SUPPRF95116"
11,1722270869539,"29/07/2024 16:34:29",1722256469539,-4,"29/07/2024 08:34:29",185160,1,"task-7hcp",NA,39264537,NA,"complete",NA,"computer","Desktop or Laptop","Mac OS 10.15.7","Chrome 126.0.0.0","1920x1080","1200x844",NA,NA,0,"BIQ (Charlotte)",5,"CDBEAFIGH","Passed AC2","","Spreadsheet1","Spreadsheet1",1,"BIQ","Screen 4","iz3the",4,"continue","",2484.80000001192,2481.3,2484.80000001192,2484.80000001192,2481.3,2484.80000001192,1,2484.80000001192,0,0,NA,"Click To Continue","Continue Button",22,"object-73","BIQ",NA,"SUPPRF95116"
12,1722270869539,"29/07/2024 16:34:29",1722256469539,-4,"29/07/2024 08:34:29",185160,1,"task-7hcp",NA,39264537,NA,"complete",NA,"computer","Desktop or Laptop","Mac OS 10.15.7","Chrome 126.0.0.0","1920x1080","1200x844",NA,NA,0,"BIQ (Charlotte)",5,"CDBEAFIGH","Passed AC2","","Spreadsheet1","Spreadsheet1",1,"BIQ","Screen 4","iz3the",4,"response","6",1107.4,2481.3,2485.5,1107.4,2481.3,2485.5,1,1107.4,1378.1,0,NA,"Rating Scale","Rating Scale",2,"object-53","BIQ",NA,"SUPPRF95116"
13,1722270869540,"29/07/2024 16:34:29",1722256469540,-4,"29/07/2024 08:34:29",185160,1,"task-7hcp",NA,39264537,NA,"complete",NA,"computer","Desktop or Laptop","Mac OS 10.15.7","Chrome 126.0.0.0","1920x1080","1200x844",NA,NA,0,"BIQ (Charlotte)",5,"CDBEAFIGH","Passed AC2","","Spreadsheet1","Spreadsheet1",1,"BIQ","Screen 4","iz3the",4,"response","4",1561,2481.3,2485.90000003576,1561,2481.3,2485.90000003576,1,1561,924.900000035763,0,NA,"Rating Scale","Rating Scale",9,"object-60","BIQ",NA,"SUPPRF95116"
14,1722270869540,"29/07/2024 16:34:29",1722256469540,-4,"29/07/2024 08:34:29",185160,1,"task-7hcp",NA,39264537,NA,"complete",NA,"computer","Desktop or Laptop","Mac OS 10.15.7","Chrome 126.0.0.0","1920x1080","1200x844",NA,NA,0,"BIQ (Charlotte)",5,"CDBEAFIGH","Passed AC2","","Spreadsheet1","Spreadsheet1",1,"BIQ","Screen 4","iz3the",4,"response","3",2081.2,2481.3,2486.10000002384,2081.2,2481.3,2486.10000002384,1,2081.2,404.900000023841,0,NA,"Rating Scale","Rating Scale",16,"object-67","BIQ",NA,"SUPPRF95116"
15,1722270869545,"29/07/2024 16:34:29",1722256469545,-4,"29/07/2024 08:34:29",185160,1,"task-7hcp",NA,39264537,NA,"complete",NA,"computer","Desktop or Laptop","Mac OS 10.15.7","Chrome 126.0.0.0","1920x1080","1200x844",NA,NA,0,"BIQ (Charlotte)",5,"CDBEAFIGH","Passed AC2","","Spreadsheet1","Spreadsheet1",NA,"","","",NA,"info","END",NA,NA,NA,NA,NA,NA,0,NA,NA,NA,NA,"","",NA,"","",NA,"SUPPRF95116"
1,1722270889076,"29/07/2024 16:34:49",1722256489076,-4,"29/07/2024 08:34:49",185160,1,"task-7hcp",NA,39264558,NA,"complete",NA,"computer","Desktop or Laptop","Windows 10","Chrome 127.0.0.0","1280x720","1280x593",NA,NA,0,"BIQ (Charlotte)",5,"GHFIEADBC","Passed AC2","","Spreadsheet1","Spreadsheet1",NA,"","","",NA,"info","BEGIN",NA,NA,NA,NA,NA,NA,0,NA,NA,NA,NA,"","",NA,"","",NA,"SUPPRF69466"
2,1722270956862,"29/07/2024 16:35:56",1722256556862,-4,"29/07/2024 08:35:56",185160,1,"task-7hcp",NA,39264558,NA,"complete",NA,"computer","Desktop or Laptop","Windows 10","Chrome 127.0.0.0","1280x720","1280x593",NA,NA,0,"BIQ (Charlotte)",5,"GHFIEADBC","Passed AC2","","Spreadsheet1","Spreadsheet1",1,"BIQ","Screen 1","9dh6eq",1,"continue","",67805.798,67789.198,67805.798,67805.798,67789.198,67805.798,1,67805.798,0,0,NA,"Click To Continue","Continue Button",16,"object-48","BIQ",NA,"SUPPRF69466"
3,1722270956869,"29/07/2024 16:35:56",1722256556869,-4,"29/07/2024 08:35:56",185160,1,"task-7hcp",NA,39264558,NA,"complete",NA,"computer","Desktop or Laptop","Windows 10","Chrome 127.0.0.0","1280x720","1280x593",NA,NA,0,"BIQ (Charlotte)",5,"GHFIEADBC","Passed AC2","","Spreadsheet1","Spreadsheet1",1,"BIQ","Screen 1","9dh6eq",1,"response","6",53028.498,67789.198,67805.798,53028.498,67789.198,67805.798,1,53028.498,14777.3,0,NA,"Rating Scale","Rating Scale",3,"object-5","BIQ",NA,"SUPPRF69466"
4,1722270956870,"29/07/2024 16:35:56",1722256556870,-4,"29/07/2024 08:35:56",185160,1,"task-7hcp",NA,39264558,NA,"complete",NA,"computer","Desktop or Laptop","Windows 10","Chrome 127.0.0.0","1280x720","1280x593",NA,NA,0,"BIQ (Charlotte)",5,"GHFIEADBC","Passed AC2","","Spreadsheet1","Spreadsheet1",1,"BIQ","Screen 1","9dh6eq",1,"response","8",63257.798,67789.198,67805.798,63257.798,67789.198,67805.798,1,63257.798,4548.00000000001,0,NA,"Rating Scale","Rating Scale",10,"object-18","BIQ",NA,"SUPPRF69466"
5,1722270969054,"29/07/2024 16:36:09",1722256569054,-4,"29/07/2024 08:36:09",185160,1,"task-7hcp",NA,39264558,NA,"complete",NA,"computer","Desktop or Laptop","Windows 10","Chrome 127.0.0.0","1280x720","1280x593",NA,NA,0,"BIQ (Charlotte)",5,"GHFIEADBC","Passed AC2","","Spreadsheet1","Spreadsheet1",1,"BIQ","Screen 2","svpz34",2,"continue","",12219.9,12211.8,12219.9,12219.9,12211.8,12219.9,1,12219.9,0,0,NA,"Click To Continue","Continue Button",7,"object-1017","BIQ",NA,"SUPPRF69466"
6,1722270969059,"29/07/2024 16:36:09",1722256569059,-4,"29/07/2024 08:36:09",185160,1,"task-7hcp",NA,39264558,NA,"complete",NA,"computer","Desktop or Laptop","Windows 10","Chrome 127.0.0.0","1280x720","1280x593",NA,NA,0,"BIQ (Charlotte)",5,"GHFIEADBC","Passed AC2","","Spreadsheet1","Spreadsheet1",1,"BIQ","Screen 2","svpz34",2,"response","0",4998.09999999999,12211.8,12225.300000006,4998.09999999999,12211.8,12225.300000006,1,4998.09999999999,7227.20000000596,0,NA,"Rating Scale","Rating Scale",8,"object-118","BIQ",NA,"SUPPRF69466"
