"Event.Index","UTC.Timestamp","UTC.Date.and.Time","Local.Timestamp","Local.Timezone","Local.Date.and.Time","Experiment.ID","Experiment.Version","Tree.Node.Key","Repeat.Key","Schedule.ID","Participant.Private.ID","Participant.Starting.Group","Participant.Status","Participant.Completion.Code","Participant.External.Session.ID","Participant.Device.Type","Participant.Device","Participant.OS","Participant.Browser","Participant.Monitor.Size","Participant.Viewport.Size","Checkpoint","Room.ID","Room.Order","Task.Name","Task.Version","order.ot79","branch.g31k","branch.5gtn","Spreadsheet","Trial.Number","Display","Screen","Screen.ID","Screen.Counter","Response.Type","Response","Onset.Time","Clock.Time","Reaction.Time","Absolute.Onset.Time","Absolute.Clock.Time","Absolute.Reaction.Time","Correct","Response.Onset","Response.Duration","Proportion","Tag","Component.Name","Object.Name","Object.Number","Object.ID","Spreadsheet..display","Manipulation..Spreadsheet","Random_ID"
"1",1706636813184,"30/01/2024 17:46:53",1706636813184,0,"30/01/2024 17:46:53",160285,9,"task-gjqt",NA,34620693,10236980,NA,"rejected - time limit reached",NA,"65b93341b6198f15a1f527da","computer","Desktop or Laptop","Windows 10","Chrome 120.0.0.0","1366x768","1366x645",NA,NA,0,"BIQ (Charlotte)",3,"ABJCIDHEGF","Passed AC2","","Spreadsheet1",NA,"","","",NA,"5","BEGIN",NA,NA,NA,NA,NA,NA,0,NA,NA,NA,NA,"","",NA,"","",NA,"SUPPRF05583"
"2",1706636834647,"30/01/2024 17:47:14",1706636834647,0,"30/01/2024 17:47:14",160285,9,"task-gjqt",NA,34620693,10236980,NA,"rejected - time limit reached",NA,"65b93341b6198f15a1f527da","computer","Desktop or Laptop","Windows 10","Chrome 120.0.0.0","1366x768","1366x645",NA,NA,0,"BIQ (Charlotte)",3,"ABJCIDHEGF","Passed AC2","","Spreadsheet1",1,"BIQ","Screen 1","9dh6eq",1,"continue","",21497.5,21479.9,21497.5,21497.5,21479.9,21497.5,1,21497.5,0,0,NA,"Click To Continue","Continue Button",23,"object-48","BIQ",NA,"SUPPRF05583"
"3",1706636834659,"30/01/2024 17:47:14",1706636834659,0,"30/01/2024 17:47:14",160285,9,"task-gjqt",NA,34620693,10236980,NA,"rejected - time limit reached",NA,"65b93341b6198f15a1f527da","computer","Desktop or Laptop","Windows 10","Chrome 120.0.0.0","1366x768","1366x645",NA,NA,0,"BIQ (Charlotte)",3,"ABJCIDHEGF","Passed AC2","","Spreadsheet1",1,"BIQ","Screen 1","9dh6eq",1,"response","4",10514.7,21479.9,21497.5,10514.7,21479.9,21497.5,1,10514.7,10982.8,0,NA,"Rating Scale","Rating Scale",3,"object-5","BIQ",NA,"SUPPRF05583"
"4",1706636834661,"30/01/2024 17:47:14",1706636834661,0,"30/01/2024 17:47:14",160285,9,"task-gjqt",NA,34620693,10236980,NA,"rejected - time limit reached",NA,"65b93341b6198f15a1f527da","computer","Desktop or Laptop","Windows 10","Chrome 120.0.0.0","1366x768","1366x645",NA,NA,0,"BIQ (Charlotte)",3,"ABJCIDHEGF","Passed AC2","","Spreadsheet1",1,"BIQ","Screen 1","9dh6eq",1,"response","6",15647.2,21479.9,21497.5,15647.2,21479.9,21497.5,1,15647.2,5850.3,0,NA,"Rating Scale","Rating Scale",10,"object-18","BIQ",NA,"SUPPRF05583"
"5",1706636834663,"30/01/2024 17:47:14",1706636834663,0,"30/01/2024 17:47:14",160285,9,"task-gjqt",NA,34620693,10236980,NA,"rejected - time limit reached",NA,"65b93341b6198f15a1f527da","computer","Desktop or Laptop","Windows 10","Chrome 120.0.0.0","1366x768","1366x645",NA,NA,0,"BIQ (Charlotte)",3,"ABJCIDHEGF","Passed AC2","","Spreadsheet1",1,"BIQ","Screen 1","9dh6eq",1,"response","3",20196.1,21479.9,21497.5,20196.1,21479.9,21497.5,1,20196.1,1301.4,0,NA,"Rating Scale","Rating Scale",17,"object-80","BIQ",NA,"SUPPRF05583"
"6",1706636854273,"30/01/2024 17:47:34",1706636854273,0,"30/01/2024 17:47:34",160285,9,"task-gjqt",NA,34620693,10236980,NA,"rejected - time limit reached",NA,"65b93341b6198f15a1f527da","computer","Desktop or Laptop","Windows 10","Chrome 120.0.0.0","1366x768","1366x645",NA,NA,0,"BIQ (Charlotte)",3,"ABJCIDHEGF","Passed AC2","","Spreadsheet1",1,"BIQ","Screen 2","o21mwi",2,"continue","",19641.4,19628.6,19641.4,19641.4,19628.6,19641.4,1,19641.4,0,0,NA,"Click To Continue","Continue Button",22,"object-50","BIQ",NA,"SUPPRF05583"
"7",1706636854286,"30/01/2024 17:47:34",1706636854286,0,"30/01/2024 17:47:34",160285,9,"task-gjqt",NA,34620693,10236980,NA,"rejected - time limit reached",NA,"65b93341b6198f15a1f527da","computer","Desktop or Laptop","Windows 10","Chrome 120.0.0.0","1366x768","1366x645",NA,NA,0,"BIQ (Charlotte)",3,"ABJCIDHEGF","Passed AC2","","Spreadsheet1",1,"BIQ","Screen 2","o21mwi",2,"response","8",6031.3,19628.6,19645.4,6031.3,19628.6,19645.4,1,6031.3,13614.1,0,NA,"Rating Scale","Rating Scale",2,"object-259","BIQ",NA,"SUPPRF05583"
"8",1706636854288,"30/01/2024 17:47:34",1706636854288,0,"30/01/2024 17:47:34",160285,9,"task-gjqt",NA,34620693,10236980,NA,"rejected - time limit reached",NA,"65b93341b6198f15a1f527da","computer","Desktop or Laptop","Windows 10","Chrome 120.0.0.0","1366x768","1366x645",NA,NA,0,"BIQ (Charlotte)",3,"ABJCIDHEGF","Passed AC2","","Spreadsheet1",1,"BIQ","Screen 2","o21mwi",2,"response","0",13713.1,19628.6,19645.4,13713.1,19628.6,19645.4,1,13713.1,5932.3,0,NA,"Rating Scale","Rating Scale",9,"object-36","BIQ",NA,"SUPPRF05583"
"9",1706636854290,"30/01/2024 17:47:34",1706636854290,0,"30/01/2024 17:47:34",160285,9,"task-gjqt",NA,34620693,10236980,NA,"rejected - time limit reached",NA,"65b93341b6198f15a1f527da","computer","Desktop or Laptop","Windows 10","Chrome 120.0.0.0","1366x768","1366x645",NA,NA,0,"BIQ (Charlotte)",3,"ABJCIDHEGF","Passed AC2","","Spreadsheet1",1,"BIQ","Screen 2","o21mwi",2,"response","2",18312.2,19628.6,19645.4,18312.2,19628.6,19645.4,1,18312.2,1333.19999999999,0,NA,"Rating Scale","Rating Scale",16,"object-86","BIQ",NA,"SUPPRF05583"
"10",1706636868858,"30/01/2024 17:47:48",1706636868858,0,"30/01/2024 17:47:48",160285,9,"task-gjqt",NA,34620693,10236980,NA,"rejected - time limit reached",NA,"65b93341b6198f15a1f527da","computer","Desktop or Laptop","Windows 10","Chrome 120.0.0.0","1366x768","1366x645",NA,NA,0,"BIQ (Charlotte)",3,"ABJCIDHEGF","Passed AC2","","Spreadsheet1",1,"BIQ","Screen 3","iz3the",3,"continue","",14597.1,14580.4,14597.1,14597.1,14580.4,14597.1,1,14597.1,0,0,NA,"Click To Continue","Continue Button",22,"object-73","BIQ",NA,"SUPPRF05583"
"11",1706636868869,"30/01/2024 17:47:48",1706636868869,0,"30/01/2024 17:47:48",160285,9,"task-gjqt",NA,34620693,10236980,NA,"rejected - time limit reached",NA,"65b93341b6198f15a1f527da","computer","Desktop or Laptop","Windows 10","Chrome 120.0.0.0","1366x768","1366x645",NA,NA,0,"BIQ (Charlotte)",3,"ABJCIDHEGF","Passed AC2","","Spreadsheet1",1,"BIQ","Screen 3","iz3the",3,"response","2",5598.8,14580.4,14597.1,5598.8,14580.4,14597.1,1,5598.8,8998.3,0,NA,"Rating Scale","Rating Scale",2,"object-53","BIQ",NA,"SUPPRF05583"
"12",1706636868872,"30/01/2024 17:47:48",1706636868872,0,"30/01/2024 17:47:48",160285,9,"task-gjqt",NA,34620693,10236980,NA,"rejected - time limit reached",NA,"65b93341b6198f15a1f527da","computer","Desktop or Laptop","Windows 10","Chrome 120.0.0.0","1366x768","1366x645",NA,NA,0,"BIQ (Charlotte)",3,"ABJCIDHEGF","Passed AC2","","Spreadsheet1",1,"BIQ","Screen 3","iz3the",3,"response","0",9165,14580.4,14597.1,9165,14580.4,14597.1,1,9165,5432.1,0,NA,"Rating Scale","Rating Scale",9,"object-60","BIQ",NA,"SUPPRF05583"
"13",1706636868874,"30/01/2024 17:47:48",1706636868874,0,"30/01/2024 17:47:48",160285,9,"task-gjqt",NA,34620693,10236980,NA,"rejected - time limit reached",NA,"65b93341b6198f15a1f527da","computer","Desktop or Laptop","Windows 10","Chrome 120.0.0.0","1366x768","1366x645",NA,NA,0,"BIQ (Charlotte)",3,"ABJCIDHEGF","Passed AC2","","Spreadsheet1",1,"BIQ","Screen 3","iz3the",3,"response","4",13730.5,14580.4,14597.1,13730.5,14580.4,14597.1,1,13730.5,866.599999999999,0,NA,"Rating Scale","Rating Scale",16,"object-67","BIQ",NA,"SUPPRF05583"
"14",1706636868901,"30/01/2024 17:47:48",1706636868901,0,"30/01/2024 17:47:48",160285,9,"task-gjqt",NA,34620693,10236980,NA,"rejected - time limit reached",NA,"65b93341b6198f15a1f527da","computer","Desktop or Laptop","Windows 10","Chrome 120.0.0.0","1366x768","1366x645",NA,NA,0,"BIQ (Charlotte)",3,"ABJCIDHEGF","Passed AC2","","Spreadsheet1",NA,"","","",NA,"5","END",NA,NA,NA,NA,NA,NA,0,NA,NA,NA,NA,"","",NA,"","",NA,"SUPPRF05583"
"1",1706637305337,"30/01/2024 17:55:05",1706637305337,0,"30/01/2024 17:55:05",160285,9,"task-gjqt",NA,34620873,10237064,NA,"complete",NA,"65b934a1ca7bf6ac7d3875bf","computer","Desktop or Laptop","Windows 10","Chrome 120.0.0.0","1280x720","1280x632",NA,NA,0,"BIQ (Charlotte)",3,"CDBEAFJGIH","Passed AC2","","Spreadsheet1",NA,"","","",NA,"5","BEGIN",NA,NA,NA,NA,NA,NA,0,NA,NA,NA,NA,"","",NA,"","",NA,"SUPPRF02465"
"2",1706637380255,"30/01/2024 17:56:20",1706637380255,0,"30/01/2024 17:56:20",160285,9,"task-gjqt",NA,34620873,10237064,NA,"complete",NA,"65b934a1ca7bf6ac7d3875bf","computer","Desktop or Laptop","Windows 10","Chrome 120.0.0.0","1280x720","1280x632",NA,NA,0,"BIQ (Charlotte)",3,"CDBEAFJGIH","Passed AC2","","Spreadsheet1",1,"BIQ","Screen 1","9dh6eq",1,"continue","",74922.2,74905.4,74922.2,74922.2,74905.4,74922.2,1,74922.2,0,0,NA,"Click To Continue","Continue Button",23,"object-48","BIQ",NA,"SUPPRF02465"
"3",1706637380257,"30/01/2024 17:56:20",1706637380257,0,"30/01/2024 17:56:20",160285,9,"task-gjqt",NA,34620873,10237064,NA,"complete",NA,"65b934a1ca7bf6ac7d3875bf","computer","Desktop or Laptop","Windows 10","Chrome 120.0.0.0","1280x720","1280x632",NA,NA,0,"BIQ (Charlotte)",3,"CDBEAFJGIH","Passed AC2","","Spreadsheet1",1,"BIQ","Screen 1","9dh6eq",1,"response","6",56236.8,74905.4,74922.2,56236.8,74905.4,74922.2,1,56236.8,18685.4,0,NA,"Rating Scale","Rating Scale",3,"object-5","BIQ",NA,"SUPPRF02465"
"4",1706637380257,"30/01/2024 17:56:20",1706637380257,0,"30/01/2024 17:56:20",160285,9,"task-gjqt",NA,34620873,10237064,NA,"complete",NA,"65b934a1ca7bf6ac7d3875bf","computer","Desktop or Laptop","Windows 10","Chrome 120.0.0.0","1280x720","1280x632",NA,NA,0,"BIQ (Charlotte)",3,"CDBEAFJGIH","Passed AC2","","Spreadsheet1",1,"BIQ","Screen 1","9dh6eq",1,"response","4",65746.1,74905.4,74922.2,65746.1,74905.4,74922.2,1,65746.1,9176.10000000001,0,NA,"Rating Scale","Rating Scale",10,"object-18","BIQ",NA,"SUPPRF02465"
"5",1706637380257,"30/01/2024 17:56:20",1706637380257,0,"30/01/2024 17:56:20",160285,9,"task-gjqt",NA,34620873,10237064,NA,"complete",NA,"65b934a1ca7bf6ac7d3875bf","computer","Desktop or Laptop","Windows 10","Chrome 120.0.0.0","1280x720","1280x632",NA,NA,0,"BIQ (Charlotte)",3,"CDBEAFJGIH","Passed AC2","","Spreadsheet1",1,"BIQ","Screen 1","9dh6eq",1,"response","6",73656,74905.4,74922.2,73656,74905.4,74922.2,1,73656,1266.2,0,NA,"Rating Scale","Rating Scale",17,"object-80","BIQ",NA,"SUPPRF02465"
"6",1706637404917,"30/01/2024 17:56:44",1706637404917,0,"30/01/2024 17:56:44",160285,9,"task-gjqt",NA,34620873,10237064,NA,"complete",NA,"65b934a1ca7bf6ac7d3875bf","computer","Desktop or Laptop","Windows 10","Chrome 120.0.0.0","1280x720","1280x632",NA,NA,0,"BIQ (Charlotte)",3,"CDBEAFJGIH","Passed AC2","","Spreadsheet1",1,"BIQ","Screen 2","o21mwi",2,"continue","",24678.7,24662.3,24678.7,24678.7,24662.3,24678.7,1,24678.7,0,0,NA,"Click To Continue","Continue Button",22,"object-50","BIQ",NA,"SUPPRF02465"
"7",1706637404919,"30/01/2024 17:56:44",1706637404919,0,"30/01/2024 17:56:44",160285,9,"task-gjqt",NA,34620873,10237064,NA,"complete",NA,"65b934a1ca7bf6ac7d3875bf","computer","Desktop or Laptop","Windows 10","Chrome 120.0.0.0","1280x720","1280x632",NA,NA,0,"BIQ (Charlotte)",3,"CDBEAFJGIH","Passed AC2","","Spreadsheet1",1,"BIQ","Screen 2","o21mwi",2,"response","6",6877.60000000001,24662.3,24678.7,6877.60000000001,24662.3,24678.7,1,6877.60000000001,17801.1,0,NA,"Rating Scale","Rating Scale",2,"object-259","BIQ",NA,"SUPPRF02465"
"8",1706637404920,"30/01/2024 17:56:44",1706637404920,0,"30/01/2024 17:56:44",160285,9,"task-gjqt",NA,34620873,10237064,NA,"complete",NA,"65b934a1ca7bf6ac7d3875bf","computer","Desktop or Laptop","Windows 10","Chrome 120.0.0.0","1280x720","1280x632",NA,NA,0,"BIQ (Charlotte)",3,"CDBEAFJGIH","Passed AC2","","Spreadsheet1",1,"BIQ","Screen 2","o21mwi",2,"response","4",10207.8,24662.3,24678.7,10207.8,24662.3,24678.7,1,10207.8,14470.9,0,NA,"Rating Scale","Rating Scale",9,"object-36","BIQ",NA,"SUPPRF02465"
"9",1706637404920,"30/01/2024 17:56:44",1706637404920,0,"30/01/2024 17:56:44",160285,9,"task-gjqt",NA,34620873,10237064,NA,"complete",NA,"65b934a1ca7bf6ac7d3875bf","computer","Desktop or Laptop","Windows 10","Chrome 120.0.0.0","1280x720","1280x632",NA,NA,0,"BIQ (Charlotte)",3,"CDBEAFJGIH","Passed AC2","","Spreadsheet1",1,"BIQ","Screen 2","o21mwi",2,"response","7",23696.7,24662.3,24678.7,23696.7,24662.3,24678.7,1,23696.7,982,0,NA,"Rating Scale","Rating Scale",16,"object-86","BIQ",NA,"SUPPRF02465"
"10",1706637419526,"30/01/2024 17:56:59",1706637419526,0,"30/01/2024 17:56:59",160285,9,"task-gjqt",NA,34620873,10237064,NA,"complete",NA,"65b934a1ca7bf6ac7d3875bf","computer","Desktop or Laptop","Windows 10","Chrome 120.0.0.0","1280x720","1280x632",NA,NA,0,"BIQ (Charlotte)",3,"CDBEAFJGIH","Passed AC2","","Spreadsheet1",1,"BIQ","Screen 3","iz3the",3,"continue","",14630.8999999985,14621.7,14630.8999999985,14630.8999999985,14621.7,14630.8999999985,1,14630.8999999985,0,0,NA,"Click To Continue","Continue Button",22,"object-73","BIQ",NA,"SUPPRF02465"
"11",1706637419528,"30/01/2024 17:56:59",1706637419528,0,"30/01/2024 17:56:59",160285,9,"task-gjqt",NA,34620873,10237064,NA,"complete",NA,"65b934a1ca7bf6ac7d3875bf","computer","Desktop or Laptop","Windows 10","Chrome 120.0.0.0","1280x720","1280x632",NA,NA,0,"BIQ (Charlotte)",3,"CDBEAFJGIH","Passed AC2","","Spreadsheet1",1,"BIQ","Screen 3","iz3the",3,"response","2",6994.60000000001,14621.7,14633.1000000015,6994.60000000001,14621.7,14633.1000000015,1,6994.60000000001,7638.50000000148,0,NA,"Rating Scale","Rating Scale",2,"object-53","BIQ",NA,"SUPPRF02465"
"12",1706637419528,"30/01/2024 17:56:59",1706637419528,0,"30/01/2024 17:56:59",160285,9,"task-gjqt",NA,34620873,10237064,NA,"complete",NA,"65b934a1ca7bf6ac7d3875bf","computer","Desktop or Laptop","Windows 10","Chrome 120.0.0.0","1280x720","1280x632",NA,NA,0,"BIQ (Charlotte)",3,"CDBEAFJGIH","Passed AC2","","Spreadsheet1",1,"BIQ","Screen 3","iz3the",3,"response","6",9709.39999999999,14621.7,14633.3999999985,9709.39999999999,14621.7,14633.3999999985,1,9709.39999999999,4923.99999999852,0,NA,"Rating Scale","Rating Scale",9,"object-60","BIQ",NA,"SUPPRF02465"
"13",1706637419528,"30/01/2024 17:56:59",1706637419528,0,"30/01/2024 17:56:59",160285,9,"task-gjqt",NA,34620873,10237064,NA,"complete",NA,"65b934a1ca7bf6ac7d3875bf","computer","Desktop or Laptop","Windows 10","Chrome 120.0.0.0","1280x720","1280x632",NA,NA,0,"BIQ (Charlotte)",3,"CDBEAFJGIH","Passed AC2","","Spreadsheet1",1,"BIQ","Screen 3","iz3the",3,"response","4",13772.6,14621.7,14633.6999999955,13772.6,14621.7,14633.6999999955,1,13772.6,861.099999995524,0,NA,"Rating Scale","Rating Scale",16,"object-67","BIQ",NA,"SUPPRF02465"
"14",1706637419531,"30/01/2024 17:56:59",1706637419531,0,"30/01/2024 17:56:59",160285,9,"task-gjqt",NA,34620873,10237064,NA,"complete",NA,"65b934a1ca7bf6ac7d3875bf","computer","Desktop or Laptop","Windows 10","Chrome 120.0.0.0","1280x720","1280x632",NA,NA,0,"BIQ (Charlotte)",3,"CDBEAFJGIH","Passed AC2","","Spreadsheet1",NA,"","","",NA,"5","END",NA,NA,NA,NA,NA,NA,0,NA,NA,NA,NA,"","",NA,"","",NA,"SUPPRF02465"
"1",1706637173507,"30/01/2024 17:52:53",1706640773507,1,"30/01/2024 19:52:53",160285,9,"task-gjqt",NA,34620876,10237168,NA,"complete",NA,"65b93679f5c895675cbe6a17","computer","Desktop or Laptop","Windows 10","Chrome 121.0.0.0","1280x720","1280x585",NA,NA,0,"BIQ (Charlotte)",3,"EFDGCHBIAJ","Passed AC2","","Spreadsheet1",NA,"","","",NA,"5","BEGIN",NA,NA,NA,NA,NA,NA,0,NA,NA,NA,NA,"","",NA,"","",NA,"SUPPRF14713"
"2",1706637254264,"30/01/2024 17:54:14",1706640854264,1,"30/01/2024 19:54:14",160285,9,"task-gjqt",NA,34620876,10237168,NA,"complete",NA,"65b93679f5c895675cbe6a17","computer","Desktop or Laptop","Windows 10","Chrome 121.0.0.0","1280x720","1280x585",NA,NA,0,"BIQ (Charlotte)",3,"EFDGCHBIAJ","Passed AC2","","Spreadsheet1",1,"BIQ","Screen 1","9dh6eq",1,"continue","",80800.699999994,80790,80800.699999994,80800.699999994,80790,80800.699999994,1,80800.699999994,0,0,NA,"Click To Continue","Continue Button",23,"object-48","BIQ",NA,"SUPPRF14713"
"3",1706637254267,"30/01/2024 17:54:14",1706640854267,1,"30/01/2024 19:54:14",160285,9,"task-gjqt",NA,34620876,10237168,NA,"complete",NA,"65b93679f5c895675cbe6a17","computer","Desktop or Laptop","Windows 10","Chrome 121.0.0.0","1280x720","1280x585",NA,NA,0,"BIQ (Charlotte)",3,"EFDGCHBIAJ","Passed AC2","","Spreadsheet1",1,"BIQ","Screen 1","9dh6eq",1,"response","6",36444.5,80790,80804.2999999881,36444.5,80790,80804.2999999881,1,36444.5,44359.7999999881,0,NA,"Rating Scale","Rating Scale",3,"object-5","BIQ",NA,"SUPPRF14713"
"4",1706637254267,"30/01/2024 17:54:14",1706640854267,1,"30/01/2024 19:54:14",160285,9,"task-gjqt",NA,34620876,10237168,NA,"complete",NA,"65b93679f5c895675cbe6a17","computer","Desktop or Laptop","Windows 10","Chrome 121.0.0.0","1280x720","1280x585",NA,NA,0,"BIQ (Charlotte)",3,"EFDGCHBIAJ","Passed AC2","","Spreadsheet1",1,"BIQ","Screen 1","9dh6eq",1,"response","0",73437.8,80790,80804.9999999911,73437.8,80790,80804.9999999911,1,73437.8,7367.19999999106,0,NA,"Rating Scale","Rating Scale",10,"object-18","BIQ",NA,"SUPPRF14713"
"5",1706637254269,"30/01/2024 17:54:14",1706640854269,1,"30/01/2024 19:54:14",160285,9,"task-gjqt",NA,34620876,10237168,NA,"complete",NA,"65b93679f5c895675cbe6a17","computer","Desktop or Laptop","Windows 10","Chrome 121.0.0.0","1280x720","1280x585",NA,NA,0,"BIQ (Charlotte)",3,"EFDGCHBIAJ","Passed AC2","","Spreadsheet1",1,"BIQ","Screen 1","9dh6eq",1,"response","0",33593.8,80790,80805.9999999911,33593.8,80790,80805.9999999911,1,33593.8,47212.1999999911,0,NA,"Rating Scale","Rating Scale",17,"object-80","BIQ",NA,"SUPPRF14713"
"6",1706637267193,"30/01/2024 17:54:27",1706640867193,1,"30/01/2024 19:54:27",160285,9,"task-gjqt",NA,34620876,10237168,NA,"complete",NA,"65b93679f5c895675cbe6a17","computer","Desktop or Laptop","Windows 10","Chrome 121.0.0.0","1280x720","1280x585",NA,NA,0,"BIQ (Charlotte)",3,"EFDGCHBIAJ","Passed AC2","","Spreadsheet1",1,"BIQ","Screen 2","o21mwi",2,"continue","",12940.899999997,12936.4,12940.899999997,12940.899999997,12936.4,12940.899999997,1,12940.899999997,0,0,NA,"Click To Continue","Continue Button",22,"object-50","BIQ",NA,"SUPPRF14713"
"7",1706637282045,"30/01/2024 17:54:42",1706640882045,1,"30/01/2024 19:54:42",160285,9,"task-gjqt",NA,34620876,10237168,NA,"complete",NA,"65b93679f5c895675cbe6a17","computer","Desktop or Laptop","Windows 10","Chrome 121.0.0.0","1280x720","1280x585",NA,NA,0,"BIQ (Charlotte)",3,"EFDGCHBIAJ","Passed AC2","","Spreadsheet1",1,"BIQ","Screen 2","o21mwi",2,"continue","",27792.2999999881,27790.4,27792.2999999881,27792.2999999881,27790.4,27792.2999999881,1,27792.2999999881,0,0,NA,"Click To Continue","Continue Button",22,"object-50","BIQ",NA,"SUPPRF14713"
"8",1706637282046,"30/01/2024 17:54:42",1706640882046,1,"30/01/2024 19:54:42",160285,9,"task-gjqt",NA,34620876,10237168,NA,"complete",NA,"65b93679f5c895675cbe6a17","computer","Desktop or Laptop","Windows 10","Chrome 121.0.0.0","1280x720","1280x585",NA,NA,0,"BIQ (Charlotte)",3,"EFDGCHBIAJ","Passed AC2","","Spreadsheet1",1,"BIQ","Screen 2","o21mwi",2,"response","7",20155.5,27790.4,27794.199999994,20155.5,27790.4,27794.199999994,1,20155.5,7638.69999999405,0,NA,"Rating Scale","Rating Scale",2,"object-259","BIQ",NA,"SUPPRF14713"
"9",1706637282047,"30/01/2024 17:54:42",1706640882047,1,"30/01/2024 19:54:42",160285,9,"task-gjqt",NA,34620876,10237168,NA,"complete",NA,"65b93679f5c895675cbe6a17","computer","Desktop or Laptop","Windows 10","Chrome 121.0.0.0","1280x720","1280x585",NA,NA,0,"BIQ (Charlotte)",3,"EFDGCHBIAJ","Passed AC2","","Spreadsheet1",1,"BIQ","Screen 2","o21mwi",2,"response","1",9535.5,27790.4,27794.699999994,9535.5,27790.4,27794.699999994,1,9535.5,18259.199999994,0,NA,"Rating Scale","Rating Scale",9,"object-36","BIQ",NA,"SUPPRF14713"
"10",1706637282048,"30/01/2024 17:54:42",1706640882048,1,"30/01/2024 19:54:42",160285,9,"task-gjqt",NA,34620876,10237168,NA,"complete",NA,"65b93679f5c895675cbe6a17","computer","Desktop or Laptop","Windows 10","Chrome 121.0.0.0","1280x720","1280x585",NA,NA,0,"BIQ (Charlotte)",3,"EFDGCHBIAJ","Passed AC2","","Spreadsheet1",1,"BIQ","Screen 2","o21mwi",2,"response","0",11602.8,27790.4,27795.399999997,11602.8,27790.4,27795.399999997,1,11602.8,16192.599999997,0,NA,"Rating Scale","Rating Scale",16,"object-86","BIQ",NA,"SUPPRF14713"
"11",1706637325076,"30/01/2024 17:55:25",1706640925076,1,"30/01/2024 19:55:25",160285,9,"task-gjqt",NA,34620876,10237168,NA,"complete",NA,"65b93679f5c895675cbe6a17","computer","Desktop or Laptop","Windows 10","Chrome 121.0.0.0","1280x720","1280x585",NA,NA,0,"BIQ (Charlotte)",3,"EFDGCHBIAJ","Passed AC2","","Spreadsheet1",1,"BIQ","Screen 3","iz3the",3,"continue","",43033.7,43028.7,43033.7,43033.7,43028.7,43033.7,1,43033.7,0,0,NA,"Click To Continue","Continue Button",22,"object-73","BIQ",NA,"SUPPRF14713"
"12",1706637325079,"30/01/2024 17:55:25",1706640925079,1,"30/01/2024 19:55:25",160285,9,"task-gjqt",NA,34620876,10237168,NA,"complete",NA,"65b93679f5c895675cbe6a17","computer","Desktop or Laptop","Windows 10","Chrome 121.0.0.0","1280x720","1280x585",NA,NA,0,"BIQ (Charlotte)",3,"EFDGCHBIAJ","Passed AC2","","Spreadsheet1",1,"BIQ","Screen 3","iz3the",3,"response","1",5551.59999999999,43028.7,43036.7,5551.59999999999,43028.7,43036.7,1,5551.59999999999,37485.1,0,NA,"Rating Scale","Rating Scale",2,"object-53","BIQ",NA,"SUPPRF14713"
"13",1706637325080,"30/01/2024 17:55:25",1706640925080,1,"30/01/2024 19:55:25",160285,9,"task-gjqt",NA,34620876,10237168,NA,"complete",NA,"65b93679f5c895675cbe6a17","computer","Desktop or Laptop","Windows 10","Chrome 121.0.0.0","1280x720","1280x585",NA,NA,0,"BIQ (Charlotte)",3,"EFDGCHBIAJ","Passed AC2","","Spreadsheet1",1,"BIQ","Screen 3","iz3the",3,"response","1",28574.4,43028.7,43037.7,28574.4,43028.7,43037.7,1,28574.4,14463.3,0,NA,"Rating Scale","Rating Scale",9,"object-60","BIQ",NA,"SUPPRF14713"
"14",1706637325081,"30/01/2024 17:55:25",1706640925081,1,"30/01/2024 19:55:25",160285,9,"task-gjqt",NA,34620876,10237168,NA,"complete",NA,"65b93679f5c895675cbe6a17","computer","Desktop or Laptop","Windows 10","Chrome 121.0.0.0","1280x720","1280x585",NA,NA,0,"BIQ (Charlotte)",3,"EFDGCHBIAJ","Passed AC2","","Spreadsheet1",1,"BIQ","Screen 3","iz3the",3,"response","7",31075.2,43028.7,43038.3999999881,31075.2,43028.7,43038.3999999881,1,31075.2,11963.1999999881,0,NA,"Rating Scale","Rating Scale",16,"object-67","BIQ",NA,"SUPPRF14713"
"15",1706637325089,"30/01/2024 17:55:25",1706640925089,1,"30/01/2024 19:55:25",160285,9,"task-gjqt",NA,34620876,10237168,NA,"complete",NA,"65b93679f5c895675cbe6a17","computer","Desktop or Laptop","Windows 10","Chrome 121.0.0.0","1280x720","1280x585",NA,NA,0,"BIQ (Charlotte)",3,"EFDGCHBIAJ","Passed AC2","","Spreadsheet1",NA,"","","",NA,"5","END",NA,NA,NA,NA,NA,NA,0,NA,NA,NA,NA,"","",NA,"","",NA,"SUPPRF14713"
"1",1706637930305,"30/01/2024 18:05:30",1706637930305,0,"30/01/2024 18:05:30",160285,9,"task-gjqt",NA,34621348,10237233,NA,"rejected - time limit reached",NA,"65b9385c8f9fe441709b5b97","computer","Desktop or Laptop","Windows 10","Chrome 120.0.0.0","1280x720","1280x559",NA,NA,0,"BIQ (Charlotte)",3,"FGEHDICJBA","Passed AC2","","Spreadsheet1",NA,"","","",NA,"5","BEGIN",NA,NA,NA,NA,NA,NA,0,NA,NA,NA,NA,"","",NA,"","",NA,"SUPPRF27286"
"2",1706637949883,"30/01/2024 18:05:49",1706637949883,0,"30/01/2024 18:05:49",160285,9,"task-gjqt",NA,34621348,10237233,NA,"rejected - time limit reached",NA,"65b9385c8f9fe441709b5b97","computer","Desktop or Laptop","Windows 10","Chrome 120.0.0.0","1280x720","1280x559",NA,NA,0,"BIQ (Charlotte)",3,"FGEHDICJBA","Passed AC2","","Spreadsheet1",1,"BIQ","Screen 1","9dh6eq",1,"continue","",19595.5000000179,19583.5,19595.5000000179,19595.5000000179,19583.5,19595.5000000179,1,19595.5000000179,0,0,NA,"Click To Continue","Continue Button",23,"object-48","BIQ",NA,"SUPPRF27286"
"3",1706637949886,"30/01/2024 18:05:49",1706637949886,0,"30/01/2024 18:05:49",160285,9,"task-gjqt",NA,34621348,10237233,NA,"rejected - time limit reached",NA,"65b9385c8f9fe441709b5b97","computer","Desktop or Laptop","Windows 10","Chrome 120.0.0.0","1280x720","1280x559",NA,NA,0,"BIQ (Charlotte)",3,"FGEHDICJBA","Passed AC2","","Spreadsheet1",1,"BIQ","Screen 1","9dh6eq",1,"response","2",12916.9,19583.5,19600.1,12916.9,19583.5,19600.1,1,12916.9,6683.2,0,NA,"Rating Scale","Rating Scale",3,"object-5","BIQ",NA,"SUPPRF27286"
"4",1706637949887,"30/01/2024 18:05:49",1706637949887,0,"30/01/2024 18:05:49",160285,9,"task-gjqt",NA,34621348,10237233,NA,"rejected - time limit reached",NA,"65b9385c8f9fe441709b5b97","computer","Desktop or Laptop","Windows 10","Chrome 120.0.0.0","1280x720","1280x559",NA,NA,0,"BIQ (Charlotte)",3,"FGEHDICJBA","Passed AC2","","Spreadsheet1",1,"BIQ","Screen 1","9dh6eq",1,"response","5",15483.6,19583.5,19600.1,15483.6,19583.5,19600.1,1,15483.6,4116.5,0,NA,"Rating Scale","Rating Scale",10,"object-18","BIQ",NA,"SUPPRF27286"
"5",1706637949887,"30/01/2024 18:05:49",1706637949887,0,"30/01/2024 18:05:49",160285,9,"task-gjqt",NA,34621348,10237233,NA,"rejected - time limit reached",NA,"65b9385c8f9fe441709b5b97","computer","Desktop or Laptop","Windows 10","Chrome 120.0.0.0","1280x720","1280x559",NA,NA,0,"BIQ (Charlotte)",3,"FGEHDICJBA","Passed AC2","","Spreadsheet1",1,"BIQ","Screen 1","9dh6eq",1,"response","2",18550.3,19583.5,19600.1,18550.3,19583.5,19600.1,1,18550.3,1049.8,0,NA,"Rating Scale","Rating Scale",17,"object-80","BIQ",NA,"SUPPRF27286"
"6",1706637961360,"30/01/2024 18:06:01",1706637961360,0,"30/01/2024 18:06:01",160285,9,"task-gjqt",NA,34621348,10237233,NA,"rejected - time limit reached",NA,"65b9385c8f9fe441709b5b97","computer","Desktop or Laptop","Windows 10","Chrome 120.0.0.0","1280x720","1280x559",NA,NA,0,"BIQ (Charlotte)",3,"FGEHDICJBA","Passed AC2","","Spreadsheet1",1,"BIQ","Screen 2","o21mwi",2,"continue","",11490.200000006,11483.5,11490.200000006,11490.200000006,11483.5,11490.200000006,1,11490.200000006,0,0,NA,"Click To Continue","Continue Button",22,"object-50","BIQ",NA,"SUPPRF27286"
"7",1706637961362,"30/01/2024 18:06:01",1706637961362,0,"30/01/2024 18:06:01",160285,9,"task-gjqt",NA,34621348,10237233,NA,"rejected - time limit reached",NA,"65b9385c8f9fe441709b5b97","computer","Desktop or Laptop","Windows 10","Chrome 120.0.0.0","1280x720","1280x559",NA,NA,0,"BIQ (Charlotte)",3,"FGEHDICJBA","Passed AC2","","Spreadsheet1",1,"BIQ","Screen 2","o21mwi",2,"response","5",2500.2,11483.5,11492.3,2500.2,11483.5,11492.3,1,2500.2,8992.1,0,NA,"Rating Scale","Rating Scale",2,"object-259","BIQ",NA,"SUPPRF27286"
"8",1706637961362,"30/01/2024 18:06:01",1706637961362,0,"30/01/2024 18:06:01",160285,9,"task-gjqt",NA,34621348,10237233,NA,"rejected - time limit reached",NA,"65b9385c8f9fe441709b5b97","computer","Desktop or Laptop","Windows 10","Chrome 120.0.0.0","1280x720","1280x559",NA,NA,0,"BIQ (Charlotte)",3,"FGEHDICJBA","Passed AC2","","Spreadsheet1",1,"BIQ","Screen 2","o21mwi",2,"response","2",4450.3,11483.5,11492.6000000119,4450.3,11483.5,11492.6000000119,1,4450.3,7042.30000001192,0,NA,"Rating Scale","Rating Scale",9,"object-36","BIQ",NA,"SUPPRF27286"
"9",1706637961362,"30/01/2024 18:06:01",1706637961362,0,"30/01/2024 18:06:01",160285,9,"task-gjqt",NA,34621348,10237233,NA,"rejected - time limit reached",NA,"65b9385c8f9fe441709b5b97","computer","Desktop or Laptop","Windows 10","Chrome 120.0.0.0","1280x720","1280x559",NA,NA,0,"BIQ (Charlotte)",3,"FGEHDICJBA","Passed AC2","","Spreadsheet1",1,"BIQ","Screen 2","o21mwi",2,"response","5",10800.3,11483.5,11493.1000000119,10800.3,11483.5,11493.1000000119,1,10800.3,692.800000011921,0,NA,"Rating Scale","Rating Scale",16,"object-86","BIQ",NA,"SUPPRF27286"
"10",1706637972018,"30/01/2024 18:06:12",1706637972018,0,"30/01/2024 18:06:12",160285,9,"task-gjqt",NA,34621348,10237233,NA,"rejected - time limit reached",NA,"65b9385c8f9fe441709b5b97","computer","Desktop or Laptop","Windows 10","Chrome 120.0.0.0","1280x720","1280x559",NA,NA,0,"BIQ (Charlotte)",3,"FGEHDICJBA","Passed AC2","","Spreadsheet1",1,"BIQ","Screen 3","iz3the",3,"continue","",10664.5000000179,10650.2,10664.5000000179,10664.5000000179,10650.2,10664.5000000179,1,10664.5000000179,0,0,NA,"Click To Continue","Continue Button",22,"object-73","BIQ",NA,"SUPPRF27286"
"11",1706637972023,"30/01/2024 18:06:12",1706637972023,0,"30/01/2024 18:06:12",160285,9,"task-gjqt",NA,34621348,10237233,NA,"rejected - time limit reached",NA,"65b9385c8f9fe441709b5b97","computer","Desktop or Laptop","Windows 10","Chrome 120.0.0.0","1280x720","1280x559",NA,NA,0,"BIQ (Charlotte)",3,"FGEHDICJBA","Passed AC2","","Spreadsheet1",1,"BIQ","Screen 3","iz3the",3,"response","1",3600.3,10650.2,10667,3600.3,10650.2,10667,1,3600.3,7066.7,0,NA,"Rating Scale","Rating Scale",2,"object-53","BIQ",NA,"SUPPRF27286"
"12",1706637972025,"30/01/2024 18:06:12",1706637972025,0,"30/01/2024 18:06:12",160285,9,"task-gjqt",NA,34621348,10237233,NA,"rejected - time limit reached",NA,"65b9385c8f9fe441709b5b97","computer","Desktop or Laptop","Windows 10","Chrome 120.0.0.0","1280x720","1280x559",NA,NA,0,"BIQ (Charlotte)",3,"FGEHDICJBA","Passed AC2","","Spreadsheet1",1,"BIQ","Screen 3","iz3the",3,"response","5",6383.6,10650.2,10667,6383.6,10650.2,10667,1,6383.6,4283.4,0,NA,"Rating Scale","Rating Scale",9,"object-60","BIQ",NA,"SUPPRF27286"
"13",1706637972026,"30/01/2024 18:06:12",1706637972026,0,"30/01/2024 18:06:12",160285,9,"task-gjqt",NA,34621348,10237233,NA,"rejected - time limit reached",NA,"65b9385c8f9fe441709b5b97","computer","Desktop or Laptop","Windows 10","Chrome 120.0.0.0","1280x720","1280x559",NA,NA,0,"BIQ (Charlotte)",3,"FGEHDICJBA","Passed AC2","","Spreadsheet1",1,"BIQ","Screen 3","iz3the",3,"response","2",9650.3,10650.2,10667,9650.3,10650.2,10667,1,9650.3,1016.7,0,NA,"Rating Scale","Rating Scale",16,"object-67","BIQ",NA,"SUPPRF27286"
"14",1706637972038,"30/01/2024 18:06:12",1706637972038,0,"30/01/2024 18:06:12",160285,9,"task-gjqt",NA,34621348,10237233,NA,"rejected - time limit reached",NA,"65b9385c8f9fe441709b5b97","computer","Desktop or Laptop","Windows 10","Chrome 120.0.0.0","1280x720","1280x559",NA,NA,0,"BIQ (Charlotte)",3,"FGEHDICJBA","Passed AC2","","Spreadsheet1",NA,"","","",NA,"5","END",NA,NA,NA,NA,NA,NA,0,NA,NA,NA,NA,"","",NA,"","",NA,"SUPPRF27286"
"1",1706641088520,"30/01/2024 18:58:08",1706644688520,1,"30/01/2024 20:58:08",160285,9,"task-gjqt",NA,34623168,10237469,NA,"complete",NA,"65b93c284fe43c33e97b9b59","computer","Desktop or Laptop","Windows 10","Chrome 120.0.0.0","1600x900","1600x811",NA,NA,0,"BIQ (Charlotte)",3,"BCADJEIFHG","Passed AC2","","Spreadsheet1",NA,"","","",NA,"5","BEGIN",NA,NA,NA,NA,NA,NA,0,NA,NA,NA,NA,"","",NA,"","",NA,"SUPPRF18180"
"2",1706641145410,"30/01/2024 18:59:05",1706644745410,1,"30/01/2024 20:59:05",160285,9,"task-gjqt",NA,34623168,10237469,NA,"complete",NA,"65b93c284fe43c33e97b9b59","computer","Desktop or Laptop","Windows 10","Chrome 120.0.0.0","1600x900","1600x811",NA,NA,0,"BIQ (Charlotte)",3,"BCADJEIFHG","Passed AC2","","Spreadsheet1",1,"BIQ","Screen 1","9dh6eq",1,"continue","",56919.1999999046,56910.1,56919.1999999046,56919.1999999046,56910.1,56919.1999999046,1,56919.1999999046,0,0,NA,"Click To Continue","Continue Button",23,"object-48","BIQ",NA,"SUPPRF18180"
"3",1706641145414,"30/01/2024 18:59:05",1706644745414,1,"30/01/2024 20:59:05",160285,9,"task-gjqt",NA,34623168,10237469,NA,"complete",NA,"65b93c284fe43c33e97b9b59","computer","Desktop or Laptop","Windows 10","Chrome 120.0.0.0","1600x900","1600x811",NA,NA,0,"BIQ (Charlotte)",3,"BCADJEIFHG","Passed AC2","","Spreadsheet1",1,"BIQ","Screen 1","9dh6eq",1,"response","4",28363.2,56910.1,56924.3000000477,28363.2,56910.1,56924.3000000477,1,28363.2,28561.1000000477,0,NA,"Rating Scale","Rating Scale",3,"object-5","BIQ",NA,"SUPPRF18180"
"4",1706641145415,"30/01/2024 18:59:05",1706644745415,1,"30/01/2024 20:59:05",160285,9,"task-gjqt",NA,34623168,10237469,NA,"complete",NA,"65b93c284fe43c33e97b9b59","computer","Desktop or Laptop","Windows 10","Chrome 120.0.0.0","1600x900","1600x811",NA,NA,0,"BIQ (Charlotte)",3,"BCADJEIFHG","Passed AC2","","Spreadsheet1",1,"BIQ","Screen 1","9dh6eq",1,"response","6",44211.4,56910.1,56925.1999999046,44211.4,56910.1,56925.1999999046,1,44211.4,12713.7999999046,0,NA,"Rating Scale","Rating Scale",10,"object-18","BIQ",NA,"SUPPRF18180"
"5",1706641145415,"30/01/2024 18:59:05",1706644745415,1,"30/01/2024 20:59:05",160285,9,"task-gjqt",NA,34623168,10237469,NA,"complete",NA,"65b93c284fe43c33e97b9b59","computer","Desktop or Laptop","Windows 10","Chrome 120.0.0.0","1600x900","1600x811",NA,NA,0,"BIQ (Charlotte)",3,"BCADJEIFHG","Passed AC2","","Spreadsheet1",1,"BIQ","Screen 1","9dh6eq",1,"response","0",55343.5,56910.1,56925.8000000477,55343.5,56910.1,56925.8000000477,1,55343.5,1582.30000004768,0,NA,"Rating Scale","Rating Scale",17,"object-80","BIQ",NA,"SUPPRF18180"
"6",1706641201120,"30/01/2024 19:00:01",1706644801120,1,"30/01/2024 21:00:01",160285,9,"task-gjqt",NA,34623168,10237469,NA,"complete",NA,"65b93c284fe43c33e97b9b59","computer","Desktop or Laptop","Windows 10","Chrome 120.0.0.0","1600x900","1600x811",NA,NA,0,"BIQ (Charlotte)",3,"BCADJEIFHG","Passed AC2","","Spreadsheet1",1,"BIQ","Screen 2","o21mwi",2,"continue","",55720.5999999046,55710.6,55720.5999999046,55720.5999999046,55710.6,55720.5999999046,1,55720.5999999046,0,0,NA,"Click To Continue","Continue Button",22,"object-50","BIQ",NA,"SUPPRF18180"
"7",1706641201124,"30/01/2024 19:00:01",1706644801124,1,"30/01/2024 21:00:01",160285,9,"task-gjqt",NA,34623168,10237469,NA,"complete",NA,"65b93c284fe43c33e97b9b59","computer","Desktop or Laptop","Windows 10","Chrome 120.0.0.0","1600x900","1600x811",NA,NA,0,"BIQ (Charlotte)",3,"BCADJEIFHG","Passed AC2","","Spreadsheet1",1,"BIQ","Screen 2","o21mwi",2,"response","8",15681.6,55710.6,55724.5,15681.6,55710.6,55724.5,1,15681.6,40042.9,0,NA,"Rating Scale","Rating Scale",2,"object-259","BIQ",NA,"SUPPRF18180"
"8",1706641201125,"30/01/2024 19:00:01",1706644801125,1,"30/01/2024 21:00:01",160285,9,"task-gjqt",NA,34623168,10237469,NA,"complete",NA,"65b93c284fe43c33e97b9b59","computer","Desktop or Laptop","Windows 10","Chrome 120.0.0.0","1600x900","1600x811",NA,NA,0,"BIQ (Charlotte)",3,"BCADJEIFHG","Passed AC2","","Spreadsheet1",1,"BIQ","Screen 2","o21mwi",2,"response","2",23164.1,55710.6,55725.2000000477,23164.1,55710.6,55725.2000000477,1,23164.1,32561.1000000477,0,NA,"Rating Scale","Rating Scale",9,"object-36","BIQ",NA,"SUPPRF18180"
"9",1706641201126,"30/01/2024 19:00:01",1706644801126,1,"30/01/2024 21:00:01",160285,9,"task-gjqt",NA,34623168,10237469,NA,"complete",NA,"65b93c284fe43c33e97b9b59","computer","Desktop or Laptop","Windows 10","Chrome 120.0.0.0","1600x900","1600x811",NA,NA,0,"BIQ (Charlotte)",3,"BCADJEIFHG","Passed AC2","","Spreadsheet1",1,"BIQ","Screen 2","o21mwi",2,"response","2",50377.8,55710.6,55726.0999999046,50377.8,55710.6,55726.0999999046,1,50377.8,5348.29999990463,0,NA,"Rating Scale","Rating Scale",16,"object-86","BIQ",NA,"SUPPRF18180"
"10",1706641290144,"30/01/2024 19:01:30",1706644890144,1,"30/01/2024 21:01:30",160285,9,"task-gjqt",NA,34623168,10237469,NA,"complete",NA,"65b93c284fe43c33e97b9b59","computer","Desktop or Laptop","Windows 10","Chrome 120.0.0.0","1600x900","1600x811",NA,NA,0,"BIQ (Charlotte)",3,"BCADJEIFHG","Passed AC2","","Spreadsheet1",1,"BIQ","Screen 3","iz3the",3,"continue","",89033.1000000477,89023.5,89033.1000000477,89033.1000000477,89023.5,89033.1000000477,1,89033.1000000477,0,0,NA,"Click To Continue","Continue Button",22,"object-73","BIQ",NA,"SUPPRF18180"
"11",1706641290147,"30/01/2024 19:01:30",1706644890147,1,"30/01/2024 21:01:30",160285,9,"task-gjqt",NA,34623168,10237469,NA,"complete",NA,"65b93c284fe43c33e97b9b59","computer","Desktop or Laptop","Windows 10","Chrome 120.0.0.0","1600x900","1600x811",NA,NA,0,"BIQ (Charlotte)",3,"BCADJEIFHG","Passed AC2","","Spreadsheet1",1,"BIQ","Screen 3","iz3the",3,"response","0",73741.8,89023.5,89036.1000000477,73741.8,89023.5,89036.1000000477,1,73741.8,15294.3000000477,0,NA,"Rating Scale","Rating Scale",2,"object-53","BIQ",NA,"SUPPRF18180"
"12",1706641290147,"30/01/2024 19:01:30",1706644890147,1,"30/01/2024 21:01:30",160285,9,"task-gjqt",NA,34623168,10237469,NA,"complete",NA,"65b93c284fe43c33e97b9b59","computer","Desktop or Laptop","Windows 10","Chrome 120.0.0.0","1600x900","1600x811",NA,NA,0,"BIQ (Charlotte)",3,"BCADJEIFHG","Passed AC2","","Spreadsheet1",1,"BIQ","Screen 3","iz3the",3,"response","0",68859,89023.5,89036.8000000954,68859,89023.5,89036.8000000954,1,68859,20177.8000000954,0,NA,"Rating Scale","Rating Scale",9,"object-60","BIQ",NA,"SUPPRF18180"
"13",1706641290148,"30/01/2024 19:01:30",1706644890148,1,"30/01/2024 21:01:30",160285,9,"task-gjqt",NA,34623168,10237469,NA,"complete",NA,"65b93c284fe43c33e97b9b59","computer","Desktop or Laptop","Windows 10","Chrome 120.0.0.0","1600x900","1600x811",NA,NA,0,"BIQ (Charlotte)",3,"BCADJEIFHG","Passed AC2","","Spreadsheet1",1,"BIQ","Screen 3","iz3the",3,"response","7",85057.2,89023.5,89037.4999999046,85057.2,89023.5,89037.4999999046,1,85057.2,3980.29999990464,0,NA,"Rating Scale","Rating Scale",16,"object-67","BIQ",NA,"SUPPRF18180"
"14",1706641290154,"30/01/2024 19:01:30",1706644890154,1,"30/01/2024 21:01:30",160285,9,"task-gjqt",NA,34623168,10237469,NA,"complete",NA,"65b93c284fe43c33e97b9b59","computer","Desktop or Laptop","Windows 10","Chrome 120.0.0.0","1600x900","1600x811",NA,NA,0,"BIQ (Charlotte)",3,"BCADJEIFHG","Passed AC2","","Spreadsheet1",NA,"","","",NA,"5","END",NA,NA,NA,NA,NA,NA,0,NA,NA,NA,NA,"","",NA,"","",NA,"SUPPRF18180"
"1",1706639558122,"30/01/2024 18:32:38",1706639558122,0,"30/01/2024 18:32:38",160285,9,"task-gjqt",NA,34622362,10237476,NA,"complete",NA,"65b93c4e140ee61d635ffcb2","computer","Desktop or Laptop","Windows 10","Chrome 120.0.0.0","1280x720","1920x890",NA,NA,0,"BIQ (Charlotte)",3,"HIGJFAEBDC","Failed AC2","Passed AC1","Spreadsheet1",NA,"","","",NA,"5","BEGIN",NA,NA,NA,NA,NA,NA,0,NA,NA,NA,NA,"","",NA,"","",NA,"SUPPRF74060"
"2",1706639742818,"30/01/2024 18:35:42",1706639742818,0,"30/01/2024 18:35:42",160285,9,"task-gjqt",NA,34622362,10237476,NA,"complete",NA,"65b93c4e140ee61d635ffcb2","computer","Desktop or Laptop","Windows 10","Chrome 120.0.0.0","1280x720","1920x890",NA,NA,0,"BIQ (Charlotte)",3,"HIGJFAEBDC","Failed AC2","Passed AC1","Spreadsheet1",1,"BIQ","Screen 1","9dh6eq",1,"continue","",184713.000000024,184700.5,184713.000000024,184713.000000024,184700.5,184713.000000024,1,184713.000000024,0,0,NA,"Click To Continue","Continue Button",23,"object-48","BIQ",NA,"SUPPRF74060"
"3",1706639742820,"30/01/2024 18:35:42",1706639742820,0,"30/01/2024 18:35:42",160285,9,"task-gjqt",NA,34622362,10237476,NA,"complete",NA,"65b93c4e140ee61d635ffcb2","computer","Desktop or Laptop","Windows 10","Chrome 120.0.0.0","1280x720","1920x890",NA,NA,0,"BIQ (Charlotte)",3,"HIGJFAEBDC","Failed AC2","Passed AC1","Spreadsheet1",1,"BIQ","Screen 1","9dh6eq",1,"response","3",46716.4,184700.5,184715.800000006,46716.4,184700.5,184715.800000006,1,46716.4,137999.400000006,0,NA,"Rating Scale","Rating Scale",3,"object-5","BIQ",NA,"SUPPRF74060"
"4",1706639742821,"30/01/2024 18:35:42",1706639742821,0,"30/01/2024 18:35:42",160285,9,"task-gjqt",NA,34622362,10237476,NA,"complete",NA,"65b93c4e140ee61d635ffcb2","computer","Desktop or Laptop","Windows 10","Chrome 120.0.0.0","1280x720","1920x890",NA,NA,0,"BIQ (Charlotte)",3,"HIGJFAEBDC","Failed AC2","Passed AC1","Spreadsheet1",1,"BIQ","Screen 1","9dh6eq",1,"response","3",113050.4,184700.5,184716.300000006,113050.4,184700.5,184716.300000006,1,113050.4,71665.900000006,0,NA,"Rating Scale","Rating Scale",10,"object-18","BIQ",NA,"SUPPRF74060"
"5",1706639742821,"30/01/2024 18:35:42",1706639742821,0,"30/01/2024 18:35:42",160285,9,"task-gjqt",NA,34622362,10237476,NA,"complete",NA,"65b93c4e140ee61d635ffcb2","computer","Desktop or Laptop","Windows 10","Chrome 120.0.0.0","1280x720","1920x890",NA,NA,0,"BIQ (Charlotte)",3,"HIGJFAEBDC","Failed AC2","Passed AC1","Spreadsheet1",1,"BIQ","Screen 1","9dh6eq",1,"response","6",123283.4,184700.5,184716.700000012,123283.4,184700.5,184716.700000012,1,123283.4,61433.3000000119,0,NA,"Rating Scale","Rating Scale",17,"object-80","BIQ",NA,"SUPPRF74060"
"6",1706639772090,"30/01/2024 18:36:12",1706639772090,0,"30/01/2024 18:36:12",160285,9,"task-gjqt",NA,34622362,10237476,NA,"complete",NA,"65b93c4e140ee61d635ffcb2","computer","Desktop or Laptop","Windows 10","Chrome 120.0.0.0","1280x720","1920x890",NA,NA,0,"BIQ (Charlotte)",3,"HIGJFAEBDC","Failed AC2","Passed AC1","Spreadsheet1",1,"BIQ","Screen 2","o21mwi",2,"continue","",29285.2000000119,29283.2,29285.2000000119,29285.2000000119,29283.2,29285.2000000119,1,29285.2000000119,0,0,NA,"Click To Continue","Continue Button",22,"object-50","BIQ",NA,"SUPPRF74060"
"7",1706639772093,"30/01/2024 18:36:12",1706639772093,0,"30/01/2024 18:36:12",160285,9,"task-gjqt",NA,34622362,10237476,NA,"complete",NA,"65b93c4e140ee61d635ffcb2","computer","Desktop or Laptop","Windows 10","Chrome 120.0.0.0","1280x720","1920x890",NA,NA,0,"BIQ (Charlotte)",3,"HIGJFAEBDC","Failed AC2","Passed AC1","Spreadsheet1",1,"BIQ","Screen 2","o21mwi",2,"response","3",6816.39999999999,29283.2,29287.6000000179,6816.39999999999,29283.2,29287.6000000179,1,6816.39999999999,22471.2000000179,0,NA,"Rating Scale","Rating Scale",2,"object-259","BIQ",NA,"SUPPRF74060"
"8",1706639772093,"30/01/2024 18:36:12",1706639772093,0,"30/01/2024 18:36:12",160285,9,"task-gjqt",NA,34622362,10237476,NA,"complete",NA,"65b93c4e140ee61d635ffcb2","computer","Desktop or Laptop","Windows 10","Chrome 120.0.0.0","1280x720","1920x890",NA,NA,0,"BIQ (Charlotte)",3,"HIGJFAEBDC","Failed AC2","Passed AC1","Spreadsheet1",1,"BIQ","Screen 2","o21mwi",2,"response","7",15099.8,29283.2,29288.300000006,15099.8,29283.2,29288.300000006,1,15099.8,14188.500000006,0,NA,"Rating Scale","Rating Scale",9,"object-36","BIQ",NA,"SUPPRF74060"
"9",1706639772094,"30/01/2024 18:36:12",1706639772094,0,"30/01/2024 18:36:12",160285,9,"task-gjqt",NA,34622362,10237476,NA,"complete",NA,"65b93c4e140ee61d635ffcb2","computer","Desktop or Laptop","Windows 10","Chrome 120.0.0.0","1280x720","1920x890",NA,NA,0,"BIQ (Charlotte)",3,"HIGJFAEBDC","Failed AC2","Passed AC1","Spreadsheet1",1,"BIQ","Screen 2","o21mwi",2,"response","7",28033.2,29283.2,29289.0000000238,28033.2,29283.2,29289.0000000238,1,28033.2,1255.80000002385,0,NA,"Rating Scale","Rating Scale",16,"object-86","BIQ",NA,"SUPPRF74060"
"10",1706639834690,"30/01/2024 18:37:14",1706639834690,0,"30/01/2024 18:37:14",160285,9,"task-gjqt",NA,34622362,10237476,NA,"complete",NA,"65b93c4e140ee61d635ffcb2","computer","Desktop or Laptop","Windows 10","Chrome 120.0.0.0","1280x720","1920x890",NA,NA,0,"BIQ (Charlotte)",3,"HIGJFAEBDC","Failed AC2","Passed AC1","Spreadsheet1",1,"BIQ","Screen 3","iz3the",3,"continue","",62601.9000000179,62600.1,62601.9000000179,62601.9000000179,62600.1,62601.9000000179,1,62601.9000000179,0,0,NA,"Click To Continue","Continue Button",22,"object-73","BIQ",NA,"SUPPRF74060"
"11",1706639834693,"30/01/2024 18:37:14",1706639834693,0,"30/01/2024 18:37:14",160285,9,"task-gjqt",NA,34622362,10237476,NA,"complete",NA,"65b93c4e140ee61d635ffcb2","computer","Desktop or Laptop","Windows 10","Chrome 120.0.0.0","1280x720","1920x890",NA,NA,0,"BIQ (Charlotte)",3,"HIGJFAEBDC","Failed AC2","Passed AC1","Spreadsheet1",1,"BIQ","Screen 3","iz3the",3,"response","4",23533.5,62600.1,62604.9000000179,23533.5,62600.1,62604.9000000179,1,23533.5,39071.4000000179,0,NA,"Rating Scale","Rating Scale",2,"object-53","BIQ",NA,"SUPPRF74060"
"12",1706639834694,"30/01/2024 18:37:14",1706639834694,0,"30/01/2024 18:37:14",160285,9,"task-gjqt",NA,34622362,10237476,NA,"complete",NA,"65b93c4e140ee61d635ffcb2","computer","Desktop or Laptop","Windows 10","Chrome 120.0.0.0","1280x720","1920x890",NA,NA,0,"BIQ (Charlotte)",3,"HIGJFAEBDC","Failed AC2","Passed AC1","Spreadsheet1",1,"BIQ","Screen 3","iz3the",3,"response","5",29133.8,62600.1,62605.600000006,29133.8,62600.1,62605.600000006,1,29133.8,33471.800000006,0,NA,"Rating Scale","Rating Scale",9,"object-60","BIQ",NA,"SUPPRF74060"
"13",1706639834695,"30/01/2024 18:37:14",1706639834695,0,"30/01/2024 18:37:14",160285,9,"task-gjqt",NA,34622362,10237476,NA,"complete",NA,"65b93c4e140ee61d635ffcb2","computer","Desktop or Laptop","Windows 10","Chrome 120.0.0.0","1280x720","1920x890",NA,NA,0,"BIQ (Charlotte)",3,"HIGJFAEBDC","Failed AC2","Passed AC1","Spreadsheet1",1,"BIQ","Screen 3","iz3the",3,"response","5",54166.9,62600.1,62606.4000000179,54166.9,62600.1,62606.4000000179,1,54166.9,8439.50000001787,0,NA,"Rating Scale","Rating Scale",16,"object-67","BIQ",NA,"SUPPRF74060"
"14",1706639834700,"30/01/2024 18:37:14",1706639834700,0,"30/01/2024 18:37:14",160285,9,"task-gjqt",NA,34622362,10237476,NA,"complete",NA,"65b93c4e140ee61d635ffcb2","computer","Desktop or Laptop","Windows 10","Chrome 120.0.0.0","1280x720","1920x890",NA,NA,0,"BIQ (Charlotte)",3,"HIGJFAEBDC","Failed AC2","Passed AC1","Spreadsheet1",NA,"","","",NA,"5","END",NA,NA,NA,NA,NA,NA,0,NA,NA,NA,NA,"","",NA,"","",NA,"SUPPRF74060"
"1",1706638977212,"30/01/2024 18:22:57",1706638977212,0,"30/01/2024 18:22:57",160285,9,"task-gjqt",NA,34622033,10237521,NA,"complete",NA,"65b93c595218375a56b9948a","computer","Desktop or Laptop","Mac OS 10.15.7","Chrome 120.0.0.0","1512x982","1512x750",NA,NA,0,"BIQ (Charlotte)",3,"IJHAGBFCED","Passed AC2","","Spreadsheet1",NA,"","","",NA,"5","BEGIN",NA,NA,NA,NA,NA,NA,0,NA,NA,NA,NA,"","",NA,"","",NA,"SUPPRF37257"
"2",1706639026968,"30/01/2024 18:23:46",1706639026968,0,"30/01/2024 18:23:46",160285,9,"task-gjqt",NA,34622033,10237521,NA,"complete",NA,"65b93c595218375a56b9948a","computer","Desktop or Laptop","Mac OS 10.15.7","Chrome 120.0.0.0","1512x982","1512x750",NA,NA,0,"BIQ (Charlotte)",3,"IJHAGBFCED","Passed AC2","","Spreadsheet1",1,"BIQ","Screen 1","9dh6eq",1,"continue","",49766.3,49758,49766.3,49766.3,49758,49766.3,1,49766.3,0,0,NA,"Click To Continue","Continue Button",23,"object-48","BIQ",NA,"SUPPRF37257"
"3",1706639026970,"30/01/2024 18:23:46",1706639026970,0,"30/01/2024 18:23:46",160285,9,"task-gjqt",NA,34622033,10237521,NA,"complete",NA,"65b93c595218375a56b9948a","computer","Desktop or Laptop","Mac OS 10.15.7","Chrome 120.0.0.0","1512x982","1512x750",NA,NA,0,"BIQ (Charlotte)",3,"IJHAGBFCED","Passed AC2","","Spreadsheet1",1,"BIQ","Screen 1","9dh6eq",1,"response","6",20408.2,49758,49766.3,20408.2,49758,49766.3,1,20408.2,29358.1,0,NA,"Rating Scale","Rating Scale",3,"object-5","BIQ",NA,"SUPPRF37257"
"4",1706639026970,"30/01/2024 18:23:46",1706639026970,0,"30/01/2024 18:23:46",160285,9,"task-gjqt",NA,34622033,10237521,NA,"complete",NA,"65b93c595218375a56b9948a","computer","Desktop or Laptop","Mac OS 10.15.7","Chrome 120.0.0.0","1512x982","1512x750",NA,NA,0,"BIQ (Charlotte)",3,"IJHAGBFCED","Passed AC2","","Spreadsheet1",1,"BIQ","Screen 1","9dh6eq",1,"response","6",34757.9,49758,49766.3,34757.9,49758,49766.3,1,34757.9,15008.4,0,NA,"Rating Scale","Rating Scale",10,"object-18","BIQ",NA,"SUPPRF37257"
"5",1706639026970,"30/01/2024 18:23:46",1706639026970,0,"30/01/2024 18:23:46",160285,9,"task-gjqt",NA,34622033,10237521,NA,"complete",NA,"65b93c595218375a56b9948a","computer","Desktop or Laptop","Mac OS 10.15.7","Chrome 120.0.0.0","1512x982","1512x750",NA,NA,0,"BIQ (Charlotte)",3,"IJHAGBFCED","Passed AC2","","Spreadsheet1",1,"BIQ","Screen 1","9dh6eq",1,"response","2",48908.1,49758,49766.3,48908.1,49758,49766.3,1,48908.1,858.199999999997,0,NA,"Rating Scale","Rating Scale",17,"object-80","BIQ",NA,"SUPPRF37257"
"6",1706639056902,"30/01/2024 18:24:16",1706639056902,0,"30/01/2024 18:24:16",160285,9,"task-gjqt",NA,34622033,10237521,NA,"complete",NA,"65b93c595218375a56b9948a","computer","Desktop or Laptop","Mac OS 10.15.7","Chrome 120.0.0.0","1512x982","1512x750",NA,NA,0,"BIQ (Charlotte)",3,"IJHAGBFCED","Passed AC2","","Spreadsheet1",1,"BIQ","Screen 2","o21mwi",2,"continue","",29944.5000000238,29937.2,29944.5000000238,29944.5000000238,29937.2,29944.5000000238,1,29944.5000000238,0,0,NA,"Click To Continue","Continue Button",22,"object-50","BIQ",NA,"SUPPRF37257"
"7",1706639056905,"30/01/2024 18:24:16",1706639056905,0,"30/01/2024 18:24:16",160285,9,"task-gjqt",NA,34622033,10237521,NA,"complete",NA,"65b93c595218375a56b9948a","computer","Desktop or Laptop","Mac OS 10.15.7","Chrome 120.0.0.0","1512x982","1512x750",NA,NA,0,"BIQ (Charlotte)",3,"IJHAGBFCED","Passed AC2","","Spreadsheet1",1,"BIQ","Screen 2","o21mwi",2,"response","7",7966.7,29937.2,29945.5,7966.7,29937.2,29945.5,1,7966.7,21978.8,0,NA,"Rating Scale","Rating Scale",2,"object-259","BIQ",NA,"SUPPRF37257"
"8",1706639056905,"30/01/2024 18:24:16",1706639056905,0,"30/01/2024 18:24:16",160285,9,"task-gjqt",NA,34622033,10237521,NA,"complete",NA,"65b93c595218375a56b9948a","computer","Desktop or Laptop","Mac OS 10.15.7","Chrome 120.0.0.0","1512x982","1512x750",NA,NA,0,"BIQ (Charlotte)",3,"IJHAGBFCED","Passed AC2","","Spreadsheet1",1,"BIQ","Screen 2","o21mwi",2,"response","0",16733,29937.2,29945.5,16733,29937.2,29945.5,1,16733,13212.5,0,NA,"Rating Scale","Rating Scale",9,"object-36","BIQ",NA,"SUPPRF37257"
"9",1706639056906,"30/01/2024 18:24:16",1706639056906,0,"30/01/2024 18:24:16",160285,9,"task-gjqt",NA,34622033,10237521,NA,"complete",NA,"65b93c595218375a56b9948a","computer","Desktop or Laptop","Mac OS 10.15.7","Chrome 120.0.0.0","1512x982","1512x750",NA,NA,0,"BIQ (Charlotte)",3,"IJHAGBFCED","Passed AC2","","Spreadsheet1",1,"BIQ","Screen 2","o21mwi",2,"response","1",28328.9,29937.2,29945.5,28328.9,29937.2,29945.5,1,28328.9,1616.60000000001,0,NA,"Rating Scale","Rating Scale",16,"object-86","BIQ",NA,"SUPPRF37257"
"10",1706639077110,"30/01/2024 18:24:37",1706639077110,0,"30/01/2024 18:24:37",160285,9,"task-gjqt",NA,34622033,10237521,NA,"complete",NA,"65b93c595218375a56b9948a","computer","Desktop or Laptop","Mac OS 10.15.7","Chrome 120.0.0.0","1512x982","1512x750",NA,NA,0,"BIQ (Charlotte)",3,"IJHAGBFCED","Passed AC2","","Spreadsheet1",1,"BIQ","Screen 3","iz3the",3,"continue","",20212.5,20204.1,20212.5,20212.5,20204.1,20212.5,1,20212.5,0,0,NA,"Click To Continue","Continue Button",22,"object-73","BIQ",NA,"SUPPRF37257"
"11",1706639077113,"30/01/2024 18:24:37",1706639077113,0,"30/01/2024 18:24:37",160285,9,"task-gjqt",NA,34622033,10237521,NA,"complete",NA,"65b93c595218375a56b9948a","computer","Desktop or Laptop","Mac OS 10.15.7","Chrome 120.0.0.0","1512x982","1512x750",NA,NA,0,"BIQ (Charlotte)",3,"IJHAGBFCED","Passed AC2","","Spreadsheet1",1,"BIQ","Screen 3","iz3the",3,"response","0",7600.09999999999,20204.1,20212.5,7600.09999999999,20204.1,20212.5,1,7600.09999999999,12612.4,0,NA,"Rating Scale","Rating Scale",2,"object-53","BIQ",NA,"SUPPRF37257"
"12",1706639077113,"30/01/2024 18:24:37",1706639077113,0,"30/01/2024 18:24:37",160285,9,"task-gjqt",NA,34622033,10237521,NA,"complete",NA,"65b93c595218375a56b9948a","computer","Desktop or Laptop","Mac OS 10.15.7","Chrome 120.0.0.0","1512x982","1512x750",NA,NA,0,"BIQ (Charlotte)",3,"IJHAGBFCED","Passed AC2","","Spreadsheet1",1,"BIQ","Screen 3","iz3the",3,"response","0",12541.6,20204.1,20212.5,12541.6,20204.1,20212.5,1,12541.6,7670.89999999999,0,NA,"Rating Scale","Rating Scale",9,"object-60","BIQ",NA,"SUPPRF37257"
"13",1706639077113,"30/01/2024 18:24:37",1706639077113,0,"30/01/2024 18:24:37",160285,9,"task-gjqt",NA,34622033,10237521,NA,"complete",NA,"65b93c595218375a56b9948a","computer","Desktop or Laptop","Mac OS 10.15.7","Chrome 120.0.0.0","1512x982","1512x750",NA,NA,0,"BIQ (Charlotte)",3,"IJHAGBFCED","Passed AC2","","Spreadsheet1",1,"BIQ","Screen 3","iz3the",3,"response","2",18879.1,20204.1,20212.5,18879.1,20204.1,20212.5,1,18879.1,1333.39999999999,0,NA,"Rating Scale","Rating Scale",16,"object-67","BIQ",NA,"SUPPRF37257"
"14",1706639077119,"30/01/2024 18:24:37",1706639077119,0,"30/01/2024 18:24:37",160285,9,"task-gjqt",NA,34622033,10237521,NA,"complete",NA,"65b93c595218375a56b9948a","computer","Desktop or Laptop","Mac OS 10.15.7","Chrome 120.0.0.0","1512x982","1512x750",NA,NA,0,"BIQ (Charlotte)",3,"IJHAGBFCED","Passed AC2","","Spreadsheet1",NA,"","","",NA,"5","END",NA,NA,NA,NA,NA,NA,0,NA,NA,NA,NA,"","",NA,"","",NA,"SUPPRF37257"
"1",1706639785639,"30/01/2024 18:36:25",1706639785639,0,"30/01/2024 18:36:25",160285,9,"task-gjqt",NA,34622489,10237528,NA,"complete",NA,"65b93d35ac03d251521aae93","computer","Desktop or Laptop","Windows 10","Chrome 120.0.0.0","1280x720","1280x585",NA,NA,0,"BIQ (Charlotte)",3,"ABJCIDHEGF","Passed AC2","","Spreadsheet1",NA,"","","",NA,"5","BEGIN",NA,NA,NA,NA,NA,NA,0,NA,NA,NA,NA,"","",NA,"","",NA,"SUPPRF28587"
"2",1706639866437,"30/01/2024 18:37:46",1706639866437,0,"30/01/2024 18:37:46",160285,9,"task-gjqt",NA,34622489,10237528,NA,"complete",NA,"65b93d35ac03d251521aae93","computer","Desktop or Laptop","Windows 10","Chrome 120.0.0.0","1280x720","1280x585",NA,NA,0,"BIQ (Charlotte)",3,"ABJCIDHEGF","Passed AC2","","Spreadsheet1",1,"BIQ","Screen 1","9dh6eq",1,"continue","",80823.0000000119,80807.5,80823.0000000119,80823.0000000119,80807.5,80823.0000000119,1,80823.0000000119,0,0,NA,"Click To Continue","Continue Button",23,"object-48","BIQ",NA,"SUPPRF28587"
"3",1706639866442,"30/01/2024 18:37:46",1706639866442,0,"30/01/2024 18:37:46",160285,9,"task-gjqt",NA,34622489,10237528,NA,"complete",NA,"65b93d35ac03d251521aae93","computer","Desktop or Laptop","Windows 10","Chrome 120.0.0.0","1280x720","1280x585",NA,NA,0,"BIQ (Charlotte)",3,"ABJCIDHEGF","Passed AC2","","Spreadsheet1",1,"BIQ","Screen 1","9dh6eq",1,"response","4",63756.8,80807.5,80824.1,63756.8,80807.5,80824.1,1,63756.8,17067.3,0,NA,"Rating Scale","Rating Scale",3,"object-5","BIQ",NA,"SUPPRF28587"
"4",1706639866443,"30/01/2024 18:37:46",1706639866443,0,"30/01/2024 18:37:46",160285,9,"task-gjqt",NA,34622489,10237528,NA,"complete",NA,"65b93d35ac03d251521aae93","computer","Desktop or Laptop","Windows 10","Chrome 120.0.0.0","1280x720","1280x585",NA,NA,0,"BIQ (Charlotte)",3,"ABJCIDHEGF","Passed AC2","","Spreadsheet1",1,"BIQ","Screen 1","9dh6eq",1,"response","2",72165.7,80807.5,80824.1,72165.7,80807.5,80824.1,1,72165.7,8658.40000000001,0,NA,"Rating Scale","Rating Scale",10,"object-18","BIQ",NA,"SUPPRF28587"
"5",1706639866443,"30/01/2024 18:37:46",1706639866443,0,"30/01/2024 18:37:46",160285,9,"task-gjqt",NA,34622489,10237528,NA,"complete",NA,"65b93d35ac03d251521aae93","computer","Desktop or Laptop","Windows 10","Chrome 120.0.0.0","1280x720","1280x585",NA,NA,0,"BIQ (Charlotte)",3,"ABJCIDHEGF","Passed AC2","","Spreadsheet1",1,"BIQ","Screen 1","9dh6eq",1,"response","1",77976.8,80807.5,80824.1,77976.8,80807.5,80824.1,1,77976.8,2847.3,0,NA,"Rating Scale","Rating Scale",17,"object-80","BIQ",NA,"SUPPRF28587"
"6",1706639895549,"30/01/2024 18:38:15",1706639895549,0,"30/01/2024 18:38:15",160285,9,"task-gjqt",NA,34622489,10237528,NA,"complete",NA,"65b93d35ac03d251521aae93","computer","Desktop or Laptop","Windows 10","Chrome 120.0.0.0","1280x720","1280x585",NA,NA,0,"BIQ (Charlotte)",3,"ABJCIDHEGF","Passed AC2","","Spreadsheet1",1,"BIQ","Screen 2","o21mwi",2,"continue","",29129.3000000238,29122.8,29129.3000000238,29129.3000000238,29122.8,29129.3000000238,1,29129.3000000238,0,0,NA,"Click To Continue","Continue Button",22,"object-50","BIQ",NA,"SUPPRF28587"
"7",1706639895555,"30/01/2024 18:38:15",1706639895555,0,"30/01/2024 18:38:15",160285,9,"task-gjqt",NA,34622489,10237528,NA,"complete",NA,"65b93d35ac03d251521aae93","computer","Desktop or Laptop","Windows 10","Chrome 120.0.0.0","1280x720","1280x585",NA,NA,0,"BIQ (Charlotte)",3,"ABJCIDHEGF","Passed AC2","","Spreadsheet1",1,"BIQ","Screen 2","o21mwi",2,"response","1",5345,29122.8,29134.5000000119,5345,29122.8,29134.5000000119,1,5345,23789.5000000119,0,NA,"Rating Scale","Rating Scale",2,"object-259","BIQ",NA,"SUPPRF28587"
"8",1706639895556,"30/01/2024 18:38:15",1706639895556,0,"30/01/2024 18:38:15",160285,9,"task-gjqt",NA,34622489,10237528,NA,"complete",NA,"65b93d35ac03d251521aae93","computer","Desktop or Laptop","Windows 10","Chrome 120.0.0.0","1280x720","1280x585",NA,NA,0,"BIQ (Charlotte)",3,"ABJCIDHEGF","Passed AC2","","Spreadsheet1",1,"BIQ","Screen 2","o21mwi",2,"response","5",20830.6,29122.8,29135.8000000238,20830.6,29122.8,29135.8000000238,1,20830.6,8305.20000002385,0,NA,"Rating Scale","Rating Scale",9,"object-36","BIQ",NA,"SUPPRF28587"
"9",1706639895557,"30/01/2024 18:38:15",1706639895557,0,"30/01/2024 18:38:15",160285,9,"task-gjqt",NA,34622489,10237528,NA,"complete",NA,"65b93d35ac03d251521aae93","computer","Desktop or Laptop","Windows 10","Chrome 120.0.0.0","1280x720","1280x585",NA,NA,0,"BIQ (Charlotte)",3,"ABJCIDHEGF","Passed AC2","","Spreadsheet1",1,"BIQ","Screen 2","o21mwi",2,"response","0",26025.7,29122.8,29136.9000000179,26025.7,29122.8,29136.9000000179,1,26025.7,3111.20000001788,0,NA,"Rating Scale","Rating Scale",16,"object-86","BIQ",NA,"SUPPRF28587"
"10",1706639937538,"30/01/2024 18:38:57",1706639937538,0,"30/01/2024 18:38:57",160285,9,"task-gjqt",NA,34622489,10237528,NA,"complete",NA,"65b93d35ac03d251521aae93","computer","Desktop or Laptop","Windows 10","Chrome 120.0.0.0","1280x720","1280x585",NA,NA,0,"BIQ (Charlotte)",3,"ABJCIDHEGF","Passed AC2","","Spreadsheet1",1,"BIQ","Screen 3","iz3the",3,"continue","",41993.9,41977.3,41993.9,41993.9,41977.3,41993.9,1,41993.9,0,0,NA,"Click To Continue","Continue Button",22,"object-73","BIQ",NA,"SUPPRF28587"
"11",1706639937543,"30/01/2024 18:38:57",1706639937543,0,"30/01/2024 18:38:57",160285,9,"task-gjqt",NA,34622489,10237528,NA,"complete",NA,"65b93d35ac03d251521aae93","computer","Desktop or Laptop","Windows 10","Chrome 120.0.0.0","1280x720","1280x585",NA,NA,0,"BIQ (Charlotte)",3,"ABJCIDHEGF","Passed AC2","","Spreadsheet1",1,"BIQ","Screen 3","iz3the",3,"response","0",27424.4,41977.3,41993.9,27424.4,41977.3,41993.9,1,27424.4,14569.5,0,NA,"Rating Scale","Rating Scale",2,"object-53","BIQ",NA,"SUPPRF28587"
"12",1706639937545,"30/01/2024 18:38:57",1706639937545,0,"30/01/2024 18:38:57",160285,9,"task-gjqt",NA,34622489,10237528,NA,"complete",NA,"65b93d35ac03d251521aae93","computer","Desktop or Laptop","Windows 10","Chrome 120.0.0.0","1280x720","1280x585",NA,NA,0,"BIQ (Charlotte)",3,"ABJCIDHEGF","Passed AC2","","Spreadsheet1",1,"BIQ","Screen 3","iz3the",3,"response","3",30238.4,41977.3,41993.9,30238.4,41977.3,41993.9,1,30238.4,11755.5,0,NA,"Rating Scale","Rating Scale",9,"object-60","BIQ",NA,"SUPPRF28587"
"13",1706639937546,"30/01/2024 18:38:57",1706639937546,0,"30/01/2024 18:38:57",160285,9,"task-gjqt",NA,34622489,10237528,NA,"complete",NA,"65b93d35ac03d251521aae93","computer","Desktop or Laptop","Windows 10","Chrome 120.0.0.0","1280x720","1280x585",NA,NA,0,"BIQ (Charlotte)",3,"ABJCIDHEGF","Passed AC2","","Spreadsheet1",1,"BIQ","Screen 3","iz3the",3,"response","5",37714.7,41977.3,41993.9,37714.7,41977.3,41993.9,1,37714.7,4279.20000000001,0,NA,"Rating Scale","Rating Scale",16,"object-67","BIQ",NA,"SUPPRF28587"
"14",1706639937553,"30/01/2024 18:38:57",1706639937553,0,"30/01/2024 18:38:57",160285,9,"task-gjqt",NA,34622489,10237528,NA,"complete",NA,"65b93d35ac03d251521aae93","computer","Desktop or Laptop","Windows 10","Chrome 120.0.0.0","1280x720","1280x585",NA,NA,0,"BIQ (Charlotte)",3,"ABJCIDHEGF","Passed AC2","","Spreadsheet1",NA,"","","",NA,"5","END",NA,NA,NA,NA,NA,NA,0,NA,NA,NA,NA,"","",NA,"","",NA,"SUPPRF28587"
"1",1706639365382,"30/01/2024 18:29:25",1706639365382,0,"30/01/2024 18:29:25",160285,9,"task-gjqt",NA,34622251,10237598,NA,"complete",NA,"65b93d52c40c91afef7b12c0","computer","Desktop or Laptop","Windows 10","Chrome 121.0.0.0","1920x1080","1920x963",NA,NA,0,"BIQ (Charlotte)",3,"CDBEAFJGIH","Passed AC2","","Spreadsheet1",NA,"","","",NA,"5","BEGIN",NA,NA,NA,NA,NA,NA,0,NA,NA,NA,NA,"","",NA,"","",NA,"SUPPRF80786"
"2",1706639378878,"30/01/2024 18:29:38",1706639378878,0,"30/01/2024 18:29:38",160285,9,"task-gjqt",NA,34622251,10237598,NA,"complete",NA,"65b93d52c40c91afef7b12c0","computer","Desktop or Laptop","Windows 10","Chrome 121.0.0.0","1920x1080","1920x963",NA,NA,0,"BIQ (Charlotte)",3,"CDBEAFJGIH","Passed AC2","","Spreadsheet1",1,"BIQ","Screen 1","9dh6eq",1,"continue","",13516.5,13499.8,13516.5,13516.5,13499.8,13516.5,1,13516.5,0,0,NA,"Click To Continue","Continue Button",23,"object-48","BIQ",NA,"SUPPRF80786"
"3",1706639378882,"30/01/2024 18:29:38",1706639378882,0,"30/01/2024 18:29:38",160285,9,"task-gjqt",NA,34622251,10237598,NA,"complete",NA,"65b93d52c40c91afef7b12c0","computer","Desktop or Laptop","Windows 10","Chrome 121.0.0.0","1920x1080","1920x963",NA,NA,0,"BIQ (Charlotte)",3,"CDBEAFJGIH","Passed AC2","","Spreadsheet1",1,"BIQ","Screen 1","9dh6eq",1,"response","6",5383.2,13499.8,13516.5,5383.2,13499.8,13516.5,1,5383.2,8133.3,0,NA,"Rating Scale","Rating Scale",3,"object-5","BIQ",NA,"SUPPRF80786"
"4",1706639378883,"30/01/2024 18:29:38",1706639378883,0,"30/01/2024 18:29:38",160285,9,"task-gjqt",NA,34622251,10237598,NA,"complete",NA,"65b93d52c40c91afef7b12c0","computer","Desktop or Laptop","Windows 10","Chrome 121.0.0.0","1920x1080","1920x963",NA,NA,0,"BIQ (Charlotte)",3,"CDBEAFJGIH","Passed AC2","","Spreadsheet1",1,"BIQ","Screen 1","9dh6eq",1,"response","4",9416.5,13499.8,13516.5,9416.5,13499.8,13516.5,1,9416.5,4100,0,NA,"Rating Scale","Rating Scale",10,"object-18","BIQ",NA,"SUPPRF80786"
"5",1706639378884,"30/01/2024 18:29:38",1706639378884,0,"30/01/2024 18:29:38",160285,9,"task-gjqt",NA,34622251,10237598,NA,"complete",NA,"65b93d52c40c91afef7b12c0","computer","Desktop or Laptop","Windows 10","Chrome 121.0.0.0","1920x1080","1920x963",NA,NA,0,"BIQ (Charlotte)",3,"CDBEAFJGIH","Passed AC2","","Spreadsheet1",1,"BIQ","Screen 1","9dh6eq",1,"response","3",12316.5,13499.8,13516.5,12316.5,13499.8,13516.5,1,12316.5,1200,0,NA,"Rating Scale","Rating Scale",17,"object-80","BIQ",NA,"SUPPRF80786"
"6",1706639385977,"30/01/2024 18:29:45",1706639385977,0,"30/01/2024 18:29:45",160285,9,"task-gjqt",NA,34622251,10237598,NA,"complete",NA,"65b93d52c40c91afef7b12c0","computer","Desktop or Laptop","Windows 10","Chrome 121.0.0.0","1920x1080","1920x963",NA,NA,0,"BIQ (Charlotte)",3,"CDBEAFJGIH","Passed AC2","","Spreadsheet1",1,"BIQ","Screen 2","o21mwi",2,"continue","",7123.10000000074,7116.6,7123.10000000074,7123.10000000074,7116.6,7123.10000000074,1,7123.10000000074,0,0,NA,"Click To Continue","Continue Button",22,"object-50","BIQ",NA,"SUPPRF80786"
"7",1706639385978,"30/01/2024 18:29:45",1706639385978,0,"30/01/2024 18:29:45",160285,9,"task-gjqt",NA,34622251,10237598,NA,"complete",NA,"65b93d52c40c91afef7b12c0","computer","Desktop or Laptop","Windows 10","Chrome 121.0.0.0","1920x1080","1920x963",NA,NA,0,"BIQ (Charlotte)",3,"CDBEAFJGIH","Passed AC2","","Spreadsheet1",1,"BIQ","Screen 2","o21mwi",2,"response","5",1233.3,7116.6,7123.89999999963,1233.3,7116.6,7123.89999999963,1,1233.3,5890.59999999963,0,NA,"Rating Scale","Rating Scale",2,"object-259","BIQ",NA,"SUPPRF80786"
"8",1706639385978,"30/01/2024 18:29:45",1706639385978,0,"30/01/2024 18:29:45",160285,9,"task-gjqt",NA,34622251,10237598,NA,"complete",NA,"65b93d52c40c91afef7b12c0","computer","Desktop or Laptop","Windows 10","Chrome 121.0.0.0","1920x1080","1920x963",NA,NA,0,"BIQ (Charlotte)",3,"CDBEAFJGIH","Passed AC2","","Spreadsheet1",1,"BIQ","Screen 2","o21mwi",2,"response","4",3699.9,7116.6,7124.70000000037,3699.9,7116.6,7124.70000000037,1,3699.9,3424.80000000037,0,NA,"Rating Scale","Rating Scale",9,"object-36","BIQ",NA,"SUPPRF80786"
"9",1706639385979,"30/01/2024 18:29:45",1706639385979,0,"30/01/2024 18:29:45",160285,9,"task-gjqt",NA,34622251,10237598,NA,"complete",NA,"65b93d52c40c91afef7b12c0","computer","Desktop or Laptop","Windows 10","Chrome 121.0.0.0","1920x1080","1920x963",NA,NA,0,"BIQ (Charlotte)",3,"CDBEAFJGIH","Passed AC2","","Spreadsheet1",1,"BIQ","Screen 2","o21mwi",2,"response","4",4383.4,7116.6,7125.39999999963,4383.4,7116.6,7125.39999999963,1,4383.4,2741.99999999963,0,NA,"Rating Scale","Rating Scale",16,"object-86","BIQ",NA,"SUPPRF80786"
"10",1706639390721,"30/01/2024 18:29:50",1706639390721,0,"30/01/2024 18:29:50",160285,9,"task-gjqt",NA,34622251,10237598,NA,"complete",NA,"65b93d52c40c91afef7b12c0","computer","Desktop or Laptop","Windows 10","Chrome 121.0.0.0","1920x1080","1920x963",NA,NA,0,"BIQ (Charlotte)",3,"CDBEAFJGIH","Passed AC2","","Spreadsheet1",1,"BIQ","Screen 3","iz3the",3,"continue","",4749.8,4733.2,4749.8,4749.8,4733.2,4749.8,1,4749.8,0,0,NA,"Click To Continue","Continue Button",22,"object-73","BIQ",NA,"SUPPRF80786"
"11",1706639390727,"30/01/2024 18:29:50",1706639390727,0,"30/01/2024 18:29:50",160285,9,"task-gjqt",NA,34622251,10237598,NA,"complete",NA,"65b93d52c40c91afef7b12c0","computer","Desktop or Laptop","Windows 10","Chrome 121.0.0.0","1920x1080","1920x963",NA,NA,0,"BIQ (Charlotte)",3,"CDBEAFJGIH","Passed AC2","","Spreadsheet1",1,"BIQ","Screen 3","iz3the",3,"response","3",1333.3,4733.2,4749.8,1333.3,4733.2,4749.8,1,1333.3,3416.5,0,NA,"Rating Scale","Rating Scale",2,"object-53","BIQ",NA,"SUPPRF80786"
"12",1706639390728,"30/01/2024 18:29:50",1706639390728,0,"30/01/2024 18:29:50",160285,9,"task-gjqt",NA,34622251,10237598,NA,"complete",NA,"65b93d52c40c91afef7b12c0","computer","Desktop or Laptop","Windows 10","Chrome 121.0.0.0","1920x1080","1920x963",NA,NA,0,"BIQ (Charlotte)",3,"CDBEAFJGIH","Passed AC2","","Spreadsheet1",1,"BIQ","Screen 3","iz3the",3,"response","4",2166.6,4733.2,4749.8,2166.6,4733.2,4749.8,1,2166.6,2583.2,0,NA,"Rating Scale","Rating Scale",9,"object-60","BIQ",NA,"SUPPRF80786"
"13",1706639390729,"30/01/2024 18:29:50",1706639390729,0,"30/01/2024 18:29:50",160285,9,"task-gjqt",NA,34622251,10237598,NA,"complete",NA,"65b93d52c40c91afef7b12c0","computer","Desktop or Laptop","Windows 10","Chrome 121.0.0.0","1920x1080","1920x963",NA,NA,0,"BIQ (Charlotte)",3,"CDBEAFJGIH","Passed AC2","","Spreadsheet1",1,"BIQ","Screen 3","iz3the",3,"response","3",2749.9,4733.2,4749.8,2749.9,4733.2,4749.8,1,2749.9,1999.9,0,NA,"Rating Scale","Rating Scale",16,"object-67","BIQ",NA,"SUPPRF80786"
"14",1706639390738,"30/01/2024 18:29:50",1706639390738,0,"30/01/2024 18:29:50",160285,9,"task-gjqt",NA,34622251,10237598,NA,"complete",NA,"65b93d52c40c91afef7b12c0","computer","Desktop or Laptop","Windows 10","Chrome 121.0.0.0","1920x1080","1920x963",NA,NA,0,"BIQ (Charlotte)",3,"CDBEAFJGIH","Passed AC2","","Spreadsheet1",NA,"","","",NA,"5","END",NA,NA,NA,NA,NA,NA,0,NA,NA,NA,NA,"","",NA,"","",NA,"SUPPRF80786"
"1",1706639461198,"30/01/2024 18:31:01",1706639461198,0,"30/01/2024 18:31:01",160285,9,"task-gjqt",NA,34622305,10237616,NA,"complete",NA,"65b93f0c16182d8aeb3546d2","computer","Desktop or Laptop","Mac OS 10.15.7","Chrome 121.0.0.0","1280x800","1280x679",NA,NA,0,"BIQ (Charlotte)",3,"DECFBGAHJI","Passed AC2","","Spreadsheet1",NA,"","","",NA,"5","BEGIN",NA,NA,NA,NA,NA,NA,0,NA,NA,NA,NA,"","",NA,"","",NA,"SUPPRF90597"
"2",1706639474100,"30/01/2024 18:31:14",1706639474100,0,"30/01/2024 18:31:14",160285,9,"task-gjqt",NA,34622305,10237616,NA,"complete",NA,"65b93f0c16182d8aeb3546d2","computer","Desktop or Laptop","Mac OS 10.15.7","Chrome 121.0.0.0","1280x800","1280x679",NA,NA,0,"BIQ (Charlotte)",3,"DECFBGAHJI","Passed AC2","","Spreadsheet1",1,"BIQ","Screen 1","9dh6eq",1,"continue","",12920.6480000119,12907.048,12920.6480000119,12920.6480000119,12907.048,12920.6480000119,1,12920.6480000119,0,0,NA,"Click To Continue","Continue Button",23,"object-48","BIQ",NA,"SUPPRF90597"
"3",1706639474103,"30/01/2024 18:31:14",1706639474103,0,"30/01/2024 18:31:14",160285,9,"task-gjqt",NA,34622305,10237616,NA,"complete",NA,"65b93f0c16182d8aeb3546d2","computer","Desktop or Laptop","Mac OS 10.15.7","Chrome 121.0.0.0","1280x800","1280x679",NA,NA,0,"BIQ (Charlotte)",3,"DECFBGAHJI","Passed AC2","","Spreadsheet1",1,"BIQ","Screen 1","9dh6eq",1,"response","2",6994.148,12907.048,12923.348,6994.148,12907.048,12923.348,1,6994.148,5929.2,0,NA,"Rating Scale","Rating Scale",3,"object-5","BIQ",NA,"SUPPRF90597"
"4",1706639474104,"30/01/2024 18:31:14",1706639474104,0,"30/01/2024 18:31:14",160285,9,"task-gjqt",NA,34622305,10237616,NA,"complete",NA,"65b93f0c16182d8aeb3546d2","computer","Desktop or Laptop","Mac OS 10.15.7","Chrome 121.0.0.0","1280x800","1280x679",NA,NA,0,"BIQ (Charlotte)",3,"DECFBGAHJI","Passed AC2","","Spreadsheet1",1,"BIQ","Screen 1","9dh6eq",1,"response","0",8626.648,12907.048,12923.348,8626.648,12907.048,12923.348,1,8626.648,4296.7,0,NA,"Rating Scale","Rating Scale",10,"object-18","BIQ",NA,"SUPPRF90597"
"5",1706639474104,"30/01/2024 18:31:14",1706639474104,0,"30/01/2024 18:31:14",160285,9,"task-gjqt",NA,34622305,10237616,NA,"complete",NA,"65b93f0c16182d8aeb3546d2","computer","Desktop or Laptop","Mac OS 10.15.7","Chrome 121.0.0.0","1280x800","1280x679",NA,NA,0,"BIQ (Charlotte)",3,"DECFBGAHJI","Passed AC2","","Spreadsheet1",1,"BIQ","Screen 1","9dh6eq",1,"response","6",10842.548,12907.048,12923.348,10842.548,12907.048,12923.348,1,10842.548,2080.8,0,NA,"Rating Scale","Rating Scale",17,"object-80","BIQ",NA,"SUPPRF90597"
"6",1706639493414,"30/01/2024 18:31:33",1706639493414,0,"30/01/2024 18:31:33",160285,9,"task-gjqt",NA,34622305,10237616,NA,"complete",NA,"65b93f0c16182d8aeb3546d2","computer","Desktop or Laptop","Mac OS 10.15.7","Chrome 121.0.0.0","1280x800","1280x679",NA,NA,0,"BIQ (Charlotte)",3,"DECFBGAHJI","Passed AC2","","Spreadsheet1",1,"BIQ","Screen 2","o21mwi",2,"continue","",19328.1000000119,19320.3,19328.1000000119,19328.1000000119,19320.3,19328.1000000119,1,19328.1000000119,0,0,NA,"Click To Continue","Continue Button",22,"object-50","BIQ",NA,"SUPPRF90597"
"7",1706639493419,"30/01/2024 18:31:33",1706639493419,0,"30/01/2024 18:31:33",160285,9,"task-gjqt",NA,34622305,10237616,NA,"complete",NA,"65b93f0c16182d8aeb3546d2","computer","Desktop or Laptop","Mac OS 10.15.7","Chrome 121.0.0.0","1280x800","1280x679",NA,NA,0,"BIQ (Charlotte)",3,"DECFBGAHJI","Passed AC2","","Spreadsheet1",1,"BIQ","Screen 2","o21mwi",2,"response","7",4997.5,19320.3,19332.6000000119,4997.5,19320.3,19332.6000000119,1,4997.5,14335.1000000119,0,NA,"Rating Scale","Rating Scale",2,"object-259","BIQ",NA,"SUPPRF90597"
"8",1706639493419,"30/01/2024 18:31:33",1706639493419,0,"30/01/2024 18:31:33",160285,9,"task-gjqt",NA,34622305,10237616,NA,"complete",NA,"65b93f0c16182d8aeb3546d2","computer","Desktop or Laptop","Mac OS 10.15.7","Chrome 121.0.0.0","1280x800","1280x679",NA,NA,0,"BIQ (Charlotte)",3,"DECFBGAHJI","Passed AC2","","Spreadsheet1",1,"BIQ","Screen 2","o21mwi",2,"response","6",8261,19320.3,19333.4000000238,8261,19320.3,19333.4000000238,1,8261,11072.4000000238,0,NA,"Rating Scale","Rating Scale",9,"object-36","BIQ",NA,"SUPPRF90597"
"9",1706639493420,"30/01/2024 18:31:33",1706639493420,0,"30/01/2024 18:31:33",160285,9,"task-gjqt",NA,34622305,10237616,NA,"complete",NA,"65b93f0c16182d8aeb3546d2","computer","Desktop or Laptop","Mac OS 10.15.7","Chrome 121.0.0.0","1280x800","1280x679",NA,NA,0,"BIQ (Charlotte)",3,"DECFBGAHJI","Passed AC2","","Spreadsheet1",1,"BIQ","Screen 2","o21mwi",2,"response","8",12009,19320.3,19333.9000000238,12009,19320.3,19333.9000000238,1,12009,7324.90000002384,0,NA,"Rating Scale","Rating Scale",16,"object-86","BIQ",NA,"SUPPRF90597"
"10",1706639507779,"30/01/2024 18:31:47",1706639507779,0,"30/01/2024 18:31:47",160285,9,"task-gjqt",NA,34622305,10237616,NA,"complete",NA,"65b93f0c16182d8aeb3546d2","computer","Desktop or Laptop","Mac OS 10.15.7","Chrome 121.0.0.0","1280x800","1280x679",NA,NA,0,"BIQ (Charlotte)",3,"DECFBGAHJI","Passed AC2","","Spreadsheet1",1,"BIQ","Screen 3","iz3the",3,"continue","",14371.8999999762,14357.6,14371.8999999762,14371.8999999762,14357.6,14371.8999999762,1,14371.8999999762,0,0,NA,"Click To Continue","Continue Button",22,"object-73","BIQ",NA,"SUPPRF90597"
"11",1706639507784,"30/01/2024 18:31:47",1706639507784,0,"30/01/2024 18:31:47",160285,9,"task-gjqt",NA,34622305,10237616,NA,"complete",NA,"65b93f0c16182d8aeb3546d2","computer","Desktop or Laptop","Mac OS 10.15.7","Chrome 121.0.0.0","1280x800","1280x679",NA,NA,0,"BIQ (Charlotte)",3,"DECFBGAHJI","Passed AC2","","Spreadsheet1",1,"BIQ","Screen 3","iz3the",3,"response","5",9577.5,14357.6,14373.7,9577.5,14357.6,14373.7,1,9577.5,4796.2,0,NA,"Rating Scale","Rating Scale",2,"object-53","BIQ",NA,"SUPPRF90597"
"12",1706639507784,"30/01/2024 18:31:47",1706639507784,0,"30/01/2024 18:31:47",160285,9,"task-gjqt",NA,34622305,10237616,NA,"complete",NA,"65b93f0c16182d8aeb3546d2","computer","Desktop or Laptop","Mac OS 10.15.7","Chrome 121.0.0.0","1280x800","1280x679",NA,NA,0,"BIQ (Charlotte)",3,"DECFBGAHJI","Passed AC2","","Spreadsheet1",1,"BIQ","Screen 3","iz3the",3,"response","3",10177.6,14357.6,14373.7,10177.6,14357.6,14373.7,1,10177.6,4196.1,0,NA,"Rating Scale","Rating Scale",9,"object-60","BIQ",NA,"SUPPRF90597"
"13",1706639507785,"30/01/2024 18:31:47",1706639507785,0,"30/01/2024 18:31:47",160285,9,"task-gjqt",NA,34622305,10237616,NA,"complete",NA,"65b93f0c16182d8aeb3546d2","computer","Desktop or Laptop","Mac OS 10.15.7","Chrome 121.0.0.0","1280x800","1280x679",NA,NA,0,"BIQ (Charlotte)",3,"DECFBGAHJI","Passed AC2","","Spreadsheet1",1,"BIQ","Screen 3","iz3the",3,"response","4",10877.2,14357.6,14373.7,10877.2,14357.6,14373.7,1,10877.2,3496.5,0,NA,"Rating Scale","Rating Scale",16,"object-67","BIQ",NA,"SUPPRF90597"
"14",1706639507794,"30/01/2024 18:31:47",1706639507794,0,"30/01/2024 18:31:47",160285,9,"task-gjqt",NA,34622305,10237616,NA,"complete",NA,"65b93f0c16182d8aeb3546d2","computer","Desktop or Laptop","Mac OS 10.15.7","Chrome 121.0.0.0","1280x800","1280x679",NA,NA,0,"BIQ (Charlotte)",3,"DECFBGAHJI","Passed AC2","","Spreadsheet1",NA,"","","",NA,"5","END",NA,NA,NA,NA,NA,NA,0,NA,NA,NA,NA,"","",NA,"","",NA,"SUPPRF90597"
"1",1706639385610,"30/01/2024 18:29:45",1706639385610,0,"30/01/2024 18:29:45",160285,9,"task-gjqt",NA,34622265,10237636,NA,"complete",NA,"65b93a437cad71e32263e958","computer","Desktop or Laptop","Windows 10","Chrome 121.0.0.0","1366x768","1366x641",NA,NA,0,"BIQ (Charlotte)",3,"EFDGCHBIAJ","Passed AC2","","Spreadsheet1",NA,"","","",NA,"5","BEGIN",NA,NA,NA,NA,NA,NA,0,NA,NA,NA,NA,"","",NA,"","",NA,"SUPPRF90557"
"2",1706639403365,"30/01/2024 18:30:03",1706639403365,0,"30/01/2024 18:30:03",160285,9,"task-gjqt",NA,34622265,10237636,NA,"complete",NA,"65b93a437cad71e32263e958","computer","Desktop or Laptop","Windows 10","Chrome 121.0.0.0","1366x768","1366x641",NA,NA,0,"BIQ (Charlotte)",3,"EFDGCHBIAJ","Passed AC2","","Spreadsheet1",1,"BIQ","Screen 1","9dh6eq",1,"continue","",17776.014,17759.214,17776.014,17776.014,17759.214,17776.014,1,17776.014,0,0,NA,"Click To Continue","Continue Button",23,"object-48","BIQ",NA,"SUPPRF90557"
"3",1706639403367,"30/01/2024 18:30:03",1706639403367,0,"30/01/2024 18:30:03",160285,9,"task-gjqt",NA,34622265,10237636,NA,"complete",NA,"65b93a437cad71e32263e958","computer","Desktop or Laptop","Windows 10","Chrome 121.0.0.0","1366x768","1366x641",NA,NA,0,"BIQ (Charlotte)",3,"EFDGCHBIAJ","Passed AC2","","Spreadsheet1",1,"BIQ","Screen 1","9dh6eq",1,"response","7",7946.514,17759.214,17776.014,7946.514,17759.214,17776.014,1,7946.514,9829.5,0,NA,"Rating Scale","Rating Scale",3,"object-5","BIQ",NA,"SUPPRF90557"
"4",1706639403368,"30/01/2024 18:30:03",1706639403368,0,"30/01/2024 18:30:03",160285,9,"task-gjqt",NA,34622265,10237636,NA,"complete",NA,"65b93a437cad71e32263e958","computer","Desktop or Laptop","Windows 10","Chrome 121.0.0.0","1366x768","1366x641",NA,NA,0,"BIQ (Charlotte)",3,"EFDGCHBIAJ","Passed AC2","","Spreadsheet1",1,"BIQ","Screen 1","9dh6eq",1,"response","4",12677.814,17759.214,17776.014,12677.814,17759.214,17776.014,1,12677.814,5098.2,0,NA,"Rating Scale","Rating Scale",10,"object-18","BIQ",NA,"SUPPRF90557"
"5",1706639403369,"30/01/2024 18:30:03",1706639403369,0,"30/01/2024 18:30:03",160285,9,"task-gjqt",NA,34622265,10237636,NA,"complete",NA,"65b93a437cad71e32263e958","computer","Desktop or Laptop","Windows 10","Chrome 121.0.0.0","1366x768","1366x641",NA,NA,0,"BIQ (Charlotte)",3,"EFDGCHBIAJ","Passed AC2","","Spreadsheet1",1,"BIQ","Screen 1","9dh6eq",1,"response","2",17176.014,17759.214,17776.014,17176.014,17759.214,17776.014,1,17176.014,600,0,NA,"Rating Scale","Rating Scale",17,"object-80","BIQ",NA,"SUPPRF90557"
"6",1706639420509,"30/01/2024 18:30:20",1706639420509,0,"30/01/2024 18:30:20",160285,9,"task-gjqt",NA,34622265,10237636,NA,"complete",NA,"65b93a437cad71e32263e958","computer","Desktop or Laptop","Windows 10","Chrome 121.0.0.0","1366x768","1366x641",NA,NA,0,"BIQ (Charlotte)",3,"EFDGCHBIAJ","Passed AC2","","Spreadsheet1",1,"BIQ","Screen 2","o21mwi",2,"continue","",17165.5,17159.6,17165.5,17165.5,17159.6,17165.5,1,17165.5,0,0,NA,"Click To Continue","Continue Button",22,"object-50","BIQ",NA,"SUPPRF90557"
"7",1706639420513,"30/01/2024 18:30:20",1706639420513,0,"30/01/2024 18:30:20",160285,9,"task-gjqt",NA,34622265,10237636,NA,"complete",NA,"65b93a437cad71e32263e958","computer","Desktop or Laptop","Windows 10","Chrome 121.0.0.0","1366x768","1366x641",NA,NA,0,"BIQ (Charlotte)",3,"EFDGCHBIAJ","Passed AC2","","Spreadsheet1",1,"BIQ","Screen 2","o21mwi",2,"response","7",4431.4,17159.6,17168.8999999911,4431.4,17159.6,17168.8999999911,1,4431.4,12737.4999999911,0,NA,"Rating Scale","Rating Scale",2,"object-259","BIQ",NA,"SUPPRF90557"
"8",1706639420514,"30/01/2024 18:30:20",1706639420514,0,"30/01/2024 18:30:20",160285,9,"task-gjqt",NA,34622265,10237636,NA,"complete",NA,"65b93a437cad71e32263e958","computer","Desktop or Laptop","Windows 10","Chrome 121.0.0.0","1366x768","1366x641",NA,NA,0,"BIQ (Charlotte)",3,"EFDGCHBIAJ","Passed AC2","","Spreadsheet1",1,"BIQ","Screen 2","o21mwi",2,"response","1",10928.7,17159.6,17169.8999999911,10928.7,17159.6,17169.8999999911,1,10928.7,6241.19999999106,0,NA,"Rating Scale","Rating Scale",9,"object-36","BIQ",NA,"SUPPRF90557"
"9",1706639420515,"30/01/2024 18:30:20",1706639420515,0,"30/01/2024 18:30:20",160285,9,"task-gjqt",NA,34622265,10237636,NA,"complete",NA,"65b93a437cad71e32263e958","computer","Desktop or Laptop","Windows 10","Chrome 121.0.0.0","1366x768","1366x641",NA,NA,0,"BIQ (Charlotte)",3,"EFDGCHBIAJ","Passed AC2","","Spreadsheet1",1,"BIQ","Screen 2","o21mwi",2,"response","5",16659.7,17159.6,17170.799999997,16659.7,17159.6,17170.799999997,1,16659.7,511.099999997023,0,NA,"Rating Scale","Rating Scale",16,"object-86","BIQ",NA,"SUPPRF90557"
"10",1706639438127,"30/01/2024 18:30:38",1706639438127,0,"30/01/2024 18:30:38",160285,9,"task-gjqt",NA,34622265,10237636,NA,"complete",NA,"65b93a437cad71e32263e958","computer","Desktop or Laptop","Windows 10","Chrome 121.0.0.0","1366x768","1366x641",NA,NA,0,"BIQ (Charlotte)",3,"EFDGCHBIAJ","Passed AC2","","Spreadsheet1",1,"BIQ","Screen 3","iz3the",3,"continue","",17623.9,17609.3,17623.9,17623.9,17609.3,17623.9,1,17623.9,0,0,NA,"Click To Continue","Continue Button",22,"object-73","BIQ",NA,"SUPPRF90557"
"11",1706639438132,"30/01/2024 18:30:38",1706639438132,0,"30/01/2024 18:30:38",160285,9,"task-gjqt",NA,34622265,10237636,NA,"complete",NA,"65b93a437cad71e32263e958","computer","Desktop or Laptop","Windows 10","Chrome 121.0.0.0","1366x768","1366x641",NA,NA,0,"BIQ (Charlotte)",3,"EFDGCHBIAJ","Passed AC2","","Spreadsheet1",1,"BIQ","Screen 3","iz3the",3,"response","1",3265.2,17609.3,17626,3265.2,17609.3,17626,1,3265.2,14360.8,0,NA,"Rating Scale","Rating Scale",2,"object-53","BIQ",NA,"SUPPRF90557"
"12",1706639438133,"30/01/2024 18:30:38",1706639438133,0,"30/01/2024 18:30:38",160285,9,"task-gjqt",NA,34622265,10237636,NA,"complete",NA,"65b93a437cad71e32263e958","computer","Desktop or Laptop","Windows 10","Chrome 121.0.0.0","1366x768","1366x641",NA,NA,0,"BIQ (Charlotte)",3,"EFDGCHBIAJ","Passed AC2","","Spreadsheet1",1,"BIQ","Screen 3","iz3the",3,"response","2",8363,17609.3,17626,8363,17609.3,17626,1,8363,9263.00000000001,0,NA,"Rating Scale","Rating Scale",9,"object-60","BIQ",NA,"SUPPRF90557"
"13",1706639438134,"30/01/2024 18:30:38",1706639438134,0,"30/01/2024 18:30:38",160285,9,"task-gjqt",NA,34622265,10237636,NA,"complete",NA,"65b93a437cad71e32263e958","computer","Desktop or Laptop","Windows 10","Chrome 121.0.0.0","1366x768","1366x641",NA,NA,0,"BIQ (Charlotte)",3,"EFDGCHBIAJ","Passed AC2","","Spreadsheet1",1,"BIQ","Screen 3","iz3the",3,"response","2",16693,17609.3,17626,16693,17609.3,17626,1,16693,933.000000000007,0,NA,"Rating Scale","Rating Scale",16,"object-67","BIQ",NA,"SUPPRF90557"
"14",1706639438140,"30/01/2024 18:30:38",1706639438140,0,"30/01/2024 18:30:38",160285,9,"task-gjqt",NA,34622265,10237636,NA,"complete",NA,"65b93a437cad71e32263e958","computer","Desktop or Laptop","Windows 10","Chrome 121.0.0.0","1366x768","1366x641",NA,NA,0,"BIQ (Charlotte)",3,"EFDGCHBIAJ","Passed AC2","","Spreadsheet1",NA,"","","",NA,"5","END",NA,NA,NA,NA,NA,NA,0,NA,NA,NA,NA,"","",NA,"","",NA,"SUPPRF90557"
"1",1706639969419,"30/01/2024 18:39:29",1706639969419,0,"30/01/2024 18:39:29",160285,9,"task-gjqt",NA,34622599,10237689,NA,"complete",NA,"65b9409896d6a5850d7296a9","computer","Desktop or Laptop","Windows 10","Chrome 120.0.0.0","1536x864","1536x695",NA,NA,0,"BIQ (Charlotte)",3,"GHFIEJDACB","Passed AC2","","Spreadsheet1",NA,"","","",NA,"5","BEGIN",NA,NA,NA,NA,NA,NA,0,NA,NA,NA,NA,"","",NA,"","",NA,"SUPPRF54993"
"2",1706640006818,"30/01/2024 18:40:06",1706640006818,0,"30/01/2024 18:40:06",160285,9,"task-gjqt",NA,34622599,10237689,NA,"complete",NA,"65b9409896d6a5850d7296a9","computer","Desktop or Laptop","Windows 10","Chrome 120.0.0.0","1536x864","1536x695",NA,NA,0,"BIQ (Charlotte)",3,"GHFIEJDACB","Passed AC2","","Spreadsheet1",1,"BIQ","Screen 1","9dh6eq",1,"continue","",37413.5,37405.6,37413.5,37413.5,37405.6,37413.5,1,37413.5,0,0,NA,"Click To Continue","Continue Button",23,"object-48","BIQ",NA,"SUPPRF54993"
"3",1706640006822,"30/01/2024 18:40:06",1706640006822,0,"30/01/2024 18:40:06",160285,9,"task-gjqt",NA,34622599,10237689,NA,"complete",NA,"65b9409896d6a5850d7296a9","computer","Desktop or Laptop","Windows 10","Chrome 120.0.0.0","1536x864","1536x695",NA,NA,0,"BIQ (Charlotte)",3,"GHFIEJDACB","Passed AC2","","Spreadsheet1",1,"BIQ","Screen 1","9dh6eq",1,"response","7",16337,37405.6,37413.5,16337,37405.6,37413.5,1,16337,21076.5,0,NA,"Rating Scale","Rating Scale",3,"object-5","BIQ",NA,"SUPPRF54993"
"4",1706640006822,"30/01/2024 18:40:06",1706640006822,0,"30/01/2024 18:40:06",160285,9,"task-gjqt",NA,34622599,10237689,NA,"complete",NA,"65b9409896d6a5850d7296a9","computer","Desktop or Laptop","Windows 10","Chrome 120.0.0.0","1536x864","1536x695",NA,NA,0,"BIQ (Charlotte)",3,"GHFIEJDACB","Passed AC2","","Spreadsheet1",1,"BIQ","Screen 1","9dh6eq",1,"response","6",28575.1,37405.6,37413.5,28575.1,37405.6,37413.5,1,28575.1,8838.4,0,NA,"Rating Scale","Rating Scale",10,"object-18","BIQ",NA,"SUPPRF54993"
"5",1706640006823,"30/01/2024 18:40:06",1706640006823,0,"30/01/2024 18:40:06",160285,9,"task-gjqt",NA,34622599,10237689,NA,"complete",NA,"65b9409896d6a5850d7296a9","computer","Desktop or Laptop","Windows 10","Chrome 120.0.0.0","1536x864","1536x695",NA,NA,0,"BIQ (Charlotte)",3,"GHFIEJDACB","Passed AC2","","Spreadsheet1",1,"BIQ","Screen 1","9dh6eq",1,"response","6",35481.4,37405.6,37413.5,35481.4,37405.6,37413.5,1,35481.4,1932.1,0,NA,"Rating Scale","Rating Scale",17,"object-80","BIQ",NA,"SUPPRF54993"
"6",1706640031311,"30/01/2024 18:40:31",1706640031311,0,"30/01/2024 18:40:31",160285,9,"task-gjqt",NA,34622599,10237689,NA,"complete",NA,"65b9409896d6a5850d7296a9","computer","Desktop or Laptop","Windows 10","Chrome 120.0.0.0","1536x864","1536x695",NA,NA,0,"BIQ (Charlotte)",3,"GHFIEJDACB","Passed AC2","","Spreadsheet1",1,"BIQ","Screen 2","o21mwi",2,"continue","",24504.3000000715,24501.5,24504.3000000715,24504.3000000715,24501.5,24504.3000000715,1,24504.3000000715,0,0,NA,"Click To Continue","Continue Button",22,"object-50","BIQ",NA,"SUPPRF54993"
"7",1706640031316,"30/01/2024 18:40:31",1706640031316,0,"30/01/2024 18:40:31",160285,9,"task-gjqt",NA,34622599,10237689,NA,"complete",NA,"65b9409896d6a5850d7296a9","computer","Desktop or Laptop","Windows 10","Chrome 120.0.0.0","1536x864","1536x695",NA,NA,0,"BIQ (Charlotte)",3,"GHFIEJDACB","Passed AC2","","Spreadsheet1",1,"BIQ","Screen 2","o21mwi",2,"response","8",5165.4,24501.5,24508.7000000477,5165.4,24501.5,24508.7000000477,1,5165.4,19343.3000000477,0,NA,"Rating Scale","Rating Scale",2,"object-259","BIQ",NA,"SUPPRF54993"
"8",1706640031317,"30/01/2024 18:40:31",1706640031317,0,"30/01/2024 18:40:31",160285,9,"task-gjqt",NA,34622599,10237689,NA,"complete",NA,"65b9409896d6a5850d7296a9","computer","Desktop or Laptop","Windows 10","Chrome 120.0.0.0","1536x864","1536x695",NA,NA,0,"BIQ (Charlotte)",3,"GHFIEJDACB","Passed AC2","","Spreadsheet1",1,"BIQ","Screen 2","o21mwi",2,"response","1",11821.8,24501.5,24509.8000000715,11821.8,24501.5,24509.8000000715,1,11821.8,12688.0000000715,0,NA,"Rating Scale","Rating Scale",9,"object-36","BIQ",NA,"SUPPRF54993"
"9",1706640031317,"30/01/2024 18:40:31",1706640031317,0,"30/01/2024 18:40:31",160285,9,"task-gjqt",NA,34622599,10237689,NA,"complete",NA,"65b9409896d6a5850d7296a9","computer","Desktop or Laptop","Windows 10","Chrome 120.0.0.0","1536x864","1536x695",NA,NA,0,"BIQ (Charlotte)",3,"GHFIEJDACB","Passed AC2","","Spreadsheet1",1,"BIQ","Screen 2","o21mwi",2,"response","0",18070.1,24501.5,24510.1,18070.1,24501.5,24510.1,1,18070.1,6440.00000000001,0,NA,"Rating Scale","Rating Scale",16,"object-86","BIQ",NA,"SUPPRF54993"
"10",1706640049957,"30/01/2024 18:40:49",1706640049957,0,"30/01/2024 18:40:49",160285,9,"task-gjqt",NA,34622599,10237689,NA,"complete",NA,"65b9409896d6a5850d7296a9","computer","Desktop or Laptop","Windows 10","Chrome 120.0.0.0","1536x864","1536x695",NA,NA,0,"BIQ (Charlotte)",3,"GHFIEJDACB","Passed AC2","","Spreadsheet1",1,"BIQ","Screen 3","iz3the",3,"continue","",18649,18644.4,18649,18649,18644.4,18649,1,18649,0,0,NA,"Click To Continue","Continue Button",22,"object-73","BIQ",NA,"SUPPRF54993"
"11",1706640049962,"30/01/2024 18:40:49",1706640049962,0,"30/01/2024 18:40:49",160285,9,"task-gjqt",NA,34622599,10237689,NA,"complete",NA,"65b9409896d6a5850d7296a9","computer","Desktop or Laptop","Windows 10","Chrome 120.0.0.0","1536x864","1536x695",NA,NA,0,"BIQ (Charlotte)",3,"GHFIEJDACB","Passed AC2","","Spreadsheet1",1,"BIQ","Screen 3","iz3the",3,"response","0",4157,18644.4,18652.9,4157,18644.4,18652.9,1,4157,14495.9,0,NA,"Rating Scale","Rating Scale",2,"object-53","BIQ",NA,"SUPPRF54993"
"12",1706640049963,"30/01/2024 18:40:49",1706640049963,0,"30/01/2024 18:40:49",160285,9,"task-gjqt",NA,34622599,10237689,NA,"complete",NA,"65b9409896d6a5850d7296a9","computer","Desktop or Laptop","Windows 10","Chrome 120.0.0.0","1536x864","1536x695",NA,NA,0,"BIQ (Charlotte)",3,"GHFIEJDACB","Passed AC2","","Spreadsheet1",1,"BIQ","Screen 3","iz3the",3,"response","2",10138.3,18644.4,18652.9,10138.3,18644.4,18652.9,1,10138.3,8514.59999999999,0,NA,"Rating Scale","Rating Scale",9,"object-60","BIQ",NA,"SUPPRF54993"
"13",1706640049964,"30/01/2024 18:40:49",1706640049964,0,"30/01/2024 18:40:49",160285,9,"task-gjqt",NA,34622599,10237689,NA,"complete",NA,"65b9409896d6a5850d7296a9","computer","Desktop or Laptop","Windows 10","Chrome 120.0.0.0","1536x864","1536x695",NA,NA,0,"BIQ (Charlotte)",3,"GHFIEJDACB","Passed AC2","","Spreadsheet1",1,"BIQ","Screen 3","iz3the",3,"response","3",14278.9,18644.4,18652.9,14278.9,18644.4,18652.9,1,14278.9,4374,0,NA,"Rating Scale","Rating Scale",16,"object-67","BIQ",NA,"SUPPRF54993"
"14",1706640049972,"30/01/2024 18:40:49",1706640049972,0,"30/01/2024 18:40:49",160285,9,"task-gjqt",NA,34622599,10237689,NA,"complete",NA,"65b9409896d6a5850d7296a9","computer","Desktop or Laptop","Windows 10","Chrome 120.0.0.0","1536x864","1536x695",NA,NA,0,"BIQ (Charlotte)",3,"GHFIEJDACB","Passed AC2","","Spreadsheet1",NA,"","","",NA,"5","END",NA,NA,NA,NA,NA,NA,0,NA,NA,NA,NA,"","",NA,"","",NA,"SUPPRF54993"
"1",1706640079816,"30/01/2024 18:41:19",1706622079816,-5,"30/01/2024 08:41:19",160285,9,"task-gjqt",NA,34622656,10237714,NA,"complete",NA,"65b941764042a1bfcfc84fb5","computer","Desktop or Laptop","Mac OS 10.15.7","Chrome 119.0.0.0","1440x900","1440x783",NA,NA,0,"BIQ (Charlotte)",3,"HIGJFAEBDC","Passed AC2","","Spreadsheet1",NA,"","","",NA,"5","BEGIN",NA,NA,NA,NA,NA,NA,0,NA,NA,NA,NA,"","",NA,"","",NA,"SUPPRF05137"
"2",1706640101686,"30/01/2024 18:41:41",1706622101686,-5,"30/01/2024 08:41:41",160285,9,"task-gjqt",NA,34622656,10237714,NA,"complete",NA,"65b941764042a1bfcfc84fb5","computer","Desktop or Laptop","Mac OS 10.15.7","Chrome 119.0.0.0","1440x900","1440x783",NA,NA,0,"BIQ (Charlotte)",3,"HIGJFAEBDC","Passed AC2","","Spreadsheet1",1,"BIQ","Screen 1","9dh6eq",1,"continue","",21884.109,21867.443,21884.109,21884.109,21867.443,21884.109,1,21884.109,0,0,NA,"Click To Continue","Continue Button",23,"object-48","BIQ",NA,"SUPPRF05137"
"3",1706640101687,"30/01/2024 18:41:41",1706622101687,-5,"30/01/2024 08:41:41",160285,9,"task-gjqt",NA,34622656,10237714,NA,"complete",NA,"65b941764042a1bfcfc84fb5","computer","Desktop or Laptop","Mac OS 10.15.7","Chrome 119.0.0.0","1440x900","1440x783",NA,NA,0,"BIQ (Charlotte)",3,"HIGJFAEBDC","Passed AC2","","Spreadsheet1",1,"BIQ","Screen 1","9dh6eq",1,"response","6",8317.157,21867.443,21884.109,8317.157,21867.443,21884.109,1,8317.157,13566.952,0,NA,"Rating Scale","Rating Scale",3,"object-5","BIQ",NA,"SUPPRF05137"
"4",1706640101687,"30/01/2024 18:41:41",1706622101687,-5,"30/01/2024 08:41:41",160285,9,"task-gjqt",NA,34622656,10237714,NA,"complete",NA,"65b941764042a1bfcfc84fb5","computer","Desktop or Laptop","Mac OS 10.15.7","Chrome 119.0.0.0","1440x900","1440x783",NA,NA,0,"BIQ (Charlotte)",3,"HIGJFAEBDC","Passed AC2","","Spreadsheet1",1,"BIQ","Screen 1","9dh6eq",1,"response","5",15716.861,21867.443,21884.109,15716.861,21867.443,21884.109,1,15716.861,6167.24800000001,0,NA,"Rating Scale","Rating Scale",10,"object-18","BIQ",NA,"SUPPRF05137"
"5",1706640101687,"30/01/2024 18:41:41",1706622101687,-5,"30/01/2024 08:41:41",160285,9,"task-gjqt",NA,34622656,10237714,NA,"complete",NA,"65b941764042a1bfcfc84fb5","computer","Desktop or Laptop","Mac OS 10.15.7","Chrome 119.0.0.0","1440x900","1440x783",NA,NA,0,"BIQ (Charlotte)",3,"HIGJFAEBDC","Passed AC2","","Spreadsheet1",1,"BIQ","Screen 1","9dh6eq",1,"response","2",19400.875,21867.443,21884.109,19400.875,21867.443,21884.109,1,19400.875,2483.234,0,NA,"Rating Scale","Rating Scale",17,"object-80","BIQ",NA,"SUPPRF05137"
"6",1706640123814,"30/01/2024 18:42:03",1706622123814,-5,"30/01/2024 08:42:03",160285,9,"task-gjqt",NA,34622656,10237714,NA,"complete",NA,"65b941764042a1bfcfc84fb5","computer","Desktop or Laptop","Mac OS 10.15.7","Chrome 119.0.0.0","1440x900","1440x783",NA,NA,0,"BIQ (Charlotte)",3,"HIGJFAEBDC","Passed AC2","","Spreadsheet1",1,"BIQ","Screen 2","o21mwi",2,"continue","",22146.9950000477,22134.104,22146.9950000477,22146.9950000477,22134.104,22146.9950000477,1,22146.9950000477,0,0,NA,"Click To Continue","Continue Button",22,"object-50","BIQ",NA,"SUPPRF05137"
"7",1706640123816,"30/01/2024 18:42:03",1706622123816,-5,"30/01/2024 08:42:03",160285,9,"task-gjqt",NA,34622656,10237714,NA,"complete",NA,"65b941764042a1bfcfc84fb5","computer","Desktop or Laptop","Mac OS 10.15.7","Chrome 119.0.0.0","1440x900","1440x783",NA,NA,0,"BIQ (Charlotte)",3,"HIGJFAEBDC","Passed AC2","","Spreadsheet1",1,"BIQ","Screen 2","o21mwi",2,"response","7",4833.962,22134.104,22148.895000143,4833.962,22134.104,22148.895000143,1,4833.962,17314.933000143,0,NA,"Rating Scale","Rating Scale",2,"object-259","BIQ",NA,"SUPPRF05137"
"8",1706640123816,"30/01/2024 18:42:03",1706622123816,-5,"30/01/2024 08:42:03",160285,9,"task-gjqt",NA,34622656,10237714,NA,"complete",NA,"65b941764042a1bfcfc84fb5","computer","Desktop or Laptop","Mac OS 10.15.7","Chrome 119.0.0.0","1440x900","1440x783",NA,NA,0,"BIQ (Charlotte)",3,"HIGJFAEBDC","Passed AC2","","Spreadsheet1",1,"BIQ","Screen 2","o21mwi",2,"response","1",13316.956,22134.104,22149.0949999523,13316.956,22134.104,22149.0949999523,1,13316.956,8832.13899995232,0,NA,"Rating Scale","Rating Scale",9,"object-36","BIQ",NA,"SUPPRF05137"
"9",1706640123816,"30/01/2024 18:42:03",1706622123816,-5,"30/01/2024 08:42:03",160285,9,"task-gjqt",NA,34622656,10237714,NA,"complete",NA,"65b941764042a1bfcfc84fb5","computer","Desktop or Laptop","Mac OS 10.15.7","Chrome 119.0.0.0","1440x900","1440x783",NA,NA,0,"BIQ (Charlotte)",3,"HIGJFAEBDC","Passed AC2","","Spreadsheet1",1,"BIQ","Screen 2","o21mwi",2,"response","3",20334.176,22134.104,22149.295,20334.176,22134.104,22149.295,1,20334.176,1815.119,0,NA,"Rating Scale","Rating Scale",16,"object-86","BIQ",NA,"SUPPRF05137"
"10",1706640142448,"30/01/2024 18:42:22",1706622142448,-5,"30/01/2024 08:42:22",160285,9,"task-gjqt",NA,34622656,10237714,NA,"complete",NA,"65b941764042a1bfcfc84fb5","computer","Desktop or Laptop","Mac OS 10.15.7","Chrome 119.0.0.0","1440x900","1440x783",NA,NA,0,"BIQ (Charlotte)",3,"HIGJFAEBDC","Passed AC2","","Spreadsheet1",1,"BIQ","Screen 3","iz3the",3,"continue","",18647.0910000954,18634.234,18647.0910000954,18647.0910000954,18634.234,18647.0910000954,1,18647.0910000954,0,0,NA,"Click To Continue","Continue Button",22,"object-73","BIQ",NA,"SUPPRF05137"
"11",1706640142450,"30/01/2024 18:42:22",1706622142450,-5,"30/01/2024 08:42:22",160285,9,"task-gjqt",NA,34622656,10237714,NA,"complete",NA,"65b941764042a1bfcfc84fb5","computer","Desktop or Laptop","Mac OS 10.15.7","Chrome 119.0.0.0","1440x900","1440x783",NA,NA,0,"BIQ (Charlotte)",3,"HIGJFAEBDC","Passed AC2","","Spreadsheet1",1,"BIQ","Screen 3","iz3the",3,"response","1",12550.314,18634.234,18649.5910000954,12550.314,18634.234,18649.5910000954,1,12550.314,6099.27700009537,0,NA,"Rating Scale","Rating Scale",2,"object-53","BIQ",NA,"SUPPRF05137"
"12",1706640142450,"30/01/2024 18:42:22",1706622142450,-5,"30/01/2024 08:42:22",160285,9,"task-gjqt",NA,34622656,10237714,NA,"complete",NA,"65b941764042a1bfcfc84fb5","computer","Desktop or Laptop","Mac OS 10.15.7","Chrome 119.0.0.0","1440x900","1440x783",NA,NA,0,"BIQ (Charlotte)",3,"HIGJFAEBDC","Passed AC2","","Spreadsheet1",1,"BIQ","Screen 3","iz3the",3,"response","2",13484.44,18634.234,18649.8910000477,13484.44,18634.234,18649.8910000477,1,13484.44,5165.45100004768,0,NA,"Rating Scale","Rating Scale",9,"object-60","BIQ",NA,"SUPPRF05137"
"13",1706640142451,"30/01/2024 18:42:22",1706622142451,-5,"30/01/2024 08:42:22",160285,9,"task-gjqt",NA,34622656,10237714,NA,"complete",NA,"65b941764042a1bfcfc84fb5","computer","Desktop or Laptop","Mac OS 10.15.7","Chrome 119.0.0.0","1440x900","1440x783",NA,NA,0,"BIQ (Charlotte)",3,"HIGJFAEBDC","Passed AC2","","Spreadsheet1",1,"BIQ","Screen 3","iz3the",3,"response","2",17767.602,18634.234,18649.9909999523,17767.602,18634.234,18649.9909999523,1,17767.602,882.388999952316,0,NA,"Rating Scale","Rating Scale",16,"object-67","BIQ",NA,"SUPPRF05137"
"14",1706640142453,"30/01/2024 18:42:22",1706622142453,-5,"30/01/2024 08:42:22",160285,9,"task-gjqt",NA,34622656,10237714,NA,"complete",NA,"65b941764042a1bfcfc84fb5","computer","Desktop or Laptop","Mac OS 10.15.7","Chrome 119.0.0.0","1440x900","1440x783",NA,NA,0,"BIQ (Charlotte)",3,"HIGJFAEBDC","Passed AC2","","Spreadsheet1",NA,"","","",NA,"5","END",NA,NA,NA,NA,NA,NA,0,NA,NA,NA,NA,"","",NA,"","",NA,"SUPPRF05137"
"1",1706640882193,"30/01/2024 18:54:42",1706640882193,0,"30/01/2024 18:54:42",160285,9,"task-gjqt",NA,34623043,10237746,NA,"complete",NA,"65b93edcda85461a21b462d5","computer","Desktop or Laptop","Windows 10","Chrome 121.0.0.0","1536x864","1536x730",NA,NA,0,"BIQ (Charlotte)",3,"IJHAGBFCED","Passed AC2","","Spreadsheet1",NA,"","","",NA,"5","BEGIN",NA,NA,NA,NA,NA,NA,0,NA,NA,NA,NA,"","",NA,"","",NA,"SUPPRF33270"
"2",1706640922650,"30/01/2024 18:55:22",1706640922650,0,"30/01/2024 18:55:22",160285,9,"task-gjqt",NA,34623043,10237746,NA,"complete",NA,"65b93edcda85461a21b462d5","computer","Desktop or Laptop","Windows 10","Chrome 121.0.0.0","1536x864","1536x730",NA,NA,0,"BIQ (Charlotte)",3,"IJHAGBFCED","Passed AC2","","Spreadsheet1",1,"BIQ","Screen 1","9dh6eq",1,"continue","",40475.1999999881,40466.2,40475.1999999881,40475.1999999881,40466.2,40475.1999999881,1,40475.1999999881,0,0,NA,"Click To Continue","Continue Button",23,"object-48","BIQ",NA,"SUPPRF33270"
"3",1706640922653,"30/01/2024 18:55:22",1706640922653,0,"30/01/2024 18:55:22",160285,9,"task-gjqt",NA,34623043,10237746,NA,"complete",NA,"65b93edcda85461a21b462d5","computer","Desktop or Laptop","Windows 10","Chrome 121.0.0.0","1536x864","1536x730",NA,NA,0,"BIQ (Charlotte)",3,"IJHAGBFCED","Passed AC2","","Spreadsheet1",1,"BIQ","Screen 1","9dh6eq",1,"response","6",13582.9,40466.2,40483.2,13582.9,40466.2,40483.2,1,13582.9,26900.3,0,NA,"Rating Scale","Rating Scale",3,"object-5","BIQ",NA,"SUPPRF33270"
"4",1706640922653,"30/01/2024 18:55:22",1706640922653,0,"30/01/2024 18:55:22",160285,9,"task-gjqt",NA,34623043,10237746,NA,"complete",NA,"65b93edcda85461a21b462d5","computer","Desktop or Laptop","Windows 10","Chrome 121.0.0.0","1536x864","1536x730",NA,NA,0,"BIQ (Charlotte)",3,"IJHAGBFCED","Passed AC2","","Spreadsheet1",1,"BIQ","Screen 1","9dh6eq",1,"response","3",26182.8,40466.2,40483.2,26182.8,40466.2,40483.2,1,26182.8,14300.4,0,NA,"Rating Scale","Rating Scale",10,"object-18","BIQ",NA,"SUPPRF33270"
"5",1706640922654,"30/01/2024 18:55:22",1706640922654,0,"30/01/2024 18:55:22",160285,9,"task-gjqt",NA,34623043,10237746,NA,"complete",NA,"65b93edcda85461a21b462d5","computer","Desktop or Laptop","Windows 10","Chrome 121.0.0.0","1536x864","1536x730",NA,NA,0,"BIQ (Charlotte)",3,"IJHAGBFCED","Passed AC2","","Spreadsheet1",1,"BIQ","Screen 1","9dh6eq",1,"response","1",38082.5,40466.2,40483.2,38082.5,40466.2,40483.2,1,38082.5,2400.7,0,NA,"Rating Scale","Rating Scale",17,"object-80","BIQ",NA,"SUPPRF33270"
"6",1706640954497,"30/01/2024 18:55:54",1706640954497,0,"30/01/2024 18:55:54",160285,9,"task-gjqt",NA,34623043,10237746,NA,"complete",NA,"65b93edcda85461a21b462d5","computer","Desktop or Laptop","Windows 10","Chrome 121.0.0.0","1536x864","1536x730",NA,NA,0,"BIQ (Charlotte)",3,"IJHAGBFCED","Passed AC2","","Spreadsheet1",1,"BIQ","Screen 2","o21mwi",2,"continue","",31860.5999999821,31849,31860.5999999821,31860.5999999821,31849,31860.5999999821,1,31860.5999999821,0,0,NA,"Click To Continue","Continue Button",22,"object-50","BIQ",NA,"SUPPRF33270"
"7",1706640954501,"30/01/2024 18:55:54",1706640954501,0,"30/01/2024 18:55:54",160285,9,"task-gjqt",NA,34623043,10237746,NA,"complete",NA,"65b93edcda85461a21b462d5","computer","Desktop or Laptop","Windows 10","Chrome 121.0.0.0","1536x864","1536x730",NA,NA,0,"BIQ (Charlotte)",3,"IJHAGBFCED","Passed AC2","","Spreadsheet1",1,"BIQ","Screen 2","o21mwi",2,"response","8",4849.4,31849,31864.9999999881,4849.4,31849,31864.9999999881,1,4849.4,27015.5999999881,0,NA,"Rating Scale","Rating Scale",2,"object-259","BIQ",NA,"SUPPRF33270"
"8",1706640954502,"30/01/2024 18:55:54",1706640954502,0,"30/01/2024 18:55:54",160285,9,"task-gjqt",NA,34623043,10237746,NA,"complete",NA,"65b93edcda85461a21b462d5","computer","Desktop or Laptop","Windows 10","Chrome 121.0.0.0","1536x864","1536x730",NA,NA,0,"BIQ (Charlotte)",3,"IJHAGBFCED","Passed AC2","","Spreadsheet1",1,"BIQ","Screen 2","o21mwi",2,"response","2",20099.2,31849,31865.2,20099.2,31849,31865.2,1,20099.2,11766,0,NA,"Rating Scale","Rating Scale",9,"object-36","BIQ",NA,"SUPPRF33270"
"9",1706640954503,"30/01/2024 18:55:54",1706640954503,0,"30/01/2024 18:55:54",160285,9,"task-gjqt",NA,34623043,10237746,NA,"complete",NA,"65b93edcda85461a21b462d5","computer","Desktop or Laptop","Windows 10","Chrome 121.0.0.0","1536x864","1536x730",NA,NA,0,"BIQ (Charlotte)",3,"IJHAGBFCED","Passed AC2","","Spreadsheet1",1,"BIQ","Screen 2","o21mwi",2,"response","2",25899.2,31849,31865.2,25899.2,31849,31865.2,1,25899.2,5966,0,NA,"Rating Scale","Rating Scale",16,"object-86","BIQ",NA,"SUPPRF33270"
"10",1706640967956,"30/01/2024 18:56:07",1706640967956,0,"30/01/2024 18:56:07",160285,9,"task-gjqt",NA,34623043,10237746,NA,"complete",NA,"65b93edcda85461a21b462d5","computer","Desktop or Laptop","Windows 10","Chrome 121.0.0.0","1536x864","1536x730",NA,NA,0,"BIQ (Charlotte)",3,"IJHAGBFCED","Passed AC2","","Spreadsheet1",1,"BIQ","Screen 3","iz3the",3,"continue","",13470.4999999881,13467,13470.4999999881,13470.4999999881,13467,13470.4999999881,1,13470.4999999881,0,0,NA,"Click To Continue","Continue Button",22,"object-73","BIQ",NA,"SUPPRF33270"
