"Event.Index","UTC.Timestamp","UTC.Date.and.Time","Local.Timestamp","Local.Timezone","Local.Date.and.Time","Experiment.ID","Experiment.Version","Tree.Node.Key","Repeat.Key","Schedule.ID","Participant.Private.ID","Participant.Starting.Group","Participant.Status","Participant.Completion.Code","Participant.External.Session.ID","Participant.Device.Type","Participant.Device","Participant.OS","Participant.Browser","Participant.Monitor.Size","Participant.Viewport.Size","Checkpoint","Room.ID","Room.Order","Task.Name","Task.Version","order.ot79","branch.g31k","branch.5gtn","Spreadsheet","Current.Spreadsheet","Trial.Number","Display","Screen","Screen.ID","Screen.Counter","Response.Type","Response","Onset.Time","Clock.Time","Reaction.Time","Absolute.Onset.Time","Absolute.Clock.Time","Absolute.Reaction.Time","Correct","Response.Onset","Response.Duration","Proportion","Tag","Component.Name","Object.Name","Object.Number","Object.ID","Spreadsheet..display","Manipulation..Spreadsheet","Random_ID"
"1",1712945968221,"12/04/2024 18:19:28",1712920768221,-7,"12/04/2024 04:19:28",175580,1,"task-7hcp",NA,36975916,10904997,NA,"complete",NA,"661971045da025666c6f5a25","computer","Desktop or Laptop","Windows 10","Chrome 123.0.0.0","1280x720","1280x551",NA,NA,0,"BIQ (Charlotte)",5,"ABKCJDIEHFG","Passed AC2","","Spreadsheet1","Spreadsheet1",NA,"","","",NA,"5","BEGIN",NA,NA,NA,NA,NA,NA,0,NA,NA,NA,NA,"","",NA,"","",NA,"SUPPRF15657"
"2",1712946130216,"12/04/2024 18:22:10",1712920930216,-7,"12/04/2024 04:22:10",175580,1,"task-7hcp",NA,36975916,10904997,NA,"complete",NA,"661971045da025666c6f5a25","computer","Desktop or Laptop","Windows 10","Chrome 123.0.0.0","1280x720","1280x551",NA,NA,0,"BIQ (Charlotte)",5,"ABKCJDIEHFG","Passed AC2","","Spreadsheet1","Spreadsheet1",1,"BIQ","Screen 1","9dh6eq",1,"continue","",162018.714000012,162003.814,162018.714000012,162018.714000012,162003.814,162018.714000012,1,162018.714000012,0,0,NA,"Click To Continue","Continue Button",16,"object-48","BIQ",NA,"SUPPRF15657"
"3",1712946130222,"12/04/2024 18:22:10",1712920930222,-7,"12/04/2024 04:22:10",175580,1,"task-7hcp",NA,36975916,10904997,NA,"complete",NA,"661971045da025666c6f5a25","computer","Desktop or Laptop","Windows 10","Chrome 123.0.0.0","1280x720","1280x551",NA,NA,0,"BIQ (Charlotte)",5,"ABKCJDIEHFG","Passed AC2","","Spreadsheet1","Spreadsheet1",1,"BIQ","Screen 1","9dh6eq",1,"response","2",155124.214,162003.814,162020.314,155124.214,162003.814,162020.314,1,155124.214,6896.10000000001,0,NA,"Rating Scale","Rating Scale",3,"object-5","BIQ",NA,"SUPPRF15657"
"4",1712946130224,"12/04/2024 18:22:10",1712920930224,-7,"12/04/2024 04:22:10",175580,1,"task-7hcp",NA,36975916,10904997,NA,"complete",NA,"661971045da025666c6f5a25","computer","Desktop or Laptop","Windows 10","Chrome 123.0.0.0","1280x720","1280x551",NA,NA,0,"BIQ (Charlotte)",5,"ABKCJDIEHFG","Passed AC2","","Spreadsheet1","Spreadsheet1",1,"BIQ","Screen 1","9dh6eq",1,"response","4",160021.714,162003.814,162020.314,160021.714,162003.814,162020.314,1,160021.714,1998.60000000001,0,NA,"Rating Scale","Rating Scale",10,"object-18","BIQ",NA,"SUPPRF15657"
"5",1712946144990,"12/04/2024 18:22:24",1712920944990,-7,"12/04/2024 04:22:24",175580,1,"task-7hcp",NA,36975916,10904997,NA,"complete",NA,"661971045da025666c6f5a25","computer","Desktop or Laptop","Windows 10","Chrome 123.0.0.0","1280x720","1280x551",NA,NA,0,"BIQ (Charlotte)",5,"ABKCJDIEHFG","Passed AC2","","Spreadsheet1","Spreadsheet1",1,"BIQ","Screen 2","svpz34",2,"continue","",14802.9000000119,14791.8,14802.9000000119,14802.9000000119,14791.8,14802.9000000119,1,14802.9000000119,0,0,NA,"Click To Continue","Continue Button",7,"object-1017","BIQ",NA,"SUPPRF15657"
"6",1712946144992,"12/04/2024 18:22:24",1712920944992,-7,"12/04/2024 04:22:24",175580,1,"task-7hcp",NA,36975916,10904997,NA,"complete",NA,"661971045da025666c6f5a25","computer","Desktop or Laptop","Windows 10","Chrome 123.0.0.0","1280x720","1280x551",NA,NA,0,"BIQ (Charlotte)",5,"ABKCJDIEHFG","Passed AC2","","Spreadsheet1","Spreadsheet1",1,"BIQ","Screen 2","svpz34",2,"response","4",7545.89999999999,14791.8,14804.3000000179,7545.89999999999,14791.8,14804.3000000179,1,7545.89999999999,7258.40000001789,0,NA,"Rating Scale","Rating Scale",8,"object-118","BIQ",NA,"SUPPRF15657"
"7",1712946144992,"12/04/2024 18:22:24",1712920944992,-7,"12/04/2024 04:22:24",175580,1,"task-7hcp",NA,36975916,10904997,NA,"complete",NA,"661971045da025666c6f5a25","computer","Desktop or Laptop","Windows 10","Chrome 123.0.0.0","1280x720","1280x551",NA,NA,0,"BIQ (Charlotte)",5,"ABKCJDIEHFG","Passed AC2","","Spreadsheet1","Spreadsheet1",1,"BIQ","Screen 2","svpz34",2,"response","4",12626.6,14791.8,14805.4000000119,12626.6,14791.8,14805.4000000119,1,12626.6,2178.80000001192,0,NA,"Rating Scale","Rating Scale",10,"object-121","BIQ",NA,"SUPPRF15657"
"8",1712946162454,"12/04/2024 18:22:42",1712920962454,-7,"12/04/2024 04:22:42",175580,1,"task-7hcp",NA,36975916,10904997,NA,"complete",NA,"661971045da025666c6f5a25","computer","Desktop or Laptop","Windows 10","Chrome 123.0.0.0","1280x720","1280x551",NA,NA,0,"BIQ (Charlotte)",5,"ABKCJDIEHFG","Passed AC2","","Spreadsheet1","Spreadsheet1",1,"BIQ","Screen 3","o21mwi",3,"continue","",17473.7,17457.2,17473.7,17473.7,17457.2,17473.7,1,17473.7,0,0,NA,"Click To Continue","Continue Button",15,"object-50","BIQ",NA,"SUPPRF15657"
"9",1712946162455,"12/04/2024 18:22:42",1712920962455,-7,"12/04/2024 04:22:42",175580,1,"task-7hcp",NA,36975916,10904997,NA,"complete",NA,"661971045da025666c6f5a25","computer","Desktop or Laptop","Windows 10","Chrome 123.0.0.0","1280x720","1280x551",NA,NA,0,"BIQ (Charlotte)",5,"ABKCJDIEHFG","Passed AC2","","Spreadsheet1","Spreadsheet1",1,"BIQ","Screen 3","o21mwi",3,"response","4",10127.8,17457.2,17473.7,10127.8,17457.2,17473.7,1,10127.8,7345.89999999999,0,NA,"Rating Scale","Rating Scale",2,"object-36","BIQ",NA,"SUPPRF15657"
"10",1712946162456,"12/04/2024 18:22:42",1712920962456,-7,"12/04/2024 04:22:42",175580,1,"task-7hcp",NA,36975916,10904997,NA,"complete",NA,"661971045da025666c6f5a25","computer","Desktop or Laptop","Windows 10","Chrome 123.0.0.0","1280x720","1280x551",NA,NA,0,"BIQ (Charlotte)",5,"ABKCJDIEHFG","Passed AC2","","Spreadsheet1","Spreadsheet1",1,"BIQ","Screen 3","o21mwi",3,"response","1",16441.2,17457.2,17473.7,16441.2,17457.2,17473.7,1,16441.2,1032.5,0,NA,"Rating Scale","Rating Scale",9,"object-86","BIQ",NA,"SUPPRF15657"
"11",1712946212755,"12/04/2024 18:23:32",1712921012755,-7,"12/04/2024 04:23:32",175580,1,"task-7hcp",NA,36975916,10904997,NA,"complete",NA,"661971045da025666c6f5a25","computer","Desktop or Laptop","Windows 10","Chrome 123.0.0.0","1280x720","1280x551",NA,NA,0,"BIQ (Charlotte)",5,"ABKCJDIEHFG","Passed AC2","","Spreadsheet1","Spreadsheet1",1,"BIQ","Screen 4","iz3the",4,"continue","",50317.9000000119,50305.9,50317.9000000119,50317.9000000119,50305.9,50317.9000000119,1,50317.9000000119,0,0,NA,"Click To Continue","Continue Button",22,"object-73","BIQ",NA,"SUPPRF15657"
"12",1712946212762,"12/04/2024 18:23:32",1712921012762,-7,"12/04/2024 04:23:32",175580,1,"task-7hcp",NA,36975916,10904997,NA,"complete",NA,"661971045da025666c6f5a25","computer","Desktop or Laptop","Windows 10","Chrome 123.0.0.0","1280x720","1280x551",NA,NA,0,"BIQ (Charlotte)",5,"ABKCJDIEHFG","Passed AC2","","Spreadsheet1","Spreadsheet1",1,"BIQ","Screen 4","iz3the",4,"response","2",8461.89999999999,50305.9,50322.5,8461.89999999999,50305.9,50322.5,1,8461.89999999999,41860.6,0,NA,"Rating Scale","Rating Scale",2,"object-53","BIQ",NA,"SUPPRF15657"
"13",1712946212763,"12/04/2024 18:23:32",1712921012763,-7,"12/04/2024 04:23:32",175580,1,"task-7hcp",NA,36975916,10904997,NA,"complete",NA,"661971045da025666c6f5a25","computer","Desktop or Laptop","Windows 10","Chrome 123.0.0.0","1280x720","1280x551",NA,NA,0,"BIQ (Charlotte)",5,"ABKCJDIEHFG","Passed AC2","","Spreadsheet1","Spreadsheet1",1,"BIQ","Screen 4","iz3the",4,"response","4",37596.3,50305.9,50322.5,37596.3,50305.9,50322.5,1,37596.3,12726.2,0,NA,"Rating Scale","Rating Scale",9,"object-60","BIQ",NA,"SUPPRF15657"
"14",1712946212764,"12/04/2024 18:23:32",1712921012764,-7,"12/04/2024 04:23:32",175580,1,"task-7hcp",NA,36975916,10904997,NA,"complete",NA,"661971045da025666c6f5a25","computer","Desktop or Laptop","Windows 10","Chrome 123.0.0.0","1280x720","1280x551",NA,NA,0,"BIQ (Charlotte)",5,"ABKCJDIEHFG","Passed AC2","","Spreadsheet1","Spreadsheet1",1,"BIQ","Screen 4","iz3the",4,"response","7",49456.4,50305.9,50322.5,49456.4,50305.9,50322.5,1,49456.4,866.099999999977,0,NA,"Rating Scale","Rating Scale",16,"object-67","BIQ",NA,"SUPPRF15657"
"15",1712946212781,"12/04/2024 18:23:32",1712921012781,-7,"12/04/2024 04:23:32",175580,1,"task-7hcp",NA,36975916,10904997,NA,"complete",NA,"661971045da025666c6f5a25","computer","Desktop or Laptop","Windows 10","Chrome 123.0.0.0","1280x720","1280x551",NA,NA,0,"BIQ (Charlotte)",5,"ABKCJDIEHFG","Passed AC2","","Spreadsheet1","Spreadsheet1",NA,"","","",NA,"5","END",NA,NA,NA,NA,NA,NA,0,NA,NA,NA,NA,"","",NA,"","",NA,"SUPPRF15657"
"1",1712945146101,"12/04/2024 18:05:46",1712948746101,1,"12/04/2024 20:05:46",175580,1,"task-7hcp",NA,36975664,10905124,NA,"complete",NA,"6619757d6fae9709c3cbc430","computer","Desktop or Laptop","Mac OS 10.15.7","Chrome 123.0.0.0","1440x900","1440x734",NA,NA,0,"BIQ (Charlotte)",5,"BCADKEJFIGH","Passed AC2","","Spreadsheet1","Spreadsheet1",NA,"","","",NA,"5","BEGIN",NA,NA,NA,NA,NA,NA,0,NA,NA,NA,NA,"","",NA,"","",NA,"SUPPRF69636"
"2",1712945157125,"12/04/2024 18:05:57",1712948757125,1,"12/04/2024 20:05:57",175580,1,"task-7hcp",NA,36975664,10905124,NA,"complete",NA,"6619757d6fae9709c3cbc430","computer","Desktop or Laptop","Mac OS 10.15.7","Chrome 123.0.0.0","1440x900","1440x734",NA,NA,0,"BIQ (Charlotte)",5,"BCADKEJFIGH","Passed AC2","","Spreadsheet1","Spreadsheet1",1,"BIQ","Screen 1","9dh6eq",1,"continue","",11047.112,11032.812,11047.112,11047.112,11032.812,11047.112,1,11047.112,0,0,NA,"Click To Continue","Continue Button",16,"object-48","BIQ",NA,"SUPPRF69636"
"3",1712945157127,"12/04/2024 18:05:57",1712948757127,1,"12/04/2024 20:05:57",175580,1,"task-7hcp",NA,36975664,10905124,NA,"complete",NA,"6619757d6fae9709c3cbc430","computer","Desktop or Laptop","Mac OS 10.15.7","Chrome 123.0.0.0","1440x900","1440x734",NA,NA,0,"BIQ (Charlotte)",5,"BCADKEJFIGH","Passed AC2","","Spreadsheet1","Spreadsheet1",1,"BIQ","Screen 1","9dh6eq",1,"response","6",6399.612,11032.812,11049.512,6399.612,11032.812,11049.512,1,6399.612,4649.9,0,NA,"Rating Scale","Rating Scale",3,"object-5","BIQ",NA,"SUPPRF69636"
"4",1712945157127,"12/04/2024 18:05:57",1712948757127,1,"12/04/2024 20:05:57",175580,1,"task-7hcp",NA,36975664,10905124,NA,"complete",NA,"6619757d6fae9709c3cbc430","computer","Desktop or Laptop","Mac OS 10.15.7","Chrome 123.0.0.0","1440x900","1440x734",NA,NA,0,"BIQ (Charlotte)",5,"BCADKEJFIGH","Passed AC2","","Spreadsheet1","Spreadsheet1",1,"BIQ","Screen 1","9dh6eq",1,"response","7",10466.212,11032.812,11049.512,10466.212,11032.812,11049.512,1,10466.212,583.300000000001,0,NA,"Rating Scale","Rating Scale",10,"object-18","BIQ",NA,"SUPPRF69636"
"5",1712945167143,"12/04/2024 18:06:07",1712948767143,1,"12/04/2024 20:06:07",175580,1,"task-7hcp",NA,36975664,10905124,NA,"complete",NA,"6619757d6fae9709c3cbc430","computer","Desktop or Laptop","Mac OS 10.15.7","Chrome 123.0.0.0","1440x900","1440x734",NA,NA,0,"BIQ (Charlotte)",5,"BCADKEJFIGH","Passed AC2","","Spreadsheet1","Spreadsheet1",1,"BIQ","Screen 2","svpz34",2,"continue","",10033,10016.3,10033,10033,10016.3,10033,1,10033,0,0,NA,"Click To Continue","Continue Button",7,"object-1017","BIQ",NA,"SUPPRF69636"
"6",1712945167146,"12/04/2024 18:06:07",1712948767146,1,"12/04/2024 20:06:07",175580,1,"task-7hcp",NA,36975664,10905124,NA,"complete",NA,"6619757d6fae9709c3cbc430","computer","Desktop or Laptop","Mac OS 10.15.7","Chrome 123.0.0.0","1440x900","1440x734",NA,NA,0,"BIQ (Charlotte)",5,"BCADKEJFIGH","Passed AC2","","Spreadsheet1","Spreadsheet1",1,"BIQ","Screen 2","svpz34",2,"response","6",3399.8,10016.3,10033,3399.8,10016.3,10033,1,3399.8,6633.2,0,NA,"Rating Scale","Rating Scale",8,"object-118","BIQ",NA,"SUPPRF69636"
"7",1712945167146,"12/04/2024 18:06:07",1712948767146,1,"12/04/2024 20:06:07",175580,1,"task-7hcp",NA,36975664,10905124,NA,"complete",NA,"6619757d6fae9709c3cbc430","computer","Desktop or Laptop","Mac OS 10.15.7","Chrome 123.0.0.0","1440x900","1440x734",NA,NA,0,"BIQ (Charlotte)",5,"BCADKEJFIGH","Passed AC2","","Spreadsheet1","Spreadsheet1",1,"BIQ","Screen 2","svpz34",2,"response","6",7899.7,10016.3,10033,7899.7,10016.3,10033,1,7899.7,2133.3,0,NA,"Rating Scale","Rating Scale",10,"object-121","BIQ",NA,"SUPPRF69636"
"8",1712945186176,"12/04/2024 18:06:26",1712948786176,1,"12/04/2024 20:06:26",175580,1,"task-7hcp",NA,36975664,10905124,NA,"complete",NA,"6619757d6fae9709c3cbc430","computer","Desktop or Laptop","Mac OS 10.15.7","Chrome 123.0.0.0","1440x900","1440x734",NA,NA,0,"BIQ (Charlotte)",5,"BCADKEJFIGH","Passed AC2","","Spreadsheet1","Spreadsheet1",1,"BIQ","Screen 3","o21mwi",3,"continue","",19049.1,19032.5,19049.1,19049.1,19032.5,19049.1,1,19049.1,0,0,NA,"Click To Continue","Continue Button",15,"object-50","BIQ",NA,"SUPPRF69636"
"9",1712945186179,"12/04/2024 18:06:26",1712948786179,1,"12/04/2024 20:06:26",175580,1,"task-7hcp",NA,36975664,10905124,NA,"complete",NA,"6619757d6fae9709c3cbc430","computer","Desktop or Laptop","Mac OS 10.15.7","Chrome 123.0.0.0","1440x900","1440x734",NA,NA,0,"BIQ (Charlotte)",5,"BCADKEJFIGH","Passed AC2","","Spreadsheet1","Spreadsheet1",1,"BIQ","Screen 3","o21mwi",3,"response","6",3599.8,19032.5,19049.1,3599.8,19032.5,19049.1,1,3599.8,15449.3,0,NA,"Rating Scale","Rating Scale",2,"object-36","BIQ",NA,"SUPPRF69636"
"10",1712945186179,"12/04/2024 18:06:26",1712948786179,1,"12/04/2024 20:06:26",175580,1,"task-7hcp",NA,36975664,10905124,NA,"complete",NA,"6619757d6fae9709c3cbc430","computer","Desktop or Laptop","Mac OS 10.15.7","Chrome 123.0.0.0","1440x900","1440x734",NA,NA,0,"BIQ (Charlotte)",5,"BCADKEJFIGH","Passed AC2","","Spreadsheet1","Spreadsheet1",1,"BIQ","Screen 3","o21mwi",3,"response","6",17832.6,19032.5,19049.1,17832.6,19032.5,19049.1,1,17832.6,1216.5,0,NA,"Rating Scale","Rating Scale",9,"object-86","BIQ",NA,"SUPPRF69636"
"11",1712945213940,"12/04/2024 18:06:53",1712948813940,1,"12/04/2024 20:06:53",175580,1,"task-7hcp",NA,36975664,10905124,NA,"complete",NA,"6619757d6fae9709c3cbc430","computer","Desktop or Laptop","Mac OS 10.15.7","Chrome 123.0.0.0","1440x900","1440x734",NA,NA,0,"BIQ (Charlotte)",5,"BCADKEJFIGH","Passed AC2","","Spreadsheet1","Spreadsheet1",1,"BIQ","Screen 4","iz3the",4,"continue","",27782.1,27765.5,27782.1,27782.1,27765.5,27782.1,1,27782.1,0,0,NA,"Click To Continue","Continue Button",22,"object-73","BIQ",NA,"SUPPRF69636"
"12",1712945213942,"12/04/2024 18:06:53",1712948813942,1,"12/04/2024 20:06:53",175580,1,"task-7hcp",NA,36975664,10905124,NA,"complete",NA,"6619757d6fae9709c3cbc430","computer","Desktop or Laptop","Mac OS 10.15.7","Chrome 123.0.0.0","1440x900","1440x734",NA,NA,0,"BIQ (Charlotte)",5,"BCADKEJFIGH","Passed AC2","","Spreadsheet1","Spreadsheet1",1,"BIQ","Screen 4","iz3the",4,"response","1",18632.6,27765.5,27782.1,18632.6,27765.5,27782.1,1,18632.6,9149.50000000001,0,NA,"Rating Scale","Rating Scale",2,"object-53","BIQ",NA,"SUPPRF69636"
"13",1712945213943,"12/04/2024 18:06:53",1712948813943,1,"12/04/2024 20:06:53",175580,1,"task-7hcp",NA,36975664,10905124,NA,"complete",NA,"6619757d6fae9709c3cbc430","computer","Desktop or Laptop","Mac OS 10.15.7","Chrome 123.0.0.0","1440x900","1440x734",NA,NA,0,"BIQ (Charlotte)",5,"BCADKEJFIGH","Passed AC2","","Spreadsheet1","Spreadsheet1",1,"BIQ","Screen 4","iz3the",4,"response","5",23399.1,27765.5,27782.1,23399.1,27765.5,27782.1,1,23399.1,4383.00000000001,0,NA,"Rating Scale","Rating Scale",9,"object-60","BIQ",NA,"SUPPRF69636"
"14",1712945213943,"12/04/2024 18:06:53",1712948813943,1,"12/04/2024 20:06:53",175580,1,"task-7hcp",NA,36975664,10905124,NA,"complete",NA,"6619757d6fae9709c3cbc430","computer","Desktop or Laptop","Mac OS 10.15.7","Chrome 123.0.0.0","1440x900","1440x734",NA,NA,0,"BIQ (Charlotte)",5,"BCADKEJFIGH","Passed AC2","","Spreadsheet1","Spreadsheet1",1,"BIQ","Screen 4","iz3the",4,"response","4",25782.4,27765.5,27782.1,25782.4,27765.5,27782.1,1,25782.4,1999.70000000001,0,NA,"Rating Scale","Rating Scale",16,"object-67","BIQ",NA,"SUPPRF69636"
"15",1712945213949,"12/04/2024 18:06:53",1712948813949,1,"12/04/2024 20:06:53",175580,1,"task-7hcp",NA,36975664,10905124,NA,"complete",NA,"6619757d6fae9709c3cbc430","computer","Desktop or Laptop","Mac OS 10.15.7","Chrome 123.0.0.0","1440x900","1440x734",NA,NA,0,"BIQ (Charlotte)",5,"BCADKEJFIGH","Passed AC2","","Spreadsheet1","Spreadsheet1",NA,"","","",NA,"5","END",NA,NA,NA,NA,NA,NA,0,NA,NA,NA,NA,"","",NA,"","",NA,"SUPPRF69636"
"1",1712945652122,"12/04/2024 18:14:12",1712949252122,1,"12/04/2024 20:14:12",175580,1,"task-7hcp",NA,36975817,10905155,NA,"complete",NA,"6619768c4c1f510a41c28420","computer","Desktop or Laptop","Mac OS 10.15.7","Chrome 123.0.0.0","1440x900","1440x779",NA,NA,0,"BIQ (Charlotte)",5,"CDBEAFKGJHI","Passed AC2","","Spreadsheet1","Spreadsheet1",NA,"","","",NA,"5","BEGIN",NA,NA,NA,NA,NA,NA,0,NA,NA,NA,NA,"","",NA,"","",NA,"SUPPRF05105"
"2",1712945696946,"12/04/2024 18:14:56",1712949296946,1,"12/04/2024 20:14:56",175580,1,"task-7hcp",NA,36975817,10905155,NA,"complete",NA,"6619768c4c1f510a41c28420","computer","Desktop or Laptop","Mac OS 10.15.7","Chrome 123.0.0.0","1440x900","1440x779",NA,NA,0,"BIQ (Charlotte)",5,"CDBEAFKGJHI","Passed AC2","","Spreadsheet1","Spreadsheet1",1,"BIQ","Screen 1","9dh6eq",1,"continue","",44827.7160000015,44814.816,44827.7160000015,44827.7160000015,44814.816,44827.7160000015,1,44827.7160000015,0,0,NA,"Click To Continue","Continue Button",16,"object-48","BIQ",NA,"SUPPRF05105"
"3",1712945696948,"12/04/2024 18:14:56",1712949296948,1,"12/04/2024 20:14:56",175580,1,"task-7hcp",NA,36975817,10905155,NA,"complete",NA,"6619768c4c1f510a41c28420","computer","Desktop or Laptop","Mac OS 10.15.7","Chrome 123.0.0.0","1440x900","1440x779",NA,NA,0,"BIQ (Charlotte)",5,"CDBEAFKGJHI","Passed AC2","","Spreadsheet1","Spreadsheet1",1,"BIQ","Screen 1","9dh6eq",1,"response","2",27082.116,44814.816,44831.516,27082.116,44814.816,44831.516,1,27082.116,17749.4,0,NA,"Rating Scale","Rating Scale",3,"object-5","BIQ",NA,"SUPPRF05105"
"4",1712945696948,"12/04/2024 18:14:56",1712949296948,1,"12/04/2024 20:14:56",175580,1,"task-7hcp",NA,36975817,10905155,NA,"complete",NA,"6619768c4c1f510a41c28420","computer","Desktop or Laptop","Mac OS 10.15.7","Chrome 123.0.0.0","1440x900","1440x779",NA,NA,0,"BIQ (Charlotte)",5,"CDBEAFKGJHI","Passed AC2","","Spreadsheet1","Spreadsheet1",1,"BIQ","Screen 1","9dh6eq",1,"response","2",39348.316,44814.816,44831.516,39348.316,44814.816,44831.516,1,39348.316,5483.2,0,NA,"Rating Scale","Rating Scale",10,"object-18","BIQ",NA,"SUPPRF05105"
"5",1712945710304,"12/04/2024 18:15:10",1712949310304,1,"12/04/2024 20:15:10",175580,1,"task-7hcp",NA,36975817,10905155,NA,"complete",NA,"6619768c4c1f510a41c28420","computer","Desktop or Laptop","Mac OS 10.15.7","Chrome 123.0.0.0","1440x900","1440x779",NA,NA,0,"BIQ (Charlotte)",5,"CDBEAFKGJHI","Passed AC2","","Spreadsheet1","Spreadsheet1",1,"BIQ","Screen 2","svpz34",2,"continue","",13377.9000000015,13366.1,13377.9000000015,13377.9000000015,13366.1,13377.9000000015,1,13377.9000000015,0,0,NA,"Click To Continue","Continue Button",7,"object-1017","BIQ",NA,"SUPPRF05105"
"6",1712945710307,"12/04/2024 18:15:10",1712949310307,1,"12/04/2024 20:15:10",175580,1,"task-7hcp",NA,36975817,10905155,NA,"complete",NA,"6619768c4c1f510a41c28420","computer","Desktop or Laptop","Mac OS 10.15.7","Chrome 123.0.0.0","1440x900","1440x779",NA,NA,0,"BIQ (Charlotte)",5,"CDBEAFKGJHI","Passed AC2","","Spreadsheet1","Spreadsheet1",1,"BIQ","Screen 2","svpz34",2,"response","2",4699.7,13366.1,13382.000000003,4699.7,13366.1,13382.000000003,1,4699.7,8682.30000000298,0,NA,"Rating Scale","Rating Scale",8,"object-118","BIQ",NA,"SUPPRF05105"
"7",1712945710308,"12/04/2024 18:15:10",1712949310308,1,"12/04/2024 20:15:10",175580,1,"task-7hcp",NA,36975817,10905155,NA,"complete",NA,"6619768c4c1f510a41c28420","computer","Desktop or Laptop","Mac OS 10.15.7","Chrome 123.0.0.0","1440x900","1440x779",NA,NA,0,"BIQ (Charlotte)",5,"CDBEAFKGJHI","Passed AC2","","Spreadsheet1","Spreadsheet1",1,"BIQ","Screen 2","svpz34",2,"response","3",12566.1,13366.1,13382.6999999985,12566.1,13366.1,13382.6999999985,1,12566.1,816.599999998507,0,NA,"Rating Scale","Rating Scale",10,"object-121","BIQ",NA,"SUPPRF05105"
"8",1712945743292,"12/04/2024 18:15:43",1712949343292,1,"12/04/2024 20:15:43",175580,1,"task-7hcp",NA,36975817,10905155,NA,"complete",NA,"6619768c4c1f510a41c28420","computer","Desktop or Laptop","Mac OS 10.15.7","Chrome 123.0.0.0","1440x900","1440x779",NA,NA,0,"BIQ (Charlotte)",5,"CDBEAFKGJHI","Passed AC2","","Spreadsheet1","Spreadsheet1",1,"BIQ","Screen 3","o21mwi",3,"continue","",32998.7,32982,32998.7,32998.7,32982,32998.7,1,32998.7,0,0,NA,"Click To Continue","Continue Button",15,"object-50","BIQ",NA,"SUPPRF05105"
"9",1712945743296,"12/04/2024 18:15:43",1712949343296,1,"12/04/2024 20:15:43",175580,1,"task-7hcp",NA,36975817,10905155,NA,"complete",NA,"6619768c4c1f510a41c28420","computer","Desktop or Laptop","Mac OS 10.15.7","Chrome 123.0.0.0","1440x900","1440x779",NA,NA,0,"BIQ (Charlotte)",5,"CDBEAFKGJHI","Passed AC2","","Spreadsheet1","Spreadsheet1",1,"BIQ","Screen 3","o21mwi",3,"response","3",8583,32982,32998.7,8583,32982,32998.7,1,8583,24415.7,0,NA,"Rating Scale","Rating Scale",2,"object-36","BIQ",NA,"SUPPRF05105"
"10",1712945743296,"12/04/2024 18:15:43",1712949343296,1,"12/04/2024 20:15:43",175580,1,"task-7hcp",NA,36975817,10905155,NA,"complete",NA,"6619768c4c1f510a41c28420","computer","Desktop or Laptop","Mac OS 10.15.7","Chrome 123.0.0.0","1440x900","1440x779",NA,NA,0,"BIQ (Charlotte)",5,"CDBEAFKGJHI","Passed AC2","","Spreadsheet1","Spreadsheet1",1,"BIQ","Screen 3","o21mwi",3,"response","4",31965.4,32982,32998.7,31965.4,32982,32998.7,1,31965.4,1033.3,0,NA,"Rating Scale","Rating Scale",9,"object-86","BIQ",NA,"SUPPRF05105"
"11",1712945781048,"12/04/2024 18:16:21",1712949381048,1,"12/04/2024 20:16:21",175580,1,"task-7hcp",NA,36975817,10905155,NA,"complete",NA,"6619768c4c1f510a41c28420","computer","Desktop or Laptop","Mac OS 10.15.7","Chrome 123.0.0.0","1440x900","1440x779",NA,NA,0,"BIQ (Charlotte)",5,"CDBEAFKGJHI","Passed AC2","","Spreadsheet1","Spreadsheet1",1,"BIQ","Screen 4","iz3the",4,"continue","",37776.400000003,37765.2,37776.400000003,37776.400000003,37765.2,37776.400000003,1,37776.400000003,0,0,NA,"Click To Continue","Continue Button",22,"object-73","BIQ",NA,"SUPPRF05105"
"12",1712945781052,"12/04/2024 18:16:21",1712949381052,1,"12/04/2024 20:16:21",175580,1,"task-7hcp",NA,36975817,10905155,NA,"complete",NA,"6619768c4c1f510a41c28420","computer","Desktop or Laptop","Mac OS 10.15.7","Chrome 123.0.0.0","1440x900","1440x779",NA,NA,0,"BIQ (Charlotte)",5,"CDBEAFKGJHI","Passed AC2","","Spreadsheet1","Spreadsheet1",1,"BIQ","Screen 4","iz3the",4,"response","1",13399.5,37765.2,37779.999999997,13399.5,37765.2,37779.999999997,1,13399.5,24380.499999997,0,NA,"Rating Scale","Rating Scale",2,"object-53","BIQ",NA,"SUPPRF05105"
"13",1712945781052,"12/04/2024 18:16:21",1712949381052,1,"12/04/2024 20:16:21",175580,1,"task-7hcp",NA,36975817,10905155,NA,"complete",NA,"6619768c4c1f510a41c28420","computer","Desktop or Laptop","Mac OS 10.15.7","Chrome 123.0.0.0","1440x900","1440x779",NA,NA,0,"BIQ (Charlotte)",5,"CDBEAFKGJHI","Passed AC2","","Spreadsheet1","Spreadsheet1",1,"BIQ","Screen 4","iz3the",4,"response","2",28332.2,37765.2,37780.5999999985,28332.2,37765.2,37780.5999999985,1,28332.2,9448.39999999851,0,NA,"Rating Scale","Rating Scale",9,"object-60","BIQ",NA,"SUPPRF05105"
"14",1712945781052,"12/04/2024 18:16:21",1712949381052,1,"12/04/2024 20:16:21",175580,1,"task-7hcp",NA,36975817,10905155,NA,"complete",NA,"6619768c4c1f510a41c28420","computer","Desktop or Laptop","Mac OS 10.15.7","Chrome 123.0.0.0","1440x900","1440x779",NA,NA,0,"BIQ (Charlotte)",5,"CDBEAFKGJHI","Passed AC2","","Spreadsheet1","Spreadsheet1",1,"BIQ","Screen 4","iz3the",4,"response","2",33732,37765.2,37780.8000000015,33732,37765.2,37780.8000000015,1,33732,4048.80000000149,0,NA,"Rating Scale","Rating Scale",16,"object-67","BIQ",NA,"SUPPRF05105"
"15",1712945781059,"12/04/2024 18:16:21",1712949381059,1,"12/04/2024 20:16:21",175580,1,"task-7hcp",NA,36975817,10905155,NA,"complete",NA,"6619768c4c1f510a41c28420","computer","Desktop or Laptop","Mac OS 10.15.7","Chrome 123.0.0.0","1440x900","1440x779",NA,NA,0,"BIQ (Charlotte)",5,"CDBEAFKGJHI","Passed AC2","","Spreadsheet1","Spreadsheet1",NA,"","","",NA,"5","END",NA,NA,NA,NA,NA,NA,0,NA,NA,NA,NA,"","",NA,"","",NA,"SUPPRF05105"
"1",1712946167540,"12/04/2024 18:22:47",1712949767540,1,"12/04/2024 20:22:47",175580,1,"task-7hcp",NA,36976013,10905244,NA,"complete",NA,"661978915a0654b8bd0fe5e2","computer","Desktop or Laptop","Windows 10","Chrome 123.0.0.0","1280x720","1280x585",NA,NA,0,"BIQ (Charlotte)",5,"EFDGCHBIAJK","Passed AC2","","Spreadsheet1","Spreadsheet1",NA,"","","",NA,"5","BEGIN",NA,NA,NA,NA,NA,NA,0,NA,NA,NA,NA,"","",NA,"","",NA,"SUPPRF18017"
"2",1712946203503,"12/04/2024 18:23:23",1712949803503,1,"12/04/2024 20:23:23",175580,1,"task-7hcp",NA,36976013,10905244,NA,"complete",NA,"661978915a0654b8bd0fe5e2","computer","Desktop or Laptop","Windows 10","Chrome 123.0.0.0","1280x720","1280x585",NA,NA,0,"BIQ (Charlotte)",5,"EFDGCHBIAJK","Passed AC2","","Spreadsheet1","Spreadsheet1",1,"BIQ","Screen 1","9dh6eq",1,"continue","",35983.9,35967.2,35983.9,35983.9,35967.2,35983.9,1,35983.9,0,0,NA,"Click To Continue","Continue Button",16,"object-48","BIQ",NA,"SUPPRF18017"
"3",1712946203510,"12/04/2024 18:23:23",1712949803510,1,"12/04/2024 20:23:23",175580,1,"task-7hcp",NA,36976013,10905244,NA,"complete",NA,"661978915a0654b8bd0fe5e2","computer","Desktop or Laptop","Windows 10","Chrome 123.0.0.0","1280x720","1280x585",NA,NA,0,"BIQ (Charlotte)",5,"EFDGCHBIAJK","Passed AC2","","Spreadsheet1","Spreadsheet1",1,"BIQ","Screen 1","9dh6eq",1,"response","4",28883.9,35967.2,35983.9,28883.9,35967.2,35983.9,1,28883.9,7099.99999999999,0,NA,"Rating Scale","Rating Scale",3,"object-5","BIQ",NA,"SUPPRF18017"
"4",1712946203511,"12/04/2024 18:23:23",1712949803511,1,"12/04/2024 20:23:23",175580,1,"task-7hcp",NA,36976013,10905244,NA,"complete",NA,"661978915a0654b8bd0fe5e2","computer","Desktop or Laptop","Windows 10","Chrome 123.0.0.0","1280x720","1280x585",NA,NA,0,"BIQ (Charlotte)",5,"EFDGCHBIAJK","Passed AC2","","Spreadsheet1","Spreadsheet1",1,"BIQ","Screen 1","9dh6eq",1,"response","3",35083.9,35967.2,35983.9,35083.9,35967.2,35983.9,1,35083.9,899.999999999993,0,NA,"Rating Scale","Rating Scale",10,"object-18","BIQ",NA,"SUPPRF18017"
"5",1712946213918,"12/04/2024 18:23:33",1712949813918,1,"12/04/2024 20:23:33",175580,1,"task-7hcp",NA,36976013,10905244,NA,"complete",NA,"661978915a0654b8bd0fe5e2","computer","Desktop or Laptop","Windows 10","Chrome 123.0.0.0","1280x720","1280x585",NA,NA,0,"BIQ (Charlotte)",5,"EFDGCHBIAJK","Passed AC2","","Spreadsheet1","Spreadsheet1",1,"BIQ","Screen 2","svpz34",2,"continue","",10438.9999999881,10433.5,10438.9999999881,10438.9999999881,10433.5,10438.9999999881,1,10438.9999999881,0,0,NA,"Click To Continue","Continue Button",7,"object-1017","BIQ",NA,"SUPPRF18017"
"6",1712946213924,"12/04/2024 18:23:33",1712949813924,1,"12/04/2024 20:23:33",175580,1,"task-7hcp",NA,36976013,10905244,NA,"complete",NA,"661978915a0654b8bd0fe5e2","computer","Desktop or Laptop","Windows 10","Chrome 123.0.0.0","1280x720","1280x585",NA,NA,0,"BIQ (Charlotte)",5,"EFDGCHBIAJK","Passed AC2","","Spreadsheet1","Spreadsheet1",1,"BIQ","Screen 2","svpz34",2,"response","3",3916.7,10433.5,10444.4999999881,3916.7,10433.5,10444.4999999881,1,3916.7,6527.79999998808,0,NA,"Rating Scale","Rating Scale",8,"object-118","BIQ",NA,"SUPPRF18017"
"7",1712946213925,"12/04/2024 18:23:33",1712949813925,1,"12/04/2024 20:23:33",175580,1,"task-7hcp",NA,36976013,10905244,NA,"complete",NA,"661978915a0654b8bd0fe5e2","computer","Desktop or Laptop","Windows 10","Chrome 123.0.0.0","1280x720","1280x585",NA,NA,0,"BIQ (Charlotte)",5,"EFDGCHBIAJK","Passed AC2","","Spreadsheet1","Spreadsheet1",1,"BIQ","Screen 2","svpz34",2,"response","3",8633.60000000001,10433.5,10445.9999999881,8633.60000000001,10433.5,10445.9999999881,1,8633.60000000001,1812.39999998808,0,NA,"Rating Scale","Rating Scale",10,"object-121","BIQ",NA,"SUPPRF18017"
"8",1712946235971,"12/04/2024 18:23:55",1712949835971,1,"12/04/2024 20:23:55",175580,1,"task-7hcp",NA,36976013,10905244,NA,"complete",NA,"661978915a0654b8bd0fe5e2","computer","Desktop or Laptop","Windows 10","Chrome 123.0.0.0","1280x720","1280x585",NA,NA,0,"BIQ (Charlotte)",5,"EFDGCHBIAJK","Passed AC2","","Spreadsheet1","Spreadsheet1",1,"BIQ","Screen 3","o21mwi",3,"continue","",22058.0999999821,22050.4,22058.0999999821,22058.0999999821,22050.4,22058.0999999821,1,22058.0999999821,0,0,NA,"Click To Continue","Continue Button",15,"object-50","BIQ",NA,"SUPPRF18017"
"9",1712946235978,"12/04/2024 18:23:55",1712949835978,1,"12/04/2024 20:23:55",175580,1,"task-7hcp",NA,36976013,10905244,NA,"complete",NA,"661978915a0654b8bd0fe5e2","computer","Desktop or Laptop","Windows 10","Chrome 123.0.0.0","1280x720","1280x585",NA,NA,0,"BIQ (Charlotte)",5,"EFDGCHBIAJK","Passed AC2","","Spreadsheet1","Spreadsheet1",1,"BIQ","Screen 3","o21mwi",3,"response","3",5017,22050.4,22065.3,5017,22050.4,22065.3,1,5017,17048.3,0,NA,"Rating Scale","Rating Scale",2,"object-36","BIQ",NA,"SUPPRF18017"
"10",1712946235979,"12/04/2024 18:23:55",1712949835979,1,"12/04/2024 20:23:55",175580,1,"task-7hcp",NA,36976013,10905244,NA,"complete",NA,"661978915a0654b8bd0fe5e2","computer","Desktop or Laptop","Windows 10","Chrome 123.0.0.0","1280x720","1280x585",NA,NA,0,"BIQ (Charlotte)",5,"EFDGCHBIAJK","Passed AC2","","Spreadsheet1","Spreadsheet1",1,"BIQ","Screen 3","o21mwi",3,"response","0",21300.4,22050.4,22066.4999999881,21300.4,22050.4,22066.4999999881,1,21300.4,766.099999988073,0,NA,"Rating Scale","Rating Scale",9,"object-86","BIQ",NA,"SUPPRF18017"
"11",1712946247623,"12/04/2024 18:24:07",1712949847623,1,"12/04/2024 20:24:07",175580,1,"task-7hcp",NA,36976013,10905244,NA,"complete",NA,"661978915a0654b8bd0fe5e2","computer","Desktop or Laptop","Windows 10","Chrome 123.0.0.0","1280x720","1280x585",NA,NA,0,"BIQ (Charlotte)",5,"EFDGCHBIAJK","Passed AC2","","Spreadsheet1","Spreadsheet1",1,"BIQ","Screen 4","iz3the",4,"continue","",11659.9,11650.2,11659.9,11659.9,11650.2,11659.9,1,11659.9,0,0,NA,"Click To Continue","Continue Button",22,"object-73","BIQ",NA,"SUPPRF18017"
"12",1712946247629,"12/04/2024 18:24:07",1712949847629,1,"12/04/2024 20:24:07",175580,1,"task-7hcp",NA,36976013,10905244,NA,"complete",NA,"661978915a0654b8bd0fe5e2","computer","Desktop or Laptop","Windows 10","Chrome 123.0.0.0","1280x720","1280x585",NA,NA,0,"BIQ (Charlotte)",5,"EFDGCHBIAJK","Passed AC2","","Spreadsheet1","Spreadsheet1",1,"BIQ","Screen 4","iz3the",4,"response","0",6533.39999999999,11650.2,11666.300000006,6533.39999999999,11650.2,11666.300000006,1,6533.39999999999,5132.90000000596,0,NA,"Rating Scale","Rating Scale",2,"object-53","BIQ",NA,"SUPPRF18017"
"13",1712946247630,"12/04/2024 18:24:07",1712949847630,1,"12/04/2024 20:24:07",175580,1,"task-7hcp",NA,36976013,10905244,NA,"complete",NA,"661978915a0654b8bd0fe5e2","computer","Desktop or Laptop","Windows 10","Chrome 123.0.0.0","1280x720","1280x585",NA,NA,0,"BIQ (Charlotte)",5,"EFDGCHBIAJK","Passed AC2","","Spreadsheet1","Spreadsheet1",1,"BIQ","Screen 4","iz3the",4,"response","3",8383.39999999999,11650.2,11666.9,8383.39999999999,11650.2,11666.9,1,8383.39999999999,3283.5,0,NA,"Rating Scale","Rating Scale",9,"object-60","BIQ",NA,"SUPPRF18017"
"14",1712946247631,"12/04/2024 18:24:07",1712949847631,1,"12/04/2024 20:24:07",175580,1,"task-7hcp",NA,36976013,10905244,NA,"complete",NA,"661978915a0654b8bd0fe5e2","computer","Desktop or Laptop","Windows 10","Chrome 123.0.0.0","1280x720","1280x585",NA,NA,0,"BIQ (Charlotte)",5,"EFDGCHBIAJK","Passed AC2","","Spreadsheet1","Spreadsheet1",1,"BIQ","Screen 4","iz3the",4,"response","4",10583.4,11650.2,11666.9,10583.4,11650.2,11666.9,1,10583.4,1083.5,0,NA,"Rating Scale","Rating Scale",16,"object-67","BIQ",NA,"SUPPRF18017"
"15",1712946247646,"12/04/2024 18:24:07",1712949847646,1,"12/04/2024 20:24:07",175580,1,"task-7hcp",NA,36976013,10905244,NA,"complete",NA,"661978915a0654b8bd0fe5e2","computer","Desktop or Laptop","Windows 10","Chrome 123.0.0.0","1280x720","1280x585",NA,NA,0,"BIQ (Charlotte)",5,"EFDGCHBIAJK","Passed AC2","","Spreadsheet1","Spreadsheet1",NA,"","","",NA,"5","END",NA,NA,NA,NA,NA,NA,0,NA,NA,NA,NA,"","",NA,"","",NA,"SUPPRF18017"
"1",1712946453986,"12/04/2024 18:27:33",1712950053986,1,"12/04/2024 20:27:33",175580,1,"task-7hcp",NA,36976108,10905300,NA,"complete",NA,"66197a97d988197f5b742bee","computer","Desktop or Laptop","Mac OS 10.15.7","Chrome 123.0.0.0","1440x900","1440x813",NA,NA,0,"BIQ (Charlotte)",5,"FGEHDICJBKA","Passed AC2","","Spreadsheet1","Spreadsheet1",NA,"","","",NA,"5","BEGIN",NA,NA,NA,NA,NA,NA,0,NA,NA,NA,NA,"","",NA,"","",NA,"SUPPRF05744"
"2",1712946498894,"12/04/2024 18:28:18",1712950098894,1,"12/04/2024 20:28:18",175580,1,"task-7hcp",NA,36976108,10905300,NA,"complete",NA,"66197a97d988197f5b742bee","computer","Desktop or Laptop","Mac OS 10.15.7","Chrome 123.0.0.0","1440x900","1440x813",NA,NA,0,"BIQ (Charlotte)",5,"FGEHDICJBKA","Passed AC2","","Spreadsheet1","Spreadsheet1",1,"BIQ","Screen 1","9dh6eq",1,"continue","",44925.3880000015,44916.888,44925.3880000015,44925.3880000015,44916.888,44925.3880000015,1,44925.3880000015,0,0,NA,"Click To Continue","Continue Button",16,"object-48","BIQ",NA,"SUPPRF05744"
"3",1712946498896,"12/04/2024 18:28:18",1712950098896,1,"12/04/2024 20:28:18",175580,1,"task-7hcp",NA,36976108,10905300,NA,"complete",NA,"66197a97d988197f5b742bee","computer","Desktop or Laptop","Mac OS 10.15.7","Chrome 123.0.0.0","1440x900","1440x813",NA,NA,0,"BIQ (Charlotte)",5,"FGEHDICJBKA","Passed AC2","","Spreadsheet1","Spreadsheet1",1,"BIQ","Screen 1","9dh6eq",1,"response","4",31650.788,44916.888,44928.3880000015,31650.788,44916.888,44928.3880000015,1,31650.788,13277.6000000015,0,NA,"Rating Scale","Rating Scale",3,"object-5","BIQ",NA,"SUPPRF05744"
"4",1712946498896,"12/04/2024 18:28:18",1712950098896,1,"12/04/2024 20:28:18",175580,1,"task-7hcp",NA,36976108,10905300,NA,"complete",NA,"66197a97d988197f5b742bee","computer","Desktop or Laptop","Mac OS 10.15.7","Chrome 123.0.0.0","1440x900","1440x813",NA,NA,0,"BIQ (Charlotte)",5,"FGEHDICJBKA","Passed AC2","","Spreadsheet1","Spreadsheet1",1,"BIQ","Screen 1","9dh6eq",1,"response","6",40367.688,44916.888,44928.6879999985,40367.688,44916.888,44928.6879999985,1,40367.688,4560.99999999851,0,NA,"Rating Scale","Rating Scale",10,"object-18","BIQ",NA,"SUPPRF05744"
"5",1712946513493,"12/04/2024 18:28:33",1712950113493,1,"12/04/2024 20:28:33",175580,1,"task-7hcp",NA,36976108,10905300,NA,"complete",NA,"66197a97d988197f5b742bee","computer","Desktop or Laptop","Mac OS 10.15.7","Chrome 123.0.0.0","1440x900","1440x813",NA,NA,0,"BIQ (Charlotte)",5,"FGEHDICJBKA","Passed AC2","","Spreadsheet1","Spreadsheet1",1,"BIQ","Screen 2","svpz34",2,"continue","",14608.9,14601.2,14608.9,14608.9,14601.2,14608.9,1,14608.9,0,0,NA,"Click To Continue","Continue Button",7,"object-1017","BIQ",NA,"SUPPRF05744"
"6",1712946513495,"12/04/2024 18:28:33",1712950113495,1,"12/04/2024 20:28:33",175580,1,"task-7hcp",NA,36976108,10905300,NA,"complete",NA,"66197a97d988197f5b742bee","computer","Desktop or Laptop","Mac OS 10.15.7","Chrome 123.0.0.0","1440x900","1440x813",NA,NA,0,"BIQ (Charlotte)",5,"FGEHDICJBKA","Passed AC2","","Spreadsheet1","Spreadsheet1",1,"BIQ","Screen 2","svpz34",2,"response","1",9284.4,14601.2,14610.7999999985,9284.4,14601.2,14610.7999999985,1,9284.4,5326.39999999851,0,NA,"Rating Scale","Rating Scale",8,"object-118","BIQ",NA,"SUPPRF05744"
"7",1712946513495,"12/04/2024 18:28:33",1712950113495,1,"12/04/2024 20:28:33",175580,1,"task-7hcp",NA,36976108,10905300,NA,"complete",NA,"66197a97d988197f5b742bee","computer","Desktop or Laptop","Mac OS 10.15.7","Chrome 123.0.0.0","1440x900","1440x813",NA,NA,0,"BIQ (Charlotte)",5,"FGEHDICJBKA","Passed AC2","","Spreadsheet1","Spreadsheet1",1,"BIQ","Screen 2","svpz34",2,"response","7",13751.2,14601.2,14611.0999999955,13751.2,14601.2,14611.0999999955,1,13751.2,859.899999995527,0,NA,"Rating Scale","Rating Scale",10,"object-121","BIQ",NA,"SUPPRF05744"
"8",1712946540765,"12/04/2024 18:29:00",1712950140765,1,"12/04/2024 20:29:00",175580,1,"task-7hcp",NA,36976108,10905300,NA,"complete",NA,"66197a97d988197f5b742bee","computer","Desktop or Laptop","Mac OS 10.15.7","Chrome 123.0.0.0","1440x900","1440x813",NA,NA,0,"BIQ (Charlotte)",5,"FGEHDICJBKA","Passed AC2","","Spreadsheet1","Spreadsheet1",1,"BIQ","Screen 3","o21mwi",3,"continue","",27279.499999997,27267.2,27279.499999997,27279.499999997,27267.2,27279.499999997,1,27279.499999997,0,0,NA,"Click To Continue","Continue Button",15,"object-50","BIQ",NA,"SUPPRF05744"
"9",1712946540767,"12/04/2024 18:29:00",1712950140767,1,"12/04/2024 20:29:00",175580,1,"task-7hcp",NA,36976108,10905300,NA,"complete",NA,"66197a97d988197f5b742bee","computer","Desktop or Laptop","Mac OS 10.15.7","Chrome 123.0.0.0","1440x900","1440x813",NA,NA,0,"BIQ (Charlotte)",5,"FGEHDICJBKA","Passed AC2","","Spreadsheet1","Spreadsheet1",1,"BIQ","Screen 3","o21mwi",3,"response","1",6966.89999999999,27267.2,27282.3000000015,6966.89999999999,27267.2,27282.3000000015,1,6966.89999999999,20315.4000000015,0,NA,"Rating Scale","Rating Scale",2,"object-36","BIQ",NA,"SUPPRF05744"
"10",1712946540768,"12/04/2024 18:29:00",1712950140768,1,"12/04/2024 20:29:00",175580,1,"task-7hcp",NA,36976108,10905300,NA,"complete",NA,"66197a97d988197f5b742bee","computer","Desktop or Laptop","Mac OS 10.15.7","Chrome 123.0.0.0","1440x900","1440x813",NA,NA,0,"BIQ (Charlotte)",5,"FGEHDICJBKA","Passed AC2","","Spreadsheet1","Spreadsheet1",1,"BIQ","Screen 3","o21mwi",3,"response","2",26317.4,27267.2,27282.8000000015,26317.4,27267.2,27282.8000000015,1,26317.4,965.400000001493,0,NA,"Rating Scale","Rating Scale",9,"object-86","BIQ",NA,"SUPPRF05744"
"11",1712946560103,"12/04/2024 18:29:20",1712950160103,1,"12/04/2024 20:29:20",175580,1,"task-7hcp",NA,36976108,10905300,NA,"complete",NA,"66197a97d988197f5b742bee","computer","Desktop or Laptop","Mac OS 10.15.7","Chrome 123.0.0.0","1440x900","1440x813",NA,NA,0,"BIQ (Charlotte)",5,"FGEHDICJBKA","Passed AC2","","Spreadsheet1","Spreadsheet1",1,"BIQ","Screen 4","iz3the",4,"continue","",19350.3999999985,19334.1,19350.3999999985,19350.3999999985,19334.1,19350.3999999985,1,19350.3999999985,0,0,NA,"Click To Continue","Continue Button",22,"object-73","BIQ",NA,"SUPPRF05744"
"12",1712946560106,"12/04/2024 18:29:20",1712950160106,1,"12/04/2024 20:29:20",175580,1,"task-7hcp",NA,36976108,10905300,NA,"complete",NA,"66197a97d988197f5b742bee","computer","Desktop or Laptop","Mac OS 10.15.7","Chrome 123.0.0.0","1440x900","1440x813",NA,NA,0,"BIQ (Charlotte)",5,"FGEHDICJBKA","Passed AC2","","Spreadsheet1","Spreadsheet1",1,"BIQ","Screen 4","iz3the",4,"response","0",4883.7,19334.1,19351,4883.7,19334.1,19351,1,4883.7,14467.3,0,NA,"Rating Scale","Rating Scale",2,"object-53","BIQ",NA,"SUPPRF05744"
"13",1712946560106,"12/04/2024 18:29:20",1712950160106,1,"12/04/2024 20:29:20",175580,1,"task-7hcp",NA,36976108,10905300,NA,"complete",NA,"66197a97d988197f5b742bee","computer","Desktop or Laptop","Mac OS 10.15.7","Chrome 123.0.0.0","1440x900","1440x813",NA,NA,0,"BIQ (Charlotte)",5,"FGEHDICJBKA","Passed AC2","","Spreadsheet1","Spreadsheet1",1,"BIQ","Screen 4","iz3the",4,"response","0",11817.2,19334.1,19351,11817.2,19334.1,19351,1,11817.2,7533.80000000002,0,NA,"Rating Scale","Rating Scale",9,"object-60","BIQ",NA,"SUPPRF05744"
"14",1712946560106,"12/04/2024 18:29:20",1712950160106,1,"12/04/2024 20:29:20",175580,1,"task-7hcp",NA,36976108,10905300,NA,"complete",NA,"66197a97d988197f5b742bee","computer","Desktop or Laptop","Mac OS 10.15.7","Chrome 123.0.0.0","1440x900","1440x813",NA,NA,0,"BIQ (Charlotte)",5,"FGEHDICJBKA","Passed AC2","","Spreadsheet1","Spreadsheet1",1,"BIQ","Screen 4","iz3the",4,"response","3",18650.7,19334.1,19351,18650.7,19334.1,19351,1,18650.7,700.300000000017,0,NA,"Rating Scale","Rating Scale",16,"object-67","BIQ",NA,"SUPPRF05744"
"15",1712946560112,"12/04/2024 18:29:20",1712950160112,1,"12/04/2024 20:29:20",175580,1,"task-7hcp",NA,36976108,10905300,NA,"complete",NA,"66197a97d988197f5b742bee","computer","Desktop or Laptop","Mac OS 10.15.7","Chrome 123.0.0.0","1440x900","1440x813",NA,NA,0,"BIQ (Charlotte)",5,"FGEHDICJBKA","Passed AC2","","Spreadsheet1","Spreadsheet1",NA,"","","",NA,"5","END",NA,NA,NA,NA,NA,NA,0,NA,NA,NA,NA,"","",NA,"","",NA,"SUPPRF05744"
"1",1712947107256,"12/04/2024 18:38:27",1712950707256,1,"12/04/2024 20:38:27",175580,1,"task-7hcp",NA,36976340,10905171,NA,"complete",NA,"6619773ca218136096b1bc7d","computer","Desktop or Laptop","Windows 10","Chrome 123.0.0.0","1366x768","1366x633",NA,NA,0,"BIQ (Charlotte)",5,"DECFBGAHKIJ","Passed AC2","","Spreadsheet1","Spreadsheet1",NA,"","","",NA,"5","BEGIN",NA,NA,NA,NA,NA,NA,0,NA,NA,NA,NA,"","",NA,"","",NA,"SUPPRF91970"
"2",1712947160249,"12/04/2024 18:39:20",1712950760249,1,"12/04/2024 20:39:20",175580,1,"task-7hcp",NA,36976340,10905171,NA,"complete",NA,"6619773ca218136096b1bc7d","computer","Desktop or Laptop","Windows 10","Chrome 123.0.0.0","1366x768","1366x633",NA,NA,0,"BIQ (Charlotte)",5,"DECFBGAHKIJ","Passed AC2","","Spreadsheet1","Spreadsheet1",1,"BIQ","Screen 1","9dh6eq",1,"continue","",52996.999999997,52980.7,52996.999999997,52996.999999997,52980.7,52996.999999997,1,52996.999999997,0,0,NA,"Click To Continue","Continue Button",16,"object-48","BIQ",NA,"SUPPRF91970"
"3",1712947160256,"12/04/2024 18:39:20",1712950760256,1,"12/04/2024 20:39:20",175580,1,"task-7hcp",NA,36976340,10905171,NA,"complete",NA,"6619773ca218136096b1bc7d","computer","Desktop or Laptop","Windows 10","Chrome 123.0.0.0","1366x768","1366x633",NA,NA,0,"BIQ (Charlotte)",5,"DECFBGAHKIJ","Passed AC2","","Spreadsheet1","Spreadsheet1",1,"BIQ","Screen 1","9dh6eq",1,"response","6",37615.2,52980.7,52997.1,37615.2,52980.7,52997.1,1,37615.2,15381.9,0,NA,"Rating Scale","Rating Scale",3,"object-5","BIQ",NA,"SUPPRF91970"
"4",1712947160257,"12/04/2024 18:39:20",1712950760257,1,"12/04/2024 20:39:20",175580,1,"task-7hcp",NA,36976340,10905171,NA,"complete",NA,"6619773ca218136096b1bc7d","computer","Desktop or Laptop","Windows 10","Chrome 123.0.0.0","1366x768","1366x633",NA,NA,0,"BIQ (Charlotte)",5,"DECFBGAHKIJ","Passed AC2","","Spreadsheet1","Spreadsheet1",1,"BIQ","Screen 1","9dh6eq",1,"response","4",50880.8,52980.7,52997.1,50880.8,52980.7,52997.1,1,50880.8,2116.29999999999,0,NA,"Rating Scale","Rating Scale",10,"object-18","BIQ",NA,"SUPPRF91970"
"5",1712947179669,"12/04/2024 18:39:39",1712950779669,1,"12/04/2024 20:39:39",175580,1,"task-7hcp",NA,36976340,10905171,NA,"complete",NA,"6619773ca218136096b1bc7d","computer","Desktop or Laptop","Windows 10","Chrome 123.0.0.0","1366x768","1366x633",NA,NA,0,"BIQ (Charlotte)",5,"DECFBGAHKIJ","Passed AC2","","Spreadsheet1","Spreadsheet1",1,"BIQ","Screen 2","svpz34",2,"continue","",19449.200000003,19433.4,19449.200000003,19449.200000003,19433.4,19449.200000003,1,19449.200000003,0,0,NA,"Click To Continue","Continue Button",7,"object-1017","BIQ",NA,"SUPPRF91970"
"6",1712947179677,"12/04/2024 18:39:39",1712950779677,1,"12/04/2024 20:39:39",175580,1,"task-7hcp",NA,36976340,10905171,NA,"complete",NA,"6619773ca218136096b1bc7d","computer","Desktop or Laptop","Windows 10","Chrome 123.0.0.0","1366x768","1366x633",NA,NA,0,"BIQ (Charlotte)",5,"DECFBGAHKIJ","Passed AC2","","Spreadsheet1","Spreadsheet1",1,"BIQ","Screen 2","svpz34",2,"response","4",9283.2,19433.4,19450.3,9283.2,19433.4,19450.3,1,9283.2,10167.1,0,NA,"Rating Scale","Rating Scale",8,"object-118","BIQ",NA,"SUPPRF91970"
"7",1712947179679,"12/04/2024 18:39:39",1712950779679,1,"12/04/2024 20:39:39",175580,1,"task-7hcp",NA,36976340,10905171,NA,"complete",NA,"6619773ca218136096b1bc7d","computer","Desktop or Laptop","Windows 10","Chrome 123.0.0.0","1366x768","1366x633",NA,NA,0,"BIQ (Charlotte)",5,"DECFBGAHKIJ","Passed AC2","","Spreadsheet1","Spreadsheet1",1,"BIQ","Screen 2","svpz34",2,"response","7",18449.1,19433.4,19450.3,18449.1,19433.4,19450.3,1,18449.1,1001.19999999998,0,NA,"Rating Scale","Rating Scale",10,"object-121","BIQ",NA,"SUPPRF91970"
"8",1712947191701,"12/04/2024 18:39:51",1712950791701,1,"12/04/2024 20:39:51",175580,1,"task-7hcp",NA,36976340,10905171,NA,"complete",NA,"6619773ca218136096b1bc7d","computer","Desktop or Laptop","Windows 10","Chrome 123.0.0.0","1366x768","1366x633",NA,NA,0,"BIQ (Charlotte)",5,"DECFBGAHKIJ","Passed AC2","","Spreadsheet1","Spreadsheet1",1,"BIQ","Screen 3","o21mwi",3,"continue","",12047.9999999911,12032.2,12047.9999999911,12047.9999999911,12032.2,12047.9999999911,1,12047.9999999911,0,0,NA,"Click To Continue","Continue Button",15,"object-50","BIQ",NA,"SUPPRF91970"
"9",1712947191708,"12/04/2024 18:39:51",1712950791708,1,"12/04/2024 20:39:51",175580,1,"task-7hcp",NA,36976340,10905171,NA,"complete",NA,"6619773ca218136096b1bc7d","computer","Desktop or Laptop","Windows 10","Chrome 123.0.0.0","1366x768","1366x633",NA,NA,0,"BIQ (Charlotte)",5,"DECFBGAHKIJ","Passed AC2","","Spreadsheet1","Spreadsheet1",1,"BIQ","Screen 3","o21mwi",3,"response","2",4699.3,12032.2,12048.5,4699.3,12032.2,12048.5,1,4699.3,7349.20000000001,0,NA,"Rating Scale","Rating Scale",2,"object-36","BIQ",NA,"SUPPRF91970"
"10",1712947191709,"12/04/2024 18:39:51",1712950791709,1,"12/04/2024 20:39:51",175580,1,"task-7hcp",NA,36976340,10905171,NA,"complete",NA,"6619773ca218136096b1bc7d","computer","Desktop or Laptop","Windows 10","Chrome 123.0.0.0","1366x768","1366x633",NA,NA,0,"BIQ (Charlotte)",5,"DECFBGAHKIJ","Passed AC2","","Spreadsheet1","Spreadsheet1",1,"BIQ","Screen 3","o21mwi",3,"response","6",10965.6,12032.2,12048.5,10965.6,12032.2,12048.5,1,10965.6,1082.90000000001,0,NA,"Rating Scale","Rating Scale",9,"object-86","BIQ",NA,"SUPPRF91970"
"11",1712947211105,"12/04/2024 18:40:11",1712950811105,1,"12/04/2024 20:40:11",175580,1,"task-7hcp",NA,36976340,10905171,NA,"complete",NA,"6619773ca218136096b1bc7d","computer","Desktop or Laptop","Windows 10","Chrome 123.0.0.0","1366x768","1366x633",NA,NA,0,"BIQ (Charlotte)",5,"DECFBGAHKIJ","Passed AC2","","Spreadsheet1","Spreadsheet1",1,"BIQ","Screen 4","iz3the",4,"continue","",19420.699999997,19415.3,19420.699999997,19420.699999997,19415.3,19420.699999997,1,19420.699999997,0,0,NA,"Click To Continue","Continue Button",22,"object-73","BIQ",NA,"SUPPRF91970"
"12",1712947211110,"12/04/2024 18:40:11",1712950811110,1,"12/04/2024 20:40:11",175580,1,"task-7hcp",NA,36976340,10905171,NA,"complete",NA,"6619773ca218136096b1bc7d","computer","Desktop or Laptop","Windows 10","Chrome 123.0.0.0","1366x768","1366x633",NA,NA,0,"BIQ (Charlotte)",5,"DECFBGAHKIJ","Passed AC2","","Spreadsheet1","Spreadsheet1",1,"BIQ","Screen 4","iz3the",4,"response","4",6233,19415.3,19426.7999999911,6233,19415.3,19426.7999999911,1,6233,13193.7999999911,0,NA,"Rating Scale","Rating Scale",2,"object-53","BIQ",NA,"SUPPRF91970"
"13",1712947211111,"12/04/2024 18:40:11",1712950811111,1,"12/04/2024 20:40:11",175580,1,"task-7hcp",NA,36976340,10905171,NA,"complete",NA,"6619773ca218136096b1bc7d","computer","Desktop or Laptop","Windows 10","Chrome 123.0.0.0","1366x768","1366x633",NA,NA,0,"BIQ (Charlotte)",5,"DECFBGAHKIJ","Passed AC2","","Spreadsheet1","Spreadsheet1",1,"BIQ","Screen 4","iz3the",4,"response","8",9332.59999999999,19415.3,19427.9,9332.59999999999,19415.3,19427.9,1,9332.59999999999,10095.3,0,NA,"Rating Scale","Rating Scale",9,"object-60","BIQ",NA,"SUPPRF91970"
"14",1712947211113,"12/04/2024 18:40:11",1712950811113,1,"12/04/2024 20:40:11",175580,1,"task-7hcp",NA,36976340,10905171,NA,"complete",NA,"6619773ca218136096b1bc7d","computer","Desktop or Laptop","Windows 10","Chrome 123.0.0.0","1366x768","1366x633",NA,NA,0,"BIQ (Charlotte)",5,"DECFBGAHKIJ","Passed AC2","","Spreadsheet1","Spreadsheet1",1,"BIQ","Screen 4","iz3the",4,"response","6",18632.5,19415.3,19428.999999994,18632.5,19415.3,19428.999999994,1,18632.5,796.499999994034,0,NA,"Rating Scale","Rating Scale",16,"object-67","BIQ",NA,"SUPPRF91970"
"15",1712947211124,"12/04/2024 18:40:11",1712950811124,1,"12/04/2024 20:40:11",175580,1,"task-7hcp",NA,36976340,10905171,NA,"complete",NA,"6619773ca218136096b1bc7d","computer","Desktop or Laptop","Windows 10","Chrome 123.0.0.0","1366x768","1366x633",NA,NA,0,"BIQ (Charlotte)",5,"DECFBGAHKIJ","Passed AC2","","Spreadsheet1","Spreadsheet1",NA,"","","",NA,"5","END",NA,NA,NA,NA,NA,NA,0,NA,NA,NA,NA,"","",NA,"","",NA,"SUPPRF91970"
"1",1712947065678,"12/04/2024 18:37:45",1712950665678,1,"12/04/2024 20:37:45",175580,1,"task-7hcp",NA,36976332,10905364,NA,"complete",NA,"66197ed5dd93afd98b57ec62","computer","Desktop or Laptop","Mac OS 10.15.7","Chrome 118.0.0.0","1440x900","858x730",NA,NA,0,"BIQ (Charlotte)",5,"GHFIEJDKCAB","Passed AC2","","Spreadsheet1","Spreadsheet1",NA,"","","",NA,"5","BEGIN",NA,NA,NA,NA,NA,NA,0,NA,NA,NA,NA,"","",NA,"","",NA,"SUPPRF49465"
"2",1712947088715,"12/04/2024 18:38:08",1712950688715,1,"12/04/2024 20:38:08",175580,1,"task-7hcp",NA,36976332,10905364,NA,"complete",NA,"66197ed5dd93afd98b57ec62","computer","Desktop or Laptop","Mac OS 10.15.7","Chrome 118.0.0.0","1440x900","858x730",NA,NA,0,"BIQ (Charlotte)",5,"GHFIEJDKCAB","Passed AC2","","Spreadsheet1","Spreadsheet1",1,"BIQ","Screen 1","9dh6eq",1,"continue","",23047.521,23034.478,23047.521,23047.521,23034.478,23047.521,1,23047.521,0,0,NA,"Click To Continue","Continue Button",16,"object-48","BIQ",NA,"SUPPRF49465"
"3",1712947088716,"12/04/2024 18:38:08",1712950688716,1,"12/04/2024 20:38:08",175580,1,"task-7hcp",NA,36976332,10905364,NA,"complete",NA,"66197ed5dd93afd98b57ec62","computer","Desktop or Laptop","Mac OS 10.15.7","Chrome 118.0.0.0","1440x900","858x730",NA,NA,0,"BIQ (Charlotte)",5,"GHFIEJDKCAB","Passed AC2","","Spreadsheet1","Spreadsheet1",1,"BIQ","Screen 1","9dh6eq",1,"response","3",6683.773,23034.478,23049.3210001907,6683.773,23034.478,23049.3210001907,1,6683.773,16365.5480001907,0,NA,"Rating Scale","Rating Scale",3,"object-5","BIQ",NA,"SUPPRF49465"
"4",1712947088716,"12/04/2024 18:38:08",1712950688716,1,"12/04/2024 20:38:08",175580,1,"task-7hcp",NA,36976332,10905364,NA,"complete",NA,"66197ed5dd93afd98b57ec62","computer","Desktop or Laptop","Mac OS 10.15.7","Chrome 118.0.0.0","1440x900","858x730",NA,NA,0,"BIQ (Charlotte)",5,"GHFIEJDKCAB","Passed AC2","","Spreadsheet1","Spreadsheet1",1,"BIQ","Screen 1","9dh6eq",1,"response","4",21601.202,23034.478,23049.6209999046,21601.202,23034.478,23049.6209999046,1,21601.202,1448.41899990463,0,NA,"Rating Scale","Rating Scale",10,"object-18","BIQ",NA,"SUPPRF49465"
"5",1712947104668,"12/04/2024 18:38:24",1712950704668,1,"12/04/2024 20:38:24",175580,1,"task-7hcp",NA,36976332,10905364,NA,"complete",NA,"66197ed5dd93afd98b57ec62","computer","Desktop or Laptop","Mac OS 10.15.7","Chrome 118.0.0.0","1440x900","858x730",NA,NA,0,"BIQ (Charlotte)",5,"GHFIEJDKCAB","Passed AC2","","Spreadsheet1","Spreadsheet1",1,"BIQ","Screen 2","svpz34",2,"continue","",15966.695,15950.029,15966.695,15966.695,15950.029,15966.695,1,15966.695,0,0,NA,"Click To Continue","Continue Button",7,"object-1017","BIQ",NA,"SUPPRF49465"
"6",1712947104669,"12/04/2024 18:38:24",1712950704669,1,"12/04/2024 20:38:24",175580,1,"task-7hcp",NA,36976332,10905364,NA,"complete",NA,"66197ed5dd93afd98b57ec62","computer","Desktop or Laptop","Mac OS 10.15.7","Chrome 118.0.0.0","1440x900","858x730",NA,NA,0,"BIQ (Charlotte)",5,"GHFIEJDKCAB","Passed AC2","","Spreadsheet1","Spreadsheet1",1,"BIQ","Screen 2","svpz34",2,"response","6",5749.77,15950.029,15966.695,5749.77,15950.029,15966.695,1,5749.77,10216.925,0,NA,"Rating Scale","Rating Scale",8,"object-118","BIQ",NA,"SUPPRF49465"
"7",1712947104670,"12/04/2024 18:38:24",1712950704670,1,"12/04/2024 20:38:24",175580,1,"task-7hcp",NA,36976332,10905364,NA,"complete",NA,"66197ed5dd93afd98b57ec62","computer","Desktop or Laptop","Mac OS 10.15.7","Chrome 118.0.0.0","1440x900","858x730",NA,NA,0,"BIQ (Charlotte)",5,"GHFIEJDKCAB","Passed AC2","","Spreadsheet1","Spreadsheet1",1,"BIQ","Screen 2","svpz34",2,"response","6",14300.095,15950.029,15966.695,14300.095,15950.029,15966.695,1,14300.095,1666.59999999999,0,NA,"Rating Scale","Rating Scale",10,"object-121","BIQ",NA,"SUPPRF49465"
"8",1712947118476,"12/04/2024 18:38:38",1712950718476,1,"12/04/2024 20:38:38",175580,1,"task-7hcp",NA,36976332,10905364,NA,"complete",NA,"66197ed5dd93afd98b57ec62","computer","Desktop or Laptop","Mac OS 10.15.7","Chrome 118.0.0.0","1440x900","858x730",NA,NA,0,"BIQ (Charlotte)",5,"GHFIEJDKCAB","Passed AC2","","Spreadsheet1","Spreadsheet1",1,"BIQ","Screen 3","o21mwi",3,"continue","",13825.6139999046,13817.494,13825.6139999046,13825.6139999046,13817.494,13825.6139999046,1,13825.6139999046,0,0,NA,"Click To Continue","Continue Button",15,"object-50","BIQ",NA,"SUPPRF49465"
"9",1712947118477,"12/04/2024 18:38:38",1712950718477,1,"12/04/2024 20:38:38",175580,1,"task-7hcp",NA,36976332,10905364,NA,"complete",NA,"66197ed5dd93afd98b57ec62","computer","Desktop or Laptop","Mac OS 10.15.7","Chrome 118.0.0.0","1440x900","858x730",NA,NA,0,"BIQ (Charlotte)",5,"GHFIEJDKCAB","Passed AC2","","Spreadsheet1","Spreadsheet1",1,"BIQ","Screen 3","o21mwi",3,"response","2",5317.116,13817.494,13826.8140001907,5317.116,13817.494,13826.8140001907,1,5317.116,8509.69800019074,0,NA,"Rating Scale","Rating Scale",2,"object-36","BIQ",NA,"SUPPRF49465"
"10",1712947118477,"12/04/2024 18:38:38",1712950718477,1,"12/04/2024 20:38:38",175580,1,"task-7hcp",NA,36976332,10905364,NA,"complete",NA,"66197ed5dd93afd98b57ec62","computer","Desktop or Laptop","Mac OS 10.15.7","Chrome 118.0.0.0","1440x900","858x730",NA,NA,0,"BIQ (Charlotte)",5,"GHFIEJDKCAB","Passed AC2","","Spreadsheet1","Spreadsheet1",1,"BIQ","Screen 3","o21mwi",3,"response","2",10950.224,13817.494,13826.9140000954,10950.224,13817.494,13826.9140000954,1,10950.224,2876.69000009537,0,NA,"Rating Scale","Rating Scale",9,"object-86","BIQ",NA,"SUPPRF49465"
"11",1712947130761,"12/04/2024 18:38:50",1712950730761,1,"12/04/2024 20:38:50",175580,1,"task-7hcp",NA,36976332,10905364,NA,"complete",NA,"66197ed5dd93afd98b57ec62","computer","Desktop or Laptop","Mac OS 10.15.7","Chrome 118.0.0.0","1440x900","858x730",NA,NA,0,"BIQ (Charlotte)",5,"GHFIEJDKCAB","Passed AC2","","Spreadsheet1","Spreadsheet1",1,"BIQ","Screen 4","iz3the",4,"continue","",12293.7199998093,12283.495,12293.7199998093,12293.7199998093,12283.495,12293.7199998093,1,12293.7199998093,0,0,NA,"Click To Continue","Continue Button",22,"object-73","BIQ",NA,"SUPPRF49465"
"12",1712947130763,"12/04/2024 18:38:50",1712950730763,1,"12/04/2024 20:38:50",175580,1,"task-7hcp",NA,36976332,10905364,NA,"complete",NA,"66197ed5dd93afd98b57ec62","computer","Desktop or Laptop","Mac OS 10.15.7","Chrome 118.0.0.0","1440x900","858x730",NA,NA,0,"BIQ (Charlotte)",5,"GHFIEJDKCAB","Passed AC2","","Spreadsheet1","Spreadsheet1",1,"BIQ","Screen 4","iz3the",4,"response","4",6499.74,12283.495,12295.2199998093,6499.74,12283.495,12295.2199998093,1,6499.74,5795.47999980926,0,NA,"Rating Scale","Rating Scale",2,"object-53","BIQ",NA,"SUPPRF49465"
"13",1712947130763,"12/04/2024 18:38:50",1712950730763,1,"12/04/2024 20:38:50",175580,1,"task-7hcp",NA,36976332,10905364,NA,"complete",NA,"66197ed5dd93afd98b57ec62","computer","Desktop or Laptop","Mac OS 10.15.7","Chrome 118.0.0.0","1440x900","858x730",NA,NA,0,"BIQ (Charlotte)",5,"GHFIEJDKCAB","Passed AC2","","Spreadsheet1","Spreadsheet1",1,"BIQ","Screen 4","iz3the",4,"response","6",8616.975,12283.495,12295.4200000954,8616.975,12283.495,12295.4200000954,1,8616.975,3678.44500009537,0,NA,"Rating Scale","Rating Scale",9,"object-60","BIQ",NA,"SUPPRF49465"
"14",1712947130763,"12/04/2024 18:38:50",1712950730763,1,"12/04/2024 20:38:50",175580,1,"task-7hcp",NA,36976332,10905364,NA,"complete",NA,"66197ed5dd93afd98b57ec62","computer","Desktop or Laptop","Mac OS 10.15.7","Chrome 118.0.0.0","1440x900","858x730",NA,NA,0,"BIQ (Charlotte)",5,"GHFIEJDKCAB","Passed AC2","","Spreadsheet1","Spreadsheet1",1,"BIQ","Screen 4","iz3the",4,"response","6",11600.189,12283.495,12295.52,11600.189,12283.495,12295.52,1,11600.189,695.331000000006,0,NA,"Rating Scale","Rating Scale",16,"object-67","BIQ",NA,"SUPPRF49465"
"15",1712947130766,"12/04/2024 18:38:50",1712950730766,1,"12/04/2024 20:38:50",175580,1,"task-7hcp",NA,36976332,10905364,NA,"complete",NA,"66197ed5dd93afd98b57ec62","computer","Desktop or Laptop","Mac OS 10.15.7","Chrome 118.0.0.0","1440x900","858x730",NA,NA,0,"BIQ (Charlotte)",5,"GHFIEJDKCAB","Passed AC2","","Spreadsheet1","Spreadsheet1",NA,"","","",NA,"5","END",NA,NA,NA,NA,NA,NA,0,NA,NA,NA,NA,"","",NA,"","",NA,"SUPPRF49465"
"1",1712947264906,"12/04/2024 18:41:04",1712950864906,1,"12/04/2024 20:41:04",175580,1,"task-7hcp",NA,36976426,10905385,NA,"complete",NA,"66197f9ddc20c9fb5159671f","computer","Desktop or Laptop","Mac OS 10.15.7","Chrome 123.0.0.0","1440x900","1440x779",NA,NA,0,"BIQ (Charlotte)",5,"HIGJFKEADBC","Passed AC2","","Spreadsheet1","Spreadsheet1",NA,"","","",NA,"5","BEGIN",NA,NA,NA,NA,NA,NA,0,NA,NA,NA,NA,"","",NA,"","",NA,"SUPPRF11317"
"2",1712947291426,"12/04/2024 18:41:31",1712950891426,1,"12/04/2024 20:41:31",175580,1,"task-7hcp",NA,36976426,10905385,NA,"complete",NA,"66197f9ddc20c9fb5159671f","computer","Desktop or Laptop","Mac OS 10.15.7","Chrome 123.0.0.0","1440x900","1440x779",NA,NA,0,"BIQ (Charlotte)",5,"HIGJFKEADBC","Passed AC2","","Spreadsheet1","Spreadsheet1",1,"BIQ","Screen 1","9dh6eq",1,"continue","",26532.302,26499.302,26532.302,26532.302,26499.302,26532.302,1,26532.302,0,0,NA,"Click To Continue","Continue Button",16,"object-48","BIQ",NA,"SUPPRF11317"
"3",1712947291428,"12/04/2024 18:41:31",1712950891428,1,"12/04/2024 20:41:31",175580,1,"task-7hcp",NA,36976426,10905385,NA,"complete",NA,"66197f9ddc20c9fb5159671f","computer","Desktop or Laptop","Mac OS 10.15.7","Chrome 123.0.0.0","1440x900","1440x779",NA,NA,0,"BIQ (Charlotte)",5,"HIGJFKEADBC","Passed AC2","","Spreadsheet1","Spreadsheet1",1,"BIQ","Screen 1","9dh6eq",1,"response","7",10709.402,26499.302,26532.302,10709.402,26499.302,26532.302,1,10709.402,15822.9,0,NA,"Rating Scale","Rating Scale",3,"object-5","BIQ",NA,"SUPPRF11317"
"4",1712947291429,"12/04/2024 18:41:31",1712950891429,1,"12/04/2024 20:41:31",175580,1,"task-7hcp",NA,36976426,10905385,NA,"complete",NA,"66197f9ddc20c9fb5159671f","computer","Desktop or Laptop","Mac OS 10.15.7","Chrome 123.0.0.0","1440x900","1440x779",NA,NA,0,"BIQ (Charlotte)",5,"HIGJFKEADBC","Passed AC2","","Spreadsheet1","Spreadsheet1",1,"BIQ","Screen 1","9dh6eq",1,"response","5",23967.402,26499.302,26532.302,23967.402,26499.302,26532.302,1,23967.402,2564.9,0,NA,"Rating Scale","Rating Scale",10,"object-18","BIQ",NA,"SUPPRF11317"
"5",1712947304891,"12/04/2024 18:41:44",1712950904891,1,"12/04/2024 20:41:44",175580,1,"task-7hcp",NA,36976426,10905385,NA,"complete",NA,"66197f9ddc20c9fb5159671f","computer","Desktop or Laptop","Mac OS 10.15.7","Chrome 123.0.0.0","1440x900","1440x779",NA,NA,0,"BIQ (Charlotte)",5,"HIGJFKEADBC","Passed AC2","","Spreadsheet1","Spreadsheet1",1,"BIQ","Screen 2","svpz34",2,"continue","",13505.899999997,13491,13505.899999997,13505.899999997,13491,13505.899999997,1,13505.899999997,0,0,NA,"Click To Continue","Continue Button",7,"object-1017","BIQ",NA,"SUPPRF11317"
"6",1712947304895,"12/04/2024 18:41:44",1712950904895,1,"12/04/2024 20:41:44",175580,1,"task-7hcp",NA,36976426,10905385,NA,"complete",NA,"66197f9ddc20c9fb5159671f","computer","Desktop or Laptop","Mac OS 10.15.7","Chrome 123.0.0.0","1440x900","1440x779",NA,NA,0,"BIQ (Charlotte)",5,"HIGJFKEADBC","Passed AC2","","Spreadsheet1","Spreadsheet1",1,"BIQ","Screen 2","svpz34",2,"response","2",6196.4,13491,13509.7999999955,6196.4,13491,13509.7999999955,1,6196.4,7313.39999999553,0,NA,"Rating Scale","Rating Scale",8,"object-118","BIQ",NA,"SUPPRF11317"
"7",1712947304896,"12/04/2024 18:41:44",1712950904896,1,"12/04/2024 20:41:44",175580,1,"task-7hcp",NA,36976426,10905385,NA,"complete",NA,"66197f9ddc20c9fb5159671f","computer","Desktop or Laptop","Mac OS 10.15.7","Chrome 123.0.0.0","1440x900","1440x779",NA,NA,0,"BIQ (Charlotte)",5,"HIGJFKEADBC","Passed AC2","","Spreadsheet1","Spreadsheet1",1,"BIQ","Screen 2","svpz34",2,"response","8",12226,13491,13510.4999999985,12226,13491,13510.4999999985,1,12226,1284.49999999851,0,NA,"Rating Scale","Rating Scale",10,"object-121","BIQ",NA,"SUPPRF11317"
"8",1712947319604,"12/04/2024 18:41:59",1712950919604,1,"12/04/2024 20:41:59",175580,1,"task-7hcp",NA,36976426,10905385,NA,"complete",NA,"66197f9ddc20c9fb5159671f","computer","Desktop or Laptop","Mac OS 10.15.7","Chrome 123.0.0.0","1440x900","1440x779",NA,NA,0,"BIQ (Charlotte)",5,"HIGJFKEADBC","Passed AC2","","Spreadsheet1","Spreadsheet1",1,"BIQ","Screen 3","o21mwi",3,"continue","",14727.7000000015,14723.5,14727.7000000015,14727.7000000015,14723.5,14727.7000000015,1,14727.7000000015,0,0,NA,"Click To Continue","Continue Button",15,"object-50","BIQ",NA,"SUPPRF11317"
"9",1712947319607,"12/04/2024 18:41:59",1712950919607,1,"12/04/2024 20:41:59",175580,1,"task-7hcp",NA,36976426,10905385,NA,"complete",NA,"66197f9ddc20c9fb5159671f","computer","Desktop or Laptop","Mac OS 10.15.7","Chrome 123.0.0.0","1440x900","1440x779",NA,NA,0,"BIQ (Charlotte)",5,"HIGJFKEADBC","Passed AC2","","Spreadsheet1","Spreadsheet1",1,"BIQ","Screen 3","o21mwi",3,"response","2",5930.3,14723.5,14730.9999999985,5930.3,14723.5,14730.9999999985,1,5930.3,8800.69999999851,0,NA,"Rating Scale","Rating Scale",2,"object-36","BIQ",NA,"SUPPRF11317"
"10",1712947319608,"12/04/2024 18:41:59",1712950919608,1,"12/04/2024 20:41:59",175580,1,"task-7hcp",NA,36976426,10905385,NA,"complete",NA,"66197f9ddc20c9fb5159671f","computer","Desktop or Laptop","Mac OS 10.15.7","Chrome 123.0.0.0","1440x900","1440x779",NA,NA,0,"BIQ (Charlotte)",5,"HIGJFKEADBC","Passed AC2","","Spreadsheet1","Spreadsheet1",1,"BIQ","Screen 3","o21mwi",3,"response","0",14057.1,14723.5,14731.7000000015,14057.1,14723.5,14731.7000000015,1,14057.1,674.60000000149,0,NA,"Rating Scale","Rating Scale",9,"object-86","BIQ",NA,"SUPPRF11317"
"11",1712947330307,"12/04/2024 18:42:10",1712950930307,1,"12/04/2024 20:42:10",175580,1,"task-7hcp",NA,36976426,10905385,NA,"complete",NA,"66197f9ddc20c9fb5159671f","computer","Desktop or Laptop","Mac OS 10.15.7","Chrome 123.0.0.0","1440x900","1440x779",NA,NA,0,"BIQ (Charlotte)",5,"HIGJFKEADBC","Passed AC2","","Spreadsheet1","Spreadsheet1",1,"BIQ","Screen 4","iz3the",4,"continue","",10707.4999999985,10693.8,10707.4999999985,10707.4999999985,10693.8,10707.4999999985,1,10707.4999999985,0,0,NA,"Click To Continue","Continue Button",22,"object-73","BIQ",NA,"SUPPRF11317"
"12",1712947330311,"12/04/2024 18:42:10",1712950930311,1,"12/04/2024 20:42:10",175580,1,"task-7hcp",NA,36976426,10905385,NA,"complete",NA,"66197f9ddc20c9fb5159671f","computer","Desktop or Laptop","Mac OS 10.15.7","Chrome 123.0.0.0","1440x900","1440x779",NA,NA,0,"BIQ (Charlotte)",5,"HIGJFKEADBC","Passed AC2","","Spreadsheet1","Spreadsheet1",1,"BIQ","Screen 4","iz3the",4,"response","0",3264.6,10693.8,10711.7000000015,3264.6,10693.8,10711.7000000015,1,3264.6,7447.10000000149,0,NA,"Rating Scale","Rating Scale",2,"object-53","BIQ",NA,"SUPPRF11317"
"13",1712947330311,"12/04/2024 18:42:10",1712950930311,1,"12/04/2024 20:42:10",175580,1,"task-7hcp",NA,36976426,10905385,NA,"complete",NA,"66197f9ddc20c9fb5159671f","computer","Desktop or Laptop","Mac OS 10.15.7","Chrome 123.0.0.0","1440x900","1440x779",NA,NA,0,"BIQ (Charlotte)",5,"HIGJFKEADBC","Passed AC2","","Spreadsheet1","Spreadsheet1",1,"BIQ","Screen 4","iz3the",4,"response","0",6962.7,10693.8,10712.399999997,6962.7,10693.8,10712.399999997,1,6962.7,3749.69999999702,0,NA,"Rating Scale","Rating Scale",9,"object-60","BIQ",NA,"SUPPRF11317"
"14",1712947330312,"12/04/2024 18:42:10",1712950930312,1,"12/04/2024 20:42:10",175580,1,"task-7hcp",NA,36976426,10905385,NA,"complete",NA,"66197f9ddc20c9fb5159671f","computer","Desktop or Laptop","Mac OS 10.15.7","Chrome 123.0.0.0","1440x900","1440x779",NA,NA,0,"BIQ (Charlotte)",5,"HIGJFKEADBC","Passed AC2","","Spreadsheet1","Spreadsheet1",1,"BIQ","Screen 4","iz3the",4,"response","0",10026.9,10693.8,10712.7999999955,10026.9,10693.8,10712.7999999955,1,10026.9,685.899999995527,0,NA,"Rating Scale","Rating Scale",16,"object-67","BIQ",NA,"SUPPRF11317"
"15",1712947330319,"12/04/2024 18:42:10",1712950930319,1,"12/04/2024 20:42:10",175580,1,"task-7hcp",NA,36976426,10905385,NA,"complete",NA,"66197f9ddc20c9fb5159671f","computer","Desktop or Laptop","Mac OS 10.15.7","Chrome 123.0.0.0","1440x900","1440x779",NA,NA,0,"BIQ (Charlotte)",5,"HIGJFKEADBC","Passed AC2","","Spreadsheet1","Spreadsheet1",NA,"","","",NA,"5","END",NA,NA,NA,NA,NA,NA,0,NA,NA,NA,NA,"","",NA,"","",NA,"SUPPRF11317"
"1",1712947505606,"12/04/2024 18:45:05",1712951105606,1,"12/04/2024 20:45:05",175580,1,"task-7hcp",NA,36976514,10905412,NA,"complete",NA,"66197f9aa5b6af8abf932544","computer","Desktop or Laptop","Windows 10","Chrome 123.0.0.0","2560x1440","2844x1412",NA,NA,0,"BIQ (Charlotte)",5,"IJHKGAFBECD","Passed AC2","","Spreadsheet1","Spreadsheet1",NA,"","","",NA,"5","BEGIN",NA,NA,NA,NA,NA,NA,0,NA,NA,NA,NA,"","",NA,"","",NA,"SUPPRF83543"
"2",1712947517417,"12/04/2024 18:45:17",1712951117417,1,"12/04/2024 20:45:17",175580,1,"task-7hcp",NA,36976514,10905412,NA,"complete",NA,"66197f9aa5b6af8abf932544","computer","Desktop or Laptop","Windows 10","Chrome 123.0.0.0","2560x1440","2844x1412",NA,NA,0,"BIQ (Charlotte)",5,"IJHKGAFBECD","Passed AC2","","Spreadsheet1","Spreadsheet1",1,"BIQ","Screen 1","9dh6eq",1,"continue","",12470.8000000119,12470.1,12470.8000000119,12470.8000000119,12470.1,12470.8000000119,1,12470.8000000119,0,0,NA,"Click To Continue","Continue Button",16,"object-48","BIQ",NA,"SUPPRF83543"
"3",1712947517418,"12/04/2024 18:45:17",1712951117418,1,"12/04/2024 20:45:17",175580,1,"task-7hcp",NA,36976514,10905412,NA,"complete",NA,"66197f9aa5b6af8abf932544","computer","Desktop or Laptop","Windows 10","Chrome 123.0.0.0","2560x1440","2844x1412",NA,NA,0,"BIQ (Charlotte)",5,"IJHKGAFBECD","Passed AC2","","Spreadsheet1","Spreadsheet1",1,"BIQ","Screen 1","9dh6eq",1,"response","6",9302,12470.1,12472.1999999881,9302,12470.1,12472.1999999881,1,9302,3170.19999998808,0,NA,"Rating Scale","Rating Scale",3,"object-5","BIQ",NA,"SUPPRF83543"
"4",1712947517418,"12/04/2024 18:45:17",1712951117418,1,"12/04/2024 20:45:17",175580,1,"task-7hcp",NA,36976514,10905412,NA,"complete",NA,"66197f9aa5b6af8abf932544","computer","Desktop or Laptop","Windows 10","Chrome 123.0.0.0","2560x1440","2844x1412",NA,NA,0,"BIQ (Charlotte)",5,"IJHKGAFBECD","Passed AC2","","Spreadsheet1","Spreadsheet1",1,"BIQ","Screen 1","9dh6eq",1,"response","6",11852.2,12470.1,12472.4000000358,11852.2,12470.1,12472.4000000358,1,11852.2,620.200000035762,0,NA,"Rating Scale","Rating Scale",10,"object-18","BIQ",NA,"SUPPRF83543"
"5",1712947524926,"12/04/2024 18:45:24",1712951124926,1,"12/04/2024 20:45:24",175580,1,"task-7hcp",NA,36976514,10905412,NA,"complete",NA,"66197f9aa5b6af8abf932544","computer","Desktop or Laptop","Windows 10","Chrome 123.0.0.0","2560x1440","2844x1412",NA,NA,0,"BIQ (Charlotte)",5,"IJHKGAFBECD","Passed AC2","","Spreadsheet1","Spreadsheet1",1,"BIQ","Screen 2","svpz34",2,"continue","",7510.09999998808,7505.6,7510.09999998808,7510.09999998808,7505.6,7510.09999998808,1,7510.09999998808,0,0,NA,"Click To Continue","Continue Button",7,"object-1017","BIQ",NA,"SUPPRF83543"
"6",1712947524926,"12/04/2024 18:45:24",1712951124926,1,"12/04/2024 20:45:24",175580,1,"task-7hcp",NA,36976514,10905412,NA,"complete",NA,"66197f9aa5b6af8abf932544","computer","Desktop or Laptop","Windows 10","Chrome 123.0.0.0","2560x1440","2844x1412",NA,NA,0,"BIQ (Charlotte)",5,"IJHKGAFBECD","Passed AC2","","Spreadsheet1","Spreadsheet1",1,"BIQ","Screen 2","svpz34",2,"response","1",4585.7,7505.6,7510.4,4585.7,7505.6,7510.4,1,4585.7,2924.7,0,NA,"Rating Scale","Rating Scale",8,"object-118","BIQ",NA,"SUPPRF83543"
"7",1712947524926,"12/04/2024 18:45:24",1712951124926,1,"12/04/2024 20:45:24",175580,1,"task-7hcp",NA,36976514,10905412,NA,"complete",NA,"66197f9aa5b6af8abf932544","computer","Desktop or Laptop","Windows 10","Chrome 123.0.0.0","2560x1440","2844x1412",NA,NA,0,"BIQ (Charlotte)",5,"IJHKGAFBECD","Passed AC2","","Spreadsheet1","Spreadsheet1",1,"BIQ","Screen 2","svpz34",2,"response","8",6705.8,7505.6,7510.59999998808,6705.8,7505.6,7510.59999998808,1,6705.8,804.799999988078,0,NA,"Rating Scale","Rating Scale",10,"object-121","BIQ",NA,"SUPPRF83543"
"8",1712947531530,"12/04/2024 18:45:31",1712951131530,1,"12/04/2024 20:45:31",175580,1,"task-7hcp",NA,36976514,10905412,NA,"complete",NA,"66197f9aa5b6af8abf932544","computer","Desktop or Laptop","Windows 10","Chrome 123.0.0.0","2560x1440","2844x1412",NA,NA,0,"BIQ (Charlotte)",5,"IJHKGAFBECD","Passed AC2","","Spreadsheet1","Spreadsheet1",1,"BIQ","Screen 3","o21mwi",3,"continue","",6608.40000002384,6602.7,6608.40000002384,6608.40000002384,6602.7,6608.40000002384,1,6608.40000002384,0,0,NA,"Click To Continue","Continue Button",15,"object-50","BIQ",NA,"SUPPRF83543"
"9",1712947531531,"12/04/2024 18:45:31",1712951131531,1,"12/04/2024 20:45:31",175580,1,"task-7hcp",NA,36976514,10905412,NA,"complete",NA,"66197f9aa5b6af8abf932544","computer","Desktop or Laptop","Windows 10","Chrome 123.0.0.0","2560x1440","2844x1412",NA,NA,0,"BIQ (Charlotte)",5,"IJHKGAFBECD","Passed AC2","","Spreadsheet1","Spreadsheet1",1,"BIQ","Screen 3","o21mwi",3,"response","2",2447.1,6602.7,6608.9,2447.1,6602.7,6608.9,1,2447.1,4161.8,0,NA,"Rating Scale","Rating Scale",2,"object-36","BIQ",NA,"SUPPRF83543"
"10",1712947531531,"12/04/2024 18:45:31",1712951131531,1,"12/04/2024 20:45:31",175580,1,"task-7hcp",NA,36976514,10905412,NA,"complete",NA,"66197f9aa5b6af8abf932544","computer","Desktop or Laptop","Windows 10","Chrome 123.0.0.0","2560x1440","2844x1412",NA,NA,0,"BIQ (Charlotte)",5,"IJHKGAFBECD","Passed AC2","","Spreadsheet1","Spreadsheet1",1,"BIQ","Screen 3","o21mwi",3,"response","0",5288.1,6602.7,6608.9,5288.1,6602.7,6608.9,1,5288.1,1320.8,0,NA,"Rating Scale","Rating Scale",9,"object-86","BIQ",NA,"SUPPRF83543"
"11",1712947542700,"12/04/2024 18:45:42",1712951142700,1,"12/04/2024 20:45:42",175580,1,"task-7hcp",NA,36976514,10905412,NA,"complete",NA,"66197f9aa5b6af8abf932544","computer","Desktop or Laptop","Windows 10","Chrome 123.0.0.0","2560x1440","2844x1412",NA,NA,0,"BIQ (Charlotte)",5,"IJHKGAFBECD","Passed AC2","","Spreadsheet1","Spreadsheet1",1,"BIQ","Screen 4","iz3the",4,"continue","",11176.3,11170.2,11176.3,11176.3,11170.2,11176.3,1,11176.3,0,0,NA,"Click To Continue","Continue Button",22,"object-73","BIQ",NA,"SUPPRF83543"
"12",1712947542701,"12/04/2024 18:45:42",1712951142701,1,"12/04/2024 20:45:42",175580,1,"task-7hcp",NA,36976514,10905412,NA,"complete",NA,"66197f9aa5b6af8abf932544","computer","Desktop or Laptop","Windows 10","Chrome 123.0.0.0","2560x1440","2844x1412",NA,NA,0,"BIQ (Charlotte)",5,"IJHKGAFBECD","Passed AC2","","Spreadsheet1","Spreadsheet1",1,"BIQ","Screen 4","iz3the",4,"response","0",2453.3,11170.2,11176.3,2453.3,11170.2,11176.3,1,2453.3,8723,0,NA,"Rating Scale","Rating Scale",2,"object-53","BIQ",NA,"SUPPRF83543"
"13",1712947542702,"12/04/2024 18:45:42",1712951142702,1,"12/04/2024 20:45:42",175580,1,"task-7hcp",NA,36976514,10905412,NA,"complete",NA,"66197f9aa5b6af8abf932544","computer","Desktop or Laptop","Windows 10","Chrome 123.0.0.0","2560x1440","2844x1412",NA,NA,0,"BIQ (Charlotte)",5,"IJHKGAFBECD","Passed AC2","","Spreadsheet1","Spreadsheet1",1,"BIQ","Screen 4","iz3the",4,"response","0",8547.5,11170.2,11176.3,8547.5,11170.2,11176.3,1,8547.5,2628.8,0,NA,"Rating Scale","Rating Scale",9,"object-60","BIQ",NA,"SUPPRF83543"
"14",1712947542702,"12/04/2024 18:45:42",1712951142702,1,"12/04/2024 20:45:42",175580,1,"task-7hcp",NA,36976514,10905412,NA,"complete",NA,"66197f9aa5b6af8abf932544","computer","Desktop or Laptop","Windows 10","Chrome 123.0.0.0","2560x1440","2844x1412",NA,NA,0,"BIQ (Charlotte)",5,"IJHKGAFBECD","Passed AC2","","Spreadsheet1","Spreadsheet1",1,"BIQ","Screen 4","iz3the",4,"response","2",10606.9,11170.2,11176.3,10606.9,11170.2,11176.3,1,10606.9,569.399999999994,0,NA,"Rating Scale","Rating Scale",16,"object-67","BIQ",NA,"SUPPRF83543"
"15",1712947542704,"12/04/2024 18:45:42",1712951142704,1,"12/04/2024 20:45:42",175580,1,"task-7hcp",NA,36976514,10905412,NA,"complete",NA,"66197f9aa5b6af8abf932544","computer","Desktop or Laptop","Windows 10","Chrome 123.0.0.0","2560x1440","2844x1412",NA,NA,0,"BIQ (Charlotte)",5,"IJHKGAFBECD","Passed AC2","","Spreadsheet1","Spreadsheet1",NA,"","","",NA,"5","END",NA,NA,NA,NA,NA,NA,0,NA,NA,NA,NA,"","",NA,"","",NA,"SUPPRF83543"
"1",1712947890311,"12/04/2024 18:51:30",1712951490311,1,"12/04/2024 20:51:30",175580,1,"task-7hcp",NA,36976675,10905451,NA,"complete",NA,"66197beab5ff9b737b7659ba","computer","Desktop or Laptop","Windows 10","Chrome 123.0.0.0","1500x1000","1500x831",NA,NA,0,"BIQ (Charlotte)",5,"JKIAHBGCFDE","Passed AC2","","Spreadsheet1","Spreadsheet1",NA,"","","",NA,"5","BEGIN",NA,NA,NA,NA,NA,NA,0,NA,NA,NA,NA,"","",NA,"","",NA,"SUPPRF00852"
"2",1712947922391,"12/04/2024 18:52:02",1712951522391,1,"12/04/2024 20:52:02",175580,1,"task-7hcp",NA,36976675,10905451,NA,"complete",NA,"66197beab5ff9b737b7659ba","computer","Desktop or Laptop","Windows 10","Chrome 123.0.0.0","1500x1000","1500x831",NA,NA,0,"BIQ (Charlotte)",5,"JKIAHBGCFDE","Passed AC2","","Spreadsheet1","Spreadsheet1",1,"BIQ","Screen 1","9dh6eq",1,"continue","",32120.9999999762,32111.4,32120.9999999762,32120.9999999762,32111.4,32120.9999999762,1,32120.9999999762,0,0,NA,"Click To Continue","Continue Button",16,"object-48","BIQ",NA,"SUPPRF00852"
"3",1712947922393,"12/04/2024 18:52:02",1712951522393,1,"12/04/2024 20:52:02",175580,1,"task-7hcp",NA,36976675,10905451,NA,"complete",NA,"66197beab5ff9b737b7659ba","computer","Desktop or Laptop","Windows 10","Chrome 123.0.0.0","1500x1000","1500x831",NA,NA,0,"BIQ (Charlotte)",5,"JKIAHBGCFDE","Passed AC2","","Spreadsheet1","Spreadsheet1",1,"BIQ","Screen 1","9dh6eq",1,"response","3",22509.1,32111.4,32123.9999999762,22509.1,32111.4,32123.9999999762,1,22509.1,9614.89999997616,0,NA,"Rating Scale","Rating Scale",3,"object-5","BIQ",NA,"SUPPRF00852"
"4",1712947922394,"12/04/2024 18:52:02",1712951522394,1,"12/04/2024 20:52:02",175580,1,"task-7hcp",NA,36976675,10905451,NA,"complete",NA,"66197beab5ff9b737b7659ba","computer","Desktop or Laptop","Windows 10","Chrome 123.0.0.0","1500x1000","1500x831",NA,NA,0,"BIQ (Charlotte)",5,"JKIAHBGCFDE","Passed AC2","","Spreadsheet1","Spreadsheet1",1,"BIQ","Screen 1","9dh6eq",1,"response","5",28243.7,32111.4,32124.2999999881,28243.7,32111.4,32124.2999999881,1,28243.7,3880.59999998808,0,NA,"Rating Scale","Rating Scale",10,"object-18","BIQ",NA,"SUPPRF00852"
"5",1712947930577,"12/04/2024 18:52:10",1712951530577,1,"12/04/2024 20:52:10",175580,1,"task-7hcp",NA,36976675,10905451,NA,"complete",NA,"66197beab5ff9b737b7659ba","computer","Desktop or Laptop","Windows 10","Chrome 123.0.0.0","1500x1000","1500x831",NA,NA,0,"BIQ (Charlotte)",5,"JKIAHBGCFDE","Passed AC2","","Spreadsheet1","Spreadsheet1",1,"BIQ","Screen 2","svpz34",2,"continue","",8195.89999998808,8185.8,8195.89999998808,8195.89999998808,8185.8,8195.89999998808,1,8195.89999998808,0,0,NA,"Click To Continue","Continue Button",7,"object-1017","BIQ",NA,"SUPPRF00852"
"6",1712947930577,"12/04/2024 18:52:10",1712951530577,1,"12/04/2024 20:52:10",175580,1,"task-7hcp",NA,36976675,10905451,NA,"complete",NA,"66197beab5ff9b737b7659ba","computer","Desktop or Laptop","Windows 10","Chrome 123.0.0.0","1500x1000","1500x831",NA,NA,0,"BIQ (Charlotte)",5,"JKIAHBGCFDE","Passed AC2","","Spreadsheet1","Spreadsheet1",1,"BIQ","Screen 2","svpz34",2,"response","4",3834.6,8185.8,8196.39999998808,3834.6,8185.8,8196.39999998808,1,3834.6,4361.79999998808,0,NA,"Rating Scale","Rating Scale",8,"object-118","BIQ",NA,"SUPPRF00852"
"7",1712947930577,"12/04/2024 18:52:10",1712951530577,1,"12/04/2024 20:52:10",175580,1,"task-7hcp",NA,36976675,10905451,NA,"complete",NA,"66197beab5ff9b737b7659ba","computer","Desktop or Laptop","Windows 10","Chrome 123.0.0.0","1500x1000","1500x831",NA,NA,0,"BIQ (Charlotte)",5,"JKIAHBGCFDE","Passed AC2","","Spreadsheet1","Spreadsheet1",1,"BIQ","Screen 2","svpz34",2,"response","6",7552.1,8185.8,8196.7,7552.1,8185.8,8196.7,1,7552.1,644.599999999999,0,NA,"Rating Scale","Rating Scale",10,"object-121","BIQ",NA,"SUPPRF00852"
"8",1712947944502,"12/04/2024 18:52:24",1712951544502,1,"12/04/2024 20:52:24",175580,1,"task-7hcp",NA,36976675,10905451,NA,"complete",NA,"66197beab5ff9b737b7659ba","computer","Desktop or Laptop","Windows 10","Chrome 123.0.0.0","1500x1000","1500x831",NA,NA,0,"BIQ (Charlotte)",5,"JKIAHBGCFDE","Passed AC2","","Spreadsheet1","Spreadsheet1",1,"BIQ","Screen 3","o21mwi",3,"continue","",13934.7999999762,13919.7,13934.7999999762,13934.7999999762,13919.7,13934.7999999762,1,13934.7999999762,0,0,NA,"Click To Continue","Continue Button",15,"object-50","BIQ",NA,"SUPPRF00852"
"9",1712947944506,"12/04/2024 18:52:24",1712951544506,1,"12/04/2024 20:52:24",175580,1,"task-7hcp",NA,36976675,10905451,NA,"complete",NA,"66197beab5ff9b737b7659ba","computer","Desktop or Laptop","Windows 10","Chrome 123.0.0.0","1500x1000","1500x831",NA,NA,0,"BIQ (Charlotte)",5,"JKIAHBGCFDE","Passed AC2","","Spreadsheet1","Spreadsheet1",1,"BIQ","Screen 3","o21mwi",3,"response","3",4750.9,13919.7,13936,4750.9,13919.7,13936,1,4750.9,9185.10000000001,0,NA,"Rating Scale","Rating Scale",2,"object-36","BIQ",NA,"SUPPRF00852"
"10",1712947944506,"12/04/2024 18:52:24",1712951544506,1,"12/04/2024 20:52:24",175580,1,"task-7hcp",NA,36976675,10905451,NA,"complete",NA,"66197beab5ff9b737b7659ba","computer","Desktop or Laptop","Windows 10","Chrome 123.0.0.0","1500x1000","1500x831",NA,NA,0,"BIQ (Charlotte)",5,"JKIAHBGCFDE","Passed AC2","","Spreadsheet1","Spreadsheet1",1,"BIQ","Screen 3","o21mwi",3,"response","5",13402.7,13919.7,13936,13402.7,13919.7,13936,1,13402.7,533.300000000003,0,NA,"Rating Scale","Rating Scale",9,"object-86","BIQ",NA,"SUPPRF00852"
"11",1712947960337,"12/04/2024 18:52:40",1712951560337,1,"12/04/2024 20:52:40",175580,1,"task-7hcp",NA,36976675,10905451,NA,"complete",NA,"66197beab5ff9b737b7659ba","computer","Desktop or Laptop","Windows 10","Chrome 123.0.0.0","1500x1000","1500x831",NA,NA,0,"BIQ (Charlotte)",5,"JKIAHBGCFDE","Passed AC2","","Spreadsheet1","Spreadsheet1",1,"BIQ","Screen 4","iz3the",4,"continue","",15851.0000000119,15837.4,15851.0000000119,15851.0000000119,15837.4,15851.0000000119,1,15851.0000000119,0,0,NA,"Click To Continue","Continue Button",22,"object-73","BIQ",NA,"SUPPRF00852"
"12",1712947960340,"12/04/2024 18:52:40",1712951560340,1,"12/04/2024 20:52:40",175580,1,"task-7hcp",NA,36976675,10905451,NA,"complete",NA,"66197beab5ff9b737b7659ba","computer","Desktop or Laptop","Windows 10","Chrome 123.0.0.0","1500x1000","1500x831",NA,NA,0,"BIQ (Charlotte)",5,"JKIAHBGCFDE","Passed AC2","","Spreadsheet1","Spreadsheet1",1,"BIQ","Screen 4","iz3the",4,"response","0",9135.5,15837.4,15853.7,9135.5,15837.4,15853.7,1,9135.5,6718.2,0,NA,"Rating Scale","Rating Scale",2,"object-53","BIQ",NA,"SUPPRF00852"
"13",1712947960340,"12/04/2024 18:52:40",1712951560340,1,"12/04/2024 20:52:40",175580,1,"task-7hcp",NA,36976675,10905451,NA,"complete",NA,"66197beab5ff9b737b7659ba","computer","Desktop or Laptop","Windows 10","Chrome 123.0.0.0","1500x1000","1500x831",NA,NA,0,"BIQ (Charlotte)",5,"JKIAHBGCFDE","Passed AC2","","Spreadsheet1","Spreadsheet1",1,"BIQ","Screen 4","iz3the",4,"response","2",11369.4,15837.4,15853.8,11369.4,15837.4,15853.8,1,11369.4,4484.39999999999,0,NA,"Rating Scale","Rating Scale",9,"object-60","BIQ",NA,"SUPPRF00852"
"14",1712947960341,"12/04/2024 18:52:40",1712951560341,1,"12/04/2024 20:52:40",175580,1,"task-7hcp",NA,36976675,10905451,NA,"complete",NA,"66197beab5ff9b737b7659ba","computer","Desktop or Laptop","Windows 10","Chrome 123.0.0.0","1500x1000","1500x831",NA,NA,0,"BIQ (Charlotte)",5,"JKIAHBGCFDE","Passed AC2","","Spreadsheet1","Spreadsheet1",1,"BIQ","Screen 4","iz3the",4,"response","6",15086.9,15837.4,15853.8,15086.9,15837.4,15853.8,1,15086.9,766.899999999994,0,NA,"Rating Scale","Rating Scale",16,"object-67","BIQ",NA,"SUPPRF00852"
"15",1712947960347,"12/04/2024 18:52:40",1712951560347,1,"12/04/2024 20:52:40",175580,1,"task-7hcp",NA,36976675,10905451,NA,"complete",NA,"66197beab5ff9b737b7659ba","computer","Desktop or Laptop","Windows 10","Chrome 123.0.0.0","1500x1000","1500x831",NA,NA,0,"BIQ (Charlotte)",5,"JKIAHBGCFDE","Passed AC2","","Spreadsheet1","Spreadsheet1",NA,"","","",NA,"5","END",NA,NA,NA,NA,NA,NA,0,NA,NA,NA,NA,"","",NA,"","",NA,"SUPPRF00852"
"1",1712948988148,"12/04/2024 19:09:48",1712952588148,1,"12/04/2024 21:09:48",175580,1,"task-7hcp",NA,36977045,10905518,NA,"complete",NA,"661984cd43485e22ba0fe91a","computer","Desktop or Laptop","Mac OS 10.15.7","Chrome 123.0.0.0","1440x900","1440x813",NA,NA,0,"BIQ (Charlotte)",5,"KAJBICHDGEF","Passed AC2","","Spreadsheet1","Spreadsheet1",NA,"","","",NA,"5","BEGIN",NA,NA,NA,NA,NA,NA,0,NA,NA,NA,NA,"","",NA,"","",NA,"SUPPRF83382"
"2",1712949017062,"12/04/2024 19:10:17",1712952617062,1,"12/04/2024 21:10:17",175580,1,"task-7hcp",NA,36977045,10905518,NA,"complete",NA,"661984cd43485e22ba0fe91a","computer","Desktop or Laptop","Mac OS 10.15.7","Chrome 123.0.0.0","1440x900","1440x813",NA,NA,0,"BIQ (Charlotte)",5,"KAJBICHDGEF","Passed AC2","","Spreadsheet1","Spreadsheet1",1,"BIQ","Screen 1","9dh6eq",1,"continue","",28932.218,28915.518,28932.218,28932.218,28915.518,28932.218,1,28932.218,0,0,NA,"Click To Continue","Continue Button",16,"object-48","BIQ",NA,"SUPPRF83382"
"3",1712949017064,"12/04/2024 19:10:17",1712952617064,1,"12/04/2024 21:10:17",175580,1,"task-7hcp",NA,36977045,10905518,NA,"complete",NA,"661984cd43485e22ba0fe91a","computer","Desktop or Laptop","Mac OS 10.15.7","Chrome 123.0.0.0","1440x900","1440x813",NA,NA,0,"BIQ (Charlotte)",5,"KAJBICHDGEF","Passed AC2","","Spreadsheet1","Spreadsheet1",1,"BIQ","Screen 1","9dh6eq",1,"response","8",13149.418,28915.518,28932.218,13149.418,28915.518,28932.218,1,13149.418,15782.8,0,NA,"Rating Scale","Rating Scale",3,"object-5","BIQ",NA,"SUPPRF83382"
"4",1712949017064,"12/04/2024 19:10:17",1712952617064,1,"12/04/2024 21:10:17",175580,1,"task-7hcp",NA,36977045,10905518,NA,"complete",NA,"661984cd43485e22ba0fe91a","computer","Desktop or Laptop","Mac OS 10.15.7","Chrome 123.0.0.0","1440x900","1440x813",NA,NA,0,"BIQ (Charlotte)",5,"KAJBICHDGEF","Passed AC2","","Spreadsheet1","Spreadsheet1",1,"BIQ","Screen 1","9dh6eq",1,"response","5",26815.518,28915.518,28932.218,26815.518,28915.518,28932.218,1,26815.518,2116.7,0,NA,"Rating Scale","Rating Scale",10,"object-18","BIQ",NA,"SUPPRF83382"
"5",1712949034246,"12/04/2024 19:10:34",1712952634246,1,"12/04/2024 21:10:34",175580,1,"task-7hcp",NA,36977045,10905518,NA,"complete",NA,"661984cd43485e22ba0fe91a","computer","Desktop or Laptop","Mac OS 10.15.7","Chrome 123.0.0.0","1440x900","1440x813",NA,NA,0,"BIQ (Charlotte)",5,"KAJBICHDGEF","Passed AC2","","Spreadsheet1","Spreadsheet1",1,"BIQ","Screen 2","svpz34",2,"continue","",17214.2000000238,17199.3,17214.2000000238,17214.2000000238,17199.3,17214.2000000238,1,17214.2000000238,0,0,NA,"Click To Continue","Continue Button",7,"object-1017","BIQ",NA,"SUPPRF83382"
"6",1712949034250,"12/04/2024 19:10:34",1712952634250,1,"12/04/2024 21:10:34",175580,1,"task-7hcp",NA,36977045,10905518,NA,"complete",NA,"661984cd43485e22ba0fe91a","computer","Desktop or Laptop","Mac OS 10.15.7","Chrome 123.0.0.0","1440x900","1440x813",NA,NA,0,"BIQ (Charlotte)",5,"KAJBICHDGEF","Passed AC2","","Spreadsheet1","Spreadsheet1",1,"BIQ","Screen 2","svpz34",2,"response","2",4383.1,17199.3,17216,4383.1,17199.3,17216,1,4383.1,12832.9,0,NA,"Rating Scale","Rating Scale",8,"object-118","BIQ",NA,"SUPPRF83382"
"7",1712949034250,"12/04/2024 19:10:34",1712952634250,1,"12/04/2024 21:10:34",175580,1,"task-7hcp",NA,36977045,10905518,NA,"complete",NA,"661984cd43485e22ba0fe91a","computer","Desktop or Laptop","Mac OS 10.15.7","Chrome 123.0.0.0","1440x900","1440x813",NA,NA,0,"BIQ (Charlotte)",5,"KAJBICHDGEF","Passed AC2","","Spreadsheet1","Spreadsheet1",1,"BIQ","Screen 2","svpz34",2,"response","7",12132.8,17199.3,17216,12132.8,17199.3,17216,1,12132.8,5083.2,0,NA,"Rating Scale","Rating Scale",10,"object-121","BIQ",NA,"SUPPRF83382"
"8",1712949048093,"12/04/2024 19:10:48",1712952648093,1,"12/04/2024 21:10:48",175580,1,"task-7hcp",NA,36977045,10905518,NA,"complete",NA,"661984cd43485e22ba0fe91a","computer","Desktop or Laptop","Mac OS 10.15.7","Chrome 123.0.0.0","1440x900","1440x813",NA,NA,0,"BIQ (Charlotte)",5,"KAJBICHDGEF","Passed AC2","","Spreadsheet1","Spreadsheet1",1,"BIQ","Screen 3","o21mwi",3,"continue","",13861.8,13849.4,13861.8,13861.8,13849.4,13861.8,1,13861.8,0,0,NA,"Click To Continue","Continue Button",15,"object-50","BIQ",NA,"SUPPRF83382"
"9",1712949048097,"12/04/2024 19:10:48",1712952648097,1,"12/04/2024 21:10:48",175580,1,"task-7hcp",NA,36977045,10905518,NA,"complete",NA,"661984cd43485e22ba0fe91a","computer","Desktop or Laptop","Mac OS 10.15.7","Chrome 123.0.0.0","1440x900","1440x813",NA,NA,0,"BIQ (Charlotte)",5,"KAJBICHDGEF","Passed AC2","","Spreadsheet1","Spreadsheet1",1,"BIQ","Screen 3","o21mwi",3,"response","5",5599.7,13849.4,13865.3,5599.7,13849.4,13865.3,1,5599.7,8265.6,0,NA,"Rating Scale","Rating Scale",2,"object-36","BIQ",NA,"SUPPRF83382"
"10",1712949048097,"12/04/2024 19:10:48",1712952648097,1,"12/04/2024 21:10:48",175580,1,"task-7hcp",NA,36977045,10905518,NA,"complete",NA,"661984cd43485e22ba0fe91a","computer","Desktop or Laptop","Mac OS 10.15.7","Chrome 123.0.0.0","1440x900","1440x813",NA,NA,0,"BIQ (Charlotte)",5,"KAJBICHDGEF","Passed AC2","","Spreadsheet1","Spreadsheet1",1,"BIQ","Screen 3","o21mwi",3,"response","0",12932.8,13849.4,13865.8,12932.8,13849.4,13865.8,1,12932.8,933,0,NA,"Rating Scale","Rating Scale",9,"object-86","BIQ",NA,"SUPPRF83382"
"11",1712949061005,"12/04/2024 19:11:01",1712952661005,1,"12/04/2024 21:11:01",175580,1,"task-7hcp",NA,36977045,10905518,NA,"complete",NA,"661984cd43485e22ba0fe91a","computer","Desktop or Laptop","Mac OS 10.15.7","Chrome 123.0.0.0","1440x900","1440x813",NA,NA,0,"BIQ (Charlotte)",5,"KAJBICHDGEF","Passed AC2","","Spreadsheet1","Spreadsheet1",1,"BIQ","Screen 4","iz3the",4,"continue","",12924.7000000119,12916.2,12924.7000000119,12924.7000000119,12916.2,12924.7000000119,1,12924.7000000119,0,0,NA,"Click To Continue","Continue Button",22,"object-73","BIQ",NA,"SUPPRF83382"
"12",1712949061009,"12/04/2024 19:11:01",1712952661009,1,"12/04/2024 21:11:01",175580,1,"task-7hcp",NA,36977045,10905518,NA,"complete",NA,"661984cd43485e22ba0fe91a","computer","Desktop or Laptop","Mac OS 10.15.7","Chrome 123.0.0.0","1440x900","1440x813",NA,NA,0,"BIQ (Charlotte)",5,"KAJBICHDGEF","Passed AC2","","Spreadsheet1","Spreadsheet1",1,"BIQ","Screen 4","iz3the",4,"response","0",4816.50000000001,12916.2,12928.4,4816.50000000001,12916.2,12928.4,1,4816.50000000001,8111.89999999999,0,NA,"Rating Scale","Rating Scale",2,"object-53","BIQ",NA,"SUPPRF83382"
"13",1712949061009,"12/04/2024 19:11:01",1712952661009,1,"12/04/2024 21:11:01",175580,1,"task-7hcp",NA,36977045,10905518,NA,"complete",NA,"661984cd43485e22ba0fe91a","computer","Desktop or Laptop","Mac OS 10.15.7","Chrome 123.0.0.0","1440x900","1440x813",NA,NA,0,"BIQ (Charlotte)",5,"KAJBICHDGEF","Passed AC2","","Spreadsheet1","Spreadsheet1",1,"BIQ","Screen 4","iz3the",4,"response","0",8666.3,12916.2,12928.9,8666.3,12916.2,12928.9,1,8666.3,4262.60000000001,0,NA,"Rating Scale","Rating Scale",9,"object-60","BIQ",NA,"SUPPRF83382"
"14",1712949061010,"12/04/2024 19:11:01",1712952661010,1,"12/04/2024 21:11:01",175580,1,"task-7hcp",NA,36977045,10905518,NA,"complete",NA,"661984cd43485e22ba0fe91a","computer","Desktop or Laptop","Mac OS 10.15.7","Chrome 123.0.0.0","1440x900","1440x813",NA,NA,0,"BIQ (Charlotte)",5,"KAJBICHDGEF","Passed AC2","","Spreadsheet1","Spreadsheet1",1,"BIQ","Screen 4","iz3the",4,"response","4",12249.6,12916.2,12929.300000006,12249.6,12916.2,12929.300000006,1,12249.6,679.700000005963,0,NA,"Rating Scale","Rating Scale",16,"object-67","BIQ",NA,"SUPPRF83382"
"15",1712949061016,"12/04/2024 19:11:01",1712952661016,1,"12/04/2024 21:11:01",175580,1,"task-7hcp",NA,36977045,10905518,NA,"complete",NA,"661984cd43485e22ba0fe91a","computer","Desktop or Laptop","Mac OS 10.15.7","Chrome 123.0.0.0","1440x900","1440x813",NA,NA,0,"BIQ (Charlotte)",5,"KAJBICHDGEF","Passed AC2","","Spreadsheet1","Spreadsheet1",NA,"","","",NA,"5","END",NA,NA,NA,NA,NA,NA,0,NA,NA,NA,NA,"","",NA,"","",NA,"SUPPRF83382"
"1",1712949959484,"12/04/2024 19:25:59",1712935559484,-4,"12/04/2024 11:25:59",175580,1,"task-7hcp",NA,36977474,10905623,NA,"complete",NA,"661988030e8d31580629efb6","computer","Desktop or Laptop","Mac OS 10.15.7","Chrome 123.0.0.0","1440x900","1440x695",NA,NA,0,"BIQ (Charlotte)",5,"ABKCJDIEHFG","Passed AC2","","Spreadsheet1","Spreadsheet1",NA,"","","",NA,"5","BEGIN",NA,NA,NA,NA,NA,NA,0,NA,NA,NA,NA,"","",NA,"","",NA,"SUPPRF24108"
"2",1712949984011,"12/04/2024 19:26:24",1712935584011,-4,"12/04/2024 11:26:24",175580,1,"task-7hcp",NA,36977474,10905623,NA,"complete",NA,"661988030e8d31580629efb6","computer","Desktop or Laptop","Mac OS 10.15.7","Chrome 123.0.0.0","1440x900","1440x695",NA,NA,0,"BIQ (Charlotte)",5,"ABKCJDIEHFG","Passed AC2","","Spreadsheet1","Spreadsheet1",1,"BIQ","Screen 1","9dh6eq",1,"continue","",24535.333999997,24521.234,24535.333999997,24535.333999997,24521.234,24535.333999997,1,24535.333999997,0,0,NA,"Click To Continue","Continue Button",16,"object-48","BIQ",NA,"SUPPRF24108"
"3",1712949984013,"12/04/2024 19:26:24",1712935584013,-4,"12/04/2024 11:26:24",175580,1,"task-7hcp",NA,36977474,10905623,NA,"complete",NA,"661988030e8d31580629efb6","computer","Desktop or Laptop","Mac OS 10.15.7","Chrome 123.0.0.0","1440x900","1440x695",NA,NA,0,"BIQ (Charlotte)",5,"ABKCJDIEHFG","Passed AC2","","Spreadsheet1","Spreadsheet1",1,"BIQ","Screen 1","9dh6eq",1,"response","6",16341.734,24521.234,24538.634,16341.734,24521.234,24538.634,1,16341.734,8196.9,0,NA,"Rating Scale","Rating Scale",3,"object-5","BIQ",NA,"SUPPRF24108"
"4",1712949984014,"12/04/2024 19:26:24",1712935584014,-4,"12/04/2024 11:26:24",175580,1,"task-7hcp",NA,36977474,10905623,NA,"complete",NA,"661988030e8d31580629efb6","computer","Desktop or Laptop","Mac OS 10.15.7","Chrome 123.0.0.0","1440x900","1440x695",NA,NA,0,"BIQ (Charlotte)",5,"ABKCJDIEHFG","Passed AC2","","Spreadsheet1","Spreadsheet1",1,"BIQ","Screen 1","9dh6eq",1,"response","4",21489.534,24521.234,24538.634,21489.534,24521.234,24538.634,1,21489.534,3049.1,0,NA,"Rating Scale","Rating Scale",10,"object-18","BIQ",NA,"SUPPRF24108"
"5",1712949998606,"12/04/2024 19:26:38",1712935598606,-4,"12/04/2024 11:26:38",175580,1,"task-7hcp",NA,36977474,10905623,NA,"complete",NA,"661988030e8d31580629efb6","computer","Desktop or Laptop","Mac OS 10.15.7","Chrome 123.0.0.0","1440x900","1440x695",NA,NA,0,"BIQ (Charlotte)",5,"ABKCJDIEHFG","Passed AC2","","Spreadsheet1","Spreadsheet1",1,"BIQ","Screen 2","svpz34",2,"continue","",14615.000000003,14601.9,14615.000000003,14615.000000003,14601.9,14615.000000003,1,14615.000000003,0,0,NA,"Click To Continue","Continue Button",7,"object-1017","BIQ",NA,"SUPPRF24108"
"6",1712949998610,"12/04/2024 19:26:38",1712935598610,-4,"12/04/2024 11:26:38",175580,1,"task-7hcp",NA,36977474,10905623,NA,"complete",NA,"661988030e8d31580629efb6","computer","Desktop or Laptop","Mac OS 10.15.7","Chrome 123.0.0.0","1440x900","1440x695",NA,NA,0,"BIQ (Charlotte)",5,"ABKCJDIEHFG","Passed AC2","","Spreadsheet1","Spreadsheet1",1,"BIQ","Screen 2","svpz34",2,"response","3",9019.8,14601.9,14618.500000003,9019.8,14601.9,14618.500000003,1,9019.8,5598.70000000298,0,NA,"Rating Scale","Rating Scale",8,"object-118","BIQ",NA,"SUPPRF24108"
"7",1712949998610,"12/04/2024 19:26:38",1712935598610,-4,"12/04/2024 11:26:38",175580,1,"task-7hcp",NA,36977474,10905623,NA,"complete",NA,"661988030e8d31580629efb6","computer","Desktop or Laptop","Mac OS 10.15.7","Chrome 123.0.0.0","1440x900","1440x695",NA,NA,0,"BIQ (Charlotte)",5,"ABKCJDIEHFG","Passed AC2","","Spreadsheet1","Spreadsheet1",1,"BIQ","Screen 2","svpz34",2,"response","5",10715.7,14601.9,14618.6,10715.7,14601.9,14618.6,1,10715.7,3902.89999999999,0,NA,"Rating Scale","Rating Scale",10,"object-121","BIQ",NA,"SUPPRF24108"
"8",1712950019165,"12/04/2024 19:26:59",1712935619165,-4,"12/04/2024 11:26:59",175580,1,"task-7hcp",NA,36977474,10905623,NA,"complete",NA,"661988030e8d31580629efb6","computer","Desktop or Laptop","Mac OS 10.15.7","Chrome 123.0.0.0","1440x900","1440x695",NA,NA,0,"BIQ (Charlotte)",5,"ABKCJDIEHFG","Passed AC2","","Spreadsheet1","Spreadsheet1",1,"BIQ","Screen 3","o21mwi",3,"continue","",20571.800000006,20560.6,20571.800000006,20571.800000006,20560.6,20571.800000006,1,20571.800000006,0,0,NA,"Click To Continue","Continue Button",15,"object-50","BIQ",NA,"SUPPRF24108"
"9",1712950019166,"12/04/2024 19:26:59",1712935619166,-4,"12/04/2024 11:26:59",175580,1,"task-7hcp",NA,36977474,10905623,NA,"complete",NA,"661988030e8d31580629efb6","computer","Desktop or Laptop","Mac OS 10.15.7","Chrome 123.0.0.0","1440x900","1440x695",NA,NA,0,"BIQ (Charlotte)",5,"ABKCJDIEHFG","Passed AC2","","Spreadsheet1","Spreadsheet1",1,"BIQ","Screen 3","o21mwi",3,"response","2",5656.7,20560.6,20573.4,5656.7,20560.6,20573.4,1,5656.7,14916.7,0,NA,"Rating Scale","Rating Scale",2,"object-36","BIQ",NA,"SUPPRF24108"
"10",1712950019167,"12/04/2024 19:26:59",1712935619167,-4,"12/04/2024 11:26:59",175580,1,"task-7hcp",NA,36977474,10905623,NA,"complete",NA,"661988030e8d31580629efb6","computer","Desktop or Laptop","Mac OS 10.15.7","Chrome 123.0.0.0","1440x900","1440x695",NA,NA,0,"BIQ (Charlotte)",5,"ABKCJDIEHFG","Passed AC2","","Spreadsheet1","Spreadsheet1",1,"BIQ","Screen 3","o21mwi",3,"response","5",11466.4,20560.6,20573.699999997,11466.4,20560.6,20573.699999997,1,11466.4,9107.29999999702,0,NA,"Rating Scale","Rating Scale",9,"object-86","BIQ",NA,"SUPPRF24108"
"11",1712950034759,"12/04/2024 19:27:14",1712935634759,-4,"12/04/2024 11:27:14",175580,1,"task-7hcp",NA,36977474,10905623,NA,"complete",NA,"661988030e8d31580629efb6","computer","Desktop or Laptop","Mac OS 10.15.7","Chrome 123.0.0.0","1440x900","1440x695",NA,NA,0,"BIQ (Charlotte)",5,"ABKCJDIEHFG","Passed AC2","","Spreadsheet1","Spreadsheet1",1,"BIQ","Screen 4","iz3the",4,"continue","",15605.3,15588.5,15605.3,15605.3,15588.5,15605.3,1,15605.3,0,0,NA,"Click To Continue","Continue Button",22,"object-73","BIQ",NA,"SUPPRF24108"
"12",1712950034762,"12/04/2024 19:27:14",1712935634762,-4,"12/04/2024 11:27:14",175580,1,"task-7hcp",NA,36977474,10905623,NA,"complete",NA,"661988030e8d31580629efb6","computer","Desktop or Laptop","Mac OS 10.15.7","Chrome 123.0.0.0","1440x900","1440x695",NA,NA,0,"BIQ (Charlotte)",5,"ABKCJDIEHFG","Passed AC2","","Spreadsheet1","Spreadsheet1",1,"BIQ","Screen 4","iz3the",4,"response","3",9416.3,15588.5,15606,9416.3,15588.5,15606,1,9416.3,6189.7,0,NA,"Rating Scale","Rating Scale",2,"object-53","BIQ",NA,"SUPPRF24108"
"13",1712950034763,"12/04/2024 19:27:14",1712935634763,-4,"12/04/2024 11:27:14",175580,1,"task-7hcp",NA,36977474,10905623,NA,"complete",NA,"661988030e8d31580629efb6","computer","Desktop or Laptop","Mac OS 10.15.7","Chrome 123.0.0.0","1440x900","1440x695",NA,NA,0,"BIQ (Charlotte)",5,"ABKCJDIEHFG","Passed AC2","","Spreadsheet1","Spreadsheet1",1,"BIQ","Screen 4","iz3the",4,"response","6",13721.7,15588.5,15606,13721.7,15588.5,15606,1,13721.7,1884.3,0,NA,"Rating Scale","Rating Scale",9,"object-60","BIQ",NA,"SUPPRF24108"
"14",1712950034763,"12/04/2024 19:27:14",1712935634763,-4,"12/04/2024 11:27:14",175580,1,"task-7hcp",NA,36977474,10905623,NA,"complete",NA,"661988030e8d31580629efb6","computer","Desktop or Laptop","Mac OS 10.15.7","Chrome 123.0.0.0","1440x900","1440x695",NA,NA,0,"BIQ (Charlotte)",5,"ABKCJDIEHFG","Passed AC2","","Spreadsheet1","Spreadsheet1",1,"BIQ","Screen 4","iz3the",4,"response","4",15141.6,15588.5,15606,15141.6,15588.5,15606,1,15141.6,464.399999999994,0,NA,"Rating Scale","Rating Scale",16,"object-67","BIQ",NA,"SUPPRF24108"
"15",1712950034769,"12/04/2024 19:27:14",1712935634769,-4,"12/04/2024 11:27:14",175580,1,"task-7hcp",NA,36977474,10905623,NA,"complete",NA,"661988030e8d31580629efb6","computer","Desktop or Laptop","Mac OS 10.15.7","Chrome 123.0.0.0","1440x900","1440x695",NA,NA,0,"BIQ (Charlotte)",5,"ABKCJDIEHFG","Passed AC2","","Spreadsheet1","Spreadsheet1",NA,"","","",NA,"5","END",NA,NA,NA,NA,NA,NA,0,NA,NA,NA,NA,"","",NA,"","",NA,"SUPPRF24108"
"1",1712951959339,"12/04/2024 19:59:19",1712937559339,-4,"12/04/2024 11:59:19",175580,1,"task-7hcp",NA,36978422,10905800,NA,"complete",NA,"66198c46bc138c5e9f02285b","computer","Desktop or Laptop","Windows 10","Chrome 123.0.0.0","1920x1080","1920x957",NA,NA,0,"BIQ (Charlotte)",5,"BCADKEJFIGH","Passed AC2","","Spreadsheet1","Spreadsheet1",NA,"","","",NA,"5","BEGIN",NA,NA,NA,NA,NA,NA,0,NA,NA,NA,NA,"","",NA,"","",NA,"SUPPRF15838"
"2",1712952040742,"12/04/2024 20:00:40",1712937640742,-4,"12/04/2024 12:00:40",175580,1,"task-7hcp",NA,36978422,10905800,NA,"complete",NA,"66198c46bc138c5e9f02285b","computer","Desktop or Laptop","Windows 10","Chrome 123.0.0.0","1920x1080","1920x957",NA,NA,0,"BIQ (Charlotte)",5,"BCADKEJFIGH","Passed AC2","","Spreadsheet1","Spreadsheet1",1,"BIQ","Screen 1","9dh6eq",1,"continue","",81407.1,81403.8,81407.1,81407.1,81403.8,81407.1,1,81407.1,0,0,NA,"Click To Continue","Continue Button",16,"object-48","BIQ",NA,"SUPPRF15838"
"3",1712952040743,"12/04/2024 20:00:40",1712937640743,-4,"12/04/2024 12:00:40",175580,1,"task-7hcp",NA,36978422,10905800,NA,"complete",NA,"66198c46bc138c5e9f02285b","computer","Desktop or Laptop","Windows 10","Chrome 123.0.0.0","1920x1080","1920x957",NA,NA,0,"BIQ (Charlotte)",5,"BCADKEJFIGH","Passed AC2","","Spreadsheet1","Spreadsheet1",1,"BIQ","Screen 1","9dh6eq",1,"response","7",47497.8,81403.8,81407.1,47497.8,81403.8,81407.1,1,47497.8,33909.3,0,NA,"Rating Scale","Rating Scale",3,"object-5","BIQ",NA,"SUPPRF15838"
"4",1712952040744,"12/04/2024 20:00:40",1712937640744,-4,"12/04/2024 12:00:40",175580,1,"task-7hcp",NA,36978422,10905800,NA,"complete",NA,"66198c46bc138c5e9f02285b","computer","Desktop or Laptop","Windows 10","Chrome 123.0.0.0","1920x1080","1920x957",NA,NA,0,"BIQ (Charlotte)",5,"BCADKEJFIGH","Passed AC2","","Spreadsheet1","Spreadsheet1",1,"BIQ","Screen 1","9dh6eq",1,"response","1",77289.5,81403.8,81407.1,77289.5,81403.8,81407.1,1,77289.5,4117.60000000001,0,NA,"Rating Scale","Rating Scale",10,"object-18","BIQ",NA,"SUPPRF15838"
"5",1712952063070,"12/04/2024 20:01:03",1712937663070,-4,"12/04/2024 12:01:03",175580,1,"task-7hcp",NA,36978422,10905800,NA,"complete",NA,"66198c46bc138c5e9f02285b","computer","Desktop or Laptop","Windows 10","Chrome 123.0.0.0","1920x1080","1920x957",NA,NA,0,"BIQ (Charlotte)",5,"BCADKEJFIGH","Passed AC2","","Spreadsheet1","Spreadsheet1",1,"BIQ","Screen 2","svpz34",2,"continue","",22335.4999999881,22332.9,22335.4999999881,22335.4999999881,22332.9,22335.4999999881,1,22335.4999999881,0,0,NA,"Click To Continue","Continue Button",7,"object-1017","BIQ",NA,"SUPPRF15838"
"6",1712952063071,"12/04/2024 20:01:03",1712937663071,-4,"12/04/2024 12:01:03",175580,1,"task-7hcp",NA,36978422,10905800,NA,"complete",NA,"66198c46bc138c5e9f02285b","computer","Desktop or Laptop","Windows 10","Chrome 123.0.0.0","1920x1080","1920x957",NA,NA,0,"BIQ (Charlotte)",5,"BCADKEJFIGH","Passed AC2","","Spreadsheet1","Spreadsheet1",1,"BIQ","Screen 2","svpz34",2,"response","4",13521.7,22332.9,22336.2,13521.7,22332.9,22336.2,1,13521.7,8814.50000000001,0,NA,"Rating Scale","Rating Scale",8,"object-118","BIQ",NA,"SUPPRF15838"
"7",1712952063071,"12/04/2024 20:01:03",1712937663071,-4,"12/04/2024 12:01:03",175580,1,"task-7hcp",NA,36978422,10905800,NA,"complete",NA,"66198c46bc138c5e9f02285b","computer","Desktop or Laptop","Windows 10","Chrome 123.0.0.0","1920x1080","1920x957",NA,NA,0,"BIQ (Charlotte)",5,"BCADKEJFIGH","Passed AC2","","Spreadsheet1","Spreadsheet1",1,"BIQ","Screen 2","svpz34",2,"response","2",21273.5,22332.9,22336.2,21273.5,22332.9,22336.2,1,21273.5,1062.70000000001,0,NA,"Rating Scale","Rating Scale",10,"object-121","BIQ",NA,"SUPPRF15838"
