"Event.Index","UTC.Timestamp","UTC.Date.and.Time","Local.Timestamp","Local.Timezone","Local.Date.and.Time","Experiment.ID","Experiment.Version","Tree.Node.Key","Repeat.Key","Schedule.ID","Participant.Private.ID","Participant.Starting.Group","Participant.Status","Participant.Completion.Code","Participant.External.Session.ID","Participant.Device.Type","Participant.Device","Participant.OS","Participant.Browser","Participant.Monitor.Size","Participant.Viewport.Size","Checkpoint","Room.ID","Room.Order","Task.Name","Task.Version","order.ot79","branch.g31k","branch.5gtn","Spreadsheet","Trial.Number","Display","Screen","Screen.ID","Screen.Counter","Response.Type","Response","Onset.Time","Clock.Time","Reaction.Time","Absolute.Onset.Time","Absolute.Clock.Time","Absolute.Reaction.Time","Correct","Response.Onset","Response.Duration","Proportion","Tag","Component.Name","Object.Name","Object.Number","Object.ID","Spreadsheet..display","Manipulation..Spreadsheet","Random_ID"
"1",1702911312966,"18/12/2023 14:55:12",1702911312966,0,"18/12/2023 14:55:12",157680,2,"task-gjqt",NA,33757591,9985032,NA,"complete",NA,"65805a6478141009e3ad2700","computer","Desktop or Laptop","Windows 10","Chrome 120.0.0.0","1536x864","1536x730",NA,NA,0,"BIQ (Charlotte)",3,"ABJCIDHEGF","Passed AC2",NA,"Spreadsheet1",NA,"","","",NA,"5","BEGIN",NA,NA,NA,NA,NA,NA,0,NA,NA,NA,NA,"","",NA,"","",NA,"SUPPRF23130"
"2",1702911341210,"18/12/2023 14:55:41",1702911341210,0,"18/12/2023 14:55:41",157680,2,"task-gjqt",NA,33757591,9985032,NA,"complete",NA,"65805a6478141009e3ad2700","computer","Desktop or Laptop","Windows 10","Chrome 120.0.0.0","1536x864","1536x730",NA,NA,0,"BIQ (Charlotte)",3,"ABJCIDHEGF","Passed AC2",NA,"Spreadsheet1",1,"BIQ","Screen 1","9dh6eq",1,"continue","",28265.9,28250.2,28265.9,28265.9,28250.2,28265.9,1,28265.9,0,0,NA,"Click To Continue","Continue Button",23,"object-48","BIQ",NA,"SUPPRF23130"
"3",1702911341212,"18/12/2023 14:55:41",1702911341212,0,"18/12/2023 14:55:41",157680,2,"task-gjqt",NA,33757591,9985032,NA,"complete",NA,"65805a6478141009e3ad2700","computer","Desktop or Laptop","Windows 10","Chrome 120.0.0.0","1536x864","1536x730",NA,NA,0,"BIQ (Charlotte)",3,"ABJCIDHEGF","Passed AC2",NA,"Spreadsheet1",1,"BIQ","Screen 1","9dh6eq",1,"response","4",11616.8,28250.2,28266.9,11616.8,28250.2,28266.9,1,11616.8,16650.1,0,NA,"Rating Scale","Rating Scale",3,"object-5","BIQ",NA,"SUPPRF23130"
"4",1702911341212,"18/12/2023 14:55:41",1702911341212,0,"18/12/2023 14:55:41",157680,2,"task-gjqt",NA,33757591,9985032,NA,"complete",NA,"65805a6478141009e3ad2700","computer","Desktop or Laptop","Windows 10","Chrome 120.0.0.0","1536x864","1536x730",NA,NA,0,"BIQ (Charlotte)",3,"ABJCIDHEGF","Passed AC2",NA,"Spreadsheet1",1,"BIQ","Screen 1","9dh6eq",1,"response","6",20033.5,28250.2,28266.9,20033.5,28250.2,28266.9,1,20033.5,8233.4,0,NA,"Rating Scale","Rating Scale",10,"object-18","BIQ",NA,"SUPPRF23130"
"5",1702911341213,"18/12/2023 14:55:41",1702911341213,0,"18/12/2023 14:55:41",157680,2,"task-gjqt",NA,33757591,9985032,NA,"complete",NA,"65805a6478141009e3ad2700","computer","Desktop or Laptop","Windows 10","Chrome 120.0.0.0","1536x864","1536x730",NA,NA,0,"BIQ (Charlotte)",3,"ABJCIDHEGF","Passed AC2",NA,"Spreadsheet1",1,"BIQ","Screen 1","9dh6eq",1,"response","4",26566.8,28250.2,28266.9,26566.8,28250.2,28266.9,1,26566.8,1700.1,0,NA,"Rating Scale","Rating Scale",17,"object-80","BIQ",NA,"SUPPRF23130"
"6",1702911352418,"18/12/2023 14:55:52",1702911352418,0,"18/12/2023 14:55:52",157680,2,"task-gjqt",NA,33757591,9985032,NA,"complete",NA,"65805a6478141009e3ad2700","computer","Desktop or Laptop","Windows 10","Chrome 120.0.0.0","1536x864","1536x730",NA,NA,0,"BIQ (Charlotte)",3,"ABJCIDHEGF","Passed AC2",NA,"Spreadsheet1",1,"BIQ","Screen 2","o21mwi",2,"continue","",11224.0000000119,11216.7,11224.0000000119,11224.0000000119,11216.7,11224.0000000119,1,11224.0000000119,0,0,NA,"Click To Continue","Continue Button",22,"object-50","BIQ",NA,"SUPPRF23130"
"7",1702911352420,"18/12/2023 14:55:52",1702911352420,0,"18/12/2023 14:55:52",157680,2,"task-gjqt",NA,33757591,9985032,NA,"complete",NA,"65805a6478141009e3ad2700","computer","Desktop or Laptop","Windows 10","Chrome 120.0.0.0","1536x864","1536x730",NA,NA,0,"BIQ (Charlotte)",3,"ABJCIDHEGF","Passed AC2",NA,"Spreadsheet1",1,"BIQ","Screen 2","o21mwi",2,"response","7",5100,11216.7,11226.299999994,5100,11216.7,11226.299999994,1,5100,6126.29999999404,0,NA,"Rating Scale","Rating Scale",2,"object-259","BIQ",NA,"SUPPRF23130"
"8",1702911352421,"18/12/2023 14:55:52",1702911352421,0,"18/12/2023 14:55:52",157680,2,"task-gjqt",NA,33757591,9985032,NA,"complete",NA,"65805a6478141009e3ad2700","computer","Desktop or Laptop","Windows 10","Chrome 120.0.0.0","1536x864","1536x730",NA,NA,0,"BIQ (Charlotte)",3,"ABJCIDHEGF","Passed AC2",NA,"Spreadsheet1",1,"BIQ","Screen 2","o21mwi",2,"response","4",8066.7,11216.7,11226.7,8066.7,11216.7,11226.7,1,8066.7,3160,0,NA,"Rating Scale","Rating Scale",9,"object-36","BIQ",NA,"SUPPRF23130"
"9",1702911352421,"18/12/2023 14:55:52",1702911352421,0,"18/12/2023 14:55:52",157680,2,"task-gjqt",NA,33757591,9985032,NA,"complete",NA,"65805a6478141009e3ad2700","computer","Desktop or Laptop","Windows 10","Chrome 120.0.0.0","1536x864","1536x730",NA,NA,0,"BIQ (Charlotte)",3,"ABJCIDHEGF","Passed AC2",NA,"Spreadsheet1",1,"BIQ","Screen 2","o21mwi",2,"response","4",10600,11216.7,11227.100000006,10600,11216.7,11227.100000006,1,10600,627.100000005958,0,NA,"Rating Scale","Rating Scale",16,"object-86","BIQ",NA,"SUPPRF23130"
"10",1702911360906,"18/12/2023 14:56:00",1702911360906,0,"18/12/2023 14:56:00",157680,2,"task-gjqt",NA,33757591,9985032,NA,"complete",NA,"65805a6478141009e3ad2700","computer","Desktop or Laptop","Windows 10","Chrome 120.0.0.0","1536x864","1536x730",NA,NA,0,"BIQ (Charlotte)",3,"ABJCIDHEGF","Passed AC2",NA,"Spreadsheet1",1,"BIQ","Screen 3","iz3the",3,"continue","",8495.59999999404,8483.4,8495.59999999404,8495.59999999404,8483.4,8495.59999999404,1,8495.59999999404,0,0,NA,"Click To Continue","Continue Button",22,"object-73","BIQ",NA,"SUPPRF23130"
"11",1702911360907,"18/12/2023 14:56:00",1702911360907,0,"18/12/2023 14:56:00",157680,2,"task-gjqt",NA,33757591,9985032,NA,"complete",NA,"65805a6478141009e3ad2700","computer","Desktop or Laptop","Windows 10","Chrome 120.0.0.0","1536x864","1536x730",NA,NA,0,"BIQ (Charlotte)",3,"ABJCIDHEGF","Passed AC2",NA,"Spreadsheet1",1,"BIQ","Screen 3","iz3the",3,"response","2",2583.3,8483.4,8496.19999998808,2583.3,8483.4,8496.19999998808,1,2583.3,5912.89999998808,0,NA,"Rating Scale","Rating Scale",2,"object-53","BIQ",NA,"SUPPRF23130"
"12",1702911360907,"18/12/2023 14:56:00",1702911360907,0,"18/12/2023 14:56:00",157680,2,"task-gjqt",NA,33757591,9985032,NA,"complete",NA,"65805a6478141009e3ad2700","computer","Desktop or Laptop","Windows 10","Chrome 120.0.0.0","1536x864","1536x730",NA,NA,0,"BIQ (Charlotte)",3,"ABJCIDHEGF","Passed AC2",NA,"Spreadsheet1",1,"BIQ","Screen 3","iz3the",3,"response","3",5166.8,8483.4,8496.69999998808,5166.8,8483.4,8496.69999998808,1,5166.8,3329.89999998808,0,NA,"Rating Scale","Rating Scale",9,"object-60","BIQ",NA,"SUPPRF23130"
"13",1702911360908,"18/12/2023 14:56:00",1702911360908,0,"18/12/2023 14:56:00",157680,2,"task-gjqt",NA,33757591,9985032,NA,"complete",NA,"65805a6478141009e3ad2700","computer","Desktop or Laptop","Windows 10","Chrome 120.0.0.0","1536x864","1536x730",NA,NA,0,"BIQ (Charlotte)",3,"ABJCIDHEGF","Passed AC2",NA,"Spreadsheet1",1,"BIQ","Screen 3","iz3the",3,"response","6",7550,8483.4,8497.40000000596,7550,8483.4,8497.40000000596,1,7550,947.40000000596,0,NA,"Rating Scale","Rating Scale",16,"object-67","BIQ",NA,"SUPPRF23130"
"14",1702911360913,"18/12/2023 14:56:00",1702911360913,0,"18/12/2023 14:56:00",157680,2,"task-gjqt",NA,33757591,9985032,NA,"complete",NA,"65805a6478141009e3ad2700","computer","Desktop or Laptop","Windows 10","Chrome 120.0.0.0","1536x864","1536x730",NA,NA,0,"BIQ (Charlotte)",3,"ABJCIDHEGF","Passed AC2",NA,"Spreadsheet1",NA,"","","",NA,"5","END",NA,NA,NA,NA,NA,NA,0,NA,NA,NA,NA,"","",NA,"","",NA,"SUPPRF23130"
"1",1702912321680,"18/12/2023 15:12:01",1702912321680,0,"18/12/2023 15:12:01",157680,2,"task-gjqt",NA,33757996,9985135,NA,"complete",NA,"65805e99a3d357b82d00161a","computer","Desktop or Laptop","Windows 10","Chrome 120.0.0.0","1368x912","1368x743",NA,NA,0,"BIQ (Charlotte)",3,"BCADJEIFHG","Passed AC2",NA,"Spreadsheet1",NA,"","","",NA,"5","BEGIN",NA,NA,NA,NA,NA,NA,0,NA,NA,NA,NA,"","",NA,"","",NA,"SUPPRF57988"
"2",1702912355406,"18/12/2023 15:12:35",1702912355406,0,"18/12/2023 15:12:35",157680,2,"task-gjqt",NA,33757996,9985135,NA,"complete",NA,"65805e99a3d357b82d00161a","computer","Desktop or Laptop","Windows 10","Chrome 120.0.0.0","1368x912","1368x743",NA,NA,0,"BIQ (Charlotte)",3,"BCADJEIFHG","Passed AC2",NA,"Spreadsheet1",1,"BIQ","Screen 1","9dh6eq",1,"continue","",33753.2,33740.4,33753.2,33753.2,33740.4,33753.2,1,33753.2,0,0,NA,"Click To Continue","Continue Button",23,"object-48","BIQ",NA,"SUPPRF57988"
"3",1702912355411,"18/12/2023 15:12:35",1702912355411,0,"18/12/2023 15:12:35",157680,2,"task-gjqt",NA,33757996,9985135,NA,"complete",NA,"65805e99a3d357b82d00161a","computer","Desktop or Laptop","Windows 10","Chrome 120.0.0.0","1368x912","1368x743",NA,NA,0,"BIQ (Charlotte)",3,"BCADJEIFHG","Passed AC2",NA,"Spreadsheet1",1,"BIQ","Screen 1","9dh6eq",1,"response","5",10256.9,33740.4,33757.2,10256.9,33740.4,33757.2,1,10256.9,23500.3,0,NA,"Rating Scale","Rating Scale",3,"object-5","BIQ",NA,"SUPPRF57988"
"4",1702912355412,"18/12/2023 15:12:35",1702912355412,0,"18/12/2023 15:12:35",157680,2,"task-gjqt",NA,33757996,9985135,NA,"complete",NA,"65805e99a3d357b82d00161a","computer","Desktop or Laptop","Windows 10","Chrome 120.0.0.0","1368x912","1368x743",NA,NA,0,"BIQ (Charlotte)",3,"BCADJEIFHG","Passed AC2",NA,"Spreadsheet1",1,"BIQ","Screen 1","9dh6eq",1,"response","4",15377.5,33740.4,33757.2,15377.5,33740.4,33757.2,1,15377.5,18379.7,0,NA,"Rating Scale","Rating Scale",10,"object-18","BIQ",NA,"SUPPRF57988"
"5",1702912355413,"18/12/2023 15:12:35",1702912355413,0,"18/12/2023 15:12:35",157680,2,"task-gjqt",NA,33757996,9985135,NA,"complete",NA,"65805e99a3d357b82d00161a","computer","Desktop or Laptop","Windows 10","Chrome 120.0.0.0","1368x912","1368x743",NA,NA,0,"BIQ (Charlotte)",3,"BCADJEIFHG","Passed AC2",NA,"Spreadsheet1",1,"BIQ","Screen 1","9dh6eq",1,"response","2",31004.8,33740.4,33757.2,31004.8,33740.4,33757.2,1,31004.8,2752.39999999999,0,NA,"Rating Scale","Rating Scale",17,"object-80","BIQ",NA,"SUPPRF57988"
"6",1702912388948,"18/12/2023 15:13:08",1702912388948,0,"18/12/2023 15:13:08",157680,2,"task-gjqt",NA,33757996,9985135,NA,"complete",NA,"65805e99a3d357b82d00161a","computer","Desktop or Laptop","Windows 10","Chrome 120.0.0.0","1368x912","1368x743",NA,NA,0,"BIQ (Charlotte)",3,"BCADJEIFHG","Passed AC2",NA,"Spreadsheet1",1,"BIQ","Screen 2","o21mwi",2,"continue","",33548.9000000238,33539.6,33548.9000000238,33548.9000000238,33539.6,33548.9000000238,1,33548.9000000238,0,0,NA,"Click To Continue","Continue Button",22,"object-50","BIQ",NA,"SUPPRF57988"
"7",1702912388953,"18/12/2023 15:13:08",1702912388953,0,"18/12/2023 15:13:08",157680,2,"task-gjqt",NA,33757996,9985135,NA,"complete",NA,"65805e99a3d357b82d00161a","computer","Desktop or Laptop","Windows 10","Chrome 120.0.0.0","1368x912","1368x743",NA,NA,0,"BIQ (Charlotte)",3,"BCADJEIFHG","Passed AC2",NA,"Spreadsheet1",1,"BIQ","Screen 2","o21mwi",2,"response","6",6270.60000000001,33539.6,33554.3,6270.60000000001,33539.6,33554.3,1,6270.60000000001,27283.7,0,NA,"Rating Scale","Rating Scale",2,"object-259","BIQ",NA,"SUPPRF57988"
"8",1702912388954,"18/12/2023 15:13:08",1702912388954,0,"18/12/2023 15:13:08",157680,2,"task-gjqt",NA,33757996,9985135,NA,"complete",NA,"65805e99a3d357b82d00161a","computer","Desktop or Laptop","Windows 10","Chrome 120.0.0.0","1368x912","1368x743",NA,NA,0,"BIQ (Charlotte)",3,"BCADJEIFHG","Passed AC2",NA,"Spreadsheet1",1,"BIQ","Screen 2","o21mwi",2,"response","1",19546.6,33539.6,33555.2000000358,19546.6,33539.6,33555.2000000358,1,19546.6,14008.6000000358,0,NA,"Rating Scale","Rating Scale",9,"object-36","BIQ",NA,"SUPPRF57988"
"9",1702912388956,"18/12/2023 15:13:08",1702912388956,0,"18/12/2023 15:13:08",157680,2,"task-gjqt",NA,33757996,9985135,NA,"complete",NA,"65805e99a3d357b82d00161a","computer","Desktop or Laptop","Windows 10","Chrome 120.0.0.0","1368x912","1368x743",NA,NA,0,"BIQ (Charlotte)",3,"BCADJEIFHG","Passed AC2",NA,"Spreadsheet1",1,"BIQ","Screen 2","o21mwi",2,"response","2",28369.5,33539.6,33555.9,28369.5,33539.6,33555.9,1,28369.5,5186.40000000001,0,NA,"Rating Scale","Rating Scale",16,"object-86","BIQ",NA,"SUPPRF57988"
"10",1702912404418,"18/12/2023 15:13:24",1702912404418,0,"18/12/2023 15:13:24",157680,2,"task-gjqt",NA,33757996,9985135,NA,"complete",NA,"65805e99a3d357b82d00161a","computer","Desktop or Laptop","Windows 10","Chrome 120.0.0.0","1368x912","1368x743",NA,NA,0,"BIQ (Charlotte)",3,"BCADJEIFHG","Passed AC2",NA,"Spreadsheet1",1,"BIQ","Screen 3","iz3the",3,"continue","",15477.5,15460.9,15477.5,15477.5,15460.9,15477.5,1,15477.5,0,0,NA,"Click To Continue","Continue Button",22,"object-73","BIQ",NA,"SUPPRF57988"
"11",1702912404423,"18/12/2023 15:13:24",1702912404423,0,"18/12/2023 15:13:24",157680,2,"task-gjqt",NA,33757996,9985135,NA,"complete",NA,"65805e99a3d357b82d00161a","computer","Desktop or Laptop","Windows 10","Chrome 120.0.0.0","1368x912","1368x743",NA,NA,0,"BIQ (Charlotte)",3,"BCADJEIFHG","Passed AC2",NA,"Spreadsheet1",1,"BIQ","Screen 3","iz3the",3,"response","0",5687.3,15460.9,15477.5,5687.3,15460.9,15477.5,1,5687.3,9790.19999999998,0,NA,"Rating Scale","Rating Scale",2,"object-53","BIQ",NA,"SUPPRF57988"
"12",1702912404424,"18/12/2023 15:13:24",1702912404424,0,"18/12/2023 15:13:24",157680,2,"task-gjqt",NA,33757996,9985135,NA,"complete",NA,"65805e99a3d357b82d00161a","computer","Desktop or Laptop","Windows 10","Chrome 120.0.0.0","1368x912","1368x743",NA,NA,0,"BIQ (Charlotte)",3,"BCADJEIFHG","Passed AC2",NA,"Spreadsheet1",1,"BIQ","Screen 3","iz3the",3,"response","2",9906.8,15460.9,15477.5,9906.8,15460.9,15477.5,1,9906.8,5570.69999999998,0,NA,"Rating Scale","Rating Scale",9,"object-60","BIQ",NA,"SUPPRF57988"
"13",1702912404425,"18/12/2023 15:13:24",1702912404425,0,"18/12/2023 15:13:24",157680,2,"task-gjqt",NA,33757996,9985135,NA,"complete",NA,"65805e99a3d357b82d00161a","computer","Desktop or Laptop","Windows 10","Chrome 120.0.0.0","1368x912","1368x743",NA,NA,0,"BIQ (Charlotte)",3,"BCADJEIFHG","Passed AC2",NA,"Spreadsheet1",1,"BIQ","Screen 3","iz3the",3,"response","1",13709.8,15460.9,15477.5,13709.8,15460.9,15477.5,1,13709.8,1767.69999999998,0,NA,"Rating Scale","Rating Scale",16,"object-67","BIQ",NA,"SUPPRF57988"
"14",1702912404435,"18/12/2023 15:13:24",1702912404435,0,"18/12/2023 15:13:24",157680,2,"task-gjqt",NA,33757996,9985135,NA,"complete",NA,"65805e99a3d357b82d00161a","computer","Desktop or Laptop","Windows 10","Chrome 120.0.0.0","1368x912","1368x743",NA,NA,0,"BIQ (Charlotte)",3,"BCADJEIFHG","Passed AC2",NA,"Spreadsheet1",NA,"","","",NA,"5","END",NA,NA,NA,NA,NA,NA,0,NA,NA,NA,NA,"","",NA,"","",NA,"SUPPRF57988"
"1",1702912456691,"18/12/2023 15:14:16",1702912456691,0,"18/12/2023 15:14:16",157680,2,"task-gjqt",NA,33758071,9985172,NA,"complete",NA,"658060219614e1dcd60d2ad8","computer","Desktop or Laptop","Windows 10","Chrome 120.0.0.0","1280x720","1280x593",NA,NA,0,"BIQ (Charlotte)",3,"CDBEAFJGIH","Passed AC2",NA,"Spreadsheet1",NA,"","","",NA,"5","BEGIN",NA,NA,NA,NA,NA,NA,0,NA,NA,NA,NA,"","",NA,"","",NA,"SUPPRF28201"
"2",1702912488435,"18/12/2023 15:14:48",1702912488435,0,"18/12/2023 15:14:48",157680,2,"task-gjqt",NA,33758071,9985172,NA,"complete",NA,"658060219614e1dcd60d2ad8","computer","Desktop or Laptop","Windows 10","Chrome 120.0.0.0","1280x720","1280x593",NA,NA,0,"BIQ (Charlotte)",3,"CDBEAFJGIH","Passed AC2",NA,"Spreadsheet1",1,"BIQ","Screen 1","9dh6eq",1,"continue","",31763.8000000477,31758.4,31763.8000000477,31763.8000000477,31758.4,31763.8000000477,1,31763.8000000477,0,0,NA,"Click To Continue","Continue Button",23,"object-48","BIQ",NA,"SUPPRF28201"
"3",1702912488437,"18/12/2023 15:14:48",1702912488437,0,"18/12/2023 15:14:48",157680,2,"task-gjqt",NA,33758071,9985172,NA,"complete",NA,"658060219614e1dcd60d2ad8","computer","Desktop or Laptop","Windows 10","Chrome 120.0.0.0","1280x720","1280x593",NA,NA,0,"BIQ (Charlotte)",3,"CDBEAFJGIH","Passed AC2",NA,"Spreadsheet1",1,"BIQ","Screen 1","9dh6eq",1,"response","3",17921.2,31758.4,31765.9000000715,17921.2,31758.4,31765.9000000715,1,17921.2,13844.7000000715,0,NA,"Rating Scale","Rating Scale",3,"object-5","BIQ",NA,"SUPPRF28201"
"4",1702912488437,"18/12/2023 15:14:48",1702912488437,0,"18/12/2023 15:14:48",157680,2,"task-gjqt",NA,33758071,9985172,NA,"complete",NA,"658060219614e1dcd60d2ad8","computer","Desktop or Laptop","Windows 10","Chrome 120.0.0.0","1280x720","1280x593",NA,NA,0,"BIQ (Charlotte)",3,"CDBEAFJGIH","Passed AC2",NA,"Spreadsheet1",1,"BIQ","Screen 1","9dh6eq",1,"response","5",26473.6,31758.4,31766.2000000238,26473.6,31758.4,31766.2000000238,1,26473.6,5292.60000002384,0,NA,"Rating Scale","Rating Scale",10,"object-18","BIQ",NA,"SUPPRF28201"
"5",1702912488437,"18/12/2023 15:14:48",1702912488437,0,"18/12/2023 15:14:48",157680,2,"task-gjqt",NA,33758071,9985172,NA,"complete",NA,"658060219614e1dcd60d2ad8","computer","Desktop or Laptop","Windows 10","Chrome 120.0.0.0","1280x720","1280x593",NA,NA,0,"BIQ (Charlotte)",3,"CDBEAFJGIH","Passed AC2",NA,"Spreadsheet1",1,"BIQ","Screen 1","9dh6eq",1,"response","4",30808.2,31758.4,31766.5000000954,30808.2,31758.4,31766.5000000954,1,30808.2,958.300000095369,0,NA,"Rating Scale","Rating Scale",17,"object-80","BIQ",NA,"SUPPRF28201"
"6",1702912511782,"18/12/2023 15:15:11",1702912511782,0,"18/12/2023 15:15:11",157680,2,"task-gjqt",NA,33758071,9985172,NA,"complete",NA,"658060219614e1dcd60d2ad8","computer","Desktop or Laptop","Windows 10","Chrome 120.0.0.0","1280x720","1280x593",NA,NA,0,"BIQ (Charlotte)",3,"CDBEAFJGIH","Passed AC2",NA,"Spreadsheet1",1,"BIQ","Screen 2","o21mwi",2,"continue","",23352.1000000954,23339.6,23352.1000000954,23352.1000000954,23339.6,23352.1000000954,1,23352.1000000954,0,0,NA,"Click To Continue","Continue Button",22,"object-50","BIQ",NA,"SUPPRF28201"
"7",1702912511783,"18/12/2023 15:15:11",1702912511783,0,"18/12/2023 15:15:11",157680,2,"task-gjqt",NA,33758071,9985172,NA,"complete",NA,"658060219614e1dcd60d2ad8","computer","Desktop or Laptop","Windows 10","Chrome 120.0.0.0","1280x720","1280x593",NA,NA,0,"BIQ (Charlotte)",3,"CDBEAFJGIH","Passed AC2",NA,"Spreadsheet1",1,"BIQ","Screen 2","o21mwi",2,"response","6",5134.7,23339.6,23354.0000000715,5134.7,23339.6,23354.0000000715,1,5134.7,18219.3000000715,0,NA,"Rating Scale","Rating Scale",2,"object-259","BIQ",NA,"SUPPRF28201"
"8",1702912511784,"18/12/2023 15:15:11",1702912511784,0,"18/12/2023 15:15:11",157680,2,"task-gjqt",NA,33758071,9985172,NA,"complete",NA,"658060219614e1dcd60d2ad8","computer","Desktop or Laptop","Windows 10","Chrome 120.0.0.0","1280x720","1280x593",NA,NA,0,"BIQ (Charlotte)",3,"CDBEAFJGIH","Passed AC2",NA,"Spreadsheet1",1,"BIQ","Screen 2","o21mwi",2,"response","5",11786.4,23339.6,23354.3000000238,11786.4,23339.6,23354.3000000238,1,11786.4,11567.9000000238,0,NA,"Rating Scale","Rating Scale",9,"object-36","BIQ",NA,"SUPPRF28201"
"9",1702912511784,"18/12/2023 15:15:11",1702912511784,0,"18/12/2023 15:15:11",157680,2,"task-gjqt",NA,33758071,9985172,NA,"complete",NA,"658060219614e1dcd60d2ad8","computer","Desktop or Laptop","Windows 10","Chrome 120.0.0.0","1280x720","1280x593",NA,NA,0,"BIQ (Charlotte)",3,"CDBEAFJGIH","Passed AC2",NA,"Spreadsheet1",1,"BIQ","Screen 2","o21mwi",2,"response","3",22589.5,23339.6,23354.7,22589.5,23339.6,23354.7,1,22589.5,765.199999999997,0,NA,"Rating Scale","Rating Scale",16,"object-86","BIQ",NA,"SUPPRF28201"
"10",1702912531380,"18/12/2023 15:15:31",1702912531380,0,"18/12/2023 15:15:31",157680,2,"task-gjqt",NA,33758071,9985172,NA,"complete",NA,"658060219614e1dcd60d2ad8","computer","Desktop or Laptop","Windows 10","Chrome 120.0.0.0","1280x720","1280x593",NA,NA,0,"BIQ (Charlotte)",3,"CDBEAFJGIH","Passed AC2",NA,"Spreadsheet1",1,"BIQ","Screen 3","iz3the",3,"continue","",19610.2000000238,19605.3,19610.2000000238,19610.2000000238,19605.3,19610.2000000238,1,19610.2000000238,0,0,NA,"Click To Continue","Continue Button",22,"object-73","BIQ",NA,"SUPPRF28201"
"11",1702912531381,"18/12/2023 15:15:31",1702912531381,0,"18/12/2023 15:15:31",157680,2,"task-gjqt",NA,33758071,9985172,NA,"complete",NA,"658060219614e1dcd60d2ad8","computer","Desktop or Laptop","Windows 10","Chrome 120.0.0.0","1280x720","1280x593",NA,NA,0,"BIQ (Charlotte)",3,"CDBEAFJGIH","Passed AC2",NA,"Spreadsheet1",1,"BIQ","Screen 3","iz3the",3,"response","1",5318.4,19605.3,19611.9000000715,5318.4,19605.3,19611.9000000715,1,5318.4,14293.5000000715,0,NA,"Rating Scale","Rating Scale",2,"object-53","BIQ",NA,"SUPPRF28201"
"12",1702912531382,"18/12/2023 15:15:31",1702912531382,0,"18/12/2023 15:15:31",157680,2,"task-gjqt",NA,33758071,9985172,NA,"complete",NA,"658060219614e1dcd60d2ad8","computer","Desktop or Laptop","Windows 10","Chrome 120.0.0.0","1280x720","1280x593",NA,NA,0,"BIQ (Charlotte)",3,"CDBEAFJGIH","Passed AC2",NA,"Spreadsheet1",1,"BIQ","Screen 3","iz3the",3,"response","2",13753.7,19605.3,19612.2000000238,13753.7,19605.3,19612.2000000238,1,13753.7,5858.50000002384,0,NA,"Rating Scale","Rating Scale",9,"object-60","BIQ",NA,"SUPPRF28201"
"13",1702912531382,"18/12/2023 15:15:31",1702912531382,0,"18/12/2023 15:15:31",157680,2,"task-gjqt",NA,33758071,9985172,NA,"complete",NA,"658060219614e1dcd60d2ad8","computer","Desktop or Laptop","Windows 10","Chrome 120.0.0.0","1280x720","1280x593",NA,NA,0,"BIQ (Charlotte)",3,"CDBEAFJGIH","Passed AC2",NA,"Spreadsheet1",1,"BIQ","Screen 3","iz3the",3,"response","3",18688.4,19605.3,19612.6,18688.4,19605.3,19612.6,1,18688.4,924.199999999997,0,NA,"Rating Scale","Rating Scale",16,"object-67","BIQ",NA,"SUPPRF28201"
"14",1702912531385,"18/12/2023 15:15:31",1702912531385,0,"18/12/2023 15:15:31",157680,2,"task-gjqt",NA,33758071,9985172,NA,"complete",NA,"658060219614e1dcd60d2ad8","computer","Desktop or Laptop","Windows 10","Chrome 120.0.0.0","1280x720","1280x593",NA,NA,0,"BIQ (Charlotte)",3,"CDBEAFJGIH","Passed AC2",NA,"Spreadsheet1",NA,"","","",NA,"5","END",NA,NA,NA,NA,NA,NA,0,NA,NA,NA,NA,"","",NA,"","",NA,"SUPPRF28201"
"1",1702912409504,"18/12/2023 15:13:29",1702912409504,0,"18/12/2023 15:13:29",157680,2,"task-gjqt",NA,33758036,9985173,NA,"complete",NA,"65806021c3e28b7307ddf8b2","computer","Desktop or Laptop","Windows 10","Chrome 119.0.0.0","1920x1080","1920x919",NA,NA,0,"BIQ (Charlotte)",3,"DECFBGAHJI","Passed AC2",NA,"Spreadsheet1",NA,"","","",NA,"5","BEGIN",NA,NA,NA,NA,NA,NA,0,NA,NA,NA,NA,"","",NA,"","",NA,"SUPPRF94387"
"2",1702912437103,"18/12/2023 15:13:57",1702912437103,0,"18/12/2023 15:13:57",157680,2,"task-gjqt",NA,33758036,9985173,NA,"complete",NA,"65806021c3e28b7307ddf8b2","computer","Desktop or Laptop","Windows 10","Chrome 119.0.0.0","1920x1080","1920x919",NA,NA,0,"BIQ (Charlotte)",3,"DECFBGAHJI","Passed AC2",NA,"Spreadsheet1",1,"BIQ","Screen 1","9dh6eq",1,"continue","",27613.556,27596.888,27613.556,27613.556,27596.888,27613.556,1,27613.556,0,0,NA,"Click To Continue","Continue Button",23,"object-48","BIQ",NA,"SUPPRF94387"
"3",1702912437108,"18/12/2023 15:13:57",1702912437108,0,"18/12/2023 15:13:57",157680,2,"task-gjqt",NA,33758036,9985173,NA,"complete",NA,"65806021c3e28b7307ddf8b2","computer","Desktop or Laptop","Windows 10","Chrome 119.0.0.0","1920x1080","1920x919",NA,NA,0,"BIQ (Charlotte)",3,"DECFBGAHJI","Passed AC2",NA,"Spreadsheet1",1,"BIQ","Screen 1","9dh6eq",1,"response","7",15764.716,27596.888,27613.556,15764.716,27596.888,27613.556,1,15764.716,11848.84,0,NA,"Rating Scale","Rating Scale",3,"object-5","BIQ",NA,"SUPPRF94387"
"4",1702912437109,"18/12/2023 15:13:57",1702912437109,0,"18/12/2023 15:13:57",157680,2,"task-gjqt",NA,33758036,9985173,NA,"complete",NA,"65806021c3e28b7307ddf8b2","computer","Desktop or Laptop","Windows 10","Chrome 119.0.0.0","1920x1080","1920x919",NA,NA,0,"BIQ (Charlotte)",3,"DECFBGAHJI","Passed AC2",NA,"Spreadsheet1",1,"BIQ","Screen 1","9dh6eq",1,"response","6",22014.281,27596.888,27613.556,22014.281,27596.888,27613.556,1,22014.281,5599.275,0,NA,"Rating Scale","Rating Scale",10,"object-18","BIQ",NA,"SUPPRF94387"
"5",1702912437110,"18/12/2023 15:13:57",1702912437110,0,"18/12/2023 15:13:57",157680,2,"task-gjqt",NA,33758036,9985173,NA,"complete",NA,"65806021c3e28b7307ddf8b2","computer","Desktop or Laptop","Windows 10","Chrome 119.0.0.0","1920x1080","1920x919",NA,NA,0,"BIQ (Charlotte)",3,"DECFBGAHJI","Passed AC2",NA,"Spreadsheet1",1,"BIQ","Screen 1","9dh6eq",1,"response","1",26363.685,27596.888,27613.556,26363.685,27596.888,27613.556,1,26363.685,1249.871,0,NA,"Rating Scale","Rating Scale",17,"object-80","BIQ",NA,"SUPPRF94387"
"6",1702912455092,"18/12/2023 15:14:15",1702912455092,0,"18/12/2023 15:14:15",157680,2,"task-gjqt",NA,33758036,9985173,NA,"complete",NA,"65806021c3e28b7307ddf8b2","computer","Desktop or Laptop","Windows 10","Chrome 119.0.0.0","1920x1080","1920x919",NA,NA,0,"BIQ (Charlotte)",3,"DECFBGAHJI","Passed AC2",NA,"Spreadsheet1",1,"BIQ","Screen 2","o21mwi",2,"continue","",18011.8049997139,17998.201,18011.8049997139,18011.8049997139,17998.201,18011.8049997139,1,18011.8049997139,0,0,NA,"Click To Continue","Continue Button",22,"object-50","BIQ",NA,"SUPPRF94387"
"7",1702912455098,"18/12/2023 15:14:15",1702912455098,0,"18/12/2023 15:14:15",157680,2,"task-gjqt",NA,33758036,9985173,NA,"complete",NA,"65806021c3e28b7307ddf8b2","computer","Desktop or Laptop","Windows 10","Chrome 119.0.0.0","1920x1080","1920x919",NA,NA,0,"BIQ (Charlotte)",3,"DECFBGAHJI","Passed AC2",NA,"Spreadsheet1",1,"BIQ","Screen 2","o21mwi",2,"response","6",8165.883,17998.201,18014.839,8165.883,17998.201,18014.839,1,8165.883,9848.95600000001,0,NA,"Rating Scale","Rating Scale",2,"object-259","BIQ",NA,"SUPPRF94387"
"8",1702912455099,"18/12/2023 15:14:15",1702912455099,0,"18/12/2023 15:14:15",157680,2,"task-gjqt",NA,33758036,9985173,NA,"complete",NA,"65806021c3e28b7307ddf8b2","computer","Desktop or Laptop","Windows 10","Chrome 119.0.0.0","1920x1080","1920x919",NA,NA,0,"BIQ (Charlotte)",3,"DECFBGAHJI","Passed AC2",NA,"Spreadsheet1",1,"BIQ","Screen 2","o21mwi",2,"response","1",14148.573,17998.201,18014.839,14148.573,17998.201,18014.839,1,14148.573,3866.26600000001,0,NA,"Rating Scale","Rating Scale",9,"object-36","BIQ",NA,"SUPPRF94387"
"9",1702912455100,"18/12/2023 15:14:15",1702912455100,0,"18/12/2023 15:14:15",157680,2,"task-gjqt",NA,33758036,9985173,NA,"complete",NA,"65806021c3e28b7307ddf8b2","computer","Desktop or Laptop","Windows 10","Chrome 119.0.0.0","1920x1080","1920x919",NA,NA,0,"BIQ (Charlotte)",3,"DECFBGAHJI","Passed AC2",NA,"Spreadsheet1",1,"BIQ","Screen 2","o21mwi",2,"response","0",16698.659,17998.201,18014.839,16698.659,17998.201,18014.839,1,16698.659,1316.18000000001,0,NA,"Rating Scale","Rating Scale",16,"object-86","BIQ",NA,"SUPPRF94387"
"10",1702912469254,"18/12/2023 15:14:29",1702912469254,0,"18/12/2023 15:14:29",157680,2,"task-gjqt",NA,33758036,9985173,NA,"complete",NA,"65806021c3e28b7307ddf8b2","computer","Desktop or Laptop","Windows 10","Chrome 119.0.0.0","1920x1080","1920x919",NA,NA,0,"BIQ (Charlotte)",3,"DECFBGAHJI","Passed AC2",NA,"Spreadsheet1",1,"BIQ","Screen 3","iz3the",3,"continue","",14175.6039997139,14165.376,14175.6039997139,14175.6039997139,14165.376,14175.6039997139,1,14175.6039997139,0,0,NA,"Click To Continue","Continue Button",22,"object-73","BIQ",NA,"SUPPRF94387"
"11",1702912469259,"18/12/2023 15:14:29",1702912469259,0,"18/12/2023 15:14:29",157680,2,"task-gjqt",NA,33758036,9985173,NA,"complete",NA,"65806021c3e28b7307ddf8b2","computer","Desktop or Laptop","Windows 10","Chrome 119.0.0.0","1920x1080","1920x919",NA,NA,0,"BIQ (Charlotte)",3,"DECFBGAHJI","Passed AC2",NA,"Spreadsheet1",1,"BIQ","Screen 3","iz3the",3,"response","0",4582.86799999999,14165.376,14181.5039998093,4582.86799999999,14165.376,14181.5039998093,1,4582.86799999999,9598.63599980927,0,NA,"Rating Scale","Rating Scale",2,"object-53","BIQ",NA,"SUPPRF94387"
"12",1702912469261,"18/12/2023 15:14:29",1702912469261,0,"18/12/2023 15:14:29",157680,2,"task-gjqt",NA,33758036,9985173,NA,"complete",NA,"65806021c3e28b7307ddf8b2","computer","Desktop or Laptop","Windows 10","Chrome 119.0.0.0","1920x1080","1920x919",NA,NA,0,"BIQ (Charlotte)",3,"DECFBGAHJI","Passed AC2",NA,"Spreadsheet1",1,"BIQ","Screen 3","iz3the",3,"response","2",8682.74299999999,14165.376,14182.166,8682.74299999999,14165.376,14182.166,1,8682.74299999999,5499.423,0,NA,"Rating Scale","Rating Scale",9,"object-60","BIQ",NA,"SUPPRF94387"
"13",1702912469262,"18/12/2023 15:14:29",1702912469262,0,"18/12/2023 15:14:29",157680,2,"task-gjqt",NA,33758036,9985173,NA,"complete",NA,"65806021c3e28b7307ddf8b2","computer","Desktop or Laptop","Windows 10","Chrome 119.0.0.0","1920x1080","1920x919",NA,NA,0,"BIQ (Charlotte)",3,"DECFBGAHJI","Passed AC2",NA,"Spreadsheet1",1,"BIQ","Screen 3","iz3the",3,"response","0",13348.67,14165.376,14182.166,13348.67,14165.376,14182.166,1,13348.67,833.495999999999,0,NA,"Rating Scale","Rating Scale",16,"object-67","BIQ",NA,"SUPPRF94387"
"14",1702912469274,"18/12/2023 15:14:29",1702912469274,0,"18/12/2023 15:14:29",157680,2,"task-gjqt",NA,33758036,9985173,NA,"complete",NA,"65806021c3e28b7307ddf8b2","computer","Desktop or Laptop","Windows 10","Chrome 119.0.0.0","1920x1080","1920x919",NA,NA,0,"BIQ (Charlotte)",3,"DECFBGAHJI","Passed AC2",NA,"Spreadsheet1",NA,"","","",NA,"5","END",NA,NA,NA,NA,NA,NA,0,NA,NA,NA,NA,"","",NA,"","",NA,"SUPPRF94387"
"1",1702912339225,"18/12/2023 15:12:19",1702912339225,0,"18/12/2023 15:12:19",157680,2,"task-gjqt",NA,33758004,9985185,NA,"complete",NA,"6580606ca34037ddf9e4da74","computer","Desktop or Laptop","Windows 10","Chrome 120.0.0.0","1366x768","1366x641",NA,NA,0,"BIQ (Charlotte)",3,"EFDGCHBIAJ","Passed AC2",NA,"Spreadsheet1",NA,"","","",NA,"5","BEGIN",NA,NA,NA,NA,NA,NA,0,NA,NA,NA,NA,"","",NA,"","",NA,"SUPPRF06891"
"2",1702912399102,"18/12/2023 15:13:19",1702912399102,0,"18/12/2023 15:13:19",157680,2,"task-gjqt",NA,33758004,9985185,NA,"complete",NA,"6580606ca34037ddf9e4da74","computer","Desktop or Laptop","Windows 10","Chrome 120.0.0.0","1366x768","1366x641",NA,NA,0,"BIQ (Charlotte)",3,"EFDGCHBIAJ","Passed AC2",NA,"Spreadsheet1",1,"BIQ","Screen 1","9dh6eq",1,"continue","",59895.3000000477,59890.4,59895.3000000477,59895.3000000477,59890.4,59895.3000000477,1,59895.3000000477,0,0,NA,"Click To Continue","Continue Button",23,"object-48","BIQ",NA,"SUPPRF06891"
"3",1702912399104,"18/12/2023 15:13:19",1702912399104,0,"18/12/2023 15:13:19",157680,2,"task-gjqt",NA,33758004,9985185,NA,"complete",NA,"6580606ca34037ddf9e4da74","computer","Desktop or Laptop","Windows 10","Chrome 120.0.0.0","1366x768","1366x641",NA,NA,0,"BIQ (Charlotte)",3,"EFDGCHBIAJ","Passed AC2",NA,"Spreadsheet1",1,"BIQ","Screen 1","9dh6eq",1,"response","4",35010.9,59890.4,59898.2000000238,35010.9,59890.4,59898.2000000238,1,35010.9,24887.3000000238,0,NA,"Rating Scale","Rating Scale",3,"object-5","BIQ",NA,"SUPPRF06891"
"4",1702912399105,"18/12/2023 15:13:19",1702912399105,0,"18/12/2023 15:13:19",157680,2,"task-gjqt",NA,33758004,9985185,NA,"complete",NA,"6580606ca34037ddf9e4da74","computer","Desktop or Laptop","Windows 10","Chrome 120.0.0.0","1366x768","1366x641",NA,NA,0,"BIQ (Charlotte)",3,"EFDGCHBIAJ","Passed AC2",NA,"Spreadsheet1",1,"BIQ","Screen 1","9dh6eq",1,"response","4",46142.5,59890.4,59898.9000000119,46142.5,59890.4,59898.9000000119,1,46142.5,13756.4000000119,0,NA,"Rating Scale","Rating Scale",10,"object-18","BIQ",NA,"SUPPRF06891"
"5",1702912399106,"18/12/2023 15:13:19",1702912399106,0,"18/12/2023 15:13:19",157680,2,"task-gjqt",NA,33758004,9985185,NA,"complete",NA,"6580606ca34037ddf9e4da74","computer","Desktop or Laptop","Windows 10","Chrome 120.0.0.0","1366x768","1366x641",NA,NA,0,"BIQ (Charlotte)",3,"EFDGCHBIAJ","Passed AC2",NA,"Spreadsheet1",1,"BIQ","Screen 1","9dh6eq",1,"response","2",56574.1,59890.4,59899.3000000477,56574.1,59890.4,59899.3000000477,1,56574.1,3325.20000004768,0,NA,"Rating Scale","Rating Scale",17,"object-80","BIQ",NA,"SUPPRF06891"
"6",1702912439114,"18/12/2023 15:13:59",1702912439114,0,"18/12/2023 15:13:59",157680,2,"task-gjqt",NA,33758004,9985185,NA,"complete",NA,"6580606ca34037ddf9e4da74","computer","Desktop or Laptop","Windows 10","Chrome 120.0.0.0","1366x768","1366x641",NA,NA,0,"BIQ (Charlotte)",3,"EFDGCHBIAJ","Passed AC2",NA,"Spreadsheet1",1,"BIQ","Screen 2","o21mwi",2,"continue","",40017.6000000358,40010,40017.6000000358,40017.6000000358,40010,40017.6000000358,1,40017.6000000358,0,0,NA,"Click To Continue","Continue Button",22,"object-50","BIQ",NA,"SUPPRF06891"
"7",1702912439116,"18/12/2023 15:13:59",1702912439116,0,"18/12/2023 15:13:59",157680,2,"task-gjqt",NA,33758004,9985185,NA,"complete",NA,"6580606ca34037ddf9e4da74","computer","Desktop or Laptop","Windows 10","Chrome 120.0.0.0","1366x768","1366x641",NA,NA,0,"BIQ (Charlotte)",3,"EFDGCHBIAJ","Passed AC2",NA,"Spreadsheet1",1,"BIQ","Screen 2","o21mwi",2,"response","6",5515.59999999999,40010,40019.9000000477,5515.59999999999,40010,40019.9000000477,1,5515.59999999999,34504.3000000477,0,NA,"Rating Scale","Rating Scale",2,"object-259","BIQ",NA,"SUPPRF06891"
"8",1702912439117,"18/12/2023 15:13:59",1702912439117,0,"18/12/2023 15:13:59",157680,2,"task-gjqt",NA,33758004,9985185,NA,"complete",NA,"6580606ca34037ddf9e4da74","computer","Desktop or Laptop","Windows 10","Chrome 120.0.0.0","1366x768","1366x641",NA,NA,0,"BIQ (Charlotte)",3,"EFDGCHBIAJ","Passed AC2",NA,"Spreadsheet1",1,"BIQ","Screen 2","o21mwi",2,"response","4",27295.4,40010,40020.6000000358,27295.4,40010,40020.6000000358,1,27295.4,12725.2000000358,0,NA,"Rating Scale","Rating Scale",9,"object-36","BIQ",NA,"SUPPRF06891"
"9",1702912439117,"18/12/2023 15:13:59",1702912439117,0,"18/12/2023 15:13:59",157680,2,"task-gjqt",NA,33758004,9985185,NA,"complete",NA,"6580606ca34037ddf9e4da74","computer","Desktop or Laptop","Windows 10","Chrome 120.0.0.0","1366x768","1366x641",NA,NA,0,"BIQ (Charlotte)",3,"EFDGCHBIAJ","Passed AC2",NA,"Spreadsheet1",1,"BIQ","Screen 2","o21mwi",2,"response","6",38810.1,40010,40021.1000000358,38810.1,40010,40021.1000000358,1,38810.1,1211.00000003577,0,NA,"Rating Scale","Rating Scale",16,"object-86","BIQ",NA,"SUPPRF06891"
"10",1702912475286,"18/12/2023 15:14:35",1702912475286,0,"18/12/2023 15:14:35",157680,2,"task-gjqt",NA,33758004,9985185,NA,"complete",NA,"6580606ca34037ddf9e4da74","computer","Desktop or Laptop","Windows 10","Chrome 120.0.0.0","1366x768","1366x641",NA,NA,0,"BIQ (Charlotte)",3,"EFDGCHBIAJ","Passed AC2",NA,"Spreadsheet1",1,"BIQ","Screen 3","iz3the",3,"continue","",36179.4000000477,36177.5,36179.4000000477,36179.4000000477,36177.5,36179.4000000477,1,36179.4000000477,0,0,NA,"Click To Continue","Continue Button",22,"object-73","BIQ",NA,"SUPPRF06891"
"11",1702912475288,"18/12/2023 15:14:35",1702912475288,0,"18/12/2023 15:14:35",157680,2,"task-gjqt",NA,33758004,9985185,NA,"complete",NA,"6580606ca34037ddf9e4da74","computer","Desktop or Laptop","Windows 10","Chrome 120.0.0.0","1366x768","1366x641",NA,NA,0,"BIQ (Charlotte)",3,"EFDGCHBIAJ","Passed AC2",NA,"Spreadsheet1",1,"BIQ","Screen 3","iz3the",3,"response","2",13431.1,36177.5,36181.5000000119,13431.1,36177.5,36181.5000000119,1,13431.1,22750.4000000119,0,NA,"Rating Scale","Rating Scale",2,"object-53","BIQ",NA,"SUPPRF06891"
"12",1702912475288,"18/12/2023 15:14:35",1702912475288,0,"18/12/2023 15:14:35",157680,2,"task-gjqt",NA,33758004,9985185,NA,"complete",NA,"6580606ca34037ddf9e4da74","computer","Desktop or Laptop","Windows 10","Chrome 120.0.0.0","1366x768","1366x641",NA,NA,0,"BIQ (Charlotte)",3,"EFDGCHBIAJ","Passed AC2",NA,"Spreadsheet1",1,"BIQ","Screen 3","iz3the",3,"response","5",23862.8,36177.5,36182.0000000119,23862.8,36177.5,36182.0000000119,1,23862.8,12319.2000000119,0,NA,"Rating Scale","Rating Scale",9,"object-60","BIQ",NA,"SUPPRF06891"
"13",1702912475289,"18/12/2023 15:14:35",1702912475289,0,"18/12/2023 15:14:35",157680,2,"task-gjqt",NA,33758004,9985185,NA,"complete",NA,"6580606ca34037ddf9e4da74","computer","Desktop or Laptop","Windows 10","Chrome 120.0.0.0","1366x768","1366x641",NA,NA,0,"BIQ (Charlotte)",3,"EFDGCHBIAJ","Passed AC2",NA,"Spreadsheet1",1,"BIQ","Screen 3","iz3the",3,"response","6",35177.6,36177.5,36182.6000000358,35177.6,36177.5,36182.6000000358,1,35177.6,1005.00000003577,0,NA,"Rating Scale","Rating Scale",16,"object-67","BIQ",NA,"SUPPRF06891"
"14",1702912475293,"18/12/2023 15:14:35",1702912475293,0,"18/12/2023 15:14:35",157680,2,"task-gjqt",NA,33758004,9985185,NA,"complete",NA,"6580606ca34037ddf9e4da74","computer","Desktop or Laptop","Windows 10","Chrome 120.0.0.0","1366x768","1366x641",NA,NA,0,"BIQ (Charlotte)",3,"EFDGCHBIAJ","Passed AC2",NA,"Spreadsheet1",NA,"","","",NA,"5","END",NA,NA,NA,NA,NA,NA,0,NA,NA,NA,NA,"","",NA,"","",NA,"SUPPRF06891"
"1",1702912583262,"18/12/2023 15:16:23",1702912583262,0,"18/12/2023 15:16:23",157680,2,"task-gjqt",NA,33758136,9985241,NA,"complete",NA,"6580619847284eff914f8da1","computer","Desktop or Laptop","Windows 10","Chrome 120.0.0.0","1280x720","1280x551",NA,NA,0,"BIQ (Charlotte)",3,"GHFIEJDACB","Passed AC2",NA,"Spreadsheet1",NA,"","","",NA,"5","BEGIN",NA,NA,NA,NA,NA,NA,0,NA,NA,NA,NA,"","",NA,"","",NA,"SUPPRF35199"
"2",1702912626625,"18/12/2023 15:17:06",1702912626625,0,"18/12/2023 15:17:06",157680,2,"task-gjqt",NA,33758136,9985241,NA,"complete",NA,"6580619847284eff914f8da1","computer","Desktop or Laptop","Windows 10","Chrome 120.0.0.0","1280x720","1280x551",NA,NA,0,"BIQ (Charlotte)",3,"GHFIEJDACB","Passed AC2",NA,"Spreadsheet1",1,"BIQ","Screen 1","9dh6eq",1,"continue","",43385.000000006,43380.5,43385.000000006,43385.000000006,43380.5,43385.000000006,1,43385.000000006,0,0,NA,"Click To Continue","Continue Button",23,"object-48","BIQ",NA,"SUPPRF35199"
"3",1702912626628,"18/12/2023 15:17:06",1702912626628,0,"18/12/2023 15:17:06",157680,2,"task-gjqt",NA,33758136,9985241,NA,"complete",NA,"6580619847284eff914f8da1","computer","Desktop or Laptop","Windows 10","Chrome 120.0.0.0","1280x720","1280x551",NA,NA,0,"BIQ (Charlotte)",3,"GHFIEJDACB","Passed AC2",NA,"Spreadsheet1",1,"BIQ","Screen 1","9dh6eq",1,"response","2",34564.5,43380.5,43388.2000000238,34564.5,43380.5,43388.2000000238,1,34564.5,8823.70000002384,0,NA,"Rating Scale","Rating Scale",3,"object-5","BIQ",NA,"SUPPRF35199"
"4",1702912626628,"18/12/2023 15:17:06",1702912626628,0,"18/12/2023 15:17:06",157680,2,"task-gjqt",NA,33758136,9985241,NA,"complete",NA,"6580619847284eff914f8da1","computer","Desktop or Laptop","Windows 10","Chrome 120.0.0.0","1280x720","1280x551",NA,NA,0,"BIQ (Charlotte)",3,"GHFIEJDACB","Passed AC2",NA,"Spreadsheet1",1,"BIQ","Screen 1","9dh6eq",1,"response","4",21032.3,43380.5,43388.500000006,21032.3,43380.5,43388.500000006,1,21032.3,22356.200000006,0,NA,"Rating Scale","Rating Scale",10,"object-18","BIQ",NA,"SUPPRF35199"
"5",1702912626628,"18/12/2023 15:17:06",1702912626628,0,"18/12/2023 15:17:06",157680,2,"task-gjqt",NA,33758136,9985241,NA,"complete",NA,"6580619847284eff914f8da1","computer","Desktop or Laptop","Windows 10","Chrome 120.0.0.0","1280x720","1280x551",NA,NA,0,"BIQ (Charlotte)",3,"GHFIEJDACB","Passed AC2",NA,"Spreadsheet1",1,"BIQ","Screen 1","9dh6eq",1,"response","5",40980.7,43380.5,43388.9000000119,40980.7,43380.5,43388.9000000119,1,40980.7,2408.20000001192,0,NA,"Rating Scale","Rating Scale",17,"object-80","BIQ",NA,"SUPPRF35199"
"6",1702912647168,"18/12/2023 15:17:27",1702912647168,0,"18/12/2023 15:17:27",157680,2,"task-gjqt",NA,33758136,9985241,NA,"complete",NA,"6580619847284eff914f8da1","computer","Desktop or Laptop","Windows 10","Chrome 120.0.0.0","1280x720","1280x551",NA,NA,0,"BIQ (Charlotte)",3,"GHFIEJDACB","Passed AC2",NA,"Spreadsheet1",1,"BIQ","Screen 2","o21mwi",2,"continue","",20548.1,20532.2,20548.1,20548.1,20532.2,20548.1,1,20548.1,0,0,NA,"Click To Continue","Continue Button",22,"object-50","BIQ",NA,"SUPPRF35199"
"7",1702912647171,"18/12/2023 15:17:27",1702912647171,0,"18/12/2023 15:17:27",157680,2,"task-gjqt",NA,33758136,9985241,NA,"complete",NA,"6580619847284eff914f8da1","computer","Desktop or Laptop","Windows 10","Chrome 120.0.0.0","1280x720","1280x551",NA,NA,0,"BIQ (Charlotte)",3,"GHFIEJDACB","Passed AC2",NA,"Spreadsheet1",1,"BIQ","Screen 2","o21mwi",2,"response","5",4366.6,20532.2,20549.2,4366.6,20532.2,20549.2,1,4366.6,16182.6,0,NA,"Rating Scale","Rating Scale",2,"object-259","BIQ",NA,"SUPPRF35199"
"8",1702912647172,"18/12/2023 15:17:27",1702912647172,0,"18/12/2023 15:17:27",157680,2,"task-gjqt",NA,33758136,9985241,NA,"complete",NA,"6580619847284eff914f8da1","computer","Desktop or Laptop","Windows 10","Chrome 120.0.0.0","1280x720","1280x551",NA,NA,0,"BIQ (Charlotte)",3,"GHFIEJDACB","Passed AC2",NA,"Spreadsheet1",1,"BIQ","Screen 2","o21mwi",2,"response","4",19715.5,20532.2,20549.2,19715.5,20532.2,20549.2,1,19715.5,833.699999999997,0,NA,"Rating Scale","Rating Scale",9,"object-36","BIQ",NA,"SUPPRF35199"
"9",1702912647172,"18/12/2023 15:17:27",1702912647172,0,"18/12/2023 15:17:27",157680,2,"task-gjqt",NA,33758136,9985241,NA,"complete",NA,"6580619847284eff914f8da1","computer","Desktop or Laptop","Windows 10","Chrome 120.0.0.0","1280x720","1280x551",NA,NA,0,"BIQ (Charlotte)",3,"GHFIEJDACB","Passed AC2",NA,"Spreadsheet1",1,"BIQ","Screen 2","o21mwi",2,"response","6",10132.9,20532.2,20549.2,10132.9,20532.2,20549.2,1,10132.9,10416.3,0,NA,"Rating Scale","Rating Scale",16,"object-86","BIQ",NA,"SUPPRF35199"
"10",1702912657602,"18/12/2023 15:17:37",1702912657602,0,"18/12/2023 15:17:37",157680,2,"task-gjqt",NA,33758136,9985241,NA,"complete",NA,"6580619847284eff914f8da1","computer","Desktop or Laptop","Windows 10","Chrome 120.0.0.0","1280x720","1280x551",NA,NA,0,"BIQ (Charlotte)",3,"GHFIEJDACB","Passed AC2",NA,"Spreadsheet1",1,"BIQ","Screen 3","iz3the",3,"continue","",10450.300000006,10449,10450.300000006,10450.300000006,10449,10450.300000006,1,10450.300000006,0,0,NA,"Click To Continue","Continue Button",22,"object-73","BIQ",NA,"SUPPRF35199"
"11",1702912657605,"18/12/2023 15:17:37",1702912657605,0,"18/12/2023 15:17:37",157680,2,"task-gjqt",NA,33758136,9985241,NA,"complete",NA,"6580619847284eff914f8da1","computer","Desktop or Laptop","Windows 10","Chrome 120.0.0.0","1280x720","1280x551",NA,NA,0,"BIQ (Charlotte)",3,"GHFIEJDACB","Passed AC2",NA,"Spreadsheet1",1,"BIQ","Screen 3","iz3the",3,"response","4",5433.00000000001,10449,10452.800000006,5433.00000000001,10449,10452.800000006,1,5433.00000000001,5019.80000000595,0,NA,"Rating Scale","Rating Scale",2,"object-53","BIQ",NA,"SUPPRF35199"
"12",1702912657605,"18/12/2023 15:17:37",1702912657605,0,"18/12/2023 15:17:37",157680,2,"task-gjqt",NA,33758136,9985241,NA,"complete",NA,"6580619847284eff914f8da1","computer","Desktop or Laptop","Windows 10","Chrome 120.0.0.0","1280x720","1280x551",NA,NA,0,"BIQ (Charlotte)",3,"GHFIEJDACB","Passed AC2",NA,"Spreadsheet1",1,"BIQ","Screen 3","iz3the",3,"response","3",7732.8,10449,10453.300000006,7732.8,10449,10453.300000006,1,7732.8,2720.50000000597,0,NA,"Rating Scale","Rating Scale",9,"object-60","BIQ",NA,"SUPPRF35199"
"13",1702912657606,"18/12/2023 15:17:37",1702912657606,0,"18/12/2023 15:17:37",157680,2,"task-gjqt",NA,33758136,9985241,NA,"complete",NA,"6580619847284eff914f8da1","computer","Desktop or Laptop","Windows 10","Chrome 120.0.0.0","1280x720","1280x551",NA,NA,0,"BIQ (Charlotte)",3,"GHFIEJDACB","Passed AC2",NA,"Spreadsheet1",1,"BIQ","Screen 3","iz3the",3,"response","4",9666.4,10449,10453.7000000119,9666.4,10449,10453.7000000119,1,9666.4,787.300000011921,0,NA,"Rating Scale","Rating Scale",16,"object-67","BIQ",NA,"SUPPRF35199"
"14",1702912657609,"18/12/2023 15:17:37",1702912657609,0,"18/12/2023 15:17:37",157680,2,"task-gjqt",NA,33758136,9985241,NA,"complete",NA,"6580619847284eff914f8da1","computer","Desktop or Laptop","Windows 10","Chrome 120.0.0.0","1280x720","1280x551",NA,NA,0,"BIQ (Charlotte)",3,"GHFIEJDACB","Passed AC2",NA,"Spreadsheet1",NA,"","","",NA,"5","END",NA,NA,NA,NA,NA,NA,0,NA,NA,NA,NA,"","",NA,"","",NA,"SUPPRF35199"
"1",1702913681793,"18/12/2023 15:34:41",1702913681793,0,"18/12/2023 15:34:41",157680,2,"task-gjqt",NA,33758531,9985309,NA,"complete",NA,"658062fa175bf5b6b8e3ae15","computer","Desktop or Laptop","Windows 10","Chrome 120.0.0.0","1536x864","1536x695",NA,NA,0,"BIQ (Charlotte)",3,"HIGJFAEBDC","Passed AC2",NA,"Spreadsheet1",NA,"","","",NA,"5","BEGIN",NA,NA,NA,NA,NA,NA,0,NA,NA,NA,NA,"","",NA,"","",NA,"SUPPRF45434"
"2",1702913818120,"18/12/2023 15:36:58",1702913818120,0,"18/12/2023 15:36:58",157680,2,"task-gjqt",NA,33758531,9985309,NA,"complete",NA,"658062fa175bf5b6b8e3ae15","computer","Desktop or Laptop","Windows 10","Chrome 120.0.0.0","1536x864","1536x695",NA,NA,0,"BIQ (Charlotte)",3,"HIGJFAEBDC","Passed AC2",NA,"Spreadsheet1",1,"BIQ","Screen 1","9dh6eq",1,"continue","",136354.8,136338.8,136354.8,136354.8,136338.8,136354.8,1,136354.8,0,0,NA,"Click To Continue","Continue Button",23,"object-48","BIQ",NA,"SUPPRF45434"
"3",1702913818125,"18/12/2023 15:36:58",1702913818125,0,"18/12/2023 15:36:58",157680,2,"task-gjqt",NA,33758531,9985309,NA,"complete",NA,"658062fa175bf5b6b8e3ae15","computer","Desktop or Laptop","Windows 10","Chrome 120.0.0.0","1536x864","1536x695",NA,NA,0,"BIQ (Charlotte)",3,"HIGJFAEBDC","Passed AC2",NA,"Spreadsheet1",1,"BIQ","Screen 1","9dh6eq",1,"response","7",119538.1,136338.8,136354.8,119538.1,136338.8,136354.8,1,119538.1,16816.7,0,NA,"Rating Scale","Rating Scale",3,"object-5","BIQ",NA,"SUPPRF45434"
"4",1702913818126,"18/12/2023 15:36:58",1702913818126,0,"18/12/2023 15:36:58",157680,2,"task-gjqt",NA,33758531,9985309,NA,"complete",NA,"658062fa175bf5b6b8e3ae15","computer","Desktop or Laptop","Windows 10","Chrome 120.0.0.0","1536x864","1536x695",NA,NA,0,"BIQ (Charlotte)",3,"HIGJFAEBDC","Passed AC2",NA,"Spreadsheet1",1,"BIQ","Screen 1","9dh6eq",1,"response","8",127888.5,136338.8,136354.8,127888.5,136338.8,136354.8,1,127888.5,8466.30000000002,0,NA,"Rating Scale","Rating Scale",10,"object-18","BIQ",NA,"SUPPRF45434"
"5",1702913818127,"18/12/2023 15:36:58",1702913818127,0,"18/12/2023 15:36:58",157680,2,"task-gjqt",NA,33758531,9985309,NA,"complete",NA,"658062fa175bf5b6b8e3ae15","computer","Desktop or Laptop","Windows 10","Chrome 120.0.0.0","1536x864","1536x695",NA,NA,0,"BIQ (Charlotte)",3,"HIGJFAEBDC","Passed AC2",NA,"Spreadsheet1",1,"BIQ","Screen 1","9dh6eq",1,"response","0",135372.9,136338.8,136354.8,135372.9,136338.8,136354.8,1,135372.9,981.900000000023,0,NA,"Rating Scale","Rating Scale",17,"object-80","BIQ",NA,"SUPPRF45434"
"6",1702913884258,"18/12/2023 15:38:04",1702913884258,0,"18/12/2023 15:38:04",157680,2,"task-gjqt",NA,33758531,9985309,NA,"complete",NA,"658062fa175bf5b6b8e3ae15","computer","Desktop or Laptop","Windows 10","Chrome 120.0.0.0","1536x864","1536x695",NA,NA,0,"BIQ (Charlotte)",3,"HIGJFAEBDC","Passed AC2",NA,"Spreadsheet1",1,"BIQ","Screen 2","o21mwi",2,"continue","",66155.9999999881,66153,66155.9999999881,66155.9999999881,66153,66155.9999999881,1,66155.9999999881,0,0,NA,"Click To Continue","Continue Button",22,"object-50","BIQ",NA,"SUPPRF45434"
"7",1702913884264,"18/12/2023 15:38:04",1702913884264,0,"18/12/2023 15:38:04",157680,2,"task-gjqt",NA,33758531,9985309,NA,"complete",NA,"658062fa175bf5b6b8e3ae15","computer","Desktop or Laptop","Windows 10","Chrome 120.0.0.0","1536x864","1536x695",NA,NA,0,"BIQ (Charlotte)",3,"HIGJFAEBDC","Passed AC2",NA,"Spreadsheet1",1,"BIQ","Screen 2","o21mwi",2,"response","7",5833.69999999998,66153,66161.6999999761,5833.69999999998,66153,66161.6999999761,1,5833.69999999998,60327.9999999762,0,NA,"Rating Scale","Rating Scale",2,"object-259","BIQ",NA,"SUPPRF45434"
"8",1702913884265,"18/12/2023 15:38:04",1702913884265,0,"18/12/2023 15:38:04",157680,2,"task-gjqt",NA,33758531,9985309,NA,"complete",NA,"658062fa175bf5b6b8e3ae15","computer","Desktop or Laptop","Windows 10","Chrome 120.0.0.0","1536x864","1536x695",NA,NA,0,"BIQ (Charlotte)",3,"HIGJFAEBDC","Passed AC2",NA,"Spreadsheet1",1,"BIQ","Screen 2","o21mwi",2,"response","0",58952.7,66153,66163.1000000119,58952.7,66153,66163.1000000119,1,58952.7,7210.40000001193,0,NA,"Rating Scale","Rating Scale",9,"object-36","BIQ",NA,"SUPPRF45434"
"9",1702913884267,"18/12/2023 15:38:04",1702913884267,0,"18/12/2023 15:38:04",157680,2,"task-gjqt",NA,33758531,9985309,NA,"complete",NA,"658062fa175bf5b6b8e3ae15","computer","Desktop or Laptop","Windows 10","Chrome 120.0.0.0","1536x864","1536x695",NA,NA,0,"BIQ (Charlotte)",3,"HIGJFAEBDC","Passed AC2",NA,"Spreadsheet1",1,"BIQ","Screen 2","o21mwi",2,"response","0",65336.6,66153,66164.1999999761,65336.6,66153,66164.1999999761,1,65336.6,827.59999997617,0,NA,"Rating Scale","Rating Scale",16,"object-86","BIQ",NA,"SUPPRF45434"
"10",1702914057025,"18/12/2023 15:40:57",1702914057025,0,"18/12/2023 15:40:57",157680,2,"task-gjqt",NA,33758531,9985309,NA,"complete",NA,"658062fa175bf5b6b8e3ae15","computer","Desktop or Laptop","Windows 10","Chrome 120.0.0.0","1536x864","1536x695",NA,NA,0,"BIQ (Charlotte)",3,"HIGJFAEBDC","Passed AC2",NA,"Spreadsheet1",1,"BIQ","Screen 3","iz3the",3,"continue","",172769.3,172757.6,172769.3,172769.3,172757.6,172769.3,1,172769.3,0,0,NA,"Click To Continue","Continue Button",22,"object-73","BIQ",NA,"SUPPRF45434"
"11",1702914057030,"18/12/2023 15:40:57",1702914057030,0,"18/12/2023 15:40:57",157680,2,"task-gjqt",NA,33758531,9985309,NA,"complete",NA,"658062fa175bf5b6b8e3ae15","computer","Desktop or Laptop","Windows 10","Chrome 120.0.0.0","1536x864","1536x695",NA,NA,0,"BIQ (Charlotte)",3,"HIGJFAEBDC","Passed AC2",NA,"Spreadsheet1",1,"BIQ","Screen 3","iz3the",3,"response","0",160024.1,172757.6,172774.3,160024.1,172757.6,172774.3,1,160024.1,12750.2,0,NA,"Rating Scale","Rating Scale",2,"object-53","BIQ",NA,"SUPPRF45434"
"12",1702914057032,"18/12/2023 15:40:57",1702914057032,0,"18/12/2023 15:40:57",157680,2,"task-gjqt",NA,33758531,9985309,NA,"complete",NA,"658062fa175bf5b6b8e3ae15","computer","Desktop or Laptop","Windows 10","Chrome 120.0.0.0","1536x864","1536x695",NA,NA,0,"BIQ (Charlotte)",3,"HIGJFAEBDC","Passed AC2",NA,"Spreadsheet1",1,"BIQ","Screen 3","iz3the",3,"response","1",167891.3,172757.6,172774.3,167891.3,172757.6,172774.3,1,167891.3,4883,0,NA,"Rating Scale","Rating Scale",9,"object-60","BIQ",NA,"SUPPRF45434"
"13",1702914057033,"18/12/2023 15:40:57",1702914057033,0,"18/12/2023 15:40:57",157680,2,"task-gjqt",NA,33758531,9985309,NA,"complete",NA,"658062fa175bf5b6b8e3ae15","computer","Desktop or Laptop","Windows 10","Chrome 120.0.0.0","1536x864","1536x695",NA,NA,0,"BIQ (Charlotte)",3,"HIGJFAEBDC","Passed AC2",NA,"Spreadsheet1",1,"BIQ","Screen 3","iz3the",3,"response","1",170974.1,172757.6,172774.3,170974.1,172757.6,172774.3,1,170974.1,1800.20000000001,0,NA,"Rating Scale","Rating Scale",16,"object-67","BIQ",NA,"SUPPRF45434"
"14",1702914057042,"18/12/2023 15:40:57",1702914057042,0,"18/12/2023 15:40:57",157680,2,"task-gjqt",NA,33758531,9985309,NA,"complete",NA,"658062fa175bf5b6b8e3ae15","computer","Desktop or Laptop","Windows 10","Chrome 120.0.0.0","1536x864","1536x695",NA,NA,0,"BIQ (Charlotte)",3,"HIGJFAEBDC","Passed AC2",NA,"Spreadsheet1",NA,"","","",NA,"5","END",NA,NA,NA,NA,NA,NA,0,NA,NA,NA,NA,"","",NA,"","",NA,"SUPPRF45434"
"1",1702914270468,"18/12/2023 15:44:30",1702914270468,0,"18/12/2023 15:44:30",157680,2,"task-gjqt",NA,33758739,9985406,NA,"complete",NA,"658066e6dddf50355a4936f2","computer","Desktop or Laptop","Windows 10","Chrome 120.0.0.0","1920x1080","1920x911",NA,NA,0,"BIQ (Charlotte)",3,"JAIBHCGDFE","Passed AC2",NA,"Spreadsheet1",NA,"","","",NA,"5","BEGIN",NA,NA,NA,NA,NA,NA,0,NA,NA,NA,NA,"","",NA,"","",NA,"SUPPRF83664"
"2",1702914299326,"18/12/2023 15:44:59",1702914299326,0,"18/12/2023 15:44:59",157680,2,"task-gjqt",NA,33758739,9985406,NA,"complete",NA,"658066e6dddf50355a4936f2","computer","Desktop or Laptop","Windows 10","Chrome 120.0.0.0","1920x1080","1920x911",NA,NA,0,"BIQ (Charlotte)",3,"JAIBHCGDFE","Passed AC2",NA,"Spreadsheet1",1,"BIQ","Screen 1","9dh6eq",1,"continue","",28864.4000000179,28849.7,28864.4000000179,28864.4000000179,28849.7,28864.4000000179,1,28864.4000000179,0,0,NA,"Click To Continue","Continue Button",23,"object-48","BIQ",NA,"SUPPRF83664"
"3",1702914299327,"18/12/2023 15:44:59",1702914299327,0,"18/12/2023 15:44:59",157680,2,"task-gjqt",NA,33758739,9985406,NA,"complete",NA,"658066e6dddf50355a4936f2","computer","Desktop or Laptop","Windows 10","Chrome 120.0.0.0","1920x1080","1920x911",NA,NA,0,"BIQ (Charlotte)",3,"JAIBHCGDFE","Passed AC2",NA,"Spreadsheet1",1,"BIQ","Screen 1","9dh6eq",1,"response","6",15682.9,28849.7,28866.2,15682.9,28849.7,28866.2,1,15682.9,13183.3,0,NA,"Rating Scale","Rating Scale",3,"object-5","BIQ",NA,"SUPPRF83664"
"4",1702914299328,"18/12/2023 15:44:59",1702914299328,0,"18/12/2023 15:44:59",157680,2,"task-gjqt",NA,33758739,9985406,NA,"complete",NA,"658066e6dddf50355a4936f2","computer","Desktop or Laptop","Windows 10","Chrome 120.0.0.0","1920x1080","1920x911",NA,NA,0,"BIQ (Charlotte)",3,"JAIBHCGDFE","Passed AC2",NA,"Spreadsheet1",1,"BIQ","Screen 1","9dh6eq",1,"response","6",23399.5,28849.7,28866.3,23399.5,28849.7,28866.3,1,23399.5,5466.8,0,NA,"Rating Scale","Rating Scale",10,"object-18","BIQ",NA,"SUPPRF83664"
"5",1702914299328,"18/12/2023 15:44:59",1702914299328,0,"18/12/2023 15:44:59",157680,2,"task-gjqt",NA,33758739,9985406,NA,"complete",NA,"658066e6dddf50355a4936f2","computer","Desktop or Laptop","Windows 10","Chrome 120.0.0.0","1920x1080","1920x911",NA,NA,0,"BIQ (Charlotte)",3,"JAIBHCGDFE","Passed AC2",NA,"Spreadsheet1",1,"BIQ","Screen 1","9dh6eq",1,"response","0",27616.2,28849.7,28866.3,27616.2,28849.7,28866.3,1,27616.2,1250.1,0,NA,"Rating Scale","Rating Scale",17,"object-80","BIQ",NA,"SUPPRF83664"
"6",1702914325062,"18/12/2023 15:45:25",1702914325062,0,"18/12/2023 15:45:25",157680,2,"task-gjqt",NA,33758739,9985406,NA,"complete",NA,"658066e6dddf50355a4936f2","computer","Desktop or Laptop","Windows 10","Chrome 120.0.0.0","1920x1080","1920x911",NA,NA,0,"BIQ (Charlotte)",3,"JAIBHCGDFE","Passed AC2",NA,"Spreadsheet1",1,"BIQ","Screen 2","o21mwi",2,"continue","",25751,25749.6,25751,25751,25749.6,25751,1,25751,0,0,NA,"Click To Continue","Continue Button",22,"object-50","BIQ",NA,"SUPPRF83664"
"7",1702914325064,"18/12/2023 15:45:25",1702914325064,0,"18/12/2023 15:45:25",157680,2,"task-gjqt",NA,33758739,9985406,NA,"complete",NA,"658066e6dddf50355a4936f2","computer","Desktop or Laptop","Windows 10","Chrome 120.0.0.0","1920x1080","1920x911",NA,NA,0,"BIQ (Charlotte)",3,"JAIBHCGDFE","Passed AC2",NA,"Spreadsheet1",1,"BIQ","Screen 2","o21mwi",2,"response","8",9400,25749.6,25752.7000000179,9400,25749.6,25752.7000000179,1,9400,16352.7000000179,0,NA,"Rating Scale","Rating Scale",2,"object-259","BIQ",NA,"SUPPRF83664"
"8",1702914325064,"18/12/2023 15:45:25",1702914325064,0,"18/12/2023 15:45:25",157680,2,"task-gjqt",NA,33758739,9985406,NA,"complete",NA,"658066e6dddf50355a4936f2","computer","Desktop or Laptop","Windows 10","Chrome 120.0.0.0","1920x1080","1920x911",NA,NA,0,"BIQ (Charlotte)",3,"JAIBHCGDFE","Passed AC2",NA,"Spreadsheet1",1,"BIQ","Screen 2","o21mwi",2,"response","1",15466.7,25749.6,25753,15466.7,25749.6,25753,1,15466.7,10286.3,0,NA,"Rating Scale","Rating Scale",9,"object-36","BIQ",NA,"SUPPRF83664"
"9",1702914325064,"18/12/2023 15:45:25",1702914325064,0,"18/12/2023 15:45:25",157680,2,"task-gjqt",NA,33758739,9985406,NA,"complete",NA,"658066e6dddf50355a4936f2","computer","Desktop or Laptop","Windows 10","Chrome 120.0.0.0","1920x1080","1920x911",NA,NA,0,"BIQ (Charlotte)",3,"JAIBHCGDFE","Passed AC2",NA,"Spreadsheet1",1,"BIQ","Screen 2","o21mwi",2,"response","0",24083.2,25749.6,25753.3000000119,24083.2,25749.6,25753.3000000119,1,24083.2,1670.10000001192,0,NA,"Rating Scale","Rating Scale",16,"object-86","BIQ",NA,"SUPPRF83664"
"10",1702914341959,"18/12/2023 15:45:41",1702914341959,0,"18/12/2023 15:45:41",157680,2,"task-gjqt",NA,33758739,9985406,NA,"complete",NA,"658066e6dddf50355a4936f2","computer","Desktop or Laptop","Windows 10","Chrome 120.0.0.0","1920x1080","1920x911",NA,NA,0,"BIQ (Charlotte)",3,"JAIBHCGDFE","Passed AC2",NA,"Spreadsheet1",1,"BIQ","Screen 3","iz3the",3,"continue","",16898.4,16883.3,16898.4,16898.4,16883.3,16898.4,1,16898.4,0,0,NA,"Click To Continue","Continue Button",22,"object-73","BIQ",NA,"SUPPRF83664"
"11",1702914341961,"18/12/2023 15:45:41",1702914341961,0,"18/12/2023 15:45:41",157680,2,"task-gjqt",NA,33758739,9985406,NA,"complete",NA,"658066e6dddf50355a4936f2","computer","Desktop or Laptop","Windows 10","Chrome 120.0.0.0","1920x1080","1920x911",NA,NA,0,"BIQ (Charlotte)",3,"JAIBHCGDFE","Passed AC2",NA,"Spreadsheet1",1,"BIQ","Screen 3","iz3the",3,"response","0",5383.6,16883.3,16899.999999994,5383.6,16883.3,16899.999999994,1,5383.6,11516.399999994,0,NA,"Rating Scale","Rating Scale",2,"object-53","BIQ",NA,"SUPPRF83664"
"12",1702914341961,"18/12/2023 15:45:41",1702914341961,0,"18/12/2023 15:45:41",157680,2,"task-gjqt",NA,33758739,9985406,NA,"complete",NA,"658066e6dddf50355a4936f2","computer","Desktop or Laptop","Windows 10","Chrome 120.0.0.0","1920x1080","1920x911",NA,NA,0,"BIQ (Charlotte)",3,"JAIBHCGDFE","Passed AC2",NA,"Spreadsheet1",1,"BIQ","Screen 3","iz3the",3,"response","0",7866.8,16883.3,16900,7866.8,16883.3,16900,1,7866.8,9033.19999999999,0,NA,"Rating Scale","Rating Scale",9,"object-60","BIQ",NA,"SUPPRF83664"
"13",1702914341961,"18/12/2023 15:45:41",1702914341961,0,"18/12/2023 15:45:41",157680,2,"task-gjqt",NA,33758739,9985406,NA,"complete",NA,"658066e6dddf50355a4936f2","computer","Desktop or Laptop","Windows 10","Chrome 120.0.0.0","1920x1080","1920x911",NA,NA,0,"BIQ (Charlotte)",3,"JAIBHCGDFE","Passed AC2",NA,"Spreadsheet1",1,"BIQ","Screen 3","iz3the",3,"response","0",16033.4,16883.3,16900,16033.4,16883.3,16900,1,16033.4,866.599999999991,0,NA,"Rating Scale","Rating Scale",16,"object-67","BIQ",NA,"SUPPRF83664"
"14",1702914341964,"18/12/2023 15:45:41",1702914341964,0,"18/12/2023 15:45:41",157680,2,"task-gjqt",NA,33758739,9985406,NA,"complete",NA,"658066e6dddf50355a4936f2","computer","Desktop or Laptop","Windows 10","Chrome 120.0.0.0","1920x1080","1920x911",NA,NA,0,"BIQ (Charlotte)",3,"JAIBHCGDFE","Passed AC2",NA,"Spreadsheet1",NA,"","","",NA,"5","END",NA,NA,NA,NA,NA,NA,0,NA,NA,NA,NA,"","",NA,"","",NA,"SUPPRF83664"
"1",1702914419793,"18/12/2023 15:46:59",1702914419793,0,"18/12/2023 15:46:59",157680,2,"task-gjqt",NA,33758802,9985409,NA,"complete",NA,"65806572d71d3bb8e9a351b4","computer","Desktop or Laptop","Windows 10","Chrome 120.0.0.0","1280x720","1280x632",NA,NA,0,"BIQ (Charlotte)",3,"BCADJEIFHG","Passed AC2",NA,"Spreadsheet1",NA,"","","",NA,"5","BEGIN",NA,NA,NA,NA,NA,NA,0,NA,NA,NA,NA,"","",NA,"","",NA,"SUPPRF30408"
"2",1702914459356,"18/12/2023 15:47:39",1702914459356,0,"18/12/2023 15:47:39",157680,2,"task-gjqt",NA,33758802,9985409,NA,"complete",NA,"65806572d71d3bb8e9a351b4","computer","Desktop or Laptop","Windows 10","Chrome 120.0.0.0","1280x720","1280x632",NA,NA,0,"BIQ (Charlotte)",3,"BCADJEIFHG","Passed AC2",NA,"Spreadsheet1",1,"BIQ","Screen 1","9dh6eq",1,"continue","",39590.4,39567.1,39590.4,39590.4,39567.1,39590.4,1,39590.4,0,0,NA,"Click To Continue","Continue Button",23,"object-48","BIQ",NA,"SUPPRF30408"
"3",1702914459360,"18/12/2023 15:47:39",1702914459360,0,"18/12/2023 15:47:39",157680,2,"task-gjqt",NA,33758802,9985409,NA,"complete",NA,"65806572d71d3bb8e9a351b4","computer","Desktop or Laptop","Windows 10","Chrome 120.0.0.0","1280x720","1280x632",NA,NA,0,"BIQ (Charlotte)",3,"BCADJEIFHG","Passed AC2",NA,"Spreadsheet1",1,"BIQ","Screen 1","9dh6eq",1,"response","4",14154.9,39567.1,39595.2,14154.9,39567.1,39595.2,1,14154.9,25440.3,0,NA,"Rating Scale","Rating Scale",3,"object-5","BIQ",NA,"SUPPRF30408"
"4",1702914459361,"18/12/2023 15:47:39",1702914459361,0,"18/12/2023 15:47:39",157680,2,"task-gjqt",NA,33758802,9985409,NA,"complete",NA,"65806572d71d3bb8e9a351b4","computer","Desktop or Laptop","Windows 10","Chrome 120.0.0.0","1280x720","1280x632",NA,NA,0,"BIQ (Charlotte)",3,"BCADJEIFHG","Passed AC2",NA,"Spreadsheet1",1,"BIQ","Screen 1","9dh6eq",1,"response","7",19617,39567.1,39596.1,19617,39567.1,39596.1,1,19617,19979.1,0,NA,"Rating Scale","Rating Scale",10,"object-18","BIQ",NA,"SUPPRF30408"
"5",1702914459362,"18/12/2023 15:47:39",1702914459362,0,"18/12/2023 15:47:39",157680,2,"task-gjqt",NA,33758802,9985409,NA,"complete",NA,"65806572d71d3bb8e9a351b4","computer","Desktop or Laptop","Windows 10","Chrome 120.0.0.0","1280x720","1280x632",NA,NA,0,"BIQ (Charlotte)",3,"BCADJEIFHG","Passed AC2",NA,"Spreadsheet1",1,"BIQ","Screen 1","9dh6eq",1,"response","0",24279.9,39567.1,39596.8,24279.9,39567.1,39596.8,1,24279.9,15316.9,0,NA,"Rating Scale","Rating Scale",17,"object-80","BIQ",NA,"SUPPRF30408"
"6",1702914474633,"18/12/2023 15:47:54",1702914474633,0,"18/12/2023 15:47:54",157680,2,"task-gjqt",NA,33758802,9985409,NA,"complete",NA,"65806572d71d3bb8e9a351b4","computer","Desktop or Laptop","Windows 10","Chrome 120.0.0.0","1280x720","1280x632",NA,NA,0,"BIQ (Charlotte)",3,"BCADJEIFHG","Passed AC2",NA,"Spreadsheet1",1,"BIQ","Screen 2","o21mwi",2,"continue","",15301.6,15287.2,15301.6,15301.6,15287.2,15301.6,1,15301.6,0,0,NA,"Click To Continue","Continue Button",22,"object-50","BIQ",NA,"SUPPRF30408"
"7",1702914474639,"18/12/2023 15:47:54",1702914474639,0,"18/12/2023 15:47:54",157680,2,"task-gjqt",NA,33758802,9985409,NA,"complete",NA,"65806572d71d3bb8e9a351b4","computer","Desktop or Laptop","Windows 10","Chrome 120.0.0.0","1280x720","1280x632",NA,NA,0,"BIQ (Charlotte)",3,"BCADJEIFHG","Passed AC2",NA,"Spreadsheet1",1,"BIQ","Screen 2","o21mwi",2,"response","8",6195.10000000001,15287.2,15306.5,6195.10000000001,15287.2,15306.5,1,6195.10000000001,9111.39999999995,0,NA,"Rating Scale","Rating Scale",2,"object-259","BIQ",NA,"SUPPRF30408"
"8",1702914474640,"18/12/2023 15:47:54",1702914474640,0,"18/12/2023 15:47:54",157680,2,"task-gjqt",NA,33758802,9985409,NA,"complete",NA,"65806572d71d3bb8e9a351b4","computer","Desktop or Laptop","Windows 10","Chrome 120.0.0.0","1280x720","1280x632",NA,NA,0,"BIQ (Charlotte)",3,"BCADJEIFHG","Passed AC2",NA,"Spreadsheet1",1,"BIQ","Screen 2","o21mwi",2,"response","0",7926.9,15287.2,15307.7,7926.9,15287.2,15307.7,1,7926.9,7380.80000000002,0,NA,"Rating Scale","Rating Scale",9,"object-36","BIQ",NA,"SUPPRF30408"
"9",1702914474641,"18/12/2023 15:47:54",1702914474641,0,"18/12/2023 15:47:54",157680,2,"task-gjqt",NA,33758802,9985409,NA,"complete",NA,"65806572d71d3bb8e9a351b4","computer","Desktop or Laptop","Windows 10","Chrome 120.0.0.0","1280x720","1280x632",NA,NA,0,"BIQ (Charlotte)",3,"BCADJEIFHG","Passed AC2",NA,"Spreadsheet1",1,"BIQ","Screen 2","o21mwi",2,"response","0",13056.1,15287.2,15308.7,13056.1,15287.2,15308.7,1,13056.1,2252.60000000002,0,NA,"Rating Scale","Rating Scale",16,"object-86","BIQ",NA,"SUPPRF30408"
"10",1702914487586,"18/12/2023 15:48:07",1702914487586,0,"18/12/2023 15:48:07",157680,2,"task-gjqt",NA,33758802,9985409,NA,"complete",NA,"65806572d71d3bb8e9a351b4","computer","Desktop or Laptop","Windows 10","Chrome 120.0.0.0","1280x720","1280x632",NA,NA,0,"BIQ (Charlotte)",3,"BCADJEIFHG","Passed AC2",NA,"Spreadsheet1",1,"BIQ","Screen 3","iz3the",3,"continue","",12967.1,12956.1,12967.1,12967.1,12956.1,12967.1,1,12967.1,0,0,NA,"Click To Continue","Continue Button",22,"object-73","BIQ",NA,"SUPPRF30408"
"11",1702914487591,"18/12/2023 15:48:07",1702914487591,0,"18/12/2023 15:48:07",157680,2,"task-gjqt",NA,33758802,9985409,NA,"complete",NA,"65806572d71d3bb8e9a351b4","computer","Desktop or Laptop","Windows 10","Chrome 120.0.0.0","1280x720","1280x632",NA,NA,0,"BIQ (Charlotte)",3,"BCADJEIFHG","Passed AC2",NA,"Spreadsheet1",1,"BIQ","Screen 3","iz3the",3,"response","0",3231,12956.1,12971.5,3231,12956.1,12971.5,1,3231,9740.50000000002,0,NA,"Rating Scale","Rating Scale",2,"object-53","BIQ",NA,"SUPPRF30408"
"12",1702914487592,"18/12/2023 15:48:07",1702914487592,0,"18/12/2023 15:48:07",157680,2,"task-gjqt",NA,33758802,9985409,NA,"complete",NA,"65806572d71d3bb8e9a351b4","computer","Desktop or Laptop","Windows 10","Chrome 120.0.0.0","1280x720","1280x632",NA,NA,0,"BIQ (Charlotte)",3,"BCADJEIFHG","Passed AC2",NA,"Spreadsheet1",1,"BIQ","Screen 3","iz3the",3,"response","0",6461.6,12956.1,12973.2,6461.6,12956.1,12973.2,1,6461.6,6511.59999999998,0,NA,"Rating Scale","Rating Scale",9,"object-60","BIQ",NA,"SUPPRF30408"
"13",1702914487594,"18/12/2023 15:48:07",1702914487594,0,"18/12/2023 15:48:07",157680,2,"task-gjqt",NA,33758802,9985409,NA,"complete",NA,"65806572d71d3bb8e9a351b4","computer","Desktop or Laptop","Windows 10","Chrome 120.0.0.0","1280x720","1280x632",NA,NA,0,"BIQ (Charlotte)",3,"BCADJEIFHG","Passed AC2",NA,"Spreadsheet1",1,"BIQ","Screen 3","iz3the",3,"response","4",8027,12956.1,12974.7,8027,12956.1,12974.7,1,8027,4947.69999999998,0,NA,"Rating Scale","Rating Scale",16,"object-67","BIQ",NA,"SUPPRF30408"
"14",1702914487601,"18/12/2023 15:48:07",1702914487601,0,"18/12/2023 15:48:07",157680,2,"task-gjqt",NA,33758802,9985409,NA,"complete",NA,"65806572d71d3bb8e9a351b4","computer","Desktop or Laptop","Windows 10","Chrome 120.0.0.0","1280x720","1280x632",NA,NA,0,"BIQ (Charlotte)",3,"BCADJEIFHG","Passed AC2",NA,"Spreadsheet1",NA,"","","",NA,"5","END",NA,NA,NA,NA,NA,NA,0,NA,NA,NA,NA,"","",NA,"","",NA,"SUPPRF30408"
"1",1702914517124,"18/12/2023 15:48:37",1702914517124,0,"18/12/2023 15:48:37",157680,2,"task-gjqt",NA,33758856,9985441,NA,"complete",NA,"65806774d3cea6a43bd2f3ef","computer","Desktop or Laptop","Windows 10","Chrome 120.0.0.0","1280x720","1280x559",NA,NA,0,"BIQ (Charlotte)",3,"DECFBGAHJI","Passed AC2",NA,"Spreadsheet1",NA,"","","",NA,"5","BEGIN",NA,NA,NA,NA,NA,NA,0,NA,NA,NA,NA,"","",NA,"","",NA,"SUPPRF88256"
"2",1702914578107,"18/12/2023 15:49:38",1702914578107,0,"18/12/2023 15:49:38",157680,2,"task-gjqt",NA,33758856,9985441,NA,"complete",NA,"65806774d3cea6a43bd2f3ef","computer","Desktop or Laptop","Windows 10","Chrome 120.0.0.0","1280x720","1280x559",NA,NA,0,"BIQ (Charlotte)",3,"DECFBGAHJI","Passed AC2",NA,"Spreadsheet1",1,"BIQ","Screen 1","9dh6eq",1,"continue","",61011.9,60999.2,61011.9,61011.9,60999.2,61011.9,1,61011.9,0,0,NA,"Click To Continue","Continue Button",23,"object-48","BIQ",NA,"SUPPRF88256"
"3",1702914578113,"18/12/2023 15:49:38",1702914578113,0,"18/12/2023 15:49:38",157680,2,"task-gjqt",NA,33758856,9985441,NA,"complete",NA,"65806774d3cea6a43bd2f3ef","computer","Desktop or Laptop","Windows 10","Chrome 120.0.0.0","1280x720","1280x559",NA,NA,0,"BIQ (Charlotte)",3,"DECFBGAHJI","Passed AC2",NA,"Spreadsheet1",1,"BIQ","Screen 1","9dh6eq",1,"response","7",28709.2,60999.2,61015.8,28709.2,60999.2,61015.8,1,28709.2,32306.6,0,NA,"Rating Scale","Rating Scale",3,"object-5","BIQ",NA,"SUPPRF88256"
"4",1702914578114,"18/12/2023 15:49:38",1702914578114,0,"18/12/2023 15:49:38",157680,2,"task-gjqt",NA,33758856,9985441,NA,"complete",NA,"65806774d3cea6a43bd2f3ef","computer","Desktop or Laptop","Windows 10","Chrome 120.0.0.0","1280x720","1280x559",NA,NA,0,"BIQ (Charlotte)",3,"DECFBGAHJI","Passed AC2",NA,"Spreadsheet1",1,"BIQ","Screen 1","9dh6eq",1,"response","6",47577.1,60999.2,61015.8,47577.1,60999.2,61015.8,1,47577.1,13438.7,0,NA,"Rating Scale","Rating Scale",10,"object-18","BIQ",NA,"SUPPRF88256"
"5",1702914578114,"18/12/2023 15:49:38",1702914578114,0,"18/12/2023 15:49:38",157680,2,"task-gjqt",NA,33758856,9985441,NA,"complete",NA,"65806774d3cea6a43bd2f3ef","computer","Desktop or Laptop","Windows 10","Chrome 120.0.0.0","1280x720","1280x559",NA,NA,0,"BIQ (Charlotte)",3,"DECFBGAHJI","Passed AC2",NA,"Spreadsheet1",1,"BIQ","Screen 1","9dh6eq",1,"response","1",60499.6,60999.2,61015.8,60499.6,60999.2,61015.8,1,60499.6,516.200000000012,0,NA,"Rating Scale","Rating Scale",17,"object-80","BIQ",NA,"SUPPRF88256"
"6",1702914618939,"18/12/2023 15:50:18",1702914618939,0,"18/12/2023 15:50:18",157680,2,"task-gjqt",NA,33758856,9985441,NA,"complete",NA,"65806774d3cea6a43bd2f3ef","computer","Desktop or Laptop","Windows 10","Chrome 120.0.0.0","1280x720","1280x559",NA,NA,0,"BIQ (Charlotte)",3,"DECFBGAHJI","Passed AC2",NA,"Spreadsheet1",1,"BIQ","Screen 2","o21mwi",2,"continue","",40845.7,40833,40845.7,40845.7,40833,40845.7,1,40845.7,0,0,NA,"Click To Continue","Continue Button",22,"object-50","BIQ",NA,"SUPPRF88256"
"7",1702914618945,"18/12/2023 15:50:18",1702914618945,0,"18/12/2023 15:50:18",157680,2,"task-gjqt",NA,33758856,9985441,NA,"complete",NA,"65806774d3cea6a43bd2f3ef","computer","Desktop or Laptop","Windows 10","Chrome 120.0.0.0","1280x720","1280x559",NA,NA,0,"BIQ (Charlotte)",3,"DECFBGAHJI","Passed AC2",NA,"Spreadsheet1",1,"BIQ","Screen 2","o21mwi",2,"response","8",6827.7,40833,40849.7,6827.7,40833,40849.7,1,6827.7,34022,0,NA,"Rating Scale","Rating Scale",2,"object-259","BIQ",NA,"SUPPRF88256"
"8",1702914618946,"18/12/2023 15:50:18",1702914618946,0,"18/12/2023 15:50:18",157680,2,"task-gjqt",NA,33758856,9985441,NA,"complete",NA,"65806774d3cea6a43bd2f3ef","computer","Desktop or Laptop","Windows 10","Chrome 120.0.0.0","1280x720","1280x559",NA,NA,0,"BIQ (Charlotte)",3,"DECFBGAHJI","Passed AC2",NA,"Spreadsheet1",1,"BIQ","Screen 2","o21mwi",2,"response","1",18118.3,40833,40849.7,18118.3,40833,40849.7,1,18118.3,22731.4,0,NA,"Rating Scale","Rating Scale",9,"object-36","BIQ",NA,"SUPPRF88256"
"9",1702914618947,"18/12/2023 15:50:18",1702914618947,0,"18/12/2023 15:50:18",157680,2,"task-gjqt",NA,33758856,9985441,NA,"complete",NA,"65806774d3cea6a43bd2f3ef","computer","Desktop or Laptop","Windows 10","Chrome 120.0.0.0","1280x720","1280x559",NA,NA,0,"BIQ (Charlotte)",3,"DECFBGAHJI","Passed AC2",NA,"Spreadsheet1",1,"BIQ","Screen 2","o21mwi",2,"response","1",32290.1,40833,40849.7,32290.1,40833,40849.7,1,32290.1,8559.60000000001,0,NA,"Rating Scale","Rating Scale",16,"object-86","BIQ",NA,"SUPPRF88256"
"10",1702914630546,"18/12/2023 15:50:30",1702914630546,0,"18/12/2023 15:50:30",157680,2,"task-gjqt",NA,33758856,9985441,NA,"complete",NA,"65806774d3cea6a43bd2f3ef","computer","Desktop or Laptop","Windows 10","Chrome 120.0.0.0","1280x720","1280x559",NA,NA,0,"BIQ (Charlotte)",3,"DECFBGAHJI","Passed AC2",NA,"Spreadsheet1",1,"BIQ","Screen 3","iz3the",3,"continue","",11619.2999999999,11607,11619.2999999999,11619.2999999999,11607,11619.2999999999,1,11619.2999999999,0,0,NA,"Click To Continue","Continue Button",22,"object-73","BIQ",NA,"SUPPRF88256"
"11",1702914630550,"18/12/2023 15:50:30",1702914630550,0,"18/12/2023 15:50:30",157680,2,"task-gjqt",NA,33758856,9985441,NA,"complete",NA,"65806774d3cea6a43bd2f3ef","computer","Desktop or Laptop","Windows 10","Chrome 120.0.0.0","1280x720","1280x559",NA,NA,0,"BIQ (Charlotte)",3,"DECFBGAHJI","Passed AC2",NA,"Spreadsheet1",1,"BIQ","Screen 3","iz3the",3,"response","0",3863.39999999999,11607,11623.0999999999,3863.39999999999,11607,11623.0999999999,1,3863.39999999999,7759.69999999991,0,NA,"Rating Scale","Rating Scale",2,"object-53","BIQ",NA,"SUPPRF88256"
"12",1702914630551,"18/12/2023 15:50:30",1702914630551,0,"18/12/2023 15:50:30",157680,2,"task-gjqt",NA,33758856,9985441,NA,"complete",NA,"65806774d3cea6a43bd2f3ef","computer","Desktop or Laptop","Windows 10","Chrome 120.0.0.0","1280x720","1280x559",NA,NA,0,"BIQ (Charlotte)",3,"DECFBGAHJI","Passed AC2",NA,"Spreadsheet1",1,"BIQ","Screen 3","iz3the",3,"response","0",5961.89999999999,11607,11623.6,5961.89999999999,11607,11623.6,1,5961.89999999999,5661.70000000001,0,NA,"Rating Scale","Rating Scale",9,"object-60","BIQ",NA,"SUPPRF88256"
"13",1702914630553,"18/12/2023 15:50:30",1702914630553,0,"18/12/2023 15:50:30",157680,2,"task-gjqt",NA,33758856,9985441,NA,"complete",NA,"65806774d3cea6a43bd2f3ef","computer","Desktop or Laptop","Windows 10","Chrome 120.0.0.0","1280x720","1280x559",NA,NA,0,"BIQ (Charlotte)",3,"DECFBGAHJI","Passed AC2",NA,"Spreadsheet1",1,"BIQ","Screen 3","iz3the",3,"response","0",8093.3,11607,11623.6,8093.3,11607,11623.6,1,8093.3,3530.3,0,NA,"Rating Scale","Rating Scale",16,"object-67","BIQ",NA,"SUPPRF88256"
"14",1702914630562,"18/12/2023 15:50:30",1702914630562,0,"18/12/2023 15:50:30",157680,2,"task-gjqt",NA,33758856,9985441,NA,"complete",NA,"65806774d3cea6a43bd2f3ef","computer","Desktop or Laptop","Windows 10","Chrome 120.0.0.0","1280x720","1280x559",NA,NA,0,"BIQ (Charlotte)",3,"DECFBGAHJI","Passed AC2",NA,"Spreadsheet1",NA,"","","",NA,"5","END",NA,NA,NA,NA,NA,NA,0,NA,NA,NA,NA,"","",NA,"","",NA,"SUPPRF88256"
"1",1702914579030,"18/12/2023 15:49:39",1702914579030,0,"18/12/2023 15:49:39",157680,2,"task-gjqt",NA,33758880,9985491,NA,"complete",NA,"658069be0a0dbef3a5667951","computer","Desktop or Laptop","Windows 10","Chrome 120.0.0.0","1536x864","1536x695",NA,NA,0,"BIQ (Charlotte)",3,"FGEHDICJBA","Passed AC2",NA,"Spreadsheet1",NA,"","","",NA,"5","BEGIN",NA,NA,NA,NA,NA,NA,0,NA,NA,NA,NA,"","",NA,"","",NA,"SUPPRF55208"
"2",1702914598383,"18/12/2023 15:49:58",1702914598383,0,"18/12/2023 15:49:58",157680,2,"task-gjqt",NA,33758880,9985491,NA,"complete",NA,"658069be0a0dbef3a5667951","computer","Desktop or Laptop","Windows 10","Chrome 120.0.0.0","1536x864","1536x695",NA,NA,0,"BIQ (Charlotte)",3,"FGEHDICJBA","Passed AC2",NA,"Spreadsheet1",1,"BIQ","Screen 1","9dh6eq",1,"continue","",19358.1,19341.5,19358.1,19358.1,19341.5,19358.1,1,19358.1,0,0,NA,"Click To Continue","Continue Button",23,"object-48","BIQ",NA,"SUPPRF55208"
"3",1702914598387,"18/12/2023 15:49:58",1702914598387,0,"18/12/2023 15:49:58",157680,2,"task-gjqt",NA,33758880,9985491,NA,"complete",NA,"658069be0a0dbef3a5667951","computer","Desktop or Laptop","Windows 10","Chrome 120.0.0.0","1536x864","1536x695",NA,NA,0,"BIQ (Charlotte)",3,"FGEHDICJBA","Passed AC2",NA,"Spreadsheet1",1,"BIQ","Screen 1","9dh6eq",1,"response","7",11171.5,19341.5,19358.1,11171.5,19341.5,19358.1,1,11171.5,8186.6,0,NA,"Rating Scale","Rating Scale",3,"object-5","BIQ",NA,"SUPPRF55208"
"4",1702914598387,"18/12/2023 15:49:58",1702914598387,0,"18/12/2023 15:49:58",157680,2,"task-gjqt",NA,33758880,9985491,NA,"complete",NA,"658069be0a0dbef3a5667951","computer","Desktop or Laptop","Windows 10","Chrome 120.0.0.0","1536x864","1536x695",NA,NA,0,"BIQ (Charlotte)",3,"FGEHDICJBA","Passed AC2",NA,"Spreadsheet1",1,"BIQ","Screen 1","9dh6eq",1,"response","6",15956.9,19341.5,19358.1,15956.9,19341.5,19358.1,1,15956.9,3401.2,0,NA,"Rating Scale","Rating Scale",10,"object-18","BIQ",NA,"SUPPRF55208"
"5",1702914598388,"18/12/2023 15:49:58",1702914598388,0,"18/12/2023 15:49:58",157680,2,"task-gjqt",NA,33758880,9985491,NA,"complete",NA,"658069be0a0dbef3a5667951","computer","Desktop or Laptop","Windows 10","Chrome 120.0.0.0","1536x864","1536x695",NA,NA,0,"BIQ (Charlotte)",3,"FGEHDICJBA","Passed AC2",NA,"Spreadsheet1",1,"BIQ","Screen 1","9dh6eq",1,"response","1",18357.8,19341.5,19358.1,18357.8,19341.5,19358.1,1,18357.8,1000.3,0,NA,"Rating Scale","Rating Scale",17,"object-80","BIQ",NA,"SUPPRF55208"
"6",1702914608788,"18/12/2023 15:50:08",1702914608788,0,"18/12/2023 15:50:08",157680,2,"task-gjqt",NA,33758880,9985491,NA,"complete",NA,"658069be0a0dbef3a5667951","computer","Desktop or Laptop","Windows 10","Chrome 120.0.0.0","1536x864","1536x695",NA,NA,0,"BIQ (Charlotte)",3,"FGEHDICJBA","Passed AC2",NA,"Spreadsheet1",1,"BIQ","Screen 2","o21mwi",2,"continue","",10428.7000000015,10420.6,10428.7000000015,10428.7000000015,10420.6,10428.7000000015,1,10428.7000000015,0,0,NA,"Click To Continue","Continue Button",22,"object-50","BIQ",NA,"SUPPRF55208"
"7",1702914608793,"18/12/2023 15:50:08",1702914608793,0,"18/12/2023 15:50:08",157680,2,"task-gjqt",NA,33758880,9985491,NA,"complete",NA,"658069be0a0dbef3a5667951","computer","Desktop or Laptop","Windows 10","Chrome 120.0.0.0","1536x864","1536x695",NA,NA,0,"BIQ (Charlotte)",3,"FGEHDICJBA","Passed AC2",NA,"Spreadsheet1",1,"BIQ","Screen 2","o21mwi",2,"response","8",3267.8,10420.6,10434.1,3267.8,10420.6,10434.1,1,3267.8,7166.3,0,NA,"Rating Scale","Rating Scale",2,"object-259","BIQ",NA,"SUPPRF55208"
"8",1702914608794,"18/12/2023 15:50:08",1702914608794,0,"18/12/2023 15:50:08",157680,2,"task-gjqt",NA,33758880,9985491,NA,"complete",NA,"658069be0a0dbef3a5667951","computer","Desktop or Laptop","Windows 10","Chrome 120.0.0.0","1536x864","1536x695",NA,NA,0,"BIQ (Charlotte)",3,"FGEHDICJBA","Passed AC2",NA,"Spreadsheet1",1,"BIQ","Screen 2","o21mwi",2,"response","2",6919.3,10420.6,10435.300000003,6919.3,10420.6,10435.300000003,1,6919.3,3516.00000000298,0,NA,"Rating Scale","Rating Scale",9,"object-36","BIQ",NA,"SUPPRF55208"
"9",1702914608795,"18/12/2023 15:50:08",1702914608795,0,"18/12/2023 15:50:08",157680,2,"task-gjqt",NA,33758880,9985491,NA,"complete",NA,"658069be0a0dbef3a5667951","computer","Desktop or Laptop","Windows 10","Chrome 120.0.0.0","1536x864","1536x695",NA,NA,0,"BIQ (Charlotte)",3,"FGEHDICJBA","Passed AC2",NA,"Spreadsheet1",1,"BIQ","Screen 2","o21mwi",2,"response","0",9437,10420.6,10436.2000000015,9437,10420.6,10436.2000000015,1,9437,999.200000001489,0,NA,"Rating Scale","Rating Scale",16,"object-86","BIQ",NA,"SUPPRF55208"
"10",1702914615026,"18/12/2023 15:50:15",1702914615026,0,"18/12/2023 15:50:15",157680,2,"task-gjqt",NA,33758880,9985491,NA,"complete",NA,"658069be0a0dbef3a5667951","computer","Desktop or Laptop","Windows 10","Chrome 120.0.0.0","1536x864","1536x695",NA,NA,0,"BIQ (Charlotte)",3,"FGEHDICJBA","Passed AC2",NA,"Spreadsheet1",1,"BIQ","Screen 3","iz3the",3,"continue","",6246.5,6235.8,6246.5,6246.5,6235.8,6246.5,1,6246.5,0,0,NA,"Click To Continue","Continue Button",22,"object-73","BIQ",NA,"SUPPRF55208"
"11",1702914615027,"18/12/2023 15:50:15",1702914615027,0,"18/12/2023 15:50:15",157680,2,"task-gjqt",NA,33758880,9985491,NA,"complete",NA,"658069be0a0dbef3a5667951","computer","Desktop or Laptop","Windows 10","Chrome 120.0.0.0","1536x864","1536x695",NA,NA,0,"BIQ (Charlotte)",3,"FGEHDICJBA","Passed AC2",NA,"Spreadsheet1",1,"BIQ","Screen 3","iz3the",3,"response","0",2417.8,6235.8,6247.60000000149,2417.8,6235.8,6247.60000000149,1,2417.8,3829.80000000149,0,NA,"Rating Scale","Rating Scale",2,"object-53","BIQ",NA,"SUPPRF55208"
"12",1702914615028,"18/12/2023 15:50:15",1702914615028,0,"18/12/2023 15:50:15",157680,2,"task-gjqt",NA,33758880,9985491,NA,"complete",NA,"658069be0a0dbef3a5667951","computer","Desktop or Laptop","Windows 10","Chrome 120.0.0.0","1536x864","1536x695",NA,NA,0,"BIQ (Charlotte)",3,"FGEHDICJBA","Passed AC2",NA,"Spreadsheet1",1,"BIQ","Screen 3","iz3the",3,"response","0",4001.6,6235.8,6248.5,4001.6,6235.8,6248.5,1,4001.6,2246.9,0,NA,"Rating Scale","Rating Scale",9,"object-60","BIQ",NA,"SUPPRF55208"
"13",1702914615029,"18/12/2023 15:50:15",1702914615029,0,"18/12/2023 15:50:15",157680,2,"task-gjqt",NA,33758880,9985491,NA,"complete",NA,"658069be0a0dbef3a5667951","computer","Desktop or Laptop","Windows 10","Chrome 120.0.0.0","1536x864","1536x695",NA,NA,0,"BIQ (Charlotte)",3,"FGEHDICJBA","Passed AC2",NA,"Spreadsheet1",1,"BIQ","Screen 3","iz3the",3,"response","0",5152,6235.8,6249.5,5152,6235.8,6249.5,1,5152,1097.5,0,NA,"Rating Scale","Rating Scale",16,"object-67","BIQ",NA,"SUPPRF55208"
"14",1702914615032,"18/12/2023 15:50:15",1702914615032,0,"18/12/2023 15:50:15",157680,2,"task-gjqt",NA,33758880,9985491,NA,"complete",NA,"658069be0a0dbef3a5667951","computer","Desktop or Laptop","Windows 10","Chrome 120.0.0.0","1536x864","1536x695",NA,NA,0,"BIQ (Charlotte)",3,"FGEHDICJBA","Passed AC2",NA,"Spreadsheet1",NA,"","","",NA,"5","END",NA,NA,NA,NA,NA,NA,0,NA,NA,NA,NA,"","",NA,"","",NA,"SUPPRF55208"
"1",1702914841089,"18/12/2023 15:54:01",1702893241089,-6,"18/12/2023 03:54:01",157680,2,"task-gjqt",NA,33758966,9985463,NA,"complete",NA,"6580686d9e7b46f2f294403c","computer","Desktop or Laptop","Chromium OS 14541.0.0","Chrome 119.0.0.0","1366x768","1366x633",NA,NA,0,"BIQ (Charlotte)",3,"EFDGCHBIAJ","Passed AC2",NA,"Spreadsheet1",NA,"","","",NA,"5","BEGIN",NA,NA,NA,NA,NA,NA,0,NA,NA,NA,NA,"","",NA,"","",NA,"SUPPRF59973"
"2",1702914874335,"18/12/2023 15:54:34",1702893274335,-6,"18/12/2023 03:54:34",157680,2,"task-gjqt",NA,33758966,9985463,NA,"complete",NA,"6580686d9e7b46f2f294403c","computer","Desktop or Laptop","Chromium OS 14541.0.0","Chrome 119.0.0.0","1366x768","1366x633",NA,NA,0,"BIQ (Charlotte)",3,"EFDGCHBIAJ","Passed AC2",NA,"Spreadsheet1",1,"BIQ","Screen 1","9dh6eq",1,"continue","",33284.154,33267.494,33284.154,33284.154,33267.494,33284.154,1,33284.154,0,0,NA,"Click To Continue","Continue Button",23,"object-48","BIQ",NA,"SUPPRF59973"
"3",1702914874350,"18/12/2023 15:54:34",1702893274350,-6,"18/12/2023 03:54:34",157680,2,"task-gjqt",NA,33758966,9985463,NA,"complete",NA,"6580686d9e7b46f2f294403c","computer","Desktop or Laptop","Chromium OS 14541.0.0","Chrome 119.0.0.0","1366x768","1366x633",NA,NA,0,"BIQ (Charlotte)",3,"EFDGCHBIAJ","Passed AC2",NA,"Spreadsheet1",1,"BIQ","Screen 1","9dh6eq",1,"response","8",24489.01,33267.494,33284.154,24489.01,33267.494,33284.154,1,24489.01,8795.14400000001,0,NA,"Rating Scale","Rating Scale",3,"object-5","BIQ",NA,"SUPPRF59973"
"4",1702914874352,"18/12/2023 15:54:34",1702893274352,-6,"18/12/2023 03:54:34",157680,2,"task-gjqt",NA,33758966,9985463,NA,"complete",NA,"6580686d9e7b46f2f294403c","computer","Desktop or Laptop","Chromium OS 14541.0.0","Chrome 119.0.0.0","1366x768","1366x633",NA,NA,0,"BIQ (Charlotte)",3,"EFDGCHBIAJ","Passed AC2",NA,"Spreadsheet1",1,"BIQ","Screen 1","9dh6eq",1,"response","4",28343.349,33267.494,33284.154,28343.349,33267.494,33284.154,1,28343.349,4940.80500000001,0,NA,"Rating Scale","Rating Scale",10,"object-18","BIQ",NA,"SUPPRF59973"
"5",1702914874355,"18/12/2023 15:54:34",1702893274355,-6,"18/12/2023 03:54:34",157680,2,"task-gjqt",NA,33758966,9985463,NA,"complete",NA,"6580686d9e7b46f2f294403c","computer","Desktop or Laptop","Chromium OS 14541.0.0","Chrome 119.0.0.0","1366x768","1366x633",NA,NA,0,"BIQ (Charlotte)",3,"EFDGCHBIAJ","Passed AC2",NA,"Spreadsheet1",1,"BIQ","Screen 1","9dh6eq",1,"response","4",30206.385,33267.494,33284.154,30206.385,33267.494,33284.154,1,30206.385,3077.76900000001,0,NA,"Rating Scale","Rating Scale",17,"object-80","BIQ",NA,"SUPPRF59973"
"6",1702914885896,"18/12/2023 15:54:45",1702893285896,-6,"18/12/2023 03:54:45",157680,2,"task-gjqt",NA,33758966,9985463,NA,"complete",NA,"6580686d9e7b46f2f294403c","computer","Desktop or Laptop","Chromium OS 14541.0.0","Chrome 119.0.0.0","1366x768","1366x633",NA,NA,0,"BIQ (Charlotte)",3,"EFDGCHBIAJ","Passed AC2",NA,"Spreadsheet1",1,"BIQ","Screen 2","o21mwi",2,"continue","",11587.7539999999,11579.06,11587.7539999999,11587.7539999999,11579.06,11587.7539999999,1,11587.7539999999,0,0,NA,"Click To Continue","Continue Button",22,"object-50","BIQ",NA,"SUPPRF59973"
"7",1702914885913,"18/12/2023 15:54:45",1702893285913,-6,"18/12/2023 03:54:45",157680,2,"task-gjqt",NA,33758966,9985463,NA,"complete",NA,"6580686d9e7b46f2f294403c","computer","Desktop or Laptop","Chromium OS 14541.0.0","Chrome 119.0.0.0","1366x768","1366x633",NA,NA,0,"BIQ (Charlotte)",3,"EFDGCHBIAJ","Passed AC2",NA,"Spreadsheet1",1,"BIQ","Screen 2","o21mwi",2,"response","4",5373.657,11579.06,11595.72,5373.657,11579.06,11595.72,1,5373.657,6222.063,0,NA,"Rating Scale","Rating Scale",2,"object-259","BIQ",NA,"SUPPRF59973"
"8",1702914885917,"18/12/2023 15:54:45",1702893285917,-6,"18/12/2023 03:54:45",157680,2,"task-gjqt",NA,33758966,9985463,NA,"complete",NA,"6580686d9e7b46f2f294403c","computer","Desktop or Laptop","Chromium OS 14541.0.0","Chrome 119.0.0.0","1366x768","1366x633",NA,NA,0,"BIQ (Charlotte)",3,"EFDGCHBIAJ","Passed AC2",NA,"Spreadsheet1",1,"BIQ","Screen 2","o21mwi",2,"response","4",6920.721,11579.06,11595.72,6920.721,11579.06,11595.72,1,6920.721,4674.999,0,NA,"Rating Scale","Rating Scale",9,"object-36","BIQ",NA,"SUPPRF59973"
"9",1702914885921,"18/12/2023 15:54:45",1702893285921,-6,"18/12/2023 03:54:45",157680,2,"task-gjqt",NA,33758966,9985463,NA,"complete",NA,"6580686d9e7b46f2f294403c","computer","Desktop or Laptop","Chromium OS 14541.0.0","Chrome 119.0.0.0","1366x768","1366x633",NA,NA,0,"BIQ (Charlotte)",3,"EFDGCHBIAJ","Passed AC2",NA,"Spreadsheet1",1,"BIQ","Screen 2","o21mwi",2,"response","4",9434.016,11579.06,11595.72,9434.016,11579.06,11595.72,1,9434.016,2161.70400000001,0,NA,"Rating Scale","Rating Scale",16,"object-86","BIQ",NA,"SUPPRF59973"
"10",1702914901348,"18/12/2023 15:55:01",1702893301348,-6,"18/12/2023 03:55:01",157680,2,"task-gjqt",NA,33758966,9985463,NA,"complete",NA,"6580686d9e7b46f2f294403c","computer","Desktop or Laptop","Chromium OS 14541.0.0","Chrome 119.0.0.0","1366x768","1366x633",NA,NA,0,"BIQ (Charlotte)",3,"EFDGCHBIAJ","Passed AC2",NA,"Spreadsheet1",1,"BIQ","Screen 3","iz3the",3,"continue","",15460.3939999999,15455.055,15460.3939999999,15460.3939999999,15455.055,15460.3939999999,1,15460.3939999999,0,0,NA,"Click To Continue","Continue Button",22,"object-73","BIQ",NA,"SUPPRF59973"
"11",1702914901363,"18/12/2023 15:55:01",1702893301363,-6,"18/12/2023 03:55:01",157680,2,"task-gjqt",NA,33758966,9985463,NA,"complete",NA,"6580686d9e7b46f2f294403c","computer","Desktop or Laptop","Chromium OS 14541.0.0","Chrome 119.0.0.0","1366x768","1366x633",NA,NA,0,"BIQ (Charlotte)",3,"EFDGCHBIAJ","Passed AC2",NA,"Spreadsheet1",1,"BIQ","Screen 3","iz3the",3,"response","0",9965.292,15455.055,15471.715,9965.292,15455.055,15471.715,1,9965.292,5506.423,0,NA,"Rating Scale","Rating Scale",2,"object-53","BIQ",NA,"SUPPRF59973"
"12",1702914901366,"18/12/2023 15:55:01",1702893301366,-6,"18/12/2023 03:55:01",157680,2,"task-gjqt",NA,33758966,9985463,NA,"complete",NA,"6580686d9e7b46f2f294403c","computer","Desktop or Laptop","Chromium OS 14541.0.0","Chrome 119.0.0.0","1366x768","1366x633",NA,NA,0,"BIQ (Charlotte)",3,"EFDGCHBIAJ","Passed AC2",NA,"Spreadsheet1",1,"BIQ","Screen 3","iz3the",3,"response","0",11545.723,15455.055,15471.715,11545.723,15455.055,15471.715,1,11545.723,3925.99200000001,0,NA,"Rating Scale","Rating Scale",9,"object-60","BIQ",NA,"SUPPRF59973"
"13",1702914901370,"18/12/2023 15:55:01",1702893301370,-6,"18/12/2023 03:55:01",157680,2,"task-gjqt",NA,33758966,9985463,NA,"complete",NA,"6580686d9e7b46f2f294403c","computer","Desktop or Laptop","Chromium OS 14541.0.0","Chrome 119.0.0.0","1366x768","1366x633",NA,NA,0,"BIQ (Charlotte)",3,"EFDGCHBIAJ","Passed AC2",NA,"Spreadsheet1",1,"BIQ","Screen 3","iz3the",3,"response","0",12826.344,15455.055,15471.715,12826.344,15455.055,15471.715,1,12826.344,2645.37100000001,0,NA,"Rating Scale","Rating Scale",16,"object-67","BIQ",NA,"SUPPRF59973"
"14",1702914901393,"18/12/2023 15:55:01",1702893301393,-6,"18/12/2023 03:55:01",157680,2,"task-gjqt",NA,33758966,9985463,NA,"complete",NA,"6580686d9e7b46f2f294403c","computer","Desktop or Laptop","Chromium OS 14541.0.0","Chrome 119.0.0.0","1366x768","1366x633",NA,NA,0,"BIQ (Charlotte)",3,"EFDGCHBIAJ","Passed AC2",NA,"Spreadsheet1",NA,"","","",NA,"5","END",NA,NA,NA,NA,NA,NA,0,NA,NA,NA,NA,"","",NA,"","",NA,"SUPPRF59973"
"1",1702915037318,"18/12/2023 15:57:17",1702915037318,0,"18/12/2023 15:57:17",157680,2,"task-gjqt",NA,33759038,9985439,NA,"complete",NA,"6580620e8ba223be6247ca81","computer","Desktop or Laptop","Windows 10","Chrome 120.0.0.0","1536x864","1536x730",NA,NA,0,"BIQ (Charlotte)",3,"CDBEAFJGIH","Passed AC2",NA,"Spreadsheet1",NA,"","","",NA,"5","BEGIN",NA,NA,NA,NA,NA,NA,0,NA,NA,NA,NA,"","",NA,"","",NA,"SUPPRF46255"
"2",1702915074389,"18/12/2023 15:57:54",1702915074389,0,"18/12/2023 15:57:54",157680,2,"task-gjqt",NA,33759038,9985439,NA,"complete",NA,"6580620e8ba223be6247ca81","computer","Desktop or Laptop","Windows 10","Chrome 120.0.0.0","1536x864","1536x730",NA,NA,0,"BIQ (Charlotte)",3,"CDBEAFJGIH","Passed AC2",NA,"Spreadsheet1",1,"BIQ","Screen 1","9dh6eq",1,"continue","",37088.8,37082.7,37088.8,37088.8,37082.7,37088.8,1,37088.8,0,0,NA,"Click To Continue","Continue Button",23,"object-48","BIQ",NA,"SUPPRF46255"
"3",1702915074391,"18/12/2023 15:57:54",1702915074391,0,"18/12/2023 15:57:54",157680,2,"task-gjqt",NA,33759038,9985439,NA,"complete",NA,"6580620e8ba223be6247ca81","computer","Desktop or Laptop","Windows 10","Chrome 120.0.0.0","1536x864","1536x730",NA,NA,0,"BIQ (Charlotte)",3,"CDBEAFJGIH","Passed AC2",NA,"Spreadsheet1",1,"BIQ","Screen 1","9dh6eq",1,"response","2",16423.4,37082.7,37088.8,16423.4,37082.7,37088.8,1,16423.4,20665.4,0,NA,"Rating Scale","Rating Scale",3,"object-5","BIQ",NA,"SUPPRF46255"
"4",1702915074391,"18/12/2023 15:57:54",1702915074391,0,"18/12/2023 15:57:54",157680,2,"task-gjqt",NA,33759038,9985439,NA,"complete",NA,"6580620e8ba223be6247ca81","computer","Desktop or Laptop","Windows 10","Chrome 120.0.0.0","1536x864","1536x730",NA,NA,0,"BIQ (Charlotte)",3,"CDBEAFJGIH","Passed AC2",NA,"Spreadsheet1",1,"BIQ","Screen 1","9dh6eq",1,"response","3",29434.8,37082.7,37088.8,29434.8,37082.7,37088.8,1,29434.8,7654,0,NA,"Rating Scale","Rating Scale",10,"object-18","BIQ",NA,"SUPPRF46255"
"5",1702915074392,"18/12/2023 15:57:54",1702915074392,0,"18/12/2023 15:57:54",157680,2,"task-gjqt",NA,33759038,9985439,NA,"complete",NA,"6580620e8ba223be6247ca81","computer","Desktop or Laptop","Windows 10","Chrome 120.0.0.0","1536x864","1536x730",NA,NA,0,"BIQ (Charlotte)",3,"CDBEAFJGIH","Passed AC2",NA,"Spreadsheet1",1,"BIQ","Screen 1","9dh6eq",1,"response","5",33380,37082.7,37088.8,33380,37082.7,37088.8,1,33380,3708.8,0,NA,"Rating Scale","Rating Scale",17,"object-80","BIQ",NA,"SUPPRF46255"
"6",1702915094408,"18/12/2023 15:58:14",1702915094408,0,"18/12/2023 15:58:14",157680,2,"task-gjqt",NA,33759038,9985439,NA,"complete",NA,"6580620e8ba223be6247ca81","computer","Desktop or Laptop","Windows 10","Chrome 120.0.0.0","1536x864","1536x730",NA,NA,0,"BIQ (Charlotte)",3,"CDBEAFJGIH","Passed AC2",NA,"Spreadsheet1",1,"BIQ","Screen 2","o21mwi",2,"continue","",20029.4,20023.3,20029.4,20029.4,20023.3,20029.4,1,20029.4,0,0,NA,"Click To Continue","Continue Button",22,"object-50","BIQ",NA,"SUPPRF46255"
"7",1702915094410,"18/12/2023 15:58:14",1702915094410,0,"18/12/2023 15:58:14",157680,2,"task-gjqt",NA,33759038,9985439,NA,"complete",NA,"6580620e8ba223be6247ca81","computer","Desktop or Laptop","Windows 10","Chrome 120.0.0.0","1536x864","1536x730",NA,NA,0,"BIQ (Charlotte)",3,"CDBEAFJGIH","Passed AC2",NA,"Spreadsheet1",1,"BIQ","Screen 2","o21mwi",2,"response","8",6242.4,20023.3,20029.4,6242.4,20023.3,20029.4,1,6242.4,13787,0,NA,"Rating Scale","Rating Scale",2,"object-259","BIQ",NA,"SUPPRF46255"
"8",1702915094411,"18/12/2023 15:58:14",1702915094411,0,"18/12/2023 15:58:14",157680,2,"task-gjqt",NA,33759038,9985439,NA,"complete",NA,"6580620e8ba223be6247ca81","computer","Desktop or Laptop","Windows 10","Chrome 120.0.0.0","1536x864","1536x730",NA,NA,0,"BIQ (Charlotte)",3,"CDBEAFJGIH","Passed AC2",NA,"Spreadsheet1",1,"BIQ","Screen 2","o21mwi",2,"response","5",9878.2,20023.3,20029.4,9878.2,20023.3,20029.4,1,9878.2,10151.2,0,NA,"Rating Scale","Rating Scale",9,"object-36","BIQ",NA,"SUPPRF46255"
"9",1702915094411,"18/12/2023 15:58:14",1702915094411,0,"18/12/2023 15:58:14",157680,2,"task-gjqt",NA,33759038,9985439,NA,"complete",NA,"6580620e8ba223be6247ca81","computer","Desktop or Laptop","Windows 10","Chrome 120.0.0.0","1536x864","1536x730",NA,NA,0,"BIQ (Charlotte)",3,"CDBEAFJGIH","Passed AC2",NA,"Spreadsheet1",1,"BIQ","Screen 2","o21mwi",2,"response","3",18992.9,20023.3,20029.4,18992.9,20023.3,20029.4,1,18992.9,1036.5,0,NA,"Rating Scale","Rating Scale",16,"object-86","BIQ",NA,"SUPPRF46255"
"10",1702915122051,"18/12/2023 15:58:42",1702915122051,0,"18/12/2023 15:58:42",157680,2,"task-gjqt",NA,33759038,9985439,NA,"complete",NA,"6580620e8ba223be6247ca81","computer","Desktop or Laptop","Windows 10","Chrome 120.0.0.0","1536x864","1536x730",NA,NA,0,"BIQ (Charlotte)",3,"CDBEAFJGIH","Passed AC2",NA,"Spreadsheet1",1,"BIQ","Screen 3","iz3the",3,"continue","",27650.3000000119,27646.7,27650.3000000119,27650.3000000119,27646.7,27650.3000000119,1,27650.3000000119,0,0,NA,"Click To Continue","Continue Button",22,"object-73","BIQ",NA,"SUPPRF46255"
"11",1702915122054,"18/12/2023 15:58:42",1702915122054,0,"18/12/2023 15:58:42",157680,2,"task-gjqt",NA,33759038,9985439,NA,"complete",NA,"6580620e8ba223be6247ca81","computer","Desktop or Laptop","Windows 10","Chrome 120.0.0.0","1536x864","1536x730",NA,NA,0,"BIQ (Charlotte)",3,"CDBEAFJGIH","Passed AC2",NA,"Spreadsheet1",1,"BIQ","Screen 3","iz3the",3,"response","1",21144.3,27646.7,27652.7,21144.3,27646.7,27652.7,1,21144.3,6508.39999999999,0,NA,"Rating Scale","Rating Scale",2,"object-53","BIQ",NA,"SUPPRF46255"
"12",1702915122055,"18/12/2023 15:58:42",1702915122055,0,"18/12/2023 15:58:42",157680,2,"task-gjqt",NA,33759038,9985439,NA,"complete",NA,"6580620e8ba223be6247ca81","computer","Desktop or Laptop","Windows 10","Chrome 120.0.0.0","1536x864","1536x730",NA,NA,0,"BIQ (Charlotte)",3,"CDBEAFJGIH","Passed AC2",NA,"Spreadsheet1",1,"BIQ","Screen 3","iz3the",3,"response","4",23949.9,27646.7,27652.7,23949.9,27646.7,27652.7,1,23949.9,3702.8,0,NA,"Rating Scale","Rating Scale",9,"object-60","BIQ",NA,"SUPPRF46255"
"13",1702915122055,"18/12/2023 15:58:42",1702915122055,0,"18/12/2023 15:58:42",157680,2,"task-gjqt",NA,33759038,9985439,NA,"complete",NA,"6580620e8ba223be6247ca81","computer","Desktop or Laptop","Windows 10","Chrome 120.0.0.0","1536x864","1536x730",NA,NA,0,"BIQ (Charlotte)",3,"CDBEAFJGIH","Passed AC2",NA,"Spreadsheet1",1,"BIQ","Screen 3","iz3the",3,"response","6",26810.5,27646.7,27652.7,26810.5,27646.7,27652.7,1,26810.5,842.199999999997,0,NA,"Rating Scale","Rating Scale",16,"object-67","BIQ",NA,"SUPPRF46255"
"14",1702915122060,"18/12/2023 15:58:42",1702915122060,0,"18/12/2023 15:58:42",157680,2,"task-gjqt",NA,33759038,9985439,NA,"complete",NA,"6580620e8ba223be6247ca81","computer","Desktop or Laptop","Windows 10","Chrome 120.0.0.0","1536x864","1536x730",NA,NA,0,"BIQ (Charlotte)",3,"CDBEAFJGIH","Passed AC2",NA,"Spreadsheet1",NA,"","","",NA,"5","END",NA,NA,NA,NA,NA,NA,0,NA,NA,NA,NA,"","",NA,"","",NA,"SUPPRF46255"
"1",1702915229208,"18/12/2023 16:00:29",1702915229208,0,"18/12/2023 16:00:29",157680,2,"task-gjqt",NA,33759119,9985552,NA,"complete",NA,"65806c0cc57d45b66f49fac6","computer","Desktop or Laptop","Mac OS 10.15.7","Chrome 120.0.0.0","1710x1107","1710x981",NA,NA,0,"BIQ (Charlotte)",3,"GHFIEJDACB","Passed AC2",NA,"Spreadsheet1",NA,"","","",NA,"5","BEGIN",NA,NA,NA,NA,NA,NA,0,NA,NA,NA,NA,"","",NA,"","",NA,"SUPPRF14988"
"2",1702915247832,"18/12/2023 16:00:47",1702915247832,0,"18/12/2023 16:00:47",157680,2,"task-gjqt",NA,33759119,9985552,NA,"complete",NA,"65806c0cc57d45b66f49fac6","computer","Desktop or Laptop","Mac OS 10.15.7","Chrome 120.0.0.0","1710x1107","1710x981",NA,NA,0,"BIQ (Charlotte)",3,"GHFIEJDACB","Passed AC2",NA,"Spreadsheet1",1,"BIQ","Screen 1","9dh6eq",1,"continue","",18644.9999999996,18633.5,18644.9999999996,18644.9999999996,18633.5,18644.9999999996,1,18644.9999999996,0,0,NA,"Click To Continue","Continue Button",23,"object-48","BIQ",NA,"SUPPRF14988"
"3",1702915247835,"18/12/2023 16:00:47",1702915247835,0,"18/12/2023 16:00:47",157680,2,"task-gjqt",NA,33759119,9985552,NA,"complete",NA,"65806c0cc57d45b66f49fac6","computer","Desktop or Laptop","Mac OS 10.15.7","Chrome 120.0.0.0","1710x1107","1710x981",NA,NA,0,"BIQ (Charlotte)",3,"GHFIEJDACB","Passed AC2",NA,"Spreadsheet1",1,"BIQ","Screen 1","9dh6eq",1,"response","8",10000,18633.5,18649.4,10000,18633.5,18649.4,1,10000,8649.4,0,NA,"Rating Scale","Rating Scale",3,"object-5","BIQ",NA,"SUPPRF14988"
"4",1702915247835,"18/12/2023 16:00:47",1702915247835,0,"18/12/2023 16:00:47",157680,2,"task-gjqt",NA,33759119,9985552,NA,"complete",NA,"65806c0cc57d45b66f49fac6","computer","Desktop or Laptop","Mac OS 10.15.7","Chrome 120.0.0.0","1710x1107","1710x981",NA,NA,0,"BIQ (Charlotte)",3,"GHFIEJDACB","Passed AC2",NA,"Spreadsheet1",1,"BIQ","Screen 1","9dh6eq",1,"response","6",13950.3,18633.5,18649.9,13950.3,18633.5,18649.9,1,13950.3,4699.6,0,NA,"Rating Scale","Rating Scale",10,"object-18","BIQ",NA,"SUPPRF14988"
"5",1702915247836,"18/12/2023 16:00:47",1702915247836,0,"18/12/2023 16:00:47",157680,2,"task-gjqt",NA,33759119,9985552,NA,"complete",NA,"65806c0cc57d45b66f49fac6","computer","Desktop or Laptop","Mac OS 10.15.7","Chrome 120.0.0.0","1710x1107","1710x981",NA,NA,0,"BIQ (Charlotte)",3,"GHFIEJDACB","Passed AC2",NA,"Spreadsheet1",1,"BIQ","Screen 1","9dh6eq",1,"response","2",17750.2,18633.5,18650.1000000011,17750.2,18633.5,18650.1000000011,1,17750.2,899.900000001118,0,NA,"Rating Scale","Rating Scale",17,"object-80","BIQ",NA,"SUPPRF14988"
"6",1702915271842,"18/12/2023 16:01:11",1702915271842,0,"18/12/2023 16:01:11",157680,2,"task-gjqt",NA,33759119,9985552,NA,"complete",NA,"65806c0cc57d45b66f49fac6","computer","Desktop or Laptop","Mac OS 10.15.7","Chrome 120.0.0.0","1710x1107","1710x981",NA,NA,0,"BIQ (Charlotte)",3,"GHFIEJDACB","Passed AC2",NA,"Spreadsheet1",1,"BIQ","Screen 2","o21mwi",2,"continue","",24022.8000000004,24016.6,24022.8000000004,24022.8000000004,24016.6,24022.8000000004,1,24022.8000000004,0,0,NA,"Click To Continue","Continue Button",22,"object-50","BIQ",NA,"SUPPRF14988"
"7",1702915271846,"18/12/2023 16:01:11",1702915271846,0,"18/12/2023 16:01:11",157680,2,"task-gjqt",NA,33759119,9985552,NA,"complete",NA,"65806c0cc57d45b66f49fac6","computer","Desktop or Laptop","Mac OS 10.15.7","Chrome 120.0.0.0","1710x1107","1710x981",NA,NA,0,"BIQ (Charlotte)",3,"GHFIEJDACB","Passed AC2",NA,"Spreadsheet1",1,"BIQ","Screen 2","o21mwi",2,"response","7",4233.2,24016.6,24026.3000000004,4233.2,24016.6,24026.3000000004,1,4233.2,19793.1000000004,0,NA,"Rating Scale","Rating Scale",2,"object-259","BIQ",NA,"SUPPRF14988"
"8",1702915271846,"18/12/2023 16:01:11",1702915271846,0,"18/12/2023 16:01:11",157680,2,"task-gjqt",NA,33759119,9985552,NA,"complete",NA,"65806c0cc57d45b66f49fac6","computer","Desktop or Laptop","Mac OS 10.15.7","Chrome 120.0.0.0","1710x1107","1710x981",NA,NA,0,"BIQ (Charlotte)",3,"GHFIEJDACB","Passed AC2",NA,"Spreadsheet1",1,"BIQ","Screen 2","o21mwi",2,"response","1",9150.1,24016.6,24026.8000000004,9150.1,24016.6,24026.8000000004,1,9150.1,14876.7000000004,0,NA,"Rating Scale","Rating Scale",9,"object-36","BIQ",NA,"SUPPRF14988"
"9",1702915271846,"18/12/2023 16:01:11",1702915271846,0,"18/12/2023 16:01:11",157680,2,"task-gjqt",NA,33759119,9985552,NA,"complete",NA,"65806c0cc57d45b66f49fac6","computer","Desktop or Laptop","Mac OS 10.15.7","Chrome 120.0.0.0","1710x1107","1710x981",NA,NA,0,"BIQ (Charlotte)",3,"GHFIEJDACB","Passed AC2",NA,"Spreadsheet1",1,"BIQ","Screen 2","o21mwi",2,"response","5",23216.7,24016.6,24027.2000000007,23216.7,24016.6,24027.2000000007,1,23216.7,810.500000000742,0,NA,"Rating Scale","Rating Scale",16,"object-86","BIQ",NA,"SUPPRF14988"
"10",1702915284647,"18/12/2023 16:01:24",1702915284647,0,"18/12/2023 16:01:24",157680,2,"task-gjqt",NA,33759119,9985552,NA,"complete",NA,"65806c0cc57d45b66f49fac6","computer","Desktop or Laptop","Mac OS 10.15.7","Chrome 120.0.0.0","1710x1107","1710x981",NA,NA,0,"BIQ (Charlotte)",3,"GHFIEJDACB","Passed AC2",NA,"Spreadsheet1",1,"BIQ","Screen 3","iz3the",3,"continue","",12810.8999999996,12800.5,12810.8999999996,12810.8999999996,12800.5,12810.8999999996,1,12810.8999999996,0,0,NA,"Click To Continue","Continue Button",22,"object-73","BIQ",NA,"SUPPRF14988"
"11",1702915284651,"18/12/2023 16:01:24",1702915284651,0,"18/12/2023 16:01:24",157680,2,"task-gjqt",NA,33759119,9985552,NA,"complete",NA,"65806c0cc57d45b66f49fac6","computer","Desktop or Laptop","Mac OS 10.15.7","Chrome 120.0.0.0","1710x1107","1710x981",NA,NA,0,"BIQ (Charlotte)",3,"GHFIEJDACB","Passed AC2",NA,"Spreadsheet1",1,"BIQ","Screen 3","iz3the",3,"response","1",6466.9,12800.5,12815.0000000011,6466.9,12800.5,12815.0000000011,1,6466.9,6348.10000000112,0,NA,"Rating Scale","Rating Scale",2,"object-53","BIQ",NA,"SUPPRF14988"
"12",1702915284652,"18/12/2023 16:01:24",1702915284652,0,"18/12/2023 16:01:24",157680,2,"task-gjqt",NA,33759119,9985552,NA,"complete",NA,"65806c0cc57d45b66f49fac6","computer","Desktop or Laptop","Mac OS 10.15.7","Chrome 120.0.0.0","1710x1107","1710x981",NA,NA,0,"BIQ (Charlotte)",3,"GHFIEJDACB","Passed AC2",NA,"Spreadsheet1",1,"BIQ","Screen 3","iz3the",3,"response","3",9050.2,12800.5,12815.6000000007,9050.2,12800.5,12815.6000000007,1,9050.2,3765.40000000074,0,NA,"Rating Scale","Rating Scale",9,"object-60","BIQ",NA,"SUPPRF14988"
"13",1702915284652,"18/12/2023 16:01:24",1702915284652,0,"18/12/2023 16:01:24",157680,2,"task-gjqt",NA,33759119,9985552,NA,"complete",NA,"65806c0cc57d45b66f49fac6","computer","Desktop or Laptop","Mac OS 10.15.7","Chrome 120.0.0.0","1710x1107","1710x981",NA,NA,0,"BIQ (Charlotte)",3,"GHFIEJDACB","Passed AC2",NA,"Spreadsheet1",1,"BIQ","Screen 3","iz3the",3,"response","4",12067.2,12800.5,12815.8999999996,12067.2,12800.5,12815.8999999996,1,12067.2,748.699999999626,0,NA,"Rating Scale","Rating Scale",16,"object-67","BIQ",NA,"SUPPRF14988"
