"Event.Index","UTC.Timestamp","UTC.Date.and.Time","Local.Timestamp","Local.Timezone","Local.Date.and.Time","Experiment.ID","Experiment.Version","Tree.Node.Key","Repeat.Key","Schedule.ID","Participant.Private.ID","Participant.Starting.Group","Participant.Status","Participant.Completion.Code","Participant.External.Session.ID","Participant.Device.Type","Participant.Device","Participant.OS","Participant.Browser","Participant.Monitor.Size","Participant.Viewport.Size","Checkpoint","Room.ID","Room.Order","Task.Name","Task.Version","order.ot79","branch.g31k","branch.5gtn","Spreadsheet","Trial.Number","Display","Screen","Screen.ID","Screen.Counter","Response.Type","Response","Onset.Time","Clock.Time","Reaction.Time","Absolute.Onset.Time","Absolute.Clock.Time","Absolute.Reaction.Time","Correct","Response.Onset","Response.Duration","Proportion","Tag","Component.Name","Object.Name","Object.Number","Object.ID","Spreadsheet..display","Manipulation..Spreadsheet","Random_ID"
"1",1702911371619,"18/12/2023 14:56:11",1702911371619,0,"18/12/2023 14:56:11",157680,2,"task-w25u",NA,33757609,9985032,NA,"complete",NA,"65805a6478141009e3ad2700","computer","Desktop or Laptop","Windows 10","Chrome 120.0.0.0","1536x864","1536x730",NA,NA,0,"Task Introduction and Instructions (re-introduce video and audio)",1,"ABJCIDHEGF","Passed AC2",NA,"Spreadsheet1",NA,"","","",NA,"5","BEGIN",NA,NA,NA,NA,NA,NA,0,NA,NA,NA,NA,"","",NA,"","",NA,"SUPPRF23130"
"2",1702911376276,"18/12/2023 14:56:16",1702911376276,0,"18/12/2023 14:56:16",157680,2,"task-w25u",NA,33757609,9985032,NA,"complete",NA,"65805a6478141009e3ad2700","computer","Desktop or Laptop","Windows 10","Chrome 120.0.0.0","1536x864","1536x730",NA,NA,0,"Task Introduction and Instructions (re-introduce video and audio)",1,"ABJCIDHEGF","Passed AC2",NA,"Spreadsheet1",1,"Task Instructions","Screen 1","anr7sn",1,"continue","",4448.89999998808,4433.4,4448.89999998808,4448.89999998808,4433.4,4448.89999998808,1,4448.89999998808,0,0,NA,"Click To Continue","Continue Button",2,"object-1944","Task Instructions",NA,"SUPPRF23130"
"3",1702911381088,"18/12/2023 14:56:21",1702911381088,0,"18/12/2023 14:56:21",157680,2,"task-w25u",NA,33757609,9985032,NA,"complete",NA,"65805a6478141009e3ad2700","computer","Desktop or Laptop","Windows 10","Chrome 120.0.0.0","1536x864","1536x730",NA,NA,0,"Task Introduction and Instructions (re-introduce video and audio)",1,"ABJCIDHEGF","Passed AC2",NA,"Spreadsheet1",1,"Task Instructions","Screen 2","ce2tc8",2,"continue","",4826.8,4816.7,4826.8,4826.8,4816.7,4826.8,1,4826.8,0,0,NA,"Click To Continue","Continue Button",2,"object-7","Task Instructions",NA,"SUPPRF23130"
"4",1702911384280,"18/12/2023 14:56:24",1702911384280,0,"18/12/2023 14:56:24",157680,2,"task-w25u",NA,33757609,9985032,NA,"complete",NA,"65805a6478141009e3ad2700","computer","Desktop or Laptop","Windows 10","Chrome 120.0.0.0","1536x864","1536x730",NA,NA,0,"Task Introduction and Instructions (re-introduce video and audio)",1,"ABJCIDHEGF","Passed AC2",NA,"Spreadsheet1",1,"Task Instructions","Screen 3","1qtc8v",3,"continue","",3202.50000000596,3199.9,3202.50000000596,3202.50000000596,3199.9,3202.50000000596,1,3202.50000000596,0,0,NA,"Click To Continue","Continue Button",2,"object-52","Task Instructions",NA,"SUPPRF23130"
"5",1702911390893,"18/12/2023 14:56:30",1702911390893,0,"18/12/2023 14:56:30",157680,2,"task-w25u",NA,33757609,9985032,NA,"complete",NA,"65805a6478141009e3ad2700","computer","Desktop or Laptop","Windows 10","Chrome 120.0.0.0","1536x864","1536x730",NA,NA,0,"Task Introduction and Instructions (re-introduce video and audio)",1,"ABJCIDHEGF","Passed AC2",NA,"Spreadsheet1",1,"Task Instructions","Screen 4","spepx9",4,"continue","",6616.10000000596,6600.2,6616.10000000596,6616.10000000596,6600.2,6616.10000000596,1,6616.10000000596,0,0,NA,"Click To Continue","Continue Button",2,"object-9","Task Instructions",NA,"SUPPRF23130"
"6",1702911393897,"18/12/2023 14:56:33",1702911393897,0,"18/12/2023 14:56:33",157680,2,"task-w25u",NA,33757609,9985032,NA,"complete",NA,"65805a6478141009e3ad2700","computer","Desktop or Laptop","Windows 10","Chrome 120.0.0.0","1536x864","1536x730",NA,NA,0,"Task Introduction and Instructions (re-introduce video and audio)",1,"ABJCIDHEGF","Passed AC2",NA,"Spreadsheet1",1,"Task Instructions","Screen 5","8nvnao",5,"continue","",3020,3016.7,3020,3020,3016.7,3020,1,3020,0,0,NA,"Click To Continue","Continue Button",2,"object-44","Task Instructions",NA,"SUPPRF23130"
"7",1702911393898,"18/12/2023 14:56:33",1702911393898,0,"18/12/2023 14:56:33",157680,2,"task-w25u",NA,33757609,9985032,NA,"complete",NA,"65805a6478141009e3ad2700","computer","Desktop or Laptop","Windows 10","Chrome 120.0.0.0","1536x864","1536x730",NA,NA,0,"Task Introduction and Instructions (re-introduce video and audio)",1,"ABJCIDHEGF","Passed AC2",NA,"Spreadsheet1",NA,"","","",NA,"5","END",NA,NA,NA,NA,NA,NA,0,NA,NA,NA,NA,"","",NA,"","",NA,"SUPPRF23130"
"1",1702912511496,"18/12/2023 15:15:11",1702912511496,0,"18/12/2023 15:15:11",157680,2,"task-w25u",NA,33758095,9985135,NA,"complete",NA,"65805e99a3d357b82d00161a","computer","Desktop or Laptop","Windows 10","Chrome 120.0.0.0","1368x912","1368x743",NA,NA,0,"Task Introduction and Instructions (re-introduce video and audio)",1,"BCADJEIFHG","Passed AC2",NA,"Spreadsheet1",NA,"","","",NA,"5","BEGIN",NA,NA,NA,NA,NA,NA,0,NA,NA,NA,NA,"","",NA,"","",NA,"SUPPRF57988"
"2",1702912514646,"18/12/2023 15:15:14",1702912514646,0,"18/12/2023 15:15:14",157680,2,"task-w25u",NA,33758095,9985135,NA,"complete",NA,"65805e99a3d357b82d00161a","computer","Desktop or Laptop","Windows 10","Chrome 120.0.0.0","1368x912","1368x743",NA,NA,0,"Task Introduction and Instructions (re-introduce video and audio)",1,"BCADJEIFHG","Passed AC2",NA,"Spreadsheet1",1,"Task Instructions","Screen 1","anr7sn",1,"continue","",3008.79999995232,3002.1,3008.79999995232,3008.79999995232,3002.1,3008.79999995232,1,3008.79999995232,0,0,NA,"Click To Continue","Continue Button",2,"object-1944","Task Instructions",NA,"SUPPRF57988"
"3",1702912522643,"18/12/2023 15:15:22",1702912522643,0,"18/12/2023 15:15:22",157680,2,"task-w25u",NA,33758095,9985135,NA,"complete",NA,"65805e99a3d357b82d00161a","computer","Desktop or Laptop","Windows 10","Chrome 120.0.0.0","1368x912","1368x743",NA,NA,0,"Task Introduction and Instructions (re-introduce video and audio)",1,"BCADJEIFHG","Passed AC2",NA,"Spreadsheet1",1,"Task Instructions","Screen 2","ce2tc8",2,"continue","",8004.19999995232,7989,8004.19999995232,8004.19999995232,7989,8004.19999995232,1,8004.19999995232,0,0,NA,"Click To Continue","Continue Button",2,"object-7","Task Instructions",NA,"SUPPRF57988"
"4",1702912526322,"18/12/2023 15:15:26",1702912526322,0,"18/12/2023 15:15:26",157680,2,"task-w25u",NA,33758095,9985135,NA,"complete",NA,"65805e99a3d357b82d00161a","computer","Desktop or Laptop","Windows 10","Chrome 120.0.0.0","1368x912","1368x743",NA,NA,0,"Task Introduction and Instructions (re-introduce video and audio)",1,"BCADJEIFHG","Passed AC2",NA,"Spreadsheet1",1,"Task Instructions","Screen 3","1qtc8v",3,"continue","",3694.29999997616,3686,3694.29999997616,3694.29999997616,3686,3694.29999997616,1,3694.29999997616,0,0,NA,"Click To Continue","Continue Button",2,"object-52","Task Instructions",NA,"SUPPRF57988"
"5",1702912541197,"18/12/2023 15:15:41",1702912541197,0,"18/12/2023 15:15:41",157680,2,"task-w25u",NA,33758095,9985135,NA,"complete",NA,"65805e99a3d357b82d00161a","computer","Desktop or Laptop","Windows 10","Chrome 120.0.0.0","1368x912","1368x743",NA,NA,0,"Task Introduction and Instructions (re-introduce video and audio)",1,"BCADJEIFHG","Passed AC2",NA,"Spreadsheet1",1,"Task Instructions","Screen 4","spepx9",4,"continue","",14883.0999999881,14876.9,14883.0999999881,14883.0999999881,14876.9,14883.0999999881,1,14883.0999999881,0,0,NA,"Click To Continue","Continue Button",2,"object-9","Task Instructions",NA,"SUPPRF57988"
"6",1702912544149,"18/12/2023 15:15:44",1702912544149,0,"18/12/2023 15:15:44",157680,2,"task-w25u",NA,33758095,9985135,NA,"complete",NA,"65805e99a3d357b82d00161a","computer","Desktop or Laptop","Windows 10","Chrome 120.0.0.0","1368x912","1368x743",NA,NA,0,"Task Introduction and Instructions (re-introduce video and audio)",1,"BCADJEIFHG","Passed AC2",NA,"Spreadsheet1",1,"Task Instructions","Screen 5","8nvnao",5,"continue","",2958.29999995232,2952.4,2958.29999995232,2958.29999995232,2952.4,2958.29999995232,1,2958.29999995232,0,0,NA,"Click To Continue","Continue Button",2,"object-44","Task Instructions",NA,"SUPPRF57988"
"7",1702912544152,"18/12/2023 15:15:44",1702912544152,0,"18/12/2023 15:15:44",157680,2,"task-w25u",NA,33758095,9985135,NA,"complete",NA,"65805e99a3d357b82d00161a","computer","Desktop or Laptop","Windows 10","Chrome 120.0.0.0","1368x912","1368x743",NA,NA,0,"Task Introduction and Instructions (re-introduce video and audio)",1,"BCADJEIFHG","Passed AC2",NA,"Spreadsheet1",NA,"","","",NA,"5","END",NA,NA,NA,NA,NA,NA,0,NA,NA,NA,NA,"","",NA,"","",NA,"SUPPRF57988"
"1",1702912697788,"18/12/2023 15:18:17",1702912697788,0,"18/12/2023 15:18:17",157680,2,"task-w25u",NA,33758170,9985172,NA,"complete",NA,"658060219614e1dcd60d2ad8","computer","Desktop or Laptop","Windows 10","Chrome 120.0.0.0","1280x720","1280x593",NA,NA,0,"Task Introduction and Instructions (re-introduce video and audio)",1,"CDBEAFJGIH","Passed AC2",NA,"Spreadsheet1",NA,"","","",NA,"5","BEGIN",NA,NA,NA,NA,NA,NA,0,NA,NA,NA,NA,"","",NA,"","",NA,"SUPPRF28201"
"2",1702912702464,"18/12/2023 15:18:22",1702912702464,0,"18/12/2023 15:18:22",157680,2,"task-w25u",NA,33758170,9985172,NA,"complete",NA,"658060219614e1dcd60d2ad8","computer","Desktop or Laptop","Windows 10","Chrome 120.0.0.0","1280x720","1280x593",NA,NA,0,"Task Introduction and Instructions (re-introduce video and audio)",1,"CDBEAFJGIH","Passed AC2",NA,"Spreadsheet1",1,"Task Instructions","Screen 1","anr7sn",1,"continue","",4595.20000002384,4584.9,4595.20000002384,4595.20000002384,4584.9,4595.20000002384,1,4595.20000002384,0,0,NA,"Click To Continue","Continue Button",2,"object-1944","Task Instructions",NA,"SUPPRF28201"
"3",1702912722384,"18/12/2023 15:18:42",1702912722384,0,"18/12/2023 15:18:42",157680,2,"task-w25u",NA,33758170,9985172,NA,"complete",NA,"658060219614e1dcd60d2ad8","computer","Desktop or Laptop","Windows 10","Chrome 120.0.0.0","1280x720","1280x593",NA,NA,0,"Task Introduction and Instructions (re-introduce video and audio)",1,"CDBEAFJGIH","Passed AC2",NA,"Spreadsheet1",1,"Task Instructions","Screen 2","ce2tc8",2,"continue","",19929.3000000238,19921.8,19929.3000000238,19929.3000000238,19921.8,19929.3000000238,1,19929.3000000238,0,0,NA,"Click To Continue","Continue Button",2,"object-7","Task Instructions",NA,"SUPPRF28201"
"4",1702912726364,"18/12/2023 15:18:46",1702912726364,0,"18/12/2023 15:18:46",157680,2,"task-w25u",NA,33758170,9985172,NA,"complete",NA,"658060219614e1dcd60d2ad8","computer","Desktop or Laptop","Windows 10","Chrome 120.0.0.0","1280x720","1280x593",NA,NA,0,"Task Introduction and Instructions (re-introduce video and audio)",1,"CDBEAFJGIH","Passed AC2",NA,"Spreadsheet1",1,"Task Instructions","Screen 3","1qtc8v",3,"continue","",3987.50000002384,3984.4,3987.50000002384,3987.50000002384,3984.4,3987.50000002384,1,3987.50000002384,0,0,NA,"Click To Continue","Continue Button",2,"object-52","Task Instructions",NA,"SUPPRF28201"
"5",1702912729464,"18/12/2023 15:18:49",1702912729464,0,"18/12/2023 15:18:49",157680,2,"task-w25u",NA,33758170,9985172,NA,"complete",NA,"658060219614e1dcd60d2ad8","computer","Desktop or Laptop","Windows 10","Chrome 120.0.0.0","1280x720","1280x593",NA,NA,0,"Task Introduction and Instructions (re-introduce video and audio)",1,"CDBEAFJGIH","Passed AC2",NA,"Spreadsheet1",1,"Task Instructions","Screen 4","spepx9",4,"continue","",3103.30000007153,3100.9,3103.30000007153,3103.30000007153,3100.9,3103.30000007153,1,3103.30000007153,0,0,NA,"Click To Continue","Continue Button",2,"object-9","Task Instructions",NA,"SUPPRF28201"
"6",1702912732416,"18/12/2023 15:18:52",1702912732416,0,"18/12/2023 15:18:52",157680,2,"task-w25u",NA,33758170,9985172,NA,"complete",NA,"658060219614e1dcd60d2ad8","computer","Desktop or Laptop","Windows 10","Chrome 120.0.0.0","1280x720","1280x593",NA,NA,0,"Task Introduction and Instructions (re-introduce video and audio)",1,"CDBEAFJGIH","Passed AC2",NA,"Spreadsheet1",1,"Task Instructions","Screen 5","8nvnao",5,"continue","",2954.49999997616,2950.7,2954.49999997616,2954.49999997616,2950.7,2954.49999997616,1,2954.49999997616,0,0,NA,"Click To Continue","Continue Button",2,"object-44","Task Instructions",NA,"SUPPRF28201"
"7",1702912732419,"18/12/2023 15:18:52",1702912732419,0,"18/12/2023 15:18:52",157680,2,"task-w25u",NA,33758170,9985172,NA,"complete",NA,"658060219614e1dcd60d2ad8","computer","Desktop or Laptop","Windows 10","Chrome 120.0.0.0","1280x720","1280x593",NA,NA,0,"Task Introduction and Instructions (re-introduce video and audio)",1,"CDBEAFJGIH","Passed AC2",NA,"Spreadsheet1",NA,"","","",NA,"5","END",NA,NA,NA,NA,NA,NA,0,NA,NA,NA,NA,"","",NA,"","",NA,"SUPPRF28201"
"1",1702912682499,"18/12/2023 15:18:02",1702912682499,0,"18/12/2023 15:18:02",157680,2,"task-w25u",NA,33758159,9985173,NA,"complete",NA,"65806021c3e28b7307ddf8b2","computer","Desktop or Laptop","Windows 10","Chrome 119.0.0.0","1920x1080","1920x919",NA,NA,0,"Task Introduction and Instructions (re-introduce video and audio)",1,"DECFBGAHJI","Passed AC2",NA,"Spreadsheet1",NA,"","","",NA,"5","BEGIN",NA,NA,NA,NA,NA,NA,0,NA,NA,NA,NA,"","",NA,"","",NA,"SUPPRF94387"
"2",1702912719129,"18/12/2023 15:18:39",1702912719129,0,"18/12/2023 15:18:39",157680,2,"task-w25u",NA,33758159,9985173,NA,"complete",NA,"65806021c3e28b7307ddf8b2","computer","Desktop or Laptop","Windows 10","Chrome 119.0.0.0","1920x1080","1920x919",NA,NA,0,"Task Introduction and Instructions (re-introduce video and audio)",1,"DECFBGAHJI","Passed AC2",NA,"Spreadsheet1",1,"Task Instructions","Screen 1","anr7sn",1,"continue","",36522.9480001907,36513.334,36522.9480001907,36522.9480001907,36513.334,36522.9480001907,1,36522.9480001907,0,0,NA,"Click To Continue","Continue Button",2,"object-1944","Task Instructions",NA,"SUPPRF94387"
"3",1702912727273,"18/12/2023 15:18:47",1702912727273,0,"18/12/2023 15:18:47",157680,2,"task-w25u",NA,33758159,9985173,NA,"complete",NA,"65806021c3e28b7307ddf8b2","computer","Desktop or Laptop","Windows 10","Chrome 119.0.0.0","1920x1080","1920x919",NA,NA,0,"Task Introduction and Instructions (re-introduce video and audio)",1,"DECFBGAHJI","Passed AC2",NA,"Spreadsheet1",1,"Task Instructions","Screen 2","ce2tc8",2,"continue","",8154.61400019073,8148.959,8154.61400019073,8154.61400019073,8148.959,8154.61400019073,1,8154.61400019073,0,0,NA,"Click To Continue","Continue Button",2,"object-7","Task Instructions",NA,"SUPPRF94387"
"4",1702912730660,"18/12/2023 15:18:50",1702912730660,0,"18/12/2023 15:18:50",157680,2,"task-w25u",NA,33758159,9985173,NA,"complete",NA,"65806021c3e28b7307ddf8b2","computer","Desktop or Laptop","Windows 10","Chrome 119.0.0.0","1920x1080","1920x919",NA,NA,0,"Task Introduction and Instructions (re-introduce video and audio)",1,"DECFBGAHJI","Passed AC2",NA,"Spreadsheet1",1,"Task Instructions","Screen 3","1qtc8v",3,"continue","",3392.75500009537,3382.847,3392.75500009537,3392.75500009537,3382.847,3392.75500009537,1,3392.75500009537,0,0,NA,"Click To Continue","Continue Button",2,"object-52","Task Instructions",NA,"SUPPRF94387"
"5",1702912733218,"18/12/2023 15:18:53",1702912733218,0,"18/12/2023 15:18:53",157680,2,"task-w25u",NA,33758159,9985173,NA,"complete",NA,"65806021c3e28b7307ddf8b2","computer","Desktop or Laptop","Windows 10","Chrome 119.0.0.0","1920x1080","1920x919",NA,NA,0,"Task Introduction and Instructions (re-introduce video and audio)",1,"DECFBGAHJI","Passed AC2",NA,"Spreadsheet1",1,"Task Instructions","Screen 4","spepx9",4,"continue","",2566.15000000001,2549.74000000001,2566.15000000001,2566.15000000001,2549.74000000001,2566.15000000001,1,2566.15000000001,0,0,NA,"Click To Continue","Continue Button",2,"object-9","Task Instructions",NA,"SUPPRF94387"
"6",1702912736481,"18/12/2023 15:18:56",1702912736481,0,"18/12/2023 15:18:56",157680,2,"task-w25u",NA,33758159,9985173,NA,"complete",NA,"65806021c3e28b7307ddf8b2","computer","Desktop or Laptop","Windows 10","Chrome 119.0.0.0","1920x1080","1920x919",NA,NA,0,"Task Introduction and Instructions (re-introduce video and audio)",1,"DECFBGAHJI","Passed AC2",NA,"Spreadsheet1",1,"Task Instructions","Screen 5","8nvnao",5,"continue","",3280.4680002861,3266.69,3280.4680002861,3280.4680002861,3266.69,3280.4680002861,1,3280.4680002861,0,0,NA,"Click To Continue","Continue Button",2,"object-44","Task Instructions",NA,"SUPPRF94387"
"7",1702912736485,"18/12/2023 15:18:56",1702912736485,0,"18/12/2023 15:18:56",157680,2,"task-w25u",NA,33758159,9985173,NA,"complete",NA,"65806021c3e28b7307ddf8b2","computer","Desktop or Laptop","Windows 10","Chrome 119.0.0.0","1920x1080","1920x919",NA,NA,0,"Task Introduction and Instructions (re-introduce video and audio)",1,"DECFBGAHJI","Passed AC2",NA,"Spreadsheet1",NA,"","","",NA,"5","END",NA,NA,NA,NA,NA,NA,0,NA,NA,NA,NA,"","",NA,"","",NA,"SUPPRF94387"
"1",1702913340726,"18/12/2023 15:29:00",1702913340726,0,"18/12/2023 15:29:00",157680,2,"task-w25u",NA,33758417,9985185,NA,"complete",NA,"6580606ca34037ddf9e4da74","computer","Desktop or Laptop","Windows 10","Chrome 120.0.0.0","1366x768","1366x641",NA,NA,0,"Task Introduction and Instructions (re-introduce video and audio)",1,"EFDGCHBIAJ","Passed AC2",NA,"Spreadsheet1",NA,"","","",NA,"5","BEGIN",NA,NA,NA,NA,NA,NA,0,NA,NA,NA,NA,"","",NA,"","",NA,"SUPPRF06891"
"2",1702913345866,"18/12/2023 15:29:05",1702913345866,0,"18/12/2023 15:29:05",157680,2,"task-w25u",NA,33758417,9985185,NA,"complete",NA,"6580606ca34037ddf9e4da74","computer","Desktop or Laptop","Windows 10","Chrome 120.0.0.0","1366x768","1366x641",NA,NA,0,"Task Introduction and Instructions (re-introduce video and audio)",1,"EFDGCHBIAJ","Passed AC2",NA,"Spreadsheet1",1,"Task Instructions","Screen 1","anr7sn",1,"continue","",5039.39999998808,5032.7,5039.39999998808,5039.39999998808,5032.7,5039.39999998808,1,5039.39999998808,0,0,NA,"Click To Continue","Continue Button",2,"object-1944","Task Instructions",NA,"SUPPRF06891"
"3",1702913374286,"18/12/2023 15:29:34",1702913374286,0,"18/12/2023 15:29:34",157680,2,"task-w25u",NA,33758417,9985185,NA,"complete",NA,"6580606ca34037ddf9e4da74","computer","Desktop or Laptop","Windows 10","Chrome 120.0.0.0","1366x768","1366x641",NA,NA,0,"Task Introduction and Instructions (re-introduce video and audio)",1,"EFDGCHBIAJ","Passed AC2",NA,"Spreadsheet1",1,"Task Instructions","Screen 2","ce2tc8",2,"continue","",28426.5999999642,28412,28426.5999999642,28426.5999999642,28412,28426.5999999642,1,28426.5999999642,0,0,NA,"Click To Continue","Continue Button",2,"object-7","Task Instructions",NA,"SUPPRF06891"
"4",1702913381262,"18/12/2023 15:29:41",1702913381262,0,"18/12/2023 15:29:41",157680,2,"task-w25u",NA,33758417,9985185,NA,"complete",NA,"6580606ca34037ddf9e4da74","computer","Desktop or Laptop","Windows 10","Chrome 120.0.0.0","1366x768","1366x641",NA,NA,0,"Task Introduction and Instructions (re-introduce video and audio)",1,"EFDGCHBIAJ","Passed AC2",NA,"Spreadsheet1",1,"Task Instructions","Screen 3","1qtc8v",3,"continue","",6991.09999996424,6982.2,6991.09999996424,6991.09999996424,6982.2,6991.09999996424,1,6991.09999996424,0,0,NA,"Click To Continue","Continue Button",2,"object-52","Task Instructions",NA,"SUPPRF06891"
"5",1702913384810,"18/12/2023 15:29:44",1702913384810,0,"18/12/2023 15:29:44",157680,2,"task-w25u",NA,33758417,9985185,NA,"complete",NA,"6580606ca34037ddf9e4da74","computer","Desktop or Laptop","Windows 10","Chrome 120.0.0.0","1366x768","1366x641",NA,NA,0,"Task Introduction and Instructions (re-introduce video and audio)",1,"EFDGCHBIAJ","Passed AC2",NA,"Spreadsheet1",1,"Task Instructions","Screen 4","spepx9",4,"continue","",3557.10000001192,3549.4,3557.10000001192,3557.10000001192,3549.4,3557.10000001192,1,3557.10000001192,0,0,NA,"Click To Continue","Continue Button",2,"object-9","Task Instructions",NA,"SUPPRF06891"
"6",1702913387998,"18/12/2023 15:29:47",1702913387998,0,"18/12/2023 15:29:47",157680,2,"task-w25u",NA,33758417,9985185,NA,"complete",NA,"6580606ca34037ddf9e4da74","computer","Desktop or Laptop","Windows 10","Chrome 120.0.0.0","1366x768","1366x641",NA,NA,0,"Task Introduction and Instructions (re-introduce video and audio)",1,"EFDGCHBIAJ","Passed AC2",NA,"Spreadsheet1",1,"Task Instructions","Screen 5","8nvnao",5,"continue","",3196.29999997616,3182.8,3196.29999997616,3196.29999997616,3182.8,3196.29999997616,1,3196.29999997616,0,0,NA,"Click To Continue","Continue Button",2,"object-44","Task Instructions",NA,"SUPPRF06891"
"7",1702913388000,"18/12/2023 15:29:48",1702913388000,0,"18/12/2023 15:29:48",157680,2,"task-w25u",NA,33758417,9985185,NA,"complete",NA,"6580606ca34037ddf9e4da74","computer","Desktop or Laptop","Windows 10","Chrome 120.0.0.0","1366x768","1366x641",NA,NA,0,"Task Introduction and Instructions (re-introduce video and audio)",1,"EFDGCHBIAJ","Passed AC2",NA,"Spreadsheet1",NA,"","","",NA,"5","END",NA,NA,NA,NA,NA,NA,0,NA,NA,NA,NA,"","",NA,"","",NA,"SUPPRF06891"
"1",1702912979833,"18/12/2023 15:22:59",1702912979833,0,"18/12/2023 15:22:59",157680,2,"task-w25u",NA,33758287,9985241,NA,"complete",NA,"6580619847284eff914f8da1","computer","Desktop or Laptop","Windows 10","Chrome 120.0.0.0","1280x720","1280x551",NA,NA,0,"Task Introduction and Instructions (re-introduce video and audio)",1,"GHFIEJDACB","Passed AC2",NA,"Spreadsheet1",NA,"","","",NA,"5","BEGIN",NA,NA,NA,NA,NA,NA,0,NA,NA,NA,NA,"","",NA,"","",NA,"SUPPRF35199"
"2",1702912982948,"18/12/2023 15:23:02",1702912982948,0,"18/12/2023 15:23:02",157680,2,"task-w25u",NA,33758287,9985241,NA,"complete",NA,"6580619847284eff914f8da1","computer","Desktop or Laptop","Windows 10","Chrome 120.0.0.0","1280x720","1280x551",NA,NA,0,"Task Introduction and Instructions (re-introduce video and audio)",1,"GHFIEJDACB","Passed AC2",NA,"Spreadsheet1",1,"Task Instructions","Screen 1","anr7sn",1,"continue","",3050.8,3033.8,3050.8,3050.8,3033.8,3050.8,1,3050.8,0,0,NA,"Click To Continue","Continue Button",2,"object-1944","Task Instructions",NA,"SUPPRF35199"
"3",1702912988515,"18/12/2023 15:23:08",1702912988515,0,"18/12/2023 15:23:08",157680,2,"task-w25u",NA,33758287,9985241,NA,"complete",NA,"6580619847284eff914f8da1","computer","Desktop or Laptop","Windows 10","Chrome 120.0.0.0","1280x720","1280x551",NA,NA,0,"Task Introduction and Instructions (re-introduce video and audio)",1,"GHFIEJDACB","Passed AC2",NA,"Spreadsheet1",1,"Task Instructions","Screen 2","ce2tc8",2,"continue","",5585.1,5582.4,5585.1,5585.1,5582.4,5585.1,1,5585.1,0,0,NA,"Click To Continue","Continue Button",2,"object-7","Task Instructions",NA,"SUPPRF35199"
"4",1702912991026,"18/12/2023 15:23:11",1702912991026,0,"18/12/2023 15:23:11",157680,2,"task-w25u",NA,33758287,9985241,NA,"complete",NA,"6580619847284eff914f8da1","computer","Desktop or Laptop","Windows 10","Chrome 120.0.0.0","1280x720","1280x551",NA,NA,0,"Task Introduction and Instructions (re-introduce video and audio)",1,"GHFIEJDACB","Passed AC2",NA,"Spreadsheet1",1,"Task Instructions","Screen 3","1qtc8v",3,"continue","",2513.89999998808,2499.9,2513.89999998808,2513.89999998808,2499.9,2513.89999998808,1,2513.89999998808,0,0,NA,"Click To Continue","Continue Button",2,"object-52","Task Instructions",NA,"SUPPRF35199"
"5",1702912993430,"18/12/2023 15:23:13",1702912993430,0,"18/12/2023 15:23:13",157680,2,"task-w25u",NA,33758287,9985241,NA,"complete",NA,"6580619847284eff914f8da1","computer","Desktop or Laptop","Windows 10","Chrome 120.0.0.0","1280x720","1280x551",NA,NA,0,"Task Introduction and Instructions (re-introduce video and audio)",1,"GHFIEJDACB","Passed AC2",NA,"Spreadsheet1",1,"Task Instructions","Screen 4","spepx9",4,"continue","",2418.20000000596,2416.5,2418.20000000596,2418.20000000596,2416.5,2418.20000000596,1,2418.20000000596,0,0,NA,"Click To Continue","Continue Button",2,"object-9","Task Instructions",NA,"SUPPRF35199"
"6",1702912996398,"18/12/2023 15:23:16",1702912996398,0,"18/12/2023 15:23:16",157680,2,"task-w25u",NA,33758287,9985241,NA,"complete",NA,"6580619847284eff914f8da1","computer","Desktop or Laptop","Windows 10","Chrome 120.0.0.0","1280x720","1280x551",NA,NA,0,"Task Introduction and Instructions (re-introduce video and audio)",1,"GHFIEJDACB","Passed AC2",NA,"Spreadsheet1",1,"Task Instructions","Screen 5","8nvnao",5,"continue","",2968.89999999404,2966.6,2968.89999999404,2968.89999999404,2966.6,2968.89999999404,1,2968.89999999404,0,0,NA,"Click To Continue","Continue Button",2,"object-44","Task Instructions",NA,"SUPPRF35199"
"7",1702912996403,"18/12/2023 15:23:16",1702912996403,0,"18/12/2023 15:23:16",157680,2,"task-w25u",NA,33758287,9985241,NA,"complete",NA,"6580619847284eff914f8da1","computer","Desktop or Laptop","Windows 10","Chrome 120.0.0.0","1280x720","1280x551",NA,NA,0,"Task Introduction and Instructions (re-introduce video and audio)",1,"GHFIEJDACB","Passed AC2",NA,"Spreadsheet1",NA,"","","",NA,"5","END",NA,NA,NA,NA,NA,NA,0,NA,NA,NA,NA,"","",NA,"","",NA,"SUPPRF35199"
"1",1702914487132,"18/12/2023 15:48:07",1702914487132,0,"18/12/2023 15:48:07",157680,2,"task-w25u",NA,33758829,9985309,NA,"complete",NA,"658062fa175bf5b6b8e3ae15","computer","Desktop or Laptop","Windows 10","Chrome 120.0.0.0","1536x864","1536x695",NA,NA,0,"Task Introduction and Instructions (re-introduce video and audio)",1,"HIGJFAEBDC","Passed AC2",NA,"Spreadsheet1",NA,"","","",NA,"5","BEGIN",NA,NA,NA,NA,NA,NA,0,NA,NA,NA,NA,"","",NA,"","",NA,"SUPPRF45434"
"2",1702914490513,"18/12/2023 15:48:10",1702914490513,0,"18/12/2023 15:48:10",157680,2,"task-w25u",NA,33758829,9985309,NA,"complete",NA,"658062fa175bf5b6b8e3ae15","computer","Desktop or Laptop","Windows 10","Chrome 120.0.0.0","1536x864","1536x695",NA,NA,0,"Task Introduction and Instructions (re-introduce video and audio)",1,"HIGJFAEBDC","Passed AC2",NA,"Spreadsheet1",1,"Task Instructions","Screen 1","anr7sn",1,"continue","",3248.09999996424,3233.4,3248.09999996424,3248.09999996424,3233.4,3248.09999996424,1,3248.09999996424,0,0,NA,"Click To Continue","Continue Button",2,"object-1944","Task Instructions",NA,"SUPPRF45434"
"3",1702914508752,"18/12/2023 15:48:28",1702914508752,0,"18/12/2023 15:48:28",157680,2,"task-w25u",NA,33758829,9985309,NA,"complete",NA,"658062fa175bf5b6b8e3ae15","computer","Desktop or Laptop","Windows 10","Chrome 120.0.0.0","1536x864","1536x695",NA,NA,0,"Task Introduction and Instructions (re-introduce video and audio)",1,"HIGJFAEBDC","Passed AC2",NA,"Spreadsheet1",1,"Task Instructions","Screen 2","ce2tc8",2,"continue","",18253.8999999523,18250.8,18253.8999999523,18253.8999999523,18250.8,18253.8999999523,1,18253.8999999523,0,0,NA,"Click To Continue","Continue Button",2,"object-7","Task Instructions",NA,"SUPPRF45434"
"4",1702914511705,"18/12/2023 15:48:31",1702914511705,0,"18/12/2023 15:48:31",157680,2,"task-w25u",NA,33758829,9985309,NA,"complete",NA,"658062fa175bf5b6b8e3ae15","computer","Desktop or Laptop","Windows 10","Chrome 120.0.0.0","1536x864","1536x695",NA,NA,0,"Task Introduction and Instructions (re-introduce video and audio)",1,"HIGJFAEBDC","Passed AC2",NA,"Spreadsheet1",1,"Task Instructions","Screen 3","1qtc8v",3,"continue","",2951,2933.9,2951,2951,2933.9,2951,1,2951,0,0,NA,"Click To Continue","Continue Button",2,"object-52","Task Instructions",NA,"SUPPRF45434"
"5",1702914514253,"18/12/2023 15:48:34",1702914514253,0,"18/12/2023 15:48:34",157680,2,"task-w25u",NA,33758829,9985309,NA,"complete",NA,"658062fa175bf5b6b8e3ae15","computer","Desktop or Laptop","Windows 10","Chrome 120.0.0.0","1536x864","1536x695",NA,NA,0,"Task Introduction and Instructions (re-introduce video and audio)",1,"HIGJFAEBDC","Passed AC2",NA,"Spreadsheet1",1,"Task Instructions","Screen 4","spepx9",4,"continue","",2566.90000000001,2550.3,2566.90000000001,2566.90000000001,2550.3,2566.90000000001,1,2566.90000000001,0,0,NA,"Click To Continue","Continue Button",2,"object-9","Task Instructions",NA,"SUPPRF45434"
"6",1702914524442,"18/12/2023 15:48:44",1702914524442,0,"18/12/2023 15:48:44",157680,2,"task-w25u",NA,33758829,9985309,NA,"complete",NA,"658062fa175bf5b6b8e3ae15","computer","Desktop or Laptop","Windows 10","Chrome 120.0.0.0","1536x864","1536x695",NA,NA,0,"Task Introduction and Instructions (re-introduce video and audio)",1,"HIGJFAEBDC","Passed AC2",NA,"Spreadsheet1",1,"Task Instructions","Screen 5","8nvnao",5,"continue","",10209.1,10199.9,10209.1,10209.1,10199.9,10209.1,1,10209.1,0,0,NA,"Click To Continue","Continue Button",2,"object-44","Task Instructions",NA,"SUPPRF45434"
"7",1702914524449,"18/12/2023 15:48:44",1702914524449,0,"18/12/2023 15:48:44",157680,2,"task-w25u",NA,33758829,9985309,NA,"complete",NA,"658062fa175bf5b6b8e3ae15","computer","Desktop or Laptop","Windows 10","Chrome 120.0.0.0","1536x864","1536x695",NA,NA,0,"Task Introduction and Instructions (re-introduce video and audio)",1,"HIGJFAEBDC","Passed AC2",NA,"Spreadsheet1",NA,"","","",NA,"5","END",NA,NA,NA,NA,NA,NA,0,NA,NA,NA,NA,"","",NA,"","",NA,"SUPPRF45434"
"1",1702914397175,"18/12/2023 15:46:37",1702914397175,0,"18/12/2023 15:46:37",157680,2,"task-w25u",NA,33758789,9985406,NA,"complete",NA,"658066e6dddf50355a4936f2","computer","Desktop or Laptop","Windows 10","Chrome 120.0.0.0","1920x1080","1920x911",NA,NA,0,"Task Introduction and Instructions (re-introduce video and audio)",1,"JAIBHCGDFE","Passed AC2",NA,"Spreadsheet1",NA,"","","",NA,"5","BEGIN",NA,NA,NA,NA,NA,NA,0,NA,NA,NA,NA,"","",NA,"","",NA,"SUPPRF83664"
"2",1702914400899,"18/12/2023 15:46:40",1702914400899,0,"18/12/2023 15:46:40",157680,2,"task-w25u",NA,33758789,9985406,NA,"complete",NA,"658066e6dddf50355a4936f2","computer","Desktop or Laptop","Windows 10","Chrome 120.0.0.0","1920x1080","1920x911",NA,NA,0,"Task Introduction and Instructions (re-introduce video and audio)",1,"JAIBHCGDFE","Passed AC2",NA,"Spreadsheet1",1,"Task Instructions","Screen 1","anr7sn",1,"continue","",3605.19999997616,3599.7,3605.19999997616,3605.19999997616,3599.7,3605.19999997616,1,3605.19999997616,0,0,NA,"Click To Continue","Continue Button",2,"object-1944","Task Instructions",NA,"SUPPRF83664"
"3",1702914411699,"18/12/2023 15:46:51",1702914411699,0,"18/12/2023 15:46:51",157680,2,"task-w25u",NA,33758789,9985406,NA,"complete",NA,"658066e6dddf50355a4936f2","computer","Desktop or Laptop","Windows 10","Chrome 120.0.0.0","1920x1080","1920x911",NA,NA,0,"Task Introduction and Instructions (re-introduce video and audio)",1,"JAIBHCGDFE","Passed AC2",NA,"Spreadsheet1",1,"Task Instructions","Screen 2","ce2tc8",2,"continue","",10805.699999994,10799.9,10805.699999994,10805.699999994,10799.9,10805.699999994,1,10805.699999994,0,0,NA,"Click To Continue","Continue Button",2,"object-7","Task Instructions",NA,"SUPPRF83664"
"4",1702914415090,"18/12/2023 15:46:55",1702914415090,0,"18/12/2023 15:46:55",157680,2,"task-w25u",NA,33758789,9985406,NA,"complete",NA,"658066e6dddf50355a4936f2","computer","Desktop or Laptop","Windows 10","Chrome 120.0.0.0","1920x1080","1920x911",NA,NA,0,"Task Introduction and Instructions (re-introduce video and audio)",1,"JAIBHCGDFE","Passed AC2",NA,"Spreadsheet1",1,"Task Instructions","Screen 3","1qtc8v",3,"continue","",3396.79999999404,3383.4,3396.79999999404,3396.79999999404,3383.4,3396.79999999404,1,3396.79999999404,0,0,NA,"Click To Continue","Continue Button",2,"object-52","Task Instructions",NA,"SUPPRF83664"
"5",1702914450783,"18/12/2023 15:47:30",1702914450783,0,"18/12/2023 15:47:30",157680,2,"task-w25u",NA,33758789,9985406,NA,"complete",NA,"658066e6dddf50355a4936f2","computer","Desktop or Laptop","Windows 10","Chrome 120.0.0.0","1920x1080","1920x911",NA,NA,0,"Task Introduction and Instructions (re-introduce video and audio)",1,"JAIBHCGDFE","Passed AC2",NA,"Spreadsheet1",1,"Task Instructions","Screen 4","spepx9",4,"continue","",35706.0999999821,35699.6,35706.0999999821,35706.0999999821,35699.6,35706.0999999821,1,35706.0999999821,0,0,NA,"Click To Continue","Continue Button",2,"object-9","Task Instructions",NA,"SUPPRF83664"
"6",1702914454486,"18/12/2023 15:47:34",1702914454486,0,"18/12/2023 15:47:34",157680,2,"task-w25u",NA,33758789,9985406,NA,"complete",NA,"658066e6dddf50355a4936f2","computer","Desktop or Laptop","Windows 10","Chrome 120.0.0.0","1920x1080","1920x911",NA,NA,0,"Task Introduction and Instructions (re-introduce video and audio)",1,"JAIBHCGDFE","Passed AC2",NA,"Spreadsheet1",1,"Task Instructions","Screen 5","8nvnao",5,"continue","",3709.79999999404,3700.2,3709.79999999404,3709.79999999404,3700.2,3709.79999999404,1,3709.79999999404,0,0,NA,"Click To Continue","Continue Button",2,"object-44","Task Instructions",NA,"SUPPRF83664"
"7",1702914454487,"18/12/2023 15:47:34",1702914454487,0,"18/12/2023 15:47:34",157680,2,"task-w25u",NA,33758789,9985406,NA,"complete",NA,"658066e6dddf50355a4936f2","computer","Desktop or Laptop","Windows 10","Chrome 120.0.0.0","1920x1080","1920x911",NA,NA,0,"Task Introduction and Instructions (re-introduce video and audio)",1,"JAIBHCGDFE","Passed AC2",NA,"Spreadsheet1",NA,"","","",NA,"5","END",NA,NA,NA,NA,NA,NA,0,NA,NA,NA,NA,"","",NA,"","",NA,"SUPPRF83664"
"1",1702914609020,"18/12/2023 15:50:09",1702914609020,0,"18/12/2023 15:50:09",157680,2,"task-w25u",NA,33758890,9985409,NA,"complete",NA,"65806572d71d3bb8e9a351b4","computer","Desktop or Laptop","Windows 10","Chrome 120.0.0.0","1280x720","1280x632",NA,NA,0,"Task Introduction and Instructions (re-introduce video and audio)",1,"BCADJEIFHG","Passed AC2",NA,"Spreadsheet1",NA,"","","",NA,"5","BEGIN",NA,NA,NA,NA,NA,NA,0,NA,NA,NA,NA,"","",NA,"","",NA,"SUPPRF30408"
"2",1702914657619,"18/12/2023 15:50:57",1702914657619,0,"18/12/2023 15:50:57",157680,2,"task-w25u",NA,33758890,9985409,NA,"complete",NA,"65806572d71d3bb8e9a351b4","computer","Desktop or Laptop","Windows 10","Chrome 120.0.0.0","1280x720","1280x632",NA,NA,0,"Task Introduction and Instructions (re-introduce video and audio)",1,"BCADJEIFHG","Passed AC2",NA,"Spreadsheet1",1,"Task Instructions","Screen 1","anr7sn",1,"continue","",48460.2,48426.8,48460.2,48460.2,48426.8,48460.2,1,48460.2,0,0,NA,"Click To Continue","Continue Button",2,"object-1944","Task Instructions",NA,"SUPPRF30408"
"3",1702914661245,"18/12/2023 15:51:01",1702914661245,0,"18/12/2023 15:51:01",157680,2,"task-w25u",NA,33758890,9985409,NA,"complete",NA,"65806572d71d3bb8e9a351b4","computer","Desktop or Laptop","Windows 10","Chrome 120.0.0.0","1280x720","1280x632",NA,NA,0,"Task Introduction and Instructions (re-introduce video and audio)",1,"BCADJEIFHG","Passed AC2",NA,"Spreadsheet1",1,"Task Instructions","Screen 2","ce2tc8",2,"continue","",3660.5,3630.2,3660.5,3660.5,3630.2,3660.5,1,3660.5,0,0,NA,"Click To Continue","Continue Button",2,"object-7","Task Instructions",NA,"SUPPRF30408"
"4",1702914673119,"18/12/2023 15:51:13",1702914673119,0,"18/12/2023 15:51:13",157680,2,"task-w25u",NA,33758890,9985409,NA,"complete",NA,"65806572d71d3bb8e9a351b4","computer","Desktop or Laptop","Windows 10","Chrome 120.0.0.0","1280x720","1280x632",NA,NA,0,"Task Introduction and Instructions (re-introduce video and audio)",1,"BCADJEIFHG","Passed AC2",NA,"Spreadsheet1",1,"Task Instructions","Screen 3","1qtc8v",3,"continue","",11904.4000000001,11890.4,11904.4000000001,11904.4000000001,11890.4,11904.4000000001,1,11904.4000000001,0,0,NA,"Click To Continue","Continue Button",2,"object-52","Task Instructions",NA,"SUPPRF30408"
"5",1702914774835,"18/12/2023 15:52:54",1702914774835,0,"18/12/2023 15:52:54",157680,2,"task-w25u",NA,33758890,9985409,NA,"complete",NA,"65806572d71d3bb8e9a351b4","computer","Desktop or Laptop","Windows 10","Chrome 120.0.0.0","1280x720","1280x632",NA,NA,0,"Task Introduction and Instructions (re-introduce video and audio)",1,"BCADJEIFHG","Passed AC2",NA,"Spreadsheet1",1,"Task Instructions","Screen 4","spepx9",4,"continue","",101729.8,101715.9,101729.8,101729.8,101715.9,101729.8,1,101729.8,0,0,NA,"Click To Continue","Continue Button",2,"object-9","Task Instructions",NA,"SUPPRF30408"
"6",1702914782862,"18/12/2023 15:53:02",1702914782862,0,"18/12/2023 15:53:02",157680,2,"task-w25u",NA,33758890,9985409,NA,"complete",NA,"65806572d71d3bb8e9a351b4","computer","Desktop or Laptop","Windows 10","Chrome 120.0.0.0","1280x720","1280x632",NA,NA,0,"Task Introduction and Instructions (re-introduce video and audio)",1,"BCADJEIFHG","Passed AC2",NA,"Spreadsheet1",1,"Task Instructions","Screen 5","8nvnao",5,"continue","",8040.80000000005,8026.70000000001,8040.80000000005,8040.80000000005,8026.70000000001,8040.80000000005,1,8040.80000000005,0,0,NA,"Click To Continue","Continue Button",2,"object-44","Task Instructions",NA,"SUPPRF30408"
"7",1702914782872,"18/12/2023 15:53:02",1702914782872,0,"18/12/2023 15:53:02",157680,2,"task-w25u",NA,33758890,9985409,NA,"complete",NA,"65806572d71d3bb8e9a351b4","computer","Desktop or Laptop","Windows 10","Chrome 120.0.0.0","1280x720","1280x632",NA,NA,0,"Task Introduction and Instructions (re-introduce video and audio)",1,"BCADJEIFHG","Passed AC2",NA,"Spreadsheet1",NA,"","","",NA,"5","END",NA,NA,NA,NA,NA,NA,0,NA,NA,NA,NA,"","",NA,"","",NA,"SUPPRF30408"
"1",1702915009385,"18/12/2023 15:56:49",1702915009385,0,"18/12/2023 15:56:49",157680,2,"task-w25u",NA,33759024,9985441,NA,"complete",NA,"65806774d3cea6a43bd2f3ef","computer","Desktop or Laptop","Windows 10","Chrome 120.0.0.0","1280x720","1280x559",NA,NA,0,"Task Introduction and Instructions (re-introduce video and audio)",1,"DECFBGAHJI","Passed AC2",NA,"Spreadsheet1",NA,"","","",NA,"5","BEGIN",NA,NA,NA,NA,NA,NA,0,NA,NA,NA,NA,"","",NA,"","",NA,"SUPPRF88256"
"2",1702915012440,"18/12/2023 15:56:52",1702915012440,0,"18/12/2023 15:56:52",157680,2,"task-w25u",NA,33759024,9985441,NA,"complete",NA,"65806774d3cea6a43bd2f3ef","computer","Desktop or Laptop","Windows 10","Chrome 120.0.0.0","1280x720","1280x559",NA,NA,0,"Task Introduction and Instructions (re-introduce video and audio)",1,"DECFBGAHJI","Passed AC2",NA,"Spreadsheet1",1,"Task Instructions","Screen 1","anr7sn",1,"continue","",2919.39999999981,2914.3,2919.39999999981,2919.39999999981,2914.3,2919.39999999981,1,2919.39999999981,0,0,NA,"Click To Continue","Continue Button",2,"object-1944","Task Instructions",NA,"SUPPRF88256"
"3",1702915026002,"18/12/2023 15:57:06",1702915026002,0,"18/12/2023 15:57:06",157680,2,"task-w25u",NA,33759024,9985441,NA,"complete",NA,"65806774d3cea6a43bd2f3ef","computer","Desktop or Laptop","Windows 10","Chrome 120.0.0.0","1280x720","1280x559",NA,NA,0,"Task Introduction and Instructions (re-introduce video and audio)",1,"DECFBGAHJI","Passed AC2",NA,"Spreadsheet1",1,"Task Instructions","Screen 2","ce2tc8",2,"continue","",13567.5999999998,13555.4,13567.5999999998,13567.5999999998,13555.4,13567.5999999998,1,13567.5999999998,0,0,NA,"Click To Continue","Continue Button",2,"object-7","Task Instructions",NA,"SUPPRF88256"
"4",1702915029570,"18/12/2023 15:57:09",1702915029570,0,"18/12/2023 15:57:09",157680,2,"task-w25u",NA,33759024,9985441,NA,"complete",NA,"65806774d3cea6a43bd2f3ef","computer","Desktop or Laptop","Windows 10","Chrome 120.0.0.0","1280x720","1280x559",NA,NA,0,"Task Introduction and Instructions (re-introduce video and audio)",1,"DECFBGAHJI","Passed AC2",NA,"Spreadsheet1",1,"Task Instructions","Screen 3","1qtc8v",3,"continue","",3580.19999999982,3563.7,3580.19999999982,3580.19999999982,3563.7,3580.19999999982,1,3580.19999999982,0,0,NA,"Click To Continue","Continue Button",2,"object-52","Task Instructions",NA,"SUPPRF88256"
"5",1702915032289,"18/12/2023 15:57:12",1702915032289,0,"18/12/2023 15:57:12",157680,2,"task-w25u",NA,33759024,9985441,NA,"complete",NA,"65806774d3cea6a43bd2f3ef","computer","Desktop or Laptop","Windows 10","Chrome 120.0.0.0","1280x720","1280x559",NA,NA,0,"Task Introduction and Instructions (re-introduce video and audio)",1,"DECFBGAHJI","Passed AC2",NA,"Spreadsheet1",1,"Task Instructions","Screen 4","spepx9",4,"continue","",2735.79999999986,2731.2,2735.79999999986,2735.79999999986,2731.2,2735.79999999986,1,2735.79999999986,0,0,NA,"Click To Continue","Continue Button",2,"object-9","Task Instructions",NA,"SUPPRF88256"
"6",1702915034649,"18/12/2023 15:57:14",1702915034649,0,"18/12/2023 15:57:14",157680,2,"task-w25u",NA,33759024,9985441,NA,"complete",NA,"65806774d3cea6a43bd2f3ef","computer","Desktop or Laptop","Windows 10","Chrome 120.0.0.0","1280x720","1280x559",NA,NA,0,"Task Introduction and Instructions (re-introduce video and audio)",1,"DECFBGAHJI","Passed AC2",NA,"Spreadsheet1",1,"Task Instructions","Screen 5","8nvnao",5,"continue","",2364.09999999986,2347.9,2364.09999999986,2364.09999999986,2347.9,2364.09999999986,1,2364.09999999986,0,0,NA,"Click To Continue","Continue Button",2,"object-44","Task Instructions",NA,"SUPPRF88256"
"7",1702915034653,"18/12/2023 15:57:14",1702915034653,0,"18/12/2023 15:57:14",157680,2,"task-w25u",NA,33759024,9985441,NA,"complete",NA,"65806774d3cea6a43bd2f3ef","computer","Desktop or Laptop","Windows 10","Chrome 120.0.0.0","1280x720","1280x559",NA,NA,0,"Task Introduction and Instructions (re-introduce video and audio)",1,"DECFBGAHJI","Passed AC2",NA,"Spreadsheet1",NA,"","","",NA,"5","END",NA,NA,NA,NA,NA,NA,0,NA,NA,NA,NA,"","",NA,"","",NA,"SUPPRF88256"
"1",1702915125647,"18/12/2023 15:58:45",1702915125647,0,"18/12/2023 15:58:45",157680,2,"task-w25u",NA,33759077,9985491,NA,"complete",NA,"658069be0a0dbef3a5667951","computer","Desktop or Laptop","Windows 10","Chrome 120.0.0.0","1536x864","1536x695",NA,NA,0,"Task Introduction and Instructions (re-introduce video and audio)",1,"FGEHDICJBA","Passed AC2",NA,"Spreadsheet1",NA,"","","",NA,"5","BEGIN",NA,NA,NA,NA,NA,NA,0,NA,NA,NA,NA,"","",NA,"","",NA,"SUPPRF55208"
"2",1702915128979,"18/12/2023 15:58:48",1702915128979,0,"18/12/2023 15:58:48",157680,2,"task-w25u",NA,33759077,9985491,NA,"complete",NA,"658069be0a0dbef3a5667951","computer","Desktop or Laptop","Windows 10","Chrome 120.0.0.0","1536x864","1536x695",NA,NA,0,"Task Introduction and Instructions (re-introduce video and audio)",1,"FGEHDICJBA","Passed AC2",NA,"Spreadsheet1",1,"Task Instructions","Screen 1","anr7sn",1,"continue","",3255.89999999404,3251.2,3255.89999999404,3255.89999999404,3251.2,3255.89999999404,1,3255.89999999404,0,0,NA,"Click To Continue","Continue Button",2,"object-1944","Task Instructions",NA,"SUPPRF55208"
"3",1702915134503,"18/12/2023 15:58:54",1702915134503,0,"18/12/2023 15:58:54",157680,2,"task-w25u",NA,33759077,9985491,NA,"complete",NA,"658069be0a0dbef3a5667951","computer","Desktop or Laptop","Windows 10","Chrome 120.0.0.0","1536x864","1536x695",NA,NA,0,"Task Introduction and Instructions (re-introduce video and audio)",1,"FGEHDICJBA","Passed AC2",NA,"Spreadsheet1",1,"Task Instructions","Screen 2","ce2tc8",2,"continue","",5529.99999999851,5518.8,5529.99999999851,5529.99999999851,5518.8,5529.99999999851,1,5529.99999999851,0,0,NA,"Click To Continue","Continue Button",2,"object-7","Task Instructions",NA,"SUPPRF55208"
"4",1702915137046,"18/12/2023 15:58:57",1702915137046,0,"18/12/2023 15:58:57",157680,2,"task-w25u",NA,33759077,9985491,NA,"complete",NA,"658069be0a0dbef3a5667951","computer","Desktop or Laptop","Windows 10","Chrome 120.0.0.0","1536x864","1536x695",NA,NA,0,"Task Introduction and Instructions (re-introduce video and audio)",1,"FGEHDICJBA","Passed AC2",NA,"Spreadsheet1",1,"Task Instructions","Screen 3","1qtc8v",3,"continue","",2553.99999999553,2551,2553.99999999553,2553.99999999553,2551,2553.99999999553,1,2553.99999999553,0,0,NA,"Click To Continue","Continue Button",2,"object-52","Task Instructions",NA,"SUPPRF55208"
"5",1702915140204,"18/12/2023 15:59:00",1702915140204,0,"18/12/2023 15:59:00",157680,2,"task-w25u",NA,33759077,9985491,NA,"complete",NA,"658069be0a0dbef3a5667951","computer","Desktop or Laptop","Windows 10","Chrome 120.0.0.0","1536x864","1536x695",NA,NA,0,"Task Introduction and Instructions (re-introduce video and audio)",1,"FGEHDICJBA","Passed AC2",NA,"Spreadsheet1",1,"Task Instructions","Screen 4","spepx9",4,"continue","",3160.8,3150.9,3160.8,3160.8,3150.9,3160.8,1,3160.8,0,0,NA,"Click To Continue","Continue Button",2,"object-9","Task Instructions",NA,"SUPPRF55208"
"6",1702915142708,"18/12/2023 15:59:02",1702915142708,0,"18/12/2023 15:59:02",157680,2,"task-w25u",NA,33759077,9985491,NA,"complete",NA,"658069be0a0dbef3a5667951","computer","Desktop or Laptop","Windows 10","Chrome 120.0.0.0","1536x864","1536x695",NA,NA,0,"Task Introduction and Instructions (re-introduce video and audio)",1,"FGEHDICJBA","Passed AC2",NA,"Spreadsheet1",1,"Task Instructions","Screen 5","8nvnao",5,"continue","",2514.59999999553,2501.2,2514.59999999553,2514.59999999553,2501.2,2514.59999999553,1,2514.59999999553,0,0,NA,"Click To Continue","Continue Button",2,"object-44","Task Instructions",NA,"SUPPRF55208"
"7",1702915142721,"18/12/2023 15:59:02",1702915142721,0,"18/12/2023 15:59:02",157680,2,"task-w25u",NA,33759077,9985491,NA,"complete",NA,"658069be0a0dbef3a5667951","computer","Desktop or Laptop","Windows 10","Chrome 120.0.0.0","1536x864","1536x695",NA,NA,0,"Task Introduction and Instructions (re-introduce video and audio)",1,"FGEHDICJBA","Passed AC2",NA,"Spreadsheet1",NA,"","","",NA,"5","END",NA,NA,NA,NA,NA,NA,0,NA,NA,NA,NA,"","",NA,"","",NA,"SUPPRF55208"
"1",1702915486788,"18/12/2023 16:04:46",1702893886788,-6,"18/12/2023 04:04:46",157680,2,"task-w25u",NA,33759209,9985463,NA,"complete",NA,"6580686d9e7b46f2f294403c","computer","Desktop or Laptop","Chromium OS 14541.0.0","Chrome 119.0.0.0","1366x768","1366x633",NA,NA,0,"Task Introduction and Instructions (re-introduce video and audio)",1,"EFDGCHBIAJ","Passed AC2",NA,"Spreadsheet1",NA,"","","",NA,"5","BEGIN",NA,NA,NA,NA,NA,NA,0,NA,NA,NA,NA,"","",NA,"","",NA,"SUPPRF59973"
"2",1702915493719,"18/12/2023 16:04:53",1702893893719,-6,"18/12/2023 04:04:53",157680,2,"task-w25u",NA,33759209,9985463,NA,"complete",NA,"6580686d9e7b46f2f294403c","computer","Desktop or Laptop","Chromium OS 14541.0.0","Chrome 119.0.0.0","1366x768","1366x633",NA,NA,0,"Task Introduction and Instructions (re-introduce video and audio)",1,"EFDGCHBIAJ","Passed AC2",NA,"Spreadsheet1",1,"Task Instructions","Screen 1","anr7sn",1,"continue","",5871.631,5854.971,5871.631,5871.631,5854.971,5871.631,1,5871.631,0,0,NA,"Click To Continue","Continue Button",2,"object-1944","Task Instructions",NA,"SUPPRF59973"
"3",1702915498348,"18/12/2023 16:04:58",1702893898348,-6,"18/12/2023 04:04:58",157680,2,"task-w25u",NA,33759209,9985463,NA,"complete",NA,"6580686d9e7b46f2f294403c","computer","Desktop or Laptop","Chromium OS 14541.0.0","Chrome 119.0.0.0","1366x768","1366x633",NA,NA,0,"Task Introduction and Instructions (re-introduce video and audio)",1,"EFDGCHBIAJ","Passed AC2",NA,"Spreadsheet1",1,"Task Instructions","Screen 2","ce2tc8",2,"continue","",4653.57800000019,4643.314,4653.57800000019,4653.57800000019,4643.314,4653.57800000019,1,4653.57800000019,0,0,NA,"Click To Continue","Continue Button",2,"object-7","Task Instructions",NA,"SUPPRF59973"
"4",1702915504105,"18/12/2023 16:05:04",1702893904105,-6,"18/12/2023 04:05:04",157680,2,"task-w25u",NA,33759209,9985463,NA,"complete",NA,"6580686d9e7b46f2f294403c","computer","Desktop or Laptop","Chromium OS 14541.0.0","Chrome 119.0.0.0","1366x768","1366x633",NA,NA,0,"Task Introduction and Instructions (re-introduce video and audio)",1,"EFDGCHBIAJ","Passed AC2",NA,"Spreadsheet1",1,"Task Instructions","Screen 3","1qtc8v",3,"continue","",5767.16400000009,5754.497,5767.16400000009,5767.16400000009,5754.497,5767.16400000009,1,5767.16400000009,0,0,NA,"Click To Continue","Continue Button",2,"object-52","Task Instructions",NA,"SUPPRF59973"
"5",1702915508534,"18/12/2023 16:05:08",1702893908534,-6,"18/12/2023 04:05:08",157680,2,"task-w25u",NA,33759209,9985463,NA,"complete",NA,"6580686d9e7b46f2f294403c","computer","Desktop or Laptop","Chromium OS 14541.0.0","Chrome 119.0.0.0","1366x768","1366x633",NA,NA,0,"Task Introduction and Instructions (re-introduce video and audio)",1,"EFDGCHBIAJ","Passed AC2",NA,"Spreadsheet1",1,"Task Instructions","Screen 4","spepx9",4,"continue","",4441.716,4425.056,4441.716,4441.716,4425.056,4441.716,1,4441.716,0,0,NA,"Click To Continue","Continue Button",2,"object-9","Task Instructions",NA,"SUPPRF59973"
"6",1702915515848,"18/12/2023 16:05:15",1702893915848,-6,"18/12/2023 04:05:15",157680,2,"task-w25u",NA,33759209,9985463,NA,"complete",NA,"6580686d9e7b46f2f294403c","computer","Desktop or Laptop","Chromium OS 14541.0.0","Chrome 119.0.0.0","1366x768","1366x633",NA,NA,0,"Task Introduction and Instructions (re-introduce video and audio)",1,"EFDGCHBIAJ","Passed AC2",NA,"Spreadsheet1",1,"Task Instructions","Screen 5","8nvnao",5,"continue","",7330.511,7320.227,7330.511,7330.511,7320.227,7330.511,1,7330.511,0,0,NA,"Click To Continue","Continue Button",2,"object-44","Task Instructions",NA,"SUPPRF59973"
"7",1702915515872,"18/12/2023 16:05:15",1702893915872,-6,"18/12/2023 04:05:15",157680,2,"task-w25u",NA,33759209,9985463,NA,"complete",NA,"6580686d9e7b46f2f294403c","computer","Desktop or Laptop","Chromium OS 14541.0.0","Chrome 119.0.0.0","1366x768","1366x633",NA,NA,0,"Task Introduction and Instructions (re-introduce video and audio)",1,"EFDGCHBIAJ","Passed AC2",NA,"Spreadsheet1",NA,"","","",NA,"5","END",NA,NA,NA,NA,NA,NA,0,NA,NA,NA,NA,"","",NA,"","",NA,"SUPPRF59973"
"1",1702915598290,"18/12/2023 16:06:38",1702915598290,0,"18/12/2023 16:06:38",157680,2,"task-w25u",NA,33759238,9985552,NA,"complete",NA,"65806c0cc57d45b66f49fac6","computer","Desktop or Laptop","Mac OS 10.15.7","Chrome 120.0.0.0","1710x1107","1710x981",NA,NA,0,"Task Introduction and Instructions (re-introduce video and audio)",1,"GHFIEJDACB","Passed AC2",NA,"Spreadsheet1",NA,"","","",NA,"5","BEGIN",NA,NA,NA,NA,NA,NA,0,NA,NA,NA,NA,"","",NA,"","",NA,"SUPPRF14988"
"2",1702915601452,"18/12/2023 16:06:41",1702915601452,0,"18/12/2023 16:06:41",157680,2,"task-w25u",NA,33759238,9985552,NA,"complete",NA,"65806c0cc57d45b66f49fac6","computer","Desktop or Laptop","Mac OS 10.15.7","Chrome 120.0.0.0","1710x1107","1710x981",NA,NA,0,"Task Introduction and Instructions (re-introduce video and audio)",1,"GHFIEJDACB","Passed AC2",NA,"Spreadsheet1",1,"Task Instructions","Screen 1","anr7sn",1,"continue","",3091.49999999963,3083.2,3091.49999999963,3091.49999999963,3083.2,3091.49999999963,1,3091.49999999963,0,0,NA,"Click To Continue","Continue Button",2,"object-1944","Task Instructions",NA,"SUPPRF14988"
"3",1702915604578,"18/12/2023 16:06:44",1702915604578,0,"18/12/2023 16:06:44",157680,2,"task-w25u",NA,33759238,9985552,NA,"complete",NA,"65806c0cc57d45b66f49fac6","computer","Desktop or Laptop","Mac OS 10.15.7","Chrome 120.0.0.0","1710x1107","1710x981",NA,NA,0,"Task Introduction and Instructions (re-introduce video and audio)",1,"GHFIEJDACB","Passed AC2",NA,"Spreadsheet1",1,"Task Instructions","Screen 2","ce2tc8",2,"continue","",3133.7,3117,3133.7,3133.7,3117,3133.7,1,3133.7,0,0,NA,"Click To Continue","Continue Button",2,"object-7","Task Instructions",NA,"SUPPRF14988"
"4",1702915607192,"18/12/2023 16:06:47",1702915607192,0,"18/12/2023 16:06:47",157680,2,"task-w25u",NA,33759238,9985552,NA,"complete",NA,"65806c0cc57d45b66f49fac6","computer","Desktop or Laptop","Mac OS 10.15.7","Chrome 120.0.0.0","1710x1107","1710x981",NA,NA,0,"Task Introduction and Instructions (re-introduce video and audio)",1,"GHFIEJDACB","Passed AC2",NA,"Spreadsheet1",1,"Task Instructions","Screen 3","1qtc8v",3,"continue","",2631.7,2616.6,2631.7,2631.7,2616.6,2631.7,1,2631.7,0,0,NA,"Click To Continue","Continue Button",2,"object-52","Task Instructions",NA,"SUPPRF14988"
"5",1702915610939,"18/12/2023 16:06:50",1702915610939,0,"18/12/2023 16:06:50",157680,2,"task-w25u",NA,33759238,9985552,NA,"complete",NA,"65806c0cc57d45b66f49fac6","computer","Desktop or Laptop","Mac OS 10.15.7","Chrome 120.0.0.0","1710x1107","1710x981",NA,NA,0,"Task Introduction and Instructions (re-introduce video and audio)",1,"GHFIEJDACB","Passed AC2",NA,"Spreadsheet1",1,"Task Instructions","Screen 4","spepx9",4,"continue","",3762.1,3749.9,3762.1,3762.1,3749.9,3762.1,1,3762.1,0,0,NA,"Click To Continue","Continue Button",2,"object-9","Task Instructions",NA,"SUPPRF14988"
"6",1702915614802,"18/12/2023 16:06:54",1702915614802,0,"18/12/2023 16:06:54",157680,2,"task-w25u",NA,33759238,9985552,NA,"complete",NA,"65806c0cc57d45b66f49fac6","computer","Desktop or Laptop","Mac OS 10.15.7","Chrome 120.0.0.0","1710x1107","1710x981",NA,NA,0,"Task Introduction and Instructions (re-introduce video and audio)",1,"GHFIEJDACB","Passed AC2",NA,"Spreadsheet1",1,"Task Instructions","Screen 5","8nvnao",5,"continue","",3874.99999999888,3866.9,3874.99999999888,3874.99999999888,3866.9,3874.99999999888,1,3874.99999999888,0,0,NA,"Click To Continue","Continue Button",2,"object-44","Task Instructions",NA,"SUPPRF14988"
"7",1702915614808,"18/12/2023 16:06:54",1702915614808,0,"18/12/2023 16:06:54",157680,2,"task-w25u",NA,33759238,9985552,NA,"complete",NA,"65806c0cc57d45b66f49fac6","computer","Desktop or Laptop","Mac OS 10.15.7","Chrome 120.0.0.0","1710x1107","1710x981",NA,NA,0,"Task Introduction and Instructions (re-introduce video and audio)",1,"GHFIEJDACB","Passed AC2",NA,"Spreadsheet1",NA,"","","",NA,"5","END",NA,NA,NA,NA,NA,NA,0,NA,NA,NA,NA,"","",NA,"","",NA,"SUPPRF14988"
"1",1702915684219,"18/12/2023 16:08:04",1702915684219,0,"18/12/2023 16:08:04",157680,2,"task-w25u",NA,33759272,9985439,NA,"complete",NA,"6580620e8ba223be6247ca81","computer","Desktop or Laptop","Windows 10","Chrome 120.0.0.0","1536x864","1536x730",NA,NA,0,"Task Introduction and Instructions (re-introduce video and audio)",1,"CDBEAFJGIH","Passed AC2",NA,"Spreadsheet1",NA,"","","",NA,"5","BEGIN",NA,NA,NA,NA,NA,NA,0,NA,NA,NA,NA,"","",NA,"","",NA,"SUPPRF46255"
"2",1702915687573,"18/12/2023 16:08:07",1702915687573,0,"18/12/2023 16:08:07",157680,2,"task-w25u",NA,33759272,9985439,NA,"complete",NA,"6580620e8ba223be6247ca81","computer","Desktop or Laptop","Windows 10","Chrome 120.0.0.0","1536x864","1536x730",NA,NA,0,"Task Introduction and Instructions (re-introduce video and audio)",1,"CDBEAFJGIH","Passed AC2",NA,"Spreadsheet1",1,"Task Instructions","Screen 1","anr7sn",1,"continue","",3268.50000001192,3266.7,3268.50000001192,3268.50000001192,3266.7,3268.50000001192,1,3268.50000001192,0,0,NA,"Click To Continue","Continue Button",2,"object-1944","Task Instructions",NA,"SUPPRF46255"
"3",1702915692537,"18/12/2023 16:08:12",1702915692537,0,"18/12/2023 16:08:12",157680,2,"task-w25u",NA,33759272,9985439,NA,"complete",NA,"6580620e8ba223be6247ca81","computer","Desktop or Laptop","Windows 10","Chrome 120.0.0.0","1536x864","1536x730",NA,NA,0,"Task Introduction and Instructions (re-introduce video and audio)",1,"CDBEAFJGIH","Passed AC2",NA,"Spreadsheet1",1,"Task Instructions","Screen 2","ce2tc8",2,"continue","",4965.5,4963.3,4965.5,4965.5,4963.3,4965.5,1,4965.5,0,0,NA,"Click To Continue","Continue Button",2,"object-7","Task Instructions",NA,"SUPPRF46255"
"4",1702915695399,"18/12/2023 16:08:15",1702915695399,0,"18/12/2023 16:08:15",157680,2,"task-w25u",NA,33759272,9985439,NA,"complete",NA,"6580620e8ba223be6247ca81","computer","Desktop or Laptop","Windows 10","Chrome 120.0.0.0","1536x864","1536x730",NA,NA,0,"Task Introduction and Instructions (re-introduce video and audio)",1,"CDBEAFJGIH","Passed AC2",NA,"Spreadsheet1",1,"Task Instructions","Screen 3","1qtc8v",3,"continue","",2864.2,2860.5,2864.2,2864.2,2860.5,2864.2,1,2864.2,0,0,NA,"Click To Continue","Continue Button",2,"object-52","Task Instructions",NA,"SUPPRF46255"
"5",1702915698422,"18/12/2023 16:08:18",1702915698422,0,"18/12/2023 16:08:18",157680,2,"task-w25u",NA,33759272,9985439,NA,"complete",NA,"6580620e8ba223be6247ca81","computer","Desktop or Laptop","Windows 10","Chrome 120.0.0.0","1536x864","1536x730",NA,NA,0,"Task Introduction and Instructions (re-introduce video and audio)",1,"CDBEAFJGIH","Passed AC2",NA,"Spreadsheet1",1,"Task Instructions","Screen 4","spepx9",4,"continue","",3026.80000002384,3024,3026.80000002384,3026.80000002384,3024,3026.80000002384,1,3026.80000002384,0,0,NA,"Click To Continue","Continue Button",2,"object-9","Task Instructions",NA,"SUPPRF46255"
"6",1702915701355,"18/12/2023 16:08:21",1702915701355,0,"18/12/2023 16:08:21",157680,2,"task-w25u",NA,33759272,9985439,NA,"complete",NA,"6580620e8ba223be6247ca81","computer","Desktop or Laptop","Windows 10","Chrome 120.0.0.0","1536x864","1536x730",NA,NA,0,"Task Introduction and Instructions (re-introduce video and audio)",1,"CDBEAFJGIH","Passed AC2",NA,"Spreadsheet1",1,"Task Instructions","Screen 5","8nvnao",5,"continue","",2935.90000001788,2933.3,2935.90000001788,2935.90000001788,2933.3,2935.90000001788,1,2935.90000001788,0,0,NA,"Click To Continue","Continue Button",2,"object-44","Task Instructions",NA,"SUPPRF46255"
"7",1702915701360,"18/12/2023 16:08:21",1702915701360,0,"18/12/2023 16:08:21",157680,2,"task-w25u",NA,33759272,9985439,NA,"complete",NA,"6580620e8ba223be6247ca81","computer","Desktop or Laptop","Windows 10","Chrome 120.0.0.0","1536x864","1536x730",NA,NA,0,"Task Introduction and Instructions (re-introduce video and audio)",1,"CDBEAFJGIH","Passed AC2",NA,"Spreadsheet1",NA,"","","",NA,"5","END",NA,NA,NA,NA,NA,NA,0,NA,NA,NA,NA,"","",NA,"","",NA,"SUPPRF46255"
"1",1702916238523,"18/12/2023 16:17:18",1702916238523,0,"18/12/2023 16:17:18",157680,2,"task-w25u",NA,33759464,9985598,NA,"complete",NA,"65806ce4e3b5ca342d8f0c03","computer","Desktop or Laptop","Windows 10","Chrome 120.0.0.0","1536x864","1536x695",NA,NA,0,"Task Introduction and Instructions (re-introduce video and audio)",1,"HIGJFAEBDC","Passed AC2",NA,"Spreadsheet1",NA,"","","",NA,"5","BEGIN",NA,NA,NA,NA,NA,NA,0,NA,NA,NA,NA,"","",NA,"","",NA,"SUPPRF73473"
"2",1702916241726,"18/12/2023 16:17:21",1702916241726,0,"18/12/2023 16:17:21",157680,2,"task-w25u",NA,33759464,9985598,NA,"complete",NA,"65806ce4e3b5ca342d8f0c03","computer","Desktop or Laptop","Windows 10","Chrome 120.0.0.0","1536x864","1536x695",NA,NA,0,"Task Introduction and Instructions (re-introduce video and audio)",1,"HIGJFAEBDC","Passed AC2",NA,"Spreadsheet1",1,"Task Instructions","Screen 1","anr7sn",1,"continue","",3150.99999996424,3149.6,3150.99999996424,3150.99999996424,3149.6,3150.99999996424,1,3150.99999996424,0,0,NA,"Click To Continue","Continue Button",2,"object-1944","Task Instructions",NA,"SUPPRF73473"
"3",1702916252110,"18/12/2023 16:17:32",1702916252110,0,"18/12/2023 16:17:32",157680,2,"task-w25u",NA,33759464,9985598,NA,"complete",NA,"65806ce4e3b5ca342d8f0c03","computer","Desktop or Laptop","Windows 10","Chrome 120.0.0.0","1536x864","1536x695",NA,NA,0,"Task Introduction and Instructions (re-introduce video and audio)",1,"HIGJFAEBDC","Passed AC2",NA,"Spreadsheet1",1,"Task Instructions","Screen 2","ce2tc8",2,"continue","",10385.3,10378.4,10385.3,10385.3,10378.4,10385.3,1,10385.3,0,0,NA,"Click To Continue","Continue Button",2,"object-7","Task Instructions",NA,"SUPPRF73473"
"4",1702916254971,"18/12/2023 16:17:34",1702916254971,0,"18/12/2023 16:17:34",157680,2,"task-w25u",NA,33759464,9985598,NA,"complete",NA,"65806ce4e3b5ca342d8f0c03","computer","Desktop or Laptop","Windows 10","Chrome 120.0.0.0","1536x864","1536x695",NA,NA,0,"Task Introduction and Instructions (re-introduce video and audio)",1,"HIGJFAEBDC","Passed AC2",NA,"Spreadsheet1",1,"Task Instructions","Screen 3","1qtc8v",3,"continue","",2868.49999996424,2864.8,2868.49999996424,2868.49999996424,2864.8,2868.49999996424,1,2868.49999996424,0,0,NA,"Click To Continue","Continue Button",2,"object-52","Task Instructions",NA,"SUPPRF73473"
"5",1702916257740,"18/12/2023 16:17:37",1702916257740,0,"18/12/2023 16:17:37",157680,2,"task-w25u",NA,33759464,9985598,NA,"complete",NA,"65806ce4e3b5ca342d8f0c03","computer","Desktop or Laptop","Windows 10","Chrome 120.0.0.0","1536x864","1536x695",NA,NA,0,"Task Introduction and Instructions (re-introduce video and audio)",1,"HIGJFAEBDC","Passed AC2",NA,"Spreadsheet1",1,"Task Instructions","Screen 4","spepx9",4,"continue","",2771.99999997616,2768,2771.99999997616,2771.99999997616,2768,2771.99999997616,1,2771.99999997616,0,0,NA,"Click To Continue","Continue Button",2,"object-9","Task Instructions",NA,"SUPPRF73473"
"6",1702916260236,"18/12/2023 16:17:40",1702916260236,0,"18/12/2023 16:17:40",157680,2,"task-w25u",NA,33759464,9985598,NA,"complete",NA,"65806ce4e3b5ca342d8f0c03","computer","Desktop or Laptop","Windows 10","Chrome 120.0.0.0","1536x864","1536x695",NA,NA,0,"Task Introduction and Instructions (re-introduce video and audio)",1,"HIGJFAEBDC","Passed AC2",NA,"Spreadsheet1",1,"Task Instructions","Screen 5","8nvnao",5,"continue","",2500.1,2497.5,2500.1,2500.1,2497.5,2500.1,1,2500.1,0,0,NA,"Click To Continue","Continue Button",2,"object-44","Task Instructions",NA,"SUPPRF73473"
"7",1702916260237,"18/12/2023 16:17:40",1702916260237,0,"18/12/2023 16:17:40",157680,2,"task-w25u",NA,33759464,9985598,NA,"complete",NA,"65806ce4e3b5ca342d8f0c03","computer","Desktop or Laptop","Windows 10","Chrome 120.0.0.0","1536x864","1536x695",NA,NA,0,"Task Introduction and Instructions (re-introduce video and audio)",1,"HIGJFAEBDC","Passed AC2",NA,"Spreadsheet1",NA,"","","",NA,"5","END",NA,NA,NA,NA,NA,NA,0,NA,NA,NA,NA,"","",NA,"","",NA,"SUPPRF73473"
"1",1702917204866,"18/12/2023 16:33:24",1702895604866,-6,"18/12/2023 04:33:24",157680,2,"task-w25u",NA,33760015,9985753,NA,"complete",NA,"658071685d69e26ddbce8a46","computer","Desktop or Laptop","Windows 10","Chrome 120.0.0.0","1664x1110","1664x985",NA,NA,0,"Task Introduction and Instructions (re-introduce video and audio)",1,"ABJCIDHEGF","Passed AC2",NA,"Spreadsheet1",NA,"","","",NA,"5","BEGIN",NA,NA,NA,NA,NA,NA,0,NA,NA,NA,NA,"","",NA,"","",NA,"SUPPRF12889"
"2",1702917208165,"18/12/2023 16:33:28",1702895608165,-6,"18/12/2023 04:33:28",157680,2,"task-w25u",NA,33760015,9985753,NA,"complete",NA,"658071685d69e26ddbce8a46","computer","Desktop or Laptop","Windows 10","Chrome 120.0.0.0","1664x1110","1664x985",NA,NA,0,"Task Introduction and Instructions (re-introduce video and audio)",1,"ABJCIDHEGF","Passed AC2",NA,"Spreadsheet1",1,"Task Instructions","Screen 1","anr7sn",1,"continue","",2720.6,2717.4,2720.6,2720.6,2717.4,2720.6,1,2720.6,0,0,NA,"Click To Continue","Continue Button",2,"object-1944","Task Instructions",NA,"SUPPRF12889"
"3",1702917213319,"18/12/2023 16:33:33",1702895613319,-6,"18/12/2023 04:33:33",157680,2,"task-w25u",NA,33760015,9985753,NA,"complete",NA,"658071685d69e26ddbce8a46","computer","Desktop or Laptop","Windows 10","Chrome 120.0.0.0","1664x1110","1664x985",NA,NA,0,"Task Introduction and Instructions (re-introduce video and audio)",1,"ABJCIDHEGF","Passed AC2",NA,"Spreadsheet1",1,"Task Instructions","Screen 2","ce2tc8",2,"continue","",5157.79999990463,5151.4,5157.79999990463,5157.79999990463,5151.4,5157.79999990463,1,5157.79999990463,0,0,NA,"Click To Continue","Continue Button",2,"object-7","Task Instructions",NA,"SUPPRF12889"
"4",1702917216152,"18/12/2023 16:33:36",1702895616152,-6,"18/12/2023 04:33:36",157680,2,"task-w25u",NA,33760015,9985753,NA,"complete",NA,"658071685d69e26ddbce8a46","computer","Desktop or Laptop","Windows 10","Chrome 120.0.0.0","1664x1110","1664x985",NA,NA,0,"Task Introduction and Instructions (re-introduce video and audio)",1,"ABJCIDHEGF","Passed AC2",NA,"Spreadsheet1",1,"Task Instructions","Screen 3","1qtc8v",3,"continue","",2839.3,2834.1,2839.3,2839.3,2834.1,2839.3,1,2839.3,0,0,NA,"Click To Continue","Continue Button",2,"object-52","Task Instructions",NA,"SUPPRF12889"
"5",1702917218850,"18/12/2023 16:33:38",1702895618850,-6,"18/12/2023 04:33:38",157680,2,"task-w25u",NA,33760015,9985753,NA,"complete",NA,"658071685d69e26ddbce8a46","computer","Desktop or Laptop","Windows 10","Chrome 120.0.0.0","1664x1110","1664x985",NA,NA,0,"Task Introduction and Instructions (re-introduce video and audio)",1,"ABJCIDHEGF","Passed AC2",NA,"Spreadsheet1",1,"Task Instructions","Screen 4","spepx9",4,"continue","",2703.10000009537,2700.7,2703.10000009537,2703.10000009537,2700.7,2703.10000009537,1,2703.10000009537,0,0,NA,"Click To Continue","Continue Button",2,"object-9","Task Instructions",NA,"SUPPRF12889"
"6",1702917221584,"18/12/2023 16:33:41",1702895621584,-6,"18/12/2023 04:33:41",157680,2,"task-w25u",NA,33760015,9985753,NA,"complete",NA,"658071685d69e26ddbce8a46","computer","Desktop or Laptop","Windows 10","Chrome 120.0.0.0","1664x1110","1664x985",NA,NA,0,"Task Introduction and Instructions (re-introduce video and audio)",1,"ABJCIDHEGF","Passed AC2",NA,"Spreadsheet1",1,"Task Instructions","Screen 5","8nvnao",5,"continue","",2736.59999990463,2734.3,2736.59999990463,2736.59999990463,2734.3,2736.59999990463,1,2736.59999990463,0,0,NA,"Click To Continue","Continue Button",2,"object-44","Task Instructions",NA,"SUPPRF12889"
"7",1702917221587,"18/12/2023 16:33:41",1702895621587,-6,"18/12/2023 04:33:41",157680,2,"task-w25u",NA,33760015,9985753,NA,"complete",NA,"658071685d69e26ddbce8a46","computer","Desktop or Laptop","Windows 10","Chrome 120.0.0.0","1664x1110","1664x985",NA,NA,0,"Task Introduction and Instructions (re-introduce video and audio)",1,"ABJCIDHEGF","Passed AC2",NA,"Spreadsheet1",NA,"","","",NA,"5","END",NA,NA,NA,NA,NA,NA,0,NA,NA,NA,NA,"","",NA,"","",NA,"SUPPRF12889"
"1",1702918010596,"18/12/2023 16:46:50",1702918010596,0,"18/12/2023 16:46:50",157680,2,"task-w25u",NA,33760330,9985804,NA,"complete",NA,"658072ea580295f0112e8f6c","computer","Desktop or Laptop","Windows 10","Chrome 119.0.0.0","1280x720","1280x632",NA,NA,0,"Task Introduction and Instructions (re-introduce video and audio)",1,"BCADJEIFHG","Passed AC2",NA,"Spreadsheet1",NA,"","","",NA,"5","BEGIN",NA,NA,NA,NA,NA,NA,0,NA,NA,NA,NA,"","",NA,"","",NA,"SUPPRF54311"
"2",1702918015911,"18/12/2023 16:46:55",1702918015911,0,"18/12/2023 16:46:55",157680,2,"task-w25u",NA,33760330,9985804,NA,"complete",NA,"658072ea580295f0112e8f6c","computer","Desktop or Laptop","Windows 10","Chrome 119.0.0.0","1280x720","1280x632",NA,NA,0,"Task Introduction and Instructions (re-introduce video and audio)",1,"BCADJEIFHG","Passed AC2",NA,"Spreadsheet1",1,"Task Instructions","Screen 1","anr7sn",1,"continue","",5222.202,5217.864,5222.202,5222.202,5217.864,5222.202,1,5222.202,0,0,NA,"Click To Continue","Continue Button",2,"object-1944","Task Instructions",NA,"SUPPRF54311"
"3",1702918031009,"18/12/2023 16:47:11",1702918031009,0,"18/12/2023 16:47:11",157680,2,"task-w25u",NA,33760330,9985804,NA,"complete",NA,"658072ea580295f0112e8f6c","computer","Desktop or Laptop","Windows 10","Chrome 119.0.0.0","1280x720","1280x632",NA,NA,0,"Task Introduction and Instructions (re-introduce video and audio)",1,"BCADJEIFHG","Passed AC2",NA,"Spreadsheet1",1,"Task Instructions","Screen 2","ce2tc8",2,"continue","",15101.838,15086.688,15101.838,15101.838,15086.688,15101.838,1,15101.838,0,0,NA,"Click To Continue","Continue Button",2,"object-7","Task Instructions",NA,"SUPPRF54311"
"4",1702918039098,"18/12/2023 16:47:19",1702918039098,0,"18/12/2023 16:47:19",157680,2,"task-w25u",NA,33760330,9985804,NA,"complete",NA,"658072ea580295f0112e8f6c","computer","Desktop or Laptop","Windows 10","Chrome 119.0.0.0","1280x720","1280x632",NA,NA,0,"Task Introduction and Instructions (re-introduce video and audio)",1,"BCADJEIFHG","Passed AC2",NA,"Spreadsheet1",1,"Task Instructions","Screen 3","1qtc8v",3,"continue","",8104.65,8101.824,8104.65,8104.65,8101.824,8104.65,1,8104.65,0,0,NA,"Click To Continue","Continue Button",2,"object-52","Task Instructions",NA,"SUPPRF54311"
"5",1702918043716,"18/12/2023 16:47:23",1702918043716,0,"18/12/2023 16:47:23",157680,2,"task-w25u",NA,33760330,9985804,NA,"complete",NA,"658072ea580295f0112e8f6c","computer","Desktop or Laptop","Windows 10","Chrome 119.0.0.0","1280x720","1280x632",NA,NA,0,"Task Introduction and Instructions (re-introduce video and audio)",1,"BCADJEIFHG","Passed AC2",NA,"Spreadsheet1",1,"Task Instructions","Screen 4","spepx9",4,"continue","",4621.326,4617.742,4621.326,4621.326,4617.742,4621.326,1,4621.326,0,0,NA,"Click To Continue","Continue Button",2,"object-9","Task Instructions",NA,"SUPPRF54311"
"6",1702918046918,"18/12/2023 16:47:26",1702918046918,0,"18/12/2023 16:47:26",157680,2,"task-w25u",NA,33760330,9985804,NA,"complete",NA,"658072ea580295f0112e8f6c","computer","Desktop or Laptop","Windows 10","Chrome 119.0.0.0","1280x720","1280x632",NA,NA,0,"Task Introduction and Instructions (re-introduce video and audio)",1,"BCADJEIFHG","Passed AC2",NA,"Spreadsheet1",1,"Task Instructions","Screen 5","8nvnao",5,"continue","",3204.68399990464,3200.733,3204.68399990464,3204.68399990464,3200.733,3204.68399990464,1,3204.68399990464,0,0,NA,"Click To Continue","Continue Button",2,"object-44","Task Instructions",NA,"SUPPRF54311"
"7",1702918046920,"18/12/2023 16:47:26",1702918046920,0,"18/12/2023 16:47:26",157680,2,"task-w25u",NA,33760330,9985804,NA,"complete",NA,"658072ea580295f0112e8f6c","computer","Desktop or Laptop","Windows 10","Chrome 119.0.0.0","1280x720","1280x632",NA,NA,0,"Task Introduction and Instructions (re-introduce video and audio)",1,"BCADJEIFHG","Passed AC2",NA,"Spreadsheet1",NA,"","","",NA,"5","END",NA,NA,NA,NA,NA,NA,0,NA,NA,NA,NA,"","",NA,"","",NA,"SUPPRF54311"
"1",1702918656369,"18/12/2023 16:57:36",1702918656369,0,"18/12/2023 16:57:36",157680,2,"task-w25u",NA,33760636,9985612,NA,"complete",NA,"65806da7424a91527e7826d2","computer","Desktop or Laptop","Mac OS 10.15.7","Chrome 120.0.0.0","1440x900","805x706",NA,NA,0,"Task Introduction and Instructions (re-introduce video and audio)",1,"IJHAGBFCED","Passed AC2",NA,"Spreadsheet1",NA,"","","",NA,"5","BEGIN",NA,NA,NA,NA,NA,NA,0,NA,NA,NA,NA,"","",NA,"","",NA,"SUPPRF28513"
"2",1702918659570,"18/12/2023 16:57:39",1702918659570,0,"18/12/2023 16:57:39",157680,2,"task-w25u",NA,33760636,9985612,NA,"complete",NA,"65806da7424a91527e7826d2","computer","Desktop or Laptop","Mac OS 10.15.7","Chrome 120.0.0.0","1440x900","805x706",NA,NA,0,"Task Introduction and Instructions (re-introduce video and audio)",1,"IJHAGBFCED","Passed AC2",NA,"Spreadsheet1",1,"Task Instructions","Screen 1","anr7sn",1,"continue","",3116.49999999963,3099.9,3116.49999999963,3116.49999999963,3099.9,3116.49999999963,1,3116.49999999963,0,0,NA,"Click To Continue","Continue Button",2,"object-1944","Task Instructions",NA,"SUPPRF28513"
"3",1702918684671,"18/12/2023 16:58:04",1702918684671,0,"18/12/2023 16:58:04",157680,2,"task-w25u",NA,33760636,9985612,NA,"complete",NA,"65806da7424a91527e7826d2","computer","Desktop or Laptop","Mac OS 10.15.7","Chrome 120.0.0.0","1440x900","805x706",NA,NA,0,"Task Introduction and Instructions (re-introduce video and audio)",1,"IJHAGBFCED","Passed AC2",NA,"Spreadsheet1",1,"Task Instructions","Screen 2","ce2tc8",2,"continue","",25117.9,25101.2,25117.9,25117.9,25101.2,25117.9,1,25117.9,0,0,NA,"Click To Continue","Continue Button",2,"object-7","Task Instructions",NA,"SUPPRF28513"
"4",1702918687986,"18/12/2023 16:58:07",1702918687986,0,"18/12/2023 16:58:07",157680,2,"task-w25u",NA,33760636,9985612,NA,"complete",NA,"65806da7424a91527e7826d2","computer","Desktop or Laptop","Mac OS 10.15.7","Chrome 120.0.0.0","1440x900","805x706",NA,NA,0,"Task Introduction and Instructions (re-introduce video and audio)",1,"IJHAGBFCED","Passed AC2",NA,"Spreadsheet1",1,"Task Instructions","Screen 3","1qtc8v",3,"continue","",3332.99999999925,3316.6,3332.99999999925,3332.99999999925,3316.6,3332.99999999925,1,3332.99999999925,0,0,NA,"Click To Continue","Continue Button",2,"object-52","Task Instructions",NA,"SUPPRF28513"
"5",1702918691536,"18/12/2023 16:58:11",1702918691536,0,"18/12/2023 16:58:11",157680,2,"task-w25u",NA,33760636,9985612,NA,"complete",NA,"65806da7424a91527e7826d2","computer","Desktop or Laptop","Mac OS 10.15.7","Chrome 120.0.0.0","1440x900","805x706",NA,NA,0,"Task Introduction and Instructions (re-introduce video and audio)",1,"IJHAGBFCED","Passed AC2",NA,"Spreadsheet1",1,"Task Instructions","Screen 4","spepx9",4,"continue","",3566.3,3549.7,3566.3,3566.3,3549.7,3566.3,1,3566.3,0,0,NA,"Click To Continue","Continue Button",2,"object-9","Task Instructions",NA,"SUPPRF28513"
"6",1702918694304,"18/12/2023 16:58:14",1702918694304,0,"18/12/2023 16:58:14",157680,2,"task-w25u",NA,33760636,9985612,NA,"complete",NA,"65806da7424a91527e7826d2","computer","Desktop or Laptop","Mac OS 10.15.7","Chrome 120.0.0.0","1440x900","805x706",NA,NA,0,"Task Introduction and Instructions (re-introduce video and audio)",1,"IJHAGBFCED","Passed AC2",NA,"Spreadsheet1",1,"Task Instructions","Screen 5","8nvnao",5,"continue","",2783.2,2766.6,2783.2,2783.2,2766.6,2783.2,1,2783.2,0,0,NA,"Click To Continue","Continue Button",2,"object-44","Task Instructions",NA,"SUPPRF28513"
"7",1702918694307,"18/12/2023 16:58:14",1702918694307,0,"18/12/2023 16:58:14",157680,2,"task-w25u",NA,33760636,9985612,NA,"complete",NA,"65806da7424a91527e7826d2","computer","Desktop or Laptop","Mac OS 10.15.7","Chrome 120.0.0.0","1440x900","805x706",NA,NA,0,"Task Introduction and Instructions (re-introduce video and audio)",1,"IJHAGBFCED","Passed AC2",NA,"Spreadsheet1",NA,"","","",NA,"5","END",NA,NA,NA,NA,NA,NA,0,NA,NA,NA,NA,"","",NA,"","",NA,"SUPPRF28513"
"1",1702919019133,"18/12/2023 17:03:39",1702901019133,-5,"18/12/2023 07:03:39",157680,2,"task-w25u",NA,33760806,9985903,NA,"complete",NA,"658076dbc51193ed63d0c6e4","computer","Desktop or Laptop","Windows 10","Chrome 119.0.0.0","1366x768","1366x643",NA,NA,0,"Task Introduction and Instructions (re-introduce video and audio)",1,"CDBEAFJGIH","Passed AC2",NA,"Spreadsheet1",NA,"","","",NA,"5","BEGIN",NA,NA,NA,NA,NA,NA,0,NA,NA,NA,NA,"","",NA,"","",NA,"SUPPRF77346"
"2",1702919022232,"18/12/2023 17:03:42",1702901022232,-5,"18/12/2023 07:03:42",157680,2,"task-w25u",NA,33760806,9985903,NA,"complete",NA,"658076dbc51193ed63d0c6e4","computer","Desktop or Laptop","Windows 10","Chrome 119.0.0.0","1366x768","1366x643",NA,NA,0,"Task Introduction and Instructions (re-introduce video and audio)",1,"CDBEAFJGIH","Passed AC2",NA,"Spreadsheet1",1,"Task Instructions","Screen 1","anr7sn",1,"continue","",2992.40999694824,2966.701,2992.40999694824,2992.40999694824,2966.701,2992.40999694824,1,2992.40999694824,0,0,NA,"Click To Continue","Continue Button",2,"object-1944","Task Instructions",NA,"SUPPRF77346"
"3",1702919028759,"18/12/2023 17:03:48",1702901028759,-5,"18/12/2023 07:03:48",157680,2,"task-w25u",NA,33760806,9985903,NA,"complete",NA,"658076dbc51193ed63d0c6e4","computer","Desktop or Laptop","Windows 10","Chrome 119.0.0.0","1366x768","1366x643",NA,NA,0,"Task Introduction and Instructions (re-introduce video and audio)",1,"CDBEAFJGIH","Passed AC2",NA,"Spreadsheet1",1,"Task Instructions","Screen 2","ce2tc8",2,"continue","",6553.60899847412,6533.525,6553.60899847412,6553.60899847412,6533.525,6553.60899847412,1,6553.60899847412,0,0,NA,"Click To Continue","Continue Button",2,"object-7","Task Instructions",NA,"SUPPRF77346"
"4",1702919032133,"18/12/2023 17:03:52",1702901032133,-5,"18/12/2023 07:03:52",157680,2,"task-w25u",NA,33760806,9985903,NA,"complete",NA,"658076dbc51193ed63d0c6e4","computer","Desktop or Laptop","Windows 10","Chrome 119.0.0.0","1366x768","1366x643",NA,NA,0,"Task Introduction and Instructions (re-introduce video and audio)",1,"CDBEAFJGIH","Passed AC2",NA,"Spreadsheet1",1,"Task Instructions","Screen 3","1qtc8v",3,"continue","",3394.484,3365.905,3394.484,3394.484,3365.905,3394.484,1,3394.484,0,0,NA,"Click To Continue","Continue Button",2,"object-52","Task Instructions",NA,"SUPPRF77346"
"5",1702919035244,"18/12/2023 17:03:55",1702901035244,-5,"18/12/2023 07:03:55",157680,2,"task-w25u",NA,33760806,9985903,NA,"complete",NA,"658076dbc51193ed63d0c6e4","computer","Desktop or Laptop","Windows 10","Chrome 119.0.0.0","1366x768","1366x643",NA,NA,0,"Task Introduction and Instructions (re-introduce video and audio)",1,"CDBEAFJGIH","Passed AC2",NA,"Spreadsheet1",1,"Task Instructions","Screen 4","spepx9",4,"continue","",3139.27899694824,3133.472,3139.27899694824,3139.27899694824,3133.472,3139.27899694824,1,3139.27899694824,0,0,NA,"Click To Continue","Continue Button",2,"object-9","Task Instructions",NA,"SUPPRF77346"
"6",1702919037773,"18/12/2023 17:03:57",1702901037773,-5,"18/12/2023 07:03:57",157680,2,"task-w25u",NA,33760806,9985903,NA,"complete",NA,"658076dbc51193ed63d0c6e4","computer","Desktop or Laptop","Windows 10","Chrome 119.0.0.0","1366x768","1366x643",NA,NA,0,"Task Introduction and Instructions (re-introduce video and audio)",1,"CDBEAFJGIH","Passed AC2",NA,"Spreadsheet1",1,"Task Instructions","Screen 5","8nvnao",5,"continue","",2534.90699542236,2532.967,2534.90699542236,2534.90699542236,2532.967,2534.90699542236,1,2534.90699542236,0,0,NA,"Click To Continue","Continue Button",2,"object-44","Task Instructions",NA,"SUPPRF77346"
"7",1702919037777,"18/12/2023 17:03:57",1702901037777,-5,"18/12/2023 07:03:57",157680,2,"task-w25u",NA,33760806,9985903,NA,"complete",NA,"658076dbc51193ed63d0c6e4","computer","Desktop or Laptop","Windows 10","Chrome 119.0.0.0","1366x768","1366x643",NA,NA,0,"Task Introduction and Instructions (re-introduce video and audio)",1,"CDBEAFJGIH","Passed AC2",NA,"Spreadsheet1",NA,"","","",NA,"5","END",NA,NA,NA,NA,NA,NA,0,NA,NA,NA,NA,"","",NA,"","",NA,"SUPPRF77346"
"1",1702919549696,"18/12/2023 17:12:29",1702919549696,0,"18/12/2023 17:12:29",157680,2,"task-w25u",NA,33760989,9986020,NA,"complete",NA,"6580795f9122dd1ad09df217","computer","Desktop or Laptop","Windows 10","Chrome 120.0.0.0","1280x720","1280x559",NA,NA,0,"Task Introduction and Instructions (re-introduce video and audio)",1,"EFDGCHBIAJ","Passed AC2",NA,"Spreadsheet1",NA,"","","",NA,"5","BEGIN",NA,NA,NA,NA,NA,NA,0,NA,NA,NA,NA,"","",NA,"","",NA,"SUPPRF36491"
"2",1702919553099,"18/12/2023 17:12:33",1702919553099,0,"18/12/2023 17:12:33",157680,2,"task-w25u",NA,33760989,9986020,NA,"complete",NA,"6580795f9122dd1ad09df217","computer","Desktop or Laptop","Windows 10","Chrome 120.0.0.0","1280x720","1280x559",NA,NA,0,"Task Introduction and Instructions (re-introduce video and audio)",1,"EFDGCHBIAJ","Passed AC2",NA,"Spreadsheet1",1,"Task Instructions","Screen 1","anr7sn",1,"continue","",3360.70000003576,3349.6,3360.70000003576,3360.70000003576,3349.6,3360.70000003576,1,3360.70000003576,0,0,NA,"Click To Continue","Continue Button",2,"object-1944","Task Instructions",NA,"SUPPRF36491"
"3",1702919560678,"18/12/2023 17:12:40",1702919560678,0,"18/12/2023 17:12:40",157680,2,"task-w25u",NA,33760989,9986020,NA,"complete",NA,"6580795f9122dd1ad09df217","computer","Desktop or Laptop","Windows 10","Chrome 120.0.0.0","1280x720","1280x559",NA,NA,0,"Task Introduction and Instructions (re-introduce video and audio)",1,"EFDGCHBIAJ","Passed AC2",NA,"Spreadsheet1",1,"Task Instructions","Screen 2","ce2tc8",2,"continue","",7590.30000002384,7583.1,7590.30000002384,7590.30000002384,7583.1,7590.30000002384,1,7590.30000002384,0,0,NA,"Click To Continue","Continue Button",2,"object-7","Task Instructions",NA,"SUPPRF36491"
"4",1702919563659,"18/12/2023 17:12:43",1702919563659,0,"18/12/2023 17:12:43",157680,2,"task-w25u",NA,33760989,9986020,NA,"complete",NA,"6580795f9122dd1ad09df217","computer","Desktop or Laptop","Windows 10","Chrome 120.0.0.0","1280x720","1280x559",NA,NA,0,"Task Introduction and Instructions (re-introduce video and audio)",1,"EFDGCHBIAJ","Passed AC2",NA,"Spreadsheet1",1,"Task Instructions","Screen 3","1qtc8v",3,"continue","",2988.50000003576,2983.3,2988.50000003576,2988.50000003576,2983.3,2988.50000003576,1,2988.50000003576,0,0,NA,"Click To Continue","Continue Button",2,"object-52","Task Instructions",NA,"SUPPRF36491"
"5",1702919566761,"18/12/2023 17:12:46",1702919566761,0,"18/12/2023 17:12:46",157680,2,"task-w25u",NA,33760989,9986020,NA,"complete",NA,"6580795f9122dd1ad09df217","computer","Desktop or Laptop","Windows 10","Chrome 120.0.0.0","1280x720","1280x559",NA,NA,0,"Task Introduction and Instructions (re-introduce video and audio)",1,"EFDGCHBIAJ","Passed AC2",NA,"Spreadsheet1",1,"Task Instructions","Screen 4","spepx9",4,"continue","",3106.8,3100,3106.8,3106.8,3100,3106.8,1,3106.8,0,0,NA,"Click To Continue","Continue Button",2,"object-9","Task Instructions",NA,"SUPPRF36491"
"6",1702919577185,"18/12/2023 17:12:57",1702919577185,0,"18/12/2023 17:12:57",157680,2,"task-w25u",NA,33760989,9986020,NA,"complete",NA,"6580795f9122dd1ad09df217","computer","Desktop or Laptop","Windows 10","Chrome 120.0.0.0","1280x720","1280x559",NA,NA,0,"Task Introduction and Instructions (re-introduce video and audio)",1,"EFDGCHBIAJ","Passed AC2",NA,"Spreadsheet1",1,"Task Instructions","Screen 5","8nvnao",5,"continue","",10431.1000000119,10416.3,10431.1000000119,10431.1000000119,10416.3,10431.1000000119,1,10431.1000000119,0,0,NA,"Click To Continue","Continue Button",2,"object-44","Task Instructions",NA,"SUPPRF36491"
"7",1702919577191,"18/12/2023 17:12:57",1702919577191,0,"18/12/2023 17:12:57",157680,2,"task-w25u",NA,33760989,9986020,NA,"complete",NA,"6580795f9122dd1ad09df217","computer","Desktop or Laptop","Windows 10","Chrome 120.0.0.0","1280x720","1280x559",NA,NA,0,"Task Introduction and Instructions (re-introduce video and audio)",1,"EFDGCHBIAJ","Passed AC2",NA,"Spreadsheet1",NA,"","","",NA,"5","END",NA,NA,NA,NA,NA,NA,0,NA,NA,NA,NA,"","",NA,"","",NA,"SUPPRF36491"
"1",1702922388947,"18/12/2023 17:59:48",1702904388947,-5,"18/12/2023 07:59:48",157680,2,"task-w25u",NA,33762594,9986273,NA,"complete",NA,"6580828b46e0e08413c64921","computer","Desktop or Laptop","Mac OS 10.15.7","Chrome 120.0.0.0","1440x900","1440x684",NA,NA,0,"Task Introduction and Instructions (re-introduce video and audio)",1,"GHFIEJDACB","Passed AC2",NA,"Spreadsheet1",NA,"","","",NA,"5","BEGIN",NA,NA,NA,NA,NA,NA,0,NA,NA,NA,NA,"","",NA,"","",NA,"SUPPRF63407"
"2",1702922438399,"18/12/2023 18:00:38",1702904438399,-5,"18/12/2023 08:00:38",157680,2,"task-w25u",NA,33762594,9986273,NA,"complete",NA,"6580828b46e0e08413c64921","computer","Desktop or Laptop","Mac OS 10.15.7","Chrome 120.0.0.0","1440x900","1440x684",NA,NA,0,"Task Introduction and Instructions (re-introduce video and audio)",1,"GHFIEJDACB","Passed AC2",NA,"Spreadsheet1",1,"Task Instructions","Screen 1","anr7sn",1,"continue","",48829.6999999881,48800.7,48829.6999999881,48829.6999999881,48800.7,48829.6999999881,1,48829.6999999881,0,0,NA,"Click To Continue","Continue Button",2,"object-1944","Task Instructions",NA,"SUPPRF63407"
"3",1702922646812,"18/12/2023 18:04:06",1702904646812,-5,"18/12/2023 08:04:06",157680,2,"task-w25u",NA,33762594,9986273,NA,"complete",NA,"6580828b46e0e08413c64921","computer","Desktop or Laptop","Mac OS 10.15.7","Chrome 120.0.0.0","1440x900","1440x684",NA,NA,0,"Task Introduction and Instructions (re-introduce video and audio)",1,"GHFIEJDACB","Passed AC2",NA,"Spreadsheet1",1,"Task Instructions","Screen 2","ce2tc8",2,"continue","",208460.699999976,208453.2,208460.699999976,208460.699999976,208453.2,208460.699999976,1,208460.699999976,0,0,NA,"Click To Continue","Continue Button",2,"object-7","Task Instructions",NA,"SUPPRF63407"
"4",1702922649976,"18/12/2023 18:04:09",1702904649976,-5,"18/12/2023 08:04:09",157680,2,"task-w25u",NA,33762594,9986273,NA,"complete",NA,"6580828b46e0e08413c64921","computer","Desktop or Laptop","Mac OS 10.15.7","Chrome 120.0.0.0","1440x900","1440x684",NA,NA,0,"Task Introduction and Instructions (re-introduce video and audio)",1,"GHFIEJDACB","Passed AC2",NA,"Spreadsheet1",1,"Task Instructions","Screen 3","1qtc8v",3,"continue","",3174.69999999405,3166.50000000003,3174.69999999405,3174.69999999405,3166.50000000003,3174.69999999405,1,3174.69999999405,0,0,NA,"Click To Continue","Continue Button",2,"object-52","Task Instructions",NA,"SUPPRF63407"
"5",1702922653291,"18/12/2023 18:04:13",1702904653291,-5,"18/12/2023 08:04:13",157680,2,"task-w25u",NA,33762594,9986273,NA,"complete",NA,"6580828b46e0e08413c64921","computer","Desktop or Laptop","Mac OS 10.15.7","Chrome 120.0.0.0","1440x900","1440x684",NA,NA,0,"Task Introduction and Instructions (re-introduce video and audio)",1,"GHFIEJDACB","Passed AC2",NA,"Spreadsheet1",1,"Task Instructions","Screen 4","spepx9",4,"continue","",3326.59999999998,3300.39999999997,3326.59999999998,3326.59999999998,3300.39999999997,3326.59999999998,1,3326.59999999998,0,0,NA,"Click To Continue","Continue Button",2,"object-9","Task Instructions",NA,"SUPPRF63407"
"6",1702922656504,"18/12/2023 18:04:16",1702904656504,-5,"18/12/2023 08:04:16",157680,2,"task-w25u",NA,33762594,9986273,NA,"complete",NA,"6580828b46e0e08413c64921","computer","Desktop or Laptop","Mac OS 10.15.7","Chrome 120.0.0.0","1440x900","1440x684",NA,NA,0,"Task Introduction and Instructions (re-introduce video and audio)",1,"GHFIEJDACB","Passed AC2",NA,"Spreadsheet1",1,"Task Instructions","Screen 5","8nvnao",5,"continue","",3240.49999998213,3233.29999999999,3240.49999998213,3240.49999998213,3233.29999999999,3240.49999998213,1,3240.49999998213,0,0,NA,"Click To Continue","Continue Button",2,"object-44","Task Instructions",NA,"SUPPRF63407"
"7",1702922656510,"18/12/2023 18:04:16",1702904656510,-5,"18/12/2023 08:04:16",157680,2,"task-w25u",NA,33762594,9986273,NA,"complete",NA,"6580828b46e0e08413c64921","computer","Desktop or Laptop","Mac OS 10.15.7","Chrome 120.0.0.0","1440x900","1440x684",NA,NA,0,"Task Introduction and Instructions (re-introduce video and audio)",1,"GHFIEJDACB","Passed AC2",NA,"Spreadsheet1",NA,"","","",NA,"5","END",NA,NA,NA,NA,NA,NA,0,NA,NA,NA,NA,"","",NA,"","",NA,"SUPPRF63407"
"1",1702922886090,"18/12/2023 18:08:06",1702922886090,0,"18/12/2023 18:08:06",157680,2,"task-w25u",NA,33762790,9986393,NA,"complete",NA,"658082c131deaff8f45da1ff","computer","Desktop or Laptop","Windows 10","Chrome 120.0.0.0","1280x720","1280x632",NA,NA,0,"Task Introduction and Instructions (re-introduce video and audio)",1,"HIGJFAEBDC","Passed AC2",NA,"Spreadsheet1",NA,"","","",NA,"5","BEGIN",NA,NA,NA,NA,NA,NA,0,NA,NA,NA,NA,"","",NA,"","",NA,"SUPPRF45302"
"2",1702922889336,"18/12/2023 18:08:09",1702922889336,0,"18/12/2023 18:08:09",157680,2,"task-w25u",NA,33762790,9986393,NA,"complete",NA,"658082c131deaff8f45da1ff","computer","Desktop or Laptop","Windows 10","Chrome 120.0.0.0","1280x720","1280x632",NA,NA,0,"Task Introduction and Instructions (re-introduce video and audio)",1,"HIGJFAEBDC","Passed AC2",NA,"Spreadsheet1",1,"Task Instructions","Screen 1","anr7sn",1,"continue","",3171,3167.2,3171,3171,3167.2,3171,1,3171,0,0,NA,"Click To Continue","Continue Button",2,"object-1944","Task Instructions",NA,"SUPPRF45302"
"3",1702922898934,"18/12/2023 18:08:18",1702922898934,0,"18/12/2023 18:08:18",157680,2,"task-w25u",NA,33762790,9986393,NA,"complete",NA,"658082c131deaff8f45da1ff","computer","Desktop or Laptop","Windows 10","Chrome 120.0.0.0","1280x720","1280x632",NA,NA,0,"Task Introduction and Instructions (re-introduce video and audio)",1,"HIGJFAEBDC","Passed AC2",NA,"Spreadsheet1",1,"Task Instructions","Screen 2","ce2tc8",2,"continue","",9600,9583.1,9600,9600,9583.1,9600,1,9600,0,0,NA,"Click To Continue","Continue Button",2,"object-7","Task Instructions",NA,"SUPPRF45302"
"4",1702922902381,"18/12/2023 18:08:22",1702922902381,0,"18/12/2023 18:08:22",157680,2,"task-w25u",NA,33762790,9986393,NA,"complete",NA,"658082c131deaff8f45da1ff","computer","Desktop or Laptop","Windows 10","Chrome 120.0.0.0","1280x720","1280x632",NA,NA,0,"Task Introduction and Instructions (re-introduce video and audio)",1,"HIGJFAEBDC","Passed AC2",NA,"Spreadsheet1",1,"Task Instructions","Screen 3","1qtc8v",3,"continue","",3466.1,3449.7,3466.1,3466.1,3449.7,3466.1,1,3466.1,0,0,NA,"Click To Continue","Continue Button",2,"object-52","Task Instructions",NA,"SUPPRF45302"
"5",1702922905349,"18/12/2023 18:08:25",1702922905349,0,"18/12/2023 18:08:25",157680,2,"task-w25u",NA,33762790,9986393,NA,"complete",NA,"658082c131deaff8f45da1ff","computer","Desktop or Laptop","Windows 10","Chrome 120.0.0.0","1280x720","1280x632",NA,NA,0,"Task Introduction and Instructions (re-introduce video and audio)",1,"HIGJFAEBDC","Passed AC2",NA,"Spreadsheet1",1,"Task Instructions","Screen 4","spepx9",4,"continue","",2983.4,2966.9,2983.4,2983.4,2966.9,2983.4,1,2983.4,0,0,NA,"Click To Continue","Continue Button",2,"object-9","Task Instructions",NA,"SUPPRF45302"
"6",1702922908069,"18/12/2023 18:08:28",1702922908069,0,"18/12/2023 18:08:28",157680,2,"task-w25u",NA,33762790,9986393,NA,"complete",NA,"658082c131deaff8f45da1ff","computer","Desktop or Laptop","Windows 10","Chrome 120.0.0.0","1280x720","1280x632",NA,NA,0,"Task Introduction and Instructions (re-introduce video and audio)",1,"HIGJFAEBDC","Passed AC2",NA,"Spreadsheet1",1,"Task Instructions","Screen 5","8nvnao",5,"continue","",2738.1,2733.3,2738.1,2738.1,2733.3,2738.1,1,2738.1,0,0,NA,"Click To Continue","Continue Button",2,"object-44","Task Instructions",NA,"SUPPRF45302"
"7",1702922908073,"18/12/2023 18:08:28",1702922908073,0,"18/12/2023 18:08:28",157680,2,"task-w25u",NA,33762790,9986393,NA,"complete",NA,"658082c131deaff8f45da1ff","computer","Desktop or Laptop","Windows 10","Chrome 120.0.0.0","1280x720","1280x632",NA,NA,0,"Task Introduction and Instructions (re-introduce video and audio)",1,"HIGJFAEBDC","Passed AC2",NA,"Spreadsheet1",NA,"","","",NA,"5","END",NA,NA,NA,NA,NA,NA,0,NA,NA,NA,NA,"","",NA,"","",NA,"SUPPRF45302"
"1",1702924495572,"18/12/2023 18:34:55",1702895695572,-8,"18/12/2023 02:34:55",157680,2,"task-w25u",NA,33763234,9986674,NA,"complete",NA,"65808e63d9216ba48305ef0b","computer","Desktop or Laptop","Windows 10","Chrome 120.0.0.0","1536x864","1536x730",NA,NA,0,"Task Introduction and Instructions (re-introduce video and audio)",1,"IJHAGBFCED","Passed AC2",NA,"Spreadsheet1",NA,"","","",NA,"5","BEGIN",NA,NA,NA,NA,NA,NA,0,NA,NA,NA,NA,"","",NA,"","",NA,"SUPPRF78576"
"2",1702924499480,"18/12/2023 18:34:59",1702895699480,-8,"18/12/2023 02:34:59",157680,2,"task-w25u",NA,33763234,9986674,NA,"complete",NA,"65808e63d9216ba48305ef0b","computer","Desktop or Laptop","Windows 10","Chrome 120.0.0.0","1536x864","1536x730",NA,NA,0,"Task Introduction and Instructions (re-introduce video and audio)",1,"IJHAGBFCED","Passed AC2",NA,"Spreadsheet1",1,"Task Instructions","Screen 1","anr7sn",1,"continue","",2971.19999998808,2966.8,2971.19999998808,2971.19999998808,2966.8,2971.19999998808,1,2971.19999998808,0,0,NA,"Click To Continue","Continue Button",2,"object-1944","Task Instructions",NA,"SUPPRF78576"
"3",1702924505170,"18/12/2023 18:35:05",1702895705170,-8,"18/12/2023 02:35:05",157680,2,"task-w25u",NA,33763234,9986674,NA,"complete",NA,"65808e63d9216ba48305ef0b","computer","Desktop or Laptop","Windows 10","Chrome 120.0.0.0","1536x864","1536x730",NA,NA,0,"Task Introduction and Instructions (re-introduce video and audio)",1,"IJHAGBFCED","Passed AC2",NA,"Spreadsheet1",1,"Task Instructions","Screen 2","ce2tc8",2,"continue","",5694.39999998808,5683,5694.39999998808,5694.39999998808,5683,5694.39999998808,1,5694.39999998808,0,0,NA,"Click To Continue","Continue Button",2,"object-7","Task Instructions",NA,"SUPPRF78576"
"4",1702924507849,"18/12/2023 18:35:07",1702895707849,-8,"18/12/2023 02:35:07",157680,2,"task-w25u",NA,33763234,9986674,NA,"complete",NA,"65808e63d9216ba48305ef0b","computer","Desktop or Laptop","Windows 10","Chrome 120.0.0.0","1536x864","1536x730",NA,NA,0,"Task Introduction and Instructions (re-introduce video and audio)",1,"IJHAGBFCED","Passed AC2",NA,"Spreadsheet1",1,"Task Instructions","Screen 3","1qtc8v",3,"continue","",2690.59999997616,2683.7,2690.59999997616,2690.59999997616,2683.7,2690.59999997616,1,2690.59999997616,0,0,NA,"Click To Continue","Continue Button",2,"object-52","Task Instructions",NA,"SUPPRF78576"
"5",1702924510919,"18/12/2023 18:35:10",1702895710919,-8,"18/12/2023 02:35:10",157680,2,"task-w25u",NA,33763234,9986674,NA,"complete",NA,"65808e63d9216ba48305ef0b","computer","Desktop or Laptop","Windows 10","Chrome 120.0.0.0","1536x864","1536x730",NA,NA,0,"Task Introduction and Instructions (re-introduce video and audio)",1,"IJHAGBFCED","Passed AC2",NA,"Spreadsheet1",1,"Task Instructions","Screen 4","spepx9",4,"continue","",3076.89999997616,3066.5,3076.89999997616,3076.89999997616,3066.5,3076.89999997616,1,3076.89999997616,0,0,NA,"Click To Continue","Continue Button",2,"object-9","Task Instructions",NA,"SUPPRF78576"
"6",1702924523563,"18/12/2023 18:35:23",1702895723563,-8,"18/12/2023 02:35:23",157680,2,"task-w25u",NA,33763234,9986674,NA,"complete",NA,"65808e63d9216ba48305ef0b","computer","Desktop or Laptop","Windows 10","Chrome 120.0.0.0","1536x864","1536x730",NA,NA,0,"Task Introduction and Instructions (re-introduce video and audio)",1,"IJHAGBFCED","Passed AC2",NA,"Spreadsheet1",1,"Task Instructions","Screen 5","8nvnao",5,"continue","",12654.3999999762,12650.5,12654.3999999762,12654.3999999762,12650.5,12654.3999999762,1,12654.3999999762,0,0,NA,"Click To Continue","Continue Button",2,"object-44","Task Instructions",NA,"SUPPRF78576"
"7",1702924523568,"18/12/2023 18:35:23",1702895723568,-8,"18/12/2023 02:35:23",157680,2,"task-w25u",NA,33763234,9986674,NA,"complete",NA,"65808e63d9216ba48305ef0b","computer","Desktop or Laptop","Windows 10","Chrome 120.0.0.0","1536x864","1536x730",NA,NA,0,"Task Introduction and Instructions (re-introduce video and audio)",1,"IJHAGBFCED","Passed AC2",NA,"Spreadsheet1",NA,"","","",NA,"5","END",NA,NA,NA,NA,NA,NA,0,NA,NA,NA,NA,"","",NA,"","",NA,"SUPPRF78576"
"1",1702929140884,"18/12/2023 19:52:20",1702929140884,0,"18/12/2023 19:52:20",157680,2,"task-w25u",NA,33764325,9986889,NA,"rejected - time limit reached",NA,"65809058b567e63f933e871d","computer","Desktop or Laptop","Windows 10","Chrome 120.0.0.0","1536x864","1536x730",NA,NA,0,"Task Introduction and Instructions (re-introduce video and audio)",1,"JAIBHCGDFE","Passed AC2",NA,"Spreadsheet1",NA,"","","",NA,"5","BEGIN",NA,NA,NA,NA,NA,NA,0,NA,NA,NA,NA,"","",NA,"","",NA,"SUPPRF07128"
"2",1702929146515,"18/12/2023 19:52:26",1702929146515,0,"18/12/2023 19:52:26",157680,2,"task-w25u",NA,33764325,9986889,NA,"rejected - time limit reached",NA,"65809058b567e63f933e871d","computer","Desktop or Laptop","Windows 10","Chrome 120.0.0.0","1536x864","1536x730",NA,NA,0,"Task Introduction and Instructions (re-introduce video and audio)",1,"JAIBHCGDFE","Passed AC2",NA,"Spreadsheet1",1,"Task Instructions","Screen 1","anr7sn",1,"continue","",4663.1,4646.6,4663.1,4663.1,4646.6,4663.1,1,4663.1,0,0,NA,"Click To Continue","Continue Button",2,"object-1944","Task Instructions",NA,"SUPPRF07128"
"3",1702929166213,"18/12/2023 19:52:46",1702929166213,0,"18/12/2023 19:52:46",157680,2,"task-w25u",NA,33764325,9986889,NA,"rejected - time limit reached",NA,"65809058b567e63f933e871d","computer","Desktop or Laptop","Windows 10","Chrome 120.0.0.0","1536x864","1536x730",NA,NA,0,"Task Introduction and Instructions (re-introduce video and audio)",1,"JAIBHCGDFE","Passed AC2",NA,"Spreadsheet1",1,"Task Instructions","Screen 2","ce2tc8",2,"continue","",19716.5999999911,19704.3,19716.5999999911,19716.5999999911,19704.3,19716.5999999911,1,19716.5999999911,0,0,NA,"Click To Continue","Continue Button",2,"object-7","Task Instructions",NA,"SUPPRF07128"
"4",1702929169262,"18/12/2023 19:52:49",1702929169262,0,"18/12/2023 19:52:49",157680,2,"task-w25u",NA,33764325,9986889,NA,"rejected - time limit reached",NA,"65809058b567e63f933e871d","computer","Desktop or Laptop","Windows 10","Chrome 120.0.0.0","1536x864","1536x730",NA,NA,0,"Task Introduction and Instructions (re-introduce video and audio)",1,"JAIBHCGDFE","Passed AC2",NA,"Spreadsheet1",1,"Task Instructions","Screen 3","1qtc8v",3,"continue","",3060.99999999404,3048.2,3060.99999999404,3060.99999999404,3048.2,3060.99999999404,1,3060.99999999404,0,0,NA,"Click To Continue","Continue Button",2,"object-52","Task Instructions",NA,"SUPPRF07128"
"5",1702929176135,"18/12/2023 19:52:56",1702929176135,0,"18/12/2023 19:52:56",157680,2,"task-w25u",NA,33764325,9986889,NA,"rejected - time limit reached",NA,"65809058b567e63f933e871d","computer","Desktop or Laptop","Windows 10","Chrome 120.0.0.0","1536x864","1536x730",NA,NA,0,"Task Introduction and Instructions (re-introduce video and audio)",1,"JAIBHCGDFE","Passed AC2",NA,"Spreadsheet1",1,"Task Instructions","Screen 4","spepx9",4,"continue","",6886.7,6879.6,6886.7,6886.7,6879.6,6886.7,1,6886.7,0,0,NA,"Click To Continue","Continue Button",2,"object-9","Task Instructions",NA,"SUPPRF07128"
"6",1702929179147,"18/12/2023 19:52:59",1702929179147,0,"18/12/2023 19:52:59",157680,2,"task-w25u",NA,33764325,9986889,NA,"rejected - time limit reached",NA,"65809058b567e63f933e871d","computer","Desktop or Laptop","Windows 10","Chrome 120.0.0.0","1536x864","1536x730",NA,NA,0,"Task Introduction and Instructions (re-introduce video and audio)",1,"JAIBHCGDFE","Passed AC2",NA,"Spreadsheet1",1,"Task Instructions","Screen 5","8nvnao",5,"continue","",3018.6,3014.1,3018.6,3018.6,3014.1,3018.6,1,3018.6,0,0,NA,"Click To Continue","Continue Button",2,"object-44","Task Instructions",NA,"SUPPRF07128"
"7",1702929179154,"18/12/2023 19:52:59",1702929179154,0,"18/12/2023 19:52:59",157680,2,"task-w25u",NA,33764325,9986889,NA,"rejected - time limit reached",NA,"65809058b567e63f933e871d","computer","Desktop or Laptop","Windows 10","Chrome 120.0.0.0","1536x864","1536x730",NA,NA,0,"Task Introduction and Instructions (re-introduce video and audio)",1,"JAIBHCGDFE","Passed AC2",NA,"Spreadsheet1",NA,"","","",NA,"5","END",NA,NA,NA,NA,NA,NA,0,NA,NA,NA,NA,"","",NA,"","",NA,"SUPPRF07128"
"1",1702935272819,"18/12/2023 21:34:32",1702935272819,0,"18/12/2023 21:34:32",157680,2,"task-w25u",NA,33766362,9987520,NA,"complete",NA,"6580b7dab3d43e4e65846cb6","computer","Desktop or Laptop","Windows 10","Chrome 120.0.0.0","2560x1440","2048x1023",NA,NA,0,"Task Introduction and Instructions (re-introduce video and audio)",1,"ABJCIDHEGF","Passed AC2",NA,"Spreadsheet1",NA,"","","",NA,"5","BEGIN",NA,NA,NA,NA,NA,NA,0,NA,NA,NA,NA,"","",NA,"","",NA,"SUPPRF65935"
"2",1702935279842,"18/12/2023 21:34:39",1702935279842,0,"18/12/2023 21:34:39",157680,2,"task-w25u",NA,33766362,9987520,NA,"complete",NA,"6580b7dab3d43e4e65846cb6","computer","Desktop or Laptop","Windows 10","Chrome 120.0.0.0","2560x1440","2048x1023",NA,NA,0,"Task Introduction and Instructions (re-introduce video and audio)",1,"ABJCIDHEGF","Passed AC2",NA,"Spreadsheet1",1,"Task Instructions","Screen 1","anr7sn",1,"continue","",6889.3,6872.5,6889.3,6889.3,6872.5,6889.3,1,6889.3,0,0,NA,"Click To Continue","Continue Button",2,"object-1944","Task Instructions",NA,"SUPPRF65935"
"3",1702935288671,"18/12/2023 21:34:48",1702935288671,0,"18/12/2023 21:34:48",157680,2,"task-w25u",NA,33766362,9987520,NA,"complete",NA,"6580b7dab3d43e4e65846cb6","computer","Desktop or Laptop","Windows 10","Chrome 120.0.0.0","2560x1440","2048x1023",NA,NA,0,"Task Introduction and Instructions (re-introduce video and audio)",1,"ABJCIDHEGF","Passed AC2",NA,"Spreadsheet1",1,"Task Instructions","Screen 2","ce2tc8",2,"continue","",8846.39999998808,8840.6,8846.39999998808,8846.39999998808,8840.6,8846.39999998808,1,8846.39999998808,0,0,NA,"Click To Continue","Continue Button",2,"object-7","Task Instructions",NA,"SUPPRF65935"
"4",1702935291700,"18/12/2023 21:34:51",1702935291700,0,"18/12/2023 21:34:51",157680,2,"task-w25u",NA,33766362,9987520,NA,"complete",NA,"6580b7dab3d43e4e65846cb6","computer","Desktop or Laptop","Windows 10","Chrome 120.0.0.0","2560x1440","2048x1023",NA,NA,0,"Task Introduction and Instructions (re-introduce video and audio)",1,"ABJCIDHEGF","Passed AC2",NA,"Spreadsheet1",1,"Task Instructions","Screen 3","1qtc8v",3,"continue","",3035.49999997616,3019.3,3035.49999997616,3035.49999997616,3019.3,3035.49999997616,1,3035.49999997616,0,0,NA,"Click To Continue","Continue Button",2,"object-52","Task Instructions",NA,"SUPPRF65935"
"5",1702935294744,"18/12/2023 21:34:54",1702935294744,0,"18/12/2023 21:34:54",157680,2,"task-w25u",NA,33766362,9987520,NA,"complete",NA,"6580b7dab3d43e4e65846cb6","computer","Desktop or Laptop","Windows 10","Chrome 120.0.0.0","2560x1440","2048x1023",NA,NA,0,"Task Introduction and Instructions (re-introduce video and audio)",1,"ABJCIDHEGF","Passed AC2",NA,"Spreadsheet1",1,"Task Instructions","Screen 4","spepx9",4,"continue","",3059.60000001192,3052.5,3059.60000001192,3059.60000001192,3052.5,3059.60000001192,1,3059.60000001192,0,0,NA,"Click To Continue","Continue Button",2,"object-9","Task Instructions",NA,"SUPPRF65935"
