"Event.Index","UTC.Timestamp","UTC.Date.and.Time","Local.Timestamp","Local.Timezone","Local.Date.and.Time","Experiment.ID","Experiment.Version","Tree.Node.Key","Repeat.Key","Schedule.ID","Participant.Private.ID","Participant.Starting.Group","Participant.Status","Participant.Completion.Code","Participant.External.Session.ID","Participant.Device.Type","Participant.Device","Participant.OS","Participant.Browser","Participant.Monitor.Size","Participant.Viewport.Size","Checkpoint","Room.ID","Room.Order","Task.Name","Task.Version","order.ot79","branch.g31k","branch.5gtn","Spreadsheet","Trial.Number","Display","Screen","Screen.ID","Screen.Counter","Response.Type","Response","Onset.Time","Clock.Time","Reaction.Time","Absolute.Onset.Time","Absolute.Clock.Time","Absolute.Reaction.Time","Correct","Response.Onset","Response.Duration","Proportion","Tag","Component.Name","Object.Name","Object.Number","Object.ID","Spreadsheet..display","Manipulation..Spreadsheet","Random_ID"
"1",1696935464268,"10/10/2023 10:57:44",1696939064268,1,"10/10/2023 12:57:44",146524,3,"task-ybli",NA,32129595,9500282,NA,"complete",NA,"652535a4bc4e0028590efed3","computer","Desktop or Laptop","Windows 10","Chrome 117.0.0.0","1920x1080","1920x931",NA,NA,0,"Task Introduction and Instructions (removed audio and video)",3,"BCADJEIFHG","Passed AC2",NA,"Spreadsheet1",NA,"","","",NA,"5","BEGIN",NA,NA,NA,NA,NA,NA,0,NA,NA,NA,NA,"","",NA,"","",NA,"SUPPRF18834"
"2",1696935469763,"10/10/2023 10:57:49",1696939069763,1,"10/10/2023 12:57:49",146524,3,"task-ybli",NA,32129595,9500282,NA,"complete",NA,"652535a4bc4e0028590efed3","computer","Desktop or Laptop","Windows 10","Chrome 117.0.0.0","1920x1080","1920x931",NA,NA,0,"Task Introduction and Instructions (removed audio and video)",3,"BCADJEIFHG","Passed AC2",NA,"Spreadsheet1",1,"Task Instructions","Screen 1","anr7sn",1,"continue","",5366.519,5350.083,5366.519,5366.519,5350.083,5366.519,1,5366.519,0,0,NA,"Click To Continue","Continue Button",2,"object-1944","Task Instructions",NA,"SUPPRF18834"
"3",1696935492195,"10/10/2023 10:58:12",1696939092195,1,"10/10/2023 12:58:12",146524,3,"task-ybli",NA,32129595,9500282,NA,"complete",NA,"652535a4bc4e0028590efed3","computer","Desktop or Laptop","Windows 10","Chrome 117.0.0.0","1920x1080","1920x931",NA,NA,0,"Task Introduction and Instructions (removed audio and video)",3,"BCADJEIFHG","Passed AC2",NA,"Spreadsheet1",1,"Task Instructions","Screen 2","ce2tc8",2,"continue","",22453.9280000007,22450.079,22453.9280000007,22453.9280000007,22450.079,22453.9280000007,1,22453.9280000007,0,0,NA,"Click To Continue","Continue Button",2,"object-7","Task Instructions",NA,"SUPPRF18834"
"4",1696935494845,"10/10/2023 10:58:14",1696939094845,1,"10/10/2023 12:58:14",146524,3,"task-ybli",NA,32129595,9500282,NA,"complete",NA,"652535a4bc4e0028590efed3","computer","Desktop or Laptop","Windows 10","Chrome 117.0.0.0","1920x1080","1920x931",NA,NA,0,"Task Introduction and Instructions (removed audio and video)",3,"BCADJEIFHG","Passed AC2",NA,"Spreadsheet1",1,"Task Instructions","Screen 5","spepx9",3,"continue","",2649.923,2633.305,2649.923,2649.923,2633.305,2649.923,1,2649.923,0,0,NA,"Click To Continue","Continue Button",2,"object-9","Task Instructions",NA,"SUPPRF18834"
"5",1696935497317,"10/10/2023 10:58:17",1696939097317,1,"10/10/2023 12:58:17",146524,3,"task-ybli",NA,32129595,9500282,NA,"complete",NA,"652535a4bc4e0028590efed3","computer","Desktop or Laptop","Windows 10","Chrome 117.0.0.0","1920x1080","1920x931",NA,NA,0,"Task Introduction and Instructions (removed audio and video)",3,"BCADJEIFHG","Passed AC2",NA,"Spreadsheet1",1,"Task Instructions","Screen 9","8nvnao",4,"continue","",2492.244,2484.178,2492.244,2492.244,2484.178,2492.244,1,2492.244,0,0,NA,"Click To Continue","Continue Button",2,"object-44","Task Instructions",NA,"SUPPRF18834"
"6",1696935497322,"10/10/2023 10:58:17",1696939097322,1,"10/10/2023 12:58:17",146524,3,"task-ybli",NA,32129595,9500282,NA,"complete",NA,"652535a4bc4e0028590efed3","computer","Desktop or Laptop","Windows 10","Chrome 117.0.0.0","1920x1080","1920x931",NA,NA,0,"Task Introduction and Instructions (removed audio and video)",3,"BCADJEIFHG","Passed AC2",NA,"Spreadsheet1",NA,"","","",NA,"5","END",NA,NA,NA,NA,NA,NA,0,NA,NA,NA,NA,"","",NA,"","",NA,"SUPPRF18834"
"1",1696934613145,"10/10/2023 10:43:33",1696938213145,1,"10/10/2023 12:43:33",146524,3,"task-ybli",NA,32129019,9500308,NA,"complete",NA,"6525370fbf00cac6004acd33","computer","Desktop or Laptop","Windows 10","Chrome 117.0.0.0","1920x1080","1423x912",NA,NA,0,"Task Introduction and Instructions (removed audio and video)",3,"ABJCIDHEGF","Passed AC2",NA,"Spreadsheet1",NA,"","","",NA,"5","BEGIN",NA,NA,NA,NA,NA,NA,0,NA,NA,NA,NA,"","",NA,"","",NA,"SUPPRF41746"
"2",1696934617449,"10/10/2023 10:43:37",1696938217449,1,"10/10/2023 12:43:37",146524,3,"task-ybli",NA,32129019,9500308,NA,"complete",NA,"6525370fbf00cac6004acd33","computer","Desktop or Laptop","Windows 10","Chrome 117.0.0.0","1920x1080","1423x912",NA,NA,0,"Task Introduction and Instructions (removed audio and video)",3,"ABJCIDHEGF","Passed AC2",NA,"Spreadsheet1",1,"Task Instructions","Screen 1","anr7sn",1,"continue","",4168.89700003576,4166.734,4168.89700003576,4168.89700003576,4166.734,4168.89700003576,1,4168.89700003576,0,0,NA,"Click To Continue","Continue Button",2,"object-1944","Task Instructions",NA,"SUPPRF41746"
"3",1696934624399,"10/10/2023 10:43:44",1696938224399,1,"10/10/2023 12:43:44",146524,3,"task-ybli",NA,32129019,9500308,NA,"complete",NA,"6525370fbf00cac6004acd33","computer","Desktop or Laptop","Windows 10","Chrome 117.0.0.0","1920x1080","1423x912",NA,NA,0,"Task Introduction and Instructions (removed audio and video)",3,"ABJCIDHEGF","Passed AC2",NA,"Spreadsheet1",1,"Task Instructions","Screen 2","ce2tc8",2,"continue","",6952.16300003576,6949.579,6952.16300003576,6952.16300003576,6949.579,6952.16300003576,1,6952.16300003576,0,0,NA,"Click To Continue","Continue Button",2,"object-7","Task Instructions",NA,"SUPPRF41746"
"4",1696934633121,"10/10/2023 10:43:53",1696938233121,1,"10/10/2023 12:43:53",146524,3,"task-ybli",NA,32129019,9500308,NA,"complete",NA,"6525370fbf00cac6004acd33","computer","Desktop or Laptop","Windows 10","Chrome 117.0.0.0","1920x1080","1423x912",NA,NA,0,"Task Introduction and Instructions (removed audio and video)",3,"ABJCIDHEGF","Passed AC2",NA,"Spreadsheet1",1,"Task Instructions","Screen 5","spepx9",3,"continue","",8723.98400001192,8716.32,8723.98400001192,8723.98400001192,8716.32,8723.98400001192,1,8723.98400001192,0,0,NA,"Click To Continue","Continue Button",2,"object-9","Task Instructions",NA,"SUPPRF41746"
"5",1696934637495,"10/10/2023 10:43:57",1696938237495,1,"10/10/2023 12:43:57",146524,3,"task-ybli",NA,32129019,9500308,NA,"complete",NA,"6525370fbf00cac6004acd33","computer","Desktop or Laptop","Windows 10","Chrome 117.0.0.0","1920x1080","1423x912",NA,NA,0,"Task Introduction and Instructions (removed audio and video)",3,"ABJCIDHEGF","Passed AC2",NA,"Spreadsheet1",1,"Task Instructions","Screen 9","8nvnao",4,"continue","",4381.96400002384,4366.532,4381.96400002384,4381.96400002384,4366.532,4381.96400002384,1,4381.96400002384,0,0,NA,"Click To Continue","Continue Button",2,"object-44","Task Instructions",NA,"SUPPRF41746"
"6",1696934637499,"10/10/2023 10:43:57",1696938237499,1,"10/10/2023 12:43:57",146524,3,"task-ybli",NA,32129019,9500308,NA,"complete",NA,"6525370fbf00cac6004acd33","computer","Desktop or Laptop","Windows 10","Chrome 117.0.0.0","1920x1080","1423x912",NA,NA,0,"Task Introduction and Instructions (removed audio and video)",3,"ABJCIDHEGF","Passed AC2",NA,"Spreadsheet1",NA,"","","",NA,"5","END",NA,NA,NA,NA,NA,NA,0,NA,NA,NA,NA,"","",NA,"","",NA,"SUPPRF41746"
"1",1696935402702,"10/10/2023 10:56:42",1696939002702,1,"10/10/2023 12:56:42",146524,3,"task-ybli",NA,32129567,9500402,NA,"complete",NA,"652539b71e0db3dbdaacb9e5","computer","Desktop or Laptop","Mac OS 10.15.7","Safari 16.3","1440x900","1440x738",NA,NA,0,"Task Introduction and Instructions (removed audio and video)",3,"CDBEAFJGIH","Passed AC2",NA,"Spreadsheet1",NA,"","","",NA,"5","BEGIN",NA,NA,NA,NA,NA,NA,0,NA,NA,NA,NA,"","",NA,"","",NA,"SUPPRF51534"
"2",1696935406885,"10/10/2023 10:56:46",1696939006885,1,"10/10/2023 12:56:46",146524,3,"task-ybli",NA,32129567,9500402,NA,"complete",NA,"652539b71e0db3dbdaacb9e5","computer","Desktop or Laptop","Mac OS 10.15.7","Safari 16.3","1440x900","1440x738",NA,NA,0,"Task Introduction and Instructions (removed audio and video)",3,"CDBEAFJGIH","Passed AC2",NA,"Spreadsheet1",1,"Task Instructions","Screen 1","anr7sn",1,"continue","",4085,4068,4085,4085,4068,4085,1,4085,0,0,NA,"Click To Continue","Continue Button",2,"object-1944","Task Instructions",NA,"SUPPRF51534"
"3",1696935411982,"10/10/2023 10:56:51",1696939011982,1,"10/10/2023 12:56:51",146524,3,"task-ybli",NA,32129567,9500402,NA,"complete",NA,"652539b71e0db3dbdaacb9e5","computer","Desktop or Laptop","Mac OS 10.15.7","Safari 16.3","1440x900","1440x738",NA,NA,0,"Task Introduction and Instructions (removed audio and video)",3,"CDBEAFJGIH","Passed AC2",NA,"Spreadsheet1",1,"Task Instructions","Screen 2","ce2tc8",2,"continue","",5116,5100,5116,5116,5100,5116,1,5116,0,0,NA,"Click To Continue","Continue Button",2,"object-7","Task Instructions",NA,"SUPPRF51534"
"4",1696935416167,"10/10/2023 10:56:56",1696939016167,1,"10/10/2023 12:56:56",146524,3,"task-ybli",NA,32129567,9500402,NA,"complete",NA,"652539b71e0db3dbdaacb9e5","computer","Desktop or Laptop","Mac OS 10.15.7","Safari 16.3","1440x900","1440x738",NA,NA,0,"Task Introduction and Instructions (removed audio and video)",3,"CDBEAFJGIH","Passed AC2",NA,"Spreadsheet1",1,"Task Instructions","Screen 5","spepx9",3,"continue","",4199,4183,4199,4199,4183,4199,1,4199,0,0,NA,"Click To Continue","Continue Button",2,"object-9","Task Instructions",NA,"SUPPRF51534"
"5",1696935418983,"10/10/2023 10:56:58",1696939018983,1,"10/10/2023 12:56:58",146524,3,"task-ybli",NA,32129567,9500402,NA,"complete",NA,"652539b71e0db3dbdaacb9e5","computer","Desktop or Laptop","Mac OS 10.15.7","Safari 16.3","1440x900","1440x738",NA,NA,0,"Task Introduction and Instructions (removed audio and video)",3,"CDBEAFJGIH","Passed AC2",NA,"Spreadsheet1",1,"Task Instructions","Screen 9","8nvnao",4,"continue","",2833,2817,2833,2833,2817,2833,1,2833,0,0,NA,"Click To Continue","Continue Button",2,"object-44","Task Instructions",NA,"SUPPRF51534"
"6",1696935418987,"10/10/2023 10:56:58",1696939018987,1,"10/10/2023 12:56:58",146524,3,"task-ybli",NA,32129567,9500402,NA,"complete",NA,"652539b71e0db3dbdaacb9e5","computer","Desktop or Laptop","Mac OS 10.15.7","Safari 16.3","1440x900","1440x738",NA,NA,0,"Task Introduction and Instructions (removed audio and video)",3,"CDBEAFJGIH","Passed AC2",NA,"Spreadsheet1",NA,"","","",NA,"5","END",NA,NA,NA,NA,NA,NA,0,NA,NA,NA,NA,"","",NA,"","",NA,"SUPPRF51534"
"1",1696935441981,"10/10/2023 10:57:21",1696939041981,1,"10/10/2023 12:57:21",146524,3,"task-ybli",NA,32129587,9500441,NA,"complete",NA,"65253a72b3fbf3fd02adeec4","computer","Desktop or Laptop","Mac OS 10.15.7","Chrome 117.0.0.0","1440x900","1440x782",NA,NA,0,"Task Introduction and Instructions (removed audio and video)",3,"DECFBGAHJI","Passed AC2",NA,"Spreadsheet1",NA,"","","",NA,"5","BEGIN",NA,NA,NA,NA,NA,NA,0,NA,NA,NA,NA,"","",NA,"","",NA,"SUPPRF77371"
"2",1696935447264,"10/10/2023 10:57:27",1696939047264,1,"10/10/2023 12:57:27",146524,3,"task-ybli",NA,32129587,9500441,NA,"complete",NA,"65253a72b3fbf3fd02adeec4","computer","Desktop or Laptop","Mac OS 10.15.7","Chrome 117.0.0.0","1440x900","1440x782",NA,NA,0,"Task Introduction and Instructions (removed audio and video)",3,"DECFBGAHJI","Passed AC2",NA,"Spreadsheet1",1,"Task Instructions","Screen 1","anr7sn",1,"continue","",5213.78300000075,5200.054,5213.78300000075,5213.78300000075,5200.054,5213.78300000075,1,5213.78300000075,0,0,NA,"Click To Continue","Continue Button",2,"object-1944","Task Instructions",NA,"SUPPRF77371"
"3",1696935453670,"10/10/2023 10:57:33",1696939053670,1,"10/10/2023 12:57:33",146524,3,"task-ybli",NA,32129587,9500441,NA,"complete",NA,"65253a72b3fbf3fd02adeec4","computer","Desktop or Laptop","Mac OS 10.15.7","Chrome 117.0.0.0","1440x900","1440x782",NA,NA,0,"Task Introduction and Instructions (removed audio and video)",3,"DECFBGAHJI","Passed AC2",NA,"Spreadsheet1",1,"Task Instructions","Screen 2","ce2tc8",2,"continue","",6416.41,6399.744,6416.41,6416.41,6399.744,6416.41,1,6416.41,0,0,NA,"Click To Continue","Continue Button",2,"object-7","Task Instructions",NA,"SUPPRF77371"
"4",1696935456675,"10/10/2023 10:57:36",1696939056675,1,"10/10/2023 12:57:36",146524,3,"task-ybli",NA,32129587,9500441,NA,"complete",NA,"65253a72b3fbf3fd02adeec4","computer","Desktop or Laptop","Mac OS 10.15.7","Chrome 117.0.0.0","1440x900","1440x782",NA,NA,0,"Task Introduction and Instructions (removed audio and video)",3,"DECFBGAHJI","Passed AC2",NA,"Spreadsheet1",1,"Task Instructions","Screen 5","spepx9",3,"continue","",3025.185,3016.809,3025.185,3025.185,3016.809,3025.185,1,3025.185,0,0,NA,"Click To Continue","Continue Button",2,"object-9","Task Instructions",NA,"SUPPRF77371"
"5",1696935459629,"10/10/2023 10:57:39",1696939059629,1,"10/10/2023 12:57:39",146524,3,"task-ybli",NA,32129587,9500441,NA,"complete",NA,"65253a72b3fbf3fd02adeec4","computer","Desktop or Laptop","Mac OS 10.15.7","Chrome 117.0.0.0","1440x900","1440x782",NA,NA,0,"Task Introduction and Instructions (removed audio and video)",3,"DECFBGAHJI","Passed AC2",NA,"Spreadsheet1",1,"Task Instructions","Screen 9","8nvnao",4,"continue","",2962.17600000075,2949.882,2962.17600000075,2962.17600000075,2949.882,2962.17600000075,1,2962.17600000075,0,0,NA,"Click To Continue","Continue Button",2,"object-44","Task Instructions",NA,"SUPPRF77371"
"6",1696935459631,"10/10/2023 10:57:39",1696939059631,1,"10/10/2023 12:57:39",146524,3,"task-ybli",NA,32129587,9500441,NA,"complete",NA,"65253a72b3fbf3fd02adeec4","computer","Desktop or Laptop","Mac OS 10.15.7","Chrome 117.0.0.0","1440x900","1440x782",NA,NA,0,"Task Introduction and Instructions (removed audio and video)",3,"DECFBGAHJI","Passed AC2",NA,"Spreadsheet1",NA,"","","",NA,"5","END",NA,NA,NA,NA,NA,NA,0,NA,NA,NA,NA,"","",NA,"","",NA,"SUPPRF77371"
"1",1696935866438,"10/10/2023 11:04:26",1696939466438,1,"10/10/2023 13:04:26",146524,3,"task-ybli",NA,32129813,9500529,NA,"complete",NA,"65253b77ca2f853bab081779","computer","Desktop or Laptop","Windows 10","Chrome 117.0.0.0","2560x1440","2560x1323",NA,NA,0,"Task Introduction and Instructions (removed audio and video)",3,"FGEHDICJBA","Passed AC2",NA,"Spreadsheet1",NA,"","","",NA,"5","BEGIN",NA,NA,NA,NA,NA,NA,0,NA,NA,NA,NA,"","",NA,"","",NA,"SUPPRF20648"
"2",1696935869409,"10/10/2023 11:04:29",1696939469409,1,"10/10/2023 13:04:29",146524,3,"task-ybli",NA,32129813,9500529,NA,"complete",NA,"65253b77ca2f853bab081779","computer","Desktop or Laptop","Windows 10","Chrome 117.0.0.0","2560x1440","2560x1323",NA,NA,0,"Task Introduction and Instructions (removed audio and video)",3,"FGEHDICJBA","Passed AC2",NA,"Spreadsheet1",1,"Task Instructions","Screen 1","anr7sn",1,"continue","",2874.175,2871.325,2874.175,2874.175,2871.325,2874.175,1,2874.175,0,0,NA,"Click To Continue","Continue Button",2,"object-1944","Task Instructions",NA,"SUPPRF20648"
"3",1696935876423,"10/10/2023 11:04:36",1696939476423,1,"10/10/2023 13:04:36",146524,3,"task-ybli",NA,32129813,9500529,NA,"complete",NA,"65253b77ca2f853bab081779","computer","Desktop or Laptop","Windows 10","Chrome 117.0.0.0","2560x1440","2560x1323",NA,NA,0,"Task Introduction and Instructions (removed audio and video)",3,"FGEHDICJBA","Passed AC2",NA,"Spreadsheet1",1,"Task Instructions","Screen 2","ce2tc8",2,"continue","",7016.65000001192,7013.785,7016.65000001192,7016.65000001192,7013.785,7016.65000001192,1,7016.65000001192,0,0,NA,"Click To Continue","Continue Button",2,"object-7","Task Instructions",NA,"SUPPRF20648"
"4",1696935879046,"10/10/2023 11:04:39",1696939479046,1,"10/10/2023 13:04:39",146524,3,"task-ybli",NA,32129813,9500529,NA,"complete",NA,"65253b77ca2f853bab081779","computer","Desktop or Laptop","Windows 10","Chrome 117.0.0.0","2560x1440","2560x1323",NA,NA,0,"Task Introduction and Instructions (removed audio and video)",3,"FGEHDICJBA","Passed AC2",NA,"Spreadsheet1",1,"Task Instructions","Screen 5","spepx9",3,"continue","",2625.76499998808,2625.476,2625.76499998808,2625.76499998808,2625.476,2625.76499998808,1,2625.76499998808,0,0,NA,"Click To Continue","Continue Button",2,"object-9","Task Instructions",NA,"SUPPRF20648"
"5",1696935881557,"10/10/2023 11:04:41",1696939481557,1,"10/10/2023 13:04:41",146524,3,"task-ybli",NA,32129813,9500529,NA,"complete",NA,"65253b77ca2f853bab081779","computer","Desktop or Laptop","Windows 10","Chrome 117.0.0.0","2560x1440","2560x1323",NA,NA,0,"Task Introduction and Instructions (removed audio and video)",3,"FGEHDICJBA","Passed AC2",NA,"Spreadsheet1",1,"Task Instructions","Screen 9","8nvnao",4,"continue","",2511.28899998808,2508.814,2511.28899998808,2511.28899998808,2508.814,2511.28899998808,1,2511.28899998808,0,0,NA,"Click To Continue","Continue Button",2,"object-44","Task Instructions",NA,"SUPPRF20648"
"6",1696935881558,"10/10/2023 11:04:41",1696939481558,1,"10/10/2023 13:04:41",146524,3,"task-ybli",NA,32129813,9500529,NA,"complete",NA,"65253b77ca2f853bab081779","computer","Desktop or Laptop","Windows 10","Chrome 117.0.0.0","2560x1440","2560x1323",NA,NA,0,"Task Introduction and Instructions (removed audio and video)",3,"FGEHDICJBA","Passed AC2",NA,"Spreadsheet1",NA,"","","",NA,"5","END",NA,NA,NA,NA,NA,NA,0,NA,NA,NA,NA,"","",NA,"","",NA,"SUPPRF20648"
"1",1696935866167,"10/10/2023 11:04:26",1696939466167,1,"10/10/2023 13:04:26",146524,3,"task-ybli",NA,32129835,9500459,NA,"complete",NA,"65253a7af19dbb56db1412ee","computer","Desktop or Laptop","Windows 10","Chrome 117.0.0.0","1920x1080","1920x941",NA,NA,0,"Task Introduction and Instructions (removed audio and video)",3,"EFDGCHBIAJ","Passed AC2",NA,"Spreadsheet1",NA,"","","",NA,"5","BEGIN",NA,NA,NA,NA,NA,NA,0,NA,NA,NA,NA,"","",NA,"","",NA,"SUPPRF71510"
"2",1696935869685,"10/10/2023 11:04:29",1696939469685,1,"10/10/2023 13:04:29",146524,3,"task-ybli",NA,32129835,9500459,NA,"complete",NA,"65253a7af19dbb56db1412ee","computer","Desktop or Laptop","Windows 10","Chrome 117.0.0.0","1920x1080","1920x941",NA,NA,0,"Task Introduction and Instructions (removed audio and video)",3,"EFDGCHBIAJ","Passed AC2",NA,"Spreadsheet1",1,"Task Instructions","Screen 1","anr7sn",1,"continue","",3472,3465,3472,3472,3465,3472,1,3472,0,0,NA,"Click To Continue","Continue Button",2,"object-1944","Task Instructions",NA,"SUPPRF71510"
"3",1696935874295,"10/10/2023 11:04:34",1696939474295,1,"10/10/2023 13:04:34",146524,3,"task-ybli",NA,32129835,9500459,NA,"complete",NA,"65253a7af19dbb56db1412ee","computer","Desktop or Laptop","Windows 10","Chrome 117.0.0.0","1920x1080","1920x941",NA,NA,0,"Task Introduction and Instructions (removed audio and video)",3,"EFDGCHBIAJ","Passed AC2",NA,"Spreadsheet1",1,"Task Instructions","Screen 2","ce2tc8",2,"continue","",4620,4618,4620,4620,4618,4620,1,4620,0,0,NA,"Click To Continue","Continue Button",2,"object-7","Task Instructions",NA,"SUPPRF71510"
"4",1696935888890,"10/10/2023 11:04:48",1696939488890,1,"10/10/2023 13:04:48",146524,3,"task-ybli",NA,32129835,9500459,NA,"complete",NA,"65253a7af19dbb56db1412ee","computer","Desktop or Laptop","Windows 10","Chrome 117.0.0.0","1920x1080","1920x941",NA,NA,0,"Task Introduction and Instructions (removed audio and video)",3,"EFDGCHBIAJ","Passed AC2",NA,"Spreadsheet1",1,"Task Instructions","Screen 5","spepx9",3,"continue","",14597,14591,14597,14597,14591,14597,1,14597,0,0,NA,"Click To Continue","Continue Button",2,"object-9","Task Instructions",NA,"SUPPRF71510"
"5",1696935891822,"10/10/2023 11:04:51",1696939491822,1,"10/10/2023 13:04:51",146524,3,"task-ybli",NA,32129835,9500459,NA,"complete",NA,"65253a7af19dbb56db1412ee","computer","Desktop or Laptop","Windows 10","Chrome 117.0.0.0","1920x1080","1920x941",NA,NA,0,"Task Introduction and Instructions (removed audio and video)",3,"EFDGCHBIAJ","Passed AC2",NA,"Spreadsheet1",1,"Task Instructions","Screen 9","8nvnao",4,"continue","",2936,2930,2936,2936,2930,2936,1,2936,0,0,NA,"Click To Continue","Continue Button",2,"object-44","Task Instructions",NA,"SUPPRF71510"
"6",1696935891827,"10/10/2023 11:04:51",1696939491827,1,"10/10/2023 13:04:51",146524,3,"task-ybli",NA,32129835,9500459,NA,"complete",NA,"65253a7af19dbb56db1412ee","computer","Desktop or Laptop","Windows 10","Chrome 117.0.0.0","1920x1080","1920x941",NA,NA,0,"Task Introduction and Instructions (removed audio and video)",3,"EFDGCHBIAJ","Passed AC2",NA,"Spreadsheet1",NA,"","","",NA,"5","END",NA,NA,NA,NA,NA,NA,0,NA,NA,NA,NA,"","",NA,"","",NA,"SUPPRF71510"
"1",1696936653202,"10/10/2023 11:17:33",1696940253202,1,"10/10/2023 13:17:33",146524,3,"task-ybli",NA,32130149,9500616,NA,"complete",NA,"65253ded783624af1fcb11c5","computer","Desktop or Laptop","Mac OS 10.15.7","Chrome 116.0.0.0","1440x900","1440x815",NA,NA,0,"Task Introduction and Instructions (removed audio and video)",3,"GHFIEJDACB","Passed AC2",NA,"Spreadsheet1",NA,"","","",NA,"5","BEGIN",NA,NA,NA,NA,NA,NA,0,NA,NA,NA,NA,"","",NA,"","",NA,"SUPPRF43420"
"2",1696936656406,"10/10/2023 11:17:36",1696940256406,1,"10/10/2023 13:17:36",146524,3,"task-ybli",NA,32130149,9500616,NA,"complete",NA,"65253ded783624af1fcb11c5","computer","Desktop or Laptop","Mac OS 10.15.7","Chrome 116.0.0.0","1440x900","1440x815",NA,NA,0,"Task Introduction and Instructions (removed audio and video)",3,"GHFIEJDACB","Passed AC2",NA,"Spreadsheet1",1,"Task Instructions","Screen 1","anr7sn",1,"continue","",3158.03500007153,3150.386,3158.03500007153,3158.03500007153,3150.386,3158.03500007153,1,3158.03500007153,0,0,NA,"Click To Continue","Continue Button",2,"object-1944","Task Instructions",NA,"SUPPRF43420"
"3",1696936666689,"10/10/2023 11:17:46",1696940266689,1,"10/10/2023 13:17:46",146524,3,"task-ybli",NA,32130149,9500616,NA,"complete",NA,"65253ded783624af1fcb11c5","computer","Desktop or Laptop","Mac OS 10.15.7","Chrome 116.0.0.0","1440x900","1440x815",NA,NA,0,"Task Introduction and Instructions (removed audio and video)",3,"GHFIEJDACB","Passed AC2",NA,"Spreadsheet1",1,"Task Instructions","Screen 2","ce2tc8",2,"continue","",10291.5490000477,10283.468,10291.5490000477,10291.5490000477,10283.468,10291.5490000477,1,10291.5490000477,0,0,NA,"Click To Continue","Continue Button",2,"object-7","Task Instructions",NA,"SUPPRF43420"
"4",1696936669571,"10/10/2023 11:17:49",1696940269571,1,"10/10/2023 13:17:49",146524,3,"task-ybli",NA,32130149,9500616,NA,"complete",NA,"65253ded783624af1fcb11c5","computer","Desktop or Laptop","Mac OS 10.15.7","Chrome 116.0.0.0","1440x900","1440x815",NA,NA,0,"Task Introduction and Instructions (removed audio and video)",3,"GHFIEJDACB","Passed AC2",NA,"Spreadsheet1",1,"Task Instructions","Screen 5","spepx9",3,"continue","",2890.68100007152,2883.218,2890.68100007152,2890.68100007152,2883.218,2890.68100007152,1,2890.68100007152,0,0,NA,"Click To Continue","Continue Button",2,"object-9","Task Instructions",NA,"SUPPRF43420"
"5",1696936672189,"10/10/2023 11:17:52",1696940272189,1,"10/10/2023 13:17:52",146524,3,"task-ybli",NA,32130149,9500616,NA,"complete",NA,"65253ded783624af1fcb11c5","computer","Desktop or Laptop","Mac OS 10.15.7","Chrome 116.0.0.0","1440x900","1440x815",NA,NA,0,"Task Introduction and Instructions (removed audio and video)",3,"GHFIEJDACB","Passed AC2",NA,"Spreadsheet1",1,"Task Instructions","Screen 9","8nvnao",4,"continue","",2624.76300002384,2616.562,2624.76300002384,2624.76300002384,2616.562,2624.76300002384,1,2624.76300002384,0,0,NA,"Click To Continue","Continue Button",2,"object-44","Task Instructions",NA,"SUPPRF43420"
"6",1696936672191,"10/10/2023 11:17:52",1696940272191,1,"10/10/2023 13:17:52",146524,3,"task-ybli",NA,32130149,9500616,NA,"complete",NA,"65253ded783624af1fcb11c5","computer","Desktop or Laptop","Mac OS 10.15.7","Chrome 116.0.0.0","1440x900","1440x815",NA,NA,0,"Task Introduction and Instructions (removed audio and video)",3,"GHFIEJDACB","Passed AC2",NA,"Spreadsheet1",NA,"","","",NA,"5","END",NA,NA,NA,NA,NA,NA,0,NA,NA,NA,NA,"","",NA,"","",NA,"SUPPRF43420"
"1",1696938215705,"10/10/2023 11:43:35",1696941815705,1,"10/10/2023 13:43:35",146524,3,"task-ybli",NA,32131112,9500967,NA,"complete",NA,"65254394162cd2b6b1bf695e","computer","Desktop or Laptop","Mac OS 10.15.7","Chrome 117.0.0.0","1440x900","1440x783",NA,NA,0,"Task Introduction and Instructions (removed audio and video)",3,"IJHAGBFCED","Passed AC2",NA,"Spreadsheet1",NA,"","","",NA,"5","BEGIN",NA,NA,NA,NA,NA,NA,0,NA,NA,NA,NA,"","",NA,"","",NA,"SUPPRF54374"
"2",1696938220347,"10/10/2023 11:43:40",1696941820347,1,"10/10/2023 13:43:40",146524,3,"task-ybli",NA,32131112,9500967,NA,"complete",NA,"65254394162cd2b6b1bf695e","computer","Desktop or Laptop","Mac OS 10.15.7","Chrome 117.0.0.0","1440x900","1440x783",NA,NA,0,"Task Introduction and Instructions (removed audio and video)",3,"IJHAGBFCED","Passed AC2",NA,"Spreadsheet1",1,"Task Instructions","Screen 1","anr7sn",1,"continue","",4530.28000000037,4516.757,4530.28000000037,4530.28000000037,4516.757,4530.28000000037,1,4530.28000000037,0,0,NA,"Click To Continue","Continue Button",2,"object-1944","Task Instructions",NA,"SUPPRF54374"
"3",1696938237296,"10/10/2023 11:43:57",1696941837296,1,"10/10/2023 13:43:57",146524,3,"task-ybli",NA,32131112,9500967,NA,"complete",NA,"65254394162cd2b6b1bf695e","computer","Desktop or Laptop","Mac OS 10.15.7","Chrome 117.0.0.0","1440x900","1440x783",NA,NA,0,"Task Introduction and Instructions (removed audio and video)",3,"IJHAGBFCED","Passed AC2",NA,"Spreadsheet1",1,"Task Instructions","Screen 2","ce2tc8",2,"continue","",16962.123,16951.376,16962.123,16962.123,16951.376,16962.123,1,16962.123,0,0,NA,"Click To Continue","Continue Button",2,"object-7","Task Instructions",NA,"SUPPRF54374"
"4",1696938263924,"10/10/2023 11:44:23",1696941863924,1,"10/10/2023 13:44:23",146524,3,"task-ybli",NA,32131112,9500967,NA,"complete",NA,"65254394162cd2b6b1bf695e","computer","Desktop or Laptop","Mac OS 10.15.7","Chrome 117.0.0.0","1440x900","1440x783",NA,NA,0,"Task Introduction and Instructions (removed audio and video)",3,"IJHAGBFCED","Passed AC2",NA,"Spreadsheet1",1,"Task Instructions","Screen 5","spepx9",3,"continue","",26634.797,26618.13,26634.797,26634.797,26618.13,26634.797,1,26634.797,0,0,NA,"Click To Continue","Continue Button",2,"object-9","Task Instructions",NA,"SUPPRF54374"
"5",1696938270736,"10/10/2023 11:44:30",1696941870736,1,"10/10/2023 13:44:30",146524,3,"task-ybli",NA,32131112,9500967,NA,"complete",NA,"65254394162cd2b6b1bf695e","computer","Desktop or Laptop","Mac OS 10.15.7","Chrome 117.0.0.0","1440x900","1440x783",NA,NA,0,"Task Introduction and Instructions (removed audio and video)",3,"IJHAGBFCED","Passed AC2",NA,"Spreadsheet1",1,"Task Instructions","Screen 9","8nvnao",4,"continue","",6832.51700000037,6817.325,6832.51700000037,6832.51700000037,6817.325,6832.51700000037,1,6832.51700000037,0,0,NA,"Click To Continue","Continue Button",2,"object-44","Task Instructions",NA,"SUPPRF54374"
"6",1696938270744,"10/10/2023 11:44:30",1696941870744,1,"10/10/2023 13:44:30",146524,3,"task-ybli",NA,32131112,9500967,NA,"complete",NA,"65254394162cd2b6b1bf695e","computer","Desktop or Laptop","Mac OS 10.15.7","Chrome 117.0.0.0","1440x900","1440x783",NA,NA,0,"Task Introduction and Instructions (removed audio and video)",3,"IJHAGBFCED","Passed AC2",NA,"Spreadsheet1",NA,"","","",NA,"5","END",NA,NA,NA,NA,NA,NA,0,NA,NA,NA,NA,"","",NA,"","",NA,"SUPPRF54374"
"1",1696967831818,"10/10/2023 19:57:11",1696942631818,-7,"10/10/2023 05:57:11",146524,3,"task-ybli",NA,32131573,9500890,NA,"complete",NA,"6525413e21cee3583ea1944f","computer","Desktop or Laptop","Windows 10","Edge 117.0.2045.60","1366x768","1366x768",NA,NA,0,"Task Introduction and Instructions (removed audio and video)",3,"HIGJFAEBDC","Passed AC2",NA,"Spreadsheet1",NA,"","","",NA,"5","BEGIN",NA,NA,NA,NA,NA,NA,0,NA,NA,NA,NA,"","",NA,"","",NA,"SUPPRF62013"
"2",1696967836269,"10/10/2023 19:57:16",1696942636269,-7,"10/10/2023 05:57:16",146524,3,"task-ybli",NA,32131573,9500890,NA,"complete",NA,"6525413e21cee3583ea1944f","computer","Desktop or Laptop","Windows 10","Edge 117.0.2045.60","1366x768","1366x768",NA,NA,0,"Task Introduction and Instructions (removed audio and video)",3,"HIGJFAEBDC","Passed AC2",NA,"Spreadsheet1",1,"Task Instructions","Screen 1","anr7sn",1,"continue","",3807.93900001192,3799.87,3807.93900001192,3807.93900001192,3799.87,3807.93900001192,1,3807.93900001192,0,0,NA,"Click To Continue","Continue Button",2,"object-1944","Task Instructions",NA,"SUPPRF62013"
"3",1696967844735,"10/10/2023 19:57:24",1696942644735,-7,"10/10/2023 05:57:24",146524,3,"task-ybli",NA,32131573,9500890,NA,"complete",NA,"6525413e21cee3583ea1944f","computer","Desktop or Laptop","Windows 10","Edge 117.0.2045.60","1366x768","1366x768",NA,NA,0,"Task Introduction and Instructions (removed audio and video)",3,"HIGJFAEBDC","Passed AC2",NA,"Spreadsheet1",1,"Task Instructions","Screen 2","ce2tc8",2,"continue","",8473.96899998808,8465.95,8473.96899998808,8473.96899998808,8465.95,8473.96899998808,1,8473.96899998808,0,0,NA,"Click To Continue","Continue Button",2,"object-7","Task Instructions",NA,"SUPPRF62013"
"4",1696967847897,"10/10/2023 19:57:27",1696942647897,-7,"10/10/2023 05:57:27",146524,3,"task-ybli",NA,32131573,9500890,NA,"complete",NA,"6525413e21cee3583ea1944f","computer","Desktop or Laptop","Windows 10","Edge 117.0.2045.60","1366x768","1366x768",NA,NA,0,"Task Introduction and Instructions (removed audio and video)",3,"HIGJFAEBDC","Passed AC2",NA,"Spreadsheet1",1,"Task Instructions","Screen 5","spepx9",3,"continue","",3170.01899998808,3166.893,3170.01899998808,3170.01899998808,3166.893,3170.01899998808,1,3170.01899998808,0,0,NA,"Click To Continue","Continue Button",2,"object-9","Task Instructions",NA,"SUPPRF62013"
"5",1696967851534,"10/10/2023 19:57:31",1696942651534,-7,"10/10/2023 05:57:31",146524,3,"task-ybli",NA,32131573,9500890,NA,"complete",NA,"6525413e21cee3583ea1944f","computer","Desktop or Laptop","Windows 10","Edge 117.0.2045.60","1366x768","1366x768",NA,NA,0,"Task Introduction and Instructions (removed audio and video)",3,"HIGJFAEBDC","Passed AC2",NA,"Spreadsheet1",1,"Task Instructions","Screen 9","8nvnao",4,"continue","",3640.22600001192,3633.06,3640.22600001192,3640.22600001192,3633.06,3640.22600001192,1,3640.22600001192,0,0,NA,"Click To Continue","Continue Button",2,"object-44","Task Instructions",NA,"SUPPRF62013"
"6",1696967851541,"10/10/2023 19:57:31",1696942651541,-7,"10/10/2023 05:57:31",146524,3,"task-ybli",NA,32131573,9500890,NA,"complete",NA,"6525413e21cee3583ea1944f","computer","Desktop or Laptop","Windows 10","Edge 117.0.2045.60","1366x768","1366x768",NA,NA,0,"Task Introduction and Instructions (removed audio and video)",3,"HIGJFAEBDC","Passed AC2",NA,"Spreadsheet1",NA,"","","",NA,"5","END",NA,NA,NA,NA,NA,NA,0,NA,NA,NA,NA,"","",NA,"","",NA,"SUPPRF62013"
"1",1696939671379,"10/10/2023 12:07:51",1696943271379,1,"10/10/2023 14:07:51",146524,3,"task-ybli",NA,32131966,9501291,NA,"complete",NA,"652548d7631d9ec0b489b032","computer","Desktop or Laptop","Windows 10","Firefox 118.0","2560x1440","2560x1279",NA,NA,0,"Task Introduction and Instructions (removed audio and video)",3,"JAIBHCGDFE","Passed AC2",NA,"Spreadsheet1",NA,"","","",NA,"5","BEGIN",NA,NA,NA,NA,NA,NA,0,NA,NA,NA,NA,"","",NA,"","",NA,"SUPPRF96180"
"2",1696939674667,"10/10/2023 12:07:54",1696943274667,1,"10/10/2023 14:07:54",146524,3,"task-ybli",NA,32131966,9501291,NA,"complete",NA,"652548d7631d9ec0b489b032","computer","Desktop or Laptop","Windows 10","Firefox 118.0","2560x1440","2560x1279",NA,NA,0,"Task Introduction and Instructions (removed audio and video)",3,"JAIBHCGDFE","Passed AC2",NA,"Spreadsheet1",1,"Task Instructions","Screen 1","anr7sn",1,"continue","",3222.3,3219.04,3222.3,3222.3,3219.04,3222.3,1,3222.3,0,0,NA,"Click To Continue","Continue Button",2,"object-1944","Task Instructions",NA,"SUPPRF96180"
"3",1696939682375,"10/10/2023 12:08:02",1696943282375,1,"10/10/2023 14:08:02",146524,3,"task-ybli",NA,32131966,9501291,NA,"complete",NA,"652548d7631d9ec0b489b032","computer","Desktop or Laptop","Windows 10","Firefox 118.0","2560x1440","2560x1279",NA,NA,0,"Task Introduction and Instructions (removed audio and video)",3,"JAIBHCGDFE","Passed AC2",NA,"Spreadsheet1",1,"Task Instructions","Screen 2","ce2tc8",2,"continue","",7712.26,7705.64,7712.26,7712.26,7705.64,7712.26,1,7712.26,0,0,NA,"Click To Continue","Continue Button",2,"object-7","Task Instructions",NA,"SUPPRF96180"
"4",1696939686590,"10/10/2023 12:08:06",1696943286590,1,"10/10/2023 14:08:06",146524,3,"task-ybli",NA,32131966,9501291,NA,"complete",NA,"652548d7631d9ec0b489b032","computer","Desktop or Laptop","Windows 10","Firefox 118.0","2560x1440","2560x1279",NA,NA,0,"Task Introduction and Instructions (removed audio and video)",3,"JAIBHCGDFE","Passed AC2",NA,"Spreadsheet1",1,"Task Instructions","Screen 5","spepx9",3,"continue","",4219.76,4203.08,4219.76,4219.76,4203.08,4219.76,1,4219.76,0,0,NA,"Click To Continue","Continue Button",2,"object-9","Task Instructions",NA,"SUPPRF96180"
"5",1696939689533,"10/10/2023 12:08:09",1696943289533,1,"10/10/2023 14:08:09",146524,3,"task-ybli",NA,32131966,9501291,NA,"complete",NA,"652548d7631d9ec0b489b032","computer","Desktop or Laptop","Windows 10","Firefox 118.0","2560x1440","2560x1279",NA,NA,0,"Task Introduction and Instructions (removed audio and video)",3,"JAIBHCGDFE","Passed AC2",NA,"Spreadsheet1",1,"Task Instructions","Screen 9","8nvnao",4,"continue","",2961.54,2953.36,2961.54,2961.54,2953.36,2961.54,1,2961.54,0,0,NA,"Click To Continue","Continue Button",2,"object-44","Task Instructions",NA,"SUPPRF96180"
"6",1696939689537,"10/10/2023 12:08:09",1696943289537,1,"10/10/2023 14:08:09",146524,3,"task-ybli",NA,32131966,9501291,NA,"complete",NA,"652548d7631d9ec0b489b032","computer","Desktop or Laptop","Windows 10","Firefox 118.0","2560x1440","2560x1279",NA,NA,0,"Task Introduction and Instructions (removed audio and video)",3,"JAIBHCGDFE","Passed AC2",NA,"Spreadsheet1",NA,"","","",NA,"5","END",NA,NA,NA,NA,NA,NA,0,NA,NA,NA,NA,"","",NA,"","",NA,"SUPPRF96180"
"1",1696940315109,"10/10/2023 12:18:35",1696943915109,1,"10/10/2023 14:18:35",146524,3,"task-ybli",NA,32132371,9501483,NA,"complete",NA,"65254d7dd9cdb856b589b0b6","computer","Desktop or Laptop","Windows 10","Edge 117.0.2045.60","1920x1080","1872x966",NA,NA,0,"Task Introduction and Instructions (removed audio and video)",3,"ABJCIDHEGF","Passed AC2",NA,"Spreadsheet1",NA,"","","",NA,"5","BEGIN",NA,NA,NA,NA,NA,NA,0,NA,NA,NA,NA,"","",NA,"","",NA,"SUPPRF30203"
"2",1696940420399,"10/10/2023 12:20:20",1696944020399,1,"10/10/2023 14:20:20",146524,3,"task-ybli",NA,32132371,9501483,NA,"complete",NA,"65254d7dd9cdb856b589b0b6","computer","Desktop or Laptop","Windows 10","Edge 117.0.2045.60","1920x1080","1872x966",NA,NA,0,"Task Introduction and Instructions (removed audio and video)",3,"ABJCIDHEGF","Passed AC2",NA,"Spreadsheet1",1,"Task Instructions","Screen 1","anr7sn",1,"continue","",105210.581000002,105205.185,105210.581000002,105210.581000002,105205.185,105210.581000002,1,105210.581000002,0,0,NA,"Click To Continue","Continue Button",2,"object-1944","Task Instructions",NA,"SUPPRF30203"
"3",1696940482910,"10/10/2023 12:21:22",1696944082910,1,"10/10/2023 14:21:22",146524,3,"task-ybli",NA,32132371,9501483,NA,"complete",NA,"65254d7dd9cdb856b589b0b6","computer","Desktop or Laptop","Windows 10","Edge 117.0.2045.60","1920x1080","1872x966",NA,NA,0,"Task Introduction and Instructions (removed audio and video)",3,"ABJCIDHEGF","Passed AC2",NA,"Spreadsheet1",1,"Task Instructions","Screen 2","ce2tc8",2,"continue","",62516.0960000015,62512.03,62516.0960000015,62516.0960000015,62512.03,62516.0960000015,1,62516.0960000015,0,0,NA,"Click To Continue","Continue Button",2,"object-7","Task Instructions",NA,"SUPPRF30203"
"4",1696940485788,"10/10/2023 12:21:25",1696944085788,1,"10/10/2023 14:21:25",146524,3,"task-ybli",NA,32132371,9501483,NA,"complete",NA,"65254d7dd9cdb856b589b0b6","computer","Desktop or Laptop","Windows 10","Edge 117.0.2045.60","1920x1080","1872x966",NA,NA,0,"Task Introduction and Instructions (removed audio and video)",3,"ABJCIDHEGF","Passed AC2",NA,"Spreadsheet1",1,"Task Instructions","Screen 5","spepx9",3,"continue","",2881.86600000222,2869.58799999999,2881.86600000222,2881.86600000222,2869.58799999999,2881.86600000222,1,2881.86600000222,0,0,NA,"Click To Continue","Continue Button",2,"object-9","Task Instructions",NA,"SUPPRF30203"
"5",1696940488884,"10/10/2023 12:21:28",1696944088884,1,"10/10/2023 14:21:28",146524,3,"task-ybli",NA,32132371,9501483,NA,"complete",NA,"65254d7dd9cdb856b589b0b6","computer","Desktop or Laptop","Windows 10","Edge 117.0.2045.60","1920x1080","1872x966",NA,NA,0,"Task Introduction and Instructions (removed audio and video)",3,"ABJCIDHEGF","Passed AC2",NA,"Spreadsheet1",1,"Task Instructions","Screen 9","8nvnao",4,"continue","",3107.67800000074,3103.035,3107.67800000074,3107.67800000074,3103.035,3107.67800000074,1,3107.67800000074,0,0,NA,"Click To Continue","Continue Button",2,"object-44","Task Instructions",NA,"SUPPRF30203"
"6",1696940488886,"10/10/2023 12:21:28",1696944088886,1,"10/10/2023 14:21:28",146524,3,"task-ybli",NA,32132371,9501483,NA,"complete",NA,"65254d7dd9cdb856b589b0b6","computer","Desktop or Laptop","Windows 10","Edge 117.0.2045.60","1920x1080","1872x966",NA,NA,0,"Task Introduction and Instructions (removed audio and video)",3,"ABJCIDHEGF","Passed AC2",NA,"Spreadsheet1",NA,"","","",NA,"5","END",NA,NA,NA,NA,NA,NA,0,NA,NA,NA,NA,"","",NA,"","",NA,"SUPPRF30203"
"1",1696962337452,"10/10/2023 18:25:37",1696947937452,-4,"10/10/2023 10:25:37",146524,3,"task-ybli",NA,32136045,9502306,NA,"complete",NA,"65255c3b73b95dcd70f191c7","computer","Desktop or Laptop","Mac OS 10.15.7","Chrome 117.0.0.0","1440x900","1440x733",NA,NA,0,"Task Introduction and Instructions (removed audio and video)",3,"BCADJEIFHG","Passed AC2",NA,"Spreadsheet1",NA,"","","",NA,"5","BEGIN",NA,NA,NA,NA,NA,NA,0,NA,NA,NA,NA,"","",NA,"","",NA,"SUPPRF16716"
"2",1696962340754,"10/10/2023 18:25:40",1696947940754,-4,"10/10/2023 10:25:40",146524,3,"task-ybli",NA,32136045,9502306,NA,"complete",NA,"65255c3b73b95dcd70f191c7","computer","Desktop or Laptop","Mac OS 10.15.7","Chrome 117.0.0.0","1440x900","1440x733",NA,NA,0,"Task Introduction and Instructions (removed audio and video)",3,"BCADJEIFHG","Passed AC2",NA,"Spreadsheet1",1,"Task Instructions","Screen 1","anr7sn",1,"continue","",3100.434,3083.765,3100.434,3100.434,3083.765,3100.434,1,3100.434,0,0,NA,"Click To Continue","Continue Button",2,"object-1944","Task Instructions",NA,"SUPPRF16716"
"3",1696962348605,"10/10/2023 18:25:48",1696947948605,-4,"10/10/2023 10:25:48",146524,3,"task-ybli",NA,32136045,9502306,NA,"complete",NA,"65255c3b73b95dcd70f191c7","computer","Desktop or Laptop","Mac OS 10.15.7","Chrome 117.0.0.0","1440x900","1440x733",NA,NA,0,"Task Introduction and Instructions (removed audio and video)",3,"BCADJEIFHG","Passed AC2",NA,"Spreadsheet1",1,"Task Instructions","Screen 2","ce2tc8",2,"continue","",7867.991,7851.322,7867.991,7867.991,7851.322,7867.991,1,7867.991,0,0,NA,"Click To Continue","Continue Button",2,"object-7","Task Instructions",NA,"SUPPRF16716"
"4",1696962353442,"10/10/2023 18:25:53",1696947953442,-4,"10/10/2023 10:25:53",146524,3,"task-ybli",NA,32136045,9502306,NA,"complete",NA,"65255c3b73b95dcd70f191c7","computer","Desktop or Laptop","Mac OS 10.15.7","Chrome 117.0.0.0","1440x900","1440x733",NA,NA,0,"Task Introduction and Instructions (removed audio and video)",3,"BCADJEIFHG","Passed AC2",NA,"Spreadsheet1",1,"Task Instructions","Screen 5","spepx9",3,"continue","",4850.902,4834.233,4850.902,4850.902,4834.233,4850.902,1,4850.902,0,0,NA,"Click To Continue","Continue Button",2,"object-9","Task Instructions",NA,"SUPPRF16716"
"5",1696962356039,"10/10/2023 18:25:56",1696947956039,-4,"10/10/2023 10:25:56",146524,3,"task-ybli",NA,32136045,9502306,NA,"complete",NA,"65255c3b73b95dcd70f191c7","computer","Desktop or Laptop","Mac OS 10.15.7","Chrome 117.0.0.0","1440x900","1440x733",NA,NA,0,"Task Introduction and Instructions (removed audio and video)",3,"BCADJEIFHG","Passed AC2",NA,"Spreadsheet1",1,"Task Instructions","Screen 9","8nvnao",4,"continue","",2617.033,2600.364,2617.033,2617.033,2600.364,2617.033,1,2617.033,0,0,NA,"Click To Continue","Continue Button",2,"object-44","Task Instructions",NA,"SUPPRF16716"
"6",1696962356045,"10/10/2023 18:25:56",1696947956045,-4,"10/10/2023 10:25:56",146524,3,"task-ybli",NA,32136045,9502306,NA,"complete",NA,"65255c3b73b95dcd70f191c7","computer","Desktop or Laptop","Mac OS 10.15.7","Chrome 117.0.0.0","1440x900","1440x733",NA,NA,0,"Task Introduction and Instructions (removed audio and video)",3,"BCADJEIFHG","Passed AC2",NA,"Spreadsheet1",NA,"","","",NA,"5","END",NA,NA,NA,NA,NA,NA,0,NA,NA,NA,NA,"","",NA,"","",NA,"SUPPRF16716"
"1",1696977588165,"10/10/2023 22:39:48",1696952388165,-7,"10/10/2023 08:39:48",146524,3,"task-ybli",NA,32140017,9504121,NA,"complete",NA,"65256d3f9efa642c778e45a5","computer","Desktop or Laptop","Windows 10","Chrome 117.0.0.0","1920x1080","1920x931",NA,NA,0,"Task Introduction and Instructions (removed audio and video)",3,"CDBEAFJGIH","Passed AC2",NA,"Spreadsheet1",NA,"","","",NA,"5","BEGIN",NA,NA,NA,NA,NA,NA,0,NA,NA,NA,NA,"","",NA,"","",NA,"SUPPRF51230"
"2",1696977592574,"10/10/2023 22:39:52",1696952392574,-7,"10/10/2023 08:39:52",146524,3,"task-ybli",NA,32140017,9504121,NA,"complete",NA,"65256d3f9efa642c778e45a5","computer","Desktop or Laptop","Windows 10","Chrome 117.0.0.0","1920x1080","1920x931",NA,NA,0,"Task Introduction and Instructions (removed audio and video)",3,"CDBEAFJGIH","Passed AC2",NA,"Spreadsheet1",1,"Task Instructions","Screen 1","anr7sn",1,"continue","",3581.64200000596,3566.667,3581.64200000596,3581.64200000596,3566.667,3581.64200000596,1,3581.64200000596,0,0,NA,"Click To Continue","Continue Button",2,"object-1944","Task Instructions",NA,"SUPPRF51230"
"3",1696977601013,"10/10/2023 22:40:01",1696952401013,-7,"10/10/2023 08:40:01",146524,3,"task-ybli",NA,32140017,9504121,NA,"complete",NA,"65256d3f9efa642c778e45a5","computer","Desktop or Laptop","Windows 10","Chrome 117.0.0.0","1920x1080","1920x931",NA,NA,0,"Task Introduction and Instructions (removed audio and video)",3,"CDBEAFJGIH","Passed AC2",NA,"Spreadsheet1",1,"Task Instructions","Screen 2","ce2tc8",2,"continue","",8454.77500001788,8449.936,8454.77500001788,8454.77500001788,8449.936,8454.77500001788,1,8454.77500001788,0,0,NA,"Click To Continue","Continue Button",2,"object-7","Task Instructions",NA,"SUPPRF51230"
"4",1696977606542,"10/10/2023 22:40:06",1696952406542,-7,"10/10/2023 08:40:06",146524,3,"task-ybli",NA,32140017,9504121,NA,"complete",NA,"65256d3f9efa642c778e45a5","computer","Desktop or Laptop","Windows 10","Chrome 117.0.0.0","1920x1080","1920x931",NA,NA,0,"Task Introduction and Instructions (removed audio and video)",3,"CDBEAFJGIH","Passed AC2",NA,"Spreadsheet1",1,"Task Instructions","Screen 5","spepx9",3,"continue","",5532.93900001192,5516.591,5532.93900001192,5532.93900001192,5516.591,5532.93900001192,1,5532.93900001192,0,0,NA,"Click To Continue","Continue Button",2,"object-9","Task Instructions",NA,"SUPPRF51230"
"5",1696977609390,"10/10/2023 22:40:09",1696952409390,-7,"10/10/2023 08:40:09",146524,3,"task-ybli",NA,32140017,9504121,NA,"complete",NA,"65256d3f9efa642c778e45a5","computer","Desktop or Laptop","Windows 10","Chrome 117.0.0.0","1920x1080","1920x931",NA,NA,0,"Task Introduction and Instructions (removed audio and video)",3,"CDBEAFJGIH","Passed AC2",NA,"Spreadsheet1",1,"Task Instructions","Screen 9","8nvnao",4,"continue","",2865.048,2850.066,2865.048,2865.048,2850.066,2865.048,1,2865.048,0,0,NA,"Click To Continue","Continue Button",2,"object-44","Task Instructions",NA,"SUPPRF51230"
"6",1696977609391,"10/10/2023 22:40:09",1696952409391,-7,"10/10/2023 08:40:09",146524,3,"task-ybli",NA,32140017,9504121,NA,"complete",NA,"65256d3f9efa642c778e45a5","computer","Desktop or Laptop","Windows 10","Chrome 117.0.0.0","1920x1080","1920x931",NA,NA,0,"Task Introduction and Instructions (removed audio and video)",3,"CDBEAFJGIH","Passed AC2",NA,"Spreadsheet1",NA,"","","",NA,"5","END",NA,NA,NA,NA,NA,NA,0,NA,NA,NA,NA,"","",NA,"","",NA,"SUPPRF51230"
"1",1696970948852,"10/10/2023 20:49:08",1696952948852,-5,"10/10/2023 10:49:08",146524,3,"task-ybli",NA,32140428,9504175,NA,"complete",NA,"65256e38e4a1b045d3bb578f","computer","Desktop or Laptop","Windows 10","Chrome 117.0.0.0","1536x864","1536x739",NA,NA,0,"Task Introduction and Instructions (removed audio and video)",3,"DECFBGAHJI","Passed AC2",NA,"Spreadsheet1",NA,"","","",NA,"5","BEGIN",NA,NA,NA,NA,NA,NA,0,NA,NA,NA,NA,"","",NA,"","",NA,"SUPPRF43536"
"2",1696970953538,"10/10/2023 20:49:13",1696952953538,-5,"10/10/2023 10:49:13",146524,3,"task-ybli",NA,32140428,9504175,NA,"complete",NA,"65256e38e4a1b045d3bb578f","computer","Desktop or Laptop","Windows 10","Chrome 117.0.0.0","1536x864","1536x739",NA,NA,0,"Task Introduction and Instructions (removed audio and video)",3,"DECFBGAHJI","Passed AC2",NA,"Spreadsheet1",1,"Task Instructions","Screen 1","anr7sn",1,"continue","",3971.46999995232,3966.672,3971.46999995232,3971.46999995232,3966.672,3971.46999995232,1,3971.46999995232,0,0,NA,"Click To Continue","Continue Button",2,"object-1944","Task Instructions",NA,"SUPPRF43536"
"3",1696970960789,"10/10/2023 20:49:20",1696952960789,-5,"10/10/2023 10:49:20",146524,3,"task-ybli",NA,32140428,9504175,NA,"complete",NA,"65256e38e4a1b045d3bb578f","computer","Desktop or Laptop","Windows 10","Chrome 117.0.0.0","1536x864","1536x739",NA,NA,0,"Task Introduction and Instructions (removed audio and video)",3,"DECFBGAHJI","Passed AC2",NA,"Spreadsheet1",1,"Task Instructions","Screen 2","ce2tc8",2,"continue","",7255.69799992847,7250.126,7255.69799992847,7255.69799992847,7250.126,7255.69799992847,1,7255.69799992847,0,0,NA,"Click To Continue","Continue Button",2,"object-7","Task Instructions",NA,"SUPPRF43536"
"4",1696971450913,"10/10/2023 20:57:30",1696953450913,-5,"10/10/2023 10:57:30",146524,3,"task-ybli",NA,32140428,9504175,NA,"complete",NA,"65256e38e4a1b045d3bb578f","computer","Desktop or Laptop","Windows 10","Chrome 117.0.0.0","1536x864","1536x739",NA,NA,0,"Task Introduction and Instructions (removed audio and video)",3,"DECFBGAHJI","Passed AC2",NA,"Spreadsheet1",1,"Task Instructions","Screen 5","spepx9",3,"continue","",490134.771999976,490131.208,490134.771999976,490134.771999976,490131.208,490134.771999976,1,490134.771999976,0,0,NA,"Click To Continue","Continue Button",2,"object-9","Task Instructions",NA,"SUPPRF43536"
"5",1696971505618,"10/10/2023 20:58:25",1696953505618,-5,"10/10/2023 10:58:25",146524,3,"task-ybli",NA,32140428,9504175,NA,"complete",NA,"65256e38e4a1b045d3bb578f","computer","Desktop or Laptop","Windows 10","Chrome 117.0.0.0","1536x864","1536x739",NA,NA,0,"Task Introduction and Instructions (removed audio and video)",3,"DECFBGAHJI","Passed AC2",NA,"Spreadsheet1",1,"Task Instructions","Screen 9","8nvnao",4,"continue","",54702.8639999285,54699.943,54702.8639999285,54702.8639999285,54699.943,54702.8639999285,1,54702.8639999285,0,0,NA,"Click To Continue","Continue Button",2,"object-44","Task Instructions",NA,"SUPPRF43536"
"6",1696971505621,"10/10/2023 20:58:25",1696953505621,-5,"10/10/2023 10:58:25",146524,3,"task-ybli",NA,32140428,9504175,NA,"complete",NA,"65256e38e4a1b045d3bb578f","computer","Desktop or Laptop","Windows 10","Chrome 117.0.0.0","1536x864","1536x739",NA,NA,0,"Task Introduction and Instructions (removed audio and video)",3,"DECFBGAHJI","Passed AC2",NA,"Spreadsheet1",NA,"","","",NA,"5","END",NA,NA,NA,NA,NA,NA,0,NA,NA,NA,NA,"","",NA,"","",NA,"SUPPRF43536"
"1",1696955291482,"10/10/2023 16:28:11",1696958891482,1,"10/10/2023 18:28:11",146524,3,"task-ybli",NA,32145425,9505942,NA,"complete",NA,"6525870609de4876edb91632","computer","Desktop or Laptop","Windows 10","Chrome 117.0.0.0","1366x768","1517x723",NA,NA,0,"Task Introduction and Instructions (removed audio and video)",3,"FGEHDICJBA","Passed AC2",NA,"Spreadsheet1",NA,"","","",NA,"5","BEGIN",NA,NA,NA,NA,NA,NA,0,NA,NA,NA,NA,"","",NA,"","",NA,"SUPPRF13138"
"2",1696955294749,"10/10/2023 16:28:14",1696958894749,1,"10/10/2023 18:28:14",146524,3,"task-ybli",NA,32145425,9505942,NA,"complete",NA,"6525870609de4876edb91632","computer","Desktop or Laptop","Windows 10","Chrome 117.0.0.0","1366x768","1517x723",NA,NA,0,"Task Introduction and Instructions (removed audio and video)",3,"FGEHDICJBA","Passed AC2",NA,"Spreadsheet1",1,"Task Instructions","Screen 1","anr7sn",1,"continue","",3111.088,3094.449,3111.088,3111.088,3094.449,3111.088,1,3111.088,0,0,NA,"Click To Continue","Continue Button",2,"object-1944","Task Instructions",NA,"SUPPRF13138"
"3",1696955298508,"10/10/2023 16:28:18",1696958898508,1,"10/10/2023 18:28:18",146524,3,"task-ybli",NA,32145425,9505942,NA,"complete",NA,"6525870609de4876edb91632","computer","Desktop or Laptop","Windows 10","Chrome 117.0.0.0","1366x768","1517x723",NA,NA,0,"Task Introduction and Instructions (removed audio and video)",3,"FGEHDICJBA","Passed AC2",NA,"Spreadsheet1",1,"Task Instructions","Screen 2","ce2tc8",2,"continue","",3776.586,3759.947,3776.586,3776.586,3759.947,3776.586,1,3776.586,0,0,NA,"Click To Continue","Continue Button",2,"object-7","Task Instructions",NA,"SUPPRF13138"
"4",1696955301399,"10/10/2023 16:28:21",1696958901399,1,"10/10/2023 18:28:21",146524,3,"task-ybli",NA,32145425,9505942,NA,"complete",NA,"6525870609de4876edb91632","computer","Desktop or Laptop","Windows 10","Chrome 117.0.0.0","1366x768","1517x723",NA,NA,0,"Task Introduction and Instructions (removed audio and video)",3,"FGEHDICJBA","Passed AC2",NA,"Spreadsheet1",1,"Task Instructions","Screen 5","spepx9",3,"continue","",2908.883,2894.716,2908.883,2908.883,2894.716,2908.883,1,2908.883,0,0,NA,"Click To Continue","Continue Button",2,"object-9","Task Instructions",NA,"SUPPRF13138"
"5",1696955304201,"10/10/2023 16:28:24",1696958904201,1,"10/10/2023 18:28:24",146524,3,"task-ybli",NA,32145425,9505942,NA,"complete",NA,"6525870609de4876edb91632","computer","Desktop or Laptop","Windows 10","Chrome 117.0.0.0","1366x768","1517x723",NA,NA,0,"Task Introduction and Instructions (removed audio and video)",3,"FGEHDICJBA","Passed AC2",NA,"Spreadsheet1",1,"Task Instructions","Screen 9","8nvnao",4,"continue","",2814.86699998808,2811.759,2814.86699998808,2814.86699998808,2811.759,2814.86699998808,1,2814.86699998808,0,0,NA,"Click To Continue","Continue Button",2,"object-44","Task Instructions",NA,"SUPPRF13138"
"6",1696955304206,"10/10/2023 16:28:24",1696958904206,1,"10/10/2023 18:28:24",146524,3,"task-ybli",NA,32145425,9505942,NA,"complete",NA,"6525870609de4876edb91632","computer","Desktop or Laptop","Windows 10","Chrome 117.0.0.0","1366x768","1517x723",NA,NA,0,"Task Introduction and Instructions (removed audio and video)",3,"FGEHDICJBA","Passed AC2",NA,"Spreadsheet1",NA,"","","",NA,"5","END",NA,NA,NA,NA,NA,NA,0,NA,NA,NA,NA,"","",NA,"","",NA,"SUPPRF13138"
"1",1696955309489,"10/10/2023 16:28:29",1696958909489,1,"10/10/2023 18:28:29",146524,3,"task-ybli",NA,32145525,9505922,NA,"complete",NA,"6525869bc00f58b9070f40b8","computer","Desktop or Laptop","Mac OS 10.15.7","Safari 16.6","1440x900","1440x820",NA,NA,0,"Task Introduction and Instructions (removed audio and video)",3,"EFDGCHBIAJ","Passed AC2",NA,"Spreadsheet1",NA,"","","",NA,"5","BEGIN",NA,NA,NA,NA,NA,NA,0,NA,NA,NA,NA,"","",NA,"","",NA,"SUPPRF95014"
"2",1696955312804,"10/10/2023 16:28:32",1696958912804,1,"10/10/2023 18:28:32",146524,3,"task-ybli",NA,32145525,9505922,NA,"complete",NA,"6525869bc00f58b9070f40b8","computer","Desktop or Laptop","Mac OS 10.15.7","Safari 16.6","1440x900","1440x820",NA,NA,0,"Task Introduction and Instructions (removed audio and video)",3,"EFDGCHBIAJ","Passed AC2",NA,"Spreadsheet1",1,"Task Instructions","Screen 1","anr7sn",1,"continue","",3219,3217,3219,3219,3217,3219,1,3219,0,0,NA,"Click To Continue","Continue Button",2,"object-1944","Task Instructions",NA,"SUPPRF95014"
"3",1696955749930,"10/10/2023 16:35:49",1696959349930,1,"10/10/2023 18:35:49",146524,3,"task-ybli",NA,32145525,9505922,NA,"complete",NA,"6525869bc00f58b9070f40b8","computer","Desktop or Laptop","Mac OS 10.15.7","Safari 16.6","1440x900","1440x820",NA,NA,0,"Task Introduction and Instructions (removed audio and video)",3,"EFDGCHBIAJ","Passed AC2",NA,"Spreadsheet1",1,"Task Instructions","Screen 2","ce2tc8",2,"continue","",159912,159896,159912,159912,159896,159912,1,159912,0,0,NA,"Click To Continue","Continue Button",2,"object-7","Task Instructions",NA,"SUPPRF95014"
"4",1696955755128,"10/10/2023 16:35:55",1696959355128,1,"10/10/2023 18:35:55",146524,3,"task-ybli",NA,32145525,9505922,NA,"complete",NA,"6525869bc00f58b9070f40b8","computer","Desktop or Laptop","Mac OS 10.15.7","Safari 16.6","1440x900","1440x820",NA,NA,0,"Task Introduction and Instructions (removed audio and video)",3,"EFDGCHBIAJ","Passed AC2",NA,"Spreadsheet1",1,"Task Instructions","Screen 5","spepx9",3,"continue","",5230,5216,5230,5230,5216,5230,1,5230,0,0,NA,"Click To Continue","Continue Button",2,"object-9","Task Instructions",NA,"SUPPRF95014"
"5",1696955766941,"10/10/2023 16:36:06",1696959366941,1,"10/10/2023 18:36:06",146524,3,"task-ybli",NA,32145525,9505922,NA,"complete",NA,"6525869bc00f58b9070f40b8","computer","Desktop or Laptop","Mac OS 10.15.7","Safari 16.6","1440x900","1440x820",NA,NA,0,"Task Introduction and Instructions (removed audio and video)",3,"EFDGCHBIAJ","Passed AC2",NA,"Spreadsheet1",1,"Task Instructions","Screen 9","8nvnao",4,"continue","",11819,11801,11819,11819,11801,11819,1,11819,0,0,NA,"Click To Continue","Continue Button",2,"object-44","Task Instructions",NA,"SUPPRF95014"
"6",1696955766949,"10/10/2023 16:36:06",1696959366949,1,"10/10/2023 18:36:06",146524,3,"task-ybli",NA,32145525,9505922,NA,"complete",NA,"6525869bc00f58b9070f40b8","computer","Desktop or Laptop","Mac OS 10.15.7","Safari 16.6","1440x900","1440x820",NA,NA,0,"Task Introduction and Instructions (removed audio and video)",3,"EFDGCHBIAJ","Passed AC2",NA,"Spreadsheet1",NA,"","","",NA,"5","END",NA,NA,NA,NA,NA,NA,0,NA,NA,NA,NA,"","",NA,"","",NA,"SUPPRF95014"
"1",1696956581029,"10/10/2023 16:49:41",1696960181029,1,"10/10/2023 18:49:41",146524,3,"task-ybli",NA,32146553,9506207,NA,"complete",NA,"65258c7731597a2159114669","computer","Desktop or Laptop","Mac OS 10.15.7","Chrome 116.0.0.0","1440x900","1440x815",NA,NA,0,"Task Introduction and Instructions (removed audio and video)",3,"GHFIEJDACB","Passed AC2",NA,"Spreadsheet1",NA,"","","",NA,"5","BEGIN",NA,NA,NA,NA,NA,NA,0,NA,NA,NA,NA,"","",NA,"","",NA,"SUPPRF98941"
"2",1696956584321,"10/10/2023 16:49:44",1696960184321,1,"10/10/2023 18:49:44",146524,3,"task-ybli",NA,32146553,9506207,NA,"complete",NA,"65258c7731597a2159114669","computer","Desktop or Laptop","Mac OS 10.15.7","Chrome 116.0.0.0","1440x900","1440x815",NA,NA,0,"Task Introduction and Instructions (removed audio and video)",3,"GHFIEJDACB","Passed AC2",NA,"Spreadsheet1",1,"Task Instructions","Screen 1","anr7sn",1,"continue","",3216.731,3200.064,3216.731,3216.731,3200.064,3216.731,1,3216.731,0,0,NA,"Click To Continue","Continue Button",2,"object-1944","Task Instructions",NA,"SUPPRF98941"
"3",1696956592019,"10/10/2023 16:49:52",1696960192019,1,"10/10/2023 18:49:52",146524,3,"task-ybli",NA,32146553,9506207,NA,"complete",NA,"65258c7731597a2159114669","computer","Desktop or Laptop","Mac OS 10.15.7","Chrome 116.0.0.0","1440x900","1440x815",NA,NA,0,"Task Introduction and Instructions (removed audio and video)",3,"GHFIEJDACB","Passed AC2",NA,"Spreadsheet1",1,"Task Instructions","Screen 2","ce2tc8",2,"continue","",7716.382,7700.696,7716.382,7716.382,7700.696,7716.382,1,7716.382,0,0,NA,"Click To Continue","Continue Button",2,"object-7","Task Instructions",NA,"SUPPRF98941"
"4",1696956594465,"10/10/2023 16:49:54",1696960194465,1,"10/10/2023 18:49:54",146524,3,"task-ybli",NA,32146553,9506207,NA,"complete",NA,"65258c7731597a2159114669","computer","Desktop or Laptop","Mac OS 10.15.7","Chrome 116.0.0.0","1440x900","1440x815",NA,NA,0,"Task Introduction and Instructions (removed audio and video)",3,"GHFIEJDACB","Passed AC2",NA,"Spreadsheet1",1,"Task Instructions","Screen 5","spepx9",3,"continue","",2460.98600001192,2450.049,2460.98600001192,2460.98600001192,2450.049,2460.98600001192,1,2460.98600001192,0,0,NA,"Click To Continue","Continue Button",2,"object-9","Task Instructions",NA,"SUPPRF98941"
"5",1696956597378,"10/10/2023 16:49:57",1696960197378,1,"10/10/2023 18:49:57",146524,3,"task-ybli",NA,32146553,9506207,NA,"complete",NA,"65258c7731597a2159114669","computer","Desktop or Laptop","Mac OS 10.15.7","Chrome 116.0.0.0","1440x900","1440x815",NA,NA,0,"Task Introduction and Instructions (removed audio and video)",3,"GHFIEJDACB","Passed AC2",NA,"Spreadsheet1",1,"Task Instructions","Screen 9","8nvnao",4,"continue","",2924.33699998808,2917.245,2924.33699998808,2924.33699998808,2917.245,2924.33699998808,1,2924.33699998808,0,0,NA,"Click To Continue","Continue Button",2,"object-44","Task Instructions",NA,"SUPPRF98941"
"6",1696956597380,"10/10/2023 16:49:57",1696960197380,1,"10/10/2023 18:49:57",146524,3,"task-ybli",NA,32146553,9506207,NA,"complete",NA,"65258c7731597a2159114669","computer","Desktop or Laptop","Mac OS 10.15.7","Chrome 116.0.0.0","1440x900","1440x815",NA,NA,0,"Task Introduction and Instructions (removed audio and video)",3,"GHFIEJDACB","Passed AC2",NA,"Spreadsheet1",NA,"","","",NA,"5","END",NA,NA,NA,NA,NA,NA,0,NA,NA,NA,NA,"","",NA,"","",NA,"SUPPRF98941"
"1",1696980919066,"10/10/2023 23:35:19",1696962919066,-5,"10/10/2023 13:35:19",146524,3,"task-ybli",NA,32148521,9506551,NA,"complete",NA,"65259043901872dd729558d3","computer","Desktop or Laptop","Mac OS 10.15.7","Chrome 117.0.0.0","1440x900","1440x783",NA,NA,0,"Task Introduction and Instructions (removed audio and video)",3,"HIGJFAEBDC","Passed AC2",NA,"Spreadsheet1",NA,"","","",NA,"5","BEGIN",NA,NA,NA,NA,NA,NA,0,NA,NA,NA,NA,"","",NA,"","",NA,"SUPPRF77780"
"2",1696980922013,"10/10/2023 23:35:22",1696962922013,-5,"10/10/2023 13:35:22",146524,3,"task-ybli",NA,32148521,9506551,NA,"complete",NA,"65259043901872dd729558d3","computer","Desktop or Laptop","Mac OS 10.15.7","Chrome 117.0.0.0","1440x900","1440x783",NA,NA,0,"Task Introduction and Instructions (removed audio and video)",3,"HIGJFAEBDC","Passed AC2",NA,"Spreadsheet1",1,"Task Instructions","Screen 1","anr7sn",1,"continue","",2843.19600000149,2833.866,2843.19600000149,2843.19600000149,2833.866,2843.19600000149,1,2843.19600000149,0,0,NA,"Click To Continue","Continue Button",2,"object-1944","Task Instructions",NA,"SUPPRF77780"
"3",1696980925046,"10/10/2023 23:35:25",1696962925046,-5,"10/10/2023 13:35:25",146524,3,"task-ybli",NA,32148521,9506551,NA,"complete",NA,"65259043901872dd729558d3","computer","Desktop or Laptop","Mac OS 10.15.7","Chrome 117.0.0.0","1440x900","1440x783",NA,NA,0,"Task Introduction and Instructions (removed audio and video)",3,"HIGJFAEBDC","Passed AC2",NA,"Spreadsheet1",1,"Task Instructions","Screen 2","ce2tc8",2,"continue","",3043.23,3033.394,3043.23,3043.23,3033.394,3043.23,1,3043.23,0,0,NA,"Click To Continue","Continue Button",2,"object-7","Task Instructions",NA,"SUPPRF77780"
"4",1696982002789,"10/10/2023 23:53:22",1696964002789,-5,"10/10/2023 13:53:22",146524,3,"task-ybli",NA,32148521,9506551,NA,"complete",NA,"65259043901872dd729558d3","computer","Desktop or Laptop","Mac OS 10.15.7","Chrome 117.0.0.0","1440x900","1440x783",NA,NA,0,"Task Introduction and Instructions (removed audio and video)",3,"HIGJFAEBDC","Passed AC2",NA,"Spreadsheet1",1,"Task Instructions","Screen 5","spepx9",3,"continue","",1077684.736,1077672.757,1077684.736,1077684.736,1077672.757,1077684.736,1,1077684.736,0,0,NA,"Click To Continue","Continue Button",2,"object-9","Task Instructions",NA,"SUPPRF77780"
"5",1696982005434,"10/10/2023 23:53:25",1696964005434,-5,"10/10/2023 13:53:25",146524,3,"task-ybli",NA,32148521,9506551,NA,"complete",NA,"65259043901872dd729558d3","computer","Desktop or Laptop","Mac OS 10.15.7","Chrome 117.0.0.0","1440x900","1440x783",NA,NA,0,"Task Introduction and Instructions (removed audio and video)",3,"HIGJFAEBDC","Passed AC2",NA,"Spreadsheet1",1,"Task Instructions","Screen 9","8nvnao",4,"continue","",2656.47899999842,2650.05299999984,2656.47899999842,2656.47899999842,2650.05299999984,2656.47899999842,1,2656.47899999842,0,0,NA,"Click To Continue","Continue Button",2,"object-44","Task Instructions",NA,"SUPPRF77780"
"6",1696982005436,"10/10/2023 23:53:25",1696964005436,-5,"10/10/2023 13:53:25",146524,3,"task-ybli",NA,32148521,9506551,NA,"complete",NA,"65259043901872dd729558d3","computer","Desktop or Laptop","Mac OS 10.15.7","Chrome 117.0.0.0","1440x900","1440x783",NA,NA,0,"Task Introduction and Instructions (removed audio and video)",3,"HIGJFAEBDC","Passed AC2",NA,"Spreadsheet1",NA,"","","",NA,"5","END",NA,NA,NA,NA,NA,NA,0,NA,NA,NA,NA,"","",NA,"","",NA,"SUPPRF77780"
"1",1696964748623,"10/10/2023 19:05:48",1696968348623,1,"10/10/2023 21:05:48",146524,3,"task-ybli",NA,32151794,9508025,NA,"complete",NA,"6525ab1efc2e393d8646fb2f","computer","Desktop or Laptop","Windows 10","Chrome 116.0.0.0","1366x768","1366x689",NA,NA,0,"Task Introduction and Instructions (removed audio and video)",3,"IJHAGBFCED","Passed AC2",NA,"Spreadsheet1",NA,"","","",NA,"5","BEGIN",NA,NA,NA,NA,NA,NA,0,NA,NA,NA,NA,"","",NA,"","",NA,"SUPPRF94218"
"2",1696964753150,"10/10/2023 19:05:53",1696968353150,1,"10/10/2023 21:05:53",146524,3,"task-ybli",NA,32151794,9508025,NA,"complete",NA,"6525ab1efc2e393d8646fb2f","computer","Desktop or Laptop","Windows 10","Chrome 116.0.0.0","1366x768","1366x689",NA,NA,0,"Task Introduction and Instructions (removed audio and video)",3,"IJHAGBFCED","Passed AC2",NA,"Spreadsheet1",1,"Task Instructions","Screen 1","anr7sn",1,"continue","",4465.9720002861,4450.202,4465.9720002861,4465.9720002861,4450.202,4465.9720002861,1,4465.9720002861,0,0,NA,"Click To Continue","Continue Button",2,"object-1944","Task Instructions",NA,"SUPPRF94218"
"3",1696964766423,"10/10/2023 19:06:06",1696968366423,1,"10/10/2023 21:06:06",146524,3,"task-ybli",NA,32151794,9508025,NA,"complete",NA,"6525ab1efc2e393d8646fb2f","computer","Desktop or Laptop","Windows 10","Chrome 116.0.0.0","1366x768","1366x689",NA,NA,0,"Task Introduction and Instructions (removed audio and video)",3,"IJHAGBFCED","Passed AC2",NA,"Spreadsheet1",1,"Task Instructions","Screen 2","ce2tc8",2,"continue","",13288.57,13283.991,13288.57,13288.57,13283.991,13288.57,1,13288.57,0,0,NA,"Click To Continue","Continue Button",2,"object-7","Task Instructions",NA,"SUPPRF94218"
"4",1696964769688,"10/10/2023 19:06:09",1696968369688,1,"10/10/2023 21:06:09",146524,3,"task-ybli",NA,32151794,9508025,NA,"complete",NA,"6525ab1efc2e393d8646fb2f","computer","Desktop or Laptop","Windows 10","Chrome 116.0.0.0","1366x768","1366x689",NA,NA,0,"Task Introduction and Instructions (removed audio and video)",3,"IJHAGBFCED","Passed AC2",NA,"Spreadsheet1",1,"Task Instructions","Screen 5","spepx9",3,"continue","",3270.2790002861,3266.487,3270.2790002861,3270.2790002861,3266.487,3270.2790002861,1,3270.2790002861,0,0,NA,"Click To Continue","Continue Button",2,"object-9","Task Instructions",NA,"SUPPRF94218"
"5",1696964772851,"10/10/2023 19:06:12",1696968372851,1,"10/10/2023 21:06:12",146524,3,"task-ybli",NA,32151794,9508025,NA,"complete",NA,"6525ab1efc2e393d8646fb2f","computer","Desktop or Laptop","Windows 10","Chrome 116.0.0.0","1366x768","1366x689",NA,NA,0,"Task Introduction and Instructions (removed audio and video)",3,"IJHAGBFCED","Passed AC2",NA,"Spreadsheet1",1,"Task Instructions","Screen 9","8nvnao",4,"continue","",3166.702,3150.088,3166.702,3166.702,3150.088,3166.702,1,3166.702,0,0,NA,"Click To Continue","Continue Button",2,"object-44","Task Instructions",NA,"SUPPRF94218"
"6",1696964772857,"10/10/2023 19:06:12",1696968372857,1,"10/10/2023 21:06:12",146524,3,"task-ybli",NA,32151794,9508025,NA,"complete",NA,"6525ab1efc2e393d8646fb2f","computer","Desktop or Laptop","Windows 10","Chrome 116.0.0.0","1366x768","1366x689",NA,NA,0,"Task Introduction and Instructions (removed audio and video)",3,"IJHAGBFCED","Passed AC2",NA,"Spreadsheet1",NA,"","","",NA,"5","END",NA,NA,NA,NA,NA,NA,0,NA,NA,NA,NA,"","",NA,"","",NA,"SUPPRF94218"
"1",1696969483530,"10/10/2023 20:24:43",1696973083530,1,"10/10/2023 22:24:43",146524,3,"task-ybli",NA,32153615,9508609,NA,"complete",NA,"6525bf28bbce74ddb7274f04","computer","Desktop or Laptop","Windows 10","Chrome 117.0.0.0","1536x864","1536x739",NA,NA,0,"Task Introduction and Instructions (removed audio and video)",3,"JAIBHCGDFE","Passed AC2",NA,"Spreadsheet1",NA,"","","",NA,"5","BEGIN",NA,NA,NA,NA,NA,NA,0,NA,NA,NA,NA,"","",NA,"","",NA,"SUPPRF69479"
"2",1696969487043,"10/10/2023 20:24:47",1696973087043,1,"10/10/2023 22:24:47",146524,3,"task-ybli",NA,32153615,9508609,NA,"complete",NA,"6525bf28bbce74ddb7274f04","computer","Desktop or Laptop","Windows 10","Chrome 117.0.0.0","1536x864","1536x739",NA,NA,0,"Task Introduction and Instructions (removed audio and video)",3,"JAIBHCGDFE","Passed AC2",NA,"Spreadsheet1",1,"Task Instructions","Screen 1","anr7sn",1,"continue","",3458.40799999404,3449.862,3458.40799999404,3458.40799999404,3449.862,3458.40799999404,1,3458.40799999404,0,0,NA,"Click To Continue","Continue Button",2,"object-1944","Task Instructions",NA,"SUPPRF69479"
"3",1696969491673,"10/10/2023 20:24:51",1696973091673,1,"10/10/2023 22:24:51",146524,3,"task-ybli",NA,32153615,9508609,NA,"complete",NA,"6525bf28bbce74ddb7274f04","computer","Desktop or Laptop","Windows 10","Chrome 117.0.0.0","1536x864","1536x739",NA,NA,0,"Task Introduction and Instructions (removed audio and video)",3,"JAIBHCGDFE","Passed AC2",NA,"Spreadsheet1",1,"Task Instructions","Screen 2","ce2tc8",2,"continue","",4639.14599998808,4633.148,4639.14599998808,4639.14599998808,4633.148,4639.14599998808,1,4639.14599998808,0,0,NA,"Click To Continue","Continue Button",2,"object-7","Task Instructions",NA,"SUPPRF69479"
"4",1696969534010,"10/10/2023 20:25:34",1696973134010,1,"10/10/2023 22:25:34",146524,3,"task-ybli",NA,32153615,9508609,NA,"complete",NA,"6525bf28bbce74ddb7274f04","computer","Desktop or Laptop","Windows 10","Chrome 117.0.0.0","1536x864","1536x739",NA,NA,0,"Task Introduction and Instructions (removed audio and video)",3,"JAIBHCGDFE","Passed AC2",NA,"Spreadsheet1",1,"Task Instructions","Screen 5","spepx9",3,"continue","",42342.397999994,42331.64,42342.397999994,42342.397999994,42331.64,42342.397999994,1,42342.397999994,0,0,NA,"Click To Continue","Continue Button",2,"object-9","Task Instructions",NA,"SUPPRF69479"
"5",1696969559110,"10/10/2023 20:25:59",1696973159110,1,"10/10/2023 22:25:59",146524,3,"task-ybli",NA,32153615,9508609,NA,"complete",NA,"6525bf28bbce74ddb7274f04","computer","Desktop or Laptop","Windows 10","Chrome 117.0.0.0","1536x864","1536x739",NA,NA,0,"Task Introduction and Instructions (removed audio and video)",3,"JAIBHCGDFE","Passed AC2",NA,"Spreadsheet1",1,"Task Instructions","Screen 9","8nvnao",4,"continue","",25098.996,25082.33,25098.996,25098.996,25082.33,25098.996,1,25098.996,0,0,NA,"Click To Continue","Continue Button",2,"object-44","Task Instructions",NA,"SUPPRF69479"
"6",1696969559125,"10/10/2023 20:25:59",1696973159125,1,"10/10/2023 22:25:59",146524,3,"task-ybli",NA,32153615,9508609,NA,"complete",NA,"6525bf28bbce74ddb7274f04","computer","Desktop or Laptop","Windows 10","Chrome 117.0.0.0","1536x864","1536x739",NA,NA,0,"Task Introduction and Instructions (removed audio and video)",3,"JAIBHCGDFE","Passed AC2",NA,"Spreadsheet1",NA,"","","",NA,"5","END",NA,NA,NA,NA,NA,NA,0,NA,NA,NA,NA,"","",NA,"","",NA,"SUPPRF69479"
