"Event.Index","UTC.Timestamp","UTC.Date.and.Time","Local.Timestamp","Local.Timezone","Local.Date.and.Time","Experiment.ID","Experiment.Version","Tree.Node.Key","Repeat.Key","Schedule.ID","Participant.Private.ID","Participant.Starting.Group","Participant.Status","Participant.Completion.Code","Participant.External.Session.ID","Participant.Device.Type","Participant.Device","Participant.OS","Participant.Browser","Participant.Monitor.Size","Participant.Viewport.Size","Checkpoint","Room.ID","Room.Order","Task.Name","Task.Version","order.ot79","branch.g31k","branch.5gtn","Spreadsheet","Trial.Number","Display","Screen","Screen.ID","Screen.Counter","Response.Type","Response","Onset.Time","Clock.Time","Reaction.Time","Absolute.Onset.Time","Absolute.Clock.Time","Absolute.Reaction.Time","Correct","Response.Onset","Response.Duration","Proportion","Tag","Component.Name","Object.Name","Object.Number","Object.ID","Spreadsheet..display","Manipulation..Spreadsheet","Random_ID"
"1",1696934919182,"10/10/2023 10:48:39",1696938519182,1,"10/10/2023 12:48:39",146524,3,"task-gjqt",NA,32129227,9500282,NA,"complete",NA,"652535a4bc4e0028590efed3","computer","Desktop or Laptop","Windows 10","Chrome 117.0.0.0","1920x1080","1920x931",NA,NA,0,"BIQ (Charlotte)",3,"BCADJEIFHG","Passed AC2",NA,"Spreadsheet1",NA,"","","",NA,"5","BEGIN",NA,NA,NA,NA,NA,NA,0,NA,NA,NA,NA,"","",NA,"","",NA,"SUPPRF18834"
"2",1696934968083,"10/10/2023 10:49:28",1696938568083,1,"10/10/2023 12:49:28",146524,3,"task-gjqt",NA,32129227,9500282,NA,"complete",NA,"652535a4bc4e0028590efed3","computer","Desktop or Laptop","Windows 10","Chrome 117.0.0.0","1920x1080","1920x931",NA,NA,0,"BIQ (Charlotte)",3,"BCADJEIFHG","Passed AC2",NA,"Spreadsheet1",1,"BIQ","Screen 1","9dh6eq",1,"continue","",48933.745,48916.804,48933.745,48933.745,48916.804,48933.745,1,48933.745,0,0,NA,"Click To Continue","Continue Button",23,"object-48","BIQ",NA,"SUPPRF18834"
"3",1696934968099,"10/10/2023 10:49:28",1696938568099,1,"10/10/2023 12:49:28",146524,3,"task-gjqt",NA,32129227,9500282,NA,"complete",NA,"652535a4bc4e0028590efed3","computer","Desktop or Laptop","Windows 10","Chrome 117.0.0.0","1920x1080","1920x931",NA,NA,0,"BIQ (Charlotte)",3,"BCADJEIFHG","Passed AC2",NA,"Spreadsheet1",1,"BIQ","Screen 1","9dh6eq",1,"response","7",40349.866,48916.804,48933.745,40349.866,48916.804,48933.745,1,40349.866,8583.879,0,NA,"Rating Scale","Rating Scale",3,"object-5","BIQ",NA,"SUPPRF18834"
"4",1696934968100,"10/10/2023 10:49:28",1696938568100,1,"10/10/2023 12:49:28",146524,3,"task-gjqt",NA,32129227,9500282,NA,"complete",NA,"652535a4bc4e0028590efed3","computer","Desktop or Laptop","Windows 10","Chrome 117.0.0.0","1920x1080","1920x931",NA,NA,0,"BIQ (Charlotte)",3,"BCADJEIFHG","Passed AC2",NA,"Spreadsheet1",1,"BIQ","Screen 1","9dh6eq",1,"response","4",43149.9,48916.804,48933.745,43149.9,48916.804,48933.745,1,43149.9,5783.845,0,NA,"Rating Scale","Rating Scale",10,"object-18","BIQ",NA,"SUPPRF18834"
"5",1696934968102,"10/10/2023 10:49:28",1696938568102,1,"10/10/2023 12:49:28",146524,3,"task-gjqt",NA,32129227,9500282,NA,"complete",NA,"652535a4bc4e0028590efed3","computer","Desktop or Laptop","Windows 10","Chrome 117.0.0.0","1920x1080","1920x931",NA,NA,0,"BIQ (Charlotte)",3,"BCADJEIFHG","Passed AC2",NA,"Spreadsheet1",1,"BIQ","Screen 1","9dh6eq",1,"response","4",48333.25,48916.804,48933.745,48333.25,48916.804,48933.745,1,48333.25,600.494999999995,0,NA,"Rating Scale","Rating Scale",17,"object-80","BIQ",NA,"SUPPRF18834"
"6",1696934979126,"10/10/2023 10:49:39",1696938579126,1,"10/10/2023 12:49:39",146524,3,"task-gjqt",NA,32129227,9500282,NA,"complete",NA,"652535a4bc4e0028590efed3","computer","Desktop or Laptop","Windows 10","Chrome 117.0.0.0","1920x1080","1920x931",NA,NA,0,"BIQ (Charlotte)",3,"BCADJEIFHG","Passed AC2",NA,"Spreadsheet1",1,"BIQ","Screen 2","o21mwi",2,"continue","",11066.599,11049.859,11066.599,11066.599,11049.859,11066.599,1,11066.599,0,0,NA,"Click To Continue","Continue Button",22,"object-50","BIQ",NA,"SUPPRF18834"
"7",1696934979133,"10/10/2023 10:49:39",1696938579133,1,"10/10/2023 12:49:39",146524,3,"task-gjqt",NA,32129227,9500282,NA,"complete",NA,"652535a4bc4e0028590efed3","computer","Desktop or Laptop","Windows 10","Chrome 117.0.0.0","1920x1080","1920x931",NA,NA,0,"BIQ (Charlotte)",3,"BCADJEIFHG","Passed AC2",NA,"Spreadsheet1",1,"BIQ","Screen 2","o21mwi",2,"response","6",3316.369,11049.859,11066.599,3316.369,11049.859,11066.599,1,3316.369,7750.23000000001,0,NA,"Rating Scale","Rating Scale",2,"object-259","BIQ",NA,"SUPPRF18834"
"8",1696934979135,"10/10/2023 10:49:39",1696938579135,1,"10/10/2023 12:49:39",146524,3,"task-gjqt",NA,32129227,9500282,NA,"complete",NA,"652535a4bc4e0028590efed3","computer","Desktop or Laptop","Windows 10","Chrome 117.0.0.0","1920x1080","1920x931",NA,NA,0,"BIQ (Charlotte)",3,"BCADJEIFHG","Passed AC2",NA,"Spreadsheet1",1,"BIQ","Screen 2","o21mwi",2,"response","2",5249.707,11049.859,11066.599,5249.707,11049.859,11066.599,1,5249.707,5816.89200000001,0,NA,"Rating Scale","Rating Scale",9,"object-36","BIQ",NA,"SUPPRF18834"
"9",1696934979138,"10/10/2023 10:49:39",1696938579138,1,"10/10/2023 12:49:39",146524,3,"task-gjqt",NA,32129227,9500282,NA,"complete",NA,"652535a4bc4e0028590efed3","computer","Desktop or Laptop","Windows 10","Chrome 117.0.0.0","1920x1080","1920x931",NA,NA,0,"BIQ (Charlotte)",3,"BCADJEIFHG","Passed AC2",NA,"Spreadsheet1",1,"BIQ","Screen 2","o21mwi",2,"response","1",10333.107,11049.859,11066.599,10333.107,11049.859,11066.599,1,10333.107,733.492000000006,0,NA,"Rating Scale","Rating Scale",16,"object-86","BIQ",NA,"SUPPRF18834"
"10",1696935039696,"10/10/2023 10:50:39",1696938639696,1,"10/10/2023 12:50:39",146524,3,"task-gjqt",NA,32129227,9500282,NA,"complete",NA,"652535a4bc4e0028590efed3","computer","Desktop or Laptop","Windows 10","Chrome 117.0.0.0","1920x1080","1920x931",NA,NA,0,"BIQ (Charlotte)",3,"BCADJEIFHG","Passed AC2",NA,"Spreadsheet1",1,"BIQ","Screen 3","iz3the",3,"continue","",60586.9539999985,60583.727,60586.9539999985,60586.9539999985,60583.727,60586.9539999985,1,60586.9539999985,0,0,NA,"Click To Continue","Continue Button",22,"object-73","BIQ",NA,"SUPPRF18834"
"11",1696935039703,"10/10/2023 10:50:39",1696938639703,1,"10/10/2023 12:50:39",146524,3,"task-gjqt",NA,32129227,9500282,NA,"complete",NA,"652535a4bc4e0028590efed3","computer","Desktop or Laptop","Windows 10","Chrome 117.0.0.0","1920x1080","1920x931",NA,NA,0,"BIQ (Charlotte)",3,"BCADJEIFHG","Passed AC2",NA,"Spreadsheet1",1,"BIQ","Screen 3","iz3the",3,"response","0",56183.091,60583.727,60594.054,56183.091,60583.727,60594.054,1,56183.091,4410.963,0,NA,"Rating Scale","Rating Scale",2,"object-53","BIQ",NA,"SUPPRF18834"
"12",1696935039705,"10/10/2023 10:50:39",1696938639705,1,"10/10/2023 12:50:39",146524,3,"task-gjqt",NA,32129227,9500282,NA,"complete",NA,"652535a4bc4e0028590efed3","computer","Desktop or Laptop","Windows 10","Chrome 117.0.0.0","1920x1080","1920x931",NA,NA,0,"BIQ (Charlotte)",3,"BCADJEIFHG","Passed AC2",NA,"Spreadsheet1",1,"BIQ","Screen 3","iz3the",3,"response","1",58050.146,60583.727,60596.1539999978,58050.146,60583.727,60596.1539999978,1,58050.146,2546.00799999776,0,NA,"Rating Scale","Rating Scale",9,"object-60","BIQ",NA,"SUPPRF18834"
"13",1696935039707,"10/10/2023 10:50:39",1696938639707,1,"10/10/2023 12:50:39",146524,3,"task-gjqt",NA,32129227,9500282,NA,"complete",NA,"652535a4bc4e0028590efed3","computer","Desktop or Laptop","Windows 10","Chrome 117.0.0.0","1920x1080","1920x931",NA,NA,0,"BIQ (Charlotte)",3,"BCADJEIFHG","Passed AC2",NA,"Spreadsheet1",1,"BIQ","Screen 3","iz3the",3,"response","2",59883.131,60583.727,60597.7539999993,59883.131,60583.727,60597.7539999993,1,59883.131,714.62299999925,0,NA,"Rating Scale","Rating Scale",16,"object-67","BIQ",NA,"SUPPRF18834"
"14",1696935039718,"10/10/2023 10:50:39",1696938639718,1,"10/10/2023 12:50:39",146524,3,"task-gjqt",NA,32129227,9500282,NA,"complete",NA,"652535a4bc4e0028590efed3","computer","Desktop or Laptop","Windows 10","Chrome 117.0.0.0","1920x1080","1920x931",NA,NA,0,"BIQ (Charlotte)",3,"BCADJEIFHG","Passed AC2",NA,"Spreadsheet1",NA,"","","",NA,"5","END",NA,NA,NA,NA,NA,NA,0,NA,NA,NA,NA,"","",NA,"","",NA,"SUPPRF18834"
"1",1696934545100,"10/10/2023 10:42:25",1696938145100,1,"10/10/2023 12:42:25",146524,3,"task-gjqt",NA,32128979,9500308,NA,"complete",NA,"6525370fbf00cac6004acd33","computer","Desktop or Laptop","Windows 10","Chrome 117.0.0.0","1920x1080","1423x912",NA,NA,0,"BIQ (Charlotte)",3,"ABJCIDHEGF","Passed AC2",NA,"Spreadsheet1",NA,"","","",NA,"5","BEGIN",NA,NA,NA,NA,NA,NA,0,NA,NA,NA,NA,"","",NA,"","",NA,"SUPPRF41746"
"2",1696934569635,"10/10/2023 10:42:49",1696938169635,1,"10/10/2023 12:42:49",146524,3,"task-gjqt",NA,32128979,9500308,NA,"complete",NA,"6525370fbf00cac6004acd33","computer","Desktop or Laptop","Windows 10","Chrome 117.0.0.0","1920x1080","1423x912",NA,NA,0,"BIQ (Charlotte)",3,"ABJCIDHEGF","Passed AC2",NA,"Spreadsheet1",1,"BIQ","Screen 1","9dh6eq",1,"continue","",24552.2379999881,24549.134,24552.2379999881,24552.2379999881,24549.134,24552.2379999881,1,24552.2379999881,0,0,NA,"Click To Continue","Continue Button",23,"object-48","BIQ",NA,"SUPPRF41746"
"3",1696934569636,"10/10/2023 10:42:49",1696938169636,1,"10/10/2023 12:42:49",146524,3,"task-gjqt",NA,32128979,9500308,NA,"complete",NA,"6525370fbf00cac6004acd33","computer","Desktop or Laptop","Windows 10","Chrome 117.0.0.0","1920x1080","1423x912",NA,NA,0,"BIQ (Charlotte)",3,"ABJCIDHEGF","Passed AC2",NA,"Spreadsheet1",1,"BIQ","Screen 1","9dh6eq",1,"response","7",8816.217,24549.134,24553.538,8816.217,24549.134,24553.538,1,8816.217,15737.321,0,NA,"Rating Scale","Rating Scale",3,"object-5","BIQ",NA,"SUPPRF41746"
"4",1696934569637,"10/10/2023 10:42:49",1696938169637,1,"10/10/2023 12:42:49",146524,3,"task-gjqt",NA,32128979,9500308,NA,"complete",NA,"6525370fbf00cac6004acd33","computer","Desktop or Laptop","Windows 10","Chrome 117.0.0.0","1920x1080","1423x912",NA,NA,0,"BIQ (Charlotte)",3,"ABJCIDHEGF","Passed AC2",NA,"Spreadsheet1",1,"BIQ","Screen 1","9dh6eq",1,"response","4",17699.478,24549.134,24553.8380000119,17699.478,24549.134,24553.8380000119,1,17699.478,6854.36000001192,0,NA,"Rating Scale","Rating Scale",10,"object-18","BIQ",NA,"SUPPRF41746"
"5",1696934569637,"10/10/2023 10:42:49",1696938169637,1,"10/10/2023 12:42:49",146524,3,"task-gjqt",NA,32128979,9500308,NA,"complete",NA,"6525370fbf00cac6004acd33","computer","Desktop or Laptop","Windows 10","Chrome 117.0.0.0","1920x1080","1423x912",NA,NA,0,"BIQ (Charlotte)",3,"ABJCIDHEGF","Passed AC2",NA,"Spreadsheet1",1,"BIQ","Screen 1","9dh6eq",1,"response","4",23349.401,24549.134,24554.1380000238,23349.401,24549.134,24554.1380000238,1,23349.401,1204.73700002384,0,NA,"Rating Scale","Rating Scale",17,"object-80","BIQ",NA,"SUPPRF41746"
"6",1696934594175,"10/10/2023 10:43:14",1696938194175,1,"10/10/2023 12:43:14",146524,3,"task-gjqt",NA,32128979,9500308,NA,"complete",NA,"6525370fbf00cac6004acd33","computer","Desktop or Laptop","Windows 10","Chrome 117.0.0.0","1920x1080","1423x912",NA,NA,0,"BIQ (Charlotte)",3,"ABJCIDHEGF","Passed AC2",NA,"Spreadsheet1",1,"BIQ","Screen 2","o21mwi",2,"continue","",24543.2040000119,24532.683,24543.2040000119,24543.2040000119,24532.683,24543.2040000119,1,24543.2040000119,0,0,NA,"Click To Continue","Continue Button",22,"object-50","BIQ",NA,"SUPPRF41746"
"7",1696934594177,"10/10/2023 10:43:14",1696938194177,1,"10/10/2023 12:43:14",146524,3,"task-gjqt",NA,32128979,9500308,NA,"complete",NA,"6525370fbf00cac6004acd33","computer","Desktop or Laptop","Windows 10","Chrome 117.0.0.0","1920x1080","1423x912",NA,NA,0,"BIQ (Charlotte)",3,"ABJCIDHEGF","Passed AC2",NA,"Spreadsheet1",1,"BIQ","Screen 2","o21mwi",2,"response","5",5299.995,24532.683,24544.404,5299.995,24532.683,24544.404,1,5299.995,19244.409,0,NA,"Rating Scale","Rating Scale",2,"object-259","BIQ",NA,"SUPPRF41746"
"8",1696934594177,"10/10/2023 10:43:14",1696938194177,1,"10/10/2023 12:43:14",146524,3,"task-gjqt",NA,32128979,9500308,NA,"complete",NA,"6525370fbf00cac6004acd33","computer","Desktop or Laptop","Windows 10","Chrome 117.0.0.0","1920x1080","1423x912",NA,NA,0,"BIQ (Charlotte)",3,"ABJCIDHEGF","Passed AC2",NA,"Spreadsheet1",1,"BIQ","Screen 2","o21mwi",2,"response","4",16199.664,24532.683,24544.7040000119,16199.664,24532.683,24544.7040000119,1,16199.664,8345.04000001192,0,NA,"Rating Scale","Rating Scale",9,"object-36","BIQ",NA,"SUPPRF41746"
"9",1696934594177,"10/10/2023 10:43:14",1696938194177,1,"10/10/2023 12:43:14",146524,3,"task-gjqt",NA,32128979,9500308,NA,"complete",NA,"6525370fbf00cac6004acd33","computer","Desktop or Laptop","Windows 10","Chrome 117.0.0.0","1920x1080","1423x912",NA,NA,0,"BIQ (Charlotte)",3,"ABJCIDHEGF","Passed AC2",NA,"Spreadsheet1",1,"BIQ","Screen 2","o21mwi",2,"response","7",23199.344,24532.683,24545.0040000238,23199.344,24532.683,24545.0040000238,1,23199.344,1345.66000002384,0,NA,"Rating Scale","Rating Scale",16,"object-86","BIQ",NA,"SUPPRF41746"
"10",1696934605767,"10/10/2023 10:43:25",1696938205767,1,"10/10/2023 12:43:25",146524,3,"task-gjqt",NA,32128979,9500308,NA,"complete",NA,"6525370fbf00cac6004acd33","computer","Desktop or Laptop","Windows 10","Chrome 117.0.0.0","1920x1080","1423x912",NA,NA,0,"BIQ (Charlotte)",3,"ABJCIDHEGF","Passed AC2",NA,"Spreadsheet1",1,"BIQ","Screen 3","iz3the",3,"continue","",11602.3210000238,11599.577,11602.3210000238,11602.3210000238,11599.577,11602.3210000238,1,11602.3210000238,0,0,NA,"Click To Continue","Continue Button",22,"object-73","BIQ",NA,"SUPPRF41746"
"11",1696934605768,"10/10/2023 10:43:25",1696938205768,1,"10/10/2023 12:43:25",146524,3,"task-gjqt",NA,32128979,9500308,NA,"complete",NA,"6525370fbf00cac6004acd33","computer","Desktop or Laptop","Windows 10","Chrome 117.0.0.0","1920x1080","1423x912",NA,NA,0,"BIQ (Charlotte)",3,"ABJCIDHEGF","Passed AC2",NA,"Spreadsheet1",1,"BIQ","Screen 3","iz3the",3,"response","3",3966.445,11599.577,11603.4209999881,3966.445,11599.577,11603.4209999881,1,3966.445,7636.97599998808,0,NA,"Rating Scale","Rating Scale",2,"object-53","BIQ",NA,"SUPPRF41746"
"12",1696934605768,"10/10/2023 10:43:25",1696938205768,1,"10/10/2023 12:43:25",146524,3,"task-gjqt",NA,32128979,9500308,NA,"complete",NA,"6525370fbf00cac6004acd33","computer","Desktop or Laptop","Windows 10","Chrome 117.0.0.0","1920x1080","1423x912",NA,NA,0,"BIQ (Charlotte)",3,"ABJCIDHEGF","Passed AC2",NA,"Spreadsheet1",1,"BIQ","Screen 3","iz3the",3,"response","4",5433.21,11599.577,11603.721,5433.21,11599.577,11603.721,1,5433.21,6170.511,0,NA,"Rating Scale","Rating Scale",9,"object-60","BIQ",NA,"SUPPRF41746"
"13",1696934605768,"10/10/2023 10:43:25",1696938205768,1,"10/10/2023 12:43:25",146524,3,"task-gjqt",NA,32128979,9500308,NA,"complete",NA,"6525370fbf00cac6004acd33","computer","Desktop or Laptop","Windows 10","Chrome 117.0.0.0","1920x1080","1423x912",NA,NA,0,"BIQ (Charlotte)",3,"ABJCIDHEGF","Passed AC2",NA,"Spreadsheet1",1,"BIQ","Screen 3","iz3the",3,"response","1",9649.661,11599.577,11604.0210000119,9649.661,11599.577,11604.0210000119,1,9649.661,1954.36000001192,0,NA,"Rating Scale","Rating Scale",16,"object-67","BIQ",NA,"SUPPRF41746"
"14",1696934605771,"10/10/2023 10:43:25",1696938205771,1,"10/10/2023 12:43:25",146524,3,"task-gjqt",NA,32128979,9500308,NA,"complete",NA,"6525370fbf00cac6004acd33","computer","Desktop or Laptop","Windows 10","Chrome 117.0.0.0","1920x1080","1423x912",NA,NA,0,"BIQ (Charlotte)",3,"ABJCIDHEGF","Passed AC2",NA,"Spreadsheet1",NA,"","","",NA,"5","END",NA,NA,NA,NA,NA,NA,0,NA,NA,NA,NA,"","",NA,"","",NA,"SUPPRF41746"
"1",1696935202456,"10/10/2023 10:53:22",1696938802456,1,"10/10/2023 12:53:22",146524,3,"task-gjqt",NA,32129437,9500402,NA,"complete",NA,"652539b71e0db3dbdaacb9e5","computer","Desktop or Laptop","Mac OS 10.15.7","Safari 16.3","1440x900","1440x738",NA,NA,0,"BIQ (Charlotte)",3,"CDBEAFJGIH","Passed AC2",NA,"Spreadsheet1",NA,"","","",NA,"5","BEGIN",NA,NA,NA,NA,NA,NA,0,NA,NA,NA,NA,"","",NA,"","",NA,"SUPPRF51534"
"2",1696935233602,"10/10/2023 10:53:53",1696938833602,1,"10/10/2023 12:53:53",146524,3,"task-gjqt",NA,32129437,9500402,NA,"complete",NA,"652539b71e0db3dbdaacb9e5","computer","Desktop or Laptop","Mac OS 10.15.7","Safari 16.3","1440x900","1440x738",NA,NA,0,"BIQ (Charlotte)",3,"CDBEAFJGIH","Passed AC2",NA,"Spreadsheet1",1,"BIQ","Screen 1","9dh6eq",1,"continue","",32182,32165,32182,32182,32165,32182,1,32182,0,0,NA,"Click To Continue","Continue Button",23,"object-48","BIQ",NA,"SUPPRF51534"
"3",1696935233607,"10/10/2023 10:53:53",1696938833607,1,"10/10/2023 12:53:53",146524,3,"task-gjqt",NA,32129437,9500402,NA,"complete",NA,"652539b71e0db3dbdaacb9e5","computer","Desktop or Laptop","Mac OS 10.15.7","Safari 16.3","1440x900","1440x738",NA,NA,0,"BIQ (Charlotte)",3,"CDBEAFJGIH","Passed AC2",NA,"Spreadsheet1",1,"BIQ","Screen 1","9dh6eq",1,"response","5",14814,32165,32182,14814,32165,32182,1,14814,17368,0,NA,"Rating Scale","Rating Scale",3,"object-5","BIQ",NA,"SUPPRF51534"
"4",1696935233608,"10/10/2023 10:53:53",1696938833608,1,"10/10/2023 12:53:53",146524,3,"task-gjqt",NA,32129437,9500402,NA,"complete",NA,"652539b71e0db3dbdaacb9e5","computer","Desktop or Laptop","Mac OS 10.15.7","Safari 16.3","1440x900","1440x738",NA,NA,0,"BIQ (Charlotte)",3,"CDBEAFJGIH","Passed AC2",NA,"Spreadsheet1",1,"BIQ","Screen 1","9dh6eq",1,"response","4",23398,32165,32182,23398,32165,32182,1,23398,8784,0,NA,"Rating Scale","Rating Scale",10,"object-18","BIQ",NA,"SUPPRF51534"
"5",1696935233610,"10/10/2023 10:53:53",1696938833610,1,"10/10/2023 12:53:53",146524,3,"task-gjqt",NA,32129437,9500402,NA,"complete",NA,"652539b71e0db3dbdaacb9e5","computer","Desktop or Laptop","Mac OS 10.15.7","Safari 16.3","1440x900","1440x738",NA,NA,0,"BIQ (Charlotte)",3,"CDBEAFJGIH","Passed AC2",NA,"Spreadsheet1",1,"BIQ","Screen 1","9dh6eq",1,"response","6",28147,32165,32182,28147,32165,32182,1,28147,4035,0,NA,"Rating Scale","Rating Scale",17,"object-80","BIQ",NA,"SUPPRF51534"
"6",1696935248334,"10/10/2023 10:54:08",1696938848334,1,"10/10/2023 12:54:08",146524,3,"task-gjqt",NA,32129437,9500402,NA,"complete",NA,"652539b71e0db3dbdaacb9e5","computer","Desktop or Laptop","Mac OS 10.15.7","Safari 16.3","1440x900","1440x738",NA,NA,0,"BIQ (Charlotte)",3,"CDBEAFJGIH","Passed AC2",NA,"Spreadsheet1",1,"BIQ","Screen 2","o21mwi",2,"continue","",14750,14734,14750,14750,14734,14750,1,14750,0,0,NA,"Click To Continue","Continue Button",22,"object-50","BIQ",NA,"SUPPRF51534"
"7",1696935248340,"10/10/2023 10:54:08",1696938848340,1,"10/10/2023 12:54:08",146524,3,"task-gjqt",NA,32129437,9500402,NA,"complete",NA,"652539b71e0db3dbdaacb9e5","computer","Desktop or Laptop","Mac OS 10.15.7","Safari 16.3","1440x900","1440x738",NA,NA,0,"BIQ (Charlotte)",3,"CDBEAFJGIH","Passed AC2",NA,"Spreadsheet1",1,"BIQ","Screen 2","o21mwi",2,"response","4",4749,14734,14750,4749,14734,14750,1,4749,10001,0,NA,"Rating Scale","Rating Scale",2,"object-259","BIQ",NA,"SUPPRF51534"
"8",1696935248341,"10/10/2023 10:54:08",1696938848341,1,"10/10/2023 12:54:08",146524,3,"task-gjqt",NA,32129437,9500402,NA,"complete",NA,"652539b71e0db3dbdaacb9e5","computer","Desktop or Laptop","Mac OS 10.15.7","Safari 16.3","1440x900","1440x738",NA,NA,0,"BIQ (Charlotte)",3,"CDBEAFJGIH","Passed AC2",NA,"Spreadsheet1",1,"BIQ","Screen 2","o21mwi",2,"response","5",8066,14734,14750,8066,14734,14750,1,8066,6684,0,NA,"Rating Scale","Rating Scale",9,"object-36","BIQ",NA,"SUPPRF51534"
"9",1696935248342,"10/10/2023 10:54:08",1696938848342,1,"10/10/2023 12:54:08",146524,3,"task-gjqt",NA,32129437,9500402,NA,"complete",NA,"652539b71e0db3dbdaacb9e5","computer","Desktop or Laptop","Mac OS 10.15.7","Safari 16.3","1440x900","1440x738",NA,NA,0,"BIQ (Charlotte)",3,"CDBEAFJGIH","Passed AC2",NA,"Spreadsheet1",1,"BIQ","Screen 2","o21mwi",2,"response","4",14151,14734,14750,14151,14734,14750,1,14151,599,0,NA,"Rating Scale","Rating Scale",16,"object-86","BIQ",NA,"SUPPRF51534"
"10",1696935259050,"10/10/2023 10:54:19",1696938859050,1,"10/10/2023 12:54:19",146524,3,"task-gjqt",NA,32129437,9500402,NA,"complete",NA,"652539b71e0db3dbdaacb9e5","computer","Desktop or Laptop","Mac OS 10.15.7","Safari 16.3","1440x900","1440x738",NA,NA,0,"BIQ (Charlotte)",3,"CDBEAFJGIH","Passed AC2",NA,"Spreadsheet1",1,"BIQ","Screen 3","iz3the",3,"continue","",10734,10718,10734,10734,10718,10734,1,10734,0,0,NA,"Click To Continue","Continue Button",22,"object-73","BIQ",NA,"SUPPRF51534"
"11",1696935259057,"10/10/2023 10:54:19",1696938859057,1,"10/10/2023 12:54:19",146524,3,"task-gjqt",NA,32129437,9500402,NA,"complete",NA,"652539b71e0db3dbdaacb9e5","computer","Desktop or Laptop","Mac OS 10.15.7","Safari 16.3","1440x900","1440x738",NA,NA,0,"BIQ (Charlotte)",3,"CDBEAFJGIH","Passed AC2",NA,"Spreadsheet1",1,"BIQ","Screen 3","iz3the",3,"response","3",5134,10718,10735,5134,10718,10735,1,5134,5601,0,NA,"Rating Scale","Rating Scale",2,"object-53","BIQ",NA,"SUPPRF51534"
"12",1696935259058,"10/10/2023 10:54:19",1696938859058,1,"10/10/2023 12:54:19",146524,3,"task-gjqt",NA,32129437,9500402,NA,"complete",NA,"652539b71e0db3dbdaacb9e5","computer","Desktop or Laptop","Mac OS 10.15.7","Safari 16.3","1440x900","1440x738",NA,NA,0,"BIQ (Charlotte)",3,"CDBEAFJGIH","Passed AC2",NA,"Spreadsheet1",1,"BIQ","Screen 3","iz3the",3,"response","4",6867,10718,10735,6867,10718,10735,1,6867,3868,0,NA,"Rating Scale","Rating Scale",9,"object-60","BIQ",NA,"SUPPRF51534"
"13",1696935259059,"10/10/2023 10:54:19",1696938859059,1,"10/10/2023 12:54:19",146524,3,"task-gjqt",NA,32129437,9500402,NA,"complete",NA,"652539b71e0db3dbdaacb9e5","computer","Desktop or Laptop","Mac OS 10.15.7","Safari 16.3","1440x900","1440x738",NA,NA,0,"BIQ (Charlotte)",3,"CDBEAFJGIH","Passed AC2",NA,"Spreadsheet1",1,"BIQ","Screen 3","iz3the",3,"response","5",9601,10718,10735,9601,10718,10735,1,9601,1134,0,NA,"Rating Scale","Rating Scale",16,"object-67","BIQ",NA,"SUPPRF51534"
"14",1696935259062,"10/10/2023 10:54:19",1696938859062,1,"10/10/2023 12:54:19",146524,3,"task-gjqt",NA,32129437,9500402,NA,"complete",NA,"652539b71e0db3dbdaacb9e5","computer","Desktop or Laptop","Mac OS 10.15.7","Safari 16.3","1440x900","1440x738",NA,NA,0,"BIQ (Charlotte)",3,"CDBEAFJGIH","Passed AC2",NA,"Spreadsheet1",NA,"","","",NA,"5","END",NA,NA,NA,NA,NA,NA,0,NA,NA,NA,NA,"","",NA,"","",NA,"SUPPRF51534"
"1",1696935221679,"10/10/2023 10:53:41",1696938821679,1,"10/10/2023 12:53:41",146524,3,"task-gjqt",NA,32129455,9500441,NA,"complete",NA,"65253a72b3fbf3fd02adeec4","computer","Desktop or Laptop","Mac OS 10.15.7","Chrome 117.0.0.0","1440x900","1440x782",NA,NA,0,"BIQ (Charlotte)",3,"DECFBGAHJI","Passed AC2",NA,"Spreadsheet1",NA,"","","",NA,"5","BEGIN",NA,NA,NA,NA,NA,NA,0,NA,NA,NA,NA,"","",NA,"","",NA,"SUPPRF77371"
"2",1696935234828,"10/10/2023 10:53:54",1696938834828,1,"10/10/2023 12:53:54",146524,3,"task-gjqt",NA,32129455,9500441,NA,"complete",NA,"65253a72b3fbf3fd02adeec4","computer","Desktop or Laptop","Mac OS 10.15.7","Chrome 117.0.0.0","1440x900","1440x782",NA,NA,0,"BIQ (Charlotte)",3,"DECFBGAHJI","Passed AC2",NA,"Spreadsheet1",1,"BIQ","Screen 1","9dh6eq",1,"continue","",13164.5100000015,13149.999,13164.5100000015,13164.5100000015,13149.999,13164.5100000015,1,13164.5100000015,0,0,NA,"Click To Continue","Continue Button",23,"object-48","BIQ",NA,"SUPPRF77371"
"3",1696935234830,"10/10/2023 10:53:54",1696938834830,1,"10/10/2023 12:53:54",146524,3,"task-gjqt",NA,32129455,9500441,NA,"complete",NA,"65253a72b3fbf3fd02adeec4","computer","Desktop or Laptop","Mac OS 10.15.7","Chrome 117.0.0.0","1440x900","1440x782",NA,NA,0,"BIQ (Charlotte)",3,"DECFBGAHJI","Passed AC2",NA,"Spreadsheet1",1,"BIQ","Screen 1","9dh6eq",1,"response","6",6883.32,13149.999,13166.665,6883.32,13149.999,13166.665,1,6883.32,6283.345,0,NA,"Rating Scale","Rating Scale",3,"object-5","BIQ",NA,"SUPPRF77371"
"4",1696935234830,"10/10/2023 10:53:54",1696938834830,1,"10/10/2023 12:53:54",146524,3,"task-gjqt",NA,32129455,9500441,NA,"complete",NA,"65253a72b3fbf3fd02adeec4","computer","Desktop or Laptop","Mac OS 10.15.7","Chrome 117.0.0.0","1440x900","1440x782",NA,NA,0,"BIQ (Charlotte)",3,"DECFBGAHJI","Passed AC2",NA,"Spreadsheet1",1,"BIQ","Screen 1","9dh6eq",1,"response","4",9199.894,13149.999,13166.665,9199.894,13149.999,13166.665,1,9199.894,3966.771,0,NA,"Rating Scale","Rating Scale",10,"object-18","BIQ",NA,"SUPPRF77371"
"5",1696935234831,"10/10/2023 10:53:54",1696938834831,1,"10/10/2023 12:53:54",146524,3,"task-gjqt",NA,32129455,9500441,NA,"complete",NA,"65253a72b3fbf3fd02adeec4","computer","Desktop or Laptop","Mac OS 10.15.7","Chrome 117.0.0.0","1440x900","1440x782",NA,NA,0,"BIQ (Charlotte)",3,"DECFBGAHJI","Passed AC2",NA,"Spreadsheet1",1,"BIQ","Screen 1","9dh6eq",1,"response","5",12600.021,13149.999,13166.665,12600.021,13149.999,13166.665,1,12600.021,566.643999999998,0,NA,"Rating Scale","Rating Scale",17,"object-80","BIQ",NA,"SUPPRF77371"
"6",1696935246993,"10/10/2023 10:54:06",1696938846993,1,"10/10/2023 12:54:06",146524,3,"task-gjqt",NA,32129455,9500441,NA,"complete",NA,"65253a72b3fbf3fd02adeec4","computer","Desktop or Laptop","Mac OS 10.15.7","Chrome 117.0.0.0","1440x900","1440x782",NA,NA,0,"BIQ (Charlotte)",3,"DECFBGAHJI","Passed AC2",NA,"Spreadsheet1",1,"BIQ","Screen 2","o21mwi",2,"continue","",12179.3109999985,12166.442,12179.3109999985,12179.3109999985,12166.442,12179.3109999985,1,12179.3109999985,0,0,NA,"Click To Continue","Continue Button",22,"object-50","BIQ",NA,"SUPPRF77371"
"7",1696935246996,"10/10/2023 10:54:06",1696938846996,1,"10/10/2023 12:54:06",146524,3,"task-gjqt",NA,32129455,9500441,NA,"complete",NA,"65253a72b3fbf3fd02adeec4","computer","Desktop or Laptop","Mac OS 10.15.7","Chrome 117.0.0.0","1440x900","1440x782",NA,NA,0,"BIQ (Charlotte)",3,"DECFBGAHJI","Passed AC2",NA,"Spreadsheet1",1,"BIQ","Screen 2","o21mwi",2,"response","2",3449.862,12166.442,12182.6109999993,3449.862,12166.442,12182.6109999993,1,3449.862,8732.74899999925,0,NA,"Rating Scale","Rating Scale",2,"object-259","BIQ",NA,"SUPPRF77371"
"8",1696935246997,"10/10/2023 10:54:06",1696938846997,1,"10/10/2023 12:54:06",146524,3,"task-gjqt",NA,32129455,9500441,NA,"complete",NA,"65253a72b3fbf3fd02adeec4","computer","Desktop or Laptop","Mac OS 10.15.7","Chrome 117.0.0.0","1440x900","1440x782",NA,NA,0,"BIQ (Charlotte)",3,"DECFBGAHJI","Passed AC2",NA,"Spreadsheet1",1,"BIQ","Screen 2","o21mwi",2,"response","6",6933.056,12166.442,12183.108,6933.056,12166.442,12183.108,1,6933.056,5250.052,0,NA,"Rating Scale","Rating Scale",9,"object-36","BIQ",NA,"SUPPRF77371"
"9",1696935246997,"10/10/2023 10:54:06",1696938846997,1,"10/10/2023 12:54:06",146524,3,"task-gjqt",NA,32129455,9500441,NA,"complete",NA,"65253a72b3fbf3fd02adeec4","computer","Desktop or Laptop","Mac OS 10.15.7","Chrome 117.0.0.0","1440x900","1440x782",NA,NA,0,"BIQ (Charlotte)",3,"DECFBGAHJI","Passed AC2",NA,"Spreadsheet1",1,"BIQ","Screen 2","o21mwi",2,"response","2",11349.808,12166.442,12183.108,11349.808,12166.442,12183.108,1,11349.808,833.299999999996,0,NA,"Rating Scale","Rating Scale",16,"object-86","BIQ",NA,"SUPPRF77371"
"10",1696935259668,"10/10/2023 10:54:19",1696938859668,1,"10/10/2023 12:54:19",146524,3,"task-gjqt",NA,32129455,9500441,NA,"complete",NA,"65253a72b3fbf3fd02adeec4","computer","Desktop or Laptop","Mac OS 10.15.7","Chrome 117.0.0.0","1440x900","1440x782",NA,NA,0,"BIQ (Charlotte)",3,"DECFBGAHJI","Passed AC2",NA,"Spreadsheet1",1,"BIQ","Screen 3","iz3the",3,"continue","",12687.5690000015,12683.089,12687.5690000015,12687.5690000015,12683.089,12687.5690000015,1,12687.5690000015,0,0,NA,"Click To Continue","Continue Button",22,"object-73","BIQ",NA,"SUPPRF77371"
"11",1696935259670,"10/10/2023 10:54:19",1696938859670,1,"10/10/2023 12:54:19",146524,3,"task-gjqt",NA,32129455,9500441,NA,"complete",NA,"65253a72b3fbf3fd02adeec4","computer","Desktop or Laptop","Mac OS 10.15.7","Chrome 117.0.0.0","1440x900","1440x782",NA,NA,0,"BIQ (Charlotte)",3,"DECFBGAHJI","Passed AC2",NA,"Spreadsheet1",1,"BIQ","Screen 3","iz3the",3,"response","0",9216.561,12683.089,12689.469,9216.561,12683.089,12689.469,1,9216.561,3472.908,0,NA,"Rating Scale","Rating Scale",2,"object-53","BIQ",NA,"SUPPRF77371"
"12",1696935259670,"10/10/2023 10:54:19",1696938859670,1,"10/10/2023 12:54:19",146524,3,"task-gjqt",NA,32129455,9500441,NA,"complete",NA,"65253a72b3fbf3fd02adeec4","computer","Desktop or Laptop","Mac OS 10.15.7","Chrome 117.0.0.0","1440x900","1440x782",NA,NA,0,"BIQ (Charlotte)",3,"DECFBGAHJI","Passed AC2",NA,"Spreadsheet1",1,"BIQ","Screen 3","iz3the",3,"response","2",10583.173,12683.089,12689.8689999985,10583.173,12683.089,12689.8689999985,1,10583.173,2106.69599999851,0,NA,"Rating Scale","Rating Scale",9,"object-60","BIQ",NA,"SUPPRF77371"
"13",1696935259670,"10/10/2023 10:54:19",1696938859670,1,"10/10/2023 12:54:19",146524,3,"task-gjqt",NA,32129455,9500441,NA,"complete",NA,"65253a72b3fbf3fd02adeec4","computer","Desktop or Laptop","Mac OS 10.15.7","Chrome 117.0.0.0","1440x900","1440x782",NA,NA,0,"BIQ (Charlotte)",3,"DECFBGAHJI","Passed AC2",NA,"Spreadsheet1",1,"BIQ","Screen 3","iz3the",3,"response","2",11966.451,12683.089,12690.1689999993,11966.451,12683.089,12690.1689999993,1,11966.451,723.717999999251,0,NA,"Rating Scale","Rating Scale",16,"object-67","BIQ",NA,"SUPPRF77371"
"14",1696935259675,"10/10/2023 10:54:19",1696938859675,1,"10/10/2023 12:54:19",146524,3,"task-gjqt",NA,32129455,9500441,NA,"complete",NA,"65253a72b3fbf3fd02adeec4","computer","Desktop or Laptop","Mac OS 10.15.7","Chrome 117.0.0.0","1440x900","1440x782",NA,NA,0,"BIQ (Charlotte)",3,"DECFBGAHJI","Passed AC2",NA,"Spreadsheet1",NA,"","","",NA,"5","END",NA,NA,NA,NA,NA,NA,0,NA,NA,NA,NA,"","",NA,"","",NA,"SUPPRF77371"
"1",1696935229656,"10/10/2023 10:53:49",1696938829656,1,"10/10/2023 12:53:49",146524,3,"task-gjqt",NA,32129481,9500459,NA,"complete",NA,"65253a7af19dbb56db1412ee","computer","Desktop or Laptop","Windows 10","Chrome 117.0.0.0","1920x1080","1920x941",NA,NA,0,"BIQ (Charlotte)",3,"EFDGCHBIAJ","Passed AC2",NA,"Spreadsheet1",NA,"","","",NA,"5","BEGIN",NA,NA,NA,NA,NA,NA,0,NA,NA,NA,NA,"","",NA,"","",NA,"SUPPRF71510"
"2",1696935261528,"10/10/2023 10:54:21",1696938861528,1,"10/10/2023 12:54:21",146524,3,"task-gjqt",NA,32129481,9500459,NA,"complete",NA,"65253a7af19dbb56db1412ee","computer","Desktop or Laptop","Windows 10","Chrome 117.0.0.0","1920x1080","1920x941",NA,NA,0,"BIQ (Charlotte)",3,"EFDGCHBIAJ","Passed AC2",NA,"Spreadsheet1",1,"BIQ","Screen 1","9dh6eq",1,"continue","",31890,31883,31890,31890,31883,31890,1,31890,0,0,NA,"Click To Continue","Continue Button",23,"object-48","BIQ",NA,"SUPPRF71510"
"3",1696935261532,"10/10/2023 10:54:21",1696938861532,1,"10/10/2023 12:54:21",146524,3,"task-gjqt",NA,32129481,9500459,NA,"complete",NA,"65253a7af19dbb56db1412ee","computer","Desktop or Laptop","Windows 10","Chrome 117.0.0.0","1920x1080","1920x941",NA,NA,0,"BIQ (Charlotte)",3,"EFDGCHBIAJ","Passed AC2",NA,"Spreadsheet1",1,"BIQ","Screen 1","9dh6eq",1,"response","8",18889,31883,31890,18889,31883,31890,1,18889,13001,0,NA,"Rating Scale","Rating Scale",3,"object-5","BIQ",NA,"SUPPRF71510"
"4",1696935261533,"10/10/2023 10:54:21",1696938861533,1,"10/10/2023 12:54:21",146524,3,"task-gjqt",NA,32129481,9500459,NA,"complete",NA,"65253a7af19dbb56db1412ee","computer","Desktop or Laptop","Windows 10","Chrome 117.0.0.0","1920x1080","1920x941",NA,NA,0,"BIQ (Charlotte)",3,"EFDGCHBIAJ","Passed AC2",NA,"Spreadsheet1",1,"BIQ","Screen 1","9dh6eq",1,"response","3",25702,31883,31890,25702,31883,31890,1,25702,6188,0,NA,"Rating Scale","Rating Scale",10,"object-18","BIQ",NA,"SUPPRF71510"
"5",1696935261533,"10/10/2023 10:54:21",1696938861533,1,"10/10/2023 12:54:21",146524,3,"task-gjqt",NA,32129481,9500459,NA,"complete",NA,"65253a7af19dbb56db1412ee","computer","Desktop or Laptop","Windows 10","Chrome 117.0.0.0","1920x1080","1920x941",NA,NA,0,"BIQ (Charlotte)",3,"EFDGCHBIAJ","Passed AC2",NA,"Spreadsheet1",1,"BIQ","Screen 1","9dh6eq",1,"response","0",30112,31883,31890,30112,31883,31890,1,30112,1778,0,NA,"Rating Scale","Rating Scale",17,"object-80","BIQ",NA,"SUPPRF71510"
"6",1696935292011,"10/10/2023 10:54:52",1696938892011,1,"10/10/2023 12:54:52",146524,3,"task-gjqt",NA,32129481,9500459,NA,"complete",NA,"65253a7af19dbb56db1412ee","computer","Desktop or Laptop","Windows 10","Chrome 117.0.0.0","1920x1080","1920x941",NA,NA,0,"BIQ (Charlotte)",3,"EFDGCHBIAJ","Passed AC2",NA,"Spreadsheet1",1,"BIQ","Screen 2","o21mwi",2,"continue","",30500,30493,30500,30500,30493,30500,1,30500,0,0,NA,"Click To Continue","Continue Button",22,"object-50","BIQ",NA,"SUPPRF71510"
"7",1696935292018,"10/10/2023 10:54:52",1696938892018,1,"10/10/2023 12:54:52",146524,3,"task-gjqt",NA,32129481,9500459,NA,"complete",NA,"65253a7af19dbb56db1412ee","computer","Desktop or Laptop","Windows 10","Chrome 117.0.0.0","1920x1080","1920x941",NA,NA,0,"BIQ (Charlotte)",3,"EFDGCHBIAJ","Passed AC2",NA,"Spreadsheet1",1,"BIQ","Screen 2","o21mwi",2,"response","8",12131,30493,30500,12131,30493,30500,1,12131,18369,0,NA,"Rating Scale","Rating Scale",2,"object-259","BIQ",NA,"SUPPRF71510"
"8",1696935292020,"10/10/2023 10:54:52",1696938892020,1,"10/10/2023 12:54:52",146524,3,"task-gjqt",NA,32129481,9500459,NA,"complete",NA,"65253a7af19dbb56db1412ee","computer","Desktop or Laptop","Windows 10","Chrome 117.0.0.0","1920x1080","1920x941",NA,NA,0,"BIQ (Charlotte)",3,"EFDGCHBIAJ","Passed AC2",NA,"Spreadsheet1",1,"BIQ","Screen 2","o21mwi",2,"response","0",18979,30493,30500,18979,30493,30500,1,18979,11521,0,NA,"Rating Scale","Rating Scale",9,"object-36","BIQ",NA,"SUPPRF71510"
"9",1696935292021,"10/10/2023 10:54:52",1696938892021,1,"10/10/2023 12:54:52",146524,3,"task-gjqt",NA,32129481,9500459,NA,"complete",NA,"65253a7af19dbb56db1412ee","computer","Desktop or Laptop","Windows 10","Chrome 117.0.0.0","1920x1080","1920x941",NA,NA,0,"BIQ (Charlotte)",3,"EFDGCHBIAJ","Passed AC2",NA,"Spreadsheet1",1,"BIQ","Screen 2","o21mwi",2,"response","2",29923,30493,30500,29923,30493,30500,1,29923,577,0,NA,"Rating Scale","Rating Scale",16,"object-86","BIQ",NA,"SUPPRF71510"
"10",1696935332418,"10/10/2023 10:55:32",1696938932418,1,"10/10/2023 12:55:32",146524,3,"task-gjqt",NA,32129481,9500459,NA,"complete",NA,"65253a7af19dbb56db1412ee","computer","Desktop or Laptop","Windows 10","Chrome 117.0.0.0","1920x1080","1920x941",NA,NA,0,"BIQ (Charlotte)",3,"EFDGCHBIAJ","Passed AC2",NA,"Spreadsheet1",1,"BIQ","Screen 3","iz3the",3,"continue","",40413,40410,40413,40413,40410,40413,1,40413,0,0,NA,"Click To Continue","Continue Button",22,"object-73","BIQ",NA,"SUPPRF71510"
"11",1696935332421,"10/10/2023 10:55:32",1696938932421,1,"10/10/2023 12:55:32",146524,3,"task-gjqt",NA,32129481,9500459,NA,"complete",NA,"65253a7af19dbb56db1412ee","computer","Desktop or Laptop","Windows 10","Chrome 117.0.0.0","1920x1080","1920x941",NA,NA,0,"BIQ (Charlotte)",3,"EFDGCHBIAJ","Passed AC2",NA,"Spreadsheet1",1,"BIQ","Screen 3","iz3the",3,"response","0",35076,40410,40416,35076,40410,40416,1,35076,5340,0,NA,"Rating Scale","Rating Scale",2,"object-53","BIQ",NA,"SUPPRF71510"
"12",1696935332422,"10/10/2023 10:55:32",1696938932422,1,"10/10/2023 12:55:32",146524,3,"task-gjqt",NA,32129481,9500459,NA,"complete",NA,"65253a7af19dbb56db1412ee","computer","Desktop or Laptop","Windows 10","Chrome 117.0.0.0","1920x1080","1920x941",NA,NA,0,"BIQ (Charlotte)",3,"EFDGCHBIAJ","Passed AC2",NA,"Spreadsheet1",1,"BIQ","Screen 3","iz3the",3,"response","0",37444,40410,40417,37444,40410,40417,1,37444,2973,0,NA,"Rating Scale","Rating Scale",9,"object-60","BIQ",NA,"SUPPRF71510"
"13",1696935332423,"10/10/2023 10:55:32",1696938932423,1,"10/10/2023 12:55:32",146524,3,"task-gjqt",NA,32129481,9500459,NA,"complete",NA,"65253a7af19dbb56db1412ee","computer","Desktop or Laptop","Windows 10","Chrome 117.0.0.0","1920x1080","1920x941",NA,NA,0,"BIQ (Charlotte)",3,"EFDGCHBIAJ","Passed AC2",NA,"Spreadsheet1",1,"BIQ","Screen 3","iz3the",3,"response","0",39896,40410,40417,39896,40410,40417,1,39896,521,0,NA,"Rating Scale","Rating Scale",16,"object-67","BIQ",NA,"SUPPRF71510"
"14",1696935332430,"10/10/2023 10:55:32",1696938932430,1,"10/10/2023 12:55:32",146524,3,"task-gjqt",NA,32129481,9500459,NA,"complete",NA,"65253a7af19dbb56db1412ee","computer","Desktop or Laptop","Windows 10","Chrome 117.0.0.0","1920x1080","1920x941",NA,NA,0,"BIQ (Charlotte)",3,"EFDGCHBIAJ","Passed AC2",NA,"Spreadsheet1",NA,"","","",NA,"5","END",NA,NA,NA,NA,NA,NA,0,NA,NA,NA,NA,"","",NA,"","",NA,"SUPPRF71510"
"1",1696935346535,"10/10/2023 10:55:46",1696938946535,1,"10/10/2023 12:55:46",146524,3,"task-gjqt",NA,32129525,9500529,NA,"complete",NA,"65253b77ca2f853bab081779","computer","Desktop or Laptop","Windows 10","Chrome 117.0.0.0","2560x1440","2560x1323",NA,NA,0,"BIQ (Charlotte)",3,"FGEHDICJBA","Passed AC2",NA,"Spreadsheet1",NA,"","","",NA,"5","BEGIN",NA,NA,NA,NA,NA,NA,0,NA,NA,NA,NA,"","",NA,"","",NA,"SUPPRF20648"
"2",1696935364190,"10/10/2023 10:56:04",1696938964190,1,"10/10/2023 12:56:04",146524,3,"task-gjqt",NA,32129525,9500529,NA,"complete",NA,"65253b77ca2f853bab081779","computer","Desktop or Laptop","Windows 10","Chrome 117.0.0.0","2560x1440","2560x1323",NA,NA,0,"BIQ (Charlotte)",3,"FGEHDICJBA","Passed AC2",NA,"Spreadsheet1",1,"BIQ","Screen 1","9dh6eq",1,"continue","",17657.408,17653.266,17657.408,17657.408,17653.266,17657.408,1,17657.408,0,0,NA,"Click To Continue","Continue Button",23,"object-48","BIQ",NA,"SUPPRF20648"
"3",1696935364191,"10/10/2023 10:56:04",1696938964191,1,"10/10/2023 12:56:04",146524,3,"task-gjqt",NA,32129525,9500529,NA,"complete",NA,"65253b77ca2f853bab081779","computer","Desktop or Laptop","Windows 10","Chrome 117.0.0.0","2560x1440","2560x1323",NA,NA,0,"BIQ (Charlotte)",3,"FGEHDICJBA","Passed AC2",NA,"Spreadsheet1",1,"BIQ","Screen 1","9dh6eq",1,"response","5",9368.419,17653.266,17657.408,9368.419,17653.266,17657.408,1,9368.419,8288.989,0,NA,"Rating Scale","Rating Scale",3,"object-5","BIQ",NA,"SUPPRF20648"
"4",1696935364191,"10/10/2023 10:56:04",1696938964191,1,"10/10/2023 12:56:04",146524,3,"task-gjqt",NA,32129525,9500529,NA,"complete",NA,"65253b77ca2f853bab081779","computer","Desktop or Laptop","Windows 10","Chrome 117.0.0.0","2560x1440","2560x1323",NA,NA,0,"BIQ (Charlotte)",3,"FGEHDICJBA","Passed AC2",NA,"Spreadsheet1",1,"BIQ","Screen 1","9dh6eq",1,"response","2",13823.43,17653.266,17657.408,13823.43,17653.266,17657.408,1,13823.43,3833.978,0,NA,"Rating Scale","Rating Scale",10,"object-18","BIQ",NA,"SUPPRF20648"
"5",1696935364191,"10/10/2023 10:56:04",1696938964191,1,"10/10/2023 12:56:04",146524,3,"task-gjqt",NA,32129525,9500529,NA,"complete",NA,"65253b77ca2f853bab081779","computer","Desktop or Laptop","Windows 10","Chrome 117.0.0.0","2560x1440","2560x1323",NA,NA,0,"BIQ (Charlotte)",3,"FGEHDICJBA","Passed AC2",NA,"Spreadsheet1",1,"BIQ","Screen 1","9dh6eq",1,"response","3",16519.756,17653.266,17657.408,16519.756,17653.266,17657.408,1,16519.756,1137.652,0,NA,"Rating Scale","Rating Scale",17,"object-80","BIQ",NA,"SUPPRF20648"
"6",1696935380139,"10/10/2023 10:56:20",1696938980139,1,"10/10/2023 12:56:20",146524,3,"task-gjqt",NA,32129525,9500529,NA,"complete",NA,"65253b77ca2f853bab081779","computer","Desktop or Laptop","Windows 10","Chrome 117.0.0.0","2560x1440","2560x1323",NA,NA,0,"BIQ (Charlotte)",3,"FGEHDICJBA","Passed AC2",NA,"Spreadsheet1",1,"BIQ","Screen 2","o21mwi",2,"continue","",15953.98,15952.939,15953.98,15953.98,15952.939,15953.98,1,15953.98,0,0,NA,"Click To Continue","Continue Button",22,"object-50","BIQ",NA,"SUPPRF20648"
"7",1696935380140,"10/10/2023 10:56:20",1696938980140,1,"10/10/2023 12:56:20",146524,3,"task-gjqt",NA,32129525,9500529,NA,"complete",NA,"65253b77ca2f853bab081779","computer","Desktop or Laptop","Windows 10","Chrome 117.0.0.0","2560x1440","2560x1323",NA,NA,0,"BIQ (Charlotte)",3,"FGEHDICJBA","Passed AC2",NA,"Spreadsheet1",1,"BIQ","Screen 2","o21mwi",2,"response","6",5334.339,15952.939,15955.0800000238,5334.339,15952.939,15955.0800000238,1,5334.339,10620.7410000238,0,NA,"Rating Scale","Rating Scale",2,"object-259","BIQ",NA,"SUPPRF20648"
"8",1696935380140,"10/10/2023 10:56:20",1696938980140,1,"10/10/2023 12:56:20",146524,3,"task-gjqt",NA,32129525,9500529,NA,"complete",NA,"65253b77ca2f853bab081779","computer","Desktop or Laptop","Windows 10","Chrome 117.0.0.0","2560x1440","2560x1323",NA,NA,0,"BIQ (Charlotte)",3,"FGEHDICJBA","Passed AC2",NA,"Spreadsheet1",1,"BIQ","Screen 2","o21mwi",2,"response","4",8476.573,15952.939,15955.2800000119,8476.573,15952.939,15955.2800000119,1,8476.573,7478.70700001192,0,NA,"Rating Scale","Rating Scale",9,"object-36","BIQ",NA,"SUPPRF20648"
"9",1696935380140,"10/10/2023 10:56:20",1696938980140,1,"10/10/2023 12:56:20",146524,3,"task-gjqt",NA,32129525,9500529,NA,"complete",NA,"65253b77ca2f853bab081779","computer","Desktop or Laptop","Windows 10","Chrome 117.0.0.0","2560x1440","2560x1323",NA,NA,0,"BIQ (Charlotte)",3,"FGEHDICJBA","Passed AC2",NA,"Spreadsheet1",1,"BIQ","Screen 2","o21mwi",2,"response","3",15352.833,15952.939,15955.48,15352.833,15952.939,15955.48,1,15352.833,602.646999999997,0,NA,"Rating Scale","Rating Scale",16,"object-86","BIQ",NA,"SUPPRF20648"
"10",1696935391651,"10/10/2023 10:56:31",1696938991651,1,"10/10/2023 12:56:31",146524,3,"task-gjqt",NA,32129525,9500529,NA,"complete",NA,"65253b77ca2f853bab081779","computer","Desktop or Laptop","Windows 10","Chrome 117.0.0.0","2560x1440","2560x1323",NA,NA,0,"BIQ (Charlotte)",3,"FGEHDICJBA","Passed AC2",NA,"Spreadsheet1",1,"BIQ","Screen 3","iz3the",3,"continue","",11513.1410000238,11510.428,11513.1410000238,11513.1410000238,11510.428,11513.1410000238,1,11513.1410000238,0,0,NA,"Click To Continue","Continue Button",22,"object-73","BIQ",NA,"SUPPRF20648"
"11",1696935391652,"10/10/2023 10:56:31",1696938991652,1,"10/10/2023 12:56:31",146524,3,"task-gjqt",NA,32129525,9500529,NA,"complete",NA,"65253b77ca2f853bab081779","computer","Desktop or Laptop","Windows 10","Chrome 117.0.0.0","2560x1440","2560x1323",NA,NA,0,"BIQ (Charlotte)",3,"FGEHDICJBA","Passed AC2",NA,"Spreadsheet1",1,"BIQ","Screen 3","iz3the",3,"response","1",4475.785,11510.428,11514.3410000119,4475.785,11510.428,11514.3410000119,1,4475.785,7038.55600001192,0,NA,"Rating Scale","Rating Scale",2,"object-53","BIQ",NA,"SUPPRF20648"
"12",1696935391652,"10/10/2023 10:56:31",1696938991652,1,"10/10/2023 12:56:31",146524,3,"task-gjqt",NA,32129525,9500529,NA,"complete",NA,"65253b77ca2f853bab081779","computer","Desktop or Laptop","Windows 10","Chrome 117.0.0.0","2560x1440","2560x1323",NA,NA,0,"BIQ (Charlotte)",3,"FGEHDICJBA","Passed AC2",NA,"Spreadsheet1",1,"BIQ","Screen 3","iz3the",3,"response","3",8522.37,11510.428,11514.588,8522.37,11510.428,11514.588,1,8522.37,2992.21800000001,0,NA,"Rating Scale","Rating Scale",9,"object-60","BIQ",NA,"SUPPRF20648"
"13",1696935391652,"10/10/2023 10:56:31",1696938991652,1,"10/10/2023 12:56:31",146524,3,"task-gjqt",NA,32129525,9500529,NA,"complete",NA,"65253b77ca2f853bab081779","computer","Desktop or Laptop","Windows 10","Chrome 117.0.0.0","2560x1440","2560x1323",NA,NA,0,"BIQ (Charlotte)",3,"FGEHDICJBA","Passed AC2",NA,"Spreadsheet1",1,"BIQ","Screen 3","iz3the",3,"response","5",10814.476,11510.428,11514.588,10814.476,11510.428,11514.588,1,10814.476,700.112000000008,0,NA,"Rating Scale","Rating Scale",16,"object-67","BIQ",NA,"SUPPRF20648"
"14",1696935391654,"10/10/2023 10:56:31",1696938991654,1,"10/10/2023 12:56:31",146524,3,"task-gjqt",NA,32129525,9500529,NA,"complete",NA,"65253b77ca2f853bab081779","computer","Desktop or Laptop","Windows 10","Chrome 117.0.0.0","2560x1440","2560x1323",NA,NA,0,"BIQ (Charlotte)",3,"FGEHDICJBA","Passed AC2",NA,"Spreadsheet1",NA,"","","",NA,"5","END",NA,NA,NA,NA,NA,NA,0,NA,NA,NA,NA,"","",NA,"","",NA,"SUPPRF20648"
"1",1696936083726,"10/10/2023 11:08:03",1696939683726,1,"10/10/2023 13:08:03",146524,3,"task-gjqt",NA,32129915,9500616,NA,"complete",NA,"65253ded783624af1fcb11c5","computer","Desktop or Laptop","Mac OS 10.15.7","Chrome 116.0.0.0","1440x900","1440x815",NA,NA,0,"BIQ (Charlotte)",3,"GHFIEJDACB","Passed AC2",NA,"Spreadsheet1",NA,"","","",NA,"5","BEGIN",NA,NA,NA,NA,NA,NA,0,NA,NA,NA,NA,"","",NA,"","",NA,"SUPPRF43420"
"2",1696936151627,"10/10/2023 11:09:11",1696939751627,1,"10/10/2023 13:09:11",146524,3,"task-gjqt",NA,32129915,9500616,NA,"complete",NA,"65253ded783624af1fcb11c5","computer","Desktop or Laptop","Mac OS 10.15.7","Chrome 116.0.0.0","1440x900","1440x815",NA,NA,0,"BIQ (Charlotte)",3,"GHFIEJDACB","Passed AC2",NA,"Spreadsheet1",1,"BIQ","Screen 1","9dh6eq",1,"continue","",67924.9619999762,67917.349,67924.9619999762,67924.9619999762,67917.349,67924.9619999762,1,67924.9619999762,0,0,NA,"Click To Continue","Continue Button",23,"object-48","BIQ",NA,"SUPPRF43420"
"3",1696936151629,"10/10/2023 11:09:11",1696939751629,1,"10/10/2023 13:09:11",146524,3,"task-gjqt",NA,32129915,9500616,NA,"complete",NA,"65253ded783624af1fcb11c5","computer","Desktop or Laptop","Mac OS 10.15.7","Chrome 116.0.0.0","1440x900","1440x815",NA,NA,0,"BIQ (Charlotte)",3,"GHFIEJDACB","Passed AC2",NA,"Spreadsheet1",1,"BIQ","Screen 1","9dh6eq",1,"response","3",54367.152,67917.349,67927.8620000715,54367.152,67917.349,67927.8620000715,1,54367.152,13560.7100000715,0,NA,"Rating Scale","Rating Scale",3,"object-5","BIQ",NA,"SUPPRF43420"
"4",1696936151630,"10/10/2023 11:09:11",1696939751630,1,"10/10/2023 13:09:11",146524,3,"task-gjqt",NA,32129915,9500616,NA,"complete",NA,"65253ded783624af1fcb11c5","computer","Desktop or Laptop","Mac OS 10.15.7","Chrome 116.0.0.0","1440x900","1440x815",NA,NA,0,"BIQ (Charlotte)",3,"GHFIEJDACB","Passed AC2",NA,"Spreadsheet1",1,"BIQ","Screen 1","9dh6eq",1,"response","3",61150.953,67917.349,67928.1620000238,61150.953,67917.349,67928.1620000238,1,61150.953,6777.20900002385,0,NA,"Rating Scale","Rating Scale",10,"object-18","BIQ",NA,"SUPPRF43420"
"5",1696936151630,"10/10/2023 11:09:11",1696939751630,1,"10/10/2023 13:09:11",146524,3,"task-gjqt",NA,32129915,9500616,NA,"complete",NA,"65253ded783624af1fcb11c5","computer","Desktop or Laptop","Mac OS 10.15.7","Chrome 116.0.0.0","1440x900","1440x815",NA,NA,0,"BIQ (Charlotte)",3,"GHFIEJDACB","Passed AC2",NA,"Spreadsheet1",1,"BIQ","Screen 1","9dh6eq",1,"response","4",64034.171,67917.349,67928.4619999762,64034.171,67917.349,67928.4619999762,1,64034.171,3894.29099997617,0,NA,"Rating Scale","Rating Scale",17,"object-80","BIQ",NA,"SUPPRF43420"
"6",1696936167626,"10/10/2023 11:09:27",1696939767626,1,"10/10/2023 13:09:27",146524,3,"task-gjqt",NA,32129915,9500616,NA,"complete",NA,"65253ded783624af1fcb11c5","computer","Desktop or Laptop","Mac OS 10.15.7","Chrome 116.0.0.0","1440x900","1440x815",NA,NA,0,"BIQ (Charlotte)",3,"GHFIEJDACB","Passed AC2",NA,"Spreadsheet1",1,"BIQ","Screen 2","o21mwi",2,"continue","",16007.1129999762,16000.471,16007.1129999762,16007.1129999762,16000.471,16007.1129999762,1,16007.1129999762,0,0,NA,"Click To Continue","Continue Button",22,"object-50","BIQ",NA,"SUPPRF43420"
"7",1696936167629,"10/10/2023 11:09:27",1696939767629,1,"10/10/2023 13:09:27",146524,3,"task-gjqt",NA,32129915,9500616,NA,"complete",NA,"65253ded783624af1fcb11c5","computer","Desktop or Laptop","Mac OS 10.15.7","Chrome 116.0.0.0","1440x900","1440x815",NA,NA,0,"BIQ (Charlotte)",3,"GHFIEJDACB","Passed AC2",NA,"Spreadsheet1",1,"BIQ","Screen 2","o21mwi",2,"response","5",4900.38400000001,16000.471,16010.213,4900.38400000001,16000.471,16010.213,1,4900.38400000001,11109.829,0,NA,"Rating Scale","Rating Scale",2,"object-259","BIQ",NA,"SUPPRF43420"
"8",1696936167629,"10/10/2023 11:09:27",1696939767629,1,"10/10/2023 13:09:27",146524,3,"task-gjqt",NA,32129915,9500616,NA,"complete",NA,"65253ded783624af1fcb11c5","computer","Desktop or Laptop","Mac OS 10.15.7","Chrome 116.0.0.0","1440x900","1440x815",NA,NA,0,"BIQ (Charlotte)",3,"GHFIEJDACB","Passed AC2",NA,"Spreadsheet1",1,"BIQ","Screen 2","o21mwi",2,"response","4",8250.25,16000.471,16010.713,8250.25,16000.471,16010.713,1,8250.25,7760.463,0,NA,"Rating Scale","Rating Scale",9,"object-36","BIQ",NA,"SUPPRF43420"
"9",1696936167629,"10/10/2023 11:09:27",1696939767629,1,"10/10/2023 13:09:27",146524,3,"task-gjqt",NA,32129915,9500616,NA,"complete",NA,"65253ded783624af1fcb11c5","computer","Desktop or Laptop","Mac OS 10.15.7","Chrome 116.0.0.0","1440x900","1440x815",NA,NA,0,"BIQ (Charlotte)",3,"GHFIEJDACB","Passed AC2",NA,"Spreadsheet1",1,"BIQ","Screen 2","o21mwi",2,"response","6",15117.173,16000.471,16011.1129999762,15117.173,16000.471,16011.1129999762,1,15117.173,893.939999976152,0,NA,"Rating Scale","Rating Scale",16,"object-86","BIQ",NA,"SUPPRF43420"
"10",1696936184076,"10/10/2023 11:09:44",1696939784076,1,"10/10/2023 13:09:44",146524,3,"task-gjqt",NA,32129915,9500616,NA,"complete",NA,"65253ded783624af1fcb11c5","computer","Desktop or Laptop","Mac OS 10.15.7","Chrome 116.0.0.0","1440x900","1440x815",NA,NA,0,"BIQ (Charlotte)",3,"GHFIEJDACB","Passed AC2",NA,"Spreadsheet1",1,"BIQ","Screen 3","iz3the",3,"continue","",16457.742,16450.497,16457.742,16457.742,16450.497,16457.742,1,16457.742,0,0,NA,"Click To Continue","Continue Button",22,"object-73","BIQ",NA,"SUPPRF43420"
"11",1696936184079,"10/10/2023 11:09:44",1696939784079,1,"10/10/2023 13:09:44",146524,3,"task-gjqt",NA,32129915,9500616,NA,"complete",NA,"65253ded783624af1fcb11c5","computer","Desktop or Laptop","Mac OS 10.15.7","Chrome 116.0.0.0","1440x900","1440x815",NA,NA,0,"BIQ (Charlotte)",3,"GHFIEJDACB","Passed AC2",NA,"Spreadsheet1",1,"BIQ","Screen 3","iz3the",3,"response","2",5667.07399999999,16450.497,16460.1419999762,5667.07399999999,16450.497,16460.1419999762,1,5667.07399999999,10793.0679999762,0,NA,"Rating Scale","Rating Scale",2,"object-53","BIQ",NA,"SUPPRF43420"
"12",1696936184079,"10/10/2023 11:09:44",1696939784079,1,"10/10/2023 13:09:44",146524,3,"task-gjqt",NA,32129915,9500616,NA,"complete",NA,"65253ded783624af1fcb11c5","computer","Desktop or Laptop","Mac OS 10.15.7","Chrome 116.0.0.0","1440x900","1440x815",NA,NA,0,"BIQ (Charlotte)",3,"GHFIEJDACB","Passed AC2",NA,"Spreadsheet1",1,"BIQ","Screen 3","iz3the",3,"response","5",12483.468,16450.497,16460.6419999762,12483.468,16450.497,16460.6419999762,1,12483.468,3977.17399997616,0,NA,"Rating Scale","Rating Scale",9,"object-60","BIQ",NA,"SUPPRF43420"
"13",1696936184079,"10/10/2023 11:09:44",1696939784079,1,"10/10/2023 13:09:44",146524,3,"task-gjqt",NA,32129915,9500616,NA,"complete",NA,"65253ded783624af1fcb11c5","computer","Desktop or Laptop","Mac OS 10.15.7","Chrome 116.0.0.0","1440x900","1440x815",NA,NA,0,"BIQ (Charlotte)",3,"GHFIEJDACB","Passed AC2",NA,"Spreadsheet1",1,"BIQ","Screen 3","iz3the",3,"response","4",15700.527,16450.497,16460.9420000477,15700.527,16450.497,16460.9420000477,1,15700.527,760.41500004768,0,NA,"Rating Scale","Rating Scale",16,"object-67","BIQ",NA,"SUPPRF43420"
"14",1696936184081,"10/10/2023 11:09:44",1696939784081,1,"10/10/2023 13:09:44",146524,3,"task-gjqt",NA,32129915,9500616,NA,"complete",NA,"65253ded783624af1fcb11c5","computer","Desktop or Laptop","Mac OS 10.15.7","Chrome 116.0.0.0","1440x900","1440x815",NA,NA,0,"BIQ (Charlotte)",3,"GHFIEJDACB","Passed AC2",NA,"Spreadsheet1",NA,"","","",NA,"5","END",NA,NA,NA,NA,NA,NA,0,NA,NA,NA,NA,"","",NA,"","",NA,"SUPPRF43420"
"1",1696937691363,"10/10/2023 11:34:51",1696941291363,1,"10/10/2023 13:34:51",146524,3,"task-gjqt",NA,32130783,9500967,NA,"complete",NA,"65254394162cd2b6b1bf695e","computer","Desktop or Laptop","Mac OS 10.15.7","Chrome 117.0.0.0","1440x900","1440x783",NA,NA,0,"BIQ (Charlotte)",3,"IJHAGBFCED","Passed AC2",NA,"Spreadsheet1",NA,"","","",NA,"5","BEGIN",NA,NA,NA,NA,NA,NA,0,NA,NA,NA,NA,"","",NA,"","",NA,"SUPPRF54374"
"2",1696937715753,"10/10/2023 11:35:15",1696941315753,1,"10/10/2023 13:35:15",146524,3,"task-gjqt",NA,32130783,9500967,NA,"complete",NA,"65254394162cd2b6b1bf695e","computer","Desktop or Laptop","Mac OS 10.15.7","Chrome 117.0.0.0","1440x900","1440x783",NA,NA,0,"BIQ (Charlotte)",3,"IJHAGBFCED","Passed AC2",NA,"Spreadsheet1",1,"BIQ","Screen 1","9dh6eq",1,"continue","",24402.056,24385.389,24402.056,24402.056,24385.389,24402.056,1,24402.056,0,0,NA,"Click To Continue","Continue Button",23,"object-48","BIQ",NA,"SUPPRF54374"
"3",1696937715757,"10/10/2023 11:35:15",1696941315757,1,"10/10/2023 13:35:15",146524,3,"task-gjqt",NA,32130783,9500967,NA,"complete",NA,"65254394162cd2b6b1bf695e","computer","Desktop or Laptop","Mac OS 10.15.7","Chrome 117.0.0.0","1440x900","1440x783",NA,NA,0,"BIQ (Charlotte)",3,"IJHAGBFCED","Passed AC2",NA,"Spreadsheet1",1,"BIQ","Screen 1","9dh6eq",1,"response","6",5300.671,24385.389,24402.056,5300.671,24385.389,24402.056,1,5300.671,19101.385,0,NA,"Rating Scale","Rating Scale",3,"object-5","BIQ",NA,"SUPPRF54374"
"4",1696937715757,"10/10/2023 11:35:15",1696941315757,1,"10/10/2023 13:35:15",146524,3,"task-gjqt",NA,32130783,9500967,NA,"complete",NA,"65254394162cd2b6b1bf695e","computer","Desktop or Laptop","Mac OS 10.15.7","Chrome 117.0.0.0","1440x900","1440x783",NA,NA,0,"BIQ (Charlotte)",3,"IJHAGBFCED","Passed AC2",NA,"Spreadsheet1",1,"BIQ","Screen 1","9dh6eq",1,"response","4",10550.776,24385.389,24402.056,10550.776,24385.389,24402.056,1,10550.776,13851.28,0,NA,"Rating Scale","Rating Scale",10,"object-18","BIQ",NA,"SUPPRF54374"
"5",1696937715757,"10/10/2023 11:35:15",1696941315757,1,"10/10/2023 13:35:15",146524,3,"task-gjqt",NA,32130783,9500967,NA,"complete",NA,"65254394162cd2b6b1bf695e","computer","Desktop or Laptop","Mac OS 10.15.7","Chrome 117.0.0.0","1440x900","1440x783",NA,NA,0,"BIQ (Charlotte)",3,"IJHAGBFCED","Passed AC2",NA,"Spreadsheet1",1,"BIQ","Screen 1","9dh6eq",1,"response","2",17084.713,24385.389,24402.056,17084.713,24385.389,24402.056,1,17084.713,7317.343,0,NA,"Rating Scale","Rating Scale",17,"object-80","BIQ",NA,"SUPPRF54374"
"6",1696937736846,"10/10/2023 11:35:36",1696941336846,1,"10/10/2023 13:35:36",146524,3,"task-gjqt",NA,32130783,9500967,NA,"complete",NA,"65254394162cd2b6b1bf695e","computer","Desktop or Laptop","Mac OS 10.15.7","Chrome 117.0.0.0","1440x900","1440x783",NA,NA,0,"BIQ (Charlotte)",3,"IJHAGBFCED","Passed AC2",NA,"Spreadsheet1",1,"BIQ","Screen 2","o21mwi",2,"continue","",21112.4639999989,21101.313,21112.4639999989,21112.4639999989,21101.313,21112.4639999989,1,21112.4639999989,0,0,NA,"Click To Continue","Continue Button",22,"object-50","BIQ",NA,"SUPPRF54374"
"7",1696937736852,"10/10/2023 11:35:36",1696941336852,1,"10/10/2023 13:35:36",146524,3,"task-gjqt",NA,32130783,9500967,NA,"complete",NA,"65254394162cd2b6b1bf695e","computer","Desktop or Laptop","Mac OS 10.15.7","Chrome 117.0.0.0","1440x900","1440x783",NA,NA,0,"BIQ (Charlotte)",3,"IJHAGBFCED","Passed AC2",NA,"Spreadsheet1",1,"BIQ","Screen 2","o21mwi",2,"response","8",7000.54,21101.313,21117.5639999985,7000.54,21101.313,21117.5639999985,1,7000.54,14117.0239999985,0,NA,"Rating Scale","Rating Scale",2,"object-259","BIQ",NA,"SUPPRF54374"
"8",1696937736852,"10/10/2023 11:35:36",1696941336852,1,"10/10/2023 13:35:36",146524,3,"task-gjqt",NA,32130783,9500967,NA,"complete",NA,"65254394162cd2b6b1bf695e","computer","Desktop or Laptop","Mac OS 10.15.7","Chrome 117.0.0.0","1440x900","1440x783",NA,NA,0,"BIQ (Charlotte)",3,"IJHAGBFCED","Passed AC2",NA,"Spreadsheet1",1,"BIQ","Screen 2","o21mwi",2,"response","2",8083.895,21101.313,21117.98,8083.895,21101.313,21117.98,1,8083.895,13034.085,0,NA,"Rating Scale","Rating Scale",9,"object-36","BIQ",NA,"SUPPRF54374"
"9",1696937736853,"10/10/2023 11:35:36",1696941336853,1,"10/10/2023 13:35:36",146524,3,"task-gjqt",NA,32130783,9500967,NA,"complete",NA,"65254394162cd2b6b1bf695e","computer","Desktop or Laptop","Mac OS 10.15.7","Chrome 117.0.0.0","1440x900","1440x783",NA,NA,0,"BIQ (Charlotte)",3,"IJHAGBFCED","Passed AC2",NA,"Spreadsheet1",1,"BIQ","Screen 2","o21mwi",2,"response","2",15417.375,21101.313,21117.98,15417.375,21101.313,21117.98,1,15417.375,5700.60499999999,0,NA,"Rating Scale","Rating Scale",16,"object-86","BIQ",NA,"SUPPRF54374"
"10",1696937754951,"10/10/2023 11:35:54",1696941354951,1,"10/10/2023 13:35:54",146524,3,"task-gjqt",NA,32130783,9500967,NA,"complete",NA,"65254394162cd2b6b1bf695e","computer","Desktop or Laptop","Mac OS 10.15.7","Chrome 117.0.0.0","1440x900","1440x783",NA,NA,0,"BIQ (Charlotte)",3,"IJHAGBFCED","Passed AC2",NA,"Spreadsheet1",1,"BIQ","Screen 3","iz3the",3,"continue","",18114.9509999996,18101.369,18114.9509999996,18114.9509999996,18101.369,18114.9509999996,1,18114.9509999996,0,0,NA,"Click To Continue","Continue Button",22,"object-73","BIQ",NA,"SUPPRF54374"
"11",1696937754957,"10/10/2023 11:35:54",1696941354957,1,"10/10/2023 13:35:54",146524,3,"task-gjqt",NA,32130783,9500967,NA,"complete",NA,"65254394162cd2b6b1bf695e","computer","Desktop or Laptop","Mac OS 10.15.7","Chrome 117.0.0.0","1440x900","1440x783",NA,NA,0,"BIQ (Charlotte)",3,"IJHAGBFCED","Passed AC2",NA,"Spreadsheet1",1,"BIQ","Screen 3","iz3the",3,"response","1",9250.705,18101.369,18118.036,9250.705,18101.369,18118.036,1,9250.705,8867.33099999999,0,NA,"Rating Scale","Rating Scale",2,"object-53","BIQ",NA,"SUPPRF54374"
"12",1696937754958,"10/10/2023 11:35:54",1696941354958,1,"10/10/2023 13:35:54",146524,3,"task-gjqt",NA,32130783,9500967,NA,"complete",NA,"65254394162cd2b6b1bf695e","computer","Desktop or Laptop","Mac OS 10.15.7","Chrome 117.0.0.0","1440x900","1440x783",NA,NA,0,"BIQ (Charlotte)",3,"IJHAGBFCED","Passed AC2",NA,"Spreadsheet1",1,"BIQ","Screen 3","iz3the",3,"response","1",10700.734,18101.369,18118.036,10700.734,18101.369,18118.036,1,10700.734,7417.30199999999,0,NA,"Rating Scale","Rating Scale",9,"object-60","BIQ",NA,"SUPPRF54374"
"13",1696937754958,"10/10/2023 11:35:54",1696941354958,1,"10/10/2023 13:35:54",146524,3,"task-gjqt",NA,32130783,9500967,NA,"complete",NA,"65254394162cd2b6b1bf695e","computer","Desktop or Laptop","Mac OS 10.15.7","Chrome 117.0.0.0","1440x900","1440x783",NA,NA,0,"BIQ (Charlotte)",3,"IJHAGBFCED","Passed AC2",NA,"Spreadsheet1",1,"BIQ","Screen 3","iz3the",3,"response","1",12517.437,18101.369,18118.036,12517.437,18101.369,18118.036,1,12517.437,5600.59899999999,0,NA,"Rating Scale","Rating Scale",16,"object-67","BIQ",NA,"SUPPRF54374"
"14",1696937754964,"10/10/2023 11:35:54",1696941354964,1,"10/10/2023 13:35:54",146524,3,"task-gjqt",NA,32130783,9500967,NA,"complete",NA,"65254394162cd2b6b1bf695e","computer","Desktop or Laptop","Mac OS 10.15.7","Chrome 117.0.0.0","1440x900","1440x783",NA,NA,0,"BIQ (Charlotte)",3,"IJHAGBFCED","Passed AC2",NA,"Spreadsheet1",NA,"","","",NA,"5","END",NA,NA,NA,NA,NA,NA,0,NA,NA,NA,NA,"","",NA,"","",NA,"SUPPRF54374"
"1",1696966893818,"10/10/2023 19:41:33",1696941693818,-7,"10/10/2023 05:41:33",146524,3,"task-gjqt",NA,32131038,9500890,NA,"complete",NA,"6525413e21cee3583ea1944f","computer","Desktop or Laptop","Windows 10","Edge 117.0.2045.60","1366x768","1366x768",NA,NA,0,"BIQ (Charlotte)",3,"HIGJFAEBDC","Passed AC2",NA,"Spreadsheet1",NA,"","","",NA,"5","BEGIN",NA,NA,NA,NA,NA,NA,0,NA,NA,NA,NA,"","",NA,"","",NA,"SUPPRF62013"
"2",1696967012869,"10/10/2023 19:43:32",1696941812869,-7,"10/10/2023 05:43:32",146524,3,"task-gjqt",NA,32131038,9500890,NA,"complete",NA,"6525413e21cee3583ea1944f","computer","Desktop or Laptop","Windows 10","Edge 117.0.2045.60","1366x768","1366x768",NA,NA,0,"BIQ (Charlotte)",3,"HIGJFAEBDC","Passed AC2",NA,"Spreadsheet1",1,"BIQ","Screen 1","9dh6eq",1,"continue","",119060.417,119043.966,119060.417,119060.417,119043.966,119060.417,1,119060.417,0,0,NA,"Click To Continue","Continue Button",23,"object-48","BIQ",NA,"SUPPRF62013"
"3",1696967012878,"10/10/2023 19:43:32",1696941812878,-7,"10/10/2023 05:43:32",146524,3,"task-gjqt",NA,32131038,9500890,NA,"complete",NA,"6525413e21cee3583ea1944f","computer","Desktop or Laptop","Windows 10","Edge 117.0.2045.60","1366x768","1366x768",NA,NA,0,"BIQ (Charlotte)",3,"HIGJFAEBDC","Passed AC2",NA,"Spreadsheet1",1,"BIQ","Screen 1","9dh6eq",1,"response","5",94145.416,119043.966,119060.417,94145.416,119043.966,119060.417,1,94145.416,24915.001,0,NA,"Rating Scale","Rating Scale",3,"object-5","BIQ",NA,"SUPPRF62013"
"4",1696967012880,"10/10/2023 19:43:32",1696941812880,-7,"10/10/2023 05:43:32",146524,3,"task-gjqt",NA,32131038,9500890,NA,"complete",NA,"6525413e21cee3583ea1944f","computer","Desktop or Laptop","Windows 10","Edge 117.0.2045.60","1366x768","1366x768",NA,NA,0,"BIQ (Charlotte)",3,"HIGJFAEBDC","Passed AC2",NA,"Spreadsheet1",1,"BIQ","Screen 1","9dh6eq",1,"response","6",112494.258,119043.966,119060.417,112494.258,119043.966,119060.417,1,112494.258,6566.159,0,NA,"Rating Scale","Rating Scale",10,"object-18","BIQ",NA,"SUPPRF62013"
"5",1696967012882,"10/10/2023 19:43:32",1696941812882,-7,"10/10/2023 05:43:32",146524,3,"task-gjqt",NA,32131038,9500890,NA,"complete",NA,"6525413e21cee3583ea1944f","computer","Desktop or Laptop","Windows 10","Edge 117.0.2045.60","1366x768","1366x768",NA,NA,0,"BIQ (Charlotte)",3,"HIGJFAEBDC","Passed AC2",NA,"Spreadsheet1",1,"BIQ","Screen 1","9dh6eq",1,"response","0",117844.245,119043.966,119060.417,117844.245,119043.966,119060.417,1,117844.245,1216.17199999999,0,NA,"Rating Scale","Rating Scale",17,"object-80","BIQ",NA,"SUPPRF62013"
"6",1696967037236,"10/10/2023 19:43:57",1696941837236,-7,"10/10/2023 05:43:57",146524,3,"task-gjqt",NA,32131038,9500890,NA,"complete",NA,"6525413e21cee3583ea1944f","computer","Desktop or Laptop","Windows 10","Edge 117.0.2045.60","1366x768","1366x768",NA,NA,0,"BIQ (Charlotte)",3,"HIGJFAEBDC","Passed AC2",NA,"Spreadsheet1",1,"BIQ","Screen 2","o21mwi",2,"continue","",24394.626,24382.336,24394.626,24394.626,24382.336,24394.626,1,24394.626,0,0,NA,"Click To Continue","Continue Button",22,"object-50","BIQ",NA,"SUPPRF62013"
"7",1696967037240,"10/10/2023 19:43:57",1696941837240,-7,"10/10/2023 05:43:57",146524,3,"task-gjqt",NA,32131038,9500890,NA,"complete",NA,"6525413e21cee3583ea1944f","computer","Desktop or Laptop","Windows 10","Edge 117.0.2045.60","1366x768","1366x768",NA,NA,0,"BIQ (Charlotte)",3,"HIGJFAEBDC","Passed AC2",NA,"Spreadsheet1",1,"BIQ","Screen 2","o21mwi",2,"response","4",3866.47900000001,24382.336,24398.3260000179,3866.47900000001,24382.336,24398.3260000179,1,3866.47900000001,20531.8470000179,0,NA,"Rating Scale","Rating Scale",2,"object-259","BIQ",NA,"SUPPRF62013"
"8",1696967037241,"10/10/2023 19:43:57",1696941837241,-7,"10/10/2023 05:43:57",146524,3,"task-gjqt",NA,32131038,9500890,NA,"complete",NA,"6525413e21cee3583ea1944f","computer","Desktop or Laptop","Windows 10","Edge 117.0.2045.60","1366x768","1366x768",NA,NA,0,"BIQ (Charlotte)",3,"HIGJFAEBDC","Passed AC2",NA,"Spreadsheet1",1,"BIQ","Screen 2","o21mwi",2,"response","2",13749.311,24382.336,24399,13749.311,24382.336,24399,1,13749.311,10649.689,0,NA,"Rating Scale","Rating Scale",9,"object-36","BIQ",NA,"SUPPRF62013"
"9",1696967037241,"10/10/2023 19:43:57",1696941837241,-7,"10/10/2023 05:43:57",146524,3,"task-gjqt",NA,32131038,9500890,NA,"complete",NA,"6525413e21cee3583ea1944f","computer","Desktop or Laptop","Windows 10","Edge 117.0.2045.60","1366x768","1366x768",NA,NA,0,"BIQ (Charlotte)",3,"HIGJFAEBDC","Passed AC2",NA,"Spreadsheet1",1,"BIQ","Screen 2","o21mwi",2,"response","2",21032.269,24382.336,24399,21032.269,24382.336,24399,1,21032.269,3366.73099999997,0,NA,"Rating Scale","Rating Scale",16,"object-86","BIQ",NA,"SUPPRF62013"
"10",1696967054343,"10/10/2023 19:44:14",1696941854343,-7,"10/10/2023 05:44:14",146524,3,"task-gjqt",NA,32131038,9500890,NA,"complete",NA,"6525413e21cee3583ea1944f","computer","Desktop or Laptop","Windows 10","Edge 117.0.2045.60","1366x768","1366x768",NA,NA,0,"BIQ (Charlotte)",3,"HIGJFAEBDC","Passed AC2",NA,"Spreadsheet1",1,"BIQ","Screen 3","iz3the",3,"continue","",17115.458,17098.978,17115.458,17115.458,17098.978,17115.458,1,17115.458,0,0,NA,"Click To Continue","Continue Button",22,"object-73","BIQ",NA,"SUPPRF62013"
"11",1696967054352,"10/10/2023 19:44:14",1696941854352,-7,"10/10/2023 05:44:14",146524,3,"task-gjqt",NA,32131038,9500890,NA,"complete",NA,"6525413e21cee3583ea1944f","computer","Desktop or Laptop","Windows 10","Edge 117.0.2045.60","1366x768","1366x768",NA,NA,0,"BIQ (Charlotte)",3,"HIGJFAEBDC","Passed AC2",NA,"Spreadsheet1",1,"BIQ","Screen 3","iz3the",3,"response","0",10099.238,17098.978,17115.458,10099.238,17098.978,17115.458,1,10099.238,7016.21999999997,0,NA,"Rating Scale","Rating Scale",2,"object-53","BIQ",NA,"SUPPRF62013"
"12",1696967054356,"10/10/2023 19:44:14",1696941854356,-7,"10/10/2023 05:44:14",146524,3,"task-gjqt",NA,32131038,9500890,NA,"complete",NA,"6525413e21cee3583ea1944f","computer","Desktop or Laptop","Windows 10","Edge 117.0.2045.60","1366x768","1366x768",NA,NA,0,"BIQ (Charlotte)",3,"HIGJFAEBDC","Passed AC2",NA,"Spreadsheet1",1,"BIQ","Screen 3","iz3the",3,"response","4",11865.94,17098.978,17115.458,11865.94,17098.978,17115.458,1,11865.94,5249.51799999998,0,NA,"Rating Scale","Rating Scale",9,"object-60","BIQ",NA,"SUPPRF62013"
"13",1696967054359,"10/10/2023 19:44:14",1696941854359,-7,"10/10/2023 05:44:14",146524,3,"task-gjqt",NA,32131038,9500890,NA,"complete",NA,"6525413e21cee3583ea1944f","computer","Desktop or Laptop","Windows 10","Edge 117.0.2045.60","1366x768","1366x768",NA,NA,0,"BIQ (Charlotte)",3,"HIGJFAEBDC","Passed AC2",NA,"Spreadsheet1",1,"BIQ","Screen 3","iz3the",3,"response","1",15982.559,17098.978,17115.458,15982.559,17098.978,17115.458,1,15982.559,1132.89899999998,0,NA,"Rating Scale","Rating Scale",16,"object-67","BIQ",NA,"SUPPRF62013"
"14",1696967054377,"10/10/2023 19:44:14",1696941854377,-7,"10/10/2023 05:44:14",146524,3,"task-gjqt",NA,32131038,9500890,NA,"complete",NA,"6525413e21cee3583ea1944f","computer","Desktop or Laptop","Windows 10","Edge 117.0.2045.60","1366x768","1366x768",NA,NA,0,"BIQ (Charlotte)",3,"HIGJFAEBDC","Passed AC2",NA,"Spreadsheet1",NA,"","","",NA,"5","END",NA,NA,NA,NA,NA,NA,0,NA,NA,NA,NA,"","",NA,"","",NA,"SUPPRF62013"
"1",1696939444203,"10/10/2023 12:04:04",1696943044203,1,"10/10/2023 14:04:04",146524,3,"task-gjqt",NA,32131832,9501291,NA,"complete",NA,"652548d7631d9ec0b489b032","computer","Desktop or Laptop","Windows 10","Firefox 118.0","2560x1440","2560x1279",NA,NA,0,"BIQ (Charlotte)",3,"JAIBHCGDFE","Passed AC2",NA,"Spreadsheet1",NA,"","","",NA,"5","BEGIN",NA,NA,NA,NA,NA,NA,0,NA,NA,NA,NA,"","",NA,"","",NA,"SUPPRF96180"
"2",1696939528465,"10/10/2023 12:05:28",1696943128465,1,"10/10/2023 14:05:28",146524,3,"task-gjqt",NA,32131832,9501291,NA,"complete",NA,"652548d7631d9ec0b489b032","computer","Desktop or Laptop","Windows 10","Firefox 118.0","2560x1440","2560x1279",NA,NA,0,"BIQ (Charlotte)",3,"JAIBHCGDFE","Passed AC2",NA,"Spreadsheet1",1,"BIQ","Screen 1","9dh6eq",1,"continue","",84263.84,84247.16,84263.84,84263.84,84247.16,84263.84,1,84263.84,0,0,NA,"Click To Continue","Continue Button",23,"object-48","BIQ",NA,"SUPPRF96180"
"3",1696939528472,"10/10/2023 12:05:28",1696943128472,1,"10/10/2023 14:05:28",146524,3,"task-gjqt",NA,32131832,9501291,NA,"complete",NA,"652548d7631d9ec0b489b032","computer","Desktop or Laptop","Windows 10","Firefox 118.0","2560x1440","2560x1279",NA,NA,0,"BIQ (Charlotte)",3,"JAIBHCGDFE","Passed AC2",NA,"Spreadsheet1",1,"BIQ","Screen 1","9dh6eq",1,"response","7",64666.14,84247.16,84263.84,64666.14,84247.16,84263.84,1,64666.14,19597.7,0,NA,"Rating Scale","Rating Scale",3,"object-5","BIQ",NA,"SUPPRF96180"
"4",1696939528472,"10/10/2023 12:05:28",1696943128472,1,"10/10/2023 14:05:28",146524,3,"task-gjqt",NA,32131832,9501291,NA,"complete",NA,"652548d7631d9ec0b489b032","computer","Desktop or Laptop","Windows 10","Firefox 118.0","2560x1440","2560x1279",NA,NA,0,"BIQ (Charlotte)",3,"JAIBHCGDFE","Passed AC2",NA,"Spreadsheet1",1,"BIQ","Screen 1","9dh6eq",1,"response","4",31355.56,84247.16,84263.84,31355.56,84247.16,84263.84,1,31355.56,52908.28,0,NA,"Rating Scale","Rating Scale",10,"object-18","BIQ",NA,"SUPPRF96180"
"5",1696939528473,"10/10/2023 12:05:28",1696943128473,1,"10/10/2023 14:05:28",146524,3,"task-gjqt",NA,32131832,9501291,NA,"complete",NA,"652548d7631d9ec0b489b032","computer","Desktop or Laptop","Windows 10","Firefox 118.0","2560x1440","2560x1279",NA,NA,0,"BIQ (Charlotte)",3,"JAIBHCGDFE","Passed AC2",NA,"Spreadsheet1",1,"BIQ","Screen 1","9dh6eq",1,"response","4",82779.42,84247.16,84263.84,82779.42,84247.16,84263.84,1,82779.42,1484.41999999998,0,NA,"Rating Scale","Rating Scale",17,"object-80","BIQ",NA,"SUPPRF96180"
"6",1696939548386,"10/10/2023 12:05:48",1696943148386,1,"10/10/2023 14:05:48",146524,3,"task-gjqt",NA,32131832,9501291,NA,"complete",NA,"652548d7631d9ec0b489b032","computer","Desktop or Laptop","Windows 10","Firefox 118.0","2560x1440","2560x1279",NA,NA,0,"BIQ (Charlotte)",3,"JAIBHCGDFE","Passed AC2",NA,"Spreadsheet1",1,"BIQ","Screen 2","o21mwi",2,"continue","",19938.44,19932.94,19938.44,19938.44,19932.94,19938.44,1,19938.44,0,0,NA,"Click To Continue","Continue Button",22,"object-50","BIQ",NA,"SUPPRF96180"
"7",1696939548388,"10/10/2023 12:05:48",1696943148388,1,"10/10/2023 14:05:48",146524,3,"task-gjqt",NA,32131832,9501291,NA,"complete",NA,"652548d7631d9ec0b489b032","computer","Desktop or Laptop","Windows 10","Firefox 118.0","2560x1440","2560x1279",NA,NA,0,"BIQ (Charlotte)",3,"JAIBHCGDFE","Passed AC2",NA,"Spreadsheet1",1,"BIQ","Screen 2","o21mwi",2,"response","6",4770.18000000001,19932.94,19941.44,4770.18000000001,19932.94,19941.44,1,4770.18000000001,15171.26,0,NA,"Rating Scale","Rating Scale",2,"object-259","BIQ",NA,"SUPPRF96180"
"8",1696939548389,"10/10/2023 12:05:48",1696943148389,1,"10/10/2023 14:05:48",146524,3,"task-gjqt",NA,32131832,9501291,NA,"complete",NA,"652548d7631d9ec0b489b032","computer","Desktop or Laptop","Windows 10","Firefox 118.0","2560x1440","2560x1279",NA,NA,0,"BIQ (Charlotte)",3,"JAIBHCGDFE","Passed AC2",NA,"Spreadsheet1",1,"BIQ","Screen 2","o21mwi",2,"response","0",9441.90000000001,19932.94,19942.44,9441.90000000001,19932.94,19942.44,1,9441.90000000001,10500.54,0,NA,"Rating Scale","Rating Scale",9,"object-36","BIQ",NA,"SUPPRF96180"
"9",1696939548389,"10/10/2023 12:05:48",1696943148389,1,"10/10/2023 14:05:48",146524,3,"task-gjqt",NA,32131832,9501291,NA,"complete",NA,"652548d7631d9ec0b489b032","computer","Desktop or Laptop","Windows 10","Firefox 118.0","2560x1440","2560x1279",NA,NA,0,"BIQ (Charlotte)",3,"JAIBHCGDFE","Passed AC2",NA,"Spreadsheet1",1,"BIQ","Screen 2","o21mwi",2,"response","4",19365.86,19932.94,19942.44,19365.86,19932.94,19942.44,1,19365.86,576.580000000002,0,NA,"Rating Scale","Rating Scale",16,"object-86","BIQ",NA,"SUPPRF96180"
"10",1696939615916,"10/10/2023 12:06:55",1696943215916,1,"10/10/2023 14:06:55",146524,3,"task-gjqt",NA,32131832,9501291,NA,"complete",NA,"652548d7631d9ec0b489b032","computer","Desktop or Laptop","Windows 10","Firefox 118.0","2560x1440","2560x1279",NA,NA,0,"BIQ (Charlotte)",3,"JAIBHCGDFE","Passed AC2",NA,"Spreadsheet1",1,"BIQ","Screen 3","iz3the",3,"continue","",67536.5,67520,67536.5,67536.5,67520,67536.5,1,67536.5,0,0,NA,"Click To Continue","Continue Button",22,"object-73","BIQ",NA,"SUPPRF96180"
"11",1696939615919,"10/10/2023 12:06:55",1696943215919,1,"10/10/2023 14:06:55",146524,3,"task-gjqt",NA,32131832,9501291,NA,"complete",NA,"652548d7631d9ec0b489b032","computer","Desktop or Laptop","Windows 10","Firefox 118.0","2560x1440","2560x1279",NA,NA,0,"BIQ (Charlotte)",3,"JAIBHCGDFE","Passed AC2",NA,"Spreadsheet1",1,"BIQ","Screen 3","iz3the",3,"response","0",66969.6,67520,67536.68,66969.6,67520,67536.68,1,66969.6,567.079999999987,0,NA,"Rating Scale","Rating Scale",2,"object-53","BIQ",NA,"SUPPRF96180"
"12",1696939615919,"10/10/2023 12:06:55",1696943215919,1,"10/10/2023 14:06:55",146524,3,"task-gjqt",NA,32131832,9501291,NA,"complete",NA,"652548d7631d9ec0b489b032","computer","Desktop or Laptop","Windows 10","Firefox 118.0","2560x1440","2560x1279",NA,NA,0,"BIQ (Charlotte)",3,"JAIBHCGDFE","Passed AC2",NA,"Spreadsheet1",1,"BIQ","Screen 3","iz3the",3,"response","0",64868.06,67520,67536.68,64868.06,67520,67536.68,1,64868.06,2668.62,0,NA,"Rating Scale","Rating Scale",9,"object-60","BIQ",NA,"SUPPRF96180"
"13",1696939615920,"10/10/2023 12:06:55",1696943215920,1,"10/10/2023 14:06:55",146524,3,"task-gjqt",NA,32131832,9501291,NA,"complete",NA,"652548d7631d9ec0b489b032","computer","Desktop or Laptop","Windows 10","Firefox 118.0","2560x1440","2560x1279",NA,NA,0,"BIQ (Charlotte)",3,"JAIBHCGDFE","Passed AC2",NA,"Spreadsheet1",1,"BIQ","Screen 3","iz3the",3,"response","2",55377.76,67520,67536.68,55377.76,67520,67536.68,1,55377.76,12158.92,0,NA,"Rating Scale","Rating Scale",16,"object-67","BIQ",NA,"SUPPRF96180"
"14",1696939615920,"10/10/2023 12:06:55",1696943215920,1,"10/10/2023 14:06:55",146524,3,"task-gjqt",NA,32131832,9501291,NA,"complete",NA,"652548d7631d9ec0b489b032","computer","Desktop or Laptop","Windows 10","Firefox 118.0","2560x1440","2560x1279",NA,NA,0,"BIQ (Charlotte)",3,"JAIBHCGDFE","Passed AC2",NA,"Spreadsheet1",NA,"","","",NA,"5","END",NA,NA,NA,NA,NA,NA,0,NA,NA,NA,NA,"","",NA,"","",NA,"SUPPRF96180"
"1",1696940272675,"10/10/2023 12:17:52",1696943872675,1,"10/10/2023 14:17:52",146524,3,"task-gjqt",NA,32132345,9501483,NA,"complete",NA,"65254d7dd9cdb856b589b0b6","computer","Desktop or Laptop","Windows 10","Edge 117.0.2045.60","1920x1080","1872x966",NA,NA,0,"BIQ (Charlotte)",3,"ABJCIDHEGF","Passed AC2",NA,"Spreadsheet1",NA,"","","",NA,"5","BEGIN",NA,NA,NA,NA,NA,NA,0,NA,NA,NA,NA,"","",NA,"","",NA,"SUPPRF30203"
"2",1696940279782,"10/10/2023 12:17:59",1696943879782,1,"10/10/2023 14:17:59",146524,3,"task-gjqt",NA,32132345,9501483,NA,"complete",NA,"65254d7dd9cdb856b589b0b6","computer","Desktop or Laptop","Windows 10","Edge 117.0.2045.60","1920x1080","1872x966",NA,NA,0,"BIQ (Charlotte)",3,"ABJCIDHEGF","Passed AC2",NA,"Spreadsheet1",1,"BIQ","Screen 1","9dh6eq",1,"continue","",7116.14299999776,7107.392,7116.14299999776,7116.14299999776,7107.392,7116.14299999776,1,7116.14299999776,0,0,NA,"Click To Continue","Continue Button",23,"object-48","BIQ",NA,"SUPPRF30203"
"3",1696940279782,"10/10/2023 12:17:59",1696943879782,1,"10/10/2023 14:17:59",146524,3,"task-gjqt",NA,32132345,9501483,NA,"complete",NA,"65254d7dd9cdb856b589b0b6","computer","Desktop or Laptop","Windows 10","Edge 117.0.2045.60","1920x1080","1872x966",NA,NA,0,"BIQ (Charlotte)",3,"ABJCIDHEGF","Passed AC2",NA,"Spreadsheet1",1,"BIQ","Screen 1","9dh6eq",1,"response","3",2469.403,7107.392,7118.64299999776,2469.403,7107.392,7118.64299999776,1,2469.403,4649.23999999776,0,NA,"Rating Scale","Rating Scale",3,"object-5","BIQ",NA,"SUPPRF30203"
"4",1696940279783,"10/10/2023 12:17:59",1696943879783,1,"10/10/2023 14:17:59",146524,3,"task-gjqt",NA,32132345,9501483,NA,"complete",NA,"65254d7dd9cdb856b589b0b6","computer","Desktop or Laptop","Windows 10","Edge 117.0.2045.60","1920x1080","1872x966",NA,NA,0,"BIQ (Charlotte)",3,"ABJCIDHEGF","Passed AC2",NA,"Spreadsheet1",1,"BIQ","Screen 1","9dh6eq",1,"response","2",4638.223,7107.392,7118.84299999702,4638.223,7107.392,7118.84299999702,1,4638.223,2480.61999999702,0,NA,"Rating Scale","Rating Scale",10,"object-18","BIQ",NA,"SUPPRF30203"
"5",1696940279783,"10/10/2023 12:17:59",1696943879783,1,"10/10/2023 14:17:59",146524,3,"task-gjqt",NA,32132345,9501483,NA,"complete",NA,"65254d7dd9cdb856b589b0b6","computer","Desktop or Laptop","Windows 10","Edge 117.0.2045.60","1920x1080","1872x966",NA,NA,0,"BIQ (Charlotte)",3,"ABJCIDHEGF","Passed AC2",NA,"Spreadsheet1",1,"BIQ","Screen 1","9dh6eq",1,"response","3",6256.49,7107.392,7119.043,6256.49,7107.392,7119.043,1,6256.49,862.553,0,NA,"Rating Scale","Rating Scale",17,"object-80","BIQ",NA,"SUPPRF30203"
"6",1696940283535,"10/10/2023 12:18:03",1696943883535,1,"10/10/2023 14:18:03",146524,3,"task-gjqt",NA,32132345,9501483,NA,"complete",NA,"65254d7dd9cdb856b589b0b6","computer","Desktop or Laptop","Windows 10","Edge 117.0.2045.60","1920x1080","1872x966",NA,NA,0,"BIQ (Charlotte)",3,"ABJCIDHEGF","Passed AC2",NA,"Spreadsheet1",1,"BIQ","Screen 2","o21mwi",2,"continue","",3763.85099999925,3753.711,3763.85099999925,3763.85099999925,3753.711,3763.85099999925,1,3763.85099999925,0,0,NA,"Click To Continue","Continue Button",22,"object-50","BIQ",NA,"SUPPRF30203"
"7",1696940283537,"10/10/2023 12:18:03",1696943883537,1,"10/10/2023 14:18:03",146524,3,"task-gjqt",NA,32132345,9501483,NA,"complete",NA,"65254d7dd9cdb856b589b0b6","computer","Desktop or Laptop","Windows 10","Edge 117.0.2045.60","1920x1080","1872x966",NA,NA,0,"BIQ (Charlotte)",3,"ABJCIDHEGF","Passed AC2",NA,"Spreadsheet1",1,"BIQ","Screen 2","o21mwi",2,"response","3",1117.765,3753.711,3765.75099999776,1117.765,3753.711,3765.75099999776,1,1117.765,2647.98599999777,0,NA,"Rating Scale","Rating Scale",2,"object-259","BIQ",NA,"SUPPRF30203"
"8",1696940283537,"10/10/2023 12:18:03",1696943883537,1,"10/10/2023 14:18:03",146524,3,"task-gjqt",NA,32132345,9501483,NA,"complete",NA,"65254d7dd9cdb856b589b0b6","computer","Desktop or Laptop","Windows 10","Edge 117.0.2045.60","1920x1080","1872x966",NA,NA,0,"BIQ (Charlotte)",3,"ABJCIDHEGF","Passed AC2",NA,"Spreadsheet1",1,"BIQ","Screen 2","o21mwi",2,"response","4",2035.101,3753.711,3766.151,2035.101,3753.711,3766.151,1,2035.101,1731.05,0,NA,"Rating Scale","Rating Scale",9,"object-36","BIQ",NA,"SUPPRF30203"
"9",1696940283538,"10/10/2023 12:18:03",1696943883538,1,"10/10/2023 14:18:03",146524,3,"task-gjqt",NA,32132345,9501483,NA,"complete",NA,"65254d7dd9cdb856b589b0b6","computer","Desktop or Laptop","Windows 10","Edge 117.0.2045.60","1920x1080","1872x966",NA,NA,0,"BIQ (Charlotte)",3,"ABJCIDHEGF","Passed AC2",NA,"Spreadsheet1",1,"BIQ","Screen 2","o21mwi",2,"response","4",2652.61,3753.711,3766.45099999702,2652.61,3753.711,3766.45099999702,1,2652.61,1113.84099999702,0,NA,"Rating Scale","Rating Scale",16,"object-86","BIQ",NA,"SUPPRF30203"
"10",1696940308416,"10/10/2023 12:18:28",1696943908416,1,"10/10/2023 14:18:28",146524,3,"task-gjqt",NA,32132345,9501483,NA,"complete",NA,"65254d7dd9cdb856b589b0b6","computer","Desktop or Laptop","Windows 10","Edge 117.0.2045.60","1920x1080","1872x966",NA,NA,0,"BIQ (Charlotte)",3,"ABJCIDHEGF","Passed AC2",NA,"Spreadsheet1",1,"BIQ","Screen 3","iz3the",3,"continue","",24891.1399999993,24874.836,24891.1399999993,24891.1399999993,24874.836,24891.1399999993,1,24891.1399999993,0,0,NA,"Click To Continue","Continue Button",22,"object-73","BIQ",NA,"SUPPRF30203"
"11",1696940308418,"10/10/2023 12:18:28",1696943908418,1,"10/10/2023 14:18:28",146524,3,"task-gjqt",NA,32132345,9501483,NA,"complete",NA,"65254d7dd9cdb856b589b0b6","computer","Desktop or Laptop","Windows 10","Edge 117.0.2045.60","1920x1080","1872x966",NA,NA,0,"BIQ (Charlotte)",3,"ABJCIDHEGF","Passed AC2",NA,"Spreadsheet1",1,"BIQ","Screen 3","iz3the",3,"response","5",22739.111,24874.836,24891.433,22739.111,24874.836,24891.433,1,22739.111,2152.322,0,NA,"Rating Scale","Rating Scale",2,"object-53","BIQ",NA,"SUPPRF30203"
"12",1696940308418,"10/10/2023 12:18:28",1696943908418,1,"10/10/2023 14:18:28",146524,3,"task-gjqt",NA,32132345,9501483,NA,"complete",NA,"65254d7dd9cdb856b589b0b6","computer","Desktop or Laptop","Windows 10","Edge 117.0.2045.60","1920x1080","1872x966",NA,NA,0,"BIQ (Charlotte)",3,"ABJCIDHEGF","Passed AC2",NA,"Spreadsheet1",1,"BIQ","Screen 3","iz3the",3,"response","4",23156.531,24874.836,24891.433,23156.531,24874.836,24891.433,1,23156.531,1734.902,0,NA,"Rating Scale","Rating Scale",9,"object-60","BIQ",NA,"SUPPRF30203"
"13",1696940308419,"10/10/2023 12:18:28",1696943908419,1,"10/10/2023 14:18:28",146524,3,"task-gjqt",NA,32132345,9501483,NA,"complete",NA,"65254d7dd9cdb856b589b0b6","computer","Desktop or Laptop","Windows 10","Edge 117.0.2045.60","1920x1080","1872x966",NA,NA,0,"BIQ (Charlotte)",3,"ABJCIDHEGF","Passed AC2",NA,"Spreadsheet1",1,"BIQ","Screen 3","iz3the",3,"response","4",24274.227,24874.836,24891.433,24274.227,24874.836,24891.433,1,24274.227,617.206000000006,0,NA,"Rating Scale","Rating Scale",16,"object-67","BIQ",NA,"SUPPRF30203"
"14",1696940308422,"10/10/2023 12:18:28",1696943908422,1,"10/10/2023 14:18:28",146524,3,"task-gjqt",NA,32132345,9501483,NA,"complete",NA,"65254d7dd9cdb856b589b0b6","computer","Desktop or Laptop","Windows 10","Edge 117.0.2045.60","1920x1080","1872x966",NA,NA,0,"BIQ (Charlotte)",3,"ABJCIDHEGF","Passed AC2",NA,"Spreadsheet1",NA,"","","",NA,"5","END",NA,NA,NA,NA,NA,NA,0,NA,NA,NA,NA,"","",NA,"","",NA,"SUPPRF30203"
"1",1696962147188,"10/10/2023 18:22:27",1696947747188,-4,"10/10/2023 10:22:27",146524,3,"task-gjqt",NA,32135806,9502306,NA,"complete",NA,"65255c3b73b95dcd70f191c7","computer","Desktop or Laptop","Mac OS 10.15.7","Chrome 117.0.0.0","1440x900","1440x733",NA,NA,0,"BIQ (Charlotte)",3,"BCADJEIFHG","Passed AC2",NA,"Spreadsheet1",NA,"","","",NA,"5","BEGIN",NA,NA,NA,NA,NA,NA,0,NA,NA,NA,NA,"","",NA,"","",NA,"SUPPRF16716"
"2",1696962207601,"10/10/2023 18:23:27",1696947807601,-4,"10/10/2023 10:23:27",146524,3,"task-gjqt",NA,32135806,9502306,NA,"complete",NA,"65255c3b73b95dcd70f191c7","computer","Desktop or Laptop","Mac OS 10.15.7","Chrome 117.0.0.0","1440x900","1440x733",NA,NA,0,"BIQ (Charlotte)",3,"BCADJEIFHG","Passed AC2",NA,"Spreadsheet1",1,"BIQ","Screen 1","9dh6eq",1,"continue","",60425.096,60409.793,60425.096,60425.096,60409.793,60425.096,1,60425.096,0,0,NA,"Click To Continue","Continue Button",23,"object-48","BIQ",NA,"SUPPRF16716"
"3",1696962207603,"10/10/2023 18:23:27",1696947807603,-4,"10/10/2023 10:23:27",146524,3,"task-gjqt",NA,32135806,9502306,NA,"complete",NA,"65255c3b73b95dcd70f191c7","computer","Desktop or Laptop","Mac OS 10.15.7","Chrome 117.0.0.0","1440x900","1440x733",NA,NA,0,"BIQ (Charlotte)",3,"BCADJEIFHG","Passed AC2",NA,"Spreadsheet1",1,"BIQ","Screen 1","9dh6eq",1,"response","2",47224.391,60409.793,60426.462,47224.391,60409.793,60426.462,1,47224.391,13202.071,0,NA,"Rating Scale","Rating Scale",3,"object-5","BIQ",NA,"SUPPRF16716"
"4",1696962207604,"10/10/2023 18:23:27",1696947807604,-4,"10/10/2023 10:23:27",146524,3,"task-gjqt",NA,32135806,9502306,NA,"complete",NA,"65255c3b73b95dcd70f191c7","computer","Desktop or Laptop","Mac OS 10.15.7","Chrome 117.0.0.0","1440x900","1440x733",NA,NA,0,"BIQ (Charlotte)",3,"BCADJEIFHG","Passed AC2",NA,"Spreadsheet1",1,"BIQ","Screen 1","9dh6eq",1,"response","2",53175.224,60409.793,60426.462,53175.224,60409.793,60426.462,1,53175.224,7251.238,0,NA,"Rating Scale","Rating Scale",10,"object-18","BIQ",NA,"SUPPRF16716"
"5",1696962207604,"10/10/2023 18:23:27",1696947807604,-4,"10/10/2023 10:23:27",146524,3,"task-gjqt",NA,32135806,9502306,NA,"complete",NA,"65255c3b73b95dcd70f191c7","computer","Desktop or Laptop","Mac OS 10.15.7","Chrome 117.0.0.0","1440x900","1440x733",NA,NA,0,"BIQ (Charlotte)",3,"BCADJEIFHG","Passed AC2",NA,"Spreadsheet1",1,"BIQ","Screen 1","9dh6eq",1,"response","7",58742.893,60409.793,60426.462,58742.893,60409.793,60426.462,1,58742.893,1683.569,0,NA,"Rating Scale","Rating Scale",17,"object-80","BIQ",NA,"SUPPRF16716"
"6",1696962226631,"10/10/2023 18:23:46",1696947826631,-4,"10/10/2023 10:23:46",146524,3,"task-gjqt",NA,32135806,9502306,NA,"complete",NA,"65255c3b73b95dcd70f191c7","computer","Desktop or Laptop","Mac OS 10.15.7","Chrome 117.0.0.0","1440x900","1440x733",NA,NA,0,"BIQ (Charlotte)",3,"BCADJEIFHG","Passed AC2",NA,"Spreadsheet1",1,"BIQ","Screen 2","o21mwi",2,"continue","",19046.6029999523,19036.443,19046.6029999523,19046.6029999523,19036.443,19046.6029999523,1,19046.6029999523,0,0,NA,"Click To Continue","Continue Button",22,"object-50","BIQ",NA,"SUPPRF16716"
"7",1696962226634,"10/10/2023 18:23:46",1696947826634,-4,"10/10/2023 10:23:46",146524,3,"task-gjqt",NA,32135806,9502306,NA,"complete",NA,"65255c3b73b95dcd70f191c7","computer","Desktop or Laptop","Mac OS 10.15.7","Chrome 117.0.0.0","1440x900","1440x733",NA,NA,0,"BIQ (Charlotte)",3,"BCADJEIFHG","Passed AC2",NA,"Spreadsheet1",1,"BIQ","Screen 2","o21mwi",2,"response","4",6967.864,19036.443,19048.803,6967.864,19036.443,19048.803,1,6967.864,12080.939,0,NA,"Rating Scale","Rating Scale",2,"object-259","BIQ",NA,"SUPPRF16716"
"8",1696962226634,"10/10/2023 18:23:46",1696947826634,-4,"10/10/2023 10:23:46",146524,3,"task-gjqt",NA,32135806,9502306,NA,"complete",NA,"65255c3b73b95dcd70f191c7","computer","Desktop or Laptop","Mac OS 10.15.7","Chrome 117.0.0.0","1440x900","1440x733",NA,NA,0,"BIQ (Charlotte)",3,"BCADJEIFHG","Passed AC2",NA,"Spreadsheet1",1,"BIQ","Screen 2","o21mwi",2,"response","8",11568.508,19036.443,19049.303,11568.508,19036.443,19049.303,1,11568.508,7480.795,0,NA,"Rating Scale","Rating Scale",9,"object-36","BIQ",NA,"SUPPRF16716"
"9",1696962226635,"10/10/2023 18:23:46",1696947826635,-4,"10/10/2023 10:23:46",146524,3,"task-gjqt",NA,32135806,9502306,NA,"complete",NA,"65255c3b73b95dcd70f191c7","computer","Desktop or Laptop","Mac OS 10.15.7","Chrome 117.0.0.0","1440x900","1440x733",NA,NA,0,"BIQ (Charlotte)",3,"BCADJEIFHG","Passed AC2",NA,"Spreadsheet1",1,"BIQ","Screen 2","o21mwi",2,"response","7",18286.338,19036.443,19049.9029999046,18286.338,19036.443,19049.9029999046,1,18286.338,763.564999904629,0,NA,"Rating Scale","Rating Scale",16,"object-86","BIQ",NA,"SUPPRF16716"
"10",1696962239968,"10/10/2023 18:23:59",1696947839968,-4,"10/10/2023 10:23:59",146524,3,"task-gjqt",NA,32135806,9502306,NA,"complete",NA,"65255c3b73b95dcd70f191c7","computer","Desktop or Laptop","Mac OS 10.15.7","Chrome 117.0.0.0","1440x900","1440x733",NA,NA,0,"BIQ (Charlotte)",3,"BCADJEIFHG","Passed AC2",NA,"Spreadsheet1",1,"BIQ","Screen 3","iz3the",3,"continue","",13346.9599999046,13335.423,13346.9599999046,13346.9599999046,13335.423,13346.9599999046,1,13346.9599999046,0,0,NA,"Click To Continue","Continue Button",22,"object-73","BIQ",NA,"SUPPRF16716"
"11",1696962239971,"10/10/2023 18:23:59",1696947839971,-4,"10/10/2023 10:23:59",146524,3,"task-gjqt",NA,32135806,9502306,NA,"complete",NA,"65255c3b73b95dcd70f191c7","computer","Desktop or Laptop","Mac OS 10.15.7","Chrome 117.0.0.0","1440x900","1440x733",NA,NA,0,"BIQ (Charlotte)",3,"BCADJEIFHG","Passed AC2",NA,"Spreadsheet1",1,"BIQ","Screen 3","iz3the",3,"response","4",7634.625,13335.423,13349.7599998569,7634.625,13335.423,13349.7599998569,1,7634.625,5715.13499985695,0,NA,"Rating Scale","Rating Scale",2,"object-53","BIQ",NA,"SUPPRF16716"
"12",1696962239971,"10/10/2023 18:23:59",1696947839971,-4,"10/10/2023 10:23:59",146524,3,"task-gjqt",NA,32135806,9502306,NA,"complete",NA,"65255c3b73b95dcd70f191c7","computer","Desktop or Laptop","Mac OS 10.15.7","Chrome 117.0.0.0","1440x900","1440x733",NA,NA,0,"BIQ (Charlotte)",3,"BCADJEIFHG","Passed AC2",NA,"Spreadsheet1",1,"BIQ","Screen 3","iz3the",3,"response","7",9968.285,13335.423,13350.2599998569,9968.285,13335.423,13350.2599998569,1,9968.285,3381.97499985695,0,NA,"Rating Scale","Rating Scale",9,"object-60","BIQ",NA,"SUPPRF16716"
"13",1696962239971,"10/10/2023 18:23:59",1696947839971,-4,"10/10/2023 10:23:59",146524,3,"task-gjqt",NA,32135806,9502306,NA,"complete",NA,"65255c3b73b95dcd70f191c7","computer","Desktop or Laptop","Mac OS 10.15.7","Chrome 117.0.0.0","1440x900","1440x733",NA,NA,0,"BIQ (Charlotte)",3,"BCADJEIFHG","Passed AC2",NA,"Spreadsheet1",1,"BIQ","Screen 3","iz3the",3,"response","7",12585.318,13335.423,13350.6599999523,12585.318,13335.423,13350.6599999523,1,12585.318,765.341999952318,0,NA,"Rating Scale","Rating Scale",16,"object-67","BIQ",NA,"SUPPRF16716"
"14",1696962239976,"10/10/2023 18:23:59",1696947839976,-4,"10/10/2023 10:23:59",146524,3,"task-gjqt",NA,32135806,9502306,NA,"complete",NA,"65255c3b73b95dcd70f191c7","computer","Desktop or Laptop","Mac OS 10.15.7","Chrome 117.0.0.0","1440x900","1440x733",NA,NA,0,"BIQ (Charlotte)",3,"BCADJEIFHG","Passed AC2",NA,"Spreadsheet1",NA,"","","",NA,"5","END",NA,NA,NA,NA,NA,NA,0,NA,NA,NA,NA,"","",NA,"","",NA,"SUPPRF16716"
"1",1696977298684,"10/10/2023 22:34:58",1696952098684,-7,"10/10/2023 08:34:58",146524,3,"task-gjqt",NA,32139829,9504121,NA,"complete",NA,"65256d3f9efa642c778e45a5","computer","Desktop or Laptop","Windows 10","Chrome 117.0.0.0","1920x1080","1920x931",NA,NA,0,"BIQ (Charlotte)",3,"CDBEAFJGIH","Passed AC2",NA,"Spreadsheet1",NA,"","","",NA,"5","BEGIN",NA,NA,NA,NA,NA,NA,0,NA,NA,NA,NA,"","",NA,"","",NA,"SUPPRF51230"
"2",1696977340451,"10/10/2023 22:35:40",1696952140451,-7,"10/10/2023 08:35:40",146524,3,"task-gjqt",NA,32139829,9504121,NA,"complete",NA,"65256d3f9efa642c778e45a5","computer","Desktop or Laptop","Windows 10","Chrome 117.0.0.0","1920x1080","1920x931",NA,NA,0,"BIQ (Charlotte)",3,"CDBEAFJGIH","Passed AC2",NA,"Spreadsheet1",1,"BIQ","Screen 1","9dh6eq",1,"continue","",41773.4950000179,41766.666,41773.4950000179,41773.4950000179,41766.666,41773.4950000179,1,41773.4950000179,0,0,NA,"Click To Continue","Continue Button",23,"object-48","BIQ",NA,"SUPPRF51230"
"3",1696977340453,"10/10/2023 22:35:40",1696952140453,-7,"10/10/2023 08:35:40",146524,3,"task-gjqt",NA,32139829,9504121,NA,"complete",NA,"65256d3f9efa642c778e45a5","computer","Desktop or Laptop","Windows 10","Chrome 117.0.0.0","1920x1080","1920x931",NA,NA,0,"BIQ (Charlotte)",3,"CDBEAFJGIH","Passed AC2",NA,"Spreadsheet1",1,"BIQ","Screen 1","9dh6eq",1,"response","6",25783.354,41766.666,41776.9950000179,25783.354,41766.666,41776.9950000179,1,25783.354,15993.6410000179,0,NA,"Rating Scale","Rating Scale",3,"object-5","BIQ",NA,"SUPPRF51230"
"4",1696977340453,"10/10/2023 22:35:40",1696952140453,-7,"10/10/2023 08:35:40",146524,3,"task-gjqt",NA,32139829,9504121,NA,"complete",NA,"65256d3f9efa642c778e45a5","computer","Desktop or Laptop","Windows 10","Chrome 117.0.0.0","1920x1080","1920x931",NA,NA,0,"BIQ (Charlotte)",3,"CDBEAFJGIH","Passed AC2",NA,"Spreadsheet1",1,"BIQ","Screen 1","9dh6eq",1,"response","6",35249.984,41766.666,41777.195000006,35249.984,41766.666,41777.195000006,1,35249.984,6527.21100000596,0,NA,"Rating Scale","Rating Scale",10,"object-18","BIQ",NA,"SUPPRF51230"
"5",1696977340453,"10/10/2023 22:35:40",1696952140453,-7,"10/10/2023 08:35:40",146524,3,"task-gjqt",NA,32139829,9504121,NA,"complete",NA,"65256d3f9efa642c778e45a5","computer","Desktop or Laptop","Windows 10","Chrome 117.0.0.0","1920x1080","1920x931",NA,NA,0,"BIQ (Charlotte)",3,"CDBEAFJGIH","Passed AC2",NA,"Spreadsheet1",1,"BIQ","Screen 1","9dh6eq",1,"response","1",41166.656,41766.666,41777.295,41166.656,41766.666,41777.295,1,41166.656,610.639000000003,0,NA,"Rating Scale","Rating Scale",17,"object-80","BIQ",NA,"SUPPRF51230"
"6",1696977363511,"10/10/2023 22:36:03",1696952163511,-7,"10/10/2023 08:36:03",146524,3,"task-gjqt",NA,32139829,9504121,NA,"complete",NA,"65256d3f9efa642c778e45a5","computer","Desktop or Laptop","Windows 10","Chrome 117.0.0.0","1920x1080","1920x931",NA,NA,0,"BIQ (Charlotte)",3,"CDBEAFJGIH","Passed AC2",NA,"Spreadsheet1",1,"BIQ","Screen 2","o21mwi",2,"continue","",23068.3290000179,23066.627,23068.3290000179,23068.3290000179,23066.627,23068.3290000179,1,23068.3290000179,0,0,NA,"Click To Continue","Continue Button",22,"object-50","BIQ",NA,"SUPPRF51230"
"7",1696977363512,"10/10/2023 22:36:03",1696952163512,-7,"10/10/2023 08:36:03",146524,3,"task-gjqt",NA,32139829,9504121,NA,"complete",NA,"65256d3f9efa642c778e45a5","computer","Desktop or Laptop","Windows 10","Chrome 117.0.0.0","1920x1080","1920x931",NA,NA,0,"BIQ (Charlotte)",3,"CDBEAFJGIH","Passed AC2",NA,"Spreadsheet1",1,"BIQ","Screen 2","o21mwi",2,"response","7",6849.994,23066.627,23069.629,6849.994,23066.627,23069.629,1,6849.994,16219.635,0,NA,"Rating Scale","Rating Scale",2,"object-259","BIQ",NA,"SUPPRF51230"
"8",1696977363512,"10/10/2023 22:36:03",1696952163512,-7,"10/10/2023 08:36:03",146524,3,"task-gjqt",NA,32139829,9504121,NA,"complete",NA,"65256d3f9efa642c778e45a5","computer","Desktop or Laptop","Windows 10","Chrome 117.0.0.0","1920x1080","1920x931",NA,NA,0,"BIQ (Charlotte)",3,"CDBEAFJGIH","Passed AC2",NA,"Spreadsheet1",1,"BIQ","Screen 2","o21mwi",2,"response","2",11466.639,23066.627,23069.8290000179,11466.639,23066.627,23069.8290000179,1,11466.639,11603.1900000179,0,NA,"Rating Scale","Rating Scale",9,"object-36","BIQ",NA,"SUPPRF51230"
"9",1696977363512,"10/10/2023 22:36:03",1696952163512,-7,"10/10/2023 08:36:03",146524,3,"task-gjqt",NA,32139829,9504121,NA,"complete",NA,"65256d3f9efa642c778e45a5","computer","Desktop or Laptop","Windows 10","Chrome 117.0.0.0","1920x1080","1920x931",NA,NA,0,"BIQ (Charlotte)",3,"CDBEAFJGIH","Passed AC2",NA,"Spreadsheet1",1,"BIQ","Screen 2","o21mwi",2,"response","1",20800.04,23066.627,23070.129,20800.04,23066.627,23070.129,1,20800.04,2270.08900000001,0,NA,"Rating Scale","Rating Scale",16,"object-86","BIQ",NA,"SUPPRF51230"
"10",1696977379439,"10/10/2023 22:36:19",1696952179439,-7,"10/10/2023 08:36:19",146524,3,"task-gjqt",NA,32139829,9504121,NA,"complete",NA,"65256d3f9efa642c778e45a5","computer","Desktop or Laptop","Windows 10","Chrome 117.0.0.0","1920x1080","1920x931",NA,NA,0,"BIQ (Charlotte)",3,"CDBEAFJGIH","Passed AC2",NA,"Spreadsheet1",1,"BIQ","Screen 3","iz3the",3,"continue","",15930.1020000238,15916.643,15930.1020000238,15930.1020000238,15916.643,15930.1020000238,1,15930.1020000238,0,0,NA,"Click To Continue","Continue Button",22,"object-73","BIQ",NA,"SUPPRF51230"
"11",1696977379440,"10/10/2023 22:36:19",1696952179440,-7,"10/10/2023 08:36:19",146524,3,"task-gjqt",NA,32139829,9504121,NA,"complete",NA,"65256d3f9efa642c778e45a5","computer","Desktop or Laptop","Windows 10","Chrome 117.0.0.0","1920x1080","1920x931",NA,NA,0,"BIQ (Charlotte)",3,"CDBEAFJGIH","Passed AC2",NA,"Spreadsheet1",1,"BIQ","Screen 3","iz3the",3,"response","0",5766.678,15916.643,15931.502,5766.678,15916.643,15931.502,1,5766.678,10164.824,0,NA,"Rating Scale","Rating Scale",2,"object-53","BIQ",NA,"SUPPRF51230"
"12",1696977379441,"10/10/2023 22:36:19",1696952179441,-7,"10/10/2023 08:36:19",146524,3,"task-gjqt",NA,32139829,9504121,NA,"complete",NA,"65256d3f9efa642c778e45a5","computer","Desktop or Laptop","Windows 10","Chrome 117.0.0.0","1920x1080","1920x931",NA,NA,0,"BIQ (Charlotte)",3,"CDBEAFJGIH","Passed AC2",NA,"Spreadsheet1",1,"BIQ","Screen 3","iz3the",3,"response","0",9733.242,15916.643,15931.7020000179,9733.242,15916.643,15931.7020000179,1,9733.242,6198.46000001788,0,NA,"Rating Scale","Rating Scale",9,"object-60","BIQ",NA,"SUPPRF51230"
"13",1696977379441,"10/10/2023 22:36:19",1696952179441,-7,"10/10/2023 08:36:19",146524,3,"task-gjqt",NA,32139829,9504121,NA,"complete",NA,"65256d3f9efa642c778e45a5","computer","Desktop or Laptop","Windows 10","Chrome 117.0.0.0","1920x1080","1920x931",NA,NA,0,"BIQ (Charlotte)",3,"CDBEAFJGIH","Passed AC2",NA,"Spreadsheet1",1,"BIQ","Screen 3","iz3the",3,"response","3",15383.262,15916.643,15931.902000006,15383.262,15916.643,15931.902000006,1,15383.262,548.640000005966,0,NA,"Rating Scale","Rating Scale",16,"object-67","BIQ",NA,"SUPPRF51230"
"14",1696977379443,"10/10/2023 22:36:19",1696952179443,-7,"10/10/2023 08:36:19",146524,3,"task-gjqt",NA,32139829,9504121,NA,"complete",NA,"65256d3f9efa642c778e45a5","computer","Desktop or Laptop","Windows 10","Chrome 117.0.0.0","1920x1080","1920x931",NA,NA,0,"BIQ (Charlotte)",3,"CDBEAFJGIH","Passed AC2",NA,"Spreadsheet1",NA,"","","",NA,"5","END",NA,NA,NA,NA,NA,NA,0,NA,NA,NA,NA,"","",NA,"","",NA,"SUPPRF51230"
"1",1696970476641,"10/10/2023 20:41:16",1696952476641,-5,"10/10/2023 10:41:16",146524,3,"task-gjqt",NA,32140067,9504175,NA,"complete",NA,"65256e38e4a1b045d3bb578f","computer","Desktop or Laptop","Windows 10","Chrome 117.0.0.0","1536x864","1536x739",NA,NA,0,"BIQ (Charlotte)",3,"DECFBGAHJI","Passed AC2",NA,"Spreadsheet1",NA,"","","",NA,"5","BEGIN",NA,NA,NA,NA,NA,NA,0,NA,NA,NA,NA,"","",NA,"","",NA,"SUPPRF43536"
"2",1696970544188,"10/10/2023 20:42:24",1696952544188,-5,"10/10/2023 10:42:24",146524,3,"task-gjqt",NA,32140067,9504175,NA,"complete",NA,"65256e38e4a1b045d3bb578f","computer","Desktop or Laptop","Windows 10","Chrome 117.0.0.0","1536x864","1536x739",NA,NA,0,"BIQ (Charlotte)",3,"DECFBGAHJI","Passed AC2",NA,"Spreadsheet1",1,"BIQ","Screen 1","9dh6eq",1,"continue","",67570.585,67566.476,67570.585,67570.585,67566.476,67570.585,1,67570.585,0,0,NA,"Click To Continue","Continue Button",23,"object-48","BIQ",NA,"SUPPRF43536"
"3",1696970544190,"10/10/2023 20:42:24",1696952544190,-5,"10/10/2023 10:42:24",146524,3,"task-gjqt",NA,32140067,9504175,NA,"complete",NA,"65256e38e4a1b045d3bb578f","computer","Desktop or Laptop","Windows 10","Chrome 117.0.0.0","1536x864","1536x739",NA,NA,0,"BIQ (Charlotte)",3,"DECFBGAHJI","Passed AC2",NA,"Spreadsheet1",1,"BIQ","Screen 1","9dh6eq",1,"response","6",51633.111,67566.476,67572.7850000477,51633.111,67566.476,67572.7850000477,1,51633.111,15939.6740000477,0,NA,"Rating Scale","Rating Scale",3,"object-5","BIQ",NA,"SUPPRF43536"
"4",1696970544190,"10/10/2023 20:42:24",1696952544190,-5,"10/10/2023 10:42:24",146524,3,"task-gjqt",NA,32140067,9504175,NA,"complete",NA,"65256e38e4a1b045d3bb578f","computer","Desktop or Laptop","Windows 10","Chrome 117.0.0.0","1536x864","1536x739",NA,NA,0,"BIQ (Charlotte)",3,"DECFBGAHJI","Passed AC2",NA,"Spreadsheet1",1,"BIQ","Screen 1","9dh6eq",1,"response","5",59566.565,67566.476,67573.085,59566.565,67566.476,67573.085,1,59566.565,8006.52,0,NA,"Rating Scale","Rating Scale",10,"object-18","BIQ",NA,"SUPPRF43536"
"5",1696970544191,"10/10/2023 20:42:24",1696952544191,-5,"10/10/2023 10:42:24",146524,3,"task-gjqt",NA,32140067,9504175,NA,"complete",NA,"65256e38e4a1b045d3bb578f","computer","Desktop or Laptop","Windows 10","Chrome 117.0.0.0","1536x864","1536x739",NA,NA,0,"BIQ (Charlotte)",3,"DECFBGAHJI","Passed AC2",NA,"Spreadsheet1",1,"BIQ","Screen 1","9dh6eq",1,"response","4",66883.122,67566.476,67573.3850000715,66883.122,67566.476,67573.3850000715,1,66883.122,690.263000071529,0,NA,"Rating Scale","Rating Scale",17,"object-80","BIQ",NA,"SUPPRF43536"
"6",1696970544754,"10/10/2023 20:42:24",1696952544754,-5,"10/10/2023 10:42:24",146524,3,"task-gjqt",NA,32140067,9504175,NA,"complete",NA,"65256e38e4a1b045d3bb578f","computer","Desktop or Laptop","Windows 10","Chrome 117.0.0.0","1536x864","1536x739",NA,NA,0,"BIQ (Charlotte)",3,"DECFBGAHJI","Passed AC2",NA,"Spreadsheet1",1,"BIQ","Screen 2","o21mwi",2,"continue","",570.30900004768,567.474999999991,570.30900004768,570.30900004768,567.474999999991,570.30900004768,1,570.30900004768,0,0,NA,"Click To Continue","Continue Button",22,"object-50","BIQ",NA,"SUPPRF43536"
"7",1696970568687,"10/10/2023 20:42:48",1696952568687,-5,"10/10/2023 10:42:48",146524,3,"task-gjqt",NA,32140067,9504175,NA,"complete",NA,"65256e38e4a1b045d3bb578f","computer","Desktop or Laptop","Windows 10","Chrome 117.0.0.0","1536x864","1536x739",NA,NA,0,"BIQ (Charlotte)",3,"DECFBGAHJI","Passed AC2",NA,"Spreadsheet1",1,"BIQ","Screen 2","o21mwi",2,"continue","",24503.5090000954,24500.612,24503.5090000954,24503.5090000954,24500.612,24503.5090000954,1,24503.5090000954,0,0,NA,"Click To Continue","Continue Button",22,"object-50","BIQ",NA,"SUPPRF43536"
"8",1696970568690,"10/10/2023 20:42:48",1696952568690,-5,"10/10/2023 10:42:48",146524,3,"task-gjqt",NA,32140067,9504175,NA,"complete",NA,"65256e38e4a1b045d3bb578f","computer","Desktop or Laptop","Windows 10","Chrome 117.0.0.0","1536x864","1536x739",NA,NA,0,"BIQ (Charlotte)",3,"DECFBGAHJI","Passed AC2",NA,"Spreadsheet1",1,"BIQ","Screen 2","o21mwi",2,"response","3",9149.98299999999,24500.612,24505.9090000715,9149.98299999999,24500.612,24505.9090000715,1,9149.98299999999,15355.9260000715,0,NA,"Rating Scale","Rating Scale",2,"object-259","BIQ",NA,"SUPPRF43536"
"9",1696970568690,"10/10/2023 20:42:48",1696952568690,-5,"10/10/2023 10:42:48",146524,3,"task-gjqt",NA,32140067,9504175,NA,"complete",NA,"65256e38e4a1b045d3bb578f","computer","Desktop or Laptop","Windows 10","Chrome 117.0.0.0","1536x864","1536x739",NA,NA,0,"BIQ (Charlotte)",3,"DECFBGAHJI","Passed AC2",NA,"Spreadsheet1",1,"BIQ","Screen 2","o21mwi",2,"response","2",13500.009,24500.612,24506.109,13500.009,24500.612,24506.109,1,13500.009,11006.1,0,NA,"Rating Scale","Rating Scale",9,"object-36","BIQ",NA,"SUPPRF43536"
"10",1696970568690,"10/10/2023 20:42:48",1696952568690,-5,"10/10/2023 10:42:48",146524,3,"task-gjqt",NA,32140067,9504175,NA,"complete",NA,"65256e38e4a1b045d3bb578f","computer","Desktop or Laptop","Windows 10","Chrome 117.0.0.0","1536x864","1536x739",NA,NA,0,"BIQ (Charlotte)",3,"DECFBGAHJI","Passed AC2",NA,"Spreadsheet1",1,"BIQ","Screen 2","o21mwi",2,"response","4",24150.015,24500.612,24506.609,24150.015,24500.612,24506.609,1,24150.015,356.593999999997,0,NA,"Rating Scale","Rating Scale",16,"object-86","BIQ",NA,"SUPPRF43536"
"11",1696970586019,"10/10/2023 20:43:06",1696952586019,-5,"10/10/2023 10:43:06",146524,3,"task-gjqt",NA,32140067,9504175,NA,"complete",NA,"65256e38e4a1b045d3bb578f","computer","Desktop or Laptop","Windows 10","Chrome 117.0.0.0","1536x864","1536x739",NA,NA,0,"BIQ (Charlotte)",3,"DECFBGAHJI","Passed AC2",NA,"Spreadsheet1",1,"BIQ","Screen 3","iz3the",3,"continue","",17334.6970000477,17332.771,17334.6970000477,17334.6970000477,17332.771,17334.6970000477,1,17334.6970000477,0,0,NA,"Click To Continue","Continue Button",22,"object-73","BIQ",NA,"SUPPRF43536"
