"Event.Index","UTC.Timestamp","UTC.Date.and.Time","Local.Timestamp","Local.Timezone","Local.Date.and.Time","Experiment.ID","Experiment.Version","Tree.Node.Key","Repeat.Key","Schedule.ID","Participant.Starting.Group","Participant.Status","Participant.Completion.Code","Participant.External.Session.ID","Participant.Device.Type","Participant.Device","Participant.OS","Participant.Browser","Participant.Monitor.Size","Participant.Viewport.Size","Checkpoint","Room.ID","Room.Order","Task.Name","Task.Version","order.ot79","branch.g31k","branch.5gtn","Spreadsheet","Trial.Number","Display","Screen","Screen.ID","Screen.Counter","Response.Type","Response","Onset.Time","Clock.Time","Reaction.Time","Absolute.Onset.Time","Absolute.Clock.Time","Absolute.Reaction.Time","Correct","Response.Onset","Response.Duration","Proportion","Tag","Component.Name","Object.Name","Object.Number","Object.ID","Spreadsheet..display","Manipulation..Spreadsheet","Random_ID"
1,1711130542177,"22/03/2024 18:02:22",1711130542177,0,"22/03/2024 18:02:22",172741,3,"task-gjqt",NA,36357349,NA,"complete",NA,"65fdc439d78b83735eacceca","computer","Desktop or Laptop","Mac OS 10.15.7","Chrome 118.0.0.0","1440x900","1440x783",NA,NA,0,"BIQ (Charlotte)",3,"ABJCIDHEGF","Passed AC2",NA,"Spreadsheet1",NA,"","","",NA,"5","BEGIN",NA,NA,NA,NA,NA,NA,0,NA,NA,NA,NA,"","",NA,"","",NA,"SUPPRF61251"
2,1711130601338,"22/03/2024 18:03:21",1711130601338,0,"22/03/2024 18:03:21",172741,3,"task-gjqt",NA,36357349,NA,"complete",NA,"65fdc439d78b83735eacceca","computer","Desktop or Laptop","Mac OS 10.15.7","Chrome 118.0.0.0","1440x900","1299x672",NA,NA,0,"BIQ (Charlotte)",3,"ABJCIDHEGF","Passed AC2",NA,"Spreadsheet1",1,"BIQ","Screen 1","9dh6eq",1,"continue","",59172.0199999993,59159.528,59172.0199999993,59172.0199999993,59159.528,59172.0199999993,1,59172.0199999993,0,0,NA,"Click To Continue","Continue Button",23,"object-48","BIQ",NA,"SUPPRF61251"
3,1711130684078,"22/03/2024 18:04:44",1711130684078,0,"22/03/2024 18:04:44",172741,3,"task-gjqt",NA,36357349,NA,"complete",NA,"65fdc439d78b83735eacceca","computer","Desktop or Laptop","Mac OS 10.15.7","Chrome 118.0.0.0","1440x900","810x672",NA,NA,0,"BIQ (Charlotte)",3,"ABJCIDHEGF","Passed AC2",NA,"Spreadsheet1",1,"BIQ","Screen 1","9dh6eq",1,"continue","",141911.620000001,141881.803,141911.620000001,141911.620000001,141881.803,141911.620000001,1,141911.620000001,0,0,NA,"Click To Continue","Continue Button",23,"object-48","BIQ",NA,"SUPPRF61251"
4,1711130692358,"22/03/2024 18:04:52",1711130692358,0,"22/03/2024 18:04:52",172741,3,"task-gjqt",NA,36357349,NA,"complete",NA,"65fdc439d78b83735eacceca","computer","Desktop or Laptop","Mac OS 10.15.7","Chrome 118.0.0.0","1440x900","627x672",NA,NA,0,"BIQ (Charlotte)",3,"ABJCIDHEGF","Passed AC2",NA,"Spreadsheet1",1,"BIQ","Screen 1","9dh6eq",1,"continue","",150192.476,150159.144,150192.476,150192.476,150159.144,150192.476,1,150192.476,0,0,NA,"Click To Continue","Continue Button",23,"object-48","BIQ",NA,"SUPPRF61251"
5,1711130715180,"22/03/2024 18:05:15",1711130715180,0,"22/03/2024 18:05:15",172741,3,"task-gjqt",NA,36357349,NA,"complete",NA,"65fdc439d78b83735eacceca","computer","Desktop or Laptop","Mac OS 10.15.7","Chrome 118.0.0.0","1440x900","616x672",NA,NA,0,"BIQ (Charlotte)",3,"ABJCIDHEGF","Passed AC2",NA,"Spreadsheet1",1,"BIQ","Screen 1","9dh6eq",1,"continue","",173009.620000001,172982.729,173009.620000001,173009.620000001,172982.729,173009.620000001,1,173009.620000001,0,0,NA,"Click To Continue","Continue Button",23,"object-48","BIQ",NA,"SUPPRF61251"
6,1711130760220,"22/03/2024 18:06:00",1711130760220,0,"22/03/2024 18:06:00",172741,3,"task-gjqt",NA,36357349,NA,"complete",NA,"65fdc439d78b83735eacceca","computer","Desktop or Laptop","Mac OS 10.15.7","Chrome 118.0.0.0","1440x900","500x705",NA,NA,0,"BIQ (Charlotte)",3,"ABJCIDHEGF","Passed AC2",NA,"Spreadsheet1",1,"BIQ","Screen 1","9dh6eq",1,"continue","",218042.220000002,218010.889,218042.220000002,218042.220000002,218010.889,218042.220000002,1,218042.220000002,0,0,NA,"Click To Continue","Continue Button",23,"object-48","BIQ",NA,"SUPPRF61251"
7,1711130763478,"22/03/2024 18:06:03",1711130763478,0,"22/03/2024 18:06:03",172741,3,"task-gjqt",NA,36357349,NA,"complete",NA,"65fdc439d78b83735eacceca","computer","Desktop or Laptop","Mac OS 10.15.7","Chrome 118.0.0.0","1440x900","500x705",NA,NA,0,"BIQ (Charlotte)",3,"ABJCIDHEGF","Passed AC2",NA,"Spreadsheet1",1,"BIQ","Screen 1","9dh6eq",1,"continue","",221301.519999999,221277.425,221301.519999999,221301.519999999,221277.425,221301.519999999,1,221301.519999999,0,0,NA,"Click To Continue","Continue Button",23,"object-48","BIQ",NA,"SUPPRF61251"
8,1711130763485,"22/03/2024 18:06:03",1711130763485,0,"22/03/2024 18:06:03",172741,3,"task-gjqt",NA,36357349,NA,"complete",NA,"65fdc439d78b83735eacceca","computer","Desktop or Laptop","Mac OS 10.15.7","Chrome 118.0.0.0","1440x900","500x705",NA,NA,0,"BIQ (Charlotte)",3,"ABJCIDHEGF","Passed AC2",NA,"Spreadsheet1",1,"BIQ","Screen 1","9dh6eq",1,"response","0",24705.51,221277.425,221308.519999999,24705.51,221277.425,221308.519999999,1,24705.51,196603.009999999,0,NA,"Rating Scale","Rating Scale",3,"object-5","BIQ",NA,"SUPPRF61251"
9,1711130763486,"22/03/2024 18:06:03",1711130763486,0,"22/03/2024 18:06:03",172741,3,"task-gjqt",NA,36357349,NA,"complete",NA,"65fdc439d78b83735eacceca","computer","Desktop or Laptop","Mac OS 10.15.7","Chrome 118.0.0.0","1440x900","500x705",NA,NA,0,"BIQ (Charlotte)",3,"ABJCIDHEGF","Passed AC2",NA,"Spreadsheet1",1,"BIQ","Screen 1","9dh6eq",1,"response","0",219644.157,221277.425,221309.220000002,219644.157,221277.425,221309.220000002,1,219644.157,1665.06300000224,0,NA,"Rating Scale","Rating Scale",10,"object-18","BIQ",NA,"SUPPRF61251"
10,1711130763486,"22/03/2024 18:06:03",1711130763486,0,"22/03/2024 18:06:03",172741,3,"task-gjqt",NA,36357349,NA,"complete",NA,"65fdc439d78b83735eacceca","computer","Desktop or Laptop","Mac OS 10.15.7","Chrome 118.0.0.0","1440x900","500x705",NA,NA,0,"BIQ (Charlotte)",3,"ABJCIDHEGF","Passed AC2",NA,"Spreadsheet1",1,"BIQ","Screen 1","9dh6eq",1,"response","0",135019.878,221277.425,221309.620000001,135019.878,221277.425,221309.620000001,1,135019.878,86289.7420000008,0,NA,"Rating Scale","Rating Scale",17,"object-80","BIQ",NA,"SUPPRF61251"
11,1711130802404,"22/03/2024 18:06:42",1711130802404,0,"22/03/2024 18:06:42",172741,3,"task-gjqt",NA,36357349,NA,"complete",NA,"65fdc439d78b83735eacceca","computer","Desktop or Laptop","Mac OS 10.15.7","Chrome 118.0.0.0","1440x900","500x705",NA,NA,0,"BIQ (Charlotte)",3,"ABJCIDHEGF","Passed AC2",NA,"Spreadsheet1",1,"BIQ","Screen 2","o21mwi",2,"continue","",38948.9950000015,38927.26,38948.9950000015,38948.9950000015,38927.26,38948.9950000015,1,38948.9950000015,0,0,NA,"Click To Continue","Continue Button",22,"object-50","BIQ",NA,"SUPPRF61251"
12,1711130802408,"22/03/2024 18:06:42",1711130802408,0,"22/03/2024 18:06:42",172741,3,"task-gjqt",NA,36357349,NA,"complete",NA,"65fdc439d78b83735eacceca","computer","Desktop or Laptop","Mac OS 10.15.7","Chrome 118.0.0.0","1440x900","500x705",NA,NA,0,"BIQ (Charlotte)",3,"ABJCIDHEGF","Passed AC2",NA,"Spreadsheet1",1,"BIQ","Screen 2","o21mwi",2,"response","1",30342.427,38927.26,38954.395,30342.427,38927.26,38954.395,1,30342.427,8611.96799999999,0,NA,"Rating Scale","Rating Scale",2,"object-259","BIQ",NA,"SUPPRF61251"
13,1711130802409,"22/03/2024 18:06:42",1711130802409,0,"22/03/2024 18:06:42",172741,3,"task-gjqt",NA,36357349,NA,"complete",NA,"65fdc439d78b83735eacceca","computer","Desktop or Laptop","Mac OS 10.15.7","Chrome 118.0.0.0","1440x900","500x705",NA,NA,0,"BIQ (Charlotte)",3,"ABJCIDHEGF","Passed AC2",NA,"Spreadsheet1",1,"BIQ","Screen 2","o21mwi",2,"response","2",28509.167,38927.26,38955.1950000007,28509.167,38927.26,38955.1950000007,1,28509.167,10446.0280000007,0,NA,"Rating Scale","Rating Scale",9,"object-36","BIQ",NA,"SUPPRF61251"
14,1711130802409,"22/03/2024 18:06:42",1711130802409,0,"22/03/2024 18:06:42",172741,3,"task-gjqt",NA,36357349,NA,"complete",NA,"65fdc439d78b83735eacceca","computer","Desktop or Laptop","Mac OS 10.15.7","Chrome 118.0.0.0","1440x900","500x705",NA,NA,0,"BIQ (Charlotte)",3,"ABJCIDHEGF","Passed AC2",NA,"Spreadsheet1",1,"BIQ","Screen 2","o21mwi",2,"response","3",37393.988,38927.26,38955.6950000007,37393.988,38927.26,38955.6950000007,1,37393.988,1561.70700000075,0,NA,"Rating Scale","Rating Scale",16,"object-86","BIQ",NA,"SUPPRF61251"
15,1711130818563,"22/03/2024 18:06:58",1711130818563,0,"22/03/2024 18:06:58",172741,3,"task-gjqt",NA,36357349,NA,"complete",NA,"65fdc439d78b83735eacceca","computer","Desktop or Laptop","Mac OS 10.15.7","Chrome 118.0.0.0","1440x900","588x705",NA,NA,0,"BIQ (Charlotte)",3,"ABJCIDHEGF","Passed AC2",NA,"Spreadsheet1",1,"BIQ","Screen 3","iz3the",3,"continue","",16177.905,16144.573,16177.905,16177.905,16144.573,16177.905,1,16177.905,0,0,NA,"Click To Continue","Continue Button",22,"object-73","BIQ",NA,"SUPPRF61251"
16,1711130818566,"22/03/2024 18:06:58",1711130818566,0,"22/03/2024 18:06:58",172741,3,"task-gjqt",NA,36357349,NA,"complete",NA,"65fdc439d78b83735eacceca","computer","Desktop or Laptop","Mac OS 10.15.7","Chrome 118.0.0.0","1440x900","588x705",NA,NA,0,"BIQ (Charlotte)",3,"ABJCIDHEGF","Passed AC2",NA,"Spreadsheet1",1,"BIQ","Screen 3","iz3the",3,"response","1",11611.421,16144.573,16177.905,11611.421,16144.573,16177.905,1,11611.421,4566.484,0,NA,"Rating Scale","Rating Scale",2,"object-53","BIQ",NA,"SUPPRF61251"
17,1711130818567,"22/03/2024 18:06:58",1711130818567,0,"22/03/2024 18:06:58",172741,3,"task-gjqt",NA,36357349,NA,"complete",NA,"65fdc439d78b83735eacceca","computer","Desktop or Laptop","Mac OS 10.15.7","Chrome 118.0.0.0","1440x900","588x705",NA,NA,0,"BIQ (Charlotte)",3,"ABJCIDHEGF","Passed AC2",NA,"Spreadsheet1",1,"BIQ","Screen 3","iz3the",3,"response","1",13511.345,16144.573,16177.905,13511.345,16144.573,16177.905,1,13511.345,2666.56,0,NA,"Rating Scale","Rating Scale",9,"object-60","BIQ",NA,"SUPPRF61251"
18,1711130818567,"22/03/2024 18:06:58",1711130818567,0,"22/03/2024 18:06:58",172741,3,"task-gjqt",NA,36357349,NA,"complete",NA,"65fdc439d78b83735eacceca","computer","Desktop or Laptop","Mac OS 10.15.7","Chrome 118.0.0.0","1440x900","588x705",NA,NA,0,"BIQ (Charlotte)",3,"ABJCIDHEGF","Passed AC2",NA,"Spreadsheet1",1,"BIQ","Screen 3","iz3the",3,"response","2",14811.293,16144.573,16177.905,14811.293,16144.573,16177.905,1,14811.293,1366.61200000002,0,NA,"Rating Scale","Rating Scale",16,"object-67","BIQ",NA,"SUPPRF61251"
19,1711130818575,"22/03/2024 18:06:58",1711130818575,0,"22/03/2024 18:06:58",172741,3,"task-gjqt",NA,36357349,NA,"complete",NA,"65fdc439d78b83735eacceca","computer","Desktop or Laptop","Mac OS 10.15.7","Chrome 118.0.0.0","1440x900","588x705",NA,NA,0,"BIQ (Charlotte)",3,"ABJCIDHEGF","Passed AC2",NA,"Spreadsheet1",NA,"","","",NA,"5","END",NA,NA,NA,NA,NA,NA,0,NA,NA,NA,NA,"","",NA,"","",NA,"SUPPRF61251"
1,1711132826324,"22/03/2024 18:40:26",1711132826324,0,"22/03/2024 18:40:26",172741,3,"task-gjqt",NA,36358607,NA,"complete",NA,"65fdc810943d2c23752a24a8","computer","Desktop or Laptop","Windows 10","Chrome 122.0.0.0","1536x864","1536x730",NA,NA,0,"BIQ (Charlotte)",3,"EFDGCHBIAJ","Passed AC2",NA,"Spreadsheet1",NA,"","","",NA,"5","BEGIN",NA,NA,NA,NA,NA,NA,0,NA,NA,NA,NA,"","",NA,"","",NA,"SUPPRF06189"
2,1711132865241,"22/03/2024 18:41:05",1711132865241,0,"22/03/2024 18:41:05",172741,3,"task-gjqt",NA,36358607,NA,"complete",NA,"65fdc810943d2c23752a24a8","computer","Desktop or Laptop","Windows 10","Chrome 122.0.0.0","1536x864","1536x730",NA,NA,0,"BIQ (Charlotte)",3,"EFDGCHBIAJ","Passed AC2",NA,"Spreadsheet1",1,"BIQ","Screen 1","9dh6eq",1,"continue","",38930.9000000477,38914.7,38930.9000000477,38930.9000000477,38914.7,38930.9000000477,1,38930.9000000477,0,0,NA,"Click To Continue","Continue Button",23,"object-48","BIQ",NA,"SUPPRF06189"
3,1711132890670,"22/03/2024 18:41:30",1711132890670,0,"22/03/2024 18:41:30",172741,3,"task-gjqt",NA,36358607,NA,"complete",NA,"65fdc810943d2c23752a24a8","computer","Desktop or Laptop","Windows 10","Chrome 122.0.0.0","1536x864","1536x730",NA,NA,0,"BIQ (Charlotte)",3,"EFDGCHBIAJ","Passed AC2",NA,"Spreadsheet1",1,"BIQ","Screen 1","9dh6eq",1,"continue","",64360.4000000477,64357.8,64360.4000000477,64360.4000000477,64357.8,64360.4000000477,1,64360.4000000477,0,0,NA,"Click To Continue","Continue Button",23,"object-48","BIQ",NA,"SUPPRF06189"
4,1711132893934,"22/03/2024 18:41:33",1711132893934,0,"22/03/2024 18:41:33",172741,3,"task-gjqt",NA,36358607,NA,"complete",NA,"65fdc810943d2c23752a24a8","computer","Desktop or Laptop","Windows 10","Chrome 122.0.0.0","1536x864","1536x730",NA,NA,0,"BIQ (Charlotte)",3,"EFDGCHBIAJ","Passed AC2",NA,"Spreadsheet1",1,"BIQ","Screen 1","9dh6eq",1,"continue","",67624.0000000715,67609.1,67624.0000000715,67624.0000000715,67609.1,67624.0000000715,1,67624.0000000715,0,0,NA,"Click To Continue","Continue Button",23,"object-48","BIQ",NA,"SUPPRF06189"
5,1711132895866,"22/03/2024 18:41:35",1711132895866,0,"22/03/2024 18:41:35",172741,3,"task-gjqt",NA,36358607,NA,"complete",NA,"65fdc810943d2c23752a24a8","computer","Desktop or Laptop","Windows 10","Chrome 122.0.0.0","1536x864","1536x730",NA,NA,0,"BIQ (Charlotte)",3,"EFDGCHBIAJ","Passed AC2",NA,"Spreadsheet1",1,"BIQ","Screen 1","9dh6eq",1,"continue","",69556.4000000477,69543.5,69556.4000000477,69556.4000000477,69543.5,69556.4000000477,1,69556.4000000477,0,0,NA,"Click To Continue","Continue Button",23,"object-48","BIQ",NA,"SUPPRF06189"
6,1711132896070,"22/03/2024 18:41:36",1711132896070,0,"22/03/2024 18:41:36",172741,3,"task-gjqt",NA,36358607,NA,"complete",NA,"65fdc810943d2c23752a24a8","computer","Desktop or Laptop","Windows 10","Chrome 122.0.0.0","1536x864","1536x730",NA,NA,0,"BIQ (Charlotte)",3,"EFDGCHBIAJ","Passed AC2",NA,"Spreadsheet1",1,"BIQ","Screen 1","9dh6eq",1,"continue","",69760.6000000954,69759.8,69760.6000000954,69760.6000000954,69759.8,69760.6000000954,1,69760.6000000954,0,0,NA,"Click To Continue","Continue Button",23,"object-48","BIQ",NA,"SUPPRF06189"
7,1711132900670,"22/03/2024 18:41:40",1711132900670,0,"22/03/2024 18:41:40",172741,3,"task-gjqt",NA,36358607,NA,"complete",NA,"65fdc810943d2c23752a24a8","computer","Desktop or Laptop","Windows 10","Chrome 122.0.0.0","1536x864","1536x730",NA,NA,0,"BIQ (Charlotte)",3,"EFDGCHBIAJ","Passed AC2",NA,"Spreadsheet1",1,"BIQ","Screen 1","9dh6eq",1,"continue","",74361.0000000715,74345,74361.0000000715,74361.0000000715,74345,74361.0000000715,1,74361.0000000715,0,0,NA,"Click To Continue","Continue Button",23,"object-48","BIQ",NA,"SUPPRF06189"
8,1711132900876,"22/03/2024 18:41:40",1711132900876,0,"22/03/2024 18:41:40",172741,3,"task-gjqt",NA,36358607,NA,"complete",NA,"65fdc810943d2c23752a24a8","computer","Desktop or Laptop","Windows 10","Chrome 122.0.0.0","1536x864","1536x730",NA,NA,0,"BIQ (Charlotte)",3,"EFDGCHBIAJ","Passed AC2",NA,"Spreadsheet1",1,"BIQ","Screen 1","9dh6eq",1,"continue","",74567.3000000238,74561.7,74567.3000000238,74567.3000000238,74561.7,74567.3000000238,1,74567.3000000238,0,0,NA,"Click To Continue","Continue Button",23,"object-48","BIQ",NA,"SUPPRF06189"
9,1711132901055,"22/03/2024 18:41:41",1711132901055,0,"22/03/2024 18:41:41",172741,3,"task-gjqt",NA,36358607,NA,"complete",NA,"65fdc810943d2c23752a24a8","computer","Desktop or Laptop","Windows 10","Chrome 122.0.0.0","1536x864","1536x730",NA,NA,0,"BIQ (Charlotte)",3,"EFDGCHBIAJ","Passed AC2",NA,"Spreadsheet1",1,"BIQ","Screen 1","9dh6eq",1,"continue","",74746.3000000238,74744.9,74746.3000000238,74746.3000000238,74744.9,74746.3000000238,1,74746.3000000238,0,0,NA,"Click To Continue","Continue Button",23,"object-48","BIQ",NA,"SUPPRF06189"
10,1711132901241,"22/03/2024 18:41:41",1711132901241,0,"22/03/2024 18:41:41",172741,3,"task-gjqt",NA,36358607,NA,"complete",NA,"65fdc810943d2c23752a24a8","computer","Desktop or Laptop","Windows 10","Chrome 122.0.0.0","1536x864","1536x730",NA,NA,0,"BIQ (Charlotte)",3,"EFDGCHBIAJ","Passed AC2",NA,"Spreadsheet1",1,"BIQ","Screen 1","9dh6eq",1,"continue","",74931.5000000715,74928.4,74931.5000000715,74931.5000000715,74928.4,74931.5000000715,1,74931.5000000715,0,0,NA,"Click To Continue","Continue Button",23,"object-48","BIQ",NA,"SUPPRF06189"
11,1711132901494,"22/03/2024 18:41:41",1711132901494,0,"22/03/2024 18:41:41",172741,3,"task-gjqt",NA,36358607,NA,"complete",NA,"65fdc810943d2c23752a24a8","computer","Desktop or Laptop","Windows 10","Chrome 122.0.0.0","1536x864","1536x730",NA,NA,0,"BIQ (Charlotte)",3,"EFDGCHBIAJ","Passed AC2",NA,"Spreadsheet1",1,"BIQ","Screen 1","9dh6eq",1,"continue","",75185.3000000238,75178.5,75185.3000000238,75185.3000000238,75178.5,75185.3000000238,1,75185.3000000238,0,0,NA,"Click To Continue","Continue Button",23,"object-48","BIQ",NA,"SUPPRF06189"
12,1711132901737,"22/03/2024 18:41:41",1711132901737,0,"22/03/2024 18:41:41",172741,3,"task-gjqt",NA,36358607,NA,"complete",NA,"65fdc810943d2c23752a24a8","computer","Desktop or Laptop","Windows 10","Chrome 122.0.0.0","1536x864","1536x730",NA,NA,0,"BIQ (Charlotte)",3,"EFDGCHBIAJ","Passed AC2",NA,"Spreadsheet1",1,"BIQ","Screen 1","9dh6eq",1,"continue","",75428.1000000954,75412.1,75428.1000000954,75428.1000000954,75412.1,75428.1000000954,1,75428.1000000954,0,0,NA,"Click To Continue","Continue Button",23,"object-48","BIQ",NA,"SUPPRF06189"
13,1711132901948,"22/03/2024 18:41:41",1711132901948,0,"22/03/2024 18:41:41",172741,3,"task-gjqt",NA,36358607,NA,"complete",NA,"65fdc810943d2c23752a24a8","computer","Desktop or Laptop","Windows 10","Chrome 122.0.0.0","1536x864","1536x730",NA,NA,0,"BIQ (Charlotte)",3,"EFDGCHBIAJ","Passed AC2",NA,"Spreadsheet1",1,"BIQ","Screen 1","9dh6eq",1,"continue","",75639.1000000954,75628.9,75639.1000000954,75639.1000000954,75628.9,75639.1000000954,1,75639.1000000954,0,0,NA,"Click To Continue","Continue Button",23,"object-48","BIQ",NA,"SUPPRF06189"
14,1711132902269,"22/03/2024 18:41:42",1711132902269,0,"22/03/2024 18:41:42",172741,3,"task-gjqt",NA,36358607,NA,"complete",NA,"65fdc810943d2c23752a24a8","computer","Desktop or Laptop","Windows 10","Chrome 122.0.0.0","1536x864","1536x730",NA,NA,0,"BIQ (Charlotte)",3,"EFDGCHBIAJ","Passed AC2",NA,"Spreadsheet1",1,"BIQ","Screen 1","9dh6eq",1,"continue","",75959.6000000954,75945.6,75959.6000000954,75959.6000000954,75945.6,75959.6000000954,1,75959.6000000954,0,0,NA,"Click To Continue","Continue Button",23,"object-48","BIQ",NA,"SUPPRF06189"
15,1711132903269,"22/03/2024 18:41:43",1711132903269,0,"22/03/2024 18:41:43",172741,3,"task-gjqt",NA,36358607,NA,"complete",NA,"65fdc810943d2c23752a24a8","computer","Desktop or Laptop","Windows 10","Chrome 122.0.0.0","1536x864","1536x730",NA,NA,0,"BIQ (Charlotte)",3,"EFDGCHBIAJ","Passed AC2",NA,"Spreadsheet1",1,"BIQ","Screen 1","9dh6eq",1,"continue","",76960.2,76945.9,76960.2,76960.2,76945.9,76960.2,1,76960.2,0,0,NA,"Click To Continue","Continue Button",23,"object-48","BIQ",NA,"SUPPRF06189"
16,1711132903440,"22/03/2024 18:41:43",1711132903440,0,"22/03/2024 18:41:43",172741,3,"task-gjqt",NA,36358607,NA,"complete",NA,"65fdc810943d2c23752a24a8","computer","Desktop or Laptop","Windows 10","Chrome 122.0.0.0","1536x864","1536x730",NA,NA,0,"BIQ (Charlotte)",3,"EFDGCHBIAJ","Passed AC2",NA,"Spreadsheet1",1,"BIQ","Screen 1","9dh6eq",1,"continue","",77131.3000000238,77129.2,77131.3000000238,77131.3000000238,77129.2,77131.3000000238,1,77131.3000000238,0,0,NA,"Click To Continue","Continue Button",23,"object-48","BIQ",NA,"SUPPRF06189"
17,1711132903607,"22/03/2024 18:41:43",1711132903607,0,"22/03/2024 18:41:43",172741,3,"task-gjqt",NA,36358607,NA,"complete",NA,"65fdc810943d2c23752a24a8","computer","Desktop or Laptop","Windows 10","Chrome 122.0.0.0","1536x864","1536x730",NA,NA,0,"BIQ (Charlotte)",3,"EFDGCHBIAJ","Passed AC2",NA,"Spreadsheet1",1,"BIQ","Screen 1","9dh6eq",1,"continue","",77297.6000000954,77296,77297.6000000954,77297.6000000954,77296,77297.6000000954,1,77297.6000000954,0,0,NA,"Click To Continue","Continue Button",23,"object-48","BIQ",NA,"SUPPRF06189"
18,1711132903767,"22/03/2024 18:41:43",1711132903767,0,"22/03/2024 18:41:43",172741,3,"task-gjqt",NA,36358607,NA,"complete",NA,"65fdc810943d2c23752a24a8","computer","Desktop or Laptop","Windows 10","Chrome 122.0.0.0","1536x864","1536x730",NA,NA,0,"BIQ (Charlotte)",3,"EFDGCHBIAJ","Passed AC2",NA,"Spreadsheet1",1,"BIQ","Screen 1","9dh6eq",1,"continue","",77458.0000000715,77446.3,77458.0000000715,77458.0000000715,77446.3,77458.0000000715,1,77458.0000000715,0,0,NA,"Click To Continue","Continue Button",23,"object-48","BIQ",NA,"SUPPRF06189"
19,1711132905996,"22/03/2024 18:41:45",1711132905996,0,"22/03/2024 18:41:45",172741,3,"task-gjqt",NA,36358607,NA,"complete",NA,"65fdc810943d2c23752a24a8","computer","Desktop or Laptop","Windows 10","Chrome 122.0.0.0","1536x864","1536x730",NA,NA,0,"BIQ (Charlotte)",3,"EFDGCHBIAJ","Passed AC2",NA,"Spreadsheet1",NA,"","","",NA,"5","BEGIN",NA,NA,NA,NA,NA,NA,0,NA,NA,NA,NA,"","",NA,"","",NA,"SUPPRF06189"
20,1711132922206,"22/03/2024 18:42:02",1711132922206,0,"22/03/2024 18:42:02",172741,3,"task-gjqt",NA,36358607,NA,"complete",NA,"65fdc810943d2c23752a24a8","computer","Desktop or Laptop","Windows 10","Chrome 122.0.0.0","1536x864","1536x730",NA,NA,0,"BIQ (Charlotte)",3,"EFDGCHBIAJ","Passed AC2",NA,"Spreadsheet1",1,"BIQ","Screen 1","9dh6eq",1,"continue","",16216.2679999762,16206.368,16216.2679999762,16216.2679999762,16206.368,16216.2679999762,1,16216.2679999762,0,0,NA,"Click To Continue","Continue Button",23,"object-48","BIQ",NA,"SUPPRF06189"
21,1711132923128,"22/03/2024 18:42:03",1711132923128,0,"22/03/2024 18:42:03",172741,3,"task-gjqt",NA,36358607,NA,"complete",NA,"65fdc810943d2c23752a24a8","computer","Desktop or Laptop","Windows 10","Chrome 122.0.0.0","1536x864","1536x730",NA,NA,0,"BIQ (Charlotte)",3,"EFDGCHBIAJ","Passed AC2",NA,"Spreadsheet1",1,"BIQ","Screen 1","9dh6eq",1,"continue","",17139.0679999285,17123.368,17139.0679999285,17139.0679999285,17123.368,17139.0679999285,1,17139.0679999285,0,0,NA,"Click To Continue","Continue Button",23,"object-48","BIQ",NA,"SUPPRF06189"
22,1711132923302,"22/03/2024 18:42:03",1711132923302,0,"22/03/2024 18:42:03",172741,3,"task-gjqt",NA,36358607,NA,"complete",NA,"65fdc810943d2c23752a24a8","computer","Desktop or Laptop","Windows 10","Chrome 122.0.0.0","1536x864","1536x730",NA,NA,0,"BIQ (Charlotte)",3,"EFDGCHBIAJ","Passed AC2",NA,"Spreadsheet1",1,"BIQ","Screen 1","9dh6eq",1,"continue","",17312.5679999285,17306.668,17312.5679999285,17312.5679999285,17306.668,17312.5679999285,1,17312.5679999285,0,0,NA,"Click To Continue","Continue Button",23,"object-48","BIQ",NA,"SUPPRF06189"
23,1711132923503,"22/03/2024 18:42:03",1711132923503,0,"22/03/2024 18:42:03",172741,3,"task-gjqt",NA,36358607,NA,"complete",NA,"65fdc810943d2c23752a24a8","computer","Desktop or Laptop","Windows 10","Chrome 122.0.0.0","1536x864","1536x730",NA,NA,0,"BIQ (Charlotte)",3,"EFDGCHBIAJ","Passed AC2",NA,"Spreadsheet1",1,"BIQ","Screen 1","9dh6eq",1,"continue","",17513.6679999523,17506.668,17513.6679999523,17513.6679999523,17506.668,17513.6679999523,1,17513.6679999523,0,0,NA,"Click To Continue","Continue Button",23,"object-48","BIQ",NA,"SUPPRF06189"
24,1711132923773,"22/03/2024 18:42:03",1711132923773,0,"22/03/2024 18:42:03",172741,3,"task-gjqt",NA,36358607,NA,"complete",NA,"65fdc810943d2c23752a24a8","computer","Desktop or Laptop","Windows 10","Chrome 122.0.0.0","1536x864","1536x730",NA,NA,0,"BIQ (Charlotte)",3,"EFDGCHBIAJ","Passed AC2",NA,"Spreadsheet1",1,"BIQ","Screen 1","9dh6eq",1,"continue","",17783.4680000238,17773.368,17783.4680000238,17783.4680000238,17773.368,17783.4680000238,1,17783.4680000238,0,0,NA,"Click To Continue","Continue Button",23,"object-48","BIQ",NA,"SUPPRF06189"
25,1711132923962,"22/03/2024 18:42:03",1711132923962,0,"22/03/2024 18:42:03",172741,3,"task-gjqt",NA,36358607,NA,"complete",NA,"65fdc810943d2c23752a24a8","computer","Desktop or Laptop","Windows 10","Chrome 122.0.0.0","1536x864","1536x730",NA,NA,0,"BIQ (Charlotte)",3,"EFDGCHBIAJ","Passed AC2",NA,"Spreadsheet1",1,"BIQ","Screen 1","9dh6eq",1,"continue","",17972.6679999523,17957.168,17972.6679999523,17972.6679999523,17957.168,17972.6679999523,1,17972.6679999523,0,0,NA,"Click To Continue","Continue Button",23,"object-48","BIQ",NA,"SUPPRF06189"
26,1711132924137,"22/03/2024 18:42:04",1711132924137,0,"22/03/2024 18:42:04",172741,3,"task-gjqt",NA,36358607,NA,"complete",NA,"65fdc810943d2c23752a24a8","computer","Desktop or Laptop","Windows 10","Chrome 122.0.0.0","1536x864","1536x730",NA,NA,0,"BIQ (Charlotte)",3,"EFDGCHBIAJ","Passed AC2",NA,"Spreadsheet1",1,"BIQ","Screen 1","9dh6eq",1,"continue","",18148.2679999762,18140.368,18148.2679999762,18148.2679999762,18140.368,18148.2679999762,1,18148.2679999762,0,0,NA,"Click To Continue","Continue Button",23,"object-48","BIQ",NA,"SUPPRF06189"
27,1711132924316,"22/03/2024 18:42:04",1711132924316,0,"22/03/2024 18:42:04",172741,3,"task-gjqt",NA,36358607,NA,"complete",NA,"65fdc810943d2c23752a24a8","computer","Desktop or Laptop","Windows 10","Chrome 122.0.0.0","1536x864","1536x730",NA,NA,0,"BIQ (Charlotte)",3,"EFDGCHBIAJ","Passed AC2",NA,"Spreadsheet1",1,"BIQ","Screen 1","9dh6eq",1,"continue","",18327.0679999285,18323.668,18327.0679999285,18327.0679999285,18323.668,18327.0679999285,1,18327.0679999285,0,0,NA,"Click To Continue","Continue Button",23,"object-48","BIQ",NA,"SUPPRF06189"
28,1711132924500,"22/03/2024 18:42:04",1711132924500,0,"22/03/2024 18:42:04",172741,3,"task-gjqt",NA,36358607,NA,"complete",NA,"65fdc810943d2c23752a24a8","computer","Desktop or Laptop","Windows 10","Chrome 122.0.0.0","1536x864","1536x730",NA,NA,0,"BIQ (Charlotte)",3,"EFDGCHBIAJ","Passed AC2",NA,"Spreadsheet1",1,"BIQ","Screen 1","9dh6eq",1,"continue","",18510.9680000238,18507.168,18510.9680000238,18510.9680000238,18507.168,18510.9680000238,1,18510.9680000238,0,0,NA,"Click To Continue","Continue Button",23,"object-48","BIQ",NA,"SUPPRF06189"
29,1711132924740,"22/03/2024 18:42:04",1711132924740,0,"22/03/2024 18:42:04",172741,3,"task-gjqt",NA,36358607,NA,"complete",NA,"65fdc810943d2c23752a24a8","computer","Desktop or Laptop","Windows 10","Chrome 122.0.0.0","1536x864","1536x730",NA,NA,0,"BIQ (Charlotte)",3,"EFDGCHBIAJ","Passed AC2",NA,"Spreadsheet1",1,"BIQ","Screen 1","9dh6eq",1,"continue","",18751.0679999285,18740.668,18751.0679999285,18751.0679999285,18740.668,18751.0679999285,1,18751.0679999285,0,0,NA,"Click To Continue","Continue Button",23,"object-48","BIQ",NA,"SUPPRF06189"
30,1711132925373,"22/03/2024 18:42:05",1711132925373,0,"22/03/2024 18:42:05",172741,3,"task-gjqt",NA,36358607,NA,"complete",NA,"65fdc810943d2c23752a24a8","computer","Desktop or Laptop","Windows 10","Chrome 122.0.0.0","1536x864","1536x730",NA,NA,0,"BIQ (Charlotte)",3,"EFDGCHBIAJ","Passed AC2",NA,"Spreadsheet1",1,"BIQ","Screen 1","9dh6eq",1,"continue","",19383.6679999523,19374.268,19383.6679999523,19383.6679999523,19374.268,19383.6679999523,1,19383.6679999523,0,0,NA,"Click To Continue","Continue Button",23,"object-48","BIQ",NA,"SUPPRF06189"
31,1711132925566,"22/03/2024 18:42:05",1711132925566,0,"22/03/2024 18:42:05",172741,3,"task-gjqt",NA,36358607,NA,"complete",NA,"65fdc810943d2c23752a24a8","computer","Desktop or Laptop","Windows 10","Chrome 122.0.0.0","1536x864","1536x730",NA,NA,0,"BIQ (Charlotte)",3,"EFDGCHBIAJ","Passed AC2",NA,"Spreadsheet1",1,"BIQ","Screen 1","9dh6eq",1,"continue","",19576.6679999523,19574.268,19576.6679999523,19576.6679999523,19574.268,19576.6679999523,1,19576.6679999523,0,0,NA,"Click To Continue","Continue Button",23,"object-48","BIQ",NA,"SUPPRF06189"
32,1711132925741,"22/03/2024 18:42:05",1711132925741,0,"22/03/2024 18:42:05",172741,3,"task-gjqt",NA,36358607,NA,"complete",NA,"65fdc810943d2c23752a24a8","computer","Desktop or Laptop","Windows 10","Chrome 122.0.0.0","1536x864","1536x730",NA,NA,0,"BIQ (Charlotte)",3,"EFDGCHBIAJ","Passed AC2",NA,"Spreadsheet1",1,"BIQ","Screen 1","9dh6eq",1,"continue","",19751.4680000238,19740.968,19751.4680000238,19751.4680000238,19740.968,19751.4680000238,1,19751.4680000238,0,0,NA,"Click To Continue","Continue Button",23,"object-48","BIQ",NA,"SUPPRF06189"
33,1711132925870,"22/03/2024 18:42:05",1711132925870,0,"22/03/2024 18:42:05",172741,3,"task-gjqt",NA,36358607,NA,"complete",NA,"65fdc810943d2c23752a24a8","computer","Desktop or Laptop","Windows 10","Chrome 122.0.0.0","1536x864","1536x730",NA,NA,0,"BIQ (Charlotte)",3,"EFDGCHBIAJ","Passed AC2",NA,"Spreadsheet1",1,"BIQ","Screen 1","9dh6eq",1,"continue","",19880.6679999523,19874.568,19880.6679999523,19880.6679999523,19874.568,19880.6679999523,1,19880.6679999523,0,0,NA,"Click To Continue","Continue Button",23,"object-48","BIQ",NA,"SUPPRF06189"
34,1711132926024,"22/03/2024 18:42:06",1711132926024,0,"22/03/2024 18:42:06",172741,3,"task-gjqt",NA,36358607,NA,"complete",NA,"65fdc810943d2c23752a24a8","computer","Desktop or Laptop","Windows 10","Chrome 122.0.0.0","1536x864","1536x730",NA,NA,0,"BIQ (Charlotte)",3,"EFDGCHBIAJ","Passed AC2",NA,"Spreadsheet1",1,"BIQ","Screen 1","9dh6eq",1,"continue","",20034.4680000238,20024.468,20034.4680000238,20034.4680000238,20024.468,20034.4680000238,1,20034.4680000238,0,0,NA,"Click To Continue","Continue Button",23,"object-48","BIQ",NA,"SUPPRF06189"
35,1711132926198,"22/03/2024 18:42:06",1711132926198,0,"22/03/2024 18:42:06",172741,3,"task-gjqt",NA,36358607,NA,"complete",NA,"65fdc810943d2c23752a24a8","computer","Desktop or Laptop","Windows 10","Chrome 122.0.0.0","1536x864","1536x730",NA,NA,0,"BIQ (Charlotte)",3,"EFDGCHBIAJ","Passed AC2",NA,"Spreadsheet1",1,"BIQ","Screen 1","9dh6eq",1,"continue","",20208.168,20191.268,20208.168,20208.168,20191.268,20208.168,1,20208.168,0,0,NA,"Click To Continue","Continue Button",23,"object-48","BIQ",NA,"SUPPRF06189"
36,1711132926320,"22/03/2024 18:42:06",1711132926320,0,"22/03/2024 18:42:06",172741,3,"task-gjqt",NA,36358607,NA,"complete",NA,"65fdc810943d2c23752a24a8","computer","Desktop or Laptop","Windows 10","Chrome 122.0.0.0","1536x864","1536x730",NA,NA,0,"BIQ (Charlotte)",3,"EFDGCHBIAJ","Passed AC2",NA,"Spreadsheet1",1,"BIQ","Screen 1","9dh6eq",1,"continue","",20330.7679999762,20324.368,20330.7679999762,20330.7679999762,20324.368,20330.7679999762,1,20330.7679999762,0,0,NA,"Click To Continue","Continue Button",23,"object-48","BIQ",NA,"SUPPRF06189"
37,1711132933289,"22/03/2024 18:42:13",1711132933289,0,"22/03/2024 18:42:13",172741,3,"task-gjqt",NA,36358607,NA,"complete",NA,"65fdc810943d2c23752a24a8","computer","Desktop or Laptop","Windows 10","Chrome 122.0.0.0","1536x864","1536x730",NA,NA,0,"BIQ (Charlotte)",3,"EFDGCHBIAJ","Passed AC2",NA,"Spreadsheet1",1,"BIQ","Screen 1","9dh6eq",1,"continue","",27300.368,27293.768,27300.368,27300.368,27293.768,27300.368,1,27300.368,0,0,NA,"Click To Continue","Continue Button",23,"object-48","BIQ",NA,"SUPPRF06189"
38,1711132946402,"22/03/2024 18:42:26",1711132946402,0,"22/03/2024 18:42:26",172741,3,"task-gjqt",NA,36358607,NA,"complete",NA,"65fdc810943d2c23752a24a8","computer","Desktop or Laptop","Windows 10","Chrome 122.0.0.0","1536x864","1536x730",NA,NA,0,"BIQ (Charlotte)",3,"EFDGCHBIAJ","Passed AC2",NA,"Spreadsheet1",1,"BIQ","Screen 1","9dh6eq",1,"continue","",40413.0679999285,40398.868,40413.0679999285,40413.0679999285,40398.868,40413.0679999285,1,40413.0679999285,0,0,NA,"Click To Continue","Continue Button",23,"object-48","BIQ",NA,"SUPPRF06189"
39,1711132946406,"22/03/2024 18:42:26",1711132946406,0,"22/03/2024 18:42:26",172741,3,"task-gjqt",NA,36358607,NA,"complete",NA,"65fdc810943d2c23752a24a8","computer","Desktop or Laptop","Windows 10","Chrome 122.0.0.0","1536x864","1536x730",NA,NA,0,"BIQ (Charlotte)",3,"EFDGCHBIAJ","Passed AC2",NA,"Spreadsheet1",1,"BIQ","Screen 1","9dh6eq",1,"response","6",3501.368,40398.868,40415.368,3501.368,40398.868,40415.368,1,3501.368,36914,0,NA,"Rating Scale","Rating Scale",3,"object-5","BIQ",NA,"SUPPRF06189"
40,1711132946406,"22/03/2024 18:42:26",1711132946406,0,"22/03/2024 18:42:26",172741,3,"task-gjqt",NA,36358607,NA,"complete",NA,"65fdc810943d2c23752a24a8","computer","Desktop or Laptop","Windows 10","Chrome 122.0.0.0","1536x864","1536x730",NA,NA,0,"BIQ (Charlotte)",3,"EFDGCHBIAJ","Passed AC2",NA,"Spreadsheet1",1,"BIQ","Screen 1","9dh6eq",1,"response","0",38264.668,40398.868,40415.368,38264.668,40398.868,40415.368,1,38264.668,2150.7,0,NA,"Rating Scale","Rating Scale",10,"object-18","BIQ",NA,"SUPPRF06189"
41,1711132946406,"22/03/2024 18:42:26",1711132946406,0,"22/03/2024 18:42:26",172741,3,"task-gjqt",NA,36358607,NA,"complete",NA,"65fdc810943d2c23752a24a8","computer","Desktop or Laptop","Windows 10","Chrome 122.0.0.0","1536x864","1536x730",NA,NA,0,"BIQ (Charlotte)",3,"EFDGCHBIAJ","Passed AC2",NA,"Spreadsheet1",1,"BIQ","Screen 1","9dh6eq",1,"response","5",15105.968,40398.868,40415.368,15105.968,40398.868,40415.368,1,15105.968,25309.4,0,NA,"Rating Scale","Rating Scale",17,"object-80","BIQ",NA,"SUPPRF06189"
42,1711132967383,"22/03/2024 18:42:47",1711132967383,0,"22/03/2024 18:42:47",172741,3,"task-gjqt",NA,36358607,NA,"complete",NA,"65fdc810943d2c23752a24a8","computer","Desktop or Laptop","Windows 10","Chrome 122.0.0.0","1536x864","1536x730",NA,NA,0,"BIQ (Charlotte)",3,"EFDGCHBIAJ","Passed AC2",NA,"Spreadsheet1",1,"BIQ","Screen 2","o21mwi",2,"continue","",20994.8999999762,20991.5,20994.8999999762,20994.8999999762,20991.5,20994.8999999762,1,20994.8999999762,0,0,NA,"Click To Continue","Continue Button",22,"object-50","BIQ",NA,"SUPPRF06189"
43,1711132967385,"22/03/2024 18:42:47",1711132967385,0,"22/03/2024 18:42:47",172741,3,"task-gjqt",NA,36358607,NA,"complete",NA,"65fdc810943d2c23752a24a8","computer","Desktop or Laptop","Windows 10","Chrome 122.0.0.0","1536x864","1536x730",NA,NA,0,"BIQ (Charlotte)",3,"EFDGCHBIAJ","Passed AC2",NA,"Spreadsheet1",1,"BIQ","Screen 2","o21mwi",2,"response","4",19707.2,20991.5,20996.6000000238,19707.2,20991.5,20996.6000000238,1,19707.2,1289.40000002384,0,NA,"Rating Scale","Rating Scale",2,"object-259","BIQ",NA,"SUPPRF06189"
44,1711132967385,"22/03/2024 18:42:47",1711132967385,0,"22/03/2024 18:42:47",172741,3,"task-gjqt",NA,36358607,NA,"complete",NA,"65fdc810943d2c23752a24a8","computer","Desktop or Laptop","Windows 10","Chrome 122.0.0.0","1536x864","1536x730",NA,NA,0,"BIQ (Charlotte)",3,"EFDGCHBIAJ","Passed AC2",NA,"Spreadsheet1",1,"BIQ","Screen 2","o21mwi",2,"response","3",10987.4,20991.5,20996.7999999523,10987.4,20991.5,20996.7999999523,1,10987.4,10009.3999999523,0,NA,"Rating Scale","Rating Scale",9,"object-36","BIQ",NA,"SUPPRF06189"
45,1711132967385,"22/03/2024 18:42:47",1711132967385,0,"22/03/2024 18:42:47",172741,3,"task-gjqt",NA,36358607,NA,"complete",NA,"65fdc810943d2c23752a24a8","computer","Desktop or Laptop","Windows 10","Chrome 122.0.0.0","1536x864","1536x730",NA,NA,0,"BIQ (Charlotte)",3,"EFDGCHBIAJ","Passed AC2",NA,"Spreadsheet1",1,"BIQ","Screen 2","o21mwi",2,"response","3",13571.9,20991.5,20996.8999999762,13571.9,20991.5,20996.8999999762,1,13571.9,7424.99999997616,0,NA,"Rating Scale","Rating Scale",16,"object-86","BIQ",NA,"SUPPRF06189"
46,1711132977917,"22/03/2024 18:42:57",1711132977917,0,"22/03/2024 18:42:57",172741,3,"task-gjqt",NA,36358607,NA,"complete",NA,"65fdc810943d2c23752a24a8","computer","Desktop or Laptop","Windows 10","Chrome 122.0.0.0","1536x864","1536x730",NA,NA,0,"BIQ (Charlotte)",3,"EFDGCHBIAJ","Passed AC2",NA,"Spreadsheet1",1,"BIQ","Screen 3","iz3the",3,"continue","",10536.7,10520.3,10536.7,10536.7,10520.3,10536.7,1,10536.7,0,0,NA,"Click To Continue","Continue Button",22,"object-73","BIQ",NA,"SUPPRF06189"
47,1711132977919,"22/03/2024 18:42:57",1711132977919,0,"22/03/2024 18:42:57",172741,3,"task-gjqt",NA,36358607,NA,"complete",NA,"65fdc810943d2c23752a24a8","computer","Desktop or Laptop","Windows 10","Chrome 122.0.0.0","1536x864","1536x730",NA,NA,0,"BIQ (Charlotte)",3,"EFDGCHBIAJ","Passed AC2",NA,"Spreadsheet1",1,"BIQ","Screen 3","iz3the",3,"response","4",3417.6,10520.3,10536.7,3417.6,10520.3,10536.7,1,3417.6,7119.10000000001,0,NA,"Rating Scale","Rating Scale",2,"object-53","BIQ",NA,"SUPPRF06189"
48,1711132977919,"22/03/2024 18:42:57",1711132977919,0,"22/03/2024 18:42:57",172741,3,"task-gjqt",NA,36358607,NA,"complete",NA,"65fdc810943d2c23752a24a8","computer","Desktop or Laptop","Windows 10","Chrome 122.0.0.0","1536x864","1536x730",NA,NA,0,"BIQ (Charlotte)",3,"EFDGCHBIAJ","Passed AC2",NA,"Spreadsheet1",1,"BIQ","Screen 3","iz3the",3,"response","3",6018.60000000001,10520.3,10536.7,6018.60000000001,10520.3,10536.7,1,6018.60000000001,4518.10000000001,0,NA,"Rating Scale","Rating Scale",9,"object-60","BIQ",NA,"SUPPRF06189"
49,1711132977919,"22/03/2024 18:42:57",1711132977919,0,"22/03/2024 18:42:57",172741,3,"task-gjqt",NA,36358607,NA,"complete",NA,"65fdc810943d2c23752a24a8","computer","Desktop or Laptop","Windows 10","Chrome 122.0.0.0","1536x864","1536x730",NA,NA,0,"BIQ (Charlotte)",3,"EFDGCHBIAJ","Passed AC2",NA,"Spreadsheet1",1,"BIQ","Screen 3","iz3the",3,"response","3",8352.89999999999,10520.3,10536.7,8352.89999999999,10520.3,10536.7,1,8352.89999999999,2183.80000000002,0,NA,"Rating Scale","Rating Scale",16,"object-67","BIQ",NA,"SUPPRF06189"
50,1711132977922,"22/03/2024 18:42:57",1711132977922,0,"22/03/2024 18:42:57",172741,3,"task-gjqt",NA,36358607,NA,"complete",NA,"65fdc810943d2c23752a24a8","computer","Desktop or Laptop","Windows 10","Chrome 122.0.0.0","1536x864","1536x730",NA,NA,0,"BIQ (Charlotte)",3,"EFDGCHBIAJ","Passed AC2",NA,"Spreadsheet1",NA,"","","",NA,"5","END",NA,NA,NA,NA,NA,NA,0,NA,NA,NA,NA,"","",NA,"","",NA,"SUPPRF06189"
1,1711152124437,"23/03/2024 00:02:04",1711152124437,0,"23/03/2024 00:02:04",172741,3,"task-gjqt",NA,36365583,NA,"complete",NA,"65fe1b1d1e16876d59dc5f42","computer","Desktop or Laptop","Mac OS 10.15.7","Chrome 123.0.0.0","1470x956","1470x833",NA,NA,0,"BIQ (Charlotte)",3,"HIGJFAEBDC","Passed AC2",NA,"Spreadsheet1",NA,"","","",NA,"5","BEGIN",NA,NA,NA,NA,NA,NA,0,NA,NA,NA,NA,"","",NA,"","",NA,"SUPPRF00748"
2,1711152150271,"23/03/2024 00:02:30",1711152150271,0,"23/03/2024 00:02:30",172741,3,"task-gjqt",NA,36365583,NA,"complete",NA,"65fe1b1d1e16876d59dc5f42","computer","Desktop or Laptop","Mac OS 10.15.7","Chrome 123.0.0.0","1470x956","1470x833",NA,NA,0,"BIQ (Charlotte)",3,"HIGJFAEBDC","Passed AC2",NA,"Spreadsheet1",1,"BIQ","Screen 1","9dh6eq",1,"continue","",25844.2000000007,25833.2,25844.2000000007,25844.2000000007,25833.2,25844.2000000007,1,25844.2000000007,0,0,NA,"Click To Continue","Continue Button",23,"object-48","BIQ",NA,"SUPPRF00748"
3,1711152158210,"23/03/2024 00:02:38",1711152158210,0,"23/03/2024 00:02:38",172741,3,"task-gjqt",NA,36365583,NA,"complete",NA,"65fe1b1d1e16876d59dc5f42","computer","Desktop or Laptop","Mac OS 10.15.7","Chrome 123.0.0.0","1470x956","1470x833",NA,NA,0,"BIQ (Charlotte)",3,"HIGJFAEBDC","Passed AC2",NA,"Spreadsheet1",1,"BIQ","Screen 1","9dh6eq",1,"continue","",33783.4,33766.5,33783.4,33783.4,33766.5,33783.4,1,33783.4,0,0,NA,"Click To Continue","Continue Button",23,"object-48","BIQ",NA,"SUPPRF00748"
4,1711152159121,"23/03/2024 00:02:39",1711152159121,0,"23/03/2024 00:02:39",172741,3,"task-gjqt",NA,36365583,NA,"complete",NA,"65fe1b1d1e16876d59dc5f42","computer","Desktop or Laptop","Mac OS 10.15.7","Chrome 123.0.0.0","1470x956","1470x833",NA,NA,0,"BIQ (Charlotte)",3,"HIGJFAEBDC","Passed AC2",NA,"Spreadsheet1",1,"BIQ","Screen 1","9dh6eq",1,"continue","",34694.4,34683.1,34694.4,34694.4,34683.1,34694.4,1,34694.4,0,0,NA,"Click To Continue","Continue Button",23,"object-48","BIQ",NA,"SUPPRF00748"
5,1711152159308,"23/03/2024 00:02:39",1711152159308,0,"23/03/2024 00:02:39",172741,3,"task-gjqt",NA,36365583,NA,"complete",NA,"65fe1b1d1e16876d59dc5f42","computer","Desktop or Laptop","Mac OS 10.15.7","Chrome 123.0.0.0","1470x956","1470x833",NA,NA,0,"BIQ (Charlotte)",3,"HIGJFAEBDC","Passed AC2",NA,"Spreadsheet1",1,"BIQ","Screen 1","9dh6eq",1,"continue","",34880.7999999985,34866.4,34880.7999999985,34880.7999999985,34866.4,34880.7999999985,1,34880.7999999985,0,0,NA,"Click To Continue","Continue Button",23,"object-48","BIQ",NA,"SUPPRF00748"
6,1711152159494,"23/03/2024 00:02:39",1711152159494,0,"23/03/2024 00:02:39",172741,3,"task-gjqt",NA,36365583,NA,"complete",NA,"65fe1b1d1e16876d59dc5f42","computer","Desktop or Laptop","Mac OS 10.15.7","Chrome 123.0.0.0","1470x956","1470x833",NA,NA,0,"BIQ (Charlotte)",3,"HIGJFAEBDC","Passed AC2",NA,"Spreadsheet1",1,"BIQ","Screen 1","9dh6eq",1,"continue","",35066.5,35049.8,35066.5,35066.5,35049.8,35066.5,1,35066.5,0,0,NA,"Click To Continue","Continue Button",23,"object-48","BIQ",NA,"SUPPRF00748"
7,1711152160023,"23/03/2024 00:02:40",1711152160023,0,"23/03/2024 00:02:40",172741,3,"task-gjqt",NA,36365583,NA,"complete",NA,"65fe1b1d1e16876d59dc5f42","computer","Desktop or Laptop","Mac OS 10.15.7","Chrome 123.0.0.0","1470x956","1470x833",NA,NA,0,"BIQ (Charlotte)",3,"HIGJFAEBDC","Passed AC2",NA,"Spreadsheet1",1,"BIQ","Screen 1","9dh6eq",1,"continue","",35596.7000000007,35583,35596.7000000007,35596.7000000007,35583,35596.7000000007,1,35596.7000000007,0,0,NA,"Click To Continue","Continue Button",23,"object-48","BIQ",NA,"SUPPRF00748"
8,1711152187716,"23/03/2024 00:03:07",1711152187716,0,"23/03/2024 00:03:07",172741,3,"task-gjqt",NA,36365583,NA,"complete",NA,"65fe1b1d1e16876d59dc5f42","computer","Desktop or Laptop","Mac OS 10.15.7","Chrome 123.0.0.0","1470x956","1470x833",NA,NA,0,"BIQ (Charlotte)",3,"HIGJFAEBDC","Passed AC2",NA,"Spreadsheet1",1,"BIQ","Screen 1","9dh6eq",1,"continue","",63289.5000000015,63282.9,63289.5000000015,63289.5000000015,63282.9,63289.5000000015,1,63289.5000000015,0,0,NA,"Click To Continue","Continue Button",23,"object-48","BIQ",NA,"SUPPRF00748"
9,1711152187723,"23/03/2024 00:03:07",1711152187723,0,"23/03/2024 00:03:07",172741,3,"task-gjqt",NA,36365583,NA,"complete",NA,"65fe1b1d1e16876d59dc5f42","computer","Desktop or Laptop","Mac OS 10.15.7","Chrome 123.0.0.0","1470x956","1470x833",NA,NA,0,"BIQ (Charlotte)",3,"HIGJFAEBDC","Passed AC2",NA,"Spreadsheet1",1,"BIQ","Screen 1","9dh6eq",1,"response","7",10566.6,63282.9,63296.7999999985,10566.6,63282.9,63296.7999999985,1,10566.6,52730.1999999985,0,NA,"Rating Scale","Rating Scale",3,"object-5","BIQ",NA,"SUPPRF00748"
10,1711152187724,"23/03/2024 00:03:07",1711152187724,0,"23/03/2024 00:03:07",172741,3,"task-gjqt",NA,36365583,NA,"complete",NA,"65fe1b1d1e16876d59dc5f42","computer","Desktop or Laptop","Mac OS 10.15.7","Chrome 123.0.0.0","1470x956","1470x833",NA,NA,0,"BIQ (Charlotte)",3,"HIGJFAEBDC","Passed AC2",NA,"Spreadsheet1",1,"BIQ","Screen 1","9dh6eq",1,"response","2",54248.7,63282.9,63297.2999999985,54248.7,63282.9,63297.2999999985,1,54248.7,9048.59999999851,0,NA,"Rating Scale","Rating Scale",10,"object-18","BIQ",NA,"SUPPRF00748"
11,1711152187724,"23/03/2024 00:03:07",1711152187724,0,"23/03/2024 00:03:07",172741,3,"task-gjqt",NA,36365583,NA,"complete",NA,"65fe1b1d1e16876d59dc5f42","computer","Desktop or Laptop","Mac OS 10.15.7","Chrome 123.0.0.0","1470x956","1470x833",NA,NA,0,"BIQ (Charlotte)",3,"HIGJFAEBDC","Passed AC2",NA,"Spreadsheet1",1,"BIQ","Screen 1","9dh6eq",1,"response","3",62082.9,63282.9,63297.7000000007,62082.9,63282.9,63297.7000000007,1,62082.9,1214.80000000075,0,NA,"Rating Scale","Rating Scale",17,"object-80","BIQ",NA,"SUPPRF00748"
12,1711152207406,"23/03/2024 00:03:27",1711152207406,0,"23/03/2024 00:03:27",172741,3,"task-gjqt",NA,36365583,NA,"complete",NA,"65fe1b1d1e16876d59dc5f42","computer","Desktop or Laptop","Mac OS 10.15.7","Chrome 123.0.0.0","1470x956","1470x833",NA,NA,0,"BIQ (Charlotte)",3,"HIGJFAEBDC","Passed AC2",NA,"Spreadsheet1",1,"BIQ","Screen 2","o21mwi",2,"continue","",19695.8000000007,19683.1,19695.8000000007,19695.8000000007,19683.1,19695.8000000007,1,19695.8000000007,0,0,NA,"Click To Continue","Continue Button",22,"object-50","BIQ",NA,"SUPPRF00748"
13,1711152212510,"23/03/2024 00:03:32",1711152212510,0,"23/03/2024 00:03:32",172741,3,"task-gjqt",NA,36365583,NA,"complete",NA,"65fe1b1d1e16876d59dc5f42","computer","Desktop or Laptop","Mac OS 10.15.7","Chrome 123.0.0.0","1470x956","1470x833",NA,NA,0,"BIQ (Charlotte)",3,"HIGJFAEBDC","Passed AC2",NA,"Spreadsheet1",1,"BIQ","Screen 2","o21mwi",2,"continue","",24799.7,24783.1,24799.7,24799.7,24783.1,24799.7,1,24799.7,0,0,NA,"Click To Continue","Continue Button",22,"object-50","BIQ",NA,"SUPPRF00748"
14,1711152212511,"23/03/2024 00:03:32",1711152212511,0,"23/03/2024 00:03:32",172741,3,"task-gjqt",NA,36365583,NA,"complete",NA,"65fe1b1d1e16876d59dc5f42","computer","Desktop or Laptop","Mac OS 10.15.7","Chrome 123.0.0.0","1470x956","1470x833",NA,NA,0,"BIQ (Charlotte)",3,"HIGJFAEBDC","Passed AC2",NA,"Spreadsheet1",1,"BIQ","Screen 2","o21mwi",2,"response","2",23115.9,24783.1,24799.7,23115.9,24783.1,24799.7,1,23115.9,1683.80000000002,0,NA,"Rating Scale","Rating Scale",2,"object-259","BIQ",NA,"SUPPRF00748"
15,1711152212511,"23/03/2024 00:03:32",1711152212511,0,"23/03/2024 00:03:32",172741,3,"task-gjqt",NA,36365583,NA,"complete",NA,"65fe1b1d1e16876d59dc5f42","computer","Desktop or Laptop","Mac OS 10.15.7","Chrome 123.0.0.0","1470x956","1470x833",NA,NA,0,"BIQ (Charlotte)",3,"HIGJFAEBDC","Passed AC2",NA,"Spreadsheet1",1,"BIQ","Screen 2","o21mwi",2,"response","3",9966.60000000001,24783.1,24799.7,9966.60000000001,24783.1,24799.7,1,9966.60000000001,14833.1,0,NA,"Rating Scale","Rating Scale",9,"object-36","BIQ",NA,"SUPPRF00748"
16,1711152212511,"23/03/2024 00:03:32",1711152212511,0,"23/03/2024 00:03:32",172741,3,"task-gjqt",NA,36365583,NA,"complete",NA,"65fe1b1d1e16876d59dc5f42","computer","Desktop or Laptop","Mac OS 10.15.7","Chrome 123.0.0.0","1470x956","1470x833",NA,NA,0,"BIQ (Charlotte)",3,"HIGJFAEBDC","Passed AC2",NA,"Spreadsheet1",1,"BIQ","Screen 2","o21mwi",2,"response","4",15849.8,24783.1,24799.7,15849.8,24783.1,24799.7,1,15849.8,8949.90000000001,0,NA,"Rating Scale","Rating Scale",16,"object-86","BIQ",NA,"SUPPRF00748"
17,1711152250858,"23/03/2024 00:04:10",1711152250858,0,"23/03/2024 00:04:10",172741,3,"task-gjqt",NA,36365583,NA,"complete",NA,"65fe1b1d1e16876d59dc5f42","computer","Desktop or Laptop","Mac OS 10.15.7","Chrome 123.0.0.0","1470x956","1470x833",NA,NA,0,"BIQ (Charlotte)",3,"HIGJFAEBDC","Passed AC2",NA,"Spreadsheet1",1,"BIQ","Screen 3","iz3the",3,"continue","",38365.2000000007,38349.8,38365.2000000007,38365.2000000007,38349.8,38365.2000000007,1,38365.2000000007,0,0,NA,"Click To Continue","Continue Button",22,"object-73","BIQ",NA,"SUPPRF00748"
18,1711152250862,"23/03/2024 00:04:10",1711152250862,0,"23/03/2024 00:04:10",172741,3,"task-gjqt",NA,36365583,NA,"complete",NA,"65fe1b1d1e16876d59dc5f42","computer","Desktop or Laptop","Mac OS 10.15.7","Chrome 123.0.0.0","1470x956","1470x833",NA,NA,0,"BIQ (Charlotte)",3,"HIGJFAEBDC","Passed AC2",NA,"Spreadsheet1",1,"BIQ","Screen 3","iz3the",3,"response","4",19716.5,38349.8,38366.5,19716.5,38349.8,38366.5,1,19716.5,18650,0,NA,"Rating Scale","Rating Scale",2,"object-53","BIQ",NA,"SUPPRF00748"
19,1711152250862,"23/03/2024 00:04:10",1711152250862,0,"23/03/2024 00:04:10",172741,3,"task-gjqt",NA,36365583,NA,"complete",NA,"65fe1b1d1e16876d59dc5f42","computer","Desktop or Laptop","Mac OS 10.15.7","Chrome 123.0.0.0","1470x956","1470x833",NA,NA,0,"BIQ (Charlotte)",3,"HIGJFAEBDC","Passed AC2",NA,"Spreadsheet1",1,"BIQ","Screen 3","iz3the",3,"response","3",22149.8,38349.8,38366.5,22149.8,38349.8,38366.5,1,22149.8,16216.7,0,NA,"Rating Scale","Rating Scale",9,"object-60","BIQ",NA,"SUPPRF00748"
20,1711152250862,"23/03/2024 00:04:10",1711152250862,0,"23/03/2024 00:04:10",172741,3,"task-gjqt",NA,36365583,NA,"complete",NA,"65fe1b1d1e16876d59dc5f42","computer","Desktop or Laptop","Mac OS 10.15.7","Chrome 123.0.0.0","1470x956","1470x833",NA,NA,0,"BIQ (Charlotte)",3,"HIGJFAEBDC","Passed AC2",NA,"Spreadsheet1",1,"BIQ","Screen 3","iz3the",3,"response","3",32283.1,38349.8,38366.5,32283.1,38349.8,38366.5,1,32283.1,6083.39999999999,0,NA,"Rating Scale","Rating Scale",16,"object-67","BIQ",NA,"SUPPRF00748"
21,1711152250867,"23/03/2024 00:04:10",1711152250867,0,"23/03/2024 00:04:10",172741,3,"task-gjqt",NA,36365583,NA,"complete",NA,"65fe1b1d1e16876d59dc5f42","computer","Desktop or Laptop","Mac OS 10.15.7","Chrome 123.0.0.0","1470x956","1470x833",NA,NA,0,"BIQ (Charlotte)",3,"HIGJFAEBDC","Passed AC2",NA,"Spreadsheet1",NA,"","","",NA,"5","END",NA,NA,NA,NA,NA,NA,0,NA,NA,NA,NA,"","",NA,"","",NA,"SUPPRF00748"
1,1711297850939,"24/03/2024 16:30:50",1711297850939,0,"24/03/2024 16:30:50",172741,3,"task-gjqt",NA,36394218,NA,"complete",NA,"660054d858ab804f5f5af5b8","computer","Desktop or Laptop","Windows 10","Chrome 122.0.0.0","1536x864","2304x1094",NA,NA,0,"BIQ (Charlotte)",3,"FGEHDICJBA","Passed AC2",NA,"Spreadsheet1",NA,"","","",NA,"5","BEGIN",NA,NA,NA,NA,NA,NA,0,NA,NA,NA,NA,"","",NA,"","",NA,"SUPPRF44269"
2,1711297908742,"24/03/2024 16:31:48",1711297908742,0,"24/03/2024 16:31:48",172741,3,"task-gjqt",NA,36394218,NA,"complete",NA,"660054d858ab804f5f5af5b8","computer","Desktop or Laptop","Windows 10","Chrome 122.0.0.0","1536x864","3072x1459",NA,NA,0,"BIQ (Charlotte)",3,"FGEHDICJBA","Passed AC2",NA,"Spreadsheet1",1,"BIQ","Screen 1","9dh6eq",1,"continue","",59094.6000000238,59083.7,59094.6000000238,59094.6000000238,59083.7,59094.6000000238,1,59094.6000000238,0,0,NA,"Click To Continue","Continue Button",23,"object-48","BIQ",NA,"SUPPRF44269"
3,1711297923681,"24/03/2024 16:32:03",1711297923681,0,"24/03/2024 16:32:03",172741,3,"task-gjqt",NA,36394218,NA,"complete",NA,"660054d858ab804f5f5af5b8","computer","Desktop or Laptop","Windows 10","Chrome 122.0.0.0","1536x864","3072x1459",NA,NA,0,"BIQ (Charlotte)",3,"FGEHDICJBA","Passed AC2",NA,"Spreadsheet1",1,"BIQ","Screen 1","9dh6eq",1,"continue","",74014.9,74001.4,74014.9,74014.9,74001.4,74014.9,1,74014.9,0,0,NA,"Click To Continue","Continue Button",23,"object-48","BIQ",NA,"SUPPRF44269"
4,1711297924675,"24/03/2024 16:32:04",1711297924675,0,"24/03/2024 16:32:04",172741,3,"task-gjqt",NA,36394218,NA,"complete",NA,"660054d858ab804f5f5af5b8","computer","Desktop or Laptop","Windows 10","Chrome 122.0.0.0","1536x864","3072x1459",NA,NA,0,"BIQ (Charlotte)",3,"FGEHDICJBA","Passed AC2",NA,"Spreadsheet1",1,"BIQ","Screen 1","9dh6eq",1,"continue","",75028.7000000477,75017.2,75028.7000000477,75028.7000000477,75017.2,75028.7000000477,1,75028.7000000477,0,0,NA,"Click To Continue","Continue Button",23,"object-48","BIQ",NA,"SUPPRF44269"
5,1711297924874,"24/03/2024 16:32:04",1711297924874,0,"24/03/2024 16:32:04",172741,3,"task-gjqt",NA,36394218,NA,"complete",NA,"660054d858ab804f5f5af5b8","computer","Desktop or Laptop","Windows 10","Chrome 122.0.0.0","1536x864","3072x1459",NA,NA,0,"BIQ (Charlotte)",3,"FGEHDICJBA","Passed AC2",NA,"Spreadsheet1",1,"BIQ","Screen 1","9dh6eq",1,"continue","",75227.3999999762,75217.2,75227.3999999762,75227.3999999762,75217.2,75227.3999999762,1,75227.3999999762,0,0,NA,"Click To Continue","Continue Button",23,"object-48","BIQ",NA,"SUPPRF44269"
6,1711297928030,"24/03/2024 16:32:08",1711297928030,0,"24/03/2024 16:32:08",172741,3,"task-gjqt",NA,36394218,NA,"complete",NA,"660054d858ab804f5f5af5b8","computer","Desktop or Laptop","Windows 10","Chrome 122.0.0.0","1536x864","3072x1459",NA,NA,0,"BIQ (Charlotte)",3,"FGEHDICJBA","Passed AC2",NA,"Spreadsheet1",NA,"","","",NA,"5","BEGIN",NA,NA,NA,NA,NA,NA,0,NA,NA,NA,NA,"","",NA,"","",NA,"SUPPRF44269"
7,1711297938180,"24/03/2024 16:32:18",1711297938180,0,"24/03/2024 16:32:18",172741,3,"task-gjqt",NA,36394218,NA,"complete",NA,"660054d858ab804f5f5af5b8","computer","Desktop or Laptop","Windows 10","Chrome 122.0.0.0","1536x864","1536x730",NA,NA,0,"BIQ (Charlotte)",3,"FGEHDICJBA","Passed AC2",NA,"Spreadsheet1",NA,"","","",NA,"5","BEGIN",NA,NA,NA,NA,NA,NA,0,NA,NA,NA,NA,"","",NA,"","",NA,"SUPPRF44269"
8,1711297991991,"24/03/2024 16:33:11",1711297991991,0,"24/03/2024 16:33:11",172741,3,"task-gjqt",NA,36394218,NA,"complete",NA,"660054d858ab804f5f5af5b8","computer","Desktop or Laptop","Windows 10","Chrome 122.0.0.0","1536x864","1536x730",NA,NA,0,"BIQ (Charlotte)",3,"FGEHDICJBA","Passed AC2",NA,"Spreadsheet1",NA,"","","",NA,"5","BEGIN",NA,NA,NA,NA,NA,NA,0,NA,NA,NA,NA,"","",NA,"","",NA,"SUPPRF44269"
9,1711298012299,"24/03/2024 16:33:32",1711298012299,0,"24/03/2024 16:33:32",172741,3,"task-gjqt",NA,36394218,NA,"complete",NA,"660054d858ab804f5f5af5b8","computer","Desktop or Laptop","Windows 10","Chrome 122.0.0.0","1536x864","3072x1459",NA,NA,0,"BIQ (Charlotte)",3,"FGEHDICJBA","Passed AC2",NA,"Spreadsheet1",NA,"","","",NA,"5","BEGIN",NA,NA,NA,NA,NA,NA,0,NA,NA,NA,NA,"","",NA,"","",NA,"SUPPRF44269"
10,1711298202544,"24/03/2024 16:36:42",1711298202544,0,"24/03/2024 16:36:42",172741,3,"task-gjqt",NA,36394218,NA,"complete",NA,"660054d858ab804f5f5af5b8","computer","Desktop or Laptop","Mac OS 10.13.5","Chrome 123","430x932","430x745",NA,NA,0,"BIQ (Charlotte)",3,"FGEHDICJBA","Passed AC2",NA,"Spreadsheet1",NA,"","","",NA,"5","BEGIN",NA,NA,NA,NA,NA,NA,0,NA,NA,NA,NA,"","",NA,"","",NA,"SUPPRF44269"
11,1711298327591,"24/03/2024 16:38:47",1711298327591,0,"24/03/2024 16:38:47",172741,3,"task-gjqt",NA,36394218,NA,"complete",NA,"660054d858ab804f5f5af5b8","computer","Desktop or Laptop","Mac OS 10.13.5","Chrome 123","430x932","430x745",NA,NA,0,"BIQ (Charlotte)",3,"FGEHDICJBA","Passed AC2",NA,"Spreadsheet1",1,"BIQ","Screen 1","9dh6eq",1,"continue","",125038,125021,125038,125038,125021,125038,1,125038,0,0,NA,"Click To Continue","Continue Button",23,"object-48","BIQ",NA,"SUPPRF44269"
12,1711298327598,"24/03/2024 16:38:47",1711298327598,0,"24/03/2024 16:38:47",172741,3,"task-gjqt",NA,36394218,NA,"complete",NA,"660054d858ab804f5f5af5b8","computer","Desktop or Laptop","Mac OS 10.13.5","Chrome 123","430x932","430x745",NA,NA,0,"BIQ (Charlotte)",3,"FGEHDICJBA","Passed AC2",NA,"Spreadsheet1",1,"BIQ","Screen 1","9dh6eq",1,"response","2",3990,125021,125038,3990,125021,125038,1,3990,121048,0,NA,"Rating Scale","Rating Scale",3,"object-5","BIQ",NA,"SUPPRF44269"
13,1711298327599,"24/03/2024 16:38:47",1711298327599,0,"24/03/2024 16:38:47",172741,3,"task-gjqt",NA,36394218,NA,"complete",NA,"660054d858ab804f5f5af5b8","computer","Desktop or Laptop","Mac OS 10.13.5","Chrome 123","430x932","430x745",NA,NA,0,"BIQ (Charlotte)",3,"FGEHDICJBA","Passed AC2",NA,"Spreadsheet1",1,"BIQ","Screen 1","9dh6eq",1,"response","1",15596,125021,125038,15596,125021,125038,1,15596,109442,0,NA,"Rating Scale","Rating Scale",10,"object-18","BIQ",NA,"SUPPRF44269"
14,1711298327600,"24/03/2024 16:38:47",1711298327600,0,"24/03/2024 16:38:47",172741,3,"task-gjqt",NA,36394218,NA,"complete",NA,"660054d858ab804f5f5af5b8","computer","Desktop or Laptop","Mac OS 10.13.5","Chrome 123","430x932","430x745",NA,NA,0,"BIQ (Charlotte)",3,"FGEHDICJBA","Passed AC2",NA,"Spreadsheet1",1,"BIQ","Screen 1","9dh6eq",1,"response","1",2725,125021,125038,2725,125021,125038,1,2725,122313,0,NA,"Rating Scale","Rating Scale",17,"object-80","BIQ",NA,"SUPPRF44269"
15,1711298350218,"24/03/2024 16:39:10",1711298350218,0,"24/03/2024 16:39:10",172741,3,"task-gjqt",NA,36394218,NA,"complete",NA,"660054d858ab804f5f5af5b8","computer","Desktop or Laptop","Windows 10","Chrome 122.0.0.0","1536x864","1920x912",NA,NA,0,"BIQ (Charlotte)",3,"FGEHDICJBA","Passed AC2",NA,"Spreadsheet1",NA,"","","",NA,"5","BEGIN",NA,NA,NA,NA,NA,NA,0,NA,NA,NA,NA,"","",NA,"","",NA,"SUPPRF44269"
16,1711298416854,"24/03/2024 16:40:16",1711298416854,0,"24/03/2024 16:40:16",172741,3,"task-gjqt",NA,36394218,NA,"complete",NA,"660054d858ab804f5f5af5b8","computer","Desktop or Laptop","Mac OS 10.13.5","Chrome 123","430x932","430x745",NA,NA,0,"BIQ (Charlotte)",3,"FGEHDICJBA","Passed AC2",NA,"Spreadsheet1",1,"BIQ","Screen 2","o21mwi",2,"continue","",66149,66132,66149,66149,66132,66149,1,66149,0,0,NA,"Click To Continue","Continue Button",22,"object-50","BIQ",NA,"SUPPRF44269"
17,1711298416866,"24/03/2024 16:40:16",1711298416866,0,"24/03/2024 16:40:16",172741,3,"task-gjqt",NA,36394218,NA,"complete",NA,"660054d858ab804f5f5af5b8","computer","Desktop or Laptop","Mac OS 10.13.5","Chrome 123","430x932","430x745",NA,NA,0,"BIQ (Charlotte)",3,"FGEHDICJBA","Passed AC2",NA,"Spreadsheet1",1,"BIQ","Screen 2","o21mwi",2,"response","1",36025,66132,66149,36025,66132,66149,1,36025,30124,0,NA,"Rating Scale","Rating Scale",2,"object-259","BIQ",NA,"SUPPRF44269"
18,1711298416867,"24/03/2024 16:40:16",1711298416867,0,"24/03/2024 16:40:16",172741,3,"task-gjqt",NA,36394218,NA,"complete",NA,"660054d858ab804f5f5af5b8","computer","Desktop or Laptop","Mac OS 10.13.5","Chrome 123","430x932","430x745",NA,NA,0,"BIQ (Charlotte)",3,"FGEHDICJBA","Passed AC2",NA,"Spreadsheet1",1,"BIQ","Screen 2","o21mwi",2,"response","1",4147,66132,66149,4147,66132,66149,1,4147,62002,0,NA,"Rating Scale","Rating Scale",9,"object-36","BIQ",NA,"SUPPRF44269"
19,1711298416868,"24/03/2024 16:40:16",1711298416868,0,"24/03/2024 16:40:16",172741,3,"task-gjqt",NA,36394218,NA,"complete",NA,"660054d858ab804f5f5af5b8","computer","Desktop or Laptop","Mac OS 10.13.5","Chrome 123","430x932","430x745",NA,NA,0,"BIQ (Charlotte)",3,"FGEHDICJBA","Passed AC2",NA,"Spreadsheet1",1,"BIQ","Screen 2","o21mwi",2,"response","0",5534,66132,66149,5534,66132,66149,1,5534,60615,0,NA,"Rating Scale","Rating Scale",16,"object-86","BIQ",NA,"SUPPRF44269"
20,1711298426548,"24/03/2024 16:40:26",1711298426548,0,"24/03/2024 16:40:26",172741,3,"task-gjqt",NA,36394218,NA,"complete",NA,"660054d858ab804f5f5af5b8","computer","Desktop or Laptop","Mac OS 10.13.5","Chrome 123","430x932","430x745",NA,NA,0,"BIQ (Charlotte)",3,"FGEHDICJBA","Passed AC2",NA,"Spreadsheet1",1,"BIQ","Screen 3","iz3the",3,"continue","",9719,9702,9719,9719,9702,9719,1,9719,0,0,NA,"Click To Continue","Continue Button",22,"object-73","BIQ",NA,"SUPPRF44269"
21,1711298426550,"24/03/2024 16:40:26",1711298426550,0,"24/03/2024 16:40:26",172741,3,"task-gjqt",NA,36394218,NA,"complete",NA,"660054d858ab804f5f5af5b8","computer","Desktop or Laptop","Mac OS 10.13.5","Chrome 123","430x932","430x745",NA,NA,0,"BIQ (Charlotte)",3,"FGEHDICJBA","Passed AC2",NA,"Spreadsheet1",1,"BIQ","Screen 3","iz3the",3,"response","1",2324,9702,9719,2324,9702,9719,1,2324,7395,0,NA,"Rating Scale","Rating Scale",2,"object-53","BIQ",NA,"SUPPRF44269"
22,1711298426550,"24/03/2024 16:40:26",1711298426550,0,"24/03/2024 16:40:26",172741,3,"task-gjqt",NA,36394218,NA,"complete",NA,"660054d858ab804f5f5af5b8","computer","Desktop or Laptop","Mac OS 10.13.5","Chrome 123","430x932","430x745",NA,NA,0,"BIQ (Charlotte)",3,"FGEHDICJBA","Passed AC2",NA,"Spreadsheet1",1,"BIQ","Screen 3","iz3the",3,"response","1",1825,9702,9719,1825,9702,9719,1,1825,7894,0,NA,"Rating Scale","Rating Scale",9,"object-60","BIQ",NA,"SUPPRF44269"
23,1711298426551,"24/03/2024 16:40:26",1711298426551,0,"24/03/2024 16:40:26",172741,3,"task-gjqt",NA,36394218,NA,"complete",NA,"660054d858ab804f5f5af5b8","computer","Desktop or Laptop","Mac OS 10.13.5","Chrome 123","430x932","430x745",NA,NA,0,"BIQ (Charlotte)",3,"FGEHDICJBA","Passed AC2",NA,"Spreadsheet1",1,"BIQ","Screen 3","iz3the",3,"response","0",2673,9702,9719,2673,9702,9719,1,2673,7046,0,NA,"Rating Scale","Rating Scale",16,"object-67","BIQ",NA,"SUPPRF44269"
24,1711298426554,"24/03/2024 16:40:26",1711298426554,0,"24/03/2024 16:40:26",172741,3,"task-gjqt",NA,36394218,NA,"complete",NA,"660054d858ab804f5f5af5b8","computer","Desktop or Laptop","Mac OS 10.13.5","Chrome 123","430x932","430x745",NA,NA,0,"BIQ (Charlotte)",3,"FGEHDICJBA","Passed AC2",NA,"Spreadsheet1",NA,"","","",NA,"5","END",NA,NA,NA,NA,NA,NA,0,NA,NA,NA,NA,"","",NA,"","",NA,"SUPPRF44269"
