"Event.Index","UTC.Timestamp","UTC.Date.and.Time","Local.Timestamp","Local.Timezone","Local.Date.and.Time","Experiment.ID","Experiment.Version","Tree.Node.Key","Repeat.Key","Schedule.ID","Participant.Private.ID","Participant.Starting.Group","Participant.Status","Participant.Completion.Code","Participant.External.Session.ID","Participant.Device.Type","Participant.Device","Participant.OS","Participant.Browser","Participant.Monitor.Size","Participant.Viewport.Size","Checkpoint","Room.ID","Room.Order","Task.Name","Task.Version","order.ot79","branch.g31k","branch.5gtn","counterbalance.huxg","Spreadsheet","Trial.Number","Display","Screen","Screen.ID","Screen.Counter","Response.Type","Response","Onset.Time","Clock.Time","Reaction.Time","Absolute.Onset.Time","Absolute.Clock.Time","Absolute.Reaction.Time","Correct","Response.Onset","Response.Duration","Proportion","Tag","Component.Name","Object.Name","Object.Number","Object.ID","Spreadsheet..display","Manipulation..Spreadsheet","Random_ID"
"1",1709575480206,"04/03/2024 18:04:40",1709575480206,0,"04/03/2024 18:04:40",169741,4,"task-v7r7",NA,35765282,10571657,NA,"complete",NA,"65e60a883f4af7de914390c8","computer","Desktop or Laptop","Mac OS 10.15.7","Chrome 121.0.0.0","1440x900","1440x813",NA,NA,0,"Task Introduction and Instructions (re-introduce video and audio) (Clone)",3,"BCADJEIFHG","Passed AC2","","Chocking_second","Spreadsheet1",NA,"","","",NA,"5","BEGIN",NA,NA,NA,NA,NA,NA,0,NA,NA,NA,NA,"","",NA,"","",NA,"SUPPRF45961"
"2",1709575487352,"04/03/2024 18:04:47",1709575487352,0,"04/03/2024 18:04:47",169741,4,"task-v7r7",NA,35765282,10571657,NA,"complete",NA,"65e60a883f4af7de914390c8","computer","Desktop or Laptop","Mac OS 10.15.7","Chrome 121.0.0.0","1440x900","1440x813",NA,NA,0,"Task Introduction and Instructions (re-introduce video and audio) (Clone)",3,"BCADJEIFHG","Passed AC2","","Chocking_second","Spreadsheet1",1,"Task Instructions","Screen 1","anr7sn",1,"continue","",7075.80000002384,7073.2,7075.80000002384,7075.80000002384,7073.2,7075.80000002384,1,7075.80000002384,0,0,NA,"Click To Continue","Continue Button",3,"object-60","Task Instructions",NA,"SUPPRF45961"
"3",1709575494776,"04/03/2024 18:04:54",1709575494776,0,"04/03/2024 18:04:54",169741,4,"task-v7r7",NA,35765282,10571657,NA,"complete",NA,"65e60a883f4af7de914390c8","computer","Desktop or Laptop","Mac OS 10.15.7","Chrome 121.0.0.0","1440x900","1440x813",NA,NA,0,"Task Introduction and Instructions (re-introduce video and audio) (Clone)",3,"BCADJEIFHG","Passed AC2","","Chocking_second","Spreadsheet1",1,"Task Instructions","Screen 2","ce2tc8",2,"continue","",7426.90000003576,7417.2,7426.90000003576,7426.90000003576,7417.2,7426.90000003576,1,7426.90000003576,0,0,NA,"Click To Continue","Continue Button",3,"object-59","Task Instructions",NA,"SUPPRF45961"
"4",1709575500808,"04/03/2024 18:05:00",1709575500808,0,"04/03/2024 18:05:00",169741,4,"task-v7r7",NA,35765282,10571657,NA,"complete",NA,"65e60a883f4af7de914390c8","computer","Desktop or Laptop","Mac OS 10.15.7","Chrome 121.0.0.0","1440x900","1440x813",NA,NA,0,"Task Introduction and Instructions (re-introduce video and audio) (Clone)",3,"BCADJEIFHG","Passed AC2","","Chocking_second","Spreadsheet1",1,"Task Instructions","Screen 3","1qtc8v",3,"continue","",6041.8,6033.9,6041.8,6041.8,6033.9,6041.8,1,6041.8,0,0,NA,"Click To Continue","Continue Button",2,"object-2983","Task Instructions",NA,"SUPPRF45961"
"5",1709575507044,"04/03/2024 18:05:07",1709575507044,0,"04/03/2024 18:05:07",169741,4,"task-v7r7",NA,35765282,10571657,NA,"complete",NA,"65e60a883f4af7de914390c8","computer","Desktop or Laptop","Mac OS 10.15.7","Chrome 121.0.0.0","1440x900","1440x813",NA,NA,0,"Task Introduction and Instructions (re-introduce video and audio) (Clone)",3,"BCADJEIFHG","Passed AC2","","Chocking_second","Spreadsheet1",1,"Task Instructions","Screen 12","1a4vu2",4,"continue","",6244.20000001192,6228.2,6244.20000001192,6244.20000001192,6228.2,6244.20000001192,1,6244.20000001192,0,0,NA,"Click To Continue","Continue Button",2,"object-2466","Task Instructions",NA,"SUPPRF45961"
"6",1709575512050,"04/03/2024 18:05:12",1709575512050,0,"04/03/2024 18:05:12",169741,4,"task-v7r7",NA,35765282,10571657,NA,"complete",NA,"65e60a883f4af7de914390c8","computer","Desktop or Laptop","Mac OS 10.15.7","Chrome 121.0.0.0","1440x900","1440x813",NA,NA,0,"Task Introduction and Instructions (re-introduce video and audio) (Clone)",3,"BCADJEIFHG","Passed AC2","","Chocking_second","Spreadsheet1",1,"Task Instructions","Screen 13","q9vwda",5,"continue","",5021.80000002384,5014,5021.80000002384,5021.80000002384,5014,5021.80000002384,1,5021.80000002384,0,0,NA,"Click To Continue","Continue Button",2,"object-2989","Task Instructions",NA,"SUPPRF45961"
"7",1709575514884,"04/03/2024 18:05:14",1709575514884,0,"04/03/2024 18:05:14",169741,4,"task-v7r7",NA,35765282,10571657,NA,"complete",NA,"65e60a883f4af7de914390c8","computer","Desktop or Laptop","Mac OS 10.15.7","Chrome 121.0.0.0","1440x900","1440x813",NA,NA,0,"Task Introduction and Instructions (re-introduce video and audio) (Clone)",3,"BCADJEIFHG","Passed AC2","","Chocking_second","Spreadsheet1",1,"Task Instructions","Screen 11","oyulb7",6,"continue","",2841.60000003576,2839.7,2841.60000003576,2841.60000003576,2839.7,2841.60000003576,1,2841.60000003576,0,0,NA,"Click To Continue","Continue Button",2,"object-52","Task Instructions",NA,"SUPPRF45961"
"8",1709575518139,"04/03/2024 18:05:18",1709575518139,0,"04/03/2024 18:05:18",169741,4,"task-v7r7",NA,35765282,10571657,NA,"complete",NA,"65e60a883f4af7de914390c8","computer","Desktop or Laptop","Mac OS 10.15.7","Chrome 121.0.0.0","1440x900","1440x813",NA,NA,0,"Task Introduction and Instructions (re-introduce video and audio) (Clone)",3,"BCADJEIFHG","Passed AC2","","Chocking_second","Spreadsheet1",1,"Task Instructions","Screen 4","spepx9",7,"continue","",3256.69999998808,3244.7,3256.69999998808,3256.69999998808,3244.7,3256.69999998808,1,3256.69999998808,0,0,NA,"Click To Continue","Continue Button",2,"object-9","Task Instructions",NA,"SUPPRF45961"
"9",1709575520965,"04/03/2024 18:05:20",1709575520965,0,"04/03/2024 18:05:20",169741,4,"task-v7r7",NA,35765282,10571657,NA,"complete",NA,"65e60a883f4af7de914390c8","computer","Desktop or Laptop","Mac OS 10.15.7","Chrome 121.0.0.0","1440x900","1440x813",NA,NA,0,"Task Introduction and Instructions (re-introduce video and audio) (Clone)",3,"BCADJEIFHG","Passed AC2","","Chocking_second","Spreadsheet1",1,"Task Instructions","Screen 5","8nvnao",8,"continue","",2837.60000001192,2823.60000000001,2837.60000001192,2837.60000001192,2823.60000000001,2837.60000001192,1,2837.60000001192,0,0,NA,"Click To Continue","Continue Button",2,"object-44","Task Instructions",NA,"SUPPRF45961"
"10",1709575520968,"04/03/2024 18:05:20",1709575520968,0,"04/03/2024 18:05:20",169741,4,"task-v7r7",NA,35765282,10571657,NA,"complete",NA,"65e60a883f4af7de914390c8","computer","Desktop or Laptop","Mac OS 10.15.7","Chrome 121.0.0.0","1440x900","1440x813",NA,NA,0,"Task Introduction and Instructions (re-introduce video and audio) (Clone)",3,"BCADJEIFHG","Passed AC2","","Chocking_second","Spreadsheet1",NA,"","","",NA,"5","END",NA,NA,NA,NA,NA,NA,0,NA,NA,NA,NA,"","",NA,"","",NA,"SUPPRF45961"
"1",1709577515337,"04/03/2024 18:38:35",1709559515337,-5,"04/03/2024 08:38:35",169741,4,"task-v7r7",NA,35768341,10572173,NA,"complete",NA,"65e6121c13c300c867dade4b","computer","Desktop or Laptop","Windows 10","Chrome 120.0.0.0","1536x864","1536x730",NA,NA,0,"Task Introduction and Instructions (re-introduce video and audio) (Clone)",3,"CDBEAFJGIH","Passed AC2","","Chocking_first","Spreadsheet1",NA,"","","",NA,"5","BEGIN",NA,NA,NA,NA,NA,NA,0,NA,NA,NA,NA,"","",NA,"","",NA,"SUPPRF85564"
"2",1709577522232,"04/03/2024 18:38:42",1709559522232,-5,"04/03/2024 08:38:42",169741,4,"task-v7r7",NA,35768341,10572173,NA,"complete",NA,"65e6121c13c300c867dade4b","computer","Desktop or Laptop","Windows 10","Chrome 120.0.0.0","1536x864","1536x730",NA,NA,0,"Task Introduction and Instructions (re-introduce video and audio) (Clone)",3,"CDBEAFJGIH","Passed AC2","","Chocking_first","Spreadsheet1",1,"Task Instructions","Screen 1","anr7sn",1,"continue","",6837.40000038147,6833,6837.40000038147,6837.40000038147,6833,6837.40000038147,1,6837.40000038147,0,0,NA,"Click To Continue","Continue Button",3,"object-60","Task Instructions",NA,"SUPPRF85564"
"3",1709577525797,"04/03/2024 18:38:45",1709559525797,-5,"04/03/2024 08:38:45",169741,4,"task-v7r7",NA,35768341,10572173,NA,"complete",NA,"65e6121c13c300c867dade4b","computer","Desktop or Laptop","Windows 10","Chrome 120.0.0.0","1536x864","1536x730",NA,NA,0,"Task Introduction and Instructions (re-introduce video and audio) (Clone)",3,"CDBEAFJGIH","Passed AC2","","Chocking_first","Spreadsheet1",1,"Task Instructions","Screen 2","ce2tc8",2,"continue","",3570.59999923706,3566.4,3570.59999923706,3570.59999923706,3566.4,3570.59999923706,1,3570.59999923706,0,0,NA,"Click To Continue","Continue Button",3,"object-59","Task Instructions",NA,"SUPPRF85564"
"4",1709577530000,"04/03/2024 18:38:50",1709559530000,-5,"04/03/2024 08:38:50",169741,4,"task-v7r7",NA,35768341,10572173,NA,"complete",NA,"65e6121c13c300c867dade4b","computer","Desktop or Laptop","Windows 10","Chrome 120.0.0.0","1536x864","1536x730",NA,NA,0,"Task Introduction and Instructions (re-introduce video and audio) (Clone)",3,"CDBEAFJGIH","Passed AC2","","Chocking_first","Spreadsheet1",1,"Task Instructions","Screen 3","1qtc8v",3,"continue","",4207.9,4199.7,4207.9,4207.9,4199.7,4207.9,1,4207.9,0,0,NA,"Click To Continue","Continue Button",2,"object-2983","Task Instructions",NA,"SUPPRF85564"
"5",1709577534502,"04/03/2024 18:38:54",1709559534502,-5,"04/03/2024 08:38:54",169741,4,"task-v7r7",NA,35768341,10572173,NA,"complete",NA,"65e6121c13c300c867dade4b","computer","Desktop or Laptop","Windows 10","Chrome 120.0.0.0","1536x864","1536x730",NA,NA,0,"Task Introduction and Instructions (re-introduce video and audio) (Clone)",3,"CDBEAFJGIH","Passed AC2","","Chocking_first","Spreadsheet1",1,"Task Instructions","Screen 12","1a4vu2",4,"continue","",4509.80000038147,4499.8,4509.80000038147,4509.80000038147,4499.8,4509.80000038147,1,4509.80000038147,0,0,NA,"Click To Continue","Continue Button",2,"object-2466","Task Instructions",NA,"SUPPRF85564"
"6",1709577540159,"04/03/2024 18:39:00",1709559540159,-5,"04/03/2024 08:39:00",169741,4,"task-v7r7",NA,35768341,10572173,NA,"complete",NA,"65e6121c13c300c867dade4b","computer","Desktop or Laptop","Windows 10","Chrome 120.0.0.0","1536x864","1536x730",NA,NA,0,"Task Introduction and Instructions (re-introduce video and audio) (Clone)",3,"CDBEAFJGIH","Passed AC2","","Chocking_first","Spreadsheet1",1,"Task Instructions","Screen 13","q9vwda",5,"continue","",5666.3,5633,5666.3,5666.3,5633,5666.3,1,5666.3,0,0,NA,"Click To Continue","Continue Button",2,"object-2989","Task Instructions",NA,"SUPPRF85564"
"7",1709577543130,"04/03/2024 18:39:03",1709559543130,-5,"04/03/2024 08:39:03",169741,4,"task-v7r7",NA,35768341,10572173,NA,"complete",NA,"65e6121c13c300c867dade4b","computer","Desktop or Laptop","Windows 10","Chrome 120.0.0.0","1536x864","1536x730",NA,NA,0,"Task Introduction and Instructions (re-introduce video and audio) (Clone)",3,"CDBEAFJGIH","Passed AC2","","Chocking_first","Spreadsheet1",1,"Task Instructions","Screen 11","oyulb7",6,"continue","",3005.19999923706,2999.9,3005.19999923706,3005.19999923706,2999.9,3005.19999923706,1,3005.19999923706,0,0,NA,"Click To Continue","Continue Button",2,"object-52","Task Instructions",NA,"SUPPRF85564"
"8",1709577546254,"04/03/2024 18:39:06",1709559546254,-5,"04/03/2024 08:39:06",169741,4,"task-v7r7",NA,35768341,10572173,NA,"complete",NA,"65e6121c13c300c867dade4b","computer","Desktop or Laptop","Windows 10","Chrome 120.0.0.0","1536x864","1536x730",NA,NA,0,"Task Introduction and Instructions (re-introduce video and audio) (Clone)",3,"CDBEAFJGIH","Passed AC2","","Chocking_first","Spreadsheet1",1,"Task Instructions","Screen 4","spepx9",7,"continue","",3129.20000076294,3099.8,3129.20000076294,3129.20000076294,3099.8,3129.20000076294,1,3129.20000076294,0,0,NA,"Click To Continue","Continue Button",2,"object-9","Task Instructions",NA,"SUPPRF85564"
"9",1709577549268,"04/03/2024 18:39:09",1709559549268,-5,"04/03/2024 08:39:09",169741,4,"task-v7r7",NA,35768341,10572173,NA,"complete",NA,"65e6121c13c300c867dade4b","computer","Desktop or Laptop","Windows 10","Chrome 120.0.0.0","1536x864","1536x730",NA,NA,0,"Task Introduction and Instructions (re-introduce video and audio) (Clone)",3,"CDBEAFJGIH","Passed AC2","","Chocking_first","Spreadsheet1",1,"Task Instructions","Screen 5","8nvnao",8,"continue","",3043.80000038147,3033.1,3043.80000038147,3043.80000038147,3033.1,3043.80000038147,1,3043.80000038147,0,0,NA,"Click To Continue","Continue Button",2,"object-44","Task Instructions",NA,"SUPPRF85564"
"10",1709577549270,"04/03/2024 18:39:09",1709559549270,-5,"04/03/2024 08:39:09",169741,4,"task-v7r7",NA,35768341,10572173,NA,"complete",NA,"65e6121c13c300c867dade4b","computer","Desktop or Laptop","Windows 10","Chrome 120.0.0.0","1536x864","1536x730",NA,NA,0,"Task Introduction and Instructions (re-introduce video and audio) (Clone)",3,"CDBEAFJGIH","Passed AC2","","Chocking_first","Spreadsheet1",NA,"","","",NA,"5","END",NA,NA,NA,NA,NA,NA,0,NA,NA,NA,NA,"","",NA,"","",NA,"SUPPRF85564"
"1",1709578315385,"04/03/2024 18:51:55",1709578315385,0,"04/03/2024 18:51:55",169741,4,"task-v7r7",NA,35768825,10572250,NA,"complete",NA,"65e6145c5ea714f6ca7020b0","computer","Desktop or Laptop","Windows 10","Chrome 122.0.0.0","1280x720","1280x595",NA,NA,0,"Task Introduction and Instructions (re-introduce video and audio) (Clone)",3,"DECFBGAHJI","Passed AC2","","Chocking_second","Spreadsheet1",NA,"","","",NA,"5","BEGIN",NA,NA,NA,NA,NA,NA,0,NA,NA,NA,NA,"","",NA,"","",NA,"SUPPRF01010"
"2",1709578318695,"04/03/2024 18:51:58",1709578318695,0,"04/03/2024 18:51:58",169741,4,"task-v7r7",NA,35768825,10572250,NA,"complete",NA,"65e6145c5ea714f6ca7020b0","computer","Desktop or Laptop","Windows 10","Chrome 122.0.0.0","1280x720","1280x595",NA,NA,0,"Task Introduction and Instructions (re-introduce video and audio) (Clone)",3,"DECFBGAHJI","Passed AC2","","Chocking_second","Spreadsheet1",1,"Task Instructions","Screen 1","anr7sn",1,"continue","",3186.69999999851,3183.7,3186.69999999851,3186.69999999851,3183.7,3186.69999999851,1,3186.69999999851,0,0,NA,"Click To Continue","Continue Button",3,"object-60","Task Instructions",NA,"SUPPRF01010"
"3",1709578329345,"04/03/2024 18:52:09",1709578329345,0,"04/03/2024 18:52:09",169741,4,"task-v7r7",NA,35768825,10572250,NA,"complete",NA,"65e6145c5ea714f6ca7020b0","computer","Desktop or Laptop","Windows 10","Chrome 122.0.0.0","1280x720","1280x595",NA,NA,0,"Task Introduction and Instructions (re-introduce video and audio) (Clone)",3,"DECFBGAHJI","Passed AC2","","Chocking_second","Spreadsheet1",1,"Task Instructions","Screen 2","ce2tc8",2,"continue","",10653.6999999978,10650.4,10653.6999999978,10653.6999999978,10650.4,10653.6999999978,1,10653.6999999978,0,0,NA,"Click To Continue","Continue Button",3,"object-59","Task Instructions",NA,"SUPPRF01010"
"4",1709578334937,"04/03/2024 18:52:14",1709578334937,0,"04/03/2024 18:52:14",169741,4,"task-v7r7",NA,35768825,10572250,NA,"complete",NA,"65e6145c5ea714f6ca7020b0","computer","Desktop or Laptop","Windows 10","Chrome 122.0.0.0","1280x720","1280x595",NA,NA,0,"Task Introduction and Instructions (re-introduce video and audio) (Clone)",3,"DECFBGAHJI","Passed AC2","","Chocking_second","Spreadsheet1",1,"Task Instructions","Screen 3","1qtc8v",3,"continue","",5595.50000000075,5583.2,5595.50000000075,5595.50000000075,5583.2,5595.50000000075,1,5595.50000000075,0,0,NA,"Click To Continue","Continue Button",2,"object-2983","Task Instructions",NA,"SUPPRF01010"
"5",1709578347405,"04/03/2024 18:52:27",1709578347405,0,"04/03/2024 18:52:27",169741,4,"task-v7r7",NA,35768825,10572250,NA,"complete",NA,"65e6145c5ea714f6ca7020b0","computer","Desktop or Laptop","Windows 10","Chrome 122.0.0.0","1280x720","1280x595",NA,NA,0,"Task Introduction and Instructions (re-introduce video and audio) (Clone)",3,"DECFBGAHJI","Passed AC2","","Chocking_second","Spreadsheet1",1,"Task Instructions","Screen 12","1a4vu2",4,"continue","",12478.1999999993,12467.1,12478.1999999993,12478.1999999993,12467.1,12478.1999999993,1,12478.1999999993,0,0,NA,"Click To Continue","Continue Button",2,"object-2466","Task Instructions",NA,"SUPPRF01010"
"6",1709578353469,"04/03/2024 18:52:33",1709578353469,0,"04/03/2024 18:52:33",169741,4,"task-v7r7",NA,35768825,10572250,NA,"complete",NA,"65e6145c5ea714f6ca7020b0","computer","Desktop or Laptop","Windows 10","Chrome 122.0.0.0","1280x720","1280x595",NA,NA,0,"Task Introduction and Instructions (re-introduce video and audio) (Clone)",3,"DECFBGAHJI","Passed AC2","","Chocking_second","Spreadsheet1",1,"Task Instructions","Screen 13","q9vwda",5,"continue","",6074.99999999777,6066.8,6074.99999999777,6074.99999999777,6066.8,6074.99999999777,1,6074.99999999777,0,0,NA,"Click To Continue","Continue Button",2,"object-2989","Task Instructions",NA,"SUPPRF01010"
"7",1709578356798,"04/03/2024 18:52:36",1709578356798,0,"04/03/2024 18:52:36",169741,4,"task-v7r7",NA,35768825,10572250,NA,"complete",NA,"65e6145c5ea714f6ca7020b0","computer","Desktop or Laptop","Windows 10","Chrome 122.0.0.0","1280x720","1280x595",NA,NA,0,"Task Introduction and Instructions (re-introduce video and audio) (Clone)",3,"DECFBGAHJI","Passed AC2","","Chocking_second","Spreadsheet1",1,"Task Instructions","Screen 11","oyulb7",6,"continue","",3337.19999999776,3333.6,3337.19999999776,3337.19999999776,3333.6,3337.19999999776,1,3337.19999999776,0,0,NA,"Click To Continue","Continue Button",2,"object-52","Task Instructions",NA,"SUPPRF01010"
"8",1709578359548,"04/03/2024 18:52:39",1709578359548,0,"04/03/2024 18:52:39",169741,4,"task-v7r7",NA,35768825,10572250,NA,"complete",NA,"65e6145c5ea714f6ca7020b0","computer","Desktop or Laptop","Windows 10","Chrome 122.0.0.0","1280x720","1280x595",NA,NA,0,"Task Introduction and Instructions (re-introduce video and audio) (Clone)",3,"DECFBGAHJI","Passed AC2","","Chocking_second","Spreadsheet1",1,"Task Instructions","Screen 4","spepx9",7,"continue","",2754.09999999776,2750,2754.09999999776,2754.09999999776,2750,2754.09999999776,1,2754.09999999776,0,0,NA,"Click To Continue","Continue Button",2,"object-9","Task Instructions",NA,"SUPPRF01010"
"9",1709578365677,"04/03/2024 18:52:45",1709578365677,0,"04/03/2024 18:52:45",169741,4,"task-v7r7",NA,35768825,10572250,NA,"complete",NA,"65e6145c5ea714f6ca7020b0","computer","Desktop or Laptop","Windows 10","Chrome 122.0.0.0","1280x720","1280x595",NA,NA,0,"Task Introduction and Instructions (re-introduce video and audio) (Clone)",3,"DECFBGAHJI","Passed AC2","","Chocking_second","Spreadsheet1",1,"Task Instructions","Screen 5","8nvnao",8,"continue","",6133.19999999925,6116.9,6133.19999999925,6133.19999999925,6116.9,6133.19999999925,1,6133.19999999925,0,0,NA,"Click To Continue","Continue Button",2,"object-44","Task Instructions",NA,"SUPPRF01010"
"10",1709578365683,"04/03/2024 18:52:45",1709578365683,0,"04/03/2024 18:52:45",169741,4,"task-v7r7",NA,35768825,10572250,NA,"complete",NA,"65e6145c5ea714f6ca7020b0","computer","Desktop or Laptop","Windows 10","Chrome 122.0.0.0","1280x720","1280x595",NA,NA,0,"Task Introduction and Instructions (re-introduce video and audio) (Clone)",3,"DECFBGAHJI","Passed AC2","","Chocking_second","Spreadsheet1",NA,"","","",NA,"5","END",NA,NA,NA,NA,NA,NA,0,NA,NA,NA,NA,"","",NA,"","",NA,"SUPPRF01010"
"1",1709578770451,"04/03/2024 18:59:30",1709578770451,0,"04/03/2024 18:59:30",169741,4,"task-v7r7",NA,35769092,10572350,NA,"complete",NA,"65e61655112ede9803cb7027","computer","Desktop or Laptop","Mac OS 10.15.7","Chrome 113.0.0.0","1440x900","1440x700",NA,NA,0,"Task Introduction and Instructions (re-introduce video and audio) (Clone)",3,"EFDGCHBIAJ","Passed AC2","","Chocking_second","Spreadsheet1",NA,"","","",NA,"5","BEGIN",NA,NA,NA,NA,NA,NA,0,NA,NA,NA,NA,"","",NA,"","",NA,"SUPPRF90122"
"2",1709578774082,"04/03/2024 18:59:34",1709578774082,0,"04/03/2024 18:59:34",169741,4,"task-v7r7",NA,35769092,10572350,NA,"complete",NA,"65e61655112ede9803cb7027","computer","Desktop or Laptop","Mac OS 10.15.7","Chrome 113.0.0.0","1440x900","1440x700",NA,NA,0,"Task Introduction and Instructions (re-introduce video and audio) (Clone)",3,"EFDGCHBIAJ","Passed AC2","","Chocking_second","Spreadsheet1",1,"Task Instructions","Screen 1","anr7sn",1,"continue","",3509.607,3499.86,3509.607,3509.607,3499.86,3509.607,1,3509.607,0,0,NA,"Click To Continue","Continue Button",3,"object-60","Task Instructions",NA,"SUPPRF90122"
"3",1709578779349,"04/03/2024 18:59:39",1709578779349,0,"04/03/2024 18:59:39",169741,4,"task-v7r7",NA,35769092,10572350,NA,"complete",NA,"65e61655112ede9803cb7027","computer","Desktop or Laptop","Mac OS 10.15.7","Chrome 113.0.0.0","1440x900","1440x700",NA,NA,0,"Task Introduction and Instructions (re-introduce video and audio) (Clone)",3,"EFDGCHBIAJ","Passed AC2","","Chocking_second","Spreadsheet1",1,"Task Instructions","Screen 2","ce2tc8",2,"continue","",5267.322,5250.656,5267.322,5267.322,5250.656,5267.322,1,5267.322,0,0,NA,"Click To Continue","Continue Button",3,"object-59","Task Instructions",NA,"SUPPRF90122"
"4",1709578789597,"04/03/2024 18:59:49",1709578789597,0,"04/03/2024 18:59:49",169741,4,"task-v7r7",NA,35769092,10572350,NA,"complete",NA,"65e61655112ede9803cb7027","computer","Desktop or Laptop","Mac OS 10.15.7","Chrome 113.0.0.0","1440x900","1440x700",NA,NA,0,"Task Introduction and Instructions (re-introduce video and audio) (Clone)",3,"EFDGCHBIAJ","Passed AC2","","Chocking_second","Spreadsheet1",1,"Task Instructions","Screen 3","1qtc8v",3,"continue","",10274.1910001431,10267.047,10274.1910001431,10274.1910001431,10267.047,10274.1910001431,1,10274.1910001431,0,0,NA,"Click To Continue","Continue Button",2,"object-2983","Task Instructions",NA,"SUPPRF90122"
"5",1709578799530,"04/03/2024 18:59:59",1709578799530,0,"04/03/2024 18:59:59",169741,4,"task-v7r7",NA,35769092,10572350,NA,"complete",NA,"65e61655112ede9803cb7027","computer","Desktop or Laptop","Mac OS 10.15.7","Chrome 113.0.0.0","1440x900","1440x700",NA,NA,0,"Task Introduction and Instructions (re-introduce video and audio) (Clone)",3,"EFDGCHBIAJ","Passed AC2","","Chocking_second","Spreadsheet1",1,"Task Instructions","Screen 12","1a4vu2",4,"continue","",9940.94400009537,9932.936,9940.94400009537,9940.94400009537,9932.936,9940.94400009537,1,9940.94400009537,0,0,NA,"Click To Continue","Continue Button",2,"object-2466","Task Instructions",NA,"SUPPRF90122"
"6",1709578812348,"04/03/2024 19:00:12",1709578812348,0,"04/03/2024 19:00:12",169741,4,"task-v7r7",NA,35769092,10572350,NA,"complete",NA,"65e61655112ede9803cb7027","computer","Desktop or Laptop","Mac OS 10.15.7","Chrome 113.0.0.0","1440x900","1440x700",NA,NA,0,"Task Introduction and Instructions (re-introduce video and audio) (Clone)",3,"EFDGCHBIAJ","Passed AC2","","Chocking_second","Spreadsheet1",1,"Task Instructions","Screen 13","q9vwda",5,"continue","",12826.9080001907,12817.813,12826.9080001907,12826.9080001907,12817.813,12826.9080001907,1,12826.9080001907,0,0,NA,"Click To Continue","Continue Button",2,"object-2989","Task Instructions",NA,"SUPPRF90122"
"7",1709578815397,"04/03/2024 19:00:15",1709578815397,0,"04/03/2024 19:00:15",169741,4,"task-v7r7",NA,35769092,10572350,NA,"complete",NA,"65e61655112ede9803cb7027","computer","Desktop or Laptop","Mac OS 10.15.7","Chrome 113.0.0.0","1440x900","1440x700",NA,NA,0,"Task Introduction and Instructions (re-introduce video and audio) (Clone)",3,"EFDGCHBIAJ","Passed AC2","","Chocking_second","Spreadsheet1",1,"Task Instructions","Screen 11","oyulb7",6,"continue","",3057.795,3049.878,3057.795,3057.795,3049.878,3057.795,1,3057.795,0,0,NA,"Click To Continue","Continue Button",2,"object-52","Task Instructions",NA,"SUPPRF90122"
"8",1709578822198,"04/03/2024 19:00:22",1709578822198,0,"04/03/2024 19:00:22",169741,4,"task-v7r7",NA,35769092,10572350,NA,"complete",NA,"65e61655112ede9803cb7027","computer","Desktop or Laptop","Mac OS 10.15.7","Chrome 113.0.0.0","1440x900","1440x700",NA,NA,0,"Task Introduction and Instructions (re-introduce video and audio) (Clone)",3,"EFDGCHBIAJ","Passed AC2","","Chocking_second","Spreadsheet1",1,"Task Instructions","Screen 4","spepx9",7,"continue","",6809.417,6799.728,6809.417,6809.417,6799.728,6809.417,1,6809.417,0,0,NA,"Click To Continue","Continue Button",2,"object-9","Task Instructions",NA,"SUPPRF90122"
"9",1709578825565,"04/03/2024 19:00:25",1709578825565,0,"04/03/2024 19:00:25",169741,4,"task-v7r7",NA,35769092,10572350,NA,"complete",NA,"65e61655112ede9803cb7027","computer","Desktop or Laptop","Mac OS 10.15.7","Chrome 113.0.0.0","1440x900","1440x700",NA,NA,0,"Task Introduction and Instructions (re-introduce video and audio) (Clone)",3,"EFDGCHBIAJ","Passed AC2","","Chocking_second","Spreadsheet1",1,"Task Instructions","Screen 5","8nvnao",8,"continue","",3376.88900004768,3367.438,3376.88900004768,3376.88900004768,3367.438,3376.88900004768,1,3376.88900004768,0,0,NA,"Click To Continue","Continue Button",2,"object-44","Task Instructions",NA,"SUPPRF90122"
"10",1709578825569,"04/03/2024 19:00:25",1709578825569,0,"04/03/2024 19:00:25",169741,4,"task-v7r7",NA,35769092,10572350,NA,"complete",NA,"65e61655112ede9803cb7027","computer","Desktop or Laptop","Mac OS 10.15.7","Chrome 113.0.0.0","1440x900","1440x700",NA,NA,0,"Task Introduction and Instructions (re-introduce video and audio) (Clone)",3,"EFDGCHBIAJ","Passed AC2","","Chocking_second","Spreadsheet1",NA,"","","",NA,"5","END",NA,NA,NA,NA,NA,NA,0,NA,NA,NA,NA,"","",NA,"","",NA,"SUPPRF90122"
"1",1709581823967,"04/03/2024 19:50:23",1709581823967,0,"04/03/2024 19:50:23",169741,4,"task-v7r7",NA,35770973,10572429,NA,"complete",NA,"65e618b72145f01e320788fb","computer","Desktop or Laptop","Windows 10","Chrome 121.0.0.0","1366x768","1366x679",NA,NA,0,"Task Introduction and Instructions (re-introduce video and audio) (Clone)",3,"HIGJFAEBDC","Passed AC2","","Chocking_first","Spreadsheet1",NA,"","","",NA,"5","BEGIN",NA,NA,NA,NA,NA,NA,0,NA,NA,NA,NA,"","",NA,"","",NA,"SUPPRF33311"
"2",1709581838054,"04/03/2024 19:50:38",1709581838054,0,"04/03/2024 19:50:38",169741,4,"task-v7r7",NA,35770973,10572429,NA,"complete",NA,"65e618b72145f01e320788fb","computer","Desktop or Laptop","Windows 10","Chrome 121.0.0.0","1366x768","1366x679",NA,NA,0,"Task Introduction and Instructions (re-introduce video and audio) (Clone)",3,"HIGJFAEBDC","Passed AC2","","Chocking_first","Spreadsheet1",1,"Task Instructions","Screen 1","anr7sn",1,"continue","",12175.1,12150.1,12175.1,12175.1,12150.1,12175.1,1,12175.1,0,0,NA,"Click To Continue","Continue Button",3,"object-60","Task Instructions",NA,"SUPPRF33311"
"3",1709581899883,"04/03/2024 19:51:39",1709581899883,0,"04/03/2024 19:51:39",169741,4,"task-v7r7",NA,35770973,10572429,NA,"complete",NA,"65e618b72145f01e320788fb","computer","Desktop or Laptop","Windows 10","Chrome 121.0.0.0","1366x768","1366x679",NA,NA,0,"Task Introduction and Instructions (re-introduce video and audio) (Clone)",3,"HIGJFAEBDC","Passed AC2","","Chocking_first","Spreadsheet1",1,"Task Instructions","Screen 2","ce2tc8",2,"continue","",61855.4000000119,61851,61855.4000000119,61855.4000000119,61851,61855.4000000119,1,61855.4000000119,0,0,NA,"Click To Continue","Continue Button",3,"object-59","Task Instructions",NA,"SUPPRF33311"
"4",1709581942353,"04/03/2024 19:52:22",1709581942353,0,"04/03/2024 19:52:22",169741,4,"task-v7r7",NA,35770973,10572429,NA,"complete",NA,"65e618b72145f01e320788fb","computer","Desktop or Laptop","Windows 10","Chrome 121.0.0.0","1366x768","1366x679",NA,NA,0,"Task Introduction and Instructions (re-introduce video and audio) (Clone)",3,"HIGJFAEBDC","Passed AC2","","Chocking_first","Spreadsheet1",1,"Task Instructions","Screen 3","1qtc8v",3,"continue","",42474.2999999881,42458.9,42474.2999999881,42474.2999999881,42458.9,42474.2999999881,1,42474.2999999881,0,0,NA,"Click To Continue","Continue Button",2,"object-2983","Task Instructions",NA,"SUPPRF33311"
"5",1709581975987,"04/03/2024 19:52:55",1709581975987,0,"04/03/2024 19:52:55",169741,4,"task-v7r7",NA,35770973,10572429,NA,"complete",NA,"65e618b72145f01e320788fb","computer","Desktop or Laptop","Windows 10","Chrome 121.0.0.0","1366x768","1366x679",NA,NA,0,"Task Introduction and Instructions (re-introduce video and audio) (Clone)",3,"HIGJFAEBDC","Passed AC2","","Chocking_first","Spreadsheet1",1,"Task Instructions","Screen 12","1a4vu2",4,"continue","",33646.5,33621.5,33646.5,33646.5,33621.5,33646.5,1,33646.5,0,0,NA,"Click To Continue","Continue Button",2,"object-2466","Task Instructions",NA,"SUPPRF33311"
"6",1709582005999,"04/03/2024 19:53:25",1709582005999,0,"04/03/2024 19:53:25",169741,4,"task-v7r7",NA,35770973,10572429,NA,"complete",NA,"65e618b72145f01e320788fb","computer","Desktop or Laptop","Windows 10","Chrome 121.0.0.0","1366x768","1366x679",NA,NA,0,"Task Introduction and Instructions (re-introduce video and audio) (Clone)",3,"HIGJFAEBDC","Passed AC2","","Chocking_first","Spreadsheet1",1,"Task Instructions","Screen 13","q9vwda",5,"continue","",30035.7,30010.7,30035.7,30035.7,30010.7,30035.7,1,30035.7,0,0,NA,"Click To Continue","Continue Button",2,"object-2989","Task Instructions",NA,"SUPPRF33311"
"7",1709582020076,"04/03/2024 19:53:40",1709582020076,0,"04/03/2024 19:53:40",169741,4,"task-v7r7",NA,35770973,10572429,NA,"complete",NA,"65e618b72145f01e320788fb","computer","Desktop or Laptop","Windows 10","Chrome 121.0.0.0","1366x768","1366x679",NA,NA,0,"Task Introduction and Instructions (re-introduce video and audio) (Clone)",3,"HIGJFAEBDC","Passed AC2","","Chocking_first","Spreadsheet1",1,"Task Instructions","Screen 11","oyulb7",6,"continue","",14104.2,14079.2,14104.2,14104.2,14079.2,14104.2,1,14104.2,0,0,NA,"Click To Continue","Continue Button",2,"object-52","Task Instructions",NA,"SUPPRF33311"
"8",1709582192436,"04/03/2024 19:56:32",1709582192436,0,"04/03/2024 19:56:32",169741,4,"task-v7r7",NA,35770973,10572429,NA,"complete",NA,"65e618b72145f01e320788fb","computer","Desktop or Laptop","Windows 10","Chrome 121.0.0.0","1366x768","1366x679",NA,NA,0,"Task Introduction and Instructions (re-introduce video and audio) (Clone)",3,"HIGJFAEBDC","Passed AC2","","Chocking_first","Spreadsheet1",1,"Task Instructions","Screen 4","spepx9",7,"continue","",172387.499999988,172377.1,172387.499999988,172387.499999988,172377.1,172387.499999988,1,172387.499999988,0,0,NA,"Click To Continue","Continue Button",2,"object-9","Task Instructions",NA,"SUPPRF33311"
"9",1709582205470,"04/03/2024 19:56:45",1709582205470,0,"04/03/2024 19:56:45",169741,4,"task-v7r7",NA,35770973,10572429,NA,"complete",NA,"65e618b72145f01e320788fb","computer","Desktop or Laptop","Windows 10","Chrome 121.0.0.0","1366x768","1366x679",NA,NA,0,"Task Introduction and Instructions (re-introduce video and audio) (Clone)",3,"HIGJFAEBDC","Passed AC2","","Chocking_first","Spreadsheet1",1,"Task Instructions","Screen 5","8nvnao",8,"continue","",13044.2,13025.7,13044.2,13044.2,13025.7,13044.2,1,13044.2,0,0,NA,"Click To Continue","Continue Button",2,"object-44","Task Instructions",NA,"SUPPRF33311"
"10",1709582205519,"04/03/2024 19:56:45",1709582205519,0,"04/03/2024 19:56:45",169741,4,"task-v7r7",NA,35770973,10572429,NA,"complete",NA,"65e618b72145f01e320788fb","computer","Desktop or Laptop","Windows 10","Chrome 121.0.0.0","1366x768","1366x679",NA,NA,0,"Task Introduction and Instructions (re-introduce video and audio) (Clone)",3,"HIGJFAEBDC","Passed AC2","","Chocking_first","Spreadsheet1",NA,"","","",NA,"5","END",NA,NA,NA,NA,NA,NA,0,NA,NA,NA,NA,"","",NA,"","",NA,"SUPPRF33311"
"1",1709580824464,"04/03/2024 19:33:44",1709559224464,-6,"04/03/2024 07:33:44",169741,4,"task-v7r7",NA,35770327,10572500,NA,"complete",NA,"65e61ac1ea11151a57933935","computer","Desktop or Laptop","Chromium OS 14541.0.0","Chrome 121.0.0.0","1366x768","1366x599",NA,NA,0,"Task Introduction and Instructions (re-introduce video and audio) (Clone)",3,"FGEHDICJBA","Passed AC2","","Chocking_first","Spreadsheet1",NA,"","","",NA,"5","BEGIN",NA,NA,NA,NA,NA,NA,0,NA,NA,NA,NA,"","",NA,"","",NA,"SUPPRF99447"
"2",1709580829000,"04/03/2024 19:33:49",1709559229000,-6,"04/03/2024 07:33:49",169741,4,"task-v7r7",NA,35770327,10572500,NA,"complete",NA,"65e61ac1ea11151a57933935","computer","Desktop or Laptop","Chromium OS 14541.0.0","Chrome 121.0.0.0","1366x768","1366x599",NA,NA,0,"Task Introduction and Instructions (re-introduce video and audio) (Clone)",3,"FGEHDICJBA","Passed AC2","","Chocking_first","Spreadsheet1",1,"Task Instructions","Screen 1","anr7sn",1,"continue","",3665.3,3648.7,3665.3,3665.3,3648.7,3665.3,1,3665.3,0,0,NA,"Click To Continue","Continue Button",3,"object-60","Task Instructions",NA,"SUPPRF99447"
"3",1709580834117,"04/03/2024 19:33:54",1709559234117,-6,"04/03/2024 07:33:54",169741,4,"task-v7r7",NA,35770327,10572500,NA,"complete",NA,"65e61ac1ea11151a57933935","computer","Desktop or Laptop","Chromium OS 14541.0.0","Chrome 121.0.0.0","1366x768","1366x599",NA,NA,0,"Task Introduction and Instructions (re-introduce video and audio) (Clone)",3,"FGEHDICJBA","Passed AC2","","Chocking_first","Spreadsheet1",1,"Task Instructions","Screen 2","ce2tc8",2,"continue","",5134.50000000894,5131.5,5134.50000000894,5134.50000000894,5131.5,5134.50000000894,1,5134.50000000894,0,0,NA,"Click To Continue","Continue Button",3,"object-59","Task Instructions",NA,"SUPPRF99447"
"4",1709580841589,"04/03/2024 19:34:01",1709559241589,-6,"04/03/2024 07:34:01",169741,4,"task-v7r7",NA,35770327,10572500,NA,"complete",NA,"65e61ac1ea11151a57933935","computer","Desktop or Laptop","Chromium OS 14541.0.0","Chrome 121.0.0.0","1366x768","1366x599",NA,NA,0,"Task Introduction and Instructions (re-introduce video and audio) (Clone)",3,"FGEHDICJBA","Passed AC2","","Chocking_first","Spreadsheet1",1,"Task Instructions","Screen 3","1qtc8v",3,"continue","",7474.9,7464.2,7474.9,7474.9,7464.2,7474.9,1,7474.9,0,0,NA,"Click To Continue","Continue Button",2,"object-2983","Task Instructions",NA,"SUPPRF99447"
"5",1709580849155,"04/03/2024 19:34:09",1709559249155,-6,"04/03/2024 07:34:09",169741,4,"task-v7r7",NA,35770327,10572500,NA,"complete",NA,"65e61ac1ea11151a57933935","computer","Desktop or Laptop","Chromium OS 14541.0.0","Chrome 121.0.0.0","1366x768","1366x599",NA,NA,0,"Task Introduction and Instructions (re-introduce video and audio) (Clone)",3,"FGEHDICJBA","Passed AC2","","Chocking_first","Spreadsheet1",1,"Task Instructions","Screen 12","1a4vu2",4,"continue","",7577.10000000596,7563.8,7577.10000000596,7577.10000000596,7563.8,7577.10000000596,1,7577.10000000596,0,0,NA,"Click To Continue","Continue Button",2,"object-2466","Task Instructions",NA,"SUPPRF99447"
"6",1709580853869,"04/03/2024 19:34:13",1709559253869,-6,"04/03/2024 07:34:13",169741,4,"task-v7r7",NA,35770327,10572500,NA,"complete",NA,"65e61ac1ea11151a57933935","computer","Desktop or Laptop","Chromium OS 14541.0.0","Chrome 121.0.0.0","1366x768","1366x599",NA,NA,0,"Task Introduction and Instructions (re-introduce video and audio) (Clone)",3,"FGEHDICJBA","Passed AC2","","Chocking_first","Spreadsheet1",1,"Task Instructions","Screen 13","q9vwda",5,"continue","",4727.10000000298,4715.2,4727.10000000298,4727.10000000298,4715.2,4727.10000000298,1,4727.10000000298,0,0,NA,"Click To Continue","Continue Button",2,"object-2989","Task Instructions",NA,"SUPPRF99447"
"7",1709580856432,"04/03/2024 19:34:16",1709559256432,-6,"04/03/2024 07:34:16",169741,4,"task-v7r7",NA,35770327,10572500,NA,"complete",NA,"65e61ac1ea11151a57933935","computer","Desktop or Laptop","Chromium OS 14541.0.0","Chrome 121.0.0.0","1366x768","1366x599",NA,NA,0,"Task Introduction and Instructions (re-introduce video and audio) (Clone)",3,"FGEHDICJBA","Passed AC2","","Chocking_first","Spreadsheet1",1,"Task Instructions","Screen 11","oyulb7",6,"continue","",2575.30000000894,2565.8,2575.30000000894,2575.30000000894,2565.8,2575.30000000894,1,2575.30000000894,0,0,NA,"Click To Continue","Continue Button",2,"object-52","Task Instructions",NA,"SUPPRF99447"
"8",1709580859098,"04/03/2024 19:34:19",1709559259098,-6,"04/03/2024 07:34:19",169741,4,"task-v7r7",NA,35770327,10572500,NA,"complete",NA,"65e61ac1ea11151a57933935","computer","Desktop or Laptop","Chromium OS 14541.0.0","Chrome 121.0.0.0","1366x768","1366x599",NA,NA,0,"Task Introduction and Instructions (re-introduce video and audio) (Clone)",3,"FGEHDICJBA","Passed AC2","","Chocking_first","Spreadsheet1",1,"Task Instructions","Screen 4","spepx9",7,"continue","",2675.4,2665.6,2675.4,2675.4,2665.6,2675.4,1,2675.4,0,0,NA,"Click To Continue","Continue Button",2,"object-9","Task Instructions",NA,"SUPPRF99447"
"9",1709580861714,"04/03/2024 19:34:21",1709559261714,-6,"04/03/2024 07:34:21",169741,4,"task-v7r7",NA,35770327,10572500,NA,"complete",NA,"65e61ac1ea11151a57933935","computer","Desktop or Laptop","Chromium OS 14541.0.0","Chrome 121.0.0.0","1366x768","1366x599",NA,NA,0,"Task Introduction and Instructions (re-introduce video and audio) (Clone)",3,"FGEHDICJBA","Passed AC2","","Chocking_first","Spreadsheet1",1,"Task Instructions","Screen 5","8nvnao",8,"continue","",2625.20000000596,2615.8,2625.20000000596,2625.20000000596,2615.8,2625.20000000596,1,2625.20000000596,0,0,NA,"Click To Continue","Continue Button",2,"object-44","Task Instructions",NA,"SUPPRF99447"
"10",1709580861719,"04/03/2024 19:34:21",1709559261719,-6,"04/03/2024 07:34:21",169741,4,"task-v7r7",NA,35770327,10572500,NA,"complete",NA,"65e61ac1ea11151a57933935","computer","Desktop or Laptop","Chromium OS 14541.0.0","Chrome 121.0.0.0","1366x768","1366x599",NA,NA,0,"Task Introduction and Instructions (re-introduce video and audio) (Clone)",3,"FGEHDICJBA","Passed AC2","","Chocking_first","Spreadsheet1",NA,"","","",NA,"5","END",NA,NA,NA,NA,NA,NA,0,NA,NA,NA,NA,"","",NA,"","",NA,"SUPPRF99447"
"1",1709581079984,"04/03/2024 19:37:59",1709581079984,0,"04/03/2024 19:37:59",169741,4,"task-v7r7",NA,35770488,10572707,NA,"complete",NA,"65e6212196c95a694dd9bf64","computer","Desktop or Laptop","Linux x86_64","Chrome 122.0.0.0","1920x1080","1920x863",NA,NA,0,"Task Introduction and Instructions (re-introduce video and audio) (Clone)",3,"IJHAGBFCED","Passed AC2","","Chocking_first","Spreadsheet1",NA,"","","",NA,"5","BEGIN",NA,NA,NA,NA,NA,NA,0,NA,NA,NA,NA,"","",NA,"","",NA,"SUPPRF68034"
"2",1709581084147,"04/03/2024 19:38:04",1709581084147,0,"04/03/2024 19:38:04",169741,4,"task-v7r7",NA,35770488,10572707,NA,"complete",NA,"65e6212196c95a694dd9bf64","computer","Desktop or Laptop","Linux x86_64","Chrome 122.0.0.0","1920x1080","1920x863",NA,NA,0,"Task Introduction and Instructions (re-introduce video and audio) (Clone)",3,"IJHAGBFCED","Passed AC2","","Chocking_first","Spreadsheet1",1,"Task Instructions","Screen 1","anr7sn",1,"continue","",3557.60000000112,3550,3557.60000000112,3557.60000000112,3550,3557.60000000112,1,3557.60000000112,0,0,NA,"Click To Continue","Continue Button",3,"object-60","Task Instructions",NA,"SUPPRF68034"
"3",1709581091667,"04/03/2024 19:38:11",1709581091667,0,"04/03/2024 19:38:11",169741,4,"task-v7r7",NA,35770488,10572707,NA,"complete",NA,"65e6212196c95a694dd9bf64","computer","Desktop or Laptop","Linux x86_64","Chrome 122.0.0.0","1920x1080","1920x863",NA,NA,0,"Task Introduction and Instructions (re-introduce video and audio) (Clone)",3,"IJHAGBFCED","Passed AC2","","Chocking_first","Spreadsheet1",1,"Task Instructions","Screen 2","ce2tc8",2,"continue","",7527.80000000037,7516.5,7527.80000000037,7527.80000000037,7516.5,7527.80000000037,1,7527.80000000037,0,0,NA,"Click To Continue","Continue Button",3,"object-59","Task Instructions",NA,"SUPPRF68034"
"4",1709581096258,"04/03/2024 19:38:16",1709581096258,0,"04/03/2024 19:38:16",169741,4,"task-v7r7",NA,35770488,10572707,NA,"complete",NA,"65e6212196c95a694dd9bf64","computer","Desktop or Laptop","Linux x86_64","Chrome 122.0.0.0","1920x1080","1920x863",NA,NA,0,"Task Introduction and Instructions (re-introduce video and audio) (Clone)",3,"IJHAGBFCED","Passed AC2","","Chocking_first","Spreadsheet1",1,"Task Instructions","Screen 3","1qtc8v",3,"continue","",4602.80000000037,4599.9,4602.80000000037,4602.80000000037,4599.9,4602.80000000037,1,4602.80000000037,0,0,NA,"Click To Continue","Continue Button",2,"object-2983","Task Instructions",NA,"SUPPRF68034"
"5",1709581100668,"04/03/2024 19:38:20",1709581100668,0,"04/03/2024 19:38:20",169741,4,"task-v7r7",NA,35770488,10572707,NA,"complete",NA,"65e6212196c95a694dd9bf64","computer","Desktop or Laptop","Linux x86_64","Chrome 122.0.0.0","1920x1080","1920x863",NA,NA,0,"Task Introduction and Instructions (re-introduce video and audio) (Clone)",3,"IJHAGBFCED","Passed AC2","","Chocking_first","Spreadsheet1",1,"Task Instructions","Screen 12","1a4vu2",4,"continue","",4412.20000000112,4399.9,4412.20000000112,4412.20000000112,4399.9,4412.20000000112,1,4412.20000000112,0,0,NA,"Click To Continue","Continue Button",2,"object-2466","Task Instructions",NA,"SUPPRF68034"
"6",1709581105582,"04/03/2024 19:38:25",1709581105582,0,"04/03/2024 19:38:25",169741,4,"task-v7r7",NA,35770488,10572707,NA,"complete",NA,"65e6212196c95a694dd9bf64","computer","Desktop or Laptop","Linux x86_64","Chrome 122.0.0.0","1920x1080","1920x863",NA,NA,0,"Task Introduction and Instructions (re-introduce video and audio) (Clone)",3,"IJHAGBFCED","Passed AC2","","Chocking_first","Spreadsheet1",1,"Task Instructions","Screen 13","q9vwda",5,"continue","",4927.00000000037,4916.5,4927.00000000037,4927.00000000037,4916.5,4927.00000000037,1,4927.00000000037,0,0,NA,"Click To Continue","Continue Button",2,"object-2989","Task Instructions",NA,"SUPPRF68034"
"7",1709581108422,"04/03/2024 19:38:28",1709581108422,0,"04/03/2024 19:38:28",169741,4,"task-v7r7",NA,35770488,10572707,NA,"complete",NA,"65e6212196c95a694dd9bf64","computer","Desktop or Laptop","Linux x86_64","Chrome 122.0.0.0","1920x1080","1920x863",NA,NA,0,"Task Introduction and Instructions (re-introduce video and audio) (Clone)",3,"IJHAGBFCED","Passed AC2","","Chocking_first","Spreadsheet1",1,"Task Instructions","Screen 11","oyulb7",6,"continue","",2849.9,2833.3,2849.9,2849.9,2833.3,2849.9,1,2849.9,0,0,NA,"Click To Continue","Continue Button",2,"object-52","Task Instructions",NA,"SUPPRF68034"
"8",1709581111195,"04/03/2024 19:38:31",1709581111195,0,"04/03/2024 19:38:31",169741,4,"task-v7r7",NA,35770488,10572707,NA,"complete",NA,"65e6212196c95a694dd9bf64","computer","Desktop or Laptop","Linux x86_64","Chrome 122.0.0.0","1920x1080","1920x863",NA,NA,0,"Task Introduction and Instructions (re-introduce video and audio) (Clone)",3,"IJHAGBFCED","Passed AC2","","Chocking_first","Spreadsheet1",1,"Task Instructions","Screen 4","spepx9",7,"continue","",2790.20000000037,2783.3,2790.20000000037,2790.20000000037,2783.3,2790.20000000037,1,2790.20000000037,0,0,NA,"Click To Continue","Continue Button",2,"object-9","Task Instructions",NA,"SUPPRF68034"
"9",1709581114221,"04/03/2024 19:38:34",1709581114221,0,"04/03/2024 19:38:34",169741,4,"task-v7r7",NA,35770488,10572707,NA,"complete",NA,"65e6212196c95a694dd9bf64","computer","Desktop or Laptop","Linux x86_64","Chrome 122.0.0.0","1920x1080","1920x863",NA,NA,0,"Task Introduction and Instructions (re-introduce video and audio) (Clone)",3,"IJHAGBFCED","Passed AC2","","Chocking_first","Spreadsheet1",1,"Task Instructions","Screen 5","8nvnao",8,"continue","",3032.70000000112,3016.6,3032.70000000112,3032.70000000112,3016.6,3032.70000000112,1,3032.70000000112,0,0,NA,"Click To Continue","Continue Button",2,"object-44","Task Instructions",NA,"SUPPRF68034"
"10",1709581114223,"04/03/2024 19:38:34",1709581114223,0,"04/03/2024 19:38:34",169741,4,"task-v7r7",NA,35770488,10572707,NA,"complete",NA,"65e6212196c95a694dd9bf64","computer","Desktop or Laptop","Linux x86_64","Chrome 122.0.0.0","1920x1080","1920x863",NA,NA,0,"Task Introduction and Instructions (re-introduce video and audio) (Clone)",3,"IJHAGBFCED","Passed AC2","","Chocking_first","Spreadsheet1",NA,"","","",NA,"5","END",NA,NA,NA,NA,NA,NA,0,NA,NA,NA,NA,"","",NA,"","",NA,"SUPPRF68034"
"1",1709581391181,"04/03/2024 19:43:11",1709581391181,0,"04/03/2024 19:43:11",169741,4,"task-v7r7",NA,35770729,10572714,NA,"complete",NA,"65e6212570d2d33db2d2c762","computer","Desktop or Laptop","Windows 10","Chrome 122.0.0.0","1536x864","1536x695",NA,NA,0,"Task Introduction and Instructions (re-introduce video and audio) (Clone)",3,"JAIBHCGDFE","Passed AC2","","Chocking_second","Spreadsheet1",NA,"","","",NA,"5","BEGIN",NA,NA,NA,NA,NA,NA,0,NA,NA,NA,NA,"","",NA,"","",NA,"SUPPRF40866"
"2",1709581396382,"04/03/2024 19:43:16",1709581396382,0,"04/03/2024 19:43:16",169741,4,"task-v7r7",NA,35770729,10572714,NA,"complete",NA,"65e6212570d2d33db2d2c762","computer","Desktop or Laptop","Windows 10","Chrome 122.0.0.0","1536x864","1536x695",NA,NA,0,"Task Introduction and Instructions (re-introduce video and audio) (Clone)",3,"JAIBHCGDFE","Passed AC2","","Chocking_second","Spreadsheet1",1,"Task Instructions","Screen 1","anr7sn",1,"continue","",4989.20000004768,4985.3,4989.20000004768,4989.20000004768,4985.3,4989.20000004768,1,4989.20000004768,0,0,NA,"Click To Continue","Continue Button",3,"object-60","Task Instructions",NA,"SUPPRF40866"
"3",1709581414270,"04/03/2024 19:43:34",1709581414270,0,"04/03/2024 19:43:34",169741,4,"task-v7r7",NA,35770729,10572714,NA,"complete",NA,"65e6212570d2d33db2d2c762","computer","Desktop or Laptop","Windows 10","Chrome 122.0.0.0","1536x864","1536x695",NA,NA,0,"Task Introduction and Instructions (re-introduce video and audio) (Clone)",3,"JAIBHCGDFE","Passed AC2","","Chocking_second","Spreadsheet1",1,"Task Instructions","Screen 2","ce2tc8",2,"continue","",17890.3000001431,17886.4,17890.3000001431,17890.3000001431,17886.4,17890.3000001431,1,17890.3000001431,0,0,NA,"Click To Continue","Continue Button",3,"object-59","Task Instructions",NA,"SUPPRF40866"
"4",1709581437047,"04/03/2024 19:43:57",1709581437047,0,"04/03/2024 19:43:57",169741,4,"task-v7r7",NA,35770729,10572714,NA,"complete",NA,"65e6212570d2d33db2d2c762","computer","Desktop or Laptop","Windows 10","Chrome 122.0.0.0","1536x864","1536x695",NA,NA,0,"Task Introduction and Instructions (re-introduce video and audio) (Clone)",3,"JAIBHCGDFE","Passed AC2","","Chocking_second","Spreadsheet1",1,"Task Instructions","Screen 3","1qtc8v",3,"continue","",22780.6000001907,22774.3,22780.6000001907,22780.6000001907,22774.3,22780.6000001907,1,22780.6000001907,0,0,NA,"Click To Continue","Continue Button",2,"object-2983","Task Instructions",NA,"SUPPRF40866"
"5",1709581451723,"04/03/2024 19:44:11",1709581451723,0,"04/03/2024 19:44:11",169741,4,"task-v7r7",NA,35770729,10572714,NA,"complete",NA,"65e6212570d2d33db2d2c762","computer","Desktop or Laptop","Windows 10","Chrome 122.0.0.0","1536x864","1536x695",NA,NA,0,"Task Introduction and Instructions (re-introduce video and audio) (Clone)",3,"JAIBHCGDFE","Passed AC2","","Chocking_second","Spreadsheet1",1,"Task Instructions","Screen 12","1a4vu2",4,"continue","",14682.2000000477,14678.5,14682.2000000477,14682.2000000477,14678.5,14682.2000000477,1,14682.2000000477,0,0,NA,"Click To Continue","Continue Button",2,"object-2466","Task Instructions",NA,"SUPPRF40866"
"6",1709581458520,"04/03/2024 19:44:18",1709581458520,0,"04/03/2024 19:44:18",169741,4,"task-v7r7",NA,35770729,10572714,NA,"complete",NA,"65e6212570d2d33db2d2c762","computer","Desktop or Laptop","Windows 10","Chrome 122.0.0.0","1536x864","1536x695",NA,NA,0,"Task Introduction and Instructions (re-introduce video and audio) (Clone)",3,"JAIBHCGDFE","Passed AC2","","Chocking_second","Spreadsheet1",1,"Task Instructions","Screen 13","q9vwda",5,"continue","",6800.80000019073,6797.60000000001,6800.80000019073,6800.80000019073,6797.60000000001,6800.80000019073,1,6800.80000019073,0,0,NA,"Click To Continue","Continue Button",2,"object-2989","Task Instructions",NA,"SUPPRF40866"
"7",1709581462461,"04/03/2024 19:44:22",1709581462461,0,"04/03/2024 19:44:22",169741,4,"task-v7r7",NA,35770729,10572714,NA,"complete",NA,"65e6212570d2d33db2d2c762","computer","Desktop or Laptop","Windows 10","Chrome 122.0.0.0","1536x864","1536x695",NA,NA,0,"Task Introduction and Instructions (re-introduce video and audio) (Clone)",3,"JAIBHCGDFE","Passed AC2","","Chocking_second","Spreadsheet1",1,"Task Instructions","Screen 11","oyulb7",6,"continue","",3943.69999999998,3936.79999999999,3943.69999999998,3943.69999999998,3936.79999999999,3943.69999999998,1,3943.69999999998,0,0,NA,"Click To Continue","Continue Button",2,"object-52","Task Instructions",NA,"SUPPRF40866"
"8",1709581464930,"04/03/2024 19:44:24",1709581464930,0,"04/03/2024 19:44:24",169741,4,"task-v7r7",NA,35770729,10572714,NA,"complete",NA,"65e6212570d2d33db2d2c762","computer","Desktop or Laptop","Windows 10","Chrome 122.0.0.0","1536x864","1536x695",NA,NA,0,"Task Introduction and Instructions (re-introduce video and audio) (Clone)",3,"JAIBHCGDFE","Passed AC2","","Chocking_second","Spreadsheet1",1,"Task Instructions","Screen 4","spepx9",7,"continue","",2476.80000004769,2471.90000000001,2476.80000004769,2476.80000004769,2471.90000000001,2476.80000004769,1,2476.80000004769,0,0,NA,"Click To Continue","Continue Button",2,"object-9","Task Instructions",NA,"SUPPRF40866"
"9",1709581467362,"04/03/2024 19:44:27",1709581467362,0,"04/03/2024 19:44:27",169741,4,"task-v7r7",NA,35770729,10572714,NA,"complete",NA,"65e6212570d2d33db2d2c762","computer","Desktop or Laptop","Windows 10","Chrome 122.0.0.0","1536x864","1536x695",NA,NA,0,"Task Introduction and Instructions (re-introduce video and audio) (Clone)",3,"JAIBHCGDFE","Passed AC2","","Chocking_second","Spreadsheet1",1,"Task Instructions","Screen 5","8nvnao",8,"continue","",2436.10000009536,2430.2,2436.10000009536,2436.10000009536,2430.2,2436.10000009536,1,2436.10000009536,0,0,NA,"Click To Continue","Continue Button",2,"object-44","Task Instructions",NA,"SUPPRF40866"
"10",1709581467365,"04/03/2024 19:44:27",1709581467365,0,"04/03/2024 19:44:27",169741,4,"task-v7r7",NA,35770729,10572714,NA,"complete",NA,"65e6212570d2d33db2d2c762","computer","Desktop or Laptop","Windows 10","Chrome 122.0.0.0","1536x864","1536x695",NA,NA,0,"Task Introduction and Instructions (re-introduce video and audio) (Clone)",3,"JAIBHCGDFE","Passed AC2","","Chocking_second","Spreadsheet1",NA,"","","",NA,"5","END",NA,NA,NA,NA,NA,NA,0,NA,NA,NA,NA,"","",NA,"","",NA,"SUPPRF40866"
"1",1709582924649,"04/03/2024 20:08:44",1709564924649,-5,"04/03/2024 10:08:44",169741,4,"task-v7r7",NA,35771738,10572920,NA,"complete",NA,"65e627240d9a8286e779f5d0","computer","Desktop or Laptop","Windows 10","Chrome 121.0.0.0","1920x1080","1920x953",NA,NA,0,"Task Introduction and Instructions (re-introduce video and audio) (Clone)",3,"BCADJEIFHG","Passed AC2","","Chocking_first","Spreadsheet1",NA,"","","",NA,"5","BEGIN",NA,NA,NA,NA,NA,NA,0,NA,NA,NA,NA,"","",NA,"","",NA,"SUPPRF82077"
"2",1709582929955,"04/03/2024 20:08:49",1709564929955,-5,"04/03/2024 10:08:49",169741,4,"task-v7r7",NA,35771738,10572920,NA,"complete",NA,"65e627240d9a8286e779f5d0","computer","Desktop or Laptop","Windows 10","Chrome 121.0.0.0","1920x1080","1920x953",NA,NA,0,"Task Introduction and Instructions (re-introduce video and audio) (Clone)",3,"BCADJEIFHG","Passed AC2","","Chocking_first","Spreadsheet1",1,"Task Instructions","Screen 1","anr7sn",1,"continue","",4588.09999985695,4583.3,4588.09999985695,4588.09999985695,4583.3,4588.09999985695,1,4588.09999985695,0,0,NA,"Click To Continue","Continue Button",3,"object-60","Task Instructions",NA,"SUPPRF82077"
"3",1709582932664,"04/03/2024 20:08:52",1709564932664,-5,"04/03/2024 10:08:52",169741,4,"task-v7r7",NA,35771738,10572920,NA,"complete",NA,"65e627240d9a8286e779f5d0","computer","Desktop or Laptop","Windows 10","Chrome 121.0.0.0","1920x1080","1920x953",NA,NA,0,"Task Introduction and Instructions (re-introduce video and audio) (Clone)",3,"BCADJEIFHG","Passed AC2","","Chocking_first","Spreadsheet1",1,"Task Instructions","Screen 2","ce2tc8",2,"continue","",2713.9,2708.5,2713.9,2713.9,2708.5,2713.9,1,2713.9,0,0,NA,"Click To Continue","Continue Button",3,"object-59","Task Instructions",NA,"SUPPRF82077"
"4",1709582940522,"04/03/2024 20:09:00",1709564940522,-5,"04/03/2024 10:09:00",169741,4,"task-v7r7",NA,35771738,10572920,NA,"complete",NA,"65e627240d9a8286e779f5d0","computer","Desktop or Laptop","Windows 10","Chrome 121.0.0.0","1920x1080","1920x953",NA,NA,0,"Task Introduction and Instructions (re-introduce video and audio) (Clone)",3,"BCADJEIFHG","Passed AC2","","Chocking_first","Spreadsheet1",1,"Task Instructions","Screen 3","1qtc8v",3,"continue","",7863.79999985695,7861.1,7863.79999985695,7863.79999985695,7861.1,7863.79999985695,1,7863.79999985695,0,0,NA,"Click To Continue","Continue Button",2,"object-2983","Task Instructions",NA,"SUPPRF82077"
"5",1709582948233,"04/03/2024 20:09:08",1709564948233,-5,"04/03/2024 10:09:08",169741,4,"task-v7r7",NA,35771738,10572920,NA,"complete",NA,"65e627240d9a8286e779f5d0","computer","Desktop or Laptop","Windows 10","Chrome 121.0.0.0","1920x1080","1920x953",NA,NA,0,"Task Introduction and Instructions (re-introduce video and audio) (Clone)",3,"BCADJEIFHG","Passed AC2","","Chocking_first","Spreadsheet1",1,"Task Instructions","Screen 12","1a4vu2",4,"continue","",7713.59999995232,7708.6,7713.59999995232,7713.59999995232,7708.6,7713.59999995232,1,7713.59999995232,0,0,NA,"Click To Continue","Continue Button",2,"object-2466","Task Instructions",NA,"SUPPRF82077"
"6",1709582956856,"04/03/2024 20:09:16",1709564956856,-5,"04/03/2024 10:09:16",169741,4,"task-v7r7",NA,35771738,10572920,NA,"complete",NA,"65e627240d9a8286e779f5d0","computer","Desktop or Laptop","Windows 10","Chrome 121.0.0.0","1920x1080","1920x953",NA,NA,0,"Task Introduction and Instructions (re-introduce video and audio) (Clone)",3,"BCADJEIFHG","Passed AC2","","Chocking_first","Spreadsheet1",1,"Task Instructions","Screen 13","q9vwda",5,"continue","",8627.99999995232,8625.2,8627.99999995232,8627.99999995232,8625.2,8627.99999995232,1,8627.99999995232,0,0,NA,"Click To Continue","Continue Button",2,"object-2989","Task Instructions",NA,"SUPPRF82077"
"7",1709582959517,"04/03/2024 20:09:19",1709564959517,-5,"04/03/2024 10:09:19",169741,4,"task-v7r7",NA,35771738,10572920,NA,"complete",NA,"65e627240d9a8286e779f5d0","computer","Desktop or Laptop","Windows 10","Chrome 121.0.0.0","1920x1080","1920x953",NA,NA,0,"Task Introduction and Instructions (re-introduce video and audio) (Clone)",3,"BCADJEIFHG","Passed AC2","","Chocking_first","Spreadsheet1",1,"Task Instructions","Screen 11","oyulb7",6,"continue","",2664,2659.8,2664,2664,2659.8,2664,1,2664,0,0,NA,"Click To Continue","Continue Button",2,"object-52","Task Instructions",NA,"SUPPRF82077"
"8",1709582961791,"04/03/2024 20:09:21",1709564961791,-5,"04/03/2024 10:09:21",169741,4,"task-v7r7",NA,35771738,10572920,NA,"complete",NA,"65e627240d9a8286e779f5d0","computer","Desktop or Laptop","Windows 10","Chrome 121.0.0.0","1920x1080","1920x953",NA,NA,0,"Task Introduction and Instructions (re-introduce video and audio) (Clone)",3,"BCADJEIFHG","Passed AC2","","Chocking_first","Spreadsheet1",1,"Task Instructions","Screen 4","spepx9",7,"continue","",2277.99999995231,2271,2277.99999995231,2277.99999995231,2271,2277.99999995231,1,2277.99999995231,0,0,NA,"Click To Continue","Continue Button",2,"object-9","Task Instructions",NA,"SUPPRF82077"
"9",1709582964427,"04/03/2024 20:09:24",1709564964427,-5,"04/03/2024 10:09:24",169741,4,"task-v7r7",NA,35771738,10572920,NA,"complete",NA,"65e627240d9a8286e779f5d0","computer","Desktop or Laptop","Windows 10","Chrome 121.0.0.0","1920x1080","1920x953",NA,NA,0,"Task Introduction and Instructions (re-introduce video and audio) (Clone)",3,"BCADJEIFHG","Passed AC2","","Chocking_first","Spreadsheet1",1,"Task Instructions","Screen 5","8nvnao",8,"continue","",2643.7,2638.89999999999,2643.7,2643.7,2638.89999999999,2643.7,1,2643.7,0,0,NA,"Click To Continue","Continue Button",2,"object-44","Task Instructions",NA,"SUPPRF82077"
"10",1709582964429,"04/03/2024 20:09:24",1709564964429,-5,"04/03/2024 10:09:24",169741,4,"task-v7r7",NA,35771738,10572920,NA,"complete",NA,"65e627240d9a8286e779f5d0","computer","Desktop or Laptop","Windows 10","Chrome 121.0.0.0","1920x1080","1920x953",NA,NA,0,"Task Introduction and Instructions (re-introduce video and audio) (Clone)",3,"BCADJEIFHG","Passed AC2","","Chocking_first","Spreadsheet1",NA,"","","",NA,"5","END",NA,NA,NA,NA,NA,NA,0,NA,NA,NA,NA,"","",NA,"","",NA,"SUPPRF82077"
"1",1709582655989,"04/03/2024 20:04:15",1709582655989,0,"04/03/2024 20:04:15",169741,4,"task-v7r7",NA,35771539,10572941,NA,"complete",NA,"65e62789fe158501e40a907f","computer","Desktop or Laptop","Windows 10","Chrome 122.0.0.0","1920x1080","1920x919",NA,NA,0,"Task Introduction and Instructions (re-introduce video and audio) (Clone)",3,"CDBEAFJGIH","Failed AC2","Passed AC1","Chocking_second","Spreadsheet1",NA,"","","",NA,"5","BEGIN",NA,NA,NA,NA,NA,NA,0,NA,NA,NA,NA,"","",NA,"","",NA,"SUPPRF89522"
"2",1709582661598,"04/03/2024 20:04:21",1709582661598,0,"04/03/2024 20:04:21",169741,4,"task-v7r7",NA,35771539,10572941,NA,"complete",NA,"65e62789fe158501e40a907f","computer","Desktop or Laptop","Windows 10","Chrome 122.0.0.0","1920x1080","1920x919",NA,NA,0,"Task Introduction and Instructions (re-introduce video and audio) (Clone)",3,"CDBEAFJGIH","Failed AC2","Passed AC1","Chocking_second","Spreadsheet1",1,"Task Instructions","Screen 1","anr7sn",1,"continue","",5550.80000000894,5548.6,5550.80000000894,5550.80000000894,5548.6,5550.80000000894,1,5550.80000000894,0,0,NA,"Click To Continue","Continue Button",3,"object-60","Task Instructions",NA,"SUPPRF89522"
"3",1709582668938,"04/03/2024 20:04:28",1709582668938,0,"04/03/2024 20:04:28",169741,4,"task-v7r7",NA,35771539,10572941,NA,"complete",NA,"65e62789fe158501e40a907f","computer","Desktop or Laptop","Windows 10","Chrome 122.0.0.0","1920x1080","1920x919",NA,NA,0,"Task Introduction and Instructions (re-introduce video and audio) (Clone)",3,"CDBEAFJGIH","Failed AC2","Passed AC1","Chocking_second","Spreadsheet1",1,"Task Instructions","Screen 2","ce2tc8",2,"continue","",7342.50000000596,7340.3,7342.50000000596,7342.50000000596,7340.3,7342.50000000596,1,7342.50000000596,0,0,NA,"Click To Continue","Continue Button",3,"object-59","Task Instructions",NA,"SUPPRF89522"
"4",1709582674365,"04/03/2024 20:04:34",1709582674365,0,"04/03/2024 20:04:34",169741,4,"task-v7r7",NA,35771539,10572941,NA,"complete",NA,"65e62789fe158501e40a907f","computer","Desktop or Laptop","Windows 10","Chrome 122.0.0.0","1920x1080","1920x919",NA,NA,0,"Task Introduction and Instructions (re-introduce video and audio) (Clone)",3,"CDBEAFJGIH","Failed AC2","Passed AC1","Chocking_second","Spreadsheet1",1,"Task Instructions","Screen 3","1qtc8v",3,"continue","",5428.70000000596,5423.6,5428.70000000596,5428.70000000596,5423.6,5428.70000000596,1,5428.70000000596,0,0,NA,"Click To Continue","Continue Button",2,"object-2983","Task Instructions",NA,"SUPPRF89522"
"5",1709582702067,"04/03/2024 20:05:02",1709582702067,0,"04/03/2024 20:05:02",169741,4,"task-v7r7",NA,35771539,10572941,NA,"complete",NA,"65e62789fe158501e40a907f","computer","Desktop or Laptop","Windows 10","Chrome 122.0.0.0","1920x1080","1920x919",NA,NA,0,"Task Introduction and Instructions (re-introduce video and audio) (Clone)",3,"CDBEAFJGIH","Failed AC2","Passed AC1","Chocking_second","Spreadsheet1",1,"Task Instructions","Screen 12","1a4vu2",4,"continue","",27706.900000003,27701.5,27706.900000003,27706.900000003,27701.5,27706.900000003,1,27706.900000003,0,0,NA,"Click To Continue","Continue Button",2,"object-2466","Task Instructions",NA,"SUPPRF89522"
"6",1709582707832,"04/03/2024 20:05:07",1709582707832,0,"04/03/2024 20:05:07",169741,4,"task-v7r7",NA,35771539,10572941,NA,"complete",NA,"65e62789fe158501e40a907f","computer","Desktop or Laptop","Windows 10","Chrome 122.0.0.0","1920x1080","1920x919",NA,NA,0,"Task Introduction and Instructions (re-introduce video and audio) (Clone)",3,"CDBEAFJGIH","Failed AC2","Passed AC1","Chocking_second","Spreadsheet1",1,"Task Instructions","Screen 13","q9vwda",5,"continue","",5770.10000000596,5763.89999999999,5770.10000000596,5770.10000000596,5763.89999999999,5770.10000000596,1,5770.10000000596,0,0,NA,"Click To Continue","Continue Button",2,"object-2989","Task Instructions",NA,"SUPPRF89522"
"7",1709582711278,"04/03/2024 20:05:11",1709582711278,0,"04/03/2024 20:05:11",169741,4,"task-v7r7",NA,35771539,10572941,NA,"complete",NA,"65e62789fe158501e40a907f","computer","Desktop or Laptop","Windows 10","Chrome 122.0.0.0","1920x1080","1920x919",NA,NA,0,"Task Introduction and Instructions (re-introduce video and audio) (Clone)",3,"CDBEAFJGIH","Failed AC2","Passed AC1","Chocking_second","Spreadsheet1",1,"Task Instructions","Screen 11","oyulb7",6,"continue","",3453.00000000298,3451.4,3453.00000000298,3453.00000000298,3451.4,3453.00000000298,1,3453.00000000298,0,0,NA,"Click To Continue","Continue Button",2,"object-52","Task Instructions",NA,"SUPPRF89522"
"8",1709582714107,"04/03/2024 20:05:14",1709582714107,0,"04/03/2024 20:05:14",169741,4,"task-v7r7",NA,35771539,10572941,NA,"complete",NA,"65e62789fe158501e40a907f","computer","Desktop or Laptop","Windows 10","Chrome 122.0.0.0","1920x1080","1920x919",NA,NA,0,"Task Introduction and Instructions (re-introduce video and audio) (Clone)",3,"CDBEAFJGIH","Failed AC2","Passed AC1","Chocking_second","Spreadsheet1",1,"Task Instructions","Screen 4","spepx9",7,"continue","",2829.9,2826.5,2829.9,2829.9,2826.5,2829.9,1,2829.9,0,0,NA,"Click To Continue","Continue Button",2,"object-9","Task Instructions",NA,"SUPPRF89522"
"9",1709582718417,"04/03/2024 20:05:18",1709582718417,0,"04/03/2024 20:05:18",169741,4,"task-v7r7",NA,35771539,10572941,NA,"complete",NA,"65e62789fe158501e40a907f","computer","Desktop or Laptop","Windows 10","Chrome 122.0.0.0","1920x1080","1920x919",NA,NA,0,"Task Introduction and Instructions (re-introduce video and audio) (Clone)",3,"CDBEAFJGIH","Failed AC2","Passed AC1","Chocking_second","Spreadsheet1",1,"Task Instructions","Screen 5","8nvnao",8,"continue","",4314.10000000298,4312.5,4314.10000000298,4314.10000000298,4312.5,4314.10000000298,1,4314.10000000298,0,0,NA,"Click To Continue","Continue Button",2,"object-44","Task Instructions",NA,"SUPPRF89522"
"10",1709582718419,"04/03/2024 20:05:18",1709582718419,0,"04/03/2024 20:05:18",169741,4,"task-v7r7",NA,35771539,10572941,NA,"complete",NA,"65e62789fe158501e40a907f","computer","Desktop or Laptop","Windows 10","Chrome 122.0.0.0","1920x1080","1920x919",NA,NA,0,"Task Introduction and Instructions (re-introduce video and audio) (Clone)",3,"CDBEAFJGIH","Failed AC2","Passed AC1","Chocking_second","Spreadsheet1",NA,"","","",NA,"5","END",NA,NA,NA,NA,NA,NA,0,NA,NA,NA,NA,"","",NA,"","",NA,"SUPPRF89522"
"1",1709583525481,"04/03/2024 20:18:45",1709583525481,0,"04/03/2024 20:18:45",169741,4,"task-v7r7",NA,35772308,10573012,NA,"complete",NA,"65e61cbd9c011620fb06f645","computer","Desktop or Laptop","Windows 10","Chrome 121.0.0.0","1366x768","1366x651",NA,NA,0,"Task Introduction and Instructions (re-introduce video and audio) (Clone)",3,"DECFBGAHJI","Passed AC2","","Chocking_second","Spreadsheet1",NA,"","","",NA,"5","BEGIN",NA,NA,NA,NA,NA,NA,0,NA,NA,NA,NA,"","",NA,"","",NA,"SUPPRF92065"
"2",1709583530283,"04/03/2024 20:18:50",1709583530283,0,"04/03/2024 20:18:50",169741,4,"task-v7r7",NA,35772308,10573012,NA,"complete",NA,"65e61cbd9c011620fb06f645","computer","Desktop or Laptop","Windows 10","Chrome 121.0.0.0","1366x768","1366x651",NA,NA,0,"Task Introduction and Instructions (re-introduce video and audio) (Clone)",3,"DECFBGAHJI","Passed AC2","","Chocking_second","Spreadsheet1",1,"Task Instructions","Screen 1","anr7sn",1,"continue","",4672.39999999986,4665.8,4672.39999999986,4672.39999999986,4665.8,4672.39999999986,1,4672.39999999986,0,0,NA,"Click To Continue","Continue Button",3,"object-60","Task Instructions",NA,"SUPPRF92065"
"3",1709583536531,"04/03/2024 20:18:56",1709583536531,0,"04/03/2024 20:18:56",169741,4,"task-v7r7",NA,35772308,10573012,NA,"complete",NA,"65e61cbd9c011620fb06f645","computer","Desktop or Laptop","Windows 10","Chrome 121.0.0.0","1366x768","1366x651",NA,NA,0,"Task Introduction and Instructions (re-introduce video and audio) (Clone)",3,"DECFBGAHJI","Passed AC2","","Chocking_second","Spreadsheet1",1,"Task Instructions","Screen 2","ce2tc8",2,"continue","",6255.30000000005,6241.1,6255.30000000005,6255.30000000005,6241.1,6255.30000000005,1,6255.30000000005,0,0,NA,"Click To Continue","Continue Button",3,"object-59","Task Instructions",NA,"SUPPRF92065"
"4",1709583540424,"04/03/2024 20:19:00",1709583540424,0,"04/03/2024 20:19:00",169741,4,"task-v7r7",NA,35772308,10573012,NA,"complete",NA,"65e61cbd9c011620fb06f645","computer","Desktop or Laptop","Windows 10","Chrome 121.0.0.0","1366x768","1366x651",NA,NA,0,"Task Introduction and Instructions (re-introduce video and audio) (Clone)",3,"DECFBGAHJI","Passed AC2","","Chocking_second","Spreadsheet1",1,"Task Instructions","Screen 3","1qtc8v",3,"continue","",3906.9,3890.7,3906.9,3906.9,3890.7,3906.9,1,3906.9,0,0,NA,"Click To Continue","Continue Button",2,"object-2983","Task Instructions",NA,"SUPPRF92065"
"5",1709583547413,"04/03/2024 20:19:07",1709583547413,0,"04/03/2024 20:19:07",169741,4,"task-v7r7",NA,35772308,10573012,NA,"complete",NA,"65e61cbd9c011620fb06f645","computer","Desktop or Laptop","Windows 10","Chrome 121.0.0.0","1366x768","1366x651",NA,NA,0,"Task Introduction and Instructions (re-introduce video and audio) (Clone)",3,"DECFBGAHJI","Passed AC2","","Chocking_second","Spreadsheet1",1,"Task Instructions","Screen 12","1a4vu2",4,"continue","",7004.89999999995,6996.9,7004.89999999995,7004.89999999995,6996.9,7004.89999999995,1,7004.89999999995,0,0,NA,"Click To Continue","Continue Button",2,"object-2466","Task Instructions",NA,"SUPPRF92065"
"6",1709583707118,"04/03/2024 20:21:47",1709583707118,0,"04/03/2024 20:21:47",169741,4,"task-v7r7",NA,35772308,10573012,NA,"complete",NA,"65e61cbd9c011620fb06f645","computer","Desktop or Laptop","Windows 10","Chrome 121.0.0.0","1366x768","1366x651",NA,NA,0,"Task Introduction and Instructions (re-introduce video and audio) (Clone)",3,"DECFBGAHJI","Passed AC2","","Chocking_second","Spreadsheet1",1,"Task Instructions","Screen 13","q9vwda",5,"continue","",159694.6,159677.9,159694.6,159694.6,159677.9,159694.6,1,159694.6,0,0,NA,"Click To Continue","Continue Button",2,"object-2989","Task Instructions",NA,"SUPPRF92065"
"7",1709583709822,"04/03/2024 20:21:49",1709583709822,0,"04/03/2024 20:21:49",169741,4,"task-v7r7",NA,35772308,10573012,NA,"complete",NA,"65e61cbd9c011620fb06f645","computer","Desktop or Laptop","Windows 10","Chrome 121.0.0.0","1366x768","1366x651",NA,NA,0,"Task Introduction and Instructions (re-introduce video and audio) (Clone)",3,"DECFBGAHJI","Passed AC2","","Chocking_second","Spreadsheet1",1,"Task Instructions","Screen 11","oyulb7",6,"continue","",2726.20000000004,2710.10000000001,2726.20000000004,2726.20000000004,2710.10000000001,2726.20000000004,1,2726.20000000004,0,0,NA,"Click To Continue","Continue Button",2,"object-52","Task Instructions",NA,"SUPPRF92065"
"8",1709583714575,"04/03/2024 20:21:54",1709583714575,0,"04/03/2024 20:21:54",169741,4,"task-v7r7",NA,35772308,10573012,NA,"complete",NA,"65e61cbd9c011620fb06f645","computer","Desktop or Laptop","Windows 10","Chrome 121.0.0.0","1366x768","1366x651",NA,NA,0,"Task Introduction and Instructions (re-introduce video and audio) (Clone)",3,"DECFBGAHJI","Passed AC2","","Chocking_second","Spreadsheet1",1,"Task Instructions","Screen 4","spepx9",7,"continue","",4755.60000000003,4742.59999999998,4755.60000000003,4755.60000000003,4742.59999999998,4755.60000000003,1,4755.60000000003,0,0,NA,"Click To Continue","Continue Button",2,"object-9","Task Instructions",NA,"SUPPRF92065"
"9",1709583718224,"04/03/2024 20:21:58",1709583718224,0,"04/03/2024 20:21:58",169741,4,"task-v7r7",NA,35772308,10573012,NA,"complete",NA,"65e61cbd9c011620fb06f645","computer","Desktop or Laptop","Windows 10","Chrome 121.0.0.0","1366x768","1366x651",NA,NA,0,"Task Introduction and Instructions (re-introduce video and audio) (Clone)",3,"DECFBGAHJI","Passed AC2","","Chocking_second","Spreadsheet1",1,"Task Instructions","Screen 5","8nvnao",8,"continue","",3662.09999999992,3651.40000000002,3662.09999999992,3662.09999999992,3651.40000000002,3662.09999999992,1,3662.09999999992,0,0,NA,"Click To Continue","Continue Button",2,"object-44","Task Instructions",NA,"SUPPRF92065"
"10",1709583718231,"04/03/2024 20:21:58",1709583718231,0,"04/03/2024 20:21:58",169741,4,"task-v7r7",NA,35772308,10573012,NA,"complete",NA,"65e61cbd9c011620fb06f645","computer","Desktop or Laptop","Windows 10","Chrome 121.0.0.0","1366x768","1366x651",NA,NA,0,"Task Introduction and Instructions (re-introduce video and audio) (Clone)",3,"DECFBGAHJI","Passed AC2","","Chocking_second","Spreadsheet1",NA,"","","",NA,"5","END",NA,NA,NA,NA,NA,NA,0,NA,NA,NA,NA,"","",NA,"","",NA,"SUPPRF92065"
"1",1709586491834,"04/03/2024 21:08:11",1709568491834,-5,"04/03/2024 11:08:11",169741,4,"task-v7r7",NA,35774137,10573500,NA,"complete",NA,"65e6357b41f59d31ba13b2b5","computer","Desktop or Laptop","Mac OS 10.15.7","Chrome 122.0.0.0","1440x900","1440x815",NA,NA,0,"Task Introduction and Instructions (re-introduce video and audio) (Clone)",3,"EFDGCHBIAJ","Passed AC2","","Chocking_second","Spreadsheet1",NA,"","","",NA,"5","BEGIN",NA,NA,NA,NA,NA,NA,0,NA,NA,NA,NA,"","",NA,"","",NA,"SUPPRF57112"
"2",1709586495782,"04/03/2024 21:08:15",1709568495782,-5,"04/03/2024 11:08:15",169741,4,"task-v7r7",NA,35774137,10573500,NA,"complete",NA,"65e6357b41f59d31ba13b2b5","computer","Desktop or Laptop","Mac OS 10.15.7","Chrome 122.0.0.0","1440x900","1440x815",NA,NA,0,"Task Introduction and Instructions (re-introduce video and audio) (Clone)",3,"EFDGCHBIAJ","Passed AC2","","Chocking_second","Spreadsheet1",1,"Task Instructions","Screen 1","anr7sn",1,"continue","",3418.09999997616,3413.8,3418.09999997616,3418.09999997616,3413.8,3418.09999997616,1,3418.09999997616,0,0,NA,"Click To Continue","Continue Button",3,"object-60","Task Instructions",NA,"SUPPRF57112"
"3",1709586504114,"04/03/2024 21:08:24",1709568504114,-5,"04/03/2024 11:08:24",169741,4,"task-v7r7",NA,35774137,10573500,NA,"complete",NA,"65e6357b41f59d31ba13b2b5","computer","Desktop or Laptop","Mac OS 10.15.7","Chrome 122.0.0.0","1440x900","1440x815",NA,NA,0,"Task Introduction and Instructions (re-introduce video and audio) (Clone)",3,"EFDGCHBIAJ","Passed AC2","","Chocking_second","Spreadsheet1",1,"Task Instructions","Screen 2","ce2tc8",2,"continue","",8336.6,8320,8336.6,8336.6,8320,8336.6,1,8336.6,0,0,NA,"Click To Continue","Continue Button",3,"object-59","Task Instructions",NA,"SUPPRF57112"
"4",1709586511564,"04/03/2024 21:08:31",1709568511564,-5,"04/03/2024 11:08:31",169741,4,"task-v7r7",NA,35774137,10573500,NA,"complete",NA,"65e6357b41f59d31ba13b2b5","computer","Desktop or Laptop","Mac OS 10.15.7","Chrome 122.0.0.0","1440x900","1440x815",NA,NA,0,"Task Introduction and Instructions (re-introduce video and audio) (Clone)",3,"EFDGCHBIAJ","Passed AC2","","Chocking_second","Spreadsheet1",1,"Task Instructions","Screen 3","1qtc8v",3,"continue","",7468.09999998808,7467.2,7468.09999998808,7468.09999998808,7467.2,7468.09999998808,1,7468.09999998808,0,0,NA,"Click To Continue","Continue Button",2,"object-2983","Task Instructions",NA,"SUPPRF57112"
"5",1709586518449,"04/03/2024 21:08:38",1709568518449,-5,"04/03/2024 11:08:38",169741,4,"task-v7r7",NA,35774137,10573500,NA,"complete",NA,"65e6357b41f59d31ba13b2b5","computer","Desktop or Laptop","Mac OS 10.15.7","Chrome 122.0.0.0","1440x900","1440x815",NA,NA,0,"Task Introduction and Instructions (re-introduce video and audio) (Clone)",3,"EFDGCHBIAJ","Passed AC2","","Chocking_second","Spreadsheet1",1,"Task Instructions","Screen 12","1a4vu2",4,"continue","",6885.89999998808,6883.5,6885.89999998808,6885.89999998808,6883.5,6885.89999998808,1,6885.89999998808,0,0,NA,"Click To Continue","Continue Button",2,"object-2466","Task Instructions",NA,"SUPPRF57112"
"6",1709586525255,"04/03/2024 21:08:45",1709568525255,-5,"04/03/2024 11:08:45",169741,4,"task-v7r7",NA,35774137,10573500,NA,"complete",NA,"65e6357b41f59d31ba13b2b5","computer","Desktop or Laptop","Mac OS 10.15.7","Chrome 122.0.0.0","1440x900","1440x815",NA,NA,0,"Task Introduction and Instructions (re-introduce video and audio) (Clone)",3,"EFDGCHBIAJ","Passed AC2","","Chocking_second","Spreadsheet1",1,"Task Instructions","Screen 13","q9vwda",5,"continue","",6808.7,6800.4,6808.7,6808.7,6800.4,6808.7,1,6808.7,0,0,NA,"Click To Continue","Continue Button",2,"object-2989","Task Instructions",NA,"SUPPRF57112"
"7",1709586529037,"04/03/2024 21:08:49",1709568529037,-5,"04/03/2024 11:08:49",169741,4,"task-v7r7",NA,35774137,10573500,NA,"complete",NA,"65e6357b41f59d31ba13b2b5","computer","Desktop or Laptop","Mac OS 10.15.7","Chrome 122.0.0.0","1440x900","1440x815",NA,NA,0,"Task Introduction and Instructions (re-introduce video and audio) (Clone)",3,"EFDGCHBIAJ","Passed AC2","","Chocking_second","Spreadsheet1",1,"Task Instructions","Screen 11","oyulb7",6,"continue","",3790.10000001192,3783.60000000001,3790.10000001192,3790.10000001192,3783.60000000001,3790.10000001192,1,3790.10000001192,0,0,NA,"Click To Continue","Continue Button",2,"object-52","Task Instructions",NA,"SUPPRF57112"
"8",1709586531786,"04/03/2024 21:08:51",1709568531786,-5,"04/03/2024 11:08:51",169741,4,"task-v7r7",NA,35774137,10573500,NA,"complete",NA,"65e6357b41f59d31ba13b2b5","computer","Desktop or Laptop","Mac OS 10.15.7","Chrome 122.0.0.0","1440x900","1440x815",NA,NA,0,"Task Introduction and Instructions (re-introduce video and audio) (Clone)",3,"EFDGCHBIAJ","Passed AC2","","Chocking_second","Spreadsheet1",1,"Task Instructions","Screen 4","spepx9",7,"continue","",2756.2,2750.1,2756.2,2756.2,2750.1,2756.2,1,2756.2,0,0,NA,"Click To Continue","Continue Button",2,"object-9","Task Instructions",NA,"SUPPRF57112"
"9",1709586534330,"04/03/2024 21:08:54",1709568534330,-5,"04/03/2024 11:08:54",169741,4,"task-v7r7",NA,35774137,10573500,NA,"complete",NA,"65e6357b41f59d31ba13b2b5","computer","Desktop or Laptop","Mac OS 10.15.7","Chrome 122.0.0.0","1440x900","1440x815",NA,NA,0,"Task Introduction and Instructions (re-introduce video and audio) (Clone)",3,"EFDGCHBIAJ","Passed AC2","","Chocking_second","Spreadsheet1",1,"Task Instructions","Screen 5","8nvnao",8,"continue","",2548.1,2532.5,2548.1,2548.1,2532.5,2548.1,1,2548.1,0,0,NA,"Click To Continue","Continue Button",2,"object-44","Task Instructions",NA,"SUPPRF57112"
"10",1709586534333,"04/03/2024 21:08:54",1709568534333,-5,"04/03/2024 11:08:54",169741,4,"task-v7r7",NA,35774137,10573500,NA,"complete",NA,"65e6357b41f59d31ba13b2b5","computer","Desktop or Laptop","Mac OS 10.15.7","Chrome 122.0.0.0","1440x900","1440x815",NA,NA,0,"Task Introduction and Instructions (re-introduce video and audio) (Clone)",3,"EFDGCHBIAJ","Passed AC2","","Chocking_second","Spreadsheet1",NA,"","","",NA,"5","END",NA,NA,NA,NA,NA,NA,0,NA,NA,NA,NA,"","",NA,"","",NA,"SUPPRF57112"
"1",1709586854783,"04/03/2024 21:14:14",1709568854783,-5,"04/03/2024 11:14:14",169741,4,"task-v7r7",NA,35774351,10573539,NA,"complete",NA,"65e636b392761b1846fc1cc2","computer","Desktop or Laptop","Windows 10","Chrome 122.0.0.0","1920x1080","1920x911",NA,NA,0,"Task Introduction and Instructions (re-introduce video and audio) (Clone)",3,"FGEHDICJBA","Passed AC2","","Chocking_first","Spreadsheet1",NA,"","","",NA,"5","BEGIN",NA,NA,NA,NA,NA,NA,0,NA,NA,NA,NA,"","",NA,"","",NA,"SUPPRF60453"
"2",1709586859200,"04/03/2024 21:14:19",1709568859200,-5,"04/03/2024 11:14:19",169741,4,"task-v7r7",NA,35774351,10573539,NA,"complete",NA,"65e636b392761b1846fc1cc2","computer","Desktop or Laptop","Windows 10","Chrome 122.0.0.0","1920x1080","1920x911",NA,NA,0,"Task Introduction and Instructions (re-introduce video and audio) (Clone)",3,"FGEHDICJBA","Passed AC2","","Chocking_first","Spreadsheet1",1,"Task Instructions","Screen 1","anr7sn",1,"continue","",4380.99999999851,4368.3,4380.99999999851,4380.99999999851,4368.3,4380.99999999851,1,4380.99999999851,0,0,NA,"Click To Continue","Continue Button",3,"object-60","Task Instructions",NA,"SUPPRF60453"
"3",1709586868813,"04/03/2024 21:14:28",1709568868813,-5,"04/03/2024 11:14:28",169741,4,"task-v7r7",NA,35774351,10573539,NA,"complete",NA,"65e636b392761b1846fc1cc2","computer","Desktop or Laptop","Windows 10","Chrome 122.0.0.0","1920x1080","1920x911",NA,NA,0,"Task Introduction and Instructions (re-introduce video and audio) (Clone)",3,"FGEHDICJBA","Passed AC2","","Chocking_first","Spreadsheet1",1,"Task Instructions","Screen 2","ce2tc8",2,"continue","",9626.39999999404,9617.1,9626.39999999404,9626.39999999404,9617.1,9626.39999999404,1,9626.39999999404,0,0,NA,"Click To Continue","Continue Button",3,"object-59","Task Instructions",NA,"SUPPRF60453"
"4",1709586878878,"04/03/2024 21:14:38",1709568878878,-5,"04/03/2024 11:14:38",169741,4,"task-v7r7",NA,35774351,10573539,NA,"complete",NA,"65e636b392761b1846fc1cc2","computer","Desktop or Laptop","Windows 10","Chrome 122.0.0.0","1920x1080","1920x911",NA,NA,0,"Task Introduction and Instructions (re-introduce video and audio) (Clone)",3,"FGEHDICJBA","Passed AC2","","Chocking_first","Spreadsheet1",1,"Task Instructions","Screen 3","1qtc8v",3,"continue","",10074.5999999985,10065.5,10074.5999999985,10074.5999999985,10065.5,10074.5999999985,1,10074.5999999985,0,0,NA,"Click To Continue","Continue Button",2,"object-2983","Task Instructions",NA,"SUPPRF60453"
"5",1709586894259,"04/03/2024 21:14:54",1709568894259,-5,"04/03/2024 11:14:54",169741,4,"task-v7r7",NA,35774351,10573539,NA,"complete",NA,"65e636b392761b1846fc1cc2","computer","Desktop or Laptop","Windows 10","Chrome 122.0.0.0","1920x1080","1920x911",NA,NA,0,"Task Introduction and Instructions (re-introduce video and audio) (Clone)",3,"FGEHDICJBA","Passed AC2","","Chocking_first","Spreadsheet1",1,"Task Instructions","Screen 12","1a4vu2",4,"continue","",15390.3999999955,15380.6,15390.3999999955,15390.3999999955,15380.6,15390.3999999955,1,15390.3999999955,0,0,NA,"Click To Continue","Continue Button",2,"object-2466","Task Instructions",NA,"SUPPRF60453"
"6",1709586904119,"04/03/2024 21:15:04",1709568904119,-5,"04/03/2024 11:15:04",169741,4,"task-v7r7",NA,35774351,10573539,NA,"complete",NA,"65e636b392761b1846fc1cc2","computer","Desktop or Laptop","Windows 10","Chrome 122.0.0.0","1920x1080","1920x911",NA,NA,0,"Task Introduction and Instructions (re-introduce video and audio) (Clone)",3,"FGEHDICJBA","Passed AC2","","Chocking_first","Spreadsheet1",1,"Task Instructions","Screen 13","q9vwda",5,"continue","",9869.39999999702,9866.2,9869.39999999702,9869.39999999702,9866.2,9869.39999999702,1,9869.39999999702,0,0,NA,"Click To Continue","Continue Button",2,"object-2989","Task Instructions",NA,"SUPPRF60453"
"7",1709586907229,"04/03/2024 21:15:07",1709568907229,-5,"04/03/2024 11:15:07",169741,4,"task-v7r7",NA,35774351,10573539,NA,"complete",NA,"65e636b392761b1846fc1cc2","computer","Desktop or Laptop","Windows 10","Chrome 122.0.0.0","1920x1080","1920x911",NA,NA,0,"Task Introduction and Instructions (re-introduce video and audio) (Clone)",3,"FGEHDICJBA","Passed AC2","","Chocking_first","Spreadsheet1",1,"Task Instructions","Screen 11","oyulb7",6,"continue","",3112.99999999404,3106.2,3112.99999999404,3112.99999999404,3106.2,3112.99999999404,1,3112.99999999404,0,0,NA,"Click To Continue","Continue Button",2,"object-52","Task Instructions",NA,"SUPPRF60453"
"8",1709586910866,"04/03/2024 21:15:10",1709568910866,-5,"04/03/2024 11:15:10",169741,4,"task-v7r7",NA,35774351,10573539,NA,"complete",NA,"65e636b392761b1846fc1cc2","computer","Desktop or Laptop","Windows 10","Chrome 122.0.0.0","1920x1080","1920x911",NA,NA,0,"Task Introduction and Instructions (re-introduce video and audio) (Clone)",3,"FGEHDICJBA","Passed AC2","","Chocking_first","Spreadsheet1",1,"Task Instructions","Screen 4","spepx9",7,"continue","",3643.89999999553,3637.39999999999,3643.89999999553,3643.89999999553,3637.39999999999,3643.89999999553,1,3643.89999999553,0,0,NA,"Click To Continue","Continue Button",2,"object-9","Task Instructions",NA,"SUPPRF60453"
"9",1709586913807,"04/03/2024 21:15:13",1709568913807,-5,"04/03/2024 11:15:13",169741,4,"task-v7r7",NA,35774351,10573539,NA,"complete",NA,"65e636b392761b1846fc1cc2","computer","Desktop or Laptop","Windows 10","Chrome 122.0.0.0","1920x1080","1920x911",NA,NA,0,"Task Introduction and Instructions (re-introduce video and audio) (Clone)",3,"FGEHDICJBA","Passed AC2","","Chocking_first","Spreadsheet1",1,"Task Instructions","Screen 5","8nvnao",8,"continue","",2947.69999999851,2940,2947.69999999851,2947.69999999851,2940,2947.69999999851,1,2947.69999999851,0,0,NA,"Click To Continue","Continue Button",2,"object-44","Task Instructions",NA,"SUPPRF60453"
"10",1709586913811,"04/03/2024 21:15:13",1709568913811,-5,"04/03/2024 11:15:13",169741,4,"task-v7r7",NA,35774351,10573539,NA,"complete",NA,"65e636b392761b1846fc1cc2","computer","Desktop or Laptop","Windows 10","Chrome 122.0.0.0","1920x1080","1920x911",NA,NA,0,"Task Introduction and Instructions (re-introduce video and audio) (Clone)",3,"FGEHDICJBA","Passed AC2","","Chocking_first","Spreadsheet1",NA,"","","",NA,"5","END",NA,NA,NA,NA,NA,NA,0,NA,NA,NA,NA,"","",NA,"","",NA,"SUPPRF60453"
"1",1709586937138,"04/03/2024 21:15:37",1709568937138,-5,"04/03/2024 11:15:37",169741,4,"task-v7r7",NA,35774391,10573564,NA,"complete",NA,"65e6378085f512aeefe14550","computer","Desktop or Laptop","Mac OS 10.15.7","Chrome 116.0.0.0","1440x900","1440x754",NA,NA,0,"Task Introduction and Instructions (re-introduce video and audio) (Clone)",3,"GHFIEJDACB","Passed AC2","","Chocking_second","Spreadsheet1",NA,"","","",NA,"5","BEGIN",NA,NA,NA,NA,NA,NA,0,NA,NA,NA,NA,"","",NA,"","",NA,"SUPPRF85387"
"2",1709586959531,"04/03/2024 21:15:59",1709568959531,-5,"04/03/2024 11:15:59",169741,4,"task-v7r7",NA,35774391,10573564,NA,"complete",NA,"65e6378085f512aeefe14550","computer","Desktop or Laptop","Mac OS 10.15.7","Chrome 116.0.0.0","1440x900","1440x754",NA,NA,0,"Task Introduction and Instructions (re-introduce video and audio) (Clone)",3,"GHFIEJDACB","Passed AC2","","Chocking_second","Spreadsheet1",1,"Task Instructions","Screen 1","anr7sn",1,"continue","",22333.4820000004,22320.609,22333.4820000004,22333.4820000004,22320.609,22333.4820000004,1,22333.4820000004,0,0,NA,"Click To Continue","Continue Button",3,"object-60","Task Instructions",NA,"SUPPRF85387"
"3",1709586971944,"04/03/2024 21:16:11",1709568971944,-5,"04/03/2024 11:16:11",169741,4,"task-v7r7",NA,35774391,10573564,NA,"complete",NA,"65e6378085f512aeefe14550","computer","Desktop or Laptop","Mac OS 10.15.7","Chrome 116.0.0.0","1440x900","1440x754",NA,NA,0,"Task Introduction and Instructions (re-introduce video and audio) (Clone)",3,"GHFIEJDACB","Passed AC2","","Chocking_second","Spreadsheet1",1,"Task Instructions","Screen 2","ce2tc8",2,"continue","",12424.866,12408.2,12424.866,12424.866,12408.2,12424.866,1,12424.866,0,0,NA,"Click To Continue","Continue Button",3,"object-59","Task Instructions",NA,"SUPPRF85387"
"4",1709586975878,"04/03/2024 21:16:15",1709568975878,-5,"04/03/2024 11:16:15",169741,4,"task-v7r7",NA,35774391,10573564,NA,"complete",NA,"65e6378085f512aeefe14550","computer","Desktop or Laptop","Mac OS 10.15.7","Chrome 116.0.0.0","1440x900","1440x754",NA,NA,0,"Task Introduction and Instructions (re-introduce video and audio) (Clone)",3,"GHFIEJDACB","Passed AC2","","Chocking_second","Spreadsheet1",1,"Task Instructions","Screen 3","1qtc8v",3,"continue","",3949.842,3933.176,3949.842,3949.842,3933.176,3949.842,1,3949.842,0,0,NA,"Click To Continue","Continue Button",2,"object-2983","Task Instructions",NA,"SUPPRF85387"
"5",1709586981181,"04/03/2024 21:16:21",1709568981181,-5,"04/03/2024 11:16:21",169741,4,"task-v7r7",NA,35774391,10573564,NA,"complete",NA,"65e6378085f512aeefe14550","computer","Desktop or Laptop","Mac OS 10.15.7","Chrome 116.0.0.0","1440x900","1440x754",NA,NA,0,"Task Introduction and Instructions (re-introduce video and audio) (Clone)",3,"GHFIEJDACB","Passed AC2","","Chocking_second","Spreadsheet1",1,"Task Instructions","Screen 12","1a4vu2",4,"continue","",5321.49700000037,5316.45400000001,5321.49700000037,5321.49700000037,5316.45400000001,5321.49700000037,1,5321.49700000037,0,0,NA,"Click To Continue","Continue Button",2,"object-2466","Task Instructions",NA,"SUPPRF85387"
"6",1709586990942,"04/03/2024 21:16:30",1709568990942,-5,"04/03/2024 11:16:30",169741,4,"task-v7r7",NA,35774391,10573564,NA,"complete",NA,"65e6378085f512aeefe14550","computer","Desktop or Laptop","Mac OS 10.15.7","Chrome 116.0.0.0","1440x900","1440x754",NA,NA,0,"Task Introduction and Instructions (re-introduce video and audio) (Clone)",3,"GHFIEJDACB","Passed AC2","","Chocking_second","Spreadsheet1",1,"Task Instructions","Screen 13","q9vwda",5,"continue","",9766.24299999962,9753.834,9766.24299999962,9766.24299999962,9753.834,9766.24299999962,1,9766.24299999962,0,0,NA,"Click To Continue","Continue Button",2,"object-2989","Task Instructions",NA,"SUPPRF85387"
"7",1709586994544,"04/03/2024 21:16:34",1709568994544,-5,"04/03/2024 11:16:34",169741,4,"task-v7r7",NA,35774391,10573564,NA,"complete",NA,"65e6378085f512aeefe14550","computer","Desktop or Laptop","Mac OS 10.15.7","Chrome 116.0.0.0","1440x900","1440x754",NA,NA,0,"Task Introduction and Instructions (re-introduce video and audio) (Clone)",3,"GHFIEJDACB","Passed AC2","","Chocking_second","Spreadsheet1",1,"Task Instructions","Screen 11","oyulb7",6,"continue","",3613.70900000037,3604.999,3613.70900000037,3613.70900000037,3604.999,3613.70900000037,1,3613.70900000037,0,0,NA,"Click To Continue","Continue Button",2,"object-52","Task Instructions",NA,"SUPPRF85387"
"8",1709586999658,"04/03/2024 21:16:39",1709568999658,-5,"04/03/2024 11:16:39",169741,4,"task-v7r7",NA,35774391,10573564,NA,"complete",NA,"65e6378085f512aeefe14550","computer","Desktop or Laptop","Mac OS 10.15.7","Chrome 116.0.0.0","1440x900","1440x754",NA,NA,0,"Task Introduction and Instructions (re-introduce video and audio) (Clone)",3,"GHFIEJDACB","Passed AC2","","Chocking_second","Spreadsheet1",1,"Task Instructions","Screen 4","spepx9",7,"continue","",5123.10999999888,5116.462,5123.10999999888,5123.10999999888,5116.462,5123.10999999888,1,5123.10999999888,0,0,NA,"Click To Continue","Continue Button",2,"object-9","Task Instructions",NA,"SUPPRF85387"
"9",1709587002044,"04/03/2024 21:16:42",1709569002044,-5,"04/03/2024 11:16:42",169741,4,"task-v7r7",NA,35774391,10573564,NA,"complete",NA,"65e6378085f512aeefe14550","computer","Desktop or Laptop","Mac OS 10.15.7","Chrome 116.0.0.0","1440x900","1440x754",NA,NA,0,"Task Introduction and Instructions (re-introduce video and audio) (Clone)",3,"GHFIEJDACB","Passed AC2","","Chocking_second","Spreadsheet1",1,"Task Instructions","Screen 5","8nvnao",8,"continue","",2392.44799999963,2389.50899999999,2392.44799999963,2392.44799999963,2389.50899999999,2392.44799999963,1,2392.44799999963,0,0,NA,"Click To Continue","Continue Button",2,"object-44","Task Instructions",NA,"SUPPRF85387"
"10",1709587002048,"04/03/2024 21:16:42",1709569002048,-5,"04/03/2024 11:16:42",169741,4,"task-v7r7",NA,35774391,10573564,NA,"complete",NA,"65e6378085f512aeefe14550","computer","Desktop or Laptop","Mac OS 10.15.7","Chrome 116.0.0.0","1440x900","1440x754",NA,NA,0,"Task Introduction and Instructions (re-introduce video and audio) (Clone)",3,"GHFIEJDACB","Passed AC2","","Chocking_second","Spreadsheet1",NA,"","","",NA,"5","END",NA,NA,NA,NA,NA,NA,0,NA,NA,NA,NA,"","",NA,"","",NA,"SUPPRF85387"
"1",1709587704589,"04/03/2024 21:28:24",1709587704589,0,"04/03/2024 21:28:24",169741,4,"task-v7r7",NA,35774772,10573608,NA,"complete",NA,"65e638dc6f8a1e9e62cf7935","computer","Desktop or Laptop","Mac OS 10.15.7","Chrome 122.0.0.0","1440x900","1440x813",NA,NA,0,"Task Introduction and Instructions (re-introduce video and audio) (Clone)",3,"HIGJFAEBDC","Passed AC2","","Chocking_first","Spreadsheet1",NA,"","","",NA,"5","BEGIN",NA,NA,NA,NA,NA,NA,0,NA,NA,NA,NA,"","",NA,"","",NA,"SUPPRF16819"
"2",1709587708050,"04/03/2024 21:28:28",1709587708050,0,"04/03/2024 21:28:28",169741,4,"task-v7r7",NA,35774772,10573608,NA,"complete",NA,"65e638dc6f8a1e9e62cf7935","computer","Desktop or Laptop","Mac OS 10.15.7","Chrome 122.0.0.0","1440x900","1440x813",NA,NA,0,"Task Introduction and Instructions (re-introduce video and audio) (Clone)",3,"HIGJFAEBDC","Passed AC2","","Chocking_first","Spreadsheet1",1,"Task Instructions","Screen 1","anr7sn",1,"continue","",3367.30000000037,3351.2,3367.30000000037,3367.30000000037,3351.2,3367.30000000037,1,3367.30000000037,0,0,NA,"Click To Continue","Continue Button",3,"object-60","Task Instructions",NA,"SUPPRF16819"
"3",1709587713833,"04/03/2024 21:28:33",1709587713833,0,"04/03/2024 21:28:33",169741,4,"task-v7r7",NA,35774772,10573608,NA,"complete",NA,"65e638dc6f8a1e9e62cf7935","computer","Desktop or Laptop","Mac OS 10.15.7","Chrome 122.0.0.0","1440x900","1440x813",NA,NA,0,"Task Introduction and Instructions (re-introduce video and audio) (Clone)",3,"HIGJFAEBDC","Passed AC2","","Chocking_first","Spreadsheet1",1,"Task Instructions","Screen 2","ce2tc8",2,"continue","",5798.90000000112,5783.8,5798.90000000112,5798.90000000112,5783.8,5798.90000000112,1,5798.90000000112,0,0,NA,"Click To Continue","Continue Button",3,"object-59","Task Instructions",NA,"SUPPRF16819"
"4",1709587717668,"04/03/2024 21:28:37",1709587717668,0,"04/03/2024 21:28:37",169741,4,"task-v7r7",NA,35774772,10573608,NA,"complete",NA,"65e638dc6f8a1e9e62cf7935","computer","Desktop or Laptop","Mac OS 10.15.7","Chrome 122.0.0.0","1440x900","1440x813",NA,NA,0,"Task Introduction and Instructions (re-introduce video and audio) (Clone)",3,"HIGJFAEBDC","Passed AC2","","Chocking_first","Spreadsheet1",1,"Task Instructions","Screen 3","1qtc8v",3,"continue","",3850.20000000074,3833.6,3850.20000000074,3850.20000000074,3833.6,3850.20000000074,1,3850.20000000074,0,0,NA,"Click To Continue","Continue Button",2,"object-2983","Task Instructions",NA,"SUPPRF16819"
"5",1709587722117,"04/03/2024 21:28:42",1709587722117,0,"04/03/2024 21:28:42",169741,4,"task-v7r7",NA,35774772,10573608,NA,"complete",NA,"65e638dc6f8a1e9e62cf7935","computer","Desktop or Laptop","Mac OS 10.15.7","Chrome 122.0.0.0","1440x900","1440x813",NA,NA,0,"Task Introduction and Instructions (re-introduce video and audio) (Clone)",3,"HIGJFAEBDC","Passed AC2","","Chocking_first","Spreadsheet1",1,"Task Instructions","Screen 12","1a4vu2",4,"continue","",4465.40000000149,4450,4465.40000000149,4465.40000000149,4450,4465.40000000149,1,4465.40000000149,0,0,NA,"Click To Continue","Continue Button",2,"object-2466","Task Instructions",NA,"SUPPRF16819"
"6",1709587727584,"04/03/2024 21:28:47",1709587727584,0,"04/03/2024 21:28:47",169741,4,"task-v7r7",NA,35774772,10573608,NA,"complete",NA,"65e638dc6f8a1e9e62cf7935","computer","Desktop or Laptop","Mac OS 10.15.7","Chrome 122.0.0.0","1440x900","1440x813",NA,NA,0,"Task Introduction and Instructions (re-introduce video and audio) (Clone)",3,"HIGJFAEBDC","Passed AC2","","Chocking_first","Spreadsheet1",1,"Task Instructions","Screen 13","q9vwda",5,"continue","",5482.40000000149,5467.4,5482.40000000149,5482.40000000149,5467.4,5482.40000000149,1,5482.40000000149,0,0,NA,"Click To Continue","Continue Button",2,"object-2989","Task Instructions",NA,"SUPPRF16819"
"7",1709587730401,"04/03/2024 21:28:50",1709587730401,0,"04/03/2024 21:28:50",169741,4,"task-v7r7",NA,35774772,10573608,NA,"complete",NA,"65e638dc6f8a1e9e62cf7935","computer","Desktop or Laptop","Mac OS 10.15.7","Chrome 122.0.0.0","1440x900","1440x813",NA,NA,0,"Task Introduction and Instructions (re-introduce video and audio) (Clone)",3,"HIGJFAEBDC","Passed AC2","","Chocking_first","Spreadsheet1",1,"Task Instructions","Screen 11","oyulb7",6,"continue","",2831.70000000075,2816.8,2831.70000000075,2831.70000000075,2816.8,2831.70000000075,1,2831.70000000075,0,0,NA,"Click To Continue","Continue Button",2,"object-52","Task Instructions",NA,"SUPPRF16819"
"8",1709587732968,"04/03/2024 21:28:52",1709587732968,0,"04/03/2024 21:28:52",169741,4,"task-v7r7",NA,35774772,10573608,NA,"complete",NA,"65e638dc6f8a1e9e62cf7935","computer","Desktop or Laptop","Mac OS 10.15.7","Chrome 122.0.0.0","1440x900","1440x813",NA,NA,0,"Task Introduction and Instructions (re-introduce video and audio) (Clone)",3,"HIGJFAEBDC","Passed AC2","","Chocking_first","Spreadsheet1",1,"Task Instructions","Screen 4","spepx9",7,"continue","",2581.90000000074,2566.4,2581.90000000074,2581.90000000074,2566.4,2581.90000000074,1,2581.90000000074,0,0,NA,"Click To Continue","Continue Button",2,"object-9","Task Instructions",NA,"SUPPRF16819"
"9",1709587735485,"04/03/2024 21:28:55",1709587735485,0,"04/03/2024 21:28:55",169741,4,"task-v7r7",NA,35774772,10573608,NA,"complete",NA,"65e638dc6f8a1e9e62cf7935","computer","Desktop or Laptop","Mac OS 10.15.7","Chrome 122.0.0.0","1440x900","1440x813",NA,NA,0,"Task Introduction and Instructions (re-introduce video and audio) (Clone)",3,"HIGJFAEBDC","Passed AC2","","Chocking_first","Spreadsheet1",1,"Task Instructions","Screen 5","8nvnao",8,"continue","",2532.2,2517.3,2532.2,2532.2,2517.3,2532.2,1,2532.2,0,0,NA,"Click To Continue","Continue Button",2,"object-44","Task Instructions",NA,"SUPPRF16819"
"10",1709587735488,"04/03/2024 21:28:55",1709587735488,0,"04/03/2024 21:28:55",169741,4,"task-v7r7",NA,35774772,10573608,NA,"complete",NA,"65e638dc6f8a1e9e62cf7935","computer","Desktop or Laptop","Mac OS 10.15.7","Chrome 122.0.0.0","1440x900","1440x813",NA,NA,0,"Task Introduction and Instructions (re-introduce video and audio) (Clone)",3,"HIGJFAEBDC","Passed AC2","","Chocking_first","Spreadsheet1",NA,"","","",NA,"5","END",NA,NA,NA,NA,NA,NA,0,NA,NA,NA,NA,"","",NA,"","",NA,"SUPPRF16819"
"1",1709589895875,"04/03/2024 22:04:55",1709589895875,0,"04/03/2024 22:04:55",169741,4,"task-v7r7",NA,35775967,10573740,NA,"complete",NA,"65e63aec8bedd849e61a5057","computer","Desktop or Laptop","Windows 10","Chrome 122.0.0.0","1552x970","1552x970",NA,NA,0,"Task Introduction and Instructions (re-introduce video and audio) (Clone)",3,"IJHAGBFCED","Passed AC2","","Chocking_first","Spreadsheet1",NA,"","","",NA,"5","BEGIN",NA,NA,NA,NA,NA,NA,0,NA,NA,NA,NA,"","",NA,"","",NA,"SUPPRF32972"
"2",1709589906578,"04/03/2024 22:05:06",1709589906578,0,"04/03/2024 22:05:06",169741,4,"task-v7r7",NA,35775967,10573740,NA,"complete",NA,"65e63aec8bedd849e61a5057","computer","Desktop or Laptop","Windows 10","Chrome 122.0.0.0","1552x970","1552x970",NA,NA,0,"Task Introduction and Instructions (re-introduce video and audio) (Clone)",3,"IJHAGBFCED","Passed AC2","","Chocking_first","Spreadsheet1",1,"Task Instructions","Screen 1","anr7sn",1,"continue","",10585.9999999993,10579.5,10585.9999999993,10585.9999999993,10579.5,10585.9999999993,1,10585.9999999993,0,0,NA,"Click To Continue","Continue Button",3,"object-60","Task Instructions",NA,"SUPPRF32972"
"3",1709589923583,"04/03/2024 22:05:23",1709589923583,0,"04/03/2024 22:05:23",169741,4,"task-v7r7",NA,35775967,10573740,NA,"complete",NA,"65e63aec8bedd849e61a5057","computer","Desktop or Laptop","Windows 10","Chrome 122.0.0.0","1552x970","1552x970",NA,NA,0,"Task Introduction and Instructions (re-introduce video and audio) (Clone)",3,"IJHAGBFCED","Passed AC2","","Chocking_first","Spreadsheet1",1,"Task Instructions","Screen 2","ce2tc8",2,"continue","",17011.4999999993,16999.4,17011.4999999993,17011.4999999993,16999.4,17011.4999999993,1,17011.4999999993,0,0,NA,"Click To Continue","Continue Button",3,"object-59","Task Instructions",NA,"SUPPRF32972"
"4",1709589933713,"04/03/2024 22:05:33",1709589933713,0,"04/03/2024 22:05:33",169741,4,"task-v7r7",NA,35775967,10573740,NA,"complete",NA,"65e63aec8bedd849e61a5057","computer","Desktop or Laptop","Windows 10","Chrome 122.0.0.0","1552x970","1552x970",NA,NA,0,"Task Introduction and Instructions (re-introduce video and audio) (Clone)",3,"IJHAGBFCED","Passed AC2","","Chocking_first","Spreadsheet1",1,"Task Instructions","Screen 3","1qtc8v",3,"continue","",10142.5000000015,10137.2,10142.5000000015,10142.5000000015,10137.2,10142.5000000015,1,10142.5000000015,0,0,NA,"Click To Continue","Continue Button",2,"object-2983","Task Instructions",NA,"SUPPRF32972"
"5",1709589942859,"04/03/2024 22:05:42",1709589942859,0,"04/03/2024 22:05:42",169741,4,"task-v7r7",NA,35775967,10573740,NA,"complete",NA,"65e63aec8bedd849e61a5057","computer","Desktop or Laptop","Windows 10","Chrome 122.0.0.0","1552x970","1552x970",NA,NA,0,"Task Introduction and Instructions (re-introduce video and audio) (Clone)",3,"IJHAGBFCED","Passed AC2","","Chocking_first","Spreadsheet1",1,"Task Instructions","Screen 12","1a4vu2",4,"continue","",9151.50000000074,9141.3,9151.50000000074,9151.50000000074,9141.3,9151.50000000074,1,9151.50000000074,0,0,NA,"Click To Continue","Continue Button",2,"object-2466","Task Instructions",NA,"SUPPRF32972"
"6",1709589951888,"04/03/2024 22:05:51",1709589951888,0,"04/03/2024 22:05:51",169741,4,"task-v7r7",NA,35775967,10573740,NA,"complete",NA,"65e63aec8bedd849e61a5057","computer","Desktop or Laptop","Windows 10","Chrome 122.0.0.0","1552x970","1552x970",NA,NA,0,"Task Introduction and Instructions (re-introduce video and audio) (Clone)",3,"IJHAGBFCED","Passed AC2","","Chocking_first","Spreadsheet1",1,"Task Instructions","Screen 13","q9vwda",5,"continue","",9039.4,9026.8,9039.4,9039.4,9026.8,9039.4,1,9039.4,0,0,NA,"Click To Continue","Continue Button",2,"object-2989","Task Instructions",NA,"SUPPRF32972"
"7",1709589954778,"04/03/2024 22:05:54",1709589954778,0,"04/03/2024 22:05:54",169741,4,"task-v7r7",NA,35775967,10573740,NA,"complete",NA,"65e63aec8bedd849e61a5057","computer","Desktop or Laptop","Windows 10","Chrome 122.0.0.0","1552x970","1552x970",NA,NA,0,"Task Introduction and Instructions (re-introduce video and audio) (Clone)",3,"IJHAGBFCED","Passed AC2","","Chocking_first","Spreadsheet1",1,"Task Instructions","Screen 11","oyulb7",6,"continue","",2902.40000000074,2889.9,2902.40000000074,2902.40000000074,2889.9,2902.40000000074,1,2902.40000000074,0,0,NA,"Click To Continue","Continue Button",2,"object-52","Task Instructions",NA,"SUPPRF32972"
"8",1709590088214,"04/03/2024 22:08:08",1709590088214,0,"04/03/2024 22:08:08",169741,4,"task-v7r7",NA,35775967,10573740,NA,"complete",NA,"65e63aec8bedd849e61a5057","computer","Desktop or Laptop","Windows 10","Chrome 122.0.0.0","1552x970","1552x970",NA,NA,0,"Task Introduction and Instructions (re-introduce video and audio) (Clone)",3,"IJHAGBFCED","Passed AC2","","Chocking_first","Spreadsheet1",1,"Task Instructions","Screen 4","spepx9",7,"continue","",133448.6,133442.5,133448.6,133448.6,133442.5,133448.6,1,133448.6,0,0,NA,"Click To Continue","Continue Button",2,"object-9","Task Instructions",NA,"SUPPRF32972"
"9",1709590091026,"04/03/2024 22:08:11",1709590091026,0,"04/03/2024 22:08:11",169741,4,"task-v7r7",NA,35775967,10573740,NA,"complete",NA,"65e63aec8bedd849e61a5057","computer","Desktop or Laptop","Windows 10","Chrome 122.0.0.0","1552x970","1552x970",NA,NA,0,"Task Introduction and Instructions (re-introduce video and audio) (Clone)",3,"IJHAGBFCED","Passed AC2","","Chocking_first","Spreadsheet1",1,"Task Instructions","Screen 5","8nvnao",8,"continue","",2817.8000000015,2811.90000000002,2817.8000000015,2817.8000000015,2811.90000000002,2817.8000000015,1,2817.8000000015,0,0,NA,"Click To Continue","Continue Button",2,"object-44","Task Instructions",NA,"SUPPRF32972"
"10",1709590091027,"04/03/2024 22:08:11",1709590091027,0,"04/03/2024 22:08:11",169741,4,"task-v7r7",NA,35775967,10573740,NA,"complete",NA,"65e63aec8bedd849e61a5057","computer","Desktop or Laptop","Windows 10","Chrome 122.0.0.0","1552x970","1552x970",NA,NA,0,"Task Introduction and Instructions (re-introduce video and audio) (Clone)",3,"IJHAGBFCED","Passed AC2","","Chocking_first","Spreadsheet1",NA,"","","",NA,"5","END",NA,NA,NA,NA,NA,NA,0,NA,NA,NA,NA,"","",NA,"","",NA,"SUPPRF32972"
