"Event.Index","UTC.Timestamp","UTC.Date.and.Time","Local.Timestamp","Local.Timezone","Local.Date.and.Time","Experiment.ID","Experiment.Version","Tree.Node.Key","Repeat.Key","Schedule.ID","Participant.Private.ID","Participant.Starting.Group","Participant.Status","Participant.Completion.Code","Participant.Device.Type","Participant.Device","Participant.OS","Participant.Browser","Participant.Monitor.Size","Participant.Viewport.Size","Checkpoint","Room.ID","Room.Order","Task.Name","Task.Version","order.ot79","branch.g31k","branch.5gtn","Spreadsheet","Current.Spreadsheet","Trial.Number","Display","Screen","Screen.ID","Screen.Counter","Response.Type","Response","Onset.Time","Clock.Time","Reaction.Time","Absolute.Onset.Time","Absolute.Clock.Time","Absolute.Reaction.Time","Correct","Response.Onset","Response.Duration","Proportion","Tag","Component.Name","Object.Name","Object.Number","Object.ID","Spreadsheet..display","Manipulation..Spreadsheet","Random_ID_new"
"1",1718028434526,"10/06/2024 14:07:14",1718032034526,1,"10/06/2024 16:07:14",180348,1,"task-7hcp",NA,38154014,11220758,NA,"complete",NA,"computer","Desktop or Laptop","Mac OS 10.15.7","Chrome 125.0.0.0","1440x900","1440x779",NA,NA,0,"BIQ (Charlotte)",5,"ABICHDGEF","Passed AC2",NA,"Spreadsheet1","Spreadsheet1",NA,"","","",NA,"info","BEGIN",NA,NA,NA,NA,NA,NA,0,NA,NA,NA,NA,"","",NA,"","",NA,"SUPLCM24387"
"2",1718028473242,"10/06/2024 14:07:53",1718032073242,1,"10/06/2024 16:07:53",180348,1,"task-7hcp",NA,38154014,11220758,NA,"complete",NA,"computer","Desktop or Laptop","Mac OS 10.15.7","Chrome 125.0.0.0","1440x900","1440x779",NA,NA,0,"BIQ (Charlotte)",5,"ABICHDGEF","Passed AC2",NA,"Spreadsheet1","Spreadsheet1",1,"BIQ","Screen 1","9dh6eq",1,"continue","",38734.3,38717.6,38734.3,38734.3,38717.6,38734.3,1,38734.3,0,0,NA,"Click To Continue","Continue Button",16,"object-48","BIQ",NA,"SUPLCM24387"
"3",1718028473245,"10/06/2024 14:07:53",1718032073245,1,"10/06/2024 16:07:53",180348,1,"task-7hcp",NA,38154014,11220758,NA,"complete",NA,"computer","Desktop or Laptop","Mac OS 10.15.7","Chrome 125.0.0.0","1440x900","1440x779",NA,NA,0,"BIQ (Charlotte)",5,"ABICHDGEF","Passed AC2",NA,"Spreadsheet1","Spreadsheet1",1,"BIQ","Screen 1","9dh6eq",1,"response","6",32934.2,38717.6,38734.3,32934.2,38717.6,38734.3,1,32934.2,5800.1,0,NA,"Rating Scale","Rating Scale",3,"object-5","BIQ",NA,"SUPLCM24387"
"4",1718028473245,"10/06/2024 14:07:53",1718032073245,1,"10/06/2024 16:07:53",180348,1,"task-7hcp",NA,38154014,11220758,NA,"complete",NA,"computer","Desktop or Laptop","Mac OS 10.15.7","Chrome 125.0.0.0","1440x900","1440x779",NA,NA,0,"BIQ (Charlotte)",5,"ABICHDGEF","Passed AC2",NA,"Spreadsheet1","Spreadsheet1",1,"BIQ","Screen 1","9dh6eq",1,"response","2",36884.2,38717.6,38734.3,36884.2,38717.6,38734.3,1,36884.2,1850.1,0,NA,"Rating Scale","Rating Scale",10,"object-18","BIQ",NA,"SUPLCM24387"
"5",1718028486786,"10/06/2024 14:08:06",1718032086786,1,"10/06/2024 16:08:06",180348,1,"task-7hcp",NA,38154014,11220758,NA,"complete",NA,"computer","Desktop or Laptop","Mac OS 10.15.7","Chrome 125.0.0.0","1440x900","1440x779",NA,NA,0,"BIQ (Charlotte)",5,"ABICHDGEF","Passed AC2",NA,"Spreadsheet1","Spreadsheet1",1,"BIQ","Screen 2","svpz34",2,"continue","",13564.6999999821,13550.3,13564.6999999821,13564.6999999821,13550.3,13564.6999999821,1,13564.6999999821,0,0,NA,"Click To Continue","Continue Button",7,"object-1017","BIQ",NA,"SUPLCM24387"
"6",1718028486789,"10/06/2024 14:08:06",1718032086789,1,"10/06/2024 16:08:06",180348,1,"task-7hcp",NA,38154014,11220758,NA,"complete",NA,"computer","Desktop or Laptop","Mac OS 10.15.7","Chrome 125.0.0.0","1440x900","1440x779",NA,NA,0,"BIQ (Charlotte)",5,"ABICHDGEF","Passed AC2",NA,"Spreadsheet1","Spreadsheet1",1,"BIQ","Screen 2","svpz34",2,"response","1",6633.5,13550.3,13567,6633.5,13550.3,13567,1,6633.5,6933.50000000001,0,NA,"Rating Scale","Rating Scale",8,"object-118","BIQ",NA,"SUPLCM24387"
"7",1718028486790,"10/06/2024 14:08:06",1718032086790,1,"10/06/2024 16:08:06",180348,1,"task-7hcp",NA,38154014,11220758,NA,"complete",NA,"computer","Desktop or Laptop","Mac OS 10.15.7","Chrome 125.0.0.0","1440x900","1440x779",NA,NA,0,"BIQ (Charlotte)",5,"ABICHDGEF","Passed AC2",NA,"Spreadsheet1","Spreadsheet1",1,"BIQ","Screen 2","svpz34",2,"response","2",11316.8,13550.3,13567,11316.8,13550.3,13567,1,11316.8,2250.2,0,NA,"Rating Scale","Rating Scale",10,"object-121","BIQ",NA,"SUPLCM24387"
"8",1718028500953,"10/06/2024 14:08:20",1718032100953,1,"10/06/2024 16:08:20",180348,1,"task-7hcp",NA,38154014,11220758,NA,"complete",NA,"computer","Desktop or Laptop","Mac OS 10.15.7","Chrome 125.0.0.0","1440x900","1440x779",NA,NA,0,"BIQ (Charlotte)",5,"ABICHDGEF","Passed AC2",NA,"Spreadsheet1","Spreadsheet1",1,"BIQ","Screen 3","o21mwi",3,"continue","",14181.4999999762,14166.8,14181.4999999762,14181.4999999762,14166.8,14181.4999999762,1,14181.4999999762,0,0,NA,"Click To Continue","Continue Button",15,"object-50","BIQ",NA,"SUPLCM24387"
"9",1718028500955,"10/06/2024 14:08:20",1718032100955,1,"10/06/2024 16:08:20",180348,1,"task-7hcp",NA,38154014,11220758,NA,"complete",NA,"computer","Desktop or Laptop","Mac OS 10.15.7","Chrome 125.0.0.0","1440x900","1440x779",NA,NA,0,"BIQ (Charlotte)",5,"ABICHDGEF","Passed AC2",NA,"Spreadsheet1","Spreadsheet1",1,"BIQ","Screen 3","o21mwi",3,"response","1",4632.6,14166.8,14183.3,4632.6,14166.8,14183.3,1,4632.6,9550.7,0,NA,"Rating Scale","Rating Scale",2,"object-36","BIQ",NA,"SUPLCM24387"
"10",1718028500956,"10/06/2024 14:08:20",1718032100956,1,"10/06/2024 16:08:20",180348,1,"task-7hcp",NA,38154014,11220758,NA,"complete",NA,"computer","Desktop or Laptop","Mac OS 10.15.7","Chrome 125.0.0.0","1440x900","1440x779",NA,NA,0,"BIQ (Charlotte)",5,"ABICHDGEF","Passed AC2",NA,"Spreadsheet1","Spreadsheet1",1,"BIQ","Screen 3","o21mwi",3,"response","7",13250.3,14166.8,14183.3,13250.3,14166.8,14183.3,1,13250.3,933,0,NA,"Rating Scale","Rating Scale",9,"object-86","BIQ",NA,"SUPLCM24387"
"11",1718028513352,"10/06/2024 14:08:33",1718032113352,1,"10/06/2024 16:08:33",180348,1,"task-7hcp",NA,38154014,11220758,NA,"complete",NA,"computer","Desktop or Laptop","Mac OS 10.15.7","Chrome 125.0.0.0","1440x900","1440x779",NA,NA,0,"BIQ (Charlotte)",5,"ABICHDGEF","Passed AC2",NA,"Spreadsheet1","Spreadsheet1",1,"BIQ","Screen 4","iz3the",4,"continue","",12414.0999999821,12400.4,12414.0999999821,12414.0999999821,12400.4,12414.0999999821,1,12414.0999999821,0,0,NA,"Click To Continue","Continue Button",22,"object-73","BIQ",NA,"SUPLCM24387"
"12",1718028513355,"10/06/2024 14:08:33",1718032113355,1,"10/06/2024 16:08:33",180348,1,"task-7hcp",NA,38154014,11220758,NA,"complete",NA,"computer","Desktop or Laptop","Mac OS 10.15.7","Chrome 125.0.0.0","1440x900","1440x779",NA,NA,0,"BIQ (Charlotte)",5,"ABICHDGEF","Passed AC2",NA,"Spreadsheet1","Spreadsheet1",1,"BIQ","Screen 4","iz3the",4,"response","0",4283.10000000001,12400.4,12417,4283.10000000001,12400.4,12417,1,4283.10000000001,8133.90000000001,0,NA,"Rating Scale","Rating Scale",2,"object-53","BIQ",NA,"SUPLCM24387"
"13",1718028513355,"10/06/2024 14:08:33",1718032113355,1,"10/06/2024 16:08:33",180348,1,"task-7hcp",NA,38154014,11220758,NA,"complete",NA,"computer","Desktop or Laptop","Mac OS 10.15.7","Chrome 125.0.0.0","1440x900","1440x779",NA,NA,0,"BIQ (Charlotte)",5,"ABICHDGEF","Passed AC2",NA,"Spreadsheet1","Spreadsheet1",1,"BIQ","Screen 4","iz3the",4,"response","4",8633.5,12400.4,12417,8633.5,12400.4,12417,1,8633.5,3783.50000000001,0,NA,"Rating Scale","Rating Scale",9,"object-60","BIQ",NA,"SUPLCM24387"
"14",1718028513355,"10/06/2024 14:08:33",1718032113355,1,"10/06/2024 16:08:33",180348,1,"task-7hcp",NA,38154014,11220758,NA,"complete",NA,"computer","Desktop or Laptop","Mac OS 10.15.7","Chrome 125.0.0.0","1440x900","1440x779",NA,NA,0,"BIQ (Charlotte)",5,"ABICHDGEF","Passed AC2",NA,"Spreadsheet1","Spreadsheet1",1,"BIQ","Screen 4","iz3the",4,"response","3",11700.4,12400.4,12417,11700.4,12400.4,12417,1,11700.4,716.600000000006,0,NA,"Rating Scale","Rating Scale",16,"object-67","BIQ",NA,"SUPLCM24387"
"15",1718028513361,"10/06/2024 14:08:33",1718032113361,1,"10/06/2024 16:08:33",180348,1,"task-7hcp",NA,38154014,11220758,NA,"complete",NA,"computer","Desktop or Laptop","Mac OS 10.15.7","Chrome 125.0.0.0","1440x900","1440x779",NA,NA,0,"BIQ (Charlotte)",5,"ABICHDGEF","Passed AC2",NA,"Spreadsheet1","Spreadsheet1",NA,"","","",NA,"info","END",NA,NA,NA,NA,NA,NA,0,NA,NA,NA,NA,"","",NA,"","",NA,"SUPLCM24387"
"1",1718359393967,"14/06/2024 10:03:13",1718362993967,1,"14/06/2024 12:03:13",180348,1,"task-7hcp",NA,38250089,11245520,NA,"complete",NA,"computer","Desktop or Laptop","Windows 10","Chrome 124.0.0.0","1280x720","1283x554",NA,NA,0,"BIQ (Charlotte)",5,"BCADIEHFG","Passed AC2",NA,"Spreadsheet1","Spreadsheet1",NA,"","","",NA,"info","BEGIN",NA,NA,NA,NA,NA,NA,0,NA,NA,NA,NA,"","",NA,"","",NA,"SUPLCM46030"
"2",1718359409067,"14/06/2024 10:03:29",1718363009067,1,"14/06/2024 12:03:29",180348,1,"task-7hcp",NA,38250089,11245520,NA,"complete",NA,"computer","Desktop or Laptop","Windows 10","Chrome 124.0.0.0","1280x720","1283x554",NA,NA,0,"BIQ (Charlotte)",5,"BCADIEHFG","Passed AC2",NA,"Spreadsheet1","Spreadsheet1",1,"BIQ","Screen 1","9dh6eq",1,"continue","",15112.2820000238,15097.082,15112.2820000238,15112.2820000238,15097.082,15112.2820000238,1,15112.2820000238,0,0,NA,"Click To Continue","Continue Button",16,"object-48","BIQ",NA,"SUPLCM46030"
"3",1718359409068,"14/06/2024 10:03:29",1718363009068,1,"14/06/2024 12:03:29",180348,1,"task-7hcp",NA,38250089,11245520,NA,"complete",NA,"computer","Desktop or Laptop","Windows 10","Chrome 124.0.0.0","1280x720","1283x554",NA,NA,0,"BIQ (Charlotte)",5,"BCADIEHFG","Passed AC2",NA,"Spreadsheet1","Spreadsheet1",1,"BIQ","Screen 1","9dh6eq",1,"response","5",5948.682,15097.082,15113.582,5948.682,15097.082,15113.582,1,5948.682,9164.9,0,NA,"Rating Scale","Rating Scale",3,"object-5","BIQ",NA,"SUPLCM46030"
"4",1718359409068,"14/06/2024 10:03:29",1718363009068,1,"14/06/2024 12:03:29",180348,1,"task-7hcp",NA,38250089,11245520,NA,"complete",NA,"computer","Desktop or Laptop","Windows 10","Chrome 124.0.0.0","1280x720","1283x554",NA,NA,0,"BIQ (Charlotte)",5,"BCADIEHFG","Passed AC2",NA,"Spreadsheet1","Spreadsheet1",1,"BIQ","Screen 1","9dh6eq",1,"response","7",13247.582,15097.082,15113.582,13247.582,15097.082,15113.582,1,13247.582,1866,0,NA,"Rating Scale","Rating Scale",10,"object-18","BIQ",NA,"SUPLCM46030"
"5",1718359418310,"14/06/2024 10:03:38",1718363018310,1,"14/06/2024 12:03:38",180348,1,"task-7hcp",NA,38250089,11245520,NA,"complete",NA,"computer","Desktop or Laptop","Windows 10","Chrome 124.0.0.0","1280x720","1283x554",NA,NA,0,"BIQ (Charlotte)",5,"BCADIEHFG","Passed AC2",NA,"Spreadsheet1","Spreadsheet1",1,"BIQ","Screen 2","svpz34",2,"continue","",9259.1,9248.4,9259.1,9259.1,9248.4,9259.1,1,9259.1,0,0,NA,"Click To Continue","Continue Button",7,"object-1017","BIQ",NA,"SUPLCM46030"
"6",1718359418312,"14/06/2024 10:03:38",1718363018312,1,"14/06/2024 12:03:38",180348,1,"task-7hcp",NA,38250089,11245520,NA,"complete",NA,"computer","Desktop or Laptop","Windows 10","Chrome 124.0.0.0","1280x720","1283x554",NA,NA,0,"BIQ (Charlotte)",5,"BCADIEHFG","Passed AC2",NA,"Spreadsheet1","Spreadsheet1",1,"BIQ","Screen 2","svpz34",2,"response","1",4716.5,9248.4,9260.29999992847,4716.5,9248.4,9260.29999992847,1,4716.5,4543.79999992847,0,NA,"Rating Scale","Rating Scale",8,"object-118","BIQ",NA,"SUPLCM46030"
"7",1718359418312,"14/06/2024 10:03:38",1718363018312,1,"14/06/2024 12:03:38",180348,1,"task-7hcp",NA,38250089,11245520,NA,"complete",NA,"computer","Desktop or Laptop","Windows 10","Chrome 124.0.0.0","1280x720","1283x554",NA,NA,0,"BIQ (Charlotte)",5,"BCADIEHFG","Passed AC2",NA,"Spreadsheet1","Spreadsheet1",1,"BIQ","Screen 2","svpz34",2,"response","8",6682.1,9248.4,9260.49999997616,6682.1,9248.4,9260.49999997616,1,6682.1,2578.39999997616,0,NA,"Rating Scale","Rating Scale",10,"object-121","BIQ",NA,"SUPLCM46030"
"8",1718359434496,"14/06/2024 10:03:54",1718363034496,1,"14/06/2024 12:03:54",180348,1,"task-7hcp",NA,38250089,11245520,NA,"complete",NA,"computer","Desktop or Laptop","Windows 10","Chrome 124.0.0.0","1280x720","1283x554",NA,NA,0,"BIQ (Charlotte)",5,"BCADIEHFG","Passed AC2",NA,"Spreadsheet1","Spreadsheet1",1,"BIQ","Screen 3","o21mwi",3,"continue","",16196.2,16180.4,16196.2,16196.2,16180.4,16196.2,1,16196.2,0,0,NA,"Click To Continue","Continue Button",15,"object-50","BIQ",NA,"SUPLCM46030"
"9",1718359434501,"14/06/2024 10:03:54",1718363034501,1,"14/06/2024 12:03:54",180348,1,"task-7hcp",NA,38250089,11245520,NA,"complete",NA,"computer","Desktop or Laptop","Windows 10","Chrome 124.0.0.0","1280x720","1283x554",NA,NA,0,"BIQ (Charlotte)",5,"BCADIEHFG","Passed AC2",NA,"Spreadsheet1","Spreadsheet1",1,"BIQ","Screen 3","o21mwi",3,"response","1",2932.7,16180.4,16197.1,2932.7,16180.4,16197.1,1,2932.7,13264.4,0,NA,"Rating Scale","Rating Scale",2,"object-36","BIQ",NA,"SUPLCM46030"
"10",1718359434502,"14/06/2024 10:03:54",1718363034502,1,"14/06/2024 12:03:54",180348,1,"task-7hcp",NA,38250089,11245520,NA,"complete",NA,"computer","Desktop or Laptop","Windows 10","Chrome 124.0.0.0","1280x720","1283x554",NA,NA,0,"BIQ (Charlotte)",5,"BCADIEHFG","Passed AC2",NA,"Spreadsheet1","Spreadsheet1",1,"BIQ","Screen 3","o21mwi",3,"response","2",15363.8,16180.4,16197.1,15363.8,16180.4,16197.1,1,15363.8,833.299999999996,0,NA,"Rating Scale","Rating Scale",9,"object-86","BIQ",NA,"SUPLCM46030"
"11",1718359444475,"14/06/2024 10:04:04",1718363044475,1,"14/06/2024 12:04:04",180348,1,"task-7hcp",NA,38250089,11245520,NA,"complete",NA,"computer","Desktop or Laptop","Windows 10","Chrome 124.0.0.0","1280x720","1283x554",NA,NA,0,"BIQ (Charlotte)",5,"BCADIEHFG","Passed AC2",NA,"Spreadsheet1","Spreadsheet1",1,"BIQ","Screen 4","iz3the",4,"continue","",9994.8,9981.5,9994.8,9994.8,9981.5,9994.8,1,9994.8,0,0,NA,"Click To Continue","Continue Button",22,"object-73","BIQ",NA,"SUPLCM46030"
"12",1718359444475,"14/06/2024 10:04:04",1718363044475,1,"14/06/2024 12:04:04",180348,1,"task-7hcp",NA,38250089,11245520,NA,"complete",NA,"computer","Desktop or Laptop","Windows 10","Chrome 124.0.0.0","1280x720","1283x554",NA,NA,0,"BIQ (Charlotte)",5,"BCADIEHFG","Passed AC2",NA,"Spreadsheet1","Spreadsheet1",1,"BIQ","Screen 4","iz3the",4,"response","0",2766.10000000001,9981.5,9995.49999992848,2766.10000000001,9981.5,9995.49999992848,1,2766.10000000001,7229.39999992847,0,NA,"Rating Scale","Rating Scale",2,"object-53","BIQ",NA,"SUPLCM46030"
"13",1718359444476,"14/06/2024 10:04:04",1718363044476,1,"14/06/2024 12:04:04",180348,1,"task-7hcp",NA,38250089,11245520,NA,"complete",NA,"computer","Desktop or Laptop","Windows 10","Chrome 124.0.0.0","1280x720","1283x554",NA,NA,0,"BIQ (Charlotte)",5,"BCADIEHFG","Passed AC2",NA,"Spreadsheet1","Spreadsheet1",1,"BIQ","Screen 4","iz3the",4,"response","0",4815.9,9981.5,9995.8,4815.9,9981.5,9995.8,1,4815.9,5179.9,0,NA,"Rating Scale","Rating Scale",9,"object-60","BIQ",NA,"SUPLCM46030"
"14",1718359444476,"14/06/2024 10:04:04",1718363044476,1,"14/06/2024 12:04:04",180348,1,"task-7hcp",NA,38250089,11245520,NA,"complete",NA,"computer","Desktop or Laptop","Windows 10","Chrome 124.0.0.0","1280x720","1283x554",NA,NA,0,"BIQ (Charlotte)",5,"BCADIEHFG","Passed AC2",NA,"Spreadsheet1","Spreadsheet1",1,"BIQ","Screen 4","iz3the",4,"response","2",9164.9,9981.5,9996.09999995232,9164.9,9981.5,9996.09999995232,1,9164.9,831.199999952318,0,NA,"Rating Scale","Rating Scale",16,"object-67","BIQ",NA,"SUPLCM46030"
"15",1718359444481,"14/06/2024 10:04:04",1718363044481,1,"14/06/2024 12:04:04",180348,1,"task-7hcp",NA,38250089,11245520,NA,"complete",NA,"computer","Desktop or Laptop","Windows 10","Chrome 124.0.0.0","1280x720","1283x554",NA,NA,0,"BIQ (Charlotte)",5,"BCADIEHFG","Passed AC2",NA,"Spreadsheet1","Spreadsheet1",NA,"","","",NA,"info","END",NA,NA,NA,NA,NA,NA,0,NA,NA,NA,NA,"","",NA,"","",NA,"SUPLCM46030"
"1",1718359515731,"14/06/2024 10:05:15",1718370315731,3,"14/06/2024 16:05:15",180348,1,"task-7hcp",NA,38250151,11245524,NA,"complete",NA,"computer","Desktop or Laptop","Linux x86_64","Chrome 125.0.0.0","360x806","980x1835",NA,NA,0,"BIQ (Charlotte)",5,"CDBEAFIGH","Passed AC2",NA,"Spreadsheet1","Spreadsheet1",NA,"","","",NA,"info","BEGIN",NA,NA,NA,NA,NA,NA,0,NA,NA,NA,NA,"","",NA,"","",NA,"SUPLCM52921"
"2",1718359522099,"14/06/2024 10:05:22",1718370322099,3,"14/06/2024 16:05:22",180348,1,"task-7hcp",NA,38250151,11245524,NA,"complete",NA,"computer","Desktop or Laptop","Linux x86_64","Chrome 125.0.0.0","360x806","980x1835",NA,NA,0,"BIQ (Charlotte)",5,"CDBEAFIGH","Passed AC2",NA,"Spreadsheet1","Spreadsheet1",1,"BIQ","Screen 1","9dh6eq",1,"continue","",6429.9,6413.4,6429.9,6429.9,6413.4,6429.9,1,6429.9,0,0,NA,"Click To Continue","Continue Button",16,"object-48","BIQ",NA,"SUPLCM52921"
"3",1718359522117,"14/06/2024 10:05:22",1718370322117,3,"14/06/2024 16:05:22",180348,1,"task-7hcp",NA,38250151,11245524,NA,"complete",NA,"computer","Desktop or Laptop","Linux x86_64","Chrome 125.0.0.0","360x806","980x1835",NA,NA,0,"BIQ (Charlotte)",5,"CDBEAFIGH","Passed AC2",NA,"Spreadsheet1","Spreadsheet1",1,"BIQ","Screen 1","9dh6eq",1,"response","6",3184.9,6413.4,6429.9,3184.9,6413.4,6429.9,1,3184.9,3245,0,NA,"Rating Scale","Rating Scale",3,"object-5","BIQ",NA,"SUPLCM52921"
"4",1718359522127,"14/06/2024 10:05:22",1718370322127,3,"14/06/2024 16:05:22",180348,1,"task-7hcp",NA,38250151,11245524,NA,"complete",NA,"computer","Desktop or Laptop","Linux x86_64","Chrome 125.0.0.0","360x806","980x1835",NA,NA,0,"BIQ (Charlotte)",5,"CDBEAFIGH","Passed AC2",NA,"Spreadsheet1","Spreadsheet1",1,"BIQ","Screen 1","9dh6eq",1,"response","4",3877.6,6413.4,6429.9,3877.6,6413.4,6429.9,1,3877.6,2552.3,0,NA,"Rating Scale","Rating Scale",10,"object-18","BIQ",NA,"SUPLCM52921"
"5",1718359524407,"14/06/2024 10:05:24",1718370324407,3,"14/06/2024 16:05:24",180348,1,"task-7hcp",NA,38250151,11245524,NA,"complete",NA,"computer","Desktop or Laptop","Linux x86_64","Chrome 125.0.0.0","360x806","980x1835",NA,NA,0,"BIQ (Charlotte)",5,"CDBEAFIGH","Passed AC2",NA,"Spreadsheet1","Spreadsheet1",1,"BIQ","Screen 2","svpz34",2,"continue","",2336.9,2320.3,2336.9,2336.9,2320.3,2336.9,1,2336.9,0,0,NA,"Click To Continue","Continue Button",7,"object-1017","BIQ",NA,"SUPLCM52921"
"6",1718359524414,"14/06/2024 10:05:24",1718370324414,3,"14/06/2024 16:05:24",180348,1,"task-7hcp",NA,38250151,11245524,NA,"complete",NA,"computer","Desktop or Laptop","Linux x86_64","Chrome 125.0.0.0","360x806","980x1835",NA,NA,0,"BIQ (Charlotte)",5,"CDBEAFIGH","Passed AC2",NA,"Spreadsheet1","Spreadsheet1",1,"BIQ","Screen 2","svpz34",2,"response","6",1458.1,2320.3,2336.9,1458.1,2320.3,2336.9,1,1458.1,878.800000000003,0,NA,"Rating Scale","Rating Scale",8,"object-118","BIQ",NA,"SUPLCM52921"
"7",1718359524417,"14/06/2024 10:05:24",1718370324417,3,"14/06/2024 16:05:24",180348,1,"task-7hcp",NA,38250151,11245524,NA,"complete",NA,"computer","Desktop or Laptop","Linux x86_64","Chrome 125.0.0.0","360x806","980x1835",NA,NA,0,"BIQ (Charlotte)",5,"CDBEAFIGH","Passed AC2",NA,"Spreadsheet1","Spreadsheet1",1,"BIQ","Screen 2","svpz34",2,"response","6",1905.6,2320.3,2336.9,1905.6,2320.3,2336.9,1,1905.6,431.300000000003,0,NA,"Rating Scale","Rating Scale",10,"object-121","BIQ",NA,"SUPLCM52921"
"8",1718359527962,"14/06/2024 10:05:27",1718370327962,3,"14/06/2024 16:05:27",180348,1,"task-7hcp",NA,38250151,11245524,NA,"complete",NA,"computer","Desktop or Laptop","Linux x86_64","Chrome 125.0.0.0","360x806","980x1835",NA,NA,0,"BIQ (Charlotte)",5,"CDBEAFIGH","Passed AC2",NA,"Spreadsheet1","Spreadsheet1",1,"BIQ","Screen 3","o21mwi",3,"continue","",3579.7,3563.2,3579.7,3579.7,3563.2,3579.7,1,3579.7,0,0,NA,"Click To Continue","Continue Button",15,"object-50","BIQ",NA,"SUPLCM52921"
"9",1718359527990,"14/06/2024 10:05:27",1718370327990,3,"14/06/2024 16:05:27",180348,1,"task-7hcp",NA,38250151,11245524,NA,"complete",NA,"computer","Desktop or Laptop","Linux x86_64","Chrome 125.0.0.0","360x806","980x1835",NA,NA,0,"BIQ (Charlotte)",5,"CDBEAFIGH","Passed AC2",NA,"Spreadsheet1","Spreadsheet1",1,"BIQ","Screen 3","o21mwi",3,"response","5",1060.7,3563.2,3579.7,1060.7,3563.2,3579.7,1,1060.7,2519,0,NA,"Rating Scale","Rating Scale",2,"object-36","BIQ",NA,"SUPLCM52921"
"10",1718359527994,"14/06/2024 10:05:27",1718370327994,3,"14/06/2024 16:05:27",180348,1,"task-7hcp",NA,38250151,11245524,NA,"complete",NA,"computer","Desktop or Laptop","Linux x86_64","Chrome 125.0.0.0","360x806","980x1835",NA,NA,0,"BIQ (Charlotte)",5,"CDBEAFIGH","Passed AC2",NA,"Spreadsheet1","Spreadsheet1",1,"BIQ","Screen 3","o21mwi",3,"response","3",3115.4,3563.2,3579.7,3115.4,3563.2,3579.7,1,3115.4,464.299999999999,0,NA,"Rating Scale","Rating Scale",9,"object-86","BIQ",NA,"SUPLCM52921"
"11",1718359530833,"14/06/2024 10:05:30",1718370330833,3,"14/06/2024 16:05:30",180348,1,"task-7hcp",NA,38250151,11245524,NA,"complete",NA,"computer","Desktop or Laptop","Linux x86_64","Chrome 125.0.0.0","360x806","980x1835",NA,NA,0,"BIQ (Charlotte)",5,"CDBEAFIGH","Passed AC2",NA,"Spreadsheet1","Spreadsheet1",1,"BIQ","Screen 4","iz3the",4,"continue","",2883.1,2866.6,2883.1,2883.1,2866.6,2883.1,1,2883.1,0,0,NA,"Click To Continue","Continue Button",22,"object-73","BIQ",NA,"SUPLCM52921"
"12",1718359530848,"14/06/2024 10:05:30",1718370330848,3,"14/06/2024 16:05:30",180348,1,"task-7hcp",NA,38250151,11245524,NA,"complete",NA,"computer","Desktop or Laptop","Linux x86_64","Chrome 125.0.0.0","360x806","980x1835",NA,NA,0,"BIQ (Charlotte)",5,"CDBEAFIGH","Passed AC2",NA,"Spreadsheet1","Spreadsheet1",1,"BIQ","Screen 4","iz3the",4,"response","6",1077.1,2866.6,2883.1,1077.1,2866.6,2883.1,1,1077.1,1806,0,NA,"Rating Scale","Rating Scale",2,"object-53","BIQ",NA,"SUPLCM52921"
"13",1718359530851,"14/06/2024 10:05:30",1718370330851,3,"14/06/2024 16:05:30",180348,1,"task-7hcp",NA,38250151,11245524,NA,"complete",NA,"computer","Desktop or Laptop","Linux x86_64","Chrome 125.0.0.0","360x806","980x1835",NA,NA,0,"BIQ (Charlotte)",5,"CDBEAFIGH","Passed AC2",NA,"Spreadsheet1","Spreadsheet1",1,"BIQ","Screen 4","iz3the",4,"response","6",1573.7,2866.6,2883.1,1573.7,2866.6,2883.1,1,1573.7,1309.4,0,NA,"Rating Scale","Rating Scale",9,"object-60","BIQ",NA,"SUPLCM52921"
"14",1718359530854,"14/06/2024 10:05:30",1718370330854,3,"14/06/2024 16:05:30",180348,1,"task-7hcp",NA,38250151,11245524,NA,"complete",NA,"computer","Desktop or Laptop","Linux x86_64","Chrome 125.0.0.0","360x806","980x1835",NA,NA,0,"BIQ (Charlotte)",5,"CDBEAFIGH","Passed AC2",NA,"Spreadsheet1","Spreadsheet1",1,"BIQ","Screen 4","iz3the",4,"response","4",2038.1,2866.6,2883.1,2038.1,2866.6,2883.1,1,2038.1,845,0,NA,"Rating Scale","Rating Scale",16,"object-67","BIQ",NA,"SUPLCM52921"
"15",1718359530878,"14/06/2024 10:05:30",1718370330878,3,"14/06/2024 16:05:30",180348,1,"task-7hcp",NA,38250151,11245524,NA,"complete",NA,"computer","Desktop or Laptop","Linux x86_64","Chrome 125.0.0.0","360x806","980x1835",NA,NA,0,"BIQ (Charlotte)",5,"CDBEAFIGH","Passed AC2",NA,"Spreadsheet1","Spreadsheet1",NA,"","","",NA,"info","END",NA,NA,NA,NA,NA,NA,0,NA,NA,NA,NA,"","",NA,"","",NA,"SUPLCM52921"
"1",1718359768037,"14/06/2024 10:09:28",1718363368037,1,"14/06/2024 12:09:28",180348,1,"task-7hcp",NA,38250252,11245549,NA,"complete",NA,"computer","Desktop or Laptop","Mac OS 10.15.7","Chrome 124.0.0.0","1440x900","1440x813",NA,NA,0,"BIQ (Charlotte)",5,"DECFBGAHI","Passed AC2",NA,"Spreadsheet1","Spreadsheet1",NA,"","","",NA,"info","BEGIN",NA,NA,NA,NA,NA,NA,0,NA,NA,NA,NA,"","",NA,"","",NA,"SUPLCM66122"
"2",1718359781918,"14/06/2024 10:09:41",1718363381918,1,"14/06/2024 12:09:41",180348,1,"task-7hcp",NA,38250252,11245549,NA,"complete",NA,"computer","Desktop or Laptop","Mac OS 10.15.7","Chrome 124.0.0.0","1440x900","1440x813",NA,NA,0,"BIQ (Charlotte)",5,"DECFBGAHI","Passed AC2",NA,"Spreadsheet1","Spreadsheet1",1,"BIQ","Screen 1","9dh6eq",1,"continue","",13889.1079999285,13883.308,13889.1079999285,13889.1079999285,13883.308,13889.1079999285,1,13889.1079999285,0,0,NA,"Click To Continue","Continue Button",16,"object-48","BIQ",NA,"SUPLCM66122"
"3",1718359781919,"14/06/2024 10:09:41",1718363381919,1,"14/06/2024 12:09:41",180348,1,"task-7hcp",NA,38250252,11245549,NA,"complete",NA,"computer","Desktop or Laptop","Mac OS 10.15.7","Chrome 124.0.0.0","1440x900","1440x813",NA,NA,0,"BIQ (Charlotte)",5,"DECFBGAHI","Passed AC2",NA,"Spreadsheet1","Spreadsheet1",1,"BIQ","Screen 1","9dh6eq",1,"response","6",6432.608,13883.308,13891.2079999523,6432.608,13883.308,13891.2079999523,1,6432.608,7458.59999995232,0,NA,"Rating Scale","Rating Scale",3,"object-5","BIQ",NA,"SUPLCM66122"
"4",1718359781920,"14/06/2024 10:09:41",1718363381920,1,"14/06/2024 12:09:41",180348,1,"task-7hcp",NA,38250252,11245549,NA,"complete",NA,"computer","Desktop or Laptop","Mac OS 10.15.7","Chrome 124.0.0.0","1440x900","1440x813",NA,NA,0,"BIQ (Charlotte)",5,"DECFBGAHI","Passed AC2",NA,"Spreadsheet1","Spreadsheet1",1,"BIQ","Screen 1","9dh6eq",1,"response","5",13116.608,13883.308,13891.408,13116.608,13883.308,13891.408,1,13116.608,774.799999999999,0,NA,"Rating Scale","Rating Scale",10,"object-18","BIQ",NA,"SUPLCM66122"
"5",1718359792480,"14/06/2024 10:09:52",1718363392480,1,"14/06/2024 12:09:52",180348,1,"task-7hcp",NA,38250252,11245549,NA,"complete",NA,"computer","Desktop or Laptop","Mac OS 10.15.7","Chrome 124.0.0.0","1440x900","1440x813",NA,NA,0,"BIQ (Charlotte)",5,"DECFBGAHI","Passed AC2",NA,"Spreadsheet1","Spreadsheet1",1,"BIQ","Screen 2","svpz34",2,"continue","",10568.1,10566.5,10568.1,10568.1,10566.5,10568.1,1,10568.1,0,0,NA,"Click To Continue","Continue Button",7,"object-1017","BIQ",NA,"SUPLCM66122"
"6",1718359792482,"14/06/2024 10:09:52",1718363392482,1,"14/06/2024 12:09:52",180348,1,"task-7hcp",NA,38250252,11245549,NA,"complete",NA,"computer","Desktop or Laptop","Mac OS 10.15.7","Chrome 124.0.0.0","1440x900","1440x813",NA,NA,0,"BIQ (Charlotte)",5,"DECFBGAHI","Passed AC2",NA,"Spreadsheet1","Spreadsheet1",1,"BIQ","Screen 2","svpz34",2,"response","1",3933.3,10566.5,10570.1999999046,3933.3,10566.5,10570.1999999046,1,3933.3,6636.89999990463,0,NA,"Rating Scale","Rating Scale",8,"object-118","BIQ",NA,"SUPLCM66122"
"7",1718359792482,"14/06/2024 10:09:52",1718363392482,1,"14/06/2024 12:09:52",180348,1,"task-7hcp",NA,38250252,11245549,NA,"complete",NA,"computer","Desktop or Laptop","Mac OS 10.15.7","Chrome 124.0.0.0","1440x900","1440x813",NA,NA,0,"BIQ (Charlotte)",5,"DECFBGAHI","Passed AC2",NA,"Spreadsheet1","Spreadsheet1",1,"BIQ","Screen 2","svpz34",2,"response","7",9982.6,10566.5,10570.3999999523,9982.6,10566.5,10570.3999999523,1,9982.6,587.799999952316,0,NA,"Rating Scale","Rating Scale",10,"object-121","BIQ",NA,"SUPLCM66122"
"8",1718359803004,"14/06/2024 10:10:03",1718363403004,1,"14/06/2024 12:10:03",180348,1,"task-7hcp",NA,38250252,11245549,NA,"complete",NA,"computer","Desktop or Laptop","Mac OS 10.15.7","Chrome 124.0.0.0","1440x900","1440x813",NA,NA,0,"BIQ (Charlotte)",5,"DECFBGAHI","Passed AC2",NA,"Spreadsheet1","Spreadsheet1",1,"BIQ","Screen 3","o21mwi",3,"continue","",10517.5,10499.9,10517.5,10517.5,10499.9,10517.5,1,10517.5,0,0,NA,"Click To Continue","Continue Button",15,"object-50","BIQ",NA,"SUPLCM66122"
"9",1718359803016,"14/06/2024 10:10:03",1718363403016,1,"14/06/2024 12:10:03",180348,1,"task-7hcp",NA,38250252,11245549,NA,"complete",NA,"computer","Desktop or Laptop","Mac OS 10.15.7","Chrome 124.0.0.0","1440x900","1440x813",NA,NA,0,"BIQ (Charlotte)",5,"DECFBGAHI","Passed AC2",NA,"Spreadsheet1","Spreadsheet1",1,"BIQ","Screen 3","o21mwi",3,"response","2",4482.7,10499.9,10517.5,4482.7,10499.9,10517.5,1,4482.7,6034.80000000001,0,NA,"Rating Scale","Rating Scale",2,"object-36","BIQ",NA,"SUPLCM66122"
"10",1718359803017,"14/06/2024 10:10:03",1718363403017,1,"14/06/2024 12:10:03",180348,1,"task-7hcp",NA,38250252,11245549,NA,"complete",NA,"computer","Desktop or Laptop","Mac OS 10.15.7","Chrome 124.0.0.0","1440x900","1440x813",NA,NA,0,"BIQ (Charlotte)",5,"DECFBGAHI","Passed AC2",NA,"Spreadsheet1","Spreadsheet1",1,"BIQ","Screen 3","o21mwi",3,"response","1",9349,10499.9,10517.5,9349,10499.9,10517.5,1,9349,1168.50000000001,0,NA,"Rating Scale","Rating Scale",9,"object-86","BIQ",NA,"SUPLCM66122"
"11",1718359822880,"14/06/2024 10:10:22",1718363422880,1,"14/06/2024 12:10:22",180348,1,"task-7hcp",NA,38250252,11245549,NA,"complete",NA,"computer","Desktop or Laptop","Mac OS 10.15.7","Chrome 124.0.0.0","1440x900","1440x813",NA,NA,0,"BIQ (Charlotte)",5,"DECFBGAHI","Passed AC2",NA,"Spreadsheet1","Spreadsheet1",1,"BIQ","Screen 4","iz3the",4,"continue","",19897.6,19882,19897.6,19897.6,19882,19897.6,1,19897.6,0,0,NA,"Click To Continue","Continue Button",22,"object-73","BIQ",NA,"SUPLCM66122"
"12",1718359822898,"14/06/2024 10:10:22",1718363422898,1,"14/06/2024 12:10:22",180348,1,"task-7hcp",NA,38250252,11245549,NA,"complete",NA,"computer","Desktop or Laptop","Mac OS 10.15.7","Chrome 124.0.0.0","1440x900","1440x813",NA,NA,0,"BIQ (Charlotte)",5,"DECFBGAHI","Passed AC2",NA,"Spreadsheet1","Spreadsheet1",1,"BIQ","Screen 4","iz3the",4,"response","0",3883.2,19882,19897.6,3883.2,19882,19897.6,1,3883.2,16014.4,0,NA,"Rating Scale","Rating Scale",2,"object-53","BIQ",NA,"SUPLCM66122"
"13",1718359822898,"14/06/2024 10:10:22",1718363422898,1,"14/06/2024 12:10:22",180348,1,"task-7hcp",NA,38250252,11245549,NA,"complete",NA,"computer","Desktop or Laptop","Mac OS 10.15.7","Chrome 124.0.0.0","1440x900","1440x813",NA,NA,0,"BIQ (Charlotte)",5,"DECFBGAHI","Passed AC2",NA,"Spreadsheet1","Spreadsheet1",1,"BIQ","Screen 4","iz3the",4,"response","0",6166.39999999999,19882,19897.6,6166.39999999999,19882,19897.6,1,6166.39999999999,13731.2,0,NA,"Rating Scale","Rating Scale",9,"object-60","BIQ",NA,"SUPLCM66122"
"14",1718359822898,"14/06/2024 10:10:22",1718363422898,1,"14/06/2024 12:10:22",180348,1,"task-7hcp",NA,38250252,11245549,NA,"complete",NA,"computer","Desktop or Laptop","Mac OS 10.15.7","Chrome 124.0.0.0","1440x900","1440x813",NA,NA,0,"BIQ (Charlotte)",5,"DECFBGAHI","Passed AC2",NA,"Spreadsheet1","Spreadsheet1",1,"BIQ","Screen 4","iz3the",4,"response","1",16698.8,19882,19897.6,16698.8,19882,19897.6,1,16698.8,3198.80000000001,0,NA,"Rating Scale","Rating Scale",16,"object-67","BIQ",NA,"SUPLCM66122"
"15",1718359822911,"14/06/2024 10:10:22",1718363422911,1,"14/06/2024 12:10:22",180348,1,"task-7hcp",NA,38250252,11245549,NA,"complete",NA,"computer","Desktop or Laptop","Mac OS 10.15.7","Chrome 124.0.0.0","1440x900","1440x813",NA,NA,0,"BIQ (Charlotte)",5,"DECFBGAHI","Passed AC2",NA,"Spreadsheet1","Spreadsheet1",NA,"","","",NA,"info","END",NA,NA,NA,NA,NA,NA,0,NA,NA,NA,NA,"","",NA,"","",NA,"SUPLCM66122"
"1",1718379875145,"14/06/2024 15:44:35",1718383475145,1,"14/06/2024 17:44:35",180348,1,"task-7hcp",NA,38265284,11249236,NA,"complete",NA,"computer","Desktop or Laptop","Mac OS 10.15.7","Chrome 126.0.0.0","1470x956","1200x699",NA,NA,0,"BIQ (Charlotte)",5,"EFDGCHBIA","Passed AC2",NA,"Spreadsheet1","Spreadsheet1",NA,"","","",NA,"info","BEGIN",NA,NA,NA,NA,NA,NA,0,NA,NA,NA,NA,"","",NA,"","",NA,"SUPLCM18638"
"2",1718379890118,"14/06/2024 15:44:50",1718383490118,1,"14/06/2024 17:44:50",180348,1,"task-7hcp",NA,38265284,11249236,NA,"complete",NA,"computer","Desktop or Laptop","Mac OS 10.15.7","Chrome 126.0.0.0","1470x956","1200x699",NA,NA,0,"BIQ (Charlotte)",5,"EFDGCHBIA","Passed AC2",NA,"Spreadsheet1","Spreadsheet1",1,"BIQ","Screen 1","9dh6eq",1,"continue","",14992.441999994,14983.142,14992.441999994,14992.441999994,14983.142,14992.441999994,1,14992.441999994,0,0,NA,"Click To Continue","Continue Button",16,"object-48","BIQ",NA,"SUPLCM18638"
"3",1718379890120,"14/06/2024 15:44:50",1718383490120,1,"14/06/2024 17:44:50",180348,1,"task-7hcp",NA,38265284,11249236,NA,"complete",NA,"computer","Desktop or Laptop","Mac OS 10.15.7","Chrome 126.0.0.0","1470x956","1200x699",NA,NA,0,"BIQ (Charlotte)",5,"EFDGCHBIA","Passed AC2",NA,"Spreadsheet1","Spreadsheet1",1,"BIQ","Screen 1","9dh6eq",1,"response","6",6849.942,14983.142,14994.941999994,6849.942,14983.142,14994.941999994,1,6849.942,8144.99999999404,0,NA,"Rating Scale","Rating Scale",3,"object-5","BIQ",NA,"SUPLCM18638"
"4",1718379890120,"14/06/2024 15:44:50",1718383490120,1,"14/06/2024 17:44:50",180348,1,"task-7hcp",NA,38265284,11249236,NA,"complete",NA,"computer","Desktop or Laptop","Mac OS 10.15.7","Chrome 126.0.0.0","1470x956","1200x699",NA,NA,0,"BIQ (Charlotte)",5,"EFDGCHBIA","Passed AC2",NA,"Spreadsheet1","Spreadsheet1",1,"BIQ","Screen 1","9dh6eq",1,"response","4",14449.842,14983.142,14995.2419999911,14449.842,14983.142,14995.2419999911,1,14449.842,545.399999991059,0,NA,"Rating Scale","Rating Scale",10,"object-18","BIQ",NA,"SUPLCM18638"
"5",1718379904981,"14/06/2024 15:45:04",1718383504981,1,"14/06/2024 17:45:04",180348,1,"task-7hcp",NA,38265284,11249236,NA,"complete",NA,"computer","Desktop or Laptop","Mac OS 10.15.7","Chrome 126.0.0.0","1470x956","1200x699",NA,NA,0,"BIQ (Charlotte)",5,"EFDGCHBIA","Passed AC2",NA,"Spreadsheet1","Spreadsheet1",1,"BIQ","Screen 2","svpz34",2,"continue","",14872.2,14866.6,14872.2,14872.2,14866.6,14872.2,1,14872.2,0,0,NA,"Click To Continue","Continue Button",7,"object-1017","BIQ",NA,"SUPLCM18638"
"6",1718379904984,"14/06/2024 15:45:04",1718383504984,1,"14/06/2024 17:45:04",180348,1,"task-7hcp",NA,38265284,11249236,NA,"complete",NA,"computer","Desktop or Laptop","Mac OS 10.15.7","Chrome 126.0.0.0","1470x956","1200x699",NA,NA,0,"BIQ (Charlotte)",5,"EFDGCHBIA","Passed AC2",NA,"Spreadsheet1","Spreadsheet1",1,"BIQ","Screen 2","svpz34",2,"response","2",6816.7,14866.6,14875.5999999911,6816.7,14866.6,14875.5999999911,1,6816.7,8058.89999999106,0,NA,"Rating Scale","Rating Scale",8,"object-118","BIQ",NA,"SUPLCM18638"
"7",1718379904984,"14/06/2024 15:45:04",1718383504984,1,"14/06/2024 17:45:04",180348,1,"task-7hcp",NA,38265284,11249236,NA,"complete",NA,"computer","Desktop or Laptop","Mac OS 10.15.7","Chrome 126.0.0.0","1470x956","1200x699",NA,NA,0,"BIQ (Charlotte)",5,"EFDGCHBIA","Passed AC2",NA,"Spreadsheet1","Spreadsheet1",1,"BIQ","Screen 2","svpz34",2,"response","6",10450.1,14866.6,14875.999999997,10450.1,14866.6,14875.999999997,1,10450.1,4425.89999999702,0,NA,"Rating Scale","Rating Scale",10,"object-121","BIQ",NA,"SUPLCM18638"
"8",1718379917297,"14/06/2024 15:45:17",1718383517297,1,"14/06/2024 17:45:17",180348,1,"task-7hcp",NA,38265284,11249236,NA,"complete",NA,"computer","Desktop or Laptop","Mac OS 10.15.7","Chrome 126.0.0.0","1470x956","1200x699",NA,NA,0,"BIQ (Charlotte)",5,"EFDGCHBIA","Passed AC2",NA,"Spreadsheet1","Spreadsheet1",1,"BIQ","Screen 3","o21mwi",3,"continue","",12322.399999997,12316.7,12322.399999997,12322.399999997,12316.7,12322.399999997,1,12322.399999997,0,0,NA,"Click To Continue","Continue Button",15,"object-50","BIQ",NA,"SUPLCM18638"
"9",1718379917300,"14/06/2024 15:45:17",1718383517300,1,"14/06/2024 17:45:17",180348,1,"task-7hcp",NA,38265284,11249236,NA,"complete",NA,"computer","Desktop or Laptop","Mac OS 10.15.7","Chrome 126.0.0.0","1470x956","1200x699",NA,NA,0,"BIQ (Charlotte)",5,"EFDGCHBIA","Passed AC2",NA,"Spreadsheet1","Spreadsheet1",1,"BIQ","Screen 3","o21mwi",3,"response","2",3650,12316.7,12325.300000003,3650,12316.7,12325.300000003,1,3650,8675.30000000298,0,NA,"Rating Scale","Rating Scale",2,"object-36","BIQ",NA,"SUPLCM18638"
"10",1718379917300,"14/06/2024 15:45:17",1718383517300,1,"14/06/2024 17:45:17",180348,1,"task-7hcp",NA,38265284,11249236,NA,"complete",NA,"computer","Desktop or Laptop","Mac OS 10.15.7","Chrome 126.0.0.0","1470x956","1200x699",NA,NA,0,"BIQ (Charlotte)",5,"EFDGCHBIA","Passed AC2",NA,"Spreadsheet1","Spreadsheet1",1,"BIQ","Screen 3","o21mwi",3,"response","0",9133.4,12316.7,12325.699999994,9133.4,12316.7,12325.699999994,1,9133.4,3192.29999999404,0,NA,"Rating Scale","Rating Scale",9,"object-86","BIQ",NA,"SUPLCM18638"
"11",1718379928614,"14/06/2024 15:45:28",1718383528614,1,"14/06/2024 17:45:28",180348,1,"task-7hcp",NA,38265284,11249236,NA,"complete",NA,"computer","Desktop or Laptop","Mac OS 10.15.7","Chrome 126.0.0.0","1470x956","1200x699",NA,NA,0,"BIQ (Charlotte)",5,"EFDGCHBIA","Passed AC2",NA,"Spreadsheet1","Spreadsheet1",1,"BIQ","Screen 4","iz3the",4,"continue","",11322.199999997,11316,11322.199999997,11322.199999997,11316,11322.199999997,1,11322.199999997,0,0,NA,"Click To Continue","Continue Button",22,"object-73","BIQ",NA,"SUPLCM18638"
"12",1718379928616,"14/06/2024 15:45:28",1718383528616,1,"14/06/2024 17:45:28",180348,1,"task-7hcp",NA,38265284,11249236,NA,"complete",NA,"computer","Desktop or Laptop","Mac OS 10.15.7","Chrome 126.0.0.0","1470x956","1200x699",NA,NA,0,"BIQ (Charlotte)",5,"EFDGCHBIA","Passed AC2",NA,"Spreadsheet1","Spreadsheet1",1,"BIQ","Screen 4","iz3the",4,"response","0",4000,11316,11324.9,4000,11316,11324.9,1,4000,7324.9,0,NA,"Rating Scale","Rating Scale",2,"object-53","BIQ",NA,"SUPLCM18638"
"13",1718379928616,"14/06/2024 15:45:28",1718383528616,1,"14/06/2024 17:45:28",180348,1,"task-7hcp",NA,38265284,11249236,NA,"complete",NA,"computer","Desktop or Laptop","Mac OS 10.15.7","Chrome 126.0.0.0","1470x956","1200x699",NA,NA,0,"BIQ (Charlotte)",5,"EFDGCHBIA","Passed AC2",NA,"Spreadsheet1","Spreadsheet1",1,"BIQ","Screen 4","iz3the",4,"response","1",7566.6,11316,11325.199999997,7566.6,11316,11325.199999997,1,7566.6,3758.59999999702,0,NA,"Rating Scale","Rating Scale",9,"object-60","BIQ",NA,"SUPLCM18638"
"14",1718379928616,"14/06/2024 15:45:28",1718383528616,1,"14/06/2024 17:45:28",180348,1,"task-7hcp",NA,38265284,11249236,NA,"complete",NA,"computer","Desktop or Laptop","Mac OS 10.15.7","Chrome 126.0.0.0","1470x956","1200x699",NA,NA,0,"BIQ (Charlotte)",5,"EFDGCHBIA","Passed AC2",NA,"Spreadsheet1","Spreadsheet1",1,"BIQ","Screen 4","iz3the",4,"response","3",10649.9,11316,11325.4,10649.9,11316,11325.4,1,10649.9,675.5,0,NA,"Rating Scale","Rating Scale",16,"object-67","BIQ",NA,"SUPLCM18638"
"15",1718379928622,"14/06/2024 15:45:28",1718383528622,1,"14/06/2024 17:45:28",180348,1,"task-7hcp",NA,38265284,11249236,NA,"complete",NA,"computer","Desktop or Laptop","Mac OS 10.15.7","Chrome 126.0.0.0","1470x956","1200x699",NA,NA,0,"BIQ (Charlotte)",5,"EFDGCHBIA","Passed AC2",NA,"Spreadsheet1","Spreadsheet1",NA,"","","",NA,"info","END",NA,NA,NA,NA,NA,NA,0,NA,NA,NA,NA,"","",NA,"","",NA,"SUPLCM18638"
"1",1718618856170,"17/06/2024 10:07:36",1718622456170,1,"17/06/2024 12:07:36",180348,1,"task-7hcp",NA,38327265,11265339,NA,"complete",NA,"computer","Desktop or Laptop","Mac OS 10.15.7","Chrome 125.0.0.0","1920x1080","2133x948",NA,NA,0,"BIQ (Charlotte)",5,"FGEHDICAB","Passed AC2",NA,"Spreadsheet1","Spreadsheet1",NA,"","","",NA,"info","BEGIN",NA,NA,NA,NA,NA,NA,0,NA,NA,NA,NA,"","",NA,"","",NA,"SUPLCM61449"
"2",1718618887264,"17/06/2024 10:08:07",1718622487264,1,"17/06/2024 12:08:07",180348,1,"task-7hcp",NA,38327265,11265339,NA,"complete",NA,"computer","Desktop or Laptop","Mac OS 10.15.7","Chrome 125.0.0.0","1920x1080","2133x948",NA,NA,0,"BIQ (Charlotte)",5,"FGEHDICAB","Passed AC2",NA,"Spreadsheet1","Spreadsheet1",1,"BIQ","Screen 1","9dh6eq",1,"continue","",31100.7,31084,31100.7,31100.7,31084,31100.7,1,31100.7,0,0,NA,"Click To Continue","Continue Button",16,"object-48","BIQ",NA,"SUPLCM61449"
"3",1718618887266,"17/06/2024 10:08:07",1718622487266,1,"17/06/2024 12:08:07",180348,1,"task-7hcp",NA,38327265,11265339,NA,"complete",NA,"computer","Desktop or Laptop","Mac OS 10.15.7","Chrome 125.0.0.0","1920x1080","2133x948",NA,NA,0,"BIQ (Charlotte)",5,"FGEHDICAB","Passed AC2",NA,"Spreadsheet1","Spreadsheet1",1,"BIQ","Screen 1","9dh6eq",1,"response","6",22383.8,31084,31100.7,22383.8,31084,31100.7,1,22383.8,8716.9,0,NA,"Rating Scale","Rating Scale",3,"object-5","BIQ",NA,"SUPLCM61449"
"4",1718618887267,"17/06/2024 10:08:07",1718622487267,1,"17/06/2024 12:08:07",180348,1,"task-7hcp",NA,38327265,11265339,NA,"complete",NA,"computer","Desktop or Laptop","Mac OS 10.15.7","Chrome 125.0.0.0","1920x1080","2133x948",NA,NA,0,"BIQ (Charlotte)",5,"FGEHDICAB","Passed AC2",NA,"Spreadsheet1","Spreadsheet1",1,"BIQ","Screen 1","9dh6eq",1,"response","8",24816.8,31084,31100.7,24816.8,31084,31100.7,1,24816.8,6283.9,0,NA,"Rating Scale","Rating Scale",10,"object-18","BIQ",NA,"SUPLCM61449"
"5",1718618894370,"17/06/2024 10:08:14",1718622494370,1,"17/06/2024 12:08:14",180348,1,"task-7hcp",NA,38327265,11265339,NA,"complete",NA,"computer","Desktop or Laptop","Mac OS 10.15.7","Chrome 125.0.0.0","1920x1080","2133x948",NA,NA,0,"BIQ (Charlotte)",5,"FGEHDICAB","Passed AC2",NA,"Spreadsheet1","Spreadsheet1",1,"BIQ","Screen 2","svpz34",2,"continue","",7124.50000000298,7116.8,7124.50000000298,7124.50000000298,7116.8,7124.50000000298,1,7124.50000000298,0,0,NA,"Click To Continue","Continue Button",7,"object-1017","BIQ",NA,"SUPLCM61449"
"6",1718618894371,"17/06/2024 10:08:14",1718622494371,1,"17/06/2024 12:08:14",180348,1,"task-7hcp",NA,38327265,11265339,NA,"complete",NA,"computer","Desktop or Laptop","Mac OS 10.15.7","Chrome 125.0.0.0","1920x1080","2133x948",NA,NA,0,"BIQ (Charlotte)",5,"FGEHDICAB","Passed AC2",NA,"Spreadsheet1","Spreadsheet1",1,"BIQ","Screen 2","svpz34",2,"response","0",3733.4,7116.8,7125.10000000447,3733.4,7116.8,7125.10000000447,1,3733.4,3391.70000000447,0,NA,"Rating Scale","Rating Scale",8,"object-118","BIQ",NA,"SUPLCM61449"
"7",1718618894371,"17/06/2024 10:08:14",1718622494371,1,"17/06/2024 12:08:14",180348,1,"task-7hcp",NA,38327265,11265339,NA,"complete",NA,"computer","Desktop or Laptop","Mac OS 10.15.7","Chrome 125.0.0.0","1920x1080","2133x948",NA,NA,0,"BIQ (Charlotte)",5,"FGEHDICAB","Passed AC2",NA,"Spreadsheet1","Spreadsheet1",1,"BIQ","Screen 2","svpz34",2,"response","8",6000.2,7116.8,7125.50000000298,6000.2,7116.8,7125.50000000298,1,6000.2,1125.30000000298,0,NA,"Rating Scale","Rating Scale",10,"object-121","BIQ",NA,"SUPLCM61449"
"8",1718618913475,"17/06/2024 10:08:33",1718622513475,1,"17/06/2024 12:08:33",180348,1,"task-7hcp",NA,38327265,11265339,NA,"complete",NA,"computer","Desktop or Laptop","Mac OS 10.15.7","Chrome 125.0.0.0","1920x1080","2133x948",NA,NA,0,"BIQ (Charlotte)",5,"FGEHDICAB","Passed AC2",NA,"Spreadsheet1","Spreadsheet1",1,"BIQ","Screen 3","o21mwi",3,"continue","",19112.8000000045,19100.5,19112.8000000045,19112.8000000045,19100.5,19112.8000000045,1,19112.8000000045,0,0,NA,"Click To Continue","Continue Button",15,"object-50","BIQ",NA,"SUPLCM61449"
"9",1718618913478,"17/06/2024 10:08:33",1718622513478,1,"17/06/2024 12:08:33",180348,1,"task-7hcp",NA,38327265,11265339,NA,"complete",NA,"computer","Desktop or Laptop","Mac OS 10.15.7","Chrome 125.0.0.0","1920x1080","2133x948",NA,NA,0,"BIQ (Charlotte)",5,"FGEHDICAB","Passed AC2",NA,"Spreadsheet1","Spreadsheet1",1,"BIQ","Screen 3","o21mwi",3,"response","0",3682.8,19100.5,19116.200000003,3682.8,19100.5,19116.200000003,1,3682.8,15433.400000003,0,NA,"Rating Scale","Rating Scale",2,"object-36","BIQ",NA,"SUPLCM61449"
"10",1718618913479,"17/06/2024 10:08:33",1718622513479,1,"17/06/2024 12:08:33",180348,1,"task-7hcp",NA,38327265,11265339,NA,"complete",NA,"computer","Desktop or Laptop","Mac OS 10.15.7","Chrome 125.0.0.0","1920x1080","2133x948",NA,NA,0,"BIQ (Charlotte)",5,"FGEHDICAB","Passed AC2",NA,"Spreadsheet1","Spreadsheet1",1,"BIQ","Screen 3","o21mwi",3,"response","0",10800.3,19100.5,19116.700000003,10800.3,19100.5,19116.700000003,1,10800.3,8316.40000000298,0,NA,"Rating Scale","Rating Scale",9,"object-86","BIQ",NA,"SUPLCM61449"
"11",1718618925586,"17/06/2024 10:08:45",1718622525586,1,"17/06/2024 12:08:45",180348,1,"task-7hcp",NA,38327265,11265339,NA,"complete",NA,"computer","Desktop or Laptop","Mac OS 10.15.7","Chrome 125.0.0.0","1920x1080","2133x948",NA,NA,0,"BIQ (Charlotte)",5,"FGEHDICAB","Passed AC2",NA,"Spreadsheet1","Spreadsheet1",1,"BIQ","Screen 4","iz3the",4,"continue","",12123.8999999985,12116.9,12123.8999999985,12123.8999999985,12116.9,12123.8999999985,1,12123.8999999985,0,0,NA,"Click To Continue","Continue Button",22,"object-73","BIQ",NA,"SUPLCM61449"
"12",1718618925588,"17/06/2024 10:08:45",1718622525588,1,"17/06/2024 12:08:45",180348,1,"task-7hcp",NA,38327265,11265339,NA,"complete",NA,"computer","Desktop or Laptop","Mac OS 10.15.7","Chrome 125.0.0.0","1920x1080","2133x948",NA,NA,0,"BIQ (Charlotte)",5,"FGEHDICAB","Passed AC2",NA,"Spreadsheet1","Spreadsheet1",1,"BIQ","Screen 4","iz3the",4,"response","0",3333.3,12116.9,12126,3333.3,12116.9,12126,1,3333.3,8792.7,0,NA,"Rating Scale","Rating Scale",2,"object-53","BIQ",NA,"SUPLCM61449"
"13",1718618925589,"17/06/2024 10:08:45",1718622525589,1,"17/06/2024 12:08:45",180348,1,"task-7hcp",NA,38327265,11265339,NA,"complete",NA,"computer","Desktop or Laptop","Mac OS 10.15.7","Chrome 125.0.0.0","1920x1080","2133x948",NA,NA,0,"BIQ (Charlotte)",5,"FGEHDICAB","Passed AC2",NA,"Spreadsheet1","Spreadsheet1",1,"BIQ","Screen 4","iz3the",4,"response","0",5116.8,12116.9,12126.3000000045,5116.8,12116.9,12126.3000000045,1,5116.8,7009.50000000447,0,NA,"Rating Scale","Rating Scale",9,"object-60","BIQ",NA,"SUPLCM61449"
"14",1718618925589,"17/06/2024 10:08:45",1718622525589,1,"17/06/2024 12:08:45",180348,1,"task-7hcp",NA,38327265,11265339,NA,"complete",NA,"computer","Desktop or Laptop","Mac OS 10.15.7","Chrome 125.0.0.0","1920x1080","2133x948",NA,NA,0,"BIQ (Charlotte)",5,"FGEHDICAB","Passed AC2",NA,"Spreadsheet1","Spreadsheet1",1,"BIQ","Screen 4","iz3the",4,"response","2",11182.9,12116.9,12126.6000000015,11182.9,12116.9,12126.6000000015,1,11182.9,943.700000001496,0,NA,"Rating Scale","Rating Scale",16,"object-67","BIQ",NA,"SUPLCM61449"
"15",1718618925594,"17/06/2024 10:08:45",1718622525594,1,"17/06/2024 12:08:45",180348,1,"task-7hcp",NA,38327265,11265339,NA,"complete",NA,"computer","Desktop or Laptop","Mac OS 10.15.7","Chrome 125.0.0.0","1920x1080","2133x948",NA,NA,0,"BIQ (Charlotte)",5,"FGEHDICAB","Passed AC2",NA,"Spreadsheet1","Spreadsheet1",NA,"","","",NA,"info","END",NA,NA,NA,NA,NA,NA,0,NA,NA,NA,NA,"","",NA,"","",NA,"SUPLCM61449"
