"Event.Index","UTC.Timestamp","UTC.Date.and.Time","Local.Timestamp","Local.Timezone","Local.Date.and.Time","Experiment.ID","Experiment.Version","Tree.Node.Key","Repeat.Key","Schedule.ID","Participant.Private.ID","Participant.Starting.Group","Participant.Status","Participant.Completion.Code","Participant.External.Session.ID","Participant.Device.Type","Participant.Device","Participant.OS","Participant.Browser","Participant.Monitor.Size","Participant.Viewport.Size","Checkpoint","Room.ID","Room.Order","Task.Name","Task.Version","order.ot79","branch.g31k","branch.5gtn","counterbalance.vu6m","Spreadsheet","Trial.Number","Display","Screen","Screen.ID","Screen.Counter","Response.Type","Response","Onset.Time","Clock.Time","Reaction.Time","Absolute.Onset.Time","Absolute.Clock.Time","Absolute.Reaction.Time","Correct","Response.Onset","Response.Duration","Proportion","Tag","Component.Name","Object.Name","Object.Number","Object.ID","Spreadsheet..display","Manipulation..Spreadsheet","Random_ID"
"1",1708971386626,"26/02/2024 18:16:26",1708971386626,0,"26/02/2024 18:16:26",167771,4,"task-v7r7",NA,35522557,10494310,NA,"complete",NA,"65dcd2fef102ce9273e60afb","computer","Desktop or Laptop","Windows 10","Chrome 121.0.0.0","1536x864","1536x730",NA,NA,0,"Task Introduction and Instructions (re-introduce video and audio) (Clone)",3,"ABJCIDHEGF","Passed AC2","","Chocking_second","Spreadsheet1",NA,"","","",NA,"5","BEGIN",NA,NA,NA,NA,NA,NA,0,NA,NA,NA,NA,"","",NA,"","",NA,"SUPPRF94580"
"2",1708971389840,"26/02/2024 18:16:29",1708971389840,0,"26/02/2024 18:16:29",167771,4,"task-v7r7",NA,35522557,10494310,NA,"complete",NA,"65dcd2fef102ce9273e60afb","computer","Desktop or Laptop","Windows 10","Chrome 121.0.0.0","1536x864","1536x730",NA,NA,0,"Task Introduction and Instructions (re-introduce video and audio) (Clone)",3,"ABJCIDHEGF","Passed AC2","","Chocking_second","Spreadsheet1",1,"Task Instructions","Screen 1","anr7sn",1,"continue","",2980.49999998212,2966.9,2980.49999998212,2980.49999998212,2966.9,2980.49999998212,1,2980.49999998212,0,0,NA,"Click To Continue","Continue Button",3,"object-60","Task Instructions",NA,"SUPPRF94580"
"3",1708971398300,"26/02/2024 18:16:38",1708971398300,0,"26/02/2024 18:16:38",167771,4,"task-v7r7",NA,35522557,10494310,NA,"complete",NA,"65dcd2fef102ce9273e60afb","computer","Desktop or Laptop","Windows 10","Chrome 121.0.0.0","1536x864","1536x730",NA,NA,0,"Task Introduction and Instructions (re-introduce video and audio) (Clone)",3,"ABJCIDHEGF","Passed AC2","","Chocking_second","Spreadsheet1",1,"Task Instructions","Screen 2","ce2tc8",2,"continue","",8472.99999998808,8466.8,8472.99999998808,8472.99999998808,8466.8,8472.99999998808,1,8472.99999998808,0,0,NA,"Click To Continue","Continue Button",3,"object-59","Task Instructions",NA,"SUPPRF94580"
"4",1708971404297,"26/02/2024 18:16:44",1708971404297,0,"26/02/2024 18:16:44",167771,4,"task-v7r7",NA,35522557,10494310,NA,"complete",NA,"65dcd2fef102ce9273e60afb","computer","Desktop or Laptop","Windows 10","Chrome 121.0.0.0","1536x864","1536x730",NA,NA,0,"Task Introduction and Instructions (re-introduce video and audio) (Clone)",3,"ABJCIDHEGF","Passed AC2","","Chocking_second","Spreadsheet1",1,"Task Instructions","Screen 3","1qtc8v",3,"continue","",6003.5,6000.3,6003.5,6003.5,6000.3,6003.5,1,6003.5,0,0,NA,"Click To Continue","Continue Button",2,"object-2983","Task Instructions",NA,"SUPPRF94580"
"5",1708971407756,"26/02/2024 18:16:47",1708971407756,0,"26/02/2024 18:16:47",167771,4,"task-v7r7",NA,35522557,10494310,NA,"complete",NA,"65dcd2fef102ce9273e60afb","computer","Desktop or Laptop","Windows 10","Chrome 121.0.0.0","1536x864","1536x730",NA,NA,0,"Task Introduction and Instructions (re-introduce video and audio) (Clone)",3,"ABJCIDHEGF","Passed AC2","","Chocking_second","Spreadsheet1",1,"Task Instructions","Screen 12","1a4vu2",4,"continue","",3462.39999998808,3449.8,3462.39999998808,3462.39999998808,3449.8,3462.39999998808,1,3462.39999998808,0,0,NA,"Click To Continue","Continue Button",2,"object-2466","Task Instructions",NA,"SUPPRF94580"
"6",1708971415585,"26/02/2024 18:16:55",1708971415585,0,"26/02/2024 18:16:55",167771,4,"task-v7r7",NA,35522557,10494310,NA,"complete",NA,"65dcd2fef102ce9273e60afb","computer","Desktop or Laptop","Windows 10","Chrome 121.0.0.0","1536x864","1536x730",NA,NA,0,"Task Introduction and Instructions (re-introduce video and audio) (Clone)",3,"ABJCIDHEGF","Passed AC2","","Chocking_second","Spreadsheet1",1,"Task Instructions","Screen 13","q9vwda",5,"continue","",7841.09999998808,7833.2,7841.09999998808,7841.09999998808,7833.2,7841.09999998808,1,7841.09999998808,0,0,NA,"Click To Continue","Continue Button",2,"object-2989","Task Instructions",NA,"SUPPRF94580"
"7",1708971419518,"26/02/2024 18:16:59",1708971419518,0,"26/02/2024 18:16:59",167771,4,"task-v7r7",NA,35522557,10494310,NA,"complete",NA,"65dcd2fef102ce9273e60afb","computer","Desktop or Laptop","Windows 10","Chrome 121.0.0.0","1536x864","1536x730",NA,NA,0,"Task Introduction and Instructions (re-introduce video and audio) (Clone)",3,"ABJCIDHEGF","Passed AC2","","Chocking_second","Spreadsheet1",1,"Task Instructions","Screen 11","oyulb7",6,"continue","",3940.29999999404,3933.9,3940.29999999404,3940.29999999404,3933.9,3940.29999999404,1,3940.29999999404,0,0,NA,"Click To Continue","Continue Button",2,"object-52","Task Instructions",NA,"SUPPRF94580"
"8",1708971423202,"26/02/2024 18:17:03",1708971423202,0,"26/02/2024 18:17:03",167771,4,"task-v7r7",NA,35522557,10494310,NA,"complete",NA,"65dcd2fef102ce9273e60afb","computer","Desktop or Laptop","Windows 10","Chrome 121.0.0.0","1536x864","1536x730",NA,NA,0,"Task Introduction and Instructions (re-introduce video and audio) (Clone)",3,"ABJCIDHEGF","Passed AC2","","Chocking_second","Spreadsheet1",1,"Task Instructions","Screen 4","spepx9",7,"continue","",3690.99999998808,3683,3690.99999998808,3690.99999998808,3683,3690.99999998808,1,3690.99999998808,0,0,NA,"Click To Continue","Continue Button",2,"object-9","Task Instructions",NA,"SUPPRF94580"
"9",1708971426413,"26/02/2024 18:17:06",1708971426413,0,"26/02/2024 18:17:06",167771,4,"task-v7r7",NA,35522557,10494310,NA,"complete",NA,"65dcd2fef102ce9273e60afb","computer","Desktop or Laptop","Windows 10","Chrome 121.0.0.0","1536x864","1536x730",NA,NA,0,"Task Introduction and Instructions (re-introduce video and audio) (Clone)",3,"ABJCIDHEGF","Passed AC2","","Chocking_second","Spreadsheet1",1,"Task Instructions","Screen 5","8nvnao",8,"continue","",3216.70000000001,3200.10000000001,3216.70000000001,3216.70000000001,3200.10000000001,3216.70000000001,1,3216.70000000001,0,0,NA,"Click To Continue","Continue Button",2,"object-44","Task Instructions",NA,"SUPPRF94580"
"10",1708971426418,"26/02/2024 18:17:06",1708971426418,0,"26/02/2024 18:17:06",167771,4,"task-v7r7",NA,35522557,10494310,NA,"complete",NA,"65dcd2fef102ce9273e60afb","computer","Desktop or Laptop","Windows 10","Chrome 121.0.0.0","1536x864","1536x730",NA,NA,0,"Task Introduction and Instructions (re-introduce video and audio) (Clone)",3,"ABJCIDHEGF","Passed AC2","","Chocking_second","Spreadsheet1",NA,"","","",NA,"5","END",NA,NA,NA,NA,NA,NA,0,NA,NA,NA,NA,"","",NA,"","",NA,"SUPPRF94580"
"1",1708971433504,"26/02/2024 18:17:13",1708971433504,0,"26/02/2024 18:17:13",167771,4,"task-v7r7",NA,35522595,10494334,NA,"complete",NA,"65dcd343038df1ca26649274","computer","Desktop or Laptop","Windows 10","Chrome 120.0.0.0","1536x864","1536x730",NA,NA,0,"Task Introduction and Instructions (re-introduce video and audio) (Clone)",3,"BCADJEIFHG","Passed AC2","","Chocking_first","Spreadsheet1",NA,"","","",NA,"5","BEGIN",NA,NA,NA,NA,NA,NA,0,NA,NA,NA,NA,"","",NA,"","",NA,"SUPPRF91296"
"2",1708971436848,"26/02/2024 18:17:16",1708971436848,0,"26/02/2024 18:17:16",167771,4,"task-v7r7",NA,35522595,10494334,NA,"complete",NA,"65dcd343038df1ca26649274","computer","Desktop or Laptop","Windows 10","Chrome 120.0.0.0","1536x864","1536x730",NA,NA,0,"Task Introduction and Instructions (re-introduce video and audio) (Clone)",3,"BCADJEIFHG","Passed AC2","","Chocking_first","Spreadsheet1",1,"Task Instructions","Screen 1","anr7sn",1,"continue","",3251.1,3247.9,3251.1,3251.1,3247.9,3251.1,1,3251.1,0,0,NA,"Click To Continue","Continue Button",3,"object-60","Task Instructions",NA,"SUPPRF91296"
"3",1708971446294,"26/02/2024 18:17:26",1708971446294,0,"26/02/2024 18:17:26",167771,4,"task-v7r7",NA,35522595,10494334,NA,"complete",NA,"65dcd343038df1ca26649274","computer","Desktop or Laptop","Windows 10","Chrome 120.0.0.0","1536x864","1536x730",NA,NA,0,"Task Introduction and Instructions (re-introduce video and audio) (Clone)",3,"BCADJEIFHG","Passed AC2","","Chocking_first","Spreadsheet1",1,"Task Instructions","Screen 2","ce2tc8",2,"continue","",9448.99999923706,9444,9448.99999923706,9448.99999923706,9444,9448.99999923706,1,9448.99999923706,0,0,NA,"Click To Continue","Continue Button",3,"object-59","Task Instructions",NA,"SUPPRF91296"
"4",1708971452149,"26/02/2024 18:17:32",1708971452149,0,"26/02/2024 18:17:32",167771,4,"task-v7r7",NA,35522595,10494334,NA,"complete",NA,"65dcd343038df1ca26649274","computer","Desktop or Laptop","Windows 10","Chrome 120.0.0.0","1536x864","1536x730",NA,NA,0,"Task Introduction and Instructions (re-introduce video and audio) (Clone)",3,"BCADJEIFHG","Passed AC2","","Chocking_first","Spreadsheet1",1,"Task Instructions","Screen 3","1qtc8v",3,"continue","",5859.80000228882,5846.3,5859.80000228882,5859.80000228882,5846.3,5859.80000228882,1,5859.80000228882,0,0,NA,"Click To Continue","Continue Button",2,"object-2983","Task Instructions",NA,"SUPPRF91296"
"5",1708971460120,"26/02/2024 18:17:40",1708971460120,0,"26/02/2024 18:17:40",167771,4,"task-v7r7",NA,35522595,10494334,NA,"complete",NA,"65dcd343038df1ca26649274","computer","Desktop or Laptop","Windows 10","Chrome 120.0.0.0","1536x864","1536x730",NA,NA,0,"Task Introduction and Instructions (re-introduce video and audio) (Clone)",3,"BCADJEIFHG","Passed AC2","","Chocking_first","Spreadsheet1",1,"Task Instructions","Screen 12","1a4vu2",4,"continue","",7984.9,7978.4,7984.9,7984.9,7978.4,7984.9,1,7984.9,0,0,NA,"Click To Continue","Continue Button",2,"object-2466","Task Instructions",NA,"SUPPRF91296"
"6",1708971465286,"26/02/2024 18:17:45",1708971465286,0,"26/02/2024 18:17:45",167771,4,"task-v7r7",NA,35522595,10494334,NA,"complete",NA,"65dcd343038df1ca26649274","computer","Desktop or Laptop","Windows 10","Chrome 120.0.0.0","1536x864","1536x730",NA,NA,0,"Task Introduction and Instructions (re-introduce video and audio) (Clone)",3,"BCADJEIFHG","Passed AC2","","Chocking_first","Spreadsheet1",1,"Task Instructions","Screen 13","q9vwda",5,"continue","",5173,5163.3,5173,5173,5163.3,5173,1,5173,0,0,NA,"Click To Continue","Continue Button",2,"object-2989","Task Instructions",NA,"SUPPRF91296"
"7",1708971468182,"26/02/2024 18:17:48",1708971468182,0,"26/02/2024 18:17:48",167771,4,"task-v7r7",NA,35522595,10494334,NA,"complete",NA,"65dcd343038df1ca26649274","computer","Desktop or Laptop","Windows 10","Chrome 120.0.0.0","1536x864","1536x730",NA,NA,0,"Task Introduction and Instructions (re-introduce video and audio) (Clone)",3,"BCADJEIFHG","Passed AC2","","Chocking_first","Spreadsheet1",1,"Task Instructions","Screen 11","oyulb7",6,"continue","",2904.90000076294,2898.39999999999,2904.90000076294,2904.90000076294,2898.39999999999,2904.90000076294,1,2904.90000076294,0,0,NA,"Click To Continue","Continue Button",2,"object-52","Task Instructions",NA,"SUPPRF91296"
"8",1708971471172,"26/02/2024 18:17:51",1708971471172,0,"26/02/2024 18:17:51",167771,4,"task-v7r7",NA,35522595,10494334,NA,"complete",NA,"65dcd343038df1ca26649274","computer","Desktop or Laptop","Windows 10","Chrome 120.0.0.0","1536x864","1536x730",NA,NA,0,"Task Introduction and Instructions (re-introduce video and audio) (Clone)",3,"BCADJEIFHG","Passed AC2","","Chocking_first","Spreadsheet1",1,"Task Instructions","Screen 4","spepx9",7,"continue","",2997.20000152588,2981.10000000001,2997.20000152588,2997.20000152588,2981.10000000001,2997.20000152588,1,2997.20000152588,0,0,NA,"Click To Continue","Continue Button",2,"object-9","Task Instructions",NA,"SUPPRF91296"
"9",1708971473592,"26/02/2024 18:17:53",1708971473592,0,"26/02/2024 18:17:53",167771,4,"task-v7r7",NA,35522595,10494334,NA,"complete",NA,"65dcd343038df1ca26649274","computer","Desktop or Laptop","Windows 10","Chrome 120.0.0.0","1536x864","1536x730",NA,NA,0,"Task Introduction and Instructions (re-introduce video and audio) (Clone)",3,"BCADJEIFHG","Passed AC2","","Chocking_first","Spreadsheet1",1,"Task Instructions","Screen 5","8nvnao",8,"continue","",2435.30000228882,2431.7,2435.30000228882,2435.30000228882,2431.7,2435.30000228882,1,2435.30000228882,0,0,NA,"Click To Continue","Continue Button",2,"object-44","Task Instructions",NA,"SUPPRF91296"
"10",1708971473594,"26/02/2024 18:17:53",1708971473594,0,"26/02/2024 18:17:53",167771,4,"task-v7r7",NA,35522595,10494334,NA,"complete",NA,"65dcd343038df1ca26649274","computer","Desktop or Laptop","Windows 10","Chrome 120.0.0.0","1536x864","1536x730",NA,NA,0,"Task Introduction and Instructions (re-introduce video and audio) (Clone)",3,"BCADJEIFHG","Passed AC2","","Chocking_first","Spreadsheet1",NA,"","","",NA,"5","END",NA,NA,NA,NA,NA,NA,0,NA,NA,NA,NA,"","",NA,"","",NA,"SUPPRF91296"
"1",1708971308616,"26/02/2024 18:15:08",1708971308616,0,"26/02/2024 18:15:08",167771,4,"task-v7r7",NA,35522674,10494361,NA,"complete",NA,"65dcd3eed5e1a6a3349a3356","computer","Desktop or Laptop","Windows 10","Chrome 121.0.0.0","1366x768","1366x641",NA,NA,0,"Task Introduction and Instructions (re-introduce video and audio) (Clone)",3,"CDBEAFJGIH","Passed AC2","","Chocking_second","Spreadsheet1",NA,"","","",NA,"5","BEGIN",NA,NA,NA,NA,NA,NA,0,NA,NA,NA,NA,"","",NA,"","",NA,"SUPPRF77316"
"2",1708971313195,"26/02/2024 18:15:13",1708971313195,0,"26/02/2024 18:15:13",167771,4,"task-v7r7",NA,35522674,10494361,NA,"complete",NA,"65dcd3eed5e1a6a3349a3356","computer","Desktop or Laptop","Windows 10","Chrome 121.0.0.0","1366x768","1366x641",NA,NA,0,"Task Introduction and Instructions (re-introduce video and audio) (Clone)",3,"CDBEAFJGIH","Passed AC2","","Chocking_second","Spreadsheet1",1,"Task Instructions","Screen 1","anr7sn",1,"continue","",4365.9,4349.3,4365.9,4365.9,4349.3,4365.9,1,4365.9,0,0,NA,"Click To Continue","Continue Button",3,"object-60","Task Instructions",NA,"SUPPRF77316"
"3",1708971317205,"26/02/2024 18:15:17",1708971317205,0,"26/02/2024 18:15:17",167771,4,"task-v7r7",NA,35522674,10494361,NA,"complete",NA,"65dcd3eed5e1a6a3349a3356","computer","Desktop or Laptop","Windows 10","Chrome 121.0.0.0","1366x768","1366x641",NA,NA,0,"Task Introduction and Instructions (re-introduce video and audio) (Clone)",3,"CDBEAFJGIH","Passed AC2","","Chocking_second","Spreadsheet1",1,"Task Instructions","Screen 2","ce2tc8",2,"continue","",4027.30000000149,4016.2,4027.30000000149,4027.30000000149,4016.2,4027.30000000149,1,4027.30000000149,0,0,NA,"Click To Continue","Continue Button",3,"object-59","Task Instructions",NA,"SUPPRF77316"
"4",1708971325023,"26/02/2024 18:15:25",1708971325023,0,"26/02/2024 18:15:25",167771,4,"task-v7r7",NA,35522674,10494361,NA,"complete",NA,"65dcd3eed5e1a6a3349a3356","computer","Desktop or Laptop","Windows 10","Chrome 121.0.0.0","1366x768","1366x641",NA,NA,0,"Task Introduction and Instructions (re-introduce video and audio) (Clone)",3,"CDBEAFJGIH","Passed AC2","","Chocking_second","Spreadsheet1",1,"Task Instructions","Screen 3","1qtc8v",3,"continue","",7829.20000000298,7815.5,7829.20000000298,7829.20000000298,7815.5,7829.20000000298,1,7829.20000000298,0,0,NA,"Click To Continue","Continue Button",2,"object-2983","Task Instructions",NA,"SUPPRF77316"
"5",1708971329477,"26/02/2024 18:15:29",1708971329477,0,"26/02/2024 18:15:29",167771,4,"task-v7r7",NA,35522674,10494361,NA,"complete",NA,"65dcd3eed5e1a6a3349a3356","computer","Desktop or Laptop","Windows 10","Chrome 121.0.0.0","1366x768","1366x641",NA,NA,0,"Task Introduction and Instructions (re-introduce video and audio) (Clone)",3,"CDBEAFJGIH","Passed AC2","","Chocking_second","Spreadsheet1",1,"Task Instructions","Screen 12","1a4vu2",4,"continue","",4467.79999999702,4466.1,4467.79999999702,4467.79999999702,4466.1,4467.79999999702,1,4467.79999999702,0,0,NA,"Click To Continue","Continue Button",2,"object-2466","Task Instructions",NA,"SUPPRF77316"
"6",1708971334089,"26/02/2024 18:15:34",1708971334089,0,"26/02/2024 18:15:34",167771,4,"task-v7r7",NA,35522674,10494361,NA,"complete",NA,"65dcd3eed5e1a6a3349a3356","computer","Desktop or Laptop","Windows 10","Chrome 121.0.0.0","1366x768","1366x641",NA,NA,0,"Task Introduction and Instructions (re-introduce video and audio) (Clone)",3,"CDBEAFJGIH","Passed AC2","","Chocking_second","Spreadsheet1",1,"Task Instructions","Screen 13","q9vwda",5,"continue","",4613.9,4599.3,4613.9,4613.9,4599.3,4613.9,1,4613.9,0,0,NA,"Click To Continue","Continue Button",2,"object-2989","Task Instructions",NA,"SUPPRF77316"
"7",1708971336765,"26/02/2024 18:15:36",1708971336765,0,"26/02/2024 18:15:36",167771,4,"task-v7r7",NA,35522674,10494361,NA,"complete",NA,"65dcd3eed5e1a6a3349a3356","computer","Desktop or Laptop","Windows 10","Chrome 121.0.0.0","1366x768","1366x641",NA,NA,0,"Task Introduction and Instructions (re-introduce video and audio) (Clone)",3,"CDBEAFJGIH","Passed AC2","","Chocking_second","Spreadsheet1",1,"Task Instructions","Screen 11","oyulb7",6,"continue","",2690.99999999851,2683,2690.99999999851,2690.99999999851,2683,2690.99999999851,1,2690.99999999851,0,0,NA,"Click To Continue","Continue Button",2,"object-52","Task Instructions",NA,"SUPPRF77316"
"8",1708971339235,"26/02/2024 18:15:39",1708971339235,0,"26/02/2024 18:15:39",167771,4,"task-v7r7",NA,35522674,10494361,NA,"complete",NA,"65dcd3eed5e1a6a3349a3356","computer","Desktop or Laptop","Windows 10","Chrome 121.0.0.0","1366x768","1366x641",NA,NA,0,"Task Introduction and Instructions (re-introduce video and audio) (Clone)",3,"CDBEAFJGIH","Passed AC2","","Chocking_second","Spreadsheet1",1,"Task Instructions","Screen 4","spepx9",7,"continue","",2477.80000000298,2466.3,2477.80000000298,2477.80000000298,2466.3,2477.80000000298,1,2477.80000000298,0,0,NA,"Click To Continue","Continue Button",2,"object-9","Task Instructions",NA,"SUPPRF77316"
"9",1708971355007,"26/02/2024 18:15:55",1708971355007,0,"26/02/2024 18:15:55",167771,4,"task-v7r7",NA,35522674,10494361,NA,"complete",NA,"65dcd3eed5e1a6a3349a3356","computer","Desktop or Laptop","Windows 10","Chrome 121.0.0.0","1366x768","1366x641",NA,NA,0,"Task Introduction and Instructions (re-introduce video and audio) (Clone)",3,"CDBEAFJGIH","Passed AC2","","Chocking_second","Spreadsheet1",1,"Task Instructions","Screen 5","8nvnao",8,"continue","",15783.4000000015,15781.5,15783.4000000015,15783.4000000015,15781.5,15783.4000000015,1,15783.4000000015,0,0,NA,"Click To Continue","Continue Button",2,"object-44","Task Instructions",NA,"SUPPRF77316"
"10",1708971355015,"26/02/2024 18:15:55",1708971355015,0,"26/02/2024 18:15:55",167771,4,"task-v7r7",NA,35522674,10494361,NA,"complete",NA,"65dcd3eed5e1a6a3349a3356","computer","Desktop or Laptop","Windows 10","Chrome 121.0.0.0","1366x768","1366x641",NA,NA,0,"Task Introduction and Instructions (re-introduce video and audio) (Clone)",3,"CDBEAFJGIH","Passed AC2","","Chocking_second","Spreadsheet1",NA,"","","",NA,"5","END",NA,NA,NA,NA,NA,NA,0,NA,NA,NA,NA,"","",NA,"","",NA,"SUPPRF77316"
"1",1708972545084,"26/02/2024 18:35:45",1708954545084,-5,"26/02/2024 08:35:45",167771,4,"task-v7r7",NA,35523189,10494421,NA,"complete",NA,"65dcce30f40fd5cad9b7b120","computer","Desktop or Laptop","Mac OS 10.15.7","Chrome 122.0.0.0","1440x900","1440x673",NA,NA,0,"Task Introduction and Instructions (re-introduce video and audio) (Clone)",3,"DECFBGAHJI","Passed AC2","","Chocking_first","Spreadsheet1",NA,"","","",NA,"5","BEGIN",NA,NA,NA,NA,NA,NA,0,NA,NA,NA,NA,"","",NA,"","",NA,"SUPPRF56143"
"2",1708972549168,"26/02/2024 18:35:49",1708954549168,-5,"26/02/2024 08:35:49",167771,4,"task-v7r7",NA,35523189,10494421,NA,"complete",NA,"65dcce30f40fd5cad9b7b120","computer","Desktop or Laptop","Mac OS 10.15.7","Chrome 122.0.0.0","1440x900","1440x673",NA,NA,0,"Task Introduction and Instructions (re-introduce video and audio) (Clone)",3,"DECFBGAHJI","Passed AC2","","Chocking_first","Spreadsheet1",1,"Task Instructions","Screen 1","anr7sn",1,"continue","",3579.6,3566.7,3579.6,3579.6,3566.7,3579.6,1,3579.6,0,0,NA,"Click To Continue","Continue Button",3,"object-60","Task Instructions",NA,"SUPPRF56143"
"3",1708972558468,"26/02/2024 18:35:58",1708954558468,-5,"26/02/2024 08:35:58",167771,4,"task-v7r7",NA,35523189,10494421,NA,"complete",NA,"65dcce30f40fd5cad9b7b120","computer","Desktop or Laptop","Mac OS 10.15.7","Chrome 122.0.0.0","1440x900","1440x673",NA,NA,0,"Task Introduction and Instructions (re-introduce video and audio) (Clone)",3,"DECFBGAHJI","Passed AC2","","Chocking_first","Spreadsheet1",1,"Task Instructions","Screen 2","ce2tc8",2,"continue","",9312.70000000074,9300,9312.70000000074,9312.70000000074,9300,9312.70000000074,1,9312.70000000074,0,0,NA,"Click To Continue","Continue Button",3,"object-59","Task Instructions",NA,"SUPPRF56143"
"4",1708972563819,"26/02/2024 18:36:03",1708954563819,-5,"26/02/2024 08:36:03",167771,4,"task-v7r7",NA,35523189,10494421,NA,"complete",NA,"65dcce30f40fd5cad9b7b120","computer","Desktop or Laptop","Mac OS 10.15.7","Chrome 122.0.0.0","1440x900","1440x673",NA,NA,0,"Task Introduction and Instructions (re-introduce video and audio) (Clone)",3,"DECFBGAHJI","Passed AC2","","Chocking_first","Spreadsheet1",1,"Task Instructions","Screen 3","1qtc8v",3,"continue","",5363.59999999925,5349.9,5363.59999999925,5363.59999999925,5349.9,5363.59999999925,1,5363.59999999925,0,0,NA,"Click To Continue","Continue Button",2,"object-2983","Task Instructions",NA,"SUPPRF56143"
"5",1708972573051,"26/02/2024 18:36:13",1708954573051,-5,"26/02/2024 08:36:13",167771,4,"task-v7r7",NA,35523189,10494421,NA,"complete",NA,"65dcce30f40fd5cad9b7b120","computer","Desktop or Laptop","Mac OS 10.15.7","Chrome 122.0.0.0","1440x900","1440x673",NA,NA,0,"Task Introduction and Instructions (re-introduce video and audio) (Clone)",3,"DECFBGAHJI","Passed AC2","","Chocking_first","Spreadsheet1",1,"Task Instructions","Screen 12","1a4vu2",4,"continue","",9246.59999999776,9233.3,9246.59999999776,9246.59999999776,9233.3,9246.59999999776,1,9246.59999999776,0,0,NA,"Click To Continue","Continue Button",2,"object-2466","Task Instructions",NA,"SUPPRF56143"
"6",1708972577851,"26/02/2024 18:36:17",1708954577851,-5,"26/02/2024 08:36:17",167771,4,"task-v7r7",NA,35523189,10494421,NA,"complete",NA,"65dcce30f40fd5cad9b7b120","computer","Desktop or Laptop","Mac OS 10.15.7","Chrome 122.0.0.0","1440x900","1440x673",NA,NA,0,"Task Introduction and Instructions (re-introduce video and audio) (Clone)",3,"DECFBGAHJI","Passed AC2","","Chocking_first","Spreadsheet1",1,"Task Instructions","Screen 13","q9vwda",5,"continue","",4812.79999999777,4800,4812.79999999777,4812.79999999777,4800,4812.79999999777,1,4812.79999999777,0,0,NA,"Click To Continue","Continue Button",2,"object-2989","Task Instructions",NA,"SUPPRF56143"
"7",1708972583051,"26/02/2024 18:36:23",1708954583051,-5,"26/02/2024 08:36:23",167771,4,"task-v7r7",NA,35523189,10494421,NA,"complete",NA,"65dcce30f40fd5cad9b7b120","computer","Desktop or Laptop","Mac OS 10.15.7","Chrome 122.0.0.0","1440x900","1440x673",NA,NA,0,"Task Introduction and Instructions (re-introduce video and audio) (Clone)",3,"DECFBGAHJI","Passed AC2","","Chocking_first","Spreadsheet1",1,"Task Instructions","Screen 11","oyulb7",6,"continue","",5212.79999999776,5200,5212.79999999776,5212.79999999776,5200,5212.79999999776,1,5212.79999999776,0,0,NA,"Click To Continue","Continue Button",2,"object-52","Task Instructions",NA,"SUPPRF56143"
"8",1708972586051,"26/02/2024 18:36:26",1708954586051,-5,"26/02/2024 08:36:26",167771,4,"task-v7r7",NA,35523189,10494421,NA,"complete",NA,"65dcce30f40fd5cad9b7b120","computer","Desktop or Laptop","Mac OS 10.15.7","Chrome 122.0.0.0","1440x900","1440x673",NA,NA,0,"Task Introduction and Instructions (re-introduce video and audio) (Clone)",3,"DECFBGAHJI","Passed AC2","","Chocking_first","Spreadsheet1",1,"Task Instructions","Screen 4","spepx9",7,"continue","",3012.89999999925,3000.1,3012.89999999925,3012.89999999925,3000.1,3012.89999999925,1,3012.89999999925,0,0,NA,"Click To Continue","Continue Button",2,"object-9","Task Instructions",NA,"SUPPRF56143"
"9",1708972588801,"26/02/2024 18:36:28",1708954588801,-5,"26/02/2024 08:36:28",167771,4,"task-v7r7",NA,35523189,10494421,NA,"complete",NA,"65dcce30f40fd5cad9b7b120","computer","Desktop or Laptop","Mac OS 10.15.7","Chrome 122.0.0.0","1440x900","1440x673",NA,NA,0,"Task Introduction and Instructions (re-introduce video and audio) (Clone)",3,"DECFBGAHJI","Passed AC2","","Chocking_first","Spreadsheet1",1,"Task Instructions","Screen 5","8nvnao",8,"continue","",2762.99999999851,2750,2762.99999999851,2762.99999999851,2750,2762.99999999851,1,2762.99999999851,0,0,NA,"Click To Continue","Continue Button",2,"object-44","Task Instructions",NA,"SUPPRF56143"
"10",1708972588802,"26/02/2024 18:36:28",1708954588802,-5,"26/02/2024 08:36:28",167771,4,"task-v7r7",NA,35523189,10494421,NA,"complete",NA,"65dcce30f40fd5cad9b7b120","computer","Desktop or Laptop","Mac OS 10.15.7","Chrome 122.0.0.0","1440x900","1440x673",NA,NA,0,"Task Introduction and Instructions (re-introduce video and audio) (Clone)",3,"DECFBGAHJI","Passed AC2","","Chocking_first","Spreadsheet1",NA,"","","",NA,"5","END",NA,NA,NA,NA,NA,NA,0,NA,NA,NA,NA,"","",NA,"","",NA,"SUPPRF56143"
"1",1708975717207,"26/02/2024 19:28:37",1708957717207,-5,"26/02/2024 09:28:37",167771,4,"task-v7r7",NA,35524855,10494908,NA,"complete",NA,"65dce2bedf550398cbe21df9","computer","Desktop or Laptop","Mac OS 10.15.7","Chrome 120.0.0.0","1440x900","1058x722",NA,NA,0,"Task Introduction and Instructions (re-introduce video and audio) (Clone)",3,"EFDGCHBIAJ","Passed AC2","","Chocking_first","Spreadsheet1",NA,"","","",NA,"5","BEGIN",NA,NA,NA,NA,NA,NA,0,NA,NA,NA,NA,"","",NA,"","",NA,"SUPPRF59156"
"2",1708975722936,"26/02/2024 19:28:42",1708957722936,-5,"26/02/2024 09:28:42",167771,4,"task-v7r7",NA,35524855,10494908,NA,"complete",NA,"65dce2bedf550398cbe21df9","computer","Desktop or Laptop","Mac OS 10.15.7","Chrome 120.0.0.0","1440x900","1058x722",NA,NA,0,"Task Introduction and Instructions (re-introduce video and audio) (Clone)",3,"EFDGCHBIAJ","Passed AC2","","Chocking_first","Spreadsheet1",1,"Task Instructions","Screen 1","anr7sn",1,"continue","",5581.09999990463,5566.5,5581.09999990463,5581.09999990463,5566.5,5581.09999990463,1,5581.09999990463,0,0,NA,"Click To Continue","Continue Button",3,"object-60","Task Instructions",NA,"SUPPRF59156"
"3",1708975730354,"26/02/2024 19:28:50",1708957730354,-5,"26/02/2024 09:28:50",167771,4,"task-v7r7",NA,35524855,10494908,NA,"complete",NA,"65dce2bedf550398cbe21df9","computer","Desktop or Laptop","Mac OS 10.15.7","Chrome 120.0.0.0","1440x900","1058x722",NA,NA,0,"Task Introduction and Instructions (re-introduce video and audio) (Clone)",3,"EFDGCHBIAJ","Passed AC2","","Chocking_first","Spreadsheet1",1,"Task Instructions","Screen 2","ce2tc8",2,"continue","",7433.3,7416.6,7433.3,7433.3,7416.6,7433.3,1,7433.3,0,0,NA,"Click To Continue","Continue Button",3,"object-59","Task Instructions",NA,"SUPPRF59156"
"4",1708975739712,"26/02/2024 19:28:59",1708957739712,-5,"26/02/2024 09:28:59",167771,4,"task-v7r7",NA,35524855,10494908,NA,"complete",NA,"65dce2bedf550398cbe21df9","computer","Desktop or Laptop","Mac OS 10.15.7","Chrome 120.0.0.0","1440x900","1058x722",NA,NA,0,"Task Introduction and Instructions (re-introduce video and audio) (Clone)",3,"EFDGCHBIAJ","Passed AC2","","Chocking_first","Spreadsheet1",1,"Task Instructions","Screen 3","1qtc8v",3,"continue","",9376.19999995232,9366.6,9376.19999995232,9376.19999995232,9366.6,9376.19999995232,1,9376.19999995232,0,0,NA,"Click To Continue","Continue Button",2,"object-2983","Task Instructions",NA,"SUPPRF59156"
"5",1708975749421,"26/02/2024 19:29:09",1708957749421,-5,"26/02/2024 09:29:09",167771,4,"task-v7r7",NA,35524855,10494908,NA,"complete",NA,"65dce2bedf550398cbe21df9","computer","Desktop or Laptop","Mac OS 10.15.7","Chrome 120.0.0.0","1440x900","1058x722",NA,NA,0,"Task Introduction and Instructions (re-introduce video and audio) (Clone)",3,"EFDGCHBIAJ","Passed AC2","","Chocking_first","Spreadsheet1",1,"Task Instructions","Screen 12","1a4vu2",4,"continue","",9718.69999985695,9716.5,9718.69999985695,9718.69999985695,9716.5,9718.69999985695,1,9718.69999985695,0,0,NA,"Click To Continue","Continue Button",2,"object-2466","Task Instructions",NA,"SUPPRF59156"
"6",1708975757643,"26/02/2024 19:29:17",1708957757643,-5,"26/02/2024 09:29:17",167771,4,"task-v7r7",NA,35524855,10494908,NA,"complete",NA,"65dce2bedf550398cbe21df9","computer","Desktop or Laptop","Mac OS 10.15.7","Chrome 120.0.0.0","1440x900","1058x722",NA,NA,0,"Task Introduction and Instructions (re-introduce video and audio) (Clone)",3,"EFDGCHBIAJ","Passed AC2","","Chocking_first","Spreadsheet1",1,"Task Instructions","Screen 13","q9vwda",5,"continue","",8223.3,8216.60000000001,8223.3,8223.3,8216.60000000001,8223.3,1,8223.3,0,0,NA,"Click To Continue","Continue Button",2,"object-2989","Task Instructions",NA,"SUPPRF59156"
"7",1708975761247,"26/02/2024 19:29:21",1708957761247,-5,"26/02/2024 09:29:21",167771,4,"task-v7r7",NA,35524855,10494908,NA,"complete",NA,"65dce2bedf550398cbe21df9","computer","Desktop or Laptop","Mac OS 10.15.7","Chrome 120.0.0.0","1440x900","1058x722",NA,NA,0,"Task Introduction and Instructions (re-introduce video and audio) (Clone)",3,"EFDGCHBIAJ","Passed AC2","","Chocking_first","Spreadsheet1",1,"Task Instructions","Screen 11","oyulb7",6,"continue","",3610.59999985695,3599.89999999999,3610.59999985695,3610.59999985695,3599.89999999999,3610.59999985695,1,3610.59999985695,0,0,NA,"Click To Continue","Continue Button",2,"object-52","Task Instructions",NA,"SUPPRF59156"
"8",1708975768093,"26/02/2024 19:29:28",1708957768093,-5,"26/02/2024 09:29:28",167771,4,"task-v7r7",NA,35524855,10494908,NA,"complete",NA,"65dce2bedf550398cbe21df9","computer","Desktop or Laptop","Mac OS 10.15.7","Chrome 120.0.0.0","1440x900","1058x722",NA,NA,0,"Task Introduction and Instructions (re-introduce video and audio) (Clone)",3,"EFDGCHBIAJ","Passed AC2","","Chocking_first","Spreadsheet1",1,"Task Instructions","Screen 4","spepx9",7,"continue","",6857.3,6850,6857.3,6857.3,6850,6857.3,1,6857.3,0,0,NA,"Click To Continue","Continue Button",2,"object-9","Task Instructions",NA,"SUPPRF59156"
"9",1708975770873,"26/02/2024 19:29:30",1708957770873,-5,"26/02/2024 09:29:30",167771,4,"task-v7r7",NA,35524855,10494908,NA,"complete",NA,"65dce2bedf550398cbe21df9","computer","Desktop or Laptop","Mac OS 10.15.7","Chrome 120.0.0.0","1440x900","1058x722",NA,NA,0,"Task Introduction and Instructions (re-introduce video and audio) (Clone)",3,"EFDGCHBIAJ","Passed AC2","","Chocking_first","Spreadsheet1",1,"Task Instructions","Screen 5","8nvnao",8,"continue","",2787.49999980927,2783.2,2787.49999980927,2787.49999980927,2783.2,2787.49999980927,1,2787.49999980927,0,0,NA,"Click To Continue","Continue Button",2,"object-44","Task Instructions",NA,"SUPPRF59156"
"10",1708975770875,"26/02/2024 19:29:30",1708957770875,-5,"26/02/2024 09:29:30",167771,4,"task-v7r7",NA,35524855,10494908,NA,"complete",NA,"65dce2bedf550398cbe21df9","computer","Desktop or Laptop","Mac OS 10.15.7","Chrome 120.0.0.0","1440x900","1058x722",NA,NA,0,"Task Introduction and Instructions (re-introduce video and audio) (Clone)",3,"EFDGCHBIAJ","Passed AC2","","Chocking_first","Spreadsheet1",NA,"","","",NA,"5","END",NA,NA,NA,NA,NA,NA,0,NA,NA,NA,NA,"","",NA,"","",NA,"SUPPRF59156"
"1",1708977039933,"26/02/2024 19:50:39",1708948239933,-8,"26/02/2024 03:50:39",167771,4,"task-v7r7",NA,35525562,10495197,NA,"complete",NA,"65dce8d9cab7e37ca604a9ef","computer","Desktop or Laptop","Mac OS 10.15.7","Chrome 122.0.0.0","1440x900","1426x692",NA,NA,0,"Task Introduction and Instructions (re-introduce video and audio) (Clone)",3,"GHFIEJDACB","Passed AC2","","Chocking_second","Spreadsheet1",NA,"","","",NA,"5","BEGIN",NA,NA,NA,NA,NA,NA,0,NA,NA,NA,NA,"","",NA,"","",NA,"SUPPRF87285"
"2",1708977044105,"26/02/2024 19:50:44",1708948244105,-8,"26/02/2024 03:50:44",167771,4,"task-v7r7",NA,35525562,10495197,NA,"complete",NA,"65dce8d9cab7e37ca604a9ef","computer","Desktop or Laptop","Mac OS 10.15.7","Chrome 122.0.0.0","1440x900","1426x692",NA,NA,0,"Task Introduction and Instructions (re-introduce video and audio) (Clone)",3,"GHFIEJDACB","Passed AC2","","Chocking_second","Spreadsheet1",1,"Task Instructions","Screen 1","anr7sn",1,"continue","",3493.10000000149,3466.5,3493.10000000149,3493.10000000149,3466.5,3493.10000000149,1,3493.10000000149,0,0,NA,"Click To Continue","Continue Button",3,"object-60","Task Instructions",NA,"SUPPRF87285"
"3",1708977050404,"26/02/2024 19:50:50",1708948250404,-8,"26/02/2024 03:50:50",167771,4,"task-v7r7",NA,35525562,10495197,NA,"complete",NA,"65dce8d9cab7e37ca604a9ef","computer","Desktop or Laptop","Mac OS 10.15.7","Chrome 122.0.0.0","1440x900","1426x692",NA,NA,0,"Task Introduction and Instructions (re-introduce video and audio) (Clone)",3,"GHFIEJDACB","Passed AC2","","Chocking_second","Spreadsheet1",1,"Task Instructions","Screen 2","ce2tc8",2,"continue","",6325.30000000075,6300.1,6325.30000000075,6325.30000000075,6300.1,6325.30000000075,1,6325.30000000075,0,0,NA,"Click To Continue","Continue Button",3,"object-59","Task Instructions",NA,"SUPPRF87285"
"4",1708977057890,"26/02/2024 19:50:57",1708948257890,-8,"26/02/2024 03:50:57",167771,4,"task-v7r7",NA,35525562,10495197,NA,"complete",NA,"65dce8d9cab7e37ca604a9ef","computer","Desktop or Laptop","Mac OS 10.15.7","Chrome 122.0.0.0","1440x900","1426x692",NA,NA,0,"Task Introduction and Instructions (re-introduce video and audio) (Clone)",3,"GHFIEJDACB","Passed AC2","","Chocking_second","Spreadsheet1",1,"Task Instructions","Screen 3","1qtc8v",3,"continue","",7512.00000000149,7499.9,7512.00000000149,7512.00000000149,7499.9,7512.00000000149,1,7512.00000000149,0,0,NA,"Click To Continue","Continue Button",2,"object-2983","Task Instructions",NA,"SUPPRF87285"
"5",1708977063096,"26/02/2024 19:51:03",1708948263096,-8,"26/02/2024 03:51:03",167771,4,"task-v7r7",NA,35525562,10495197,NA,"complete",NA,"65dce8d9cab7e37ca604a9ef","computer","Desktop or Laptop","Mac OS 10.15.7","Chrome 122.0.0.0","1440x900","1426x692",NA,NA,0,"Task Introduction and Instructions (re-introduce video and audio) (Clone)",3,"GHFIEJDACB","Passed AC2","","Chocking_second","Spreadsheet1",1,"Task Instructions","Screen 12","1a4vu2",4,"continue","",5217.90000000037,5199.8,5217.90000000037,5217.90000000037,5199.8,5217.90000000037,1,5217.90000000037,0,0,NA,"Click To Continue","Continue Button",2,"object-2466","Task Instructions",NA,"SUPPRF87285"
"6",1708977072948,"26/02/2024 19:51:12",1708948272948,-8,"26/02/2024 03:51:12",167771,4,"task-v7r7",NA,35525562,10495197,NA,"complete",NA,"65dce8d9cab7e37ca604a9ef","computer","Desktop or Laptop","Mac OS 10.15.7","Chrome 122.0.0.0","1440x900","1426x692",NA,NA,0,"Task Introduction and Instructions (re-introduce video and audio) (Clone)",3,"GHFIEJDACB","Passed AC2","","Chocking_second","Spreadsheet1",1,"Task Instructions","Screen 13","q9vwda",5,"continue","",9866.6,9833.2,9866.6,9866.6,9833.2,9866.6,1,9866.6,0,0,NA,"Click To Continue","Continue Button",2,"object-2989","Task Instructions",NA,"SUPPRF87285"
"7",1708977075779,"26/02/2024 19:51:15",1708948275779,-8,"26/02/2024 03:51:15",167771,4,"task-v7r7",NA,35525562,10495197,NA,"complete",NA,"65dce8d9cab7e37ca604a9ef","computer","Desktop or Laptop","Mac OS 10.15.7","Chrome 122.0.0.0","1440x900","1426x692",NA,NA,0,"Task Introduction and Instructions (re-introduce video and audio) (Clone)",3,"GHFIEJDACB","Passed AC2","","Chocking_second","Spreadsheet1",1,"Task Instructions","Screen 11","oyulb7",6,"continue","",2866.9,2833.5,2866.9,2866.9,2833.5,2866.9,1,2866.9,0,0,NA,"Click To Continue","Continue Button",2,"object-52","Task Instructions",NA,"SUPPRF87285"
"8",1708977080421,"26/02/2024 19:51:20",1708948280421,-8,"26/02/2024 03:51:20",167771,4,"task-v7r7",NA,35525562,10495197,NA,"complete",NA,"65dce8d9cab7e37ca604a9ef","computer","Desktop or Laptop","Mac OS 10.15.7","Chrome 122.0.0.0","1440x900","1426x692",NA,NA,0,"Task Introduction and Instructions (re-introduce video and audio) (Clone)",3,"GHFIEJDACB","Passed AC2","","Chocking_second","Spreadsheet1",1,"Task Instructions","Screen 4","spepx9",7,"continue","",4675.60000000149,4666.4,4675.60000000149,4675.60000000149,4666.4,4675.60000000149,1,4675.60000000149,0,0,NA,"Click To Continue","Continue Button",2,"object-9","Task Instructions",NA,"SUPPRF87285"
"9",1708977087716,"26/02/2024 19:51:27",1708948287716,-8,"26/02/2024 03:51:27",167771,4,"task-v7r7",NA,35525562,10495197,NA,"complete",NA,"65dce8d9cab7e37ca604a9ef","computer","Desktop or Laptop","Mac OS 10.15.7","Chrome 122.0.0.0","1440x900","1426x692",NA,NA,0,"Task Introduction and Instructions (re-introduce video and audio) (Clone)",3,"GHFIEJDACB","Passed AC2","","Chocking_second","Spreadsheet1",1,"Task Instructions","Screen 5","8nvnao",8,"continue","",7303.90000000074,7300,7303.90000000074,7303.90000000074,7300,7303.90000000074,1,7303.90000000074,0,0,NA,"Click To Continue","Continue Button",2,"object-44","Task Instructions",NA,"SUPPRF87285"
"10",1708977087726,"26/02/2024 19:51:27",1708948287726,-8,"26/02/2024 03:51:27",167771,4,"task-v7r7",NA,35525562,10495197,NA,"complete",NA,"65dce8d9cab7e37ca604a9ef","computer","Desktop or Laptop","Mac OS 10.15.7","Chrome 122.0.0.0","1440x900","1426x692",NA,NA,0,"Task Introduction and Instructions (re-introduce video and audio) (Clone)",3,"GHFIEJDACB","Passed AC2","","Chocking_second","Spreadsheet1",NA,"","","",NA,"5","END",NA,NA,NA,NA,NA,NA,0,NA,NA,NA,NA,"","",NA,"","",NA,"SUPPRF87285"
"1",1708977718350,"26/02/2024 20:01:58",1708977718350,0,"26/02/2024 20:01:58",167771,4,"task-v7r7",NA,35525818,10495308,NA,"complete",NA,"65dceba002a94d3dfdc24511","computer","Desktop or Laptop","Mac OS 10.15.7","Chrome 121.0.0.0","1440x900","1440x813",NA,NA,0,"Task Introduction and Instructions (re-introduce video and audio) (Clone)",3,"HIGJFAEBDC","Passed AC2","","Chocking_second","Spreadsheet1",NA,"","","",NA,"5","BEGIN",NA,NA,NA,NA,NA,NA,0,NA,NA,NA,NA,"","",NA,"","",NA,"SUPPRF00201"
"2",1708977725861,"26/02/2024 20:02:05",1708977725861,0,"26/02/2024 20:02:05",167771,4,"task-v7r7",NA,35525818,10495308,NA,"complete",NA,"65dceba002a94d3dfdc24511","computer","Desktop or Laptop","Mac OS 10.15.7","Chrome 121.0.0.0","1440x900","1440x813",NA,NA,0,"Task Introduction and Instructions (re-introduce video and audio) (Clone)",3,"HIGJFAEBDC","Passed AC2","","Chocking_second","Spreadsheet1",1,"Task Instructions","Screen 1","anr7sn",1,"continue","",7358.50000001192,7350.2,7358.50000001192,7358.50000001192,7350.2,7358.50000001192,1,7358.50000001192,0,0,NA,"Click To Continue","Continue Button",3,"object-60","Task Instructions",NA,"SUPPRF00201"
"3",1708977729411,"26/02/2024 20:02:09",1708977729411,0,"26/02/2024 20:02:09",167771,4,"task-v7r7",NA,35525818,10495308,NA,"complete",NA,"65dceba002a94d3dfdc24511","computer","Desktop or Laptop","Mac OS 10.15.7","Chrome 121.0.0.0","1440x900","1440x813",NA,NA,0,"Task Introduction and Instructions (re-introduce video and audio) (Clone)",3,"HIGJFAEBDC","Passed AC2","","Chocking_second","Spreadsheet1",1,"Task Instructions","Screen 2","ce2tc8",2,"continue","",3558.69999998808,3550,3558.69999998808,3558.69999998808,3550,3558.69999998808,1,3558.69999998808,0,0,NA,"Click To Continue","Continue Button",3,"object-59","Task Instructions",NA,"SUPPRF00201"
"4",1708977735360,"26/02/2024 20:02:15",1708977735360,0,"26/02/2024 20:02:15",167771,4,"task-v7r7",NA,35525818,10495308,NA,"complete",NA,"65dceba002a94d3dfdc24511","computer","Desktop or Laptop","Mac OS 10.15.7","Chrome 121.0.0.0","1440x900","1440x813",NA,NA,0,"Task Introduction and Instructions (re-introduce video and audio) (Clone)",3,"HIGJFAEBDC","Passed AC2","","Chocking_second","Spreadsheet1",1,"Task Instructions","Screen 3","1qtc8v",3,"continue","",5957.89999997616,5950.3,5957.89999997616,5957.89999997616,5950.3,5957.89999997616,1,5957.89999997616,0,0,NA,"Click To Continue","Continue Button",2,"object-2983","Task Instructions",NA,"SUPPRF00201"
"5",1708977746727,"26/02/2024 20:02:26",1708977746727,0,"26/02/2024 20:02:26",167771,4,"task-v7r7",NA,35525818,10495308,NA,"complete",NA,"65dceba002a94d3dfdc24511","computer","Desktop or Laptop","Mac OS 10.15.7","Chrome 121.0.0.0","1440x900","1440x813",NA,NA,0,"Task Introduction and Instructions (re-introduce video and audio) (Clone)",3,"HIGJFAEBDC","Passed AC2","","Chocking_second","Spreadsheet1",1,"Task Instructions","Screen 12","1a4vu2",4,"continue","",11374.8999999881,11366.9,11374.8999999881,11374.8999999881,11366.9,11374.8999999881,1,11374.8999999881,0,0,NA,"Click To Continue","Continue Button",2,"object-2466","Task Instructions",NA,"SUPPRF00201"
"6",1708977753644,"26/02/2024 20:02:33",1708977753644,0,"26/02/2024 20:02:33",167771,4,"task-v7r7",NA,35525818,10495308,NA,"complete",NA,"65dceba002a94d3dfdc24511","computer","Desktop or Laptop","Mac OS 10.15.7","Chrome 121.0.0.0","1440x900","1440x813",NA,NA,0,"Task Introduction and Instructions (re-introduce video and audio) (Clone)",3,"HIGJFAEBDC","Passed AC2","","Chocking_second","Spreadsheet1",1,"Task Instructions","Screen 13","q9vwda",5,"continue","",6925.3,6917,6925.3,6925.3,6917,6925.3,1,6925.3,0,0,NA,"Click To Continue","Continue Button",2,"object-2989","Task Instructions",NA,"SUPPRF00201"
"7",1708977756844,"26/02/2024 20:02:36",1708977756844,0,"26/02/2024 20:02:36",167771,4,"task-v7r7",NA,35525818,10495308,NA,"complete",NA,"65dceba002a94d3dfdc24511","computer","Desktop or Laptop","Mac OS 10.15.7","Chrome 121.0.0.0","1440x900","1440x813",NA,NA,0,"Task Introduction and Instructions (re-introduce video and audio) (Clone)",3,"HIGJFAEBDC","Passed AC2","","Chocking_second","Spreadsheet1",1,"Task Instructions","Screen 11","oyulb7",6,"continue","",3208.89999996424,3199.9,3208.89999996424,3208.89999996424,3199.9,3208.89999996424,1,3208.89999996424,0,0,NA,"Click To Continue","Continue Button",2,"object-52","Task Instructions",NA,"SUPPRF00201"
"8",1708977791395,"26/02/2024 20:03:11",1708977791395,0,"26/02/2024 20:03:11",167771,4,"task-v7r7",NA,35525818,10495308,NA,"complete",NA,"65dceba002a94d3dfdc24511","computer","Desktop or Laptop","Mac OS 10.15.7","Chrome 121.0.0.0","1440x900","1440x813",NA,NA,0,"Task Introduction and Instructions (re-introduce video and audio) (Clone)",3,"HIGJFAEBDC","Passed AC2","","Chocking_second","Spreadsheet1",1,"Task Instructions","Screen 4","spepx9",7,"continue","",34560.0999999881,34550.5,34560.0999999881,34560.0999999881,34550.5,34560.0999999881,1,34560.0999999881,0,0,NA,"Click To Continue","Continue Button",2,"object-9","Task Instructions",NA,"SUPPRF00201"
"9",1708977809611,"26/02/2024 20:03:29",1708977809611,0,"26/02/2024 20:03:29",167771,4,"task-v7r7",NA,35525818,10495308,NA,"complete",NA,"65dceba002a94d3dfdc24511","computer","Desktop or Laptop","Mac OS 10.15.7","Chrome 121.0.0.0","1440x900","1440x813",NA,NA,0,"Task Introduction and Instructions (re-introduce video and audio) (Clone)",3,"HIGJFAEBDC","Passed AC2","","Chocking_second","Spreadsheet1",1,"Task Instructions","Screen 5","8nvnao",8,"continue","",18226.4,18217.2,18226.4,18226.4,18217.2,18226.4,1,18226.4,0,0,NA,"Click To Continue","Continue Button",2,"object-44","Task Instructions",NA,"SUPPRF00201"
"10",1708977809617,"26/02/2024 20:03:29",1708977809617,0,"26/02/2024 20:03:29",167771,4,"task-v7r7",NA,35525818,10495308,NA,"complete",NA,"65dceba002a94d3dfdc24511","computer","Desktop or Laptop","Mac OS 10.15.7","Chrome 121.0.0.0","1440x900","1440x813",NA,NA,0,"Task Introduction and Instructions (re-introduce video and audio) (Clone)",3,"HIGJFAEBDC","Passed AC2","","Chocking_second","Spreadsheet1",NA,"","","",NA,"5","END",NA,NA,NA,NA,NA,NA,0,NA,NA,NA,NA,"","",NA,"","",NA,"SUPPRF00201"
"1",1708978359312,"26/02/2024 20:12:39",1708960359312,-5,"26/02/2024 10:12:39",167771,4,"task-v7r7",NA,35526170,10495316,NA,"complete",NA,"65dcec09d5e1a6a3349a3837","computer","Desktop or Laptop","Mac OS 10.15.7","Chrome 121.0.0.0","1280x800","1243x690",NA,NA,0,"Task Introduction and Instructions (re-introduce video and audio) (Clone)",3,"IJHAGBFCED","Passed AC2","","Chocking_second","Spreadsheet1",NA,"","","",NA,"5","BEGIN",NA,NA,NA,NA,NA,NA,0,NA,NA,NA,NA,"","",NA,"","",NA,"SUPPRF64585"
"2",1708978364073,"26/02/2024 20:12:44",1708960364073,-5,"26/02/2024 10:12:44",167771,4,"task-v7r7",NA,35526170,10495316,NA,"complete",NA,"65dcec09d5e1a6a3349a3837","computer","Desktop or Laptop","Mac OS 10.15.7","Chrome 121.0.0.0","1280x800","1243x690",NA,NA,0,"Task Introduction and Instructions (re-introduce video and audio) (Clone)",3,"IJHAGBFCED","Passed AC2","","Chocking_second","Spreadsheet1",1,"Task Instructions","Screen 1","anr7sn",1,"continue","",4585.99999999404,4573.1,4585.99999999404,4585.99999999404,4573.1,4585.99999999404,1,4585.99999999404,0,0,NA,"Click To Continue","Continue Button",3,"object-60","Task Instructions",NA,"SUPPRF64585"
"3",1708978389442,"26/02/2024 20:13:09",1708960389442,-5,"26/02/2024 10:13:09",167771,4,"task-v7r7",NA,35526170,10495316,NA,"complete",NA,"65dcec09d5e1a6a3349a3837","computer","Desktop or Laptop","Mac OS 10.15.7","Chrome 121.0.0.0","1280x800","1243x690",NA,NA,0,"Task Introduction and Instructions (re-introduce video and audio) (Clone)",3,"IJHAGBFCED","Passed AC2","","Chocking_second","Spreadsheet1",1,"Task Instructions","Screen 2","ce2tc8",2,"continue","",25380.9999999881,25366.2,25380.9999999881,25380.9999999881,25366.2,25380.9999999881,1,25380.9999999881,0,0,NA,"Click To Continue","Continue Button",3,"object-59","Task Instructions",NA,"SUPPRF64585"
"4",1708978398967,"26/02/2024 20:13:18",1708960398967,-5,"26/02/2024 10:13:18",167771,4,"task-v7r7",NA,35526170,10495316,NA,"complete",NA,"65dcec09d5e1a6a3349a3837","computer","Desktop or Laptop","Mac OS 10.15.7","Chrome 121.0.0.0","1280x800","1243x690",NA,NA,0,"Task Introduction and Instructions (re-introduce video and audio) (Clone)",3,"IJHAGBFCED","Passed AC2","","Chocking_second","Spreadsheet1",1,"Task Instructions","Screen 3","1qtc8v",3,"continue","",9539.6,9527.1,9539.6,9539.6,9527.1,9539.6,1,9539.6,0,0,NA,"Click To Continue","Continue Button",2,"object-2983","Task Instructions",NA,"SUPPRF64585"
"5",1708978413184,"26/02/2024 20:13:33",1708960413184,-5,"26/02/2024 10:13:33",167771,4,"task-v7r7",NA,35526170,10495316,NA,"complete",NA,"65dcec09d5e1a6a3349a3837","computer","Desktop or Laptop","Mac OS 10.15.7","Chrome 121.0.0.0","1280x800","1243x690",NA,NA,0,"Task Introduction and Instructions (re-introduce video and audio) (Clone)",3,"IJHAGBFCED","Passed AC2","","Chocking_second","Spreadsheet1",1,"Task Instructions","Screen 12","1a4vu2",4,"continue","",14228.2,14212.4,14228.2,14228.2,14212.4,14228.2,1,14228.2,0,0,NA,"Click To Continue","Continue Button",2,"object-2466","Task Instructions",NA,"SUPPRF64585"
"6",1708978421203,"26/02/2024 20:13:41",1708960421203,-5,"26/02/2024 10:13:41",167771,4,"task-v7r7",NA,35526170,10495316,NA,"complete",NA,"65dcec09d5e1a6a3349a3837","computer","Desktop or Laptop","Mac OS 10.15.7","Chrome 121.0.0.0","1280x800","1243x690",NA,NA,0,"Task Introduction and Instructions (re-introduce video and audio) (Clone)",3,"IJHAGBFCED","Passed AC2","","Chocking_second","Spreadsheet1",1,"Task Instructions","Screen 13","q9vwda",5,"continue","",8035.89999999702,8031,8035.89999999702,8035.89999999702,8031,8035.89999999702,1,8035.89999999702,0,0,NA,"Click To Continue","Continue Button",2,"object-2989","Task Instructions",NA,"SUPPRF64585"
"7",1708978427426,"26/02/2024 20:13:47",1708960427426,-5,"26/02/2024 10:13:47",167771,4,"task-v7r7",NA,35526170,10495316,NA,"complete",NA,"65dcec09d5e1a6a3349a3837","computer","Desktop or Laptop","Mac OS 10.15.7","Chrome 121.0.0.0","1280x800","1243x690",NA,NA,0,"Task Introduction and Instructions (re-introduce video and audio) (Clone)",3,"IJHAGBFCED","Passed AC2","","Chocking_second","Spreadsheet1",1,"Task Instructions","Screen 11","oyulb7",6,"continue","",6227.29999998808,6222.9,6227.29999998808,6227.29999998808,6222.9,6227.29999998808,1,6227.29999998808,0,0,NA,"Click To Continue","Continue Button",2,"object-52","Task Instructions",NA,"SUPPRF64585"
"8",1708978431006,"26/02/2024 20:13:51",1708960431006,-5,"26/02/2024 10:13:51",167771,4,"task-v7r7",NA,35526170,10495316,NA,"complete",NA,"65dcec09d5e1a6a3349a3837","computer","Desktop or Laptop","Mac OS 10.15.7","Chrome 121.0.0.0","1280x800","1243x690",NA,NA,0,"Task Introduction and Instructions (re-introduce video and audio) (Clone)",3,"IJHAGBFCED","Passed AC2","","Chocking_second","Spreadsheet1",1,"Task Instructions","Screen 4","spepx9",7,"continue","",3583.99999999702,3581.3,3583.99999999702,3583.99999999702,3581.3,3583.99999999702,1,3583.99999999702,0,0,NA,"Click To Continue","Continue Button",2,"object-9","Task Instructions",NA,"SUPPRF64585"
"9",1708978433950,"26/02/2024 20:13:53",1708960433950,-5,"26/02/2024 10:13:53",167771,4,"task-v7r7",NA,35526170,10495316,NA,"complete",NA,"65dcec09d5e1a6a3349a3837","computer","Desktop or Laptop","Mac OS 10.15.7","Chrome 121.0.0.0","1280x800","1243x690",NA,NA,0,"Task Introduction and Instructions (re-introduce video and audio) (Clone)",3,"IJHAGBFCED","Passed AC2","","Chocking_second","Spreadsheet1",1,"Task Instructions","Screen 5","8nvnao",8,"continue","",2946.59999998807,2942.09999999999,2946.59999998807,2946.59999998807,2942.09999999999,2946.59999998807,1,2946.59999998807,0,0,NA,"Click To Continue","Continue Button",2,"object-44","Task Instructions",NA,"SUPPRF64585"
"10",1708978433951,"26/02/2024 20:13:53",1708960433951,-5,"26/02/2024 10:13:53",167771,4,"task-v7r7",NA,35526170,10495316,NA,"complete",NA,"65dcec09d5e1a6a3349a3837","computer","Desktop or Laptop","Mac OS 10.15.7","Chrome 121.0.0.0","1280x800","1243x690",NA,NA,0,"Task Introduction and Instructions (re-introduce video and audio) (Clone)",3,"IJHAGBFCED","Passed AC2","","Chocking_second","Spreadsheet1",NA,"","","",NA,"5","END",NA,NA,NA,NA,NA,NA,0,NA,NA,NA,NA,"","",NA,"","",NA,"SUPPRF64585"
"1",1708978280510,"26/02/2024 20:11:20",1708960280510,-5,"26/02/2024 10:11:20",167771,4,"task-v7r7",NA,35526146,10495365,NA,"complete",NA,"65dced46926eb51a950e86da","computer","Desktop or Laptop","Windows 10","Chrome 122.0.0.0","1504x1003","1504x868",NA,NA,0,"Task Introduction and Instructions (re-introduce video and audio) (Clone)",3,"JAIBHCGDFE","Passed AC2","","Chocking_first","Spreadsheet1",NA,"","","",NA,"5","BEGIN",NA,NA,NA,NA,NA,NA,0,NA,NA,NA,NA,"","",NA,"","",NA,"SUPPRF09191"
"2",1708978285708,"26/02/2024 20:11:25",1708960285708,-5,"26/02/2024 10:11:25",167771,4,"task-v7r7",NA,35526146,10495365,NA,"complete",NA,"65dced46926eb51a950e86da","computer","Desktop or Laptop","Windows 10","Chrome 122.0.0.0","1504x1003","1504x868",NA,NA,0,"Task Introduction and Instructions (re-introduce video and audio) (Clone)",3,"JAIBHCGDFE","Passed AC2","","Chocking_first","Spreadsheet1",1,"Task Instructions","Screen 1","anr7sn",1,"continue","",4507.1,4500.2,4507.1,4507.1,4500.2,4507.1,1,4507.1,0,0,NA,"Click To Continue","Continue Button",3,"object-60","Task Instructions",NA,"SUPPRF09191"
"3",1708978291336,"26/02/2024 20:11:31",1708960291336,-5,"26/02/2024 10:11:31",167771,4,"task-v7r7",NA,35526146,10495365,NA,"complete",NA,"65dced46926eb51a950e86da","computer","Desktop or Laptop","Windows 10","Chrome 122.0.0.0","1504x1003","1504x868",NA,NA,0,"Task Introduction and Instructions (re-introduce video and audio) (Clone)",3,"JAIBHCGDFE","Passed AC2","","Chocking_first","Spreadsheet1",1,"Task Instructions","Screen 2","ce2tc8",2,"continue","",5634.79999997616,5633.2,5634.79999997616,5634.79999997616,5633.2,5634.79999997616,1,5634.79999997616,0,0,NA,"Click To Continue","Continue Button",3,"object-59","Task Instructions",NA,"SUPPRF09191"
"4",1708978295320,"26/02/2024 20:11:35",1708960295320,-5,"26/02/2024 10:11:35",167771,4,"task-v7r7",NA,35526146,10495365,NA,"complete",NA,"65dced46926eb51a950e86da","computer","Desktop or Laptop","Windows 10","Chrome 122.0.0.0","1504x1003","1504x868",NA,NA,0,"Task Introduction and Instructions (re-introduce video and audio) (Clone)",3,"JAIBHCGDFE","Passed AC2","","Chocking_first","Spreadsheet1",1,"Task Instructions","Screen 3","1qtc8v",3,"continue","",3986.49999995232,3983.3,3986.49999995232,3986.49999995232,3983.3,3986.49999995232,1,3986.49999995232,0,0,NA,"Click To Continue","Continue Button",2,"object-2983","Task Instructions",NA,"SUPPRF09191"
"5",1708978303927,"26/02/2024 20:11:43",1708960303927,-5,"26/02/2024 10:11:43",167771,4,"task-v7r7",NA,35526146,10495365,NA,"complete",NA,"65dced46926eb51a950e86da","computer","Desktop or Laptop","Windows 10","Chrome 122.0.0.0","1504x1003","1504x868",NA,NA,0,"Task Introduction and Instructions (re-introduce video and audio) (Clone)",3,"JAIBHCGDFE","Passed AC2","","Chocking_first","Spreadsheet1",1,"Task Instructions","Screen 12","1a4vu2",4,"continue","",8609.49999996424,8599.9,8609.49999996424,8609.49999996424,8599.9,8609.49999996424,1,8609.49999996424,0,0,NA,"Click To Continue","Continue Button",2,"object-2466","Task Instructions",NA,"SUPPRF09191"
"6",1708978308953,"26/02/2024 20:11:48",1708960308953,-5,"26/02/2024 10:11:48",167771,4,"task-v7r7",NA,35526146,10495365,NA,"complete",NA,"65dced46926eb51a950e86da","computer","Desktop or Laptop","Windows 10","Chrome 122.0.0.0","1504x1003","1504x868",NA,NA,0,"Task Introduction and Instructions (re-introduce video and audio) (Clone)",3,"JAIBHCGDFE","Passed AC2","","Chocking_first","Spreadsheet1",1,"Task Instructions","Screen 13","q9vwda",5,"continue","",5036.09999996424,5033.3,5036.09999996424,5036.09999996424,5033.3,5036.09999996424,1,5036.09999996424,0,0,NA,"Click To Continue","Continue Button",2,"object-2989","Task Instructions",NA,"SUPPRF09191"
"7",1708978311574,"26/02/2024 20:11:51",1708960311574,-5,"26/02/2024 10:11:51",167771,4,"task-v7r7",NA,35526146,10495365,NA,"complete",NA,"65dced46926eb51a950e86da","computer","Desktop or Laptop","Windows 10","Chrome 122.0.0.0","1504x1003","1504x868",NA,NA,0,"Task Introduction and Instructions (re-introduce video and audio) (Clone)",3,"JAIBHCGDFE","Passed AC2","","Chocking_first","Spreadsheet1",1,"Task Instructions","Screen 11","oyulb7",6,"continue","",2623.79999996423,2616.6,2623.79999996423,2623.79999996423,2616.6,2623.79999996423,1,2623.79999996423,0,0,NA,"Click To Continue","Continue Button",2,"object-52","Task Instructions",NA,"SUPPRF09191"
"8",1708978314198,"26/02/2024 20:11:54",1708960314198,-5,"26/02/2024 10:11:54",167771,4,"task-v7r7",NA,35526146,10495365,NA,"complete",NA,"65dced46926eb51a950e86da","computer","Desktop or Laptop","Windows 10","Chrome 122.0.0.0","1504x1003","1504x868",NA,NA,0,"Task Introduction and Instructions (re-introduce video and audio) (Clone)",3,"JAIBHCGDFE","Passed AC2","","Chocking_first","Spreadsheet1",1,"Task Instructions","Screen 4","spepx9",7,"continue","",2631.6,2617,2631.6,2631.6,2617,2631.6,1,2631.6,0,0,NA,"Click To Continue","Continue Button",2,"object-9","Task Instructions",NA,"SUPPRF09191"
"9",1708978317673,"26/02/2024 20:11:57",1708960317673,-5,"26/02/2024 10:11:57",167771,4,"task-v7r7",NA,35526146,10495365,NA,"complete",NA,"65dced46926eb51a950e86da","computer","Desktop or Laptop","Windows 10","Chrome 122.0.0.0","1504x1003","1504x868",NA,NA,0,"Task Introduction and Instructions (re-introduce video and audio) (Clone)",3,"JAIBHCGDFE","Passed AC2","","Chocking_first","Spreadsheet1",1,"Task Instructions","Screen 5","8nvnao",8,"continue","",3489.49999997616,3483.2,3489.49999997616,3489.49999997616,3483.2,3489.49999997616,1,3489.49999997616,0,0,NA,"Click To Continue","Continue Button",2,"object-44","Task Instructions",NA,"SUPPRF09191"
"10",1708978317677,"26/02/2024 20:11:57",1708960317677,-5,"26/02/2024 10:11:57",167771,4,"task-v7r7",NA,35526146,10495365,NA,"complete",NA,"65dced46926eb51a950e86da","computer","Desktop or Laptop","Windows 10","Chrome 122.0.0.0","1504x1003","1504x868",NA,NA,0,"Task Introduction and Instructions (re-introduce video and audio) (Clone)",3,"JAIBHCGDFE","Passed AC2","","Chocking_first","Spreadsheet1",NA,"","","",NA,"5","END",NA,NA,NA,NA,NA,NA,0,NA,NA,NA,NA,"","",NA,"","",NA,"SUPPRF09191"
"1",1708978367141,"26/02/2024 20:12:47",1708978367141,0,"26/02/2024 20:12:47",167771,4,"task-v7r7",NA,35526179,10495375,NA,"complete",NA,"65dce39a39457860b3e43fc8","computer","Desktop or Laptop","Mac OS 10.15.7","Chrome 121.0.0.0","1710x1107","1710x948",NA,NA,0,"Task Introduction and Instructions (re-introduce video and audio) (Clone)",3,"ABJCIDHEGF","Passed AC2","","Chocking_first","Spreadsheet1",NA,"","","",NA,"5","BEGIN",NA,NA,NA,NA,NA,NA,0,NA,NA,NA,NA,"","",NA,"","",NA,"SUPPRF01454"
"2",1708978371744,"26/02/2024 20:12:51",1708978371744,0,"26/02/2024 20:12:51",167771,4,"task-v7r7",NA,35526179,10495375,NA,"complete",NA,"65dce39a39457860b3e43fc8","computer","Desktop or Laptop","Mac OS 10.15.7","Chrome 121.0.0.0","1710x1107","1710x948",NA,NA,0,"Task Introduction and Instructions (re-introduce video and audio) (Clone)",3,"ABJCIDHEGF","Passed AC2","","Chocking_first","Spreadsheet1",1,"Task Instructions","Screen 1","anr7sn",1,"continue","",4509.1,4500.2,4509.1,4509.1,4500.2,4509.1,1,4509.1,0,0,NA,"Click To Continue","Continue Button",3,"object-60","Task Instructions",NA,"SUPPRF01454"
"3",1708978380063,"26/02/2024 20:13:00",1708978380063,0,"26/02/2024 20:13:00",167771,4,"task-v7r7",NA,35526179,10495375,NA,"complete",NA,"65dce39a39457860b3e43fc8","computer","Desktop or Laptop","Mac OS 10.15.7","Chrome 121.0.0.0","1710x1107","1710x948",NA,NA,0,"Task Introduction and Instructions (re-introduce video and audio) (Clone)",3,"ABJCIDHEGF","Passed AC2","","Chocking_first","Spreadsheet1",1,"Task Instructions","Screen 2","ce2tc8",2,"continue","",8328.4,8316.7,8328.4,8328.4,8316.7,8328.4,1,8328.4,0,0,NA,"Click To Continue","Continue Button",3,"object-59","Task Instructions",NA,"SUPPRF01454"
"4",1708978388850,"26/02/2024 20:13:08",1708978388850,0,"26/02/2024 20:13:08",167771,4,"task-v7r7",NA,35526179,10495375,NA,"complete",NA,"65dce39a39457860b3e43fc8","computer","Desktop or Laptop","Mac OS 10.15.7","Chrome 121.0.0.0","1710x1107","1710x948",NA,NA,0,"Task Introduction and Instructions (re-introduce video and audio) (Clone)",3,"ABJCIDHEGF","Passed AC2","","Chocking_first","Spreadsheet1",1,"Task Instructions","Screen 3","1qtc8v",3,"continue","",8798.80000000009,8783.4,8798.80000000009,8798.80000000009,8783.4,8798.80000000009,1,8798.80000000009,0,0,NA,"Click To Continue","Continue Button",2,"object-2983","Task Instructions",NA,"SUPPRF01454"
"5",1708978392551,"26/02/2024 20:13:12",1708978392551,0,"26/02/2024 20:13:12",167771,4,"task-v7r7",NA,35526179,10495375,NA,"complete",NA,"65dce39a39457860b3e43fc8","computer","Desktop or Laptop","Mac OS 10.15.7","Chrome 121.0.0.0","1710x1107","1710x948",NA,NA,0,"Task Introduction and Instructions (re-introduce video and audio) (Clone)",3,"ABJCIDHEGF","Passed AC2","","Chocking_first","Spreadsheet1",1,"Task Instructions","Screen 12","1a4vu2",4,"continue","",3716.50000000019,3700.1,3716.50000000019,3716.50000000019,3700.1,3716.50000000019,1,3716.50000000019,0,0,NA,"Click To Continue","Continue Button",2,"object-2466","Task Instructions",NA,"SUPPRF01454"
"6",1708978397708,"26/02/2024 20:13:17",1708978397708,0,"26/02/2024 20:13:17",167771,4,"task-v7r7",NA,35526179,10495375,NA,"complete",NA,"65dce39a39457860b3e43fc8","computer","Desktop or Laptop","Mac OS 10.15.7","Chrome 121.0.0.0","1710x1107","1710x948",NA,NA,0,"Task Introduction and Instructions (re-introduce video and audio) (Clone)",3,"ABJCIDHEGF","Passed AC2","","Chocking_first","Spreadsheet1",1,"Task Instructions","Screen 13","q9vwda",5,"continue","",5174.30000000009,5166.7,5174.30000000009,5174.30000000009,5166.7,5174.30000000009,1,5174.30000000009,0,0,NA,"Click To Continue","Continue Button",2,"object-2989","Task Instructions",NA,"SUPPRF01454"
"7",1708978400700,"26/02/2024 20:13:20",1708978400700,0,"26/02/2024 20:13:20",167771,4,"task-v7r7",NA,35526179,10495375,NA,"complete",NA,"65dce39a39457860b3e43fc8","computer","Desktop or Laptop","Mac OS 10.15.7","Chrome 121.0.0.0","1710x1107","1710x948",NA,NA,0,"Task Introduction and Instructions (re-introduce video and audio) (Clone)",3,"ABJCIDHEGF","Passed AC2","","Chocking_first","Spreadsheet1",1,"Task Instructions","Screen 11","oyulb7",6,"continue","",2998.80000000028,2983.4,2998.80000000028,2998.80000000028,2983.4,2998.80000000028,1,2998.80000000028,0,0,NA,"Click To Continue","Continue Button",2,"object-52","Task Instructions",NA,"SUPPRF01454"
"8",1708978403685,"26/02/2024 20:13:23",1708978403685,0,"26/02/2024 20:13:23",167771,4,"task-v7r7",NA,35526179,10495375,NA,"complete",NA,"65dce39a39457860b3e43fc8","computer","Desktop or Laptop","Mac OS 10.15.7","Chrome 121.0.0.0","1710x1107","1710x948",NA,NA,0,"Task Introduction and Instructions (re-introduce video and audio) (Clone)",3,"ABJCIDHEGF","Passed AC2","","Chocking_first","Spreadsheet1",1,"Task Instructions","Screen 4","spepx9",7,"continue","",3001.00000000037,2999.5,3001.00000000037,3001.00000000037,2999.5,3001.00000000037,1,3001.00000000037,0,0,NA,"Click To Continue","Continue Button",2,"object-9","Task Instructions",NA,"SUPPRF01454"
"9",1708978406840,"26/02/2024 20:13:26",1708978406840,0,"26/02/2024 20:13:26",167771,4,"task-v7r7",NA,35526179,10495375,NA,"complete",NA,"65dce39a39457860b3e43fc8","computer","Desktop or Laptop","Mac OS 10.15.7","Chrome 121.0.0.0","1710x1107","1710x948",NA,NA,0,"Task Introduction and Instructions (re-introduce video and audio) (Clone)",3,"ABJCIDHEGF","Passed AC2","","Chocking_first","Spreadsheet1",1,"Task Instructions","Screen 5","8nvnao",8,"continue","",3155.90000000028,3150.6,3155.90000000028,3155.90000000028,3150.6,3155.90000000028,1,3155.90000000028,0,0,NA,"Click To Continue","Continue Button",2,"object-44","Task Instructions",NA,"SUPPRF01454"
"10",1708978406842,"26/02/2024 20:13:26",1708978406842,0,"26/02/2024 20:13:26",167771,4,"task-v7r7",NA,35526179,10495375,NA,"complete",NA,"65dce39a39457860b3e43fc8","computer","Desktop or Laptop","Mac OS 10.15.7","Chrome 121.0.0.0","1710x1107","1710x948",NA,NA,0,"Task Introduction and Instructions (re-introduce video and audio) (Clone)",3,"ABJCIDHEGF","Passed AC2","","Chocking_first","Spreadsheet1",NA,"","","",NA,"5","END",NA,NA,NA,NA,NA,NA,0,NA,NA,NA,NA,"","",NA,"","",NA,"SUPPRF01454"
"1",1708979230543,"26/02/2024 20:27:10",1708957630543,-6,"26/02/2024 08:27:10",167771,4,"task-v7r7",NA,35526669,10495518,NA,"complete",NA,"65dcf1725c4c8090ce3cb245","computer","Desktop or Laptop","Windows 10","Chrome 122.0.0.0","1536x864","1536x695",NA,NA,0,"Task Introduction and Instructions (re-introduce video and audio) (Clone)",3,"BCADJEIFHG","Passed AC2","","Chocking_second","Spreadsheet1",NA,"","","",NA,"5","BEGIN",NA,NA,NA,NA,NA,NA,0,NA,NA,NA,NA,"","",NA,"","",NA,"SUPPRF78484"
"2",1708979233821,"26/02/2024 20:27:13",1708957633821,-6,"26/02/2024 08:27:13",167771,4,"task-v7r7",NA,35526669,10495518,NA,"complete",NA,"65dcf1725c4c8090ce3cb245","computer","Desktop or Laptop","Windows 10","Chrome 122.0.0.0","1536x864","1536x695",NA,NA,0,"Task Introduction and Instructions (re-introduce video and audio) (Clone)",3,"BCADJEIFHG","Passed AC2","","Chocking_second","Spreadsheet1",1,"Task Instructions","Screen 1","anr7sn",1,"continue","",3187.7,3184.2,3187.7,3187.7,3184.2,3187.7,1,3187.7,0,0,NA,"Click To Continue","Continue Button",3,"object-60","Task Instructions",NA,"SUPPRF78484"
"3",1708979241640,"26/02/2024 20:27:21",1708957641640,-6,"26/02/2024 08:27:21",167771,4,"task-v7r7",NA,35526669,10495518,NA,"complete",NA,"65dcf1725c4c8090ce3cb245","computer","Desktop or Laptop","Windows 10","Chrome 122.0.0.0","1536x864","1536x695",NA,NA,0,"Task Introduction and Instructions (re-introduce video and audio) (Clone)",3,"BCADJEIFHG","Passed AC2","","Chocking_second","Spreadsheet1",1,"Task Instructions","Screen 2","ce2tc8",2,"continue","",7822.5,7818.3,7822.5,7822.5,7818.3,7822.5,1,7822.5,0,0,NA,"Click To Continue","Continue Button",3,"object-59","Task Instructions",NA,"SUPPRF78484"
"4",1708979246084,"26/02/2024 20:27:26",1708957646084,-6,"26/02/2024 08:27:26",167771,4,"task-v7r7",NA,35526669,10495518,NA,"complete",NA,"65dcf1725c4c8090ce3cb245","computer","Desktop or Laptop","Windows 10","Chrome 122.0.0.0","1536x864","1536x695",NA,NA,0,"Task Introduction and Instructions (re-introduce video and audio) (Clone)",3,"BCADJEIFHG","Passed AC2","","Chocking_second","Spreadsheet1",1,"Task Instructions","Screen 3","1qtc8v",3,"continue","",4448.59999997616,4447,4448.59999997616,4448.59999997616,4447,4448.59999997616,1,4448.59999997616,0,0,NA,"Click To Continue","Continue Button",2,"object-2983","Task Instructions",NA,"SUPPRF78484"
"5",1708979255455,"26/02/2024 20:27:35",1708957655455,-6,"26/02/2024 08:27:35",167771,4,"task-v7r7",NA,35526669,10495518,NA,"complete",NA,"65dcf1725c4c8090ce3cb245","computer","Desktop or Laptop","Windows 10","Chrome 122.0.0.0","1536x864","1536x695",NA,NA,0,"Task Introduction and Instructions (re-introduce video and audio) (Clone)",3,"BCADJEIFHG","Passed AC2","","Chocking_second","Spreadsheet1",1,"Task Instructions","Screen 12","1a4vu2",4,"continue","",9371.7,9364.9,9371.7,9371.7,9364.9,9371.7,1,9371.7,0,0,NA,"Click To Continue","Continue Button",2,"object-2466","Task Instructions",NA,"SUPPRF78484"
"6",1708979260666,"26/02/2024 20:27:40",1708957660666,-6,"26/02/2024 08:27:40",167771,4,"task-v7r7",NA,35526669,10495518,NA,"complete",NA,"65dcf1725c4c8090ce3cb245","computer","Desktop or Laptop","Windows 10","Chrome 122.0.0.0","1536x864","1536x695",NA,NA,0,"Task Introduction and Instructions (re-introduce video and audio) (Clone)",3,"BCADJEIFHG","Passed AC2","","Chocking_second","Spreadsheet1",1,"Task Instructions","Screen 13","q9vwda",5,"continue","",5218.3,5216.8,5218.3,5218.3,5216.8,5218.3,1,5218.3,0,0,NA,"Click To Continue","Continue Button",2,"object-2989","Task Instructions",NA,"SUPPRF78484"
"7",1708979269088,"26/02/2024 20:27:49",1708957669088,-6,"26/02/2024 08:27:49",167771,4,"task-v7r7",NA,35526669,10495518,NA,"complete",NA,"65dcf1725c4c8090ce3cb245","computer","Desktop or Laptop","Windows 10","Chrome 122.0.0.0","1536x864","1536x695",NA,NA,0,"Task Introduction and Instructions (re-introduce video and audio) (Clone)",3,"BCADJEIFHG","Passed AC2","","Chocking_second","Spreadsheet1",1,"Task Instructions","Screen 11","oyulb7",6,"continue","",8423.5,8421.9,8423.5,8423.5,8421.9,8423.5,1,8423.5,0,0,NA,"Click To Continue","Continue Button",2,"object-52","Task Instructions",NA,"SUPPRF78484"
"8",1708979272841,"26/02/2024 20:27:52",1708957672841,-6,"26/02/2024 08:27:52",167771,4,"task-v7r7",NA,35526669,10495518,NA,"complete",NA,"65dcf1725c4c8090ce3cb245","computer","Desktop or Laptop","Windows 10","Chrome 122.0.0.0","1536x864","1536x695",NA,NA,0,"Task Introduction and Instructions (re-introduce video and audio) (Clone)",3,"BCADJEIFHG","Passed AC2","","Chocking_second","Spreadsheet1",1,"Task Instructions","Screen 4","spepx9",7,"continue","",3754.6,3753.2,3754.6,3754.6,3753.2,3754.6,1,3754.6,0,0,NA,"Click To Continue","Continue Button",2,"object-9","Task Instructions",NA,"SUPPRF78484"
"9",1708979276209,"26/02/2024 20:27:56",1708957676209,-6,"26/02/2024 08:27:56",167771,4,"task-v7r7",NA,35526669,10495518,NA,"complete",NA,"65dcf1725c4c8090ce3cb245","computer","Desktop or Laptop","Windows 10","Chrome 122.0.0.0","1536x864","1536x695",NA,NA,0,"Task Introduction and Instructions (re-introduce video and audio) (Clone)",3,"BCADJEIFHG","Passed AC2","","Chocking_second","Spreadsheet1",1,"Task Instructions","Screen 5","8nvnao",8,"continue","",3368.9,3364.8,3368.9,3368.9,3364.8,3368.9,1,3368.9,0,0,NA,"Click To Continue","Continue Button",2,"object-44","Task Instructions",NA,"SUPPRF78484"
"10",1708979276210,"26/02/2024 20:27:56",1708957676210,-6,"26/02/2024 08:27:56",167771,4,"task-v7r7",NA,35526669,10495518,NA,"complete",NA,"65dcf1725c4c8090ce3cb245","computer","Desktop or Laptop","Windows 10","Chrome 122.0.0.0","1536x864","1536x695",NA,NA,0,"Task Introduction and Instructions (re-introduce video and audio) (Clone)",3,"BCADJEIFHG","Passed AC2","","Chocking_second","Spreadsheet1",NA,"","","",NA,"5","END",NA,NA,NA,NA,NA,NA,0,NA,NA,NA,NA,"","",NA,"","",NA,"SUPPRF78484"
"1",1708979618683,"26/02/2024 20:33:38",1708961618683,-5,"26/02/2024 10:33:38",167771,4,"task-v7r7",NA,35526889,10495617,NA,"complete",NA,"65dcf42ea8c82b9660fc4668","computer","Desktop or Laptop","Mac OS 10.15.7","Chrome 121.0.0.0","1440x900","1440x700",NA,NA,0,"Task Introduction and Instructions (re-introduce video and audio) (Clone)",3,"CDBEAFJGIH","Passed AC2","","Chocking_first","Spreadsheet1",NA,"","","",NA,"5","BEGIN",NA,NA,NA,NA,NA,NA,0,NA,NA,NA,NA,"","",NA,"","",NA,"SUPPRF59092"
"2",1708979622074,"26/02/2024 20:33:42",1708961622074,-5,"26/02/2024 10:33:42",167771,4,"task-v7r7",NA,35526889,10495617,NA,"complete",NA,"65dcf42ea8c82b9660fc4668","computer","Desktop or Laptop","Mac OS 10.15.7","Chrome 121.0.0.0","1440x900","1440x700",NA,NA,0,"Task Introduction and Instructions (re-introduce video and audio) (Clone)",3,"CDBEAFJGIH","Passed AC2","","Chocking_first","Spreadsheet1",1,"Task Instructions","Screen 1","anr7sn",1,"continue","",3004.5999997139,3000.1,3004.5999997139,3004.5999997139,3000.1,3004.5999997139,1,3004.5999997139,0,0,NA,"Click To Continue","Continue Button",3,"object-60","Task Instructions",NA,"SUPPRF59092"
"3",1708979624741,"26/02/2024 20:33:44",1708961624741,-5,"26/02/2024 10:33:44",167771,4,"task-v7r7",NA,35526889,10495617,NA,"complete",NA,"65dcf42ea8c82b9660fc4668","computer","Desktop or Laptop","Mac OS 10.15.7","Chrome 121.0.0.0","1440x900","1440x700",NA,NA,0,"Task Introduction and Instructions (re-introduce video and audio) (Clone)",3,"CDBEAFJGIH","Passed AC2","","Chocking_first","Spreadsheet1",1,"Task Instructions","Screen 2","ce2tc8",2,"continue","",2671.7,2666.3,2671.7,2671.7,2666.3,2671.7,1,2671.7,0,0,NA,"Click To Continue","Continue Button",3,"object-59","Task Instructions",NA,"SUPPRF59092"
"4",1708979627849,"26/02/2024 20:33:47",1708961627849,-5,"26/02/2024 10:33:47",167771,4,"task-v7r7",NA,35526889,10495617,NA,"complete",NA,"65dcf42ea8c82b9660fc4668","computer","Desktop or Laptop","Mac OS 10.15.7","Chrome 121.0.0.0","1440x900","1440x700",NA,NA,0,"Task Introduction and Instructions (re-introduce video and audio) (Clone)",3,"CDBEAFJGIH","Passed AC2","","Chocking_first","Spreadsheet1",1,"Task Instructions","Screen 3","1qtc8v",3,"continue","",3113.1999997139,3100.6,3113.1999997139,3113.1999997139,3100.6,3113.1999997139,1,3113.1999997139,0,0,NA,"Click To Continue","Continue Button",2,"object-2983","Task Instructions",NA,"SUPPRF59092"
"5",1708979630386,"26/02/2024 20:33:50",1708961630386,-5,"26/02/2024 10:33:50",167771,4,"task-v7r7",NA,35526889,10495617,NA,"complete",NA,"65dcf42ea8c82b9660fc4668","computer","Desktop or Laptop","Mac OS 10.15.7","Chrome 121.0.0.0","1440x900","1440x700",NA,NA,0,"Task Introduction and Instructions (re-introduce video and audio) (Clone)",3,"CDBEAFJGIH","Passed AC2","","Chocking_first","Spreadsheet1",1,"Task Instructions","Screen 12","1a4vu2",4,"continue","",2549.89999990463,2533.4,2549.89999990463,2549.89999990463,2533.4,2549.89999990463,1,2549.89999990463,0,0,NA,"Click To Continue","Continue Button",2,"object-2466","Task Instructions",NA,"SUPPRF59092"
"6",1708979634985,"26/02/2024 20:33:54",1708961634985,-5,"26/02/2024 10:33:54",167771,4,"task-v7r7",NA,35526889,10495617,NA,"complete",NA,"65dcf42ea8c82b9660fc4668","computer","Desktop or Laptop","Mac OS 10.15.7","Chrome 121.0.0.0","1440x900","1440x700",NA,NA,0,"Task Introduction and Instructions (re-introduce video and audio) (Clone)",3,"CDBEAFJGIH","Passed AC2","","Chocking_first","Spreadsheet1",1,"Task Instructions","Screen 13","q9vwda",5,"continue","",4615.6999997139,4600.1,4615.6999997139,4615.6999997139,4600.1,4615.6999997139,1,4615.6999997139,0,0,NA,"Click To Continue","Continue Button",2,"object-2989","Task Instructions",NA,"SUPPRF59092"
"7",1708979637523,"26/02/2024 20:33:57",1708961637523,-5,"26/02/2024 10:33:57",167771,4,"task-v7r7",NA,35526889,10495617,NA,"complete",NA,"65dcf42ea8c82b9660fc4668","computer","Desktop or Laptop","Mac OS 10.15.7","Chrome 121.0.0.0","1440x900","1440x700",NA,NA,0,"Task Introduction and Instructions (re-introduce video and audio) (Clone)",3,"CDBEAFJGIH","Passed AC2","","Chocking_first","Spreadsheet1",1,"Task Instructions","Screen 11","oyulb7",6,"continue","",2553.8,2550,2553.8,2553.8,2550,2553.8,1,2553.8,0,0,NA,"Click To Continue","Continue Button",2,"object-52","Task Instructions",NA,"SUPPRF59092"
"8",1708979641302,"26/02/2024 20:34:01",1708961641302,-5,"26/02/2024 10:34:01",167771,4,"task-v7r7",NA,35526889,10495617,NA,"complete",NA,"65dcf42ea8c82b9660fc4668","computer","Desktop or Laptop","Mac OS 10.15.7","Chrome 121.0.0.0","1440x900","1440x700",NA,NA,0,"Task Introduction and Instructions (re-introduce video and audio) (Clone)",3,"CDBEAFJGIH","Passed AC2","","Chocking_first","Spreadsheet1",1,"Task Instructions","Screen 4","spepx9",7,"continue","",3782.8,3766.5,3782.8,3782.8,3766.5,3782.8,1,3782.8,0,0,NA,"Click To Continue","Continue Button",2,"object-9","Task Instructions",NA,"SUPPRF59092"
"9",1708979644441,"26/02/2024 20:34:04",1708961644441,-5,"26/02/2024 10:34:04",167771,4,"task-v7r7",NA,35526889,10495617,NA,"complete",NA,"65dcf42ea8c82b9660fc4668","computer","Desktop or Laptop","Mac OS 10.15.7","Chrome 121.0.0.0","1440x900","1440x700",NA,NA,0,"Task Introduction and Instructions (re-introduce video and audio) (Clone)",3,"CDBEAFJGIH","Passed AC2","","Chocking_first","Spreadsheet1",1,"Task Instructions","Screen 5","8nvnao",8,"continue","",3154.8,3150.4,3154.8,3154.8,3150.4,3154.8,1,3154.8,0,0,NA,"Click To Continue","Continue Button",2,"object-44","Task Instructions",NA,"SUPPRF59092"
"10",1708979644444,"26/02/2024 20:34:04",1708961644444,-5,"26/02/2024 10:34:04",167771,4,"task-v7r7",NA,35526889,10495617,NA,"complete",NA,"65dcf42ea8c82b9660fc4668","computer","Desktop or Laptop","Mac OS 10.15.7","Chrome 121.0.0.0","1440x900","1440x700",NA,NA,0,"Task Introduction and Instructions (re-introduce video and audio) (Clone)",3,"CDBEAFJGIH","Passed AC2","","Chocking_first","Spreadsheet1",NA,"","","",NA,"5","END",NA,NA,NA,NA,NA,NA,0,NA,NA,NA,NA,"","",NA,"","",NA,"SUPPRF59092"
"1",1708980647393,"26/02/2024 20:50:47",1708962647393,-5,"26/02/2024 10:50:47",167771,4,"task-v7r7",NA,35527490,10495743,NA,"complete",NA,"65dcf76135721b0e6bbcce5f","computer","Desktop or Laptop","Windows 10","Chrome 120.0.0.0","1536x864","1536x730",NA,NA,0,"Task Introduction and Instructions (re-introduce video and audio) (Clone)",3,"DECFBGAHJI","Failed AC2","Passed AC1","Chocking_second","Spreadsheet1",NA,"","","",NA,"5","BEGIN",NA,NA,NA,NA,NA,NA,0,NA,NA,NA,NA,"","",NA,"","",NA,"SUPPRF05723"
"2",1708980652658,"26/02/2024 20:50:52",1708962652658,-5,"26/02/2024 10:50:52",167771,4,"task-v7r7",NA,35527490,10495743,NA,"complete",NA,"65dcf76135721b0e6bbcce5f","computer","Desktop or Laptop","Windows 10","Chrome 120.0.0.0","1536x864","1536x730",NA,NA,0,"Task Introduction and Instructions (re-introduce video and audio) (Clone)",3,"DECFBGAHJI","Failed AC2","Passed AC1","Chocking_second","Spreadsheet1",1,"Task Instructions","Screen 1","anr7sn",1,"continue","",5159.3,5152.7,5159.3,5159.3,5152.7,5159.3,1,5159.3,0,0,NA,"Click To Continue","Continue Button",3,"object-60","Task Instructions",NA,"SUPPRF05723"
"3",1708980660107,"26/02/2024 20:51:00",1708962660107,-5,"26/02/2024 10:51:00",167771,4,"task-v7r7",NA,35527490,10495743,NA,"complete",NA,"65dcf76135721b0e6bbcce5f","computer","Desktop or Laptop","Windows 10","Chrome 120.0.0.0","1536x864","1536x730",NA,NA,0,"Task Introduction and Instructions (re-introduce video and audio) (Clone)",3,"DECFBGAHJI","Failed AC2","Passed AC1","Chocking_second","Spreadsheet1",1,"Task Instructions","Screen 2","ce2tc8",2,"continue","",7463.69999980927,7458.4,7463.69999980927,7463.69999980927,7458.4,7463.69999980927,1,7463.69999980927,0,0,NA,"Click To Continue","Continue Button",3,"object-59","Task Instructions",NA,"SUPPRF05723"
"4",1708980667762,"26/02/2024 20:51:07",1708962667762,-5,"26/02/2024 10:51:07",167771,4,"task-v7r7",NA,35527490,10495743,NA,"complete",NA,"65dcf76135721b0e6bbcce5f","computer","Desktop or Laptop","Windows 10","Chrome 120.0.0.0","1536x864","1536x730",NA,NA,0,"Task Introduction and Instructions (re-introduce video and audio) (Clone)",3,"DECFBGAHJI","Failed AC2","Passed AC1","Chocking_second","Spreadsheet1",1,"Task Instructions","Screen 3","1qtc8v",3,"continue","",7659.8,7652.9,7659.8,7659.8,7652.9,7659.8,1,7659.8,0,0,NA,"Click To Continue","Continue Button",2,"object-2983","Task Instructions",NA,"SUPPRF05723"
"5",1708980675890,"26/02/2024 20:51:15",1708962675890,-5,"26/02/2024 10:51:15",167771,4,"task-v7r7",NA,35527490,10495743,NA,"complete",NA,"65dcf76135721b0e6bbcce5f","computer","Desktop or Laptop","Windows 10","Chrome 120.0.0.0","1536x864","1536x730",NA,NA,0,"Task Introduction and Instructions (re-introduce video and audio) (Clone)",3,"DECFBGAHJI","Failed AC2","Passed AC1","Chocking_second","Spreadsheet1",1,"Task Instructions","Screen 12","1a4vu2",4,"continue","",8135.60000009537,8131.9,8135.60000009537,8135.60000009537,8131.9,8135.60000009537,1,8135.60000009537,0,0,NA,"Click To Continue","Continue Button",2,"object-2466","Task Instructions",NA,"SUPPRF05723"
"6",1708980683946,"26/02/2024 20:51:23",1708962683946,-5,"26/02/2024 10:51:23",167771,4,"task-v7r7",NA,35527490,10495743,NA,"complete",NA,"65dcf76135721b0e6bbcce5f","computer","Desktop or Laptop","Windows 10","Chrome 120.0.0.0","1536x864","1536x730",NA,NA,0,"Task Introduction and Instructions (re-introduce video and audio) (Clone)",3,"DECFBGAHJI","Failed AC2","Passed AC1","Chocking_second","Spreadsheet1",1,"Task Instructions","Screen 13","q9vwda",5,"continue","",8060.20000009537,8055.7,8060.20000009537,8060.20000009537,8055.7,8060.20000009537,1,8060.20000009537,0,0,NA,"Click To Continue","Continue Button",2,"object-2989","Task Instructions",NA,"SUPPRF05723"
"7",1708980688058,"26/02/2024 20:51:28",1708962688058,-5,"26/02/2024 10:51:28",167771,4,"task-v7r7",NA,35527490,10495743,NA,"complete",NA,"65dcf76135721b0e6bbcce5f","computer","Desktop or Laptop","Windows 10","Chrome 120.0.0.0","1536x864","1536x730",NA,NA,0,"Task Introduction and Instructions (re-introduce video and audio) (Clone)",3,"DECFBGAHJI","Failed AC2","Passed AC1","Chocking_second","Spreadsheet1",1,"Task Instructions","Screen 11","oyulb7",6,"continue","",4116.6,4111.1,4116.6,4116.6,4111.1,4116.6,1,4116.6,0,0,NA,"Click To Continue","Continue Button",2,"object-52","Task Instructions",NA,"SUPPRF05723"
"8",1708980690567,"26/02/2024 20:51:30",1708962690567,-5,"26/02/2024 10:51:30",167771,4,"task-v7r7",NA,35527490,10495743,NA,"complete",NA,"65dcf76135721b0e6bbcce5f","computer","Desktop or Laptop","Windows 10","Chrome 120.0.0.0","1536x864","1536x730",NA,NA,0,"Task Introduction and Instructions (re-introduce video and audio) (Clone)",3,"DECFBGAHJI","Failed AC2","Passed AC1","Chocking_second","Spreadsheet1",1,"Task Instructions","Screen 4","spepx9",7,"continue","",2513.9,2506.9,2513.9,2513.9,2506.9,2513.9,1,2513.9,0,0,NA,"Click To Continue","Continue Button",2,"object-9","Task Instructions",NA,"SUPPRF05723"
"9",1708980693008,"26/02/2024 20:51:33",1708962693008,-5,"26/02/2024 10:51:33",167771,4,"task-v7r7",NA,35527490,10495743,NA,"complete",NA,"65dcf76135721b0e6bbcce5f","computer","Desktop or Laptop","Windows 10","Chrome 120.0.0.0","1536x864","1536x730",NA,NA,0,"Task Introduction and Instructions (re-introduce video and audio) (Clone)",3,"DECFBGAHJI","Failed AC2","Passed AC1","Chocking_second","Spreadsheet1",1,"Task Instructions","Screen 5","8nvnao",8,"continue","",2448.1,2444.5,2448.1,2448.1,2444.5,2448.1,1,2448.1,0,0,NA,"Click To Continue","Continue Button",2,"object-44","Task Instructions",NA,"SUPPRF05723"
"10",1708980693013,"26/02/2024 20:51:33",1708962693013,-5,"26/02/2024 10:51:33",167771,4,"task-v7r7",NA,35527490,10495743,NA,"complete",NA,"65dcf76135721b0e6bbcce5f","computer","Desktop or Laptop","Windows 10","Chrome 120.0.0.0","1536x864","1536x730",NA,NA,0,"Task Introduction and Instructions (re-introduce video and audio) (Clone)",3,"DECFBGAHJI","Failed AC2","Passed AC1","Chocking_second","Spreadsheet1",NA,"","","",NA,"5","END",NA,NA,NA,NA,NA,NA,0,NA,NA,NA,NA,"","",NA,"","",NA,"SUPPRF05723"
"1",1708981751550,"26/02/2024 21:09:11",1708981751550,0,"26/02/2024 21:09:11",167771,4,"task-v7r7",NA,35528141,10495919,NA,"complete",NA,"65dcfb58aef7f9381901d3c3","computer","Desktop or Laptop","Windows 10","Chrome 121.0.0.0","1280x960","1280x791",NA,NA,0,"Task Introduction and Instructions (re-introduce video and audio) (Clone)",3,"EFDGCHBIAJ","Passed AC2","","Chocking_first","Spreadsheet1",NA,"","","",NA,"5","BEGIN",NA,NA,NA,NA,NA,NA,0,NA,NA,NA,NA,"","",NA,"","",NA,"SUPPRF99214"
"2",1708981755685,"26/02/2024 21:09:15",1708981755685,0,"26/02/2024 21:09:15",167771,4,"task-v7r7",NA,35528141,10495919,NA,"complete",NA,"65dcfb58aef7f9381901d3c3","computer","Desktop or Laptop","Windows 10","Chrome 121.0.0.0","1280x960","1280x791",NA,NA,0,"Task Introduction and Instructions (re-introduce video and audio) (Clone)",3,"EFDGCHBIAJ","Passed AC2","","Chocking_first","Spreadsheet1",1,"Task Instructions","Screen 1","anr7sn",1,"continue","",3841.09999992847,3836,3841.09999992847,3841.09999992847,3836,3841.09999992847,1,3841.09999992847,0,0,NA,"Click To Continue","Continue Button",3,"object-60","Task Instructions",NA,"SUPPRF99214"
"3",1708981761970,"26/02/2024 21:09:21",1708981761970,0,"26/02/2024 21:09:21",167771,4,"task-v7r7",NA,35528141,10495919,NA,"complete",NA,"65dcfb58aef7f9381901d3c3","computer","Desktop or Laptop","Windows 10","Chrome 121.0.0.0","1280x960","1280x791",NA,NA,0,"Task Introduction and Instructions (re-introduce video and audio) (Clone)",3,"EFDGCHBIAJ","Passed AC2","","Chocking_first","Spreadsheet1",1,"Task Instructions","Screen 2","ce2tc8",2,"continue","",6290.69999995232,6287.6,6290.69999995232,6290.69999995232,6287.6,6290.69999995232,1,6290.69999995232,0,0,NA,"Click To Continue","Continue Button",3,"object-59","Task Instructions",NA,"SUPPRF99214"
"4",1708981766290,"26/02/2024 21:09:26",1708981766290,0,"26/02/2024 21:09:26",167771,4,"task-v7r7",NA,35528141,10495919,NA,"complete",NA,"65dcfb58aef7f9381901d3c3","computer","Desktop or Laptop","Windows 10","Chrome 121.0.0.0","1280x960","1280x791",NA,NA,0,"Task Introduction and Instructions (re-introduce video and audio) (Clone)",3,"EFDGCHBIAJ","Passed AC2","","Chocking_first","Spreadsheet1",1,"Task Instructions","Screen 3","1qtc8v",3,"continue","",4323.39999990463,4319.5,4323.39999990463,4323.39999990463,4319.5,4323.39999990463,1,4323.39999990463,0,0,NA,"Click To Continue","Continue Button",2,"object-2983","Task Instructions",NA,"SUPPRF99214"
"5",1708981770294,"26/02/2024 21:09:30",1708981770294,0,"26/02/2024 21:09:30",167771,4,"task-v7r7",NA,35528141,10495919,NA,"complete",NA,"65dcfb58aef7f9381901d3c3","computer","Desktop or Laptop","Windows 10","Chrome 121.0.0.0","1280x960","1280x791",NA,NA,0,"Task Introduction and Instructions (re-introduce video and audio) (Clone)",3,"EFDGCHBIAJ","Passed AC2","","Chocking_first","Spreadsheet1",1,"Task Instructions","Screen 12","1a4vu2",4,"continue","",4007.89999990463,4002.9,4007.89999990463,4007.89999990463,4002.9,4007.89999990463,1,4007.89999990463,0,0,NA,"Click To Continue","Continue Button",2,"object-2466","Task Instructions",NA,"SUPPRF99214"
"6",1708981775209,"26/02/2024 21:09:35",1708981775209,0,"26/02/2024 21:09:35",167771,4,"task-v7r7",NA,35528141,10495919,NA,"complete",NA,"65dcfb58aef7f9381901d3c3","computer","Desktop or Laptop","Windows 10","Chrome 121.0.0.0","1280x960","1280x791",NA,NA,0,"Task Introduction and Instructions (re-introduce video and audio) (Clone)",3,"EFDGCHBIAJ","Passed AC2","","Chocking_first","Spreadsheet1",1,"Task Instructions","Screen 13","q9vwda",5,"continue","",4920.09999992848,4903.7,4920.09999992848,4920.09999992848,4903.7,4920.09999992848,1,4920.09999992848,0,0,NA,"Click To Continue","Continue Button",2,"object-2989","Task Instructions",NA,"SUPPRF99214"
"7",1708981778103,"26/02/2024 21:09:38",1708981778103,0,"26/02/2024 21:09:38",167771,4,"task-v7r7",NA,35528141,10495919,NA,"complete",NA,"65dcfb58aef7f9381901d3c3","computer","Desktop or Laptop","Windows 10","Chrome 121.0.0.0","1280x960","1280x791",NA,NA,0,"Task Introduction and Instructions (re-introduce video and audio) (Clone)",3,"EFDGCHBIAJ","Passed AC2","","Chocking_first","Spreadsheet1",1,"Task Instructions","Screen 11","oyulb7",6,"continue","",2910.29999990463,2901.7,2910.29999990463,2910.29999990463,2901.7,2910.29999990463,1,2910.29999990463,0,0,NA,"Click To Continue","Continue Button",2,"object-52","Task Instructions",NA,"SUPPRF99214"
"8",1708981808730,"26/02/2024 21:10:08",1708981808730,0,"26/02/2024 21:10:08",167771,4,"task-v7r7",NA,35528141,10495919,NA,"complete",NA,"65dcfb58aef7f9381901d3c3","computer","Desktop or Laptop","Windows 10","Chrome 121.0.0.0","1280x960","1280x791",NA,NA,0,"Task Introduction and Instructions (re-introduce video and audio) (Clone)",3,"EFDGCHBIAJ","Passed AC2","","Chocking_first","Spreadsheet1",1,"Task Instructions","Screen 4","spepx9",7,"continue","",30636,30621.1,30636,30636,30621.1,30636,1,30636,0,0,NA,"Click To Continue","Continue Button",2,"object-9","Task Instructions",NA,"SUPPRF99214"
"9",1708981811672,"26/02/2024 21:10:11",1708981811672,0,"26/02/2024 21:10:11",167771,4,"task-v7r7",NA,35528141,10495919,NA,"complete",NA,"65dcfb58aef7f9381901d3c3","computer","Desktop or Laptop","Windows 10","Chrome 121.0.0.0","1280x960","1280x791",NA,NA,0,"Task Introduction and Instructions (re-introduce video and audio) (Clone)",3,"EFDGCHBIAJ","Passed AC2","","Chocking_first","Spreadsheet1",1,"Task Instructions","Screen 5","8nvnao",8,"continue","",2956.9,2951.9,2956.9,2956.9,2951.9,2956.9,1,2956.9,0,0,NA,"Click To Continue","Continue Button",2,"object-44","Task Instructions",NA,"SUPPRF99214"
"10",1708981811677,"26/02/2024 21:10:11",1708981811677,0,"26/02/2024 21:10:11",167771,4,"task-v7r7",NA,35528141,10495919,NA,"complete",NA,"65dcfb58aef7f9381901d3c3","computer","Desktop or Laptop","Windows 10","Chrome 121.0.0.0","1280x960","1280x791",NA,NA,0,"Task Introduction and Instructions (re-introduce video and audio) (Clone)",3,"EFDGCHBIAJ","Passed AC2","","Chocking_first","Spreadsheet1",NA,"","","",NA,"5","END",NA,NA,NA,NA,NA,NA,0,NA,NA,NA,NA,"","",NA,"","",NA,"SUPPRF99214"
"1",1708983832186,"26/02/2024 21:43:52",1708962232186,-6,"26/02/2024 09:43:52",167771,4,"task-v7r7",NA,35529256,10496251,NA,"complete",NA,"65dd02562d7bf320aeba16bb","computer","Desktop or Laptop","Windows 10","Chrome 122.0.0.0","1920x1080","1920x945",NA,NA,0,"Task Introduction and Instructions (re-introduce video and audio) (Clone)",3,"GHFIEJDACB","Passed AC2","","Chocking_second","Spreadsheet1",NA,"","","",NA,"5","BEGIN",NA,NA,NA,NA,NA,NA,0,NA,NA,NA,NA,"","",NA,"","",NA,"SUPPRF17025"
"2",1708983836822,"26/02/2024 21:43:56",1708962236822,-6,"26/02/2024 09:43:56",167771,4,"task-v7r7",NA,35529256,10496251,NA,"complete",NA,"65dd02562d7bf320aeba16bb","computer","Desktop or Laptop","Windows 10","Chrome 122.0.0.0","1920x1080","1920x945",NA,NA,0,"Task Introduction and Instructions (re-introduce video and audio) (Clone)",3,"GHFIEJDACB","Passed AC2","","Chocking_second","Spreadsheet1",1,"Task Instructions","Screen 1","anr7sn",1,"continue","",4117.8,4115.2,4117.8,4117.8,4115.2,4117.8,1,4117.8,0,0,NA,"Click To Continue","Continue Button",3,"object-60","Task Instructions",NA,"SUPPRF17025"
"3",1708983844383,"26/02/2024 21:44:04",1708962244383,-6,"26/02/2024 09:44:04",167771,4,"task-v7r7",NA,35529256,10496251,NA,"complete",NA,"65dd02562d7bf320aeba16bb","computer","Desktop or Laptop","Windows 10","Chrome 122.0.0.0","1920x1080","1920x945",NA,NA,0,"Task Introduction and Instructions (re-introduce video and audio) (Clone)",3,"GHFIEJDACB","Passed AC2","","Chocking_second","Spreadsheet1",1,"Task Instructions","Screen 2","ce2tc8",2,"continue","",7563.69999999404,7557.9,7563.69999999404,7563.69999999404,7557.9,7563.69999999404,1,7563.69999999404,0,0,NA,"Click To Continue","Continue Button",3,"object-59","Task Instructions",NA,"SUPPRF17025"
"4",1708983850747,"26/02/2024 21:44:10",1708962250747,-6,"26/02/2024 09:44:10",167771,4,"task-v7r7",NA,35529256,10496251,NA,"complete",NA,"65dd02562d7bf320aeba16bb","computer","Desktop or Laptop","Windows 10","Chrome 122.0.0.0","1920x1080","1920x945",NA,NA,0,"Task Introduction and Instructions (re-introduce video and audio) (Clone)",3,"GHFIEJDACB","Passed AC2","","Chocking_second","Spreadsheet1",1,"Task Instructions","Screen 3","1qtc8v",3,"continue","",6369.89999998808,6364,6369.89999998808,6369.89999998808,6364,6369.89999998808,1,6369.89999998808,0,0,NA,"Click To Continue","Continue Button",2,"object-2983","Task Instructions",NA,"SUPPRF17025"
"5",1708983857078,"26/02/2024 21:44:17",1708962257078,-6,"26/02/2024 09:44:17",167771,4,"task-v7r7",NA,35529256,10496251,NA,"complete",NA,"65dd02562d7bf320aeba16bb","computer","Desktop or Laptop","Windows 10","Chrome 122.0.0.0","1920x1080","1920x945",NA,NA,0,"Task Introduction and Instructions (re-introduce video and audio) (Clone)",3,"GHFIEJDACB","Passed AC2","","Chocking_second","Spreadsheet1",1,"Task Instructions","Screen 12","1a4vu2",4,"continue","",6337.00000001192,6333.6,6337.00000001192,6337.00000001192,6333.6,6337.00000001192,1,6337.00000001192,0,0,NA,"Click To Continue","Continue Button",2,"object-2466","Task Instructions",NA,"SUPPRF17025"
"6",1708983872291,"26/02/2024 21:44:32",1708962272291,-6,"26/02/2024 09:44:32",167771,4,"task-v7r7",NA,35529256,10496251,NA,"complete",NA,"65dd02562d7bf320aeba16bb","computer","Desktop or Laptop","Windows 10","Chrome 122.0.0.0","1920x1080","1920x945",NA,NA,0,"Task Introduction and Instructions (re-introduce video and audio) (Clone)",3,"GHFIEJDACB","Passed AC2","","Chocking_second","Spreadsheet1",1,"Task Instructions","Screen 13","q9vwda",5,"continue","",15216.699999994,15212.8,15216.699999994,15216.699999994,15212.8,15216.699999994,1,15216.699999994,0,0,NA,"Click To Continue","Continue Button",2,"object-2989","Task Instructions",NA,"SUPPRF17025"
"7",1708983875001,"26/02/2024 21:44:35",1708962275001,-6,"26/02/2024 09:44:35",167771,4,"task-v7r7",NA,35529256,10496251,NA,"complete",NA,"65dd02562d7bf320aeba16bb","computer","Desktop or Laptop","Windows 10","Chrome 122.0.0.0","1920x1080","1920x945",NA,NA,0,"Task Introduction and Instructions (re-introduce video and audio) (Clone)",3,"GHFIEJDACB","Passed AC2","","Chocking_second","Spreadsheet1",1,"Task Instructions","Screen 11","oyulb7",6,"continue","",2713.8,2709.2,2713.8,2713.8,2709.2,2713.8,1,2713.8,0,0,NA,"Click To Continue","Continue Button",2,"object-52","Task Instructions",NA,"SUPPRF17025"
"8",1708983879266,"26/02/2024 21:44:39",1708962279266,-6,"26/02/2024 09:44:39",167771,4,"task-v7r7",NA,35529256,10496251,NA,"complete",NA,"65dd02562d7bf320aeba16bb","computer","Desktop or Laptop","Windows 10","Chrome 122.0.0.0","1920x1080","1920x945",NA,NA,0,"Task Introduction and Instructions (re-introduce video and audio) (Clone)",3,"GHFIEJDACB","Passed AC2","","Chocking_second","Spreadsheet1",1,"Task Instructions","Screen 4","spepx9",7,"continue","",4269.50000000596,4266.8,4269.50000000596,4269.50000000596,4266.8,4269.50000000596,1,4269.50000000596,0,0,NA,"Click To Continue","Continue Button",2,"object-9","Task Instructions",NA,"SUPPRF17025"
"9",1708983882106,"26/02/2024 21:44:42",1708962282106,-6,"26/02/2024 09:44:42",167771,4,"task-v7r7",NA,35529256,10496251,NA,"complete",NA,"65dd02562d7bf320aeba16bb","computer","Desktop or Laptop","Windows 10","Chrome 122.0.0.0","1920x1080","1920x945",NA,NA,0,"Task Introduction and Instructions (re-introduce video and audio) (Clone)",3,"GHFIEJDACB","Passed AC2","","Chocking_second","Spreadsheet1",1,"Task Instructions","Screen 5","8nvnao",8,"continue","",2842.6,2836.5,2842.6,2842.6,2836.5,2842.6,1,2842.6,0,0,NA,"Click To Continue","Continue Button",2,"object-44","Task Instructions",NA,"SUPPRF17025"
"10",1708983882107,"26/02/2024 21:44:42",1708962282107,-6,"26/02/2024 09:44:42",167771,4,"task-v7r7",NA,35529256,10496251,NA,"complete",NA,"65dd02562d7bf320aeba16bb","computer","Desktop or Laptop","Windows 10","Chrome 122.0.0.0","1920x1080","1920x945",NA,NA,0,"Task Introduction and Instructions (re-introduce video and audio) (Clone)",3,"GHFIEJDACB","Passed AC2","","Chocking_second","Spreadsheet1",NA,"","","",NA,"5","END",NA,NA,NA,NA,NA,NA,0,NA,NA,NA,NA,"","",NA,"","",NA,"SUPPRF17025"
"1",1708984150611,"26/02/2024 21:49:10",1708955350611,-8,"26/02/2024 05:49:10",167771,4,"task-v7r7",NA,35529423,10496308,NA,"complete",NA,"65dd051932ebb761548f9e6d","computer","Desktop or Laptop","Windows 10","Chrome 122.0.0.0","1280x800","1280x665",NA,NA,0,"Task Introduction and Instructions (re-introduce video and audio) (Clone)",3,"HIGJFAEBDC","Passed AC2","","Chocking_second","Spreadsheet1",NA,"","","",NA,"5","BEGIN",NA,NA,NA,NA,NA,NA,0,NA,NA,NA,NA,"","",NA,"","",NA,"SUPPRF43564"
"2",1708984154039,"26/02/2024 21:49:14",1708955354039,-8,"26/02/2024 05:49:14",167771,4,"task-v7r7",NA,35529423,10496308,NA,"complete",NA,"65dd051932ebb761548f9e6d","computer","Desktop or Laptop","Windows 10","Chrome 122.0.0.0","1280x800","1280x665",NA,NA,0,"Task Introduction and Instructions (re-introduce video and audio) (Clone)",3,"HIGJFAEBDC","Passed AC2","","Chocking_second","Spreadsheet1",1,"Task Instructions","Screen 1","anr7sn",1,"continue","",2741.9,2733.1,2741.9,2741.9,2733.1,2741.9,1,2741.9,0,0,NA,"Click To Continue","Continue Button",3,"object-60","Task Instructions",NA,"SUPPRF43564"
"3",1708984157430,"26/02/2024 21:49:17",1708955357430,-8,"26/02/2024 05:49:17",167771,4,"task-v7r7",NA,35529423,10496308,NA,"complete",NA,"65dd051932ebb761548f9e6d","computer","Desktop or Laptop","Windows 10","Chrome 122.0.0.0","1280x800","1280x665",NA,NA,0,"Task Introduction and Instructions (re-introduce video and audio) (Clone)",3,"HIGJFAEBDC","Passed AC2","","Chocking_second","Spreadsheet1",1,"Task Instructions","Screen 2","ce2tc8",2,"continue","",3399.3,3383.1,3399.3,3399.3,3383.1,3399.3,1,3399.3,0,0,NA,"Click To Continue","Continue Button",3,"object-59","Task Instructions",NA,"SUPPRF43564"
"4",1708984161744,"26/02/2024 21:49:21",1708955361744,-8,"26/02/2024 05:49:21",167771,4,"task-v7r7",NA,35529423,10496308,NA,"complete",NA,"65dd051932ebb761548f9e6d","computer","Desktop or Laptop","Windows 10","Chrome 122.0.0.0","1280x800","1280x665",NA,NA,0,"Task Introduction and Instructions (re-introduce video and audio) (Clone)",3,"HIGJFAEBDC","Passed AC2","","Chocking_second","Spreadsheet1",1,"Task Instructions","Screen 3","1qtc8v",3,"continue","",4331.09999997616,4317.1,4331.09999997616,4331.09999997616,4317.1,4331.09999997616,1,4331.09999997616,0,0,NA,"Click To Continue","Continue Button",2,"object-2983","Task Instructions",NA,"SUPPRF43564"
"5",1708984166411,"26/02/2024 21:49:26",1708955366411,-8,"26/02/2024 05:49:26",167771,4,"task-v7r7",NA,35529423,10496308,NA,"complete",NA,"65dd051932ebb761548f9e6d","computer","Desktop or Laptop","Windows 10","Chrome 122.0.0.0","1280x800","1280x665",NA,NA,0,"Task Introduction and Instructions (re-introduce video and audio) (Clone)",3,"HIGJFAEBDC","Passed AC2","","Chocking_second","Spreadsheet1",1,"Task Instructions","Screen 12","1a4vu2",4,"continue","",4681.20000002384,4666.2,4681.20000002384,4681.20000002384,4666.2,4681.20000002384,1,4681.20000002384,0,0,NA,"Click To Continue","Continue Button",2,"object-2466","Task Instructions",NA,"SUPPRF43564"
"6",1708984171160,"26/02/2024 21:49:31",1708955371160,-8,"26/02/2024 05:49:31",167771,4,"task-v7r7",NA,35529423,10496308,NA,"complete",NA,"65dd051932ebb761548f9e6d","computer","Desktop or Laptop","Windows 10","Chrome 122.0.0.0","1280x800","1280x665",NA,NA,0,"Task Introduction and Instructions (re-introduce video and audio) (Clone)",3,"HIGJFAEBDC","Passed AC2","","Chocking_second","Spreadsheet1",1,"Task Instructions","Screen 13","q9vwda",5,"continue","",4763.29999997616,4750.5,4763.29999997616,4763.29999997616,4750.5,4763.29999997616,1,4763.29999997616,0,0,NA,"Click To Continue","Continue Button",2,"object-2989","Task Instructions",NA,"SUPPRF43564"
"7",1708984173980,"26/02/2024 21:49:33",1708955373980,-8,"26/02/2024 05:49:33",167771,4,"task-v7r7",NA,35529423,10496308,NA,"complete",NA,"65dd051932ebb761548f9e6d","computer","Desktop or Laptop","Windows 10","Chrome 122.0.0.0","1280x800","1280x665",NA,NA,0,"Task Introduction and Instructions (re-introduce video and audio) (Clone)",3,"HIGJFAEBDC","Passed AC2","","Chocking_second","Spreadsheet1",1,"Task Instructions","Screen 11","oyulb7",6,"continue","",2832.1,2816,2832.1,2832.1,2816,2832.1,1,2832.1,0,0,NA,"Click To Continue","Continue Button",2,"object-52","Task Instructions",NA,"SUPPRF43564"
"8",1708984176740,"26/02/2024 21:49:36",1708955376740,-8,"26/02/2024 05:49:36",167771,4,"task-v7r7",NA,35529423,10496308,NA,"complete",NA,"65dd051932ebb761548f9e6d","computer","Desktop or Laptop","Windows 10","Chrome 122.0.0.0","1280x800","1280x665",NA,NA,0,"Task Introduction and Instructions (re-introduce video and audio) (Clone)",3,"HIGJFAEBDC","Passed AC2","","Chocking_second","Spreadsheet1",1,"Task Instructions","Screen 4","spepx9",7,"continue","",2776.79999997616,2766.7,2776.79999997616,2776.79999997616,2766.7,2776.79999997616,1,2776.79999997616,0,0,NA,"Click To Continue","Continue Button",2,"object-9","Task Instructions",NA,"SUPPRF43564"
"9",1708984179194,"26/02/2024 21:49:39",1708955379194,-8,"26/02/2024 05:49:39",167771,4,"task-v7r7",NA,35529423,10496308,NA,"complete",NA,"65dd051932ebb761548f9e6d","computer","Desktop or Laptop","Windows 10","Chrome 122.0.0.0","1280x800","1280x665",NA,NA,0,"Task Introduction and Instructions (re-introduce video and audio) (Clone)",3,"HIGJFAEBDC","Passed AC2","","Chocking_second","Spreadsheet1",1,"Task Instructions","Screen 5","8nvnao",8,"continue","",2463.99999995232,2450.5,2463.99999995232,2463.99999995232,2450.5,2463.99999995232,1,2463.99999995232,0,0,NA,"Click To Continue","Continue Button",2,"object-44","Task Instructions",NA,"SUPPRF43564"
"10",1708984179195,"26/02/2024 21:49:39",1708955379195,-8,"26/02/2024 05:49:39",167771,4,"task-v7r7",NA,35529423,10496308,NA,"complete",NA,"65dd051932ebb761548f9e6d","computer","Desktop or Laptop","Windows 10","Chrome 122.0.0.0","1280x800","1280x665",NA,NA,0,"Task Introduction and Instructions (re-introduce video and audio) (Clone)",3,"HIGJFAEBDC","Passed AC2","","Chocking_second","Spreadsheet1",NA,"","","",NA,"5","END",NA,NA,NA,NA,NA,NA,0,NA,NA,NA,NA,"","",NA,"","",NA,"SUPPRF43564"
"1",1708984948199,"26/02/2024 22:02:28",1708984948199,0,"26/02/2024 22:02:28",167771,4,"task-v7r7",NA,35529939,10496373,NA,"complete",NA,"65dd072b8ea0c743b5880b74","computer","Desktop or Laptop","Windows 10","Chrome 122.0.0.0","1536x864","1229x594",NA,NA,0,"Task Introduction and Instructions (re-introduce video and audio) (Clone)",3,"IJHAGBFCED","Passed AC2","","Chocking_first","Spreadsheet1",NA,"","","",NA,"5","BEGIN",NA,NA,NA,NA,NA,NA,0,NA,NA,NA,NA,"","",NA,"","",NA,"SUPPRF73359"
"2",1708984952917,"26/02/2024 22:02:32",1708984952917,0,"26/02/2024 22:02:32",167771,4,"task-v7r7",NA,35529939,10496373,NA,"complete",NA,"65dd072b8ea0c743b5880b74","computer","Desktop or Laptop","Windows 10","Chrome 122.0.0.0","1536x864","1229x594",NA,NA,0,"Task Introduction and Instructions (re-introduce video and audio) (Clone)",3,"IJHAGBFCED","Passed AC2","","Chocking_first","Spreadsheet1",1,"Task Instructions","Screen 1","anr7sn",1,"continue","",4648.00000001192,4633.6,4648.00000001192,4648.00000001192,4633.6,4648.00000001192,1,4648.00000001192,0,0,NA,"Click To Continue","Continue Button",3,"object-60","Task Instructions",NA,"SUPPRF73359"
