"Event.Index","UTC.Timestamp","UTC.Date.and.Time","Local.Timestamp","Local.Timezone","Local.Date.and.Time","Experiment.ID","Experiment.Version","Tree.Node.Key","Repeat.Key","Schedule.ID","Participant.Private.ID","Participant.Starting.Group","Participant.Status","Participant.Completion.Code","Participant.External.Session.ID","Participant.Device.Type","Participant.Device","Participant.OS","Participant.Browser","Participant.Monitor.Size","Participant.Viewport.Size","Checkpoint","Room.ID","Room.Order","Task.Name","Task.Version","order.ot79","branch.g31k","branch.5gtn","counterbalance.vu6m","Spreadsheet","Trial.Number","Display","Screen","Screen.ID","Screen.Counter","Response.Type","Response","Onset.Time","Clock.Time","Reaction.Time","Absolute.Onset.Time","Absolute.Clock.Time","Absolute.Reaction.Time","Correct","Response.Onset","Response.Duration","Proportion","Tag","Component.Name","Object.Name","Object.Number","Object.ID","Spreadsheet..display","Manipulation..Spreadsheet","Random_ID"
"1",1708971326901,"26/02/2024 18:15:26",1708971326901,0,"26/02/2024 18:15:26",167771,4,"task-gjqt",NA,35522523,10494310,NA,"complete",NA,"65dcd2fef102ce9273e60afb","computer","Desktop or Laptop","Windows 10","Chrome 121.0.0.0","1536x864","1536x730",NA,NA,0,"BIQ (Charlotte)",3,"ABJCIDHEGF","Passed AC2","","Chocking_second","Spreadsheet1",NA,"","","",NA,"5","BEGIN",NA,NA,NA,NA,NA,NA,0,NA,NA,NA,NA,"","",NA,"","",NA,"SUPPRF94580"
"2",1708971342084,"26/02/2024 18:15:42",1708971342084,0,"26/02/2024 18:15:42",167771,4,"task-gjqt",NA,35522523,10494310,NA,"complete",NA,"65dcd2fef102ce9273e60afb","computer","Desktop or Laptop","Windows 10","Chrome 121.0.0.0","1536x864","1536x730",NA,NA,0,"BIQ (Charlotte)",3,"ABJCIDHEGF","Passed AC2","","Chocking_second","Spreadsheet1",1,"BIQ","Screen 1","9dh6eq",1,"continue","",15207.4000000238,15200.2,15207.4000000238,15207.4000000238,15200.2,15207.4000000238,1,15207.4000000238,0,0,NA,"Click To Continue","Continue Button",23,"object-48","BIQ",NA,"SUPPRF94580"
"3",1708971342086,"26/02/2024 18:15:42",1708971342086,0,"26/02/2024 18:15:42",167771,4,"task-gjqt",NA,35522523,10494310,NA,"complete",NA,"65dcd2fef102ce9273e60afb","computer","Desktop or Laptop","Windows 10","Chrome 121.0.0.0","1536x864","1536x730",NA,NA,0,"BIQ (Charlotte)",3,"ABJCIDHEGF","Passed AC2","","Chocking_second","Spreadsheet1",1,"BIQ","Screen 1","9dh6eq",1,"response","0",3916.8,15200.2,15210.3,3916.8,15200.2,15210.3,1,3916.8,11293.5,0,NA,"Rating Scale","Rating Scale",3,"object-5","BIQ",NA,"SUPPRF94580"
"4",1708971342087,"26/02/2024 18:15:42",1708971342087,0,"26/02/2024 18:15:42",167771,4,"task-gjqt",NA,35522523,10494310,NA,"complete",NA,"65dcd2fef102ce9273e60afb","computer","Desktop or Laptop","Windows 10","Chrome 121.0.0.0","1536x864","1536x730",NA,NA,0,"BIQ (Charlotte)",3,"ABJCIDHEGF","Passed AC2","","Chocking_second","Spreadsheet1",1,"BIQ","Screen 1","9dh6eq",1,"response","0",8483.5,15200.2,15210.9000000238,8483.5,15200.2,15210.9000000238,1,8483.5,6727.40000002384,0,NA,"Rating Scale","Rating Scale",10,"object-18","BIQ",NA,"SUPPRF94580"
"5",1708971342087,"26/02/2024 18:15:42",1708971342087,0,"26/02/2024 18:15:42",167771,4,"task-gjqt",NA,35522523,10494310,NA,"complete",NA,"65dcd2fef102ce9273e60afb","computer","Desktop or Laptop","Windows 10","Chrome 121.0.0.0","1536x864","1536x730",NA,NA,0,"BIQ (Charlotte)",3,"ABJCIDHEGF","Passed AC2","","Chocking_second","Spreadsheet1",1,"BIQ","Screen 1","9dh6eq",1,"response","8",14534,15200.2,15211.3,14534,15200.2,15211.3,1,14534,677.299999999999,0,NA,"Rating Scale","Rating Scale",17,"object-80","BIQ",NA,"SUPPRF94580"
"6",1708971359742,"26/02/2024 18:15:59",1708971359742,0,"26/02/2024 18:15:59",167771,4,"task-gjqt",NA,35522523,10494310,NA,"complete",NA,"65dcd2fef102ce9273e60afb","computer","Desktop or Laptop","Windows 10","Chrome 121.0.0.0","1536x864","1536x730",NA,NA,0,"BIQ (Charlotte)",3,"ABJCIDHEGF","Passed AC2","","Chocking_second","Spreadsheet1",1,"BIQ","Screen 2","o21mwi",2,"continue","",17666.1,17650.3,17666.1,17666.1,17650.3,17666.1,1,17666.1,0,0,NA,"Click To Continue","Continue Button",22,"object-50","BIQ",NA,"SUPPRF94580"
"7",1708971359746,"26/02/2024 18:15:59",1708971359746,0,"26/02/2024 18:15:59",167771,4,"task-gjqt",NA,35522523,10494310,NA,"complete",NA,"65dcd2fef102ce9273e60afb","computer","Desktop or Laptop","Windows 10","Chrome 121.0.0.0","1536x864","1536x730",NA,NA,0,"BIQ (Charlotte)",3,"ABJCIDHEGF","Passed AC2","","Chocking_second","Spreadsheet1",1,"BIQ","Screen 2","o21mwi",2,"response","2",5316.8,17650.3,17667,5316.8,17650.3,17667,1,5316.8,12350.2,0,NA,"Rating Scale","Rating Scale",2,"object-259","BIQ",NA,"SUPPRF94580"
"8",1708971359746,"26/02/2024 18:15:59",1708971359746,0,"26/02/2024 18:15:59",167771,4,"task-gjqt",NA,35522523,10494310,NA,"complete",NA,"65dcd2fef102ce9273e60afb","computer","Desktop or Laptop","Windows 10","Chrome 121.0.0.0","1536x864","1536x730",NA,NA,0,"BIQ (Charlotte)",3,"ABJCIDHEGF","Passed AC2","","Chocking_second","Spreadsheet1",1,"BIQ","Screen 2","o21mwi",2,"response","8",8300.4,17650.3,17667,8300.4,17650.3,17667,1,8300.4,9366.59999999999,0,NA,"Rating Scale","Rating Scale",9,"object-36","BIQ",NA,"SUPPRF94580"
"9",1708971359746,"26/02/2024 18:15:59",1708971359746,0,"26/02/2024 18:15:59",167771,4,"task-gjqt",NA,35522523,10494310,NA,"complete",NA,"65dcd2fef102ce9273e60afb","computer","Desktop or Laptop","Windows 10","Chrome 121.0.0.0","1536x864","1536x730",NA,NA,0,"BIQ (Charlotte)",3,"ABJCIDHEGF","Passed AC2","","Chocking_second","Spreadsheet1",1,"BIQ","Screen 2","o21mwi",2,"response","5",13600.3,17650.3,17667,13600.3,17650.3,17667,1,13600.3,4066.69999999999,0,NA,"Rating Scale","Rating Scale",16,"object-86","BIQ",NA,"SUPPRF94580"
"10",1708971374517,"26/02/2024 18:16:14",1708971374517,0,"26/02/2024 18:16:14",167771,4,"task-gjqt",NA,35522523,10494310,NA,"complete",NA,"65dcd2fef102ce9273e60afb","computer","Desktop or Laptop","Windows 10","Chrome 121.0.0.0","1536x864","1536x730",NA,NA,0,"BIQ (Charlotte)",3,"ABJCIDHEGF","Passed AC2","","Chocking_second","Spreadsheet1",1,"BIQ","Screen 3","iz3the",3,"continue","",14791.4000000238,14783.5,14791.4000000238,14791.4000000238,14783.5,14791.4000000238,1,14791.4000000238,0,0,NA,"Click To Continue","Continue Button",22,"object-73","BIQ",NA,"SUPPRF94580"
"11",1708971374521,"26/02/2024 18:16:14",1708971374521,0,"26/02/2024 18:16:14",167771,4,"task-gjqt",NA,35522523,10494310,NA,"complete",NA,"65dcd2fef102ce9273e60afb","computer","Desktop or Laptop","Windows 10","Chrome 121.0.0.0","1536x864","1536x730",NA,NA,0,"BIQ (Charlotte)",3,"ABJCIDHEGF","Passed AC2","","Chocking_second","Spreadsheet1",1,"BIQ","Screen 3","iz3the",3,"response","4",4850,14783.5,14795.1000000119,4850,14783.5,14795.1000000119,1,4850,9945.10000001192,0,NA,"Rating Scale","Rating Scale",2,"object-53","BIQ",NA,"SUPPRF94580"
"12",1708971374522,"26/02/2024 18:16:14",1708971374522,0,"26/02/2024 18:16:14",167771,4,"task-gjqt",NA,35522523,10494310,NA,"complete",NA,"65dcd2fef102ce9273e60afb","computer","Desktop or Laptop","Windows 10","Chrome 121.0.0.0","1536x864","1536x730",NA,NA,0,"BIQ (Charlotte)",3,"ABJCIDHEGF","Passed AC2","","Chocking_second","Spreadsheet1",1,"BIQ","Screen 3","iz3the",3,"response","5",10616.9,14783.5,14795.9000000238,10616.9,14783.5,14795.9000000238,1,10616.9,4179.00000002384,0,NA,"Rating Scale","Rating Scale",9,"object-60","BIQ",NA,"SUPPRF94580"
"13",1708971374523,"26/02/2024 18:16:14",1708971374523,0,"26/02/2024 18:16:14",167771,4,"task-gjqt",NA,35522523,10494310,NA,"complete",NA,"65dcd2fef102ce9273e60afb","computer","Desktop or Laptop","Windows 10","Chrome 121.0.0.0","1536x864","1536x730",NA,NA,0,"BIQ (Charlotte)",3,"ABJCIDHEGF","Passed AC2","","Chocking_second","Spreadsheet1",1,"BIQ","Screen 3","iz3the",3,"response","8",14133.7,14783.5,14796.6000000119,14133.7,14783.5,14796.6000000119,1,14133.7,662.900000011919,0,NA,"Rating Scale","Rating Scale",16,"object-67","BIQ",NA,"SUPPRF94580"
"14",1708971374528,"26/02/2024 18:16:14",1708971374528,0,"26/02/2024 18:16:14",167771,4,"task-gjqt",NA,35522523,10494310,NA,"complete",NA,"65dcd2fef102ce9273e60afb","computer","Desktop or Laptop","Windows 10","Chrome 121.0.0.0","1536x864","1536x730",NA,NA,0,"BIQ (Charlotte)",3,"ABJCIDHEGF","Passed AC2","","Chocking_second","Spreadsheet1",NA,"","","",NA,"5","END",NA,NA,NA,NA,NA,NA,0,NA,NA,NA,NA,"","",NA,"","",NA,"SUPPRF94580"
"1",1708971289917,"26/02/2024 18:14:49",1708971289917,0,"26/02/2024 18:14:49",167771,4,"task-gjqt",NA,35522501,10494334,NA,"complete",NA,"65dcd343038df1ca26649274","computer","Desktop or Laptop","Windows 10","Chrome 120.0.0.0","1536x864","1536x730",NA,NA,0,"BIQ (Charlotte)",3,"BCADJEIFHG","Passed AC2","","Chocking_first","Spreadsheet1",NA,"","","",NA,"5","BEGIN",NA,NA,NA,NA,NA,NA,0,NA,NA,NA,NA,"","",NA,"","",NA,"SUPPRF91296"
"2",1708971319948,"26/02/2024 18:15:19",1708971319948,0,"26/02/2024 18:15:19",167771,4,"task-gjqt",NA,35522501,10494334,NA,"complete",NA,"65dcd343038df1ca26649274","computer","Desktop or Laptop","Windows 10","Chrome 120.0.0.0","1536x864","1536x730",NA,NA,0,"BIQ (Charlotte)",3,"BCADJEIFHG","Passed AC2","","Chocking_first","Spreadsheet1",1,"BIQ","Screen 1","9dh6eq",1,"continue","",30042.2999992371,30030.7,30042.2999992371,30042.2999992371,30030.7,30042.2999992371,1,30042.2999992371,0,0,NA,"Click To Continue","Continue Button",23,"object-48","BIQ",NA,"SUPPRF91296"
"3",1708971319951,"26/02/2024 18:15:19",1708971319951,0,"26/02/2024 18:15:19",167771,4,"task-gjqt",NA,35522501,10494334,NA,"complete",NA,"65dcd343038df1ca26649274","computer","Desktop or Laptop","Windows 10","Chrome 120.0.0.0","1536x864","1536x730",NA,NA,0,"BIQ (Charlotte)",3,"BCADJEIFHG","Passed AC2","","Chocking_first","Spreadsheet1",1,"BIQ","Screen 1","9dh6eq",1,"response","1",13157.9,30030.7,30045.5,13157.9,30030.7,30045.5,1,13157.9,16887.6,0,NA,"Rating Scale","Rating Scale",3,"object-5","BIQ",NA,"SUPPRF91296"
"4",1708971319951,"26/02/2024 18:15:19",1708971319951,0,"26/02/2024 18:15:19",167771,4,"task-gjqt",NA,35522501,10494334,NA,"complete",NA,"65dcd343038df1ca26649274","computer","Desktop or Laptop","Windows 10","Chrome 120.0.0.0","1536x864","1536x730",NA,NA,0,"BIQ (Charlotte)",3,"BCADJEIFHG","Passed AC2","","Chocking_first","Spreadsheet1",1,"BIQ","Screen 1","9dh6eq",1,"response","4",23268.5,30030.7,30045.7999992371,23268.5,30030.7,30045.7999992371,1,23268.5,6777.29999923706,0,NA,"Rating Scale","Rating Scale",10,"object-18","BIQ",NA,"SUPPRF91296"
"5",1708971319951,"26/02/2024 18:15:19",1708971319951,0,"26/02/2024 18:15:19",167771,4,"task-gjqt",NA,35522501,10494334,NA,"complete",NA,"65dcd343038df1ca26649274","computer","Desktop or Laptop","Windows 10","Chrome 120.0.0.0","1536x864","1536x730",NA,NA,0,"BIQ (Charlotte)",3,"BCADJEIFHG","Passed AC2","","Chocking_first","Spreadsheet1",1,"BIQ","Screen 1","9dh6eq",1,"response","3",26882.7,30030.7,30046.2999992371,26882.7,30030.7,30046.2999992371,1,26882.7,3163.59999923706,0,NA,"Rating Scale","Rating Scale",17,"object-80","BIQ",NA,"SUPPRF91296"
"6",1708971341993,"26/02/2024 18:15:41",1708971341993,0,"26/02/2024 18:15:41",167771,4,"task-gjqt",NA,35522501,10494334,NA,"complete",NA,"65dcd343038df1ca26649274","computer","Desktop or Laptop","Windows 10","Chrome 120.0.0.0","1536x864","1536x730",NA,NA,0,"BIQ (Charlotte)",3,"BCADJEIFHG","Passed AC2","","Chocking_first","Spreadsheet1",1,"BIQ","Screen 2","o21mwi",2,"continue","",22056.6999977112,22052.7,22056.6999977112,22056.6999977112,22052.7,22056.6999977112,1,22056.6999977112,0,0,NA,"Click To Continue","Continue Button",22,"object-50","BIQ",NA,"SUPPRF91296"
"7",1708971341997,"26/02/2024 18:15:41",1708971341997,0,"26/02/2024 18:15:41",167771,4,"task-gjqt",NA,35522501,10494334,NA,"complete",NA,"65dcd343038df1ca26649274","computer","Desktop or Laptop","Windows 10","Chrome 120.0.0.0","1536x864","1536x730",NA,NA,0,"BIQ (Charlotte)",3,"BCADJEIFHG","Passed AC2","","Chocking_first","Spreadsheet1",1,"BIQ","Screen 2","o21mwi",2,"response","7",5946.6,22052.7,22061.3999984741,5946.6,22052.7,22061.3999984741,1,5946.6,16114.7999984741,0,NA,"Rating Scale","Rating Scale",2,"object-259","BIQ",NA,"SUPPRF91296"
"8",1708971341998,"26/02/2024 18:15:41",1708971341998,0,"26/02/2024 18:15:41",167771,4,"task-gjqt",NA,35522501,10494334,NA,"complete",NA,"65dcd343038df1ca26649274","computer","Desktop or Laptop","Windows 10","Chrome 120.0.0.0","1536x864","1536x730",NA,NA,0,"BIQ (Charlotte)",3,"BCADJEIFHG","Passed AC2","","Chocking_first","Spreadsheet1",1,"BIQ","Screen 2","o21mwi",2,"response","1",10260.2,22052.7,22062.1999977112,10260.2,22052.7,22062.1999977112,1,10260.2,11801.9999977112,0,NA,"Rating Scale","Rating Scale",9,"object-36","BIQ",NA,"SUPPRF91296"
"9",1708971341999,"26/02/2024 18:15:41",1708971341999,0,"26/02/2024 18:15:41",167771,4,"task-gjqt",NA,35522501,10494334,NA,"complete",NA,"65dcd343038df1ca26649274","computer","Desktop or Laptop","Windows 10","Chrome 120.0.0.0","1536x864","1536x730",NA,NA,0,"BIQ (Charlotte)",3,"BCADJEIFHG","Passed AC2","","Chocking_first","Spreadsheet1",1,"BIQ","Screen 2","o21mwi",2,"response","1",21086.4,22052.7,22062.8999984741,21086.4,22052.7,22062.8999984741,1,21086.4,976.499998474123,0,NA,"Rating Scale","Rating Scale",16,"object-86","BIQ",NA,"SUPPRF91296"
"10",1708971355009,"26/02/2024 18:15:55",1708971355009,0,"26/02/2024 18:15:55",167771,4,"task-gjqt",NA,35522501,10494334,NA,"complete",NA,"65dcd343038df1ca26649274","computer","Desktop or Laptop","Windows 10","Chrome 120.0.0.0","1536x864","1536x730",NA,NA,0,"BIQ (Charlotte)",3,"BCADJEIFHG","Passed AC2","","Chocking_first","Spreadsheet1",1,"BIQ","Screen 3","iz3the",3,"continue","",13020.6999984741,13008.2,13020.6999984741,13020.6999984741,13008.2,13020.6999984741,1,13020.6999984741,0,0,NA,"Click To Continue","Continue Button",22,"object-73","BIQ",NA,"SUPPRF91296"
"11",1708971355013,"26/02/2024 18:15:55",1708971355013,0,"26/02/2024 18:15:55",167771,4,"task-gjqt",NA,35522501,10494334,NA,"complete",NA,"65dcd343038df1ca26649274","computer","Desktop or Laptop","Windows 10","Chrome 120.0.0.0","1536x864","1536x730",NA,NA,0,"BIQ (Charlotte)",3,"BCADJEIFHG","Passed AC2","","Chocking_first","Spreadsheet1",1,"BIQ","Screen 3","iz3the",3,"response","0",6878.8,13008.2,13024.5,6878.8,13008.2,13024.5,1,6878.8,6145.70000000001,0,NA,"Rating Scale","Rating Scale",2,"object-53","BIQ",NA,"SUPPRF91296"
"12",1708971355014,"26/02/2024 18:15:55",1708971355014,0,"26/02/2024 18:15:55",167771,4,"task-gjqt",NA,35522501,10494334,NA,"complete",NA,"65dcd343038df1ca26649274","computer","Desktop or Laptop","Windows 10","Chrome 120.0.0.0","1536x864","1536x730",NA,NA,0,"BIQ (Charlotte)",3,"BCADJEIFHG","Passed AC2","","Chocking_first","Spreadsheet1",1,"BIQ","Screen 3","iz3the",3,"response","2",8527.6,13008.2,13024.5,8527.6,13008.2,13024.5,1,8527.6,4496.90000000001,0,NA,"Rating Scale","Rating Scale",9,"object-60","BIQ",NA,"SUPPRF91296"
"13",1708971355015,"26/02/2024 18:15:55",1708971355015,0,"26/02/2024 18:15:55",167771,4,"task-gjqt",NA,35522501,10494334,NA,"complete",NA,"65dcd343038df1ca26649274","computer","Desktop or Laptop","Windows 10","Chrome 120.0.0.0","1536x864","1536x730",NA,NA,0,"BIQ (Charlotte)",3,"BCADJEIFHG","Passed AC2","","Chocking_first","Spreadsheet1",1,"BIQ","Screen 3","iz3the",3,"response","1",12008.7,13008.2,13024.5,12008.7,13008.2,13024.5,1,12008.7,1015.80000000001,0,NA,"Rating Scale","Rating Scale",16,"object-67","BIQ",NA,"SUPPRF91296"
"14",1708971355020,"26/02/2024 18:15:55",1708971355020,0,"26/02/2024 18:15:55",167771,4,"task-gjqt",NA,35522501,10494334,NA,"complete",NA,"65dcd343038df1ca26649274","computer","Desktop or Laptop","Windows 10","Chrome 120.0.0.0","1536x864","1536x730",NA,NA,0,"BIQ (Charlotte)",3,"BCADJEIFHG","Passed AC2","","Chocking_first","Spreadsheet1",NA,"","","",NA,"5","END",NA,NA,NA,NA,NA,NA,0,NA,NA,NA,NA,"","",NA,"","",NA,"SUPPRF91296"
"1",1708971129312,"26/02/2024 18:12:09",1708971129312,0,"26/02/2024 18:12:09",167771,4,"task-gjqt",NA,35522542,10494361,NA,"complete",NA,"65dcd3eed5e1a6a3349a3356","computer","Desktop or Laptop","Windows 10","Chrome 121.0.0.0","1366x768","1366x641",NA,NA,0,"BIQ (Charlotte)",3,"CDBEAFJGIH","Passed AC2","","Chocking_second","Spreadsheet1",NA,"","","",NA,"5","BEGIN",NA,NA,NA,NA,NA,NA,0,NA,NA,NA,NA,"","",NA,"","",NA,"SUPPRF77316"
"2",1708971143030,"26/02/2024 18:12:23",1708971143030,0,"26/02/2024 18:12:23",167771,4,"task-gjqt",NA,35522542,10494361,NA,"complete",NA,"65dcd3eed5e1a6a3349a3356","computer","Desktop or Laptop","Windows 10","Chrome 121.0.0.0","1366x768","1366x641",NA,NA,0,"BIQ (Charlotte)",3,"CDBEAFJGIH","Passed AC2","","Chocking_second","Spreadsheet1",1,"BIQ","Screen 1","9dh6eq",1,"continue","",13742.1,13731.3,13742.1,13742.1,13731.3,13742.1,1,13742.1,0,0,NA,"Click To Continue","Continue Button",23,"object-48","BIQ",NA,"SUPPRF77316"
"3",1708971143033,"26/02/2024 18:12:23",1708971143033,0,"26/02/2024 18:12:23",167771,4,"task-gjqt",NA,35522542,10494361,NA,"complete",NA,"65dcd3eed5e1a6a3349a3356","computer","Desktop or Laptop","Windows 10","Chrome 121.0.0.0","1366x768","1366x641",NA,NA,0,"BIQ (Charlotte)",3,"CDBEAFJGIH","Passed AC2","","Chocking_second","Spreadsheet1",1,"BIQ","Screen 1","9dh6eq",1,"response","8",5932.3,13731.3,13746.1,5932.3,13731.3,13746.1,1,5932.3,7813.8,0,NA,"Rating Scale","Rating Scale",3,"object-5","BIQ",NA,"SUPPRF77316"
"4",1708971143034,"26/02/2024 18:12:23",1708971143034,0,"26/02/2024 18:12:23",167771,4,"task-gjqt",NA,35522542,10494361,NA,"complete",NA,"65dcd3eed5e1a6a3349a3356","computer","Desktop or Laptop","Windows 10","Chrome 121.0.0.0","1366x768","1366x641",NA,NA,0,"BIQ (Charlotte)",3,"CDBEAFJGIH","Passed AC2","","Chocking_second","Spreadsheet1",1,"BIQ","Screen 1","9dh6eq",1,"response","5",9015.2,13731.3,13746.9999999985,9015.2,13731.3,13746.9999999985,1,9015.2,4731.79999999851,0,NA,"Rating Scale","Rating Scale",10,"object-18","BIQ",NA,"SUPPRF77316"
"5",1708971143035,"26/02/2024 18:12:23",1708971143035,0,"26/02/2024 18:12:23",167771,4,"task-gjqt",NA,35522542,10494361,NA,"complete",NA,"65dcd3eed5e1a6a3349a3356","computer","Desktop or Laptop","Windows 10","Chrome 121.0.0.0","1366x768","1366x641",NA,NA,0,"BIQ (Charlotte)",3,"CDBEAFJGIH","Passed AC2","","Chocking_second","Spreadsheet1",1,"BIQ","Screen 1","9dh6eq",1,"response","2",12131.4,13731.3,13747.7000000015,12131.4,13731.3,13747.7000000015,1,12131.4,1616.30000000149,0,NA,"Rating Scale","Rating Scale",17,"object-80","BIQ",NA,"SUPPRF77316"
"6",1708971152090,"26/02/2024 18:12:32",1708971152090,0,"26/02/2024 18:12:32",167771,4,"task-gjqt",NA,35522542,10494361,NA,"complete",NA,"65dcd3eed5e1a6a3349a3356","computer","Desktop or Laptop","Windows 10","Chrome 121.0.0.0","1366x768","1366x641",NA,NA,0,"BIQ (Charlotte)",3,"CDBEAFJGIH","Passed AC2","","Chocking_second","Spreadsheet1",1,"BIQ","Screen 2","o21mwi",2,"continue","",9072.59999999702,9065.3,9072.59999999702,9072.59999999702,9065.3,9072.59999999702,1,9072.59999999702,0,0,NA,"Click To Continue","Continue Button",22,"object-50","BIQ",NA,"SUPPRF77316"
"7",1708971152091,"26/02/2024 18:12:32",1708971152091,0,"26/02/2024 18:12:32",167771,4,"task-gjqt",NA,35522542,10494361,NA,"complete",NA,"65dcd3eed5e1a6a3349a3356","computer","Desktop or Laptop","Windows 10","Chrome 121.0.0.0","1366x768","1366x641",NA,NA,0,"BIQ (Charlotte)",3,"CDBEAFJGIH","Passed AC2","","Chocking_second","Spreadsheet1",1,"BIQ","Screen 2","o21mwi",2,"response","4",3182.9,9065.3,9073.09999999702,3182.9,9065.3,9073.09999999702,1,3182.9,5890.19999999702,0,NA,"Rating Scale","Rating Scale",2,"object-259","BIQ",NA,"SUPPRF77316"
"8",1708971152091,"26/02/2024 18:12:32",1708971152091,0,"26/02/2024 18:12:32",167771,4,"task-gjqt",NA,35522542,10494361,NA,"complete",NA,"65dcd3eed5e1a6a3349a3356","computer","Desktop or Laptop","Windows 10","Chrome 121.0.0.0","1366x768","1366x641",NA,NA,0,"BIQ (Charlotte)",3,"CDBEAFJGIH","Passed AC2","","Chocking_second","Spreadsheet1",1,"BIQ","Screen 2","o21mwi",2,"response","4",4416,9065.3,9073.49999999553,4416,9065.3,9073.49999999553,1,4416,4657.49999999553,0,NA,"Rating Scale","Rating Scale",9,"object-36","BIQ",NA,"SUPPRF77316"
"9",1708971152092,"26/02/2024 18:12:32",1708971152092,0,"26/02/2024 18:12:32",167771,4,"task-gjqt",NA,35522542,10494361,NA,"complete",NA,"65dcd3eed5e1a6a3349a3356","computer","Desktop or Laptop","Windows 10","Chrome 121.0.0.0","1366x768","1366x641",NA,NA,0,"BIQ (Charlotte)",3,"CDBEAFJGIH","Passed AC2","","Chocking_second","Spreadsheet1",1,"BIQ","Screen 2","o21mwi",2,"response","0",8015.6,9065.3,9074.40000000149,8015.6,9065.3,9074.40000000149,1,8015.6,1058.80000000149,0,NA,"Rating Scale","Rating Scale",16,"object-86","BIQ",NA,"SUPPRF77316"
"10",1708971164899,"26/02/2024 18:12:44",1708971164899,0,"26/02/2024 18:12:44",167771,4,"task-gjqt",NA,35522542,10494361,NA,"complete",NA,"65dcd3eed5e1a6a3349a3356","computer","Desktop or Laptop","Windows 10","Chrome 121.0.0.0","1366x768","1366x641",NA,NA,0,"BIQ (Charlotte)",3,"CDBEAFJGIH","Passed AC2","","Chocking_second","Spreadsheet1",1,"BIQ","Screen 3","iz3the",3,"continue","",12816.299999997,12814.9,12816.299999997,12816.299999997,12814.9,12816.299999997,1,12816.299999997,0,0,NA,"Click To Continue","Continue Button",22,"object-73","BIQ",NA,"SUPPRF77316"
"11",1708971164903,"26/02/2024 18:12:44",1708971164903,0,"26/02/2024 18:12:44",167771,4,"task-gjqt",NA,35522542,10494361,NA,"complete",NA,"65dcd3eed5e1a6a3349a3356","computer","Desktop or Laptop","Windows 10","Chrome 121.0.0.0","1366x768","1366x641",NA,NA,0,"BIQ (Charlotte)",3,"CDBEAFJGIH","Passed AC2","","Chocking_second","Spreadsheet1",1,"BIQ","Screen 3","iz3the",3,"response","0",6849.1,12814.9,12820.8999999985,6849.1,12814.9,12820.8999999985,1,6849.1,5971.79999999851,0,NA,"Rating Scale","Rating Scale",2,"object-53","BIQ",NA,"SUPPRF77316"
"12",1708971164905,"26/02/2024 18:12:44",1708971164905,0,"26/02/2024 18:12:44",167771,4,"task-gjqt",NA,35522542,10494361,NA,"complete",NA,"65dcd3eed5e1a6a3349a3356","computer","Desktop or Laptop","Windows 10","Chrome 121.0.0.0","1366x768","1366x641",NA,NA,0,"BIQ (Charlotte)",3,"CDBEAFJGIH","Passed AC2","","Chocking_second","Spreadsheet1",1,"BIQ","Screen 3","iz3the",3,"response","1",7949,12814.9,12822.1999999955,7949,12814.9,12822.1999999955,1,7949,4873.19999999553,0,NA,"Rating Scale","Rating Scale",9,"object-60","BIQ",NA,"SUPPRF77316"
"13",1708971164906,"26/02/2024 18:12:44",1708971164906,0,"26/02/2024 18:12:44",167771,4,"task-gjqt",NA,35522542,10494361,NA,"complete",NA,"65dcd3eed5e1a6a3349a3356","computer","Desktop or Laptop","Windows 10","Chrome 121.0.0.0","1366x768","1366x641",NA,NA,0,"BIQ (Charlotte)",3,"CDBEAFJGIH","Passed AC2","","Chocking_second","Spreadsheet1",1,"BIQ","Screen 3","iz3the",3,"response","3",11515.1,12814.9,12823.5,11515.1,12814.9,12823.5,1,11515.1,1308.4,0,NA,"Rating Scale","Rating Scale",16,"object-67","BIQ",NA,"SUPPRF77316"
"14",1708971164912,"26/02/2024 18:12:44",1708971164912,0,"26/02/2024 18:12:44",167771,4,"task-gjqt",NA,35522542,10494361,NA,"complete",NA,"65dcd3eed5e1a6a3349a3356","computer","Desktop or Laptop","Windows 10","Chrome 121.0.0.0","1366x768","1366x641",NA,NA,0,"BIQ (Charlotte)",3,"CDBEAFJGIH","Passed AC2","","Chocking_second","Spreadsheet1",NA,"","","",NA,"5","END",NA,NA,NA,NA,NA,NA,0,NA,NA,NA,NA,"","",NA,"","",NA,"SUPPRF77316"
"1",1708971895284,"26/02/2024 18:24:55",1708953895284,-5,"26/02/2024 08:24:55",167771,4,"task-gjqt",NA,35522884,10494421,NA,"complete",NA,"65dcce30f40fd5cad9b7b120","computer","Desktop or Laptop","Mac OS 10.15.7","Chrome 122.0.0.0","1440x900","1440x673",NA,NA,0,"BIQ (Charlotte)",3,"DECFBGAHJI","Passed AC2","","Chocking_first","Spreadsheet1",NA,"","","",NA,"5","BEGIN",NA,NA,NA,NA,NA,NA,0,NA,NA,NA,NA,"","",NA,"","",NA,"SUPPRF56143"
"2",1708971933015,"26/02/2024 18:25:33",1708953933015,-5,"26/02/2024 08:25:33",167771,4,"task-gjqt",NA,35522884,10494421,NA,"complete",NA,"65dcce30f40fd5cad9b7b120","computer","Desktop or Laptop","Mac OS 10.15.7","Chrome 122.0.0.0","1440x900","1440x673",NA,NA,0,"BIQ (Charlotte)",3,"DECFBGAHJI","Passed AC2","","Chocking_first","Spreadsheet1",1,"BIQ","Screen 1","9dh6eq",1,"continue","",37748.6000000015,37733.4,37748.6000000015,37748.6000000015,37733.4,37748.6000000015,1,37748.6000000015,0,0,NA,"Click To Continue","Continue Button",23,"object-48","BIQ",NA,"SUPPRF56143"
"3",1708971933016,"26/02/2024 18:25:33",1708953933016,-5,"26/02/2024 08:25:33",167771,4,"task-gjqt",NA,35522884,10494421,NA,"complete",NA,"65dcce30f40fd5cad9b7b120","computer","Desktop or Laptop","Mac OS 10.15.7","Chrome 122.0.0.0","1440x900","1440x673",NA,NA,0,"BIQ (Charlotte)",3,"DECFBGAHJI","Passed AC2","","Chocking_first","Spreadsheet1",1,"BIQ","Screen 1","9dh6eq",1,"response","3",20683.4,37733.4,37749.9000000022,20683.4,37733.4,37749.9000000022,1,20683.4,17066.5000000022,0,NA,"Rating Scale","Rating Scale",3,"object-5","BIQ",NA,"SUPPRF56143"
"4",1708971933016,"26/02/2024 18:25:33",1708953933016,-5,"26/02/2024 08:25:33",167771,4,"task-gjqt",NA,35522884,10494421,NA,"complete",NA,"65dcce30f40fd5cad9b7b120","computer","Desktop or Laptop","Mac OS 10.15.7","Chrome 122.0.0.0","1440x900","1440x673",NA,NA,0,"BIQ (Charlotte)",3,"DECFBGAHJI","Passed AC2","","Chocking_first","Spreadsheet1",1,"BIQ","Screen 1","9dh6eq",1,"response","4",34433.4,37733.4,37750,34433.4,37733.4,37750,1,34433.4,3316.6,0,NA,"Rating Scale","Rating Scale",10,"object-18","BIQ",NA,"SUPPRF56143"
"5",1708971933016,"26/02/2024 18:25:33",1708953933016,-5,"26/02/2024 08:25:33",167771,4,"task-gjqt",NA,35522884,10494421,NA,"complete",NA,"65dcce30f40fd5cad9b7b120","computer","Desktop or Laptop","Mac OS 10.15.7","Chrome 122.0.0.0","1440x900","1440x673",NA,NA,0,"BIQ (Charlotte)",3,"DECFBGAHJI","Passed AC2","","Chocking_first","Spreadsheet1",1,"BIQ","Screen 1","9dh6eq",1,"response","3",37200.1,37733.4,37750,37200.1,37733.4,37750,1,37200.1,549.900000000001,0,NA,"Rating Scale","Rating Scale",17,"object-80","BIQ",NA,"SUPPRF56143"
"6",1708971953195,"26/02/2024 18:25:53",1708953953195,-5,"26/02/2024 08:25:53",167771,4,"task-gjqt",NA,35522884,10494421,NA,"complete",NA,"65dcce30f40fd5cad9b7b120","computer","Desktop or Laptop","Mac OS 10.15.7","Chrome 122.0.0.0","1440x900","1440x673",NA,NA,0,"BIQ (Charlotte)",3,"DECFBGAHJI","Passed AC2","","Chocking_first","Spreadsheet1",1,"BIQ","Screen 2","o21mwi",2,"continue","",20196.300000003,20183.3,20196.300000003,20196.300000003,20183.3,20196.300000003,1,20196.300000003,0,0,NA,"Click To Continue","Continue Button",22,"object-50","BIQ",NA,"SUPPRF56143"
"7",1708971953196,"26/02/2024 18:25:53",1708953953196,-5,"26/02/2024 08:25:53",167771,4,"task-gjqt",NA,35522884,10494421,NA,"complete",NA,"65dcce30f40fd5cad9b7b120","computer","Desktop or Laptop","Mac OS 10.15.7","Chrome 122.0.0.0","1440x900","1440x673",NA,NA,0,"BIQ (Charlotte)",3,"DECFBGAHJI","Passed AC2","","Chocking_first","Spreadsheet1",1,"BIQ","Screen 2","o21mwi",2,"response","4",8233.3,20183.3,20197.300000003,8233.3,20183.3,20197.300000003,1,8233.3,11964.000000003,0,NA,"Rating Scale","Rating Scale",2,"object-259","BIQ",NA,"SUPPRF56143"
"8",1708971953196,"26/02/2024 18:25:53",1708953953196,-5,"26/02/2024 08:25:53",167771,4,"task-gjqt",NA,35522884,10494421,NA,"complete",NA,"65dcce30f40fd5cad9b7b120","computer","Desktop or Laptop","Mac OS 10.15.7","Chrome 122.0.0.0","1440x900","1440x673",NA,NA,0,"BIQ (Charlotte)",3,"DECFBGAHJI","Passed AC2","","Chocking_first","Spreadsheet1",1,"BIQ","Screen 2","o21mwi",2,"response","1",13866.6,20183.3,20197.5000000022,13866.6,20183.3,20197.5000000022,1,13866.6,6330.90000000224,0,NA,"Rating Scale","Rating Scale",9,"object-36","BIQ",NA,"SUPPRF56143"
"9",1708971953197,"26/02/2024 18:25:53",1708953953197,-5,"26/02/2024 08:25:53",167771,4,"task-gjqt",NA,35522884,10494421,NA,"complete",NA,"65dcce30f40fd5cad9b7b120","computer","Desktop or Laptop","Mac OS 10.15.7","Chrome 122.0.0.0","1440x900","1440x673",NA,NA,0,"BIQ (Charlotte)",3,"DECFBGAHJI","Passed AC2","","Chocking_first","Spreadsheet1",1,"BIQ","Screen 2","o21mwi",2,"response","1",19500,20183.3,20197.7000000015,19500,20183.3,20197.7000000015,1,19500,697.700000001489,0,NA,"Rating Scale","Rating Scale",16,"object-86","BIQ",NA,"SUPPRF56143"
"10",1708972019644,"26/02/2024 18:26:59",1708954019644,-5,"26/02/2024 08:26:59",167771,4,"task-gjqt",NA,35522884,10494421,NA,"complete",NA,"65dcce30f40fd5cad9b7b120","computer","Desktop or Laptop","Mac OS 10.15.7","Chrome 122.0.0.0","1440x900","1440x673",NA,NA,0,"BIQ (Charlotte)",3,"DECFBGAHJI","Passed AC2","","Chocking_first","Spreadsheet1",1,"BIQ","Screen 3","iz3the",3,"continue","",66462.7000000022,66450,66462.7000000022,66462.7000000022,66450,66462.7000000022,1,66462.7000000022,0,0,NA,"Click To Continue","Continue Button",22,"object-73","BIQ",NA,"SUPPRF56143"
"11",1708972019645,"26/02/2024 18:26:59",1708954019645,-5,"26/02/2024 08:26:59",167771,4,"task-gjqt",NA,35522884,10494421,NA,"complete",NA,"65dcce30f40fd5cad9b7b120","computer","Desktop or Laptop","Mac OS 10.15.7","Chrome 122.0.0.0","1440x900","1440x673",NA,NA,0,"BIQ (Charlotte)",3,"DECFBGAHJI","Passed AC2","","Chocking_first","Spreadsheet1",1,"BIQ","Screen 3","iz3the",3,"response","3",45200,66450,66463.8,45200,66450,66463.8,1,45200,21263.8,0,NA,"Rating Scale","Rating Scale",2,"object-53","BIQ",NA,"SUPPRF56143"
"12",1708972019645,"26/02/2024 18:26:59",1708954019645,-5,"26/02/2024 08:26:59",167771,4,"task-gjqt",NA,35522884,10494421,NA,"complete",NA,"65dcce30f40fd5cad9b7b120","computer","Desktop or Laptop","Mac OS 10.15.7","Chrome 122.0.0.0","1440x900","1440x673",NA,NA,0,"BIQ (Charlotte)",3,"DECFBGAHJI","Passed AC2","","Chocking_first","Spreadsheet1",1,"BIQ","Screen 3","iz3the",3,"response","2",60200.1,66450,66464.000000003,60200.1,66450,66464.000000003,1,60200.1,6263.90000000298,0,NA,"Rating Scale","Rating Scale",9,"object-60","BIQ",NA,"SUPPRF56143"
"13",1708972019645,"26/02/2024 18:26:59",1708954019645,-5,"26/02/2024 08:26:59",167771,4,"task-gjqt",NA,35522884,10494421,NA,"complete",NA,"65dcce30f40fd5cad9b7b120","computer","Desktop or Laptop","Mac OS 10.15.7","Chrome 122.0.0.0","1440x900","1440x673",NA,NA,0,"BIQ (Charlotte)",3,"DECFBGAHJI","Passed AC2","","Chocking_first","Spreadsheet1",1,"BIQ","Screen 3","iz3the",3,"response","2",65566.7,66450,66464.1000000007,65566.7,66450,66464.1000000007,1,65566.7,897.400000000751,0,NA,"Rating Scale","Rating Scale",16,"object-67","BIQ",NA,"SUPPRF56143"
"14",1708972019647,"26/02/2024 18:26:59",1708954019647,-5,"26/02/2024 08:26:59",167771,4,"task-gjqt",NA,35522884,10494421,NA,"complete",NA,"65dcce30f40fd5cad9b7b120","computer","Desktop or Laptop","Mac OS 10.15.7","Chrome 122.0.0.0","1440x900","1440x673",NA,NA,0,"BIQ (Charlotte)",3,"DECFBGAHJI","Passed AC2","","Chocking_first","Spreadsheet1",NA,"","","",NA,"5","END",NA,NA,NA,NA,NA,NA,0,NA,NA,NA,NA,"","",NA,"","",NA,"SUPPRF56143"
"1",1708975003164,"26/02/2024 19:16:43",1708957003164,-5,"26/02/2024 09:16:43",167771,4,"task-gjqt",NA,35524435,10494908,NA,"complete",NA,"65dce2bedf550398cbe21df9","computer","Desktop or Laptop","Mac OS 10.15.7","Chrome 120.0.0.0","1440x900","1058x722",NA,NA,0,"BIQ (Charlotte)",3,"EFDGCHBIAJ","Passed AC2","","Chocking_first","Spreadsheet1",NA,"","","",NA,"5","BEGIN",NA,NA,NA,NA,NA,NA,0,NA,NA,NA,NA,"","",NA,"","",NA,"SUPPRF59156"
"2",1708975040003,"26/02/2024 19:17:20",1708957040003,-5,"26/02/2024 09:17:20",167771,4,"task-gjqt",NA,35524435,10494908,NA,"complete",NA,"65dce2bedf550398cbe21df9","computer","Desktop or Laptop","Mac OS 10.15.7","Chrome 120.0.0.0","1440x900","1058x722",NA,NA,0,"BIQ (Charlotte)",3,"EFDGCHBIAJ","Passed AC2","","Chocking_first","Spreadsheet1",1,"BIQ","Screen 1","9dh6eq",1,"continue","",36849.5,36832.9,36849.5,36849.5,36832.9,36849.5,1,36849.5,0,0,NA,"Click To Continue","Continue Button",23,"object-48","BIQ",NA,"SUPPRF59156"
"3",1708975040006,"26/02/2024 19:17:20",1708957040006,-5,"26/02/2024 09:17:20",167771,4,"task-gjqt",NA,35524435,10494908,NA,"complete",NA,"65dce2bedf550398cbe21df9","computer","Desktop or Laptop","Mac OS 10.15.7","Chrome 120.0.0.0","1440x900","1058x722",NA,NA,0,"BIQ (Charlotte)",3,"EFDGCHBIAJ","Passed AC2","","Chocking_first","Spreadsheet1",1,"BIQ","Screen 1","9dh6eq",1,"response","7",14266.7,36832.9,36849.5,14266.7,36832.9,36849.5,1,14266.7,22582.8,0,NA,"Rating Scale","Rating Scale",3,"object-5","BIQ",NA,"SUPPRF59156"
"4",1708975040006,"26/02/2024 19:17:20",1708957040006,-5,"26/02/2024 09:17:20",167771,4,"task-gjqt",NA,35524435,10494908,NA,"complete",NA,"65dce2bedf550398cbe21df9","computer","Desktop or Laptop","Mac OS 10.15.7","Chrome 120.0.0.0","1440x900","1058x722",NA,NA,0,"BIQ (Charlotte)",3,"EFDGCHBIAJ","Passed AC2","","Chocking_first","Spreadsheet1",1,"BIQ","Screen 1","9dh6eq",1,"response","8",20233.4,36832.9,36849.5,20233.4,36832.9,36849.5,1,20233.4,16616.1,0,NA,"Rating Scale","Rating Scale",10,"object-18","BIQ",NA,"SUPPRF59156"
"5",1708975040006,"26/02/2024 19:17:20",1708957040006,-5,"26/02/2024 09:17:20",167771,4,"task-gjqt",NA,35524435,10494908,NA,"complete",NA,"65dce2bedf550398cbe21df9","computer","Desktop or Laptop","Mac OS 10.15.7","Chrome 120.0.0.0","1440x900","1058x722",NA,NA,0,"BIQ (Charlotte)",3,"EFDGCHBIAJ","Passed AC2","","Chocking_first","Spreadsheet1",1,"BIQ","Screen 1","9dh6eq",1,"response","0",35633,36832.9,36849.5,35633,36832.9,36849.5,1,35633,1216.5,0,NA,"Rating Scale","Rating Scale",17,"object-80","BIQ",NA,"SUPPRF59156"
"6",1708975065135,"26/02/2024 19:17:45",1708957065135,-5,"26/02/2024 09:17:45",167771,4,"task-gjqt",NA,35524435,10494908,NA,"complete",NA,"65dce2bedf550398cbe21df9","computer","Desktop or Laptop","Mac OS 10.15.7","Chrome 120.0.0.0","1440x900","1058x722",NA,NA,0,"BIQ (Charlotte)",3,"EFDGCHBIAJ","Passed AC2","","Chocking_first","Spreadsheet1",1,"BIQ","Screen 2","o21mwi",2,"continue","",25156.3000000477,25149.8,25156.3000000477,25156.3000000477,25149.8,25156.3000000477,1,25156.3000000477,0,0,NA,"Click To Continue","Continue Button",22,"object-50","BIQ",NA,"SUPPRF59156"
"7",1708975065141,"26/02/2024 19:17:45",1708957065141,-5,"26/02/2024 09:17:45",167771,4,"task-gjqt",NA,35524435,10494908,NA,"complete",NA,"65dce2bedf550398cbe21df9","computer","Desktop or Laptop","Mac OS 10.15.7","Chrome 120.0.0.0","1440x900","1058x722",NA,NA,0,"BIQ (Charlotte)",3,"EFDGCHBIAJ","Passed AC2","","Chocking_first","Spreadsheet1",1,"BIQ","Screen 2","o21mwi",2,"response","8",3950.2,25149.8,25162.200000143,3950.2,25149.8,25162.200000143,1,3950.2,21212.0000001431,0,NA,"Rating Scale","Rating Scale",2,"object-259","BIQ",NA,"SUPPRF59156"
"8",1708975065141,"26/02/2024 19:17:45",1708957065141,-5,"26/02/2024 09:17:45",167771,4,"task-gjqt",NA,35524435,10494908,NA,"complete",NA,"65dce2bedf550398cbe21df9","computer","Desktop or Laptop","Mac OS 10.15.7","Chrome 120.0.0.0","1440x900","1058x722",NA,NA,0,"BIQ (Charlotte)",3,"EFDGCHBIAJ","Passed AC2","","Chocking_first","Spreadsheet1",1,"BIQ","Screen 2","o21mwi",2,"response","1",8250,25149.8,25162.5000000954,8250,25149.8,25162.5000000954,1,8250,16912.5000000954,0,NA,"Rating Scale","Rating Scale",9,"object-36","BIQ",NA,"SUPPRF59156"
"9",1708975065141,"26/02/2024 19:17:45",1708957065141,-5,"26/02/2024 09:17:45",167771,4,"task-gjqt",NA,35524435,10494908,NA,"complete",NA,"65dce2bedf550398cbe21df9","computer","Desktop or Laptop","Mac OS 10.15.7","Chrome 120.0.0.0","1440x900","1058x722",NA,NA,0,"BIQ (Charlotte)",3,"EFDGCHBIAJ","Passed AC2","","Chocking_first","Spreadsheet1",1,"BIQ","Screen 2","o21mwi",2,"response","0",17999.9,25149.8,25162.8000000477,17999.9,25149.8,25162.8000000477,1,17999.9,7162.90000004768,0,NA,"Rating Scale","Rating Scale",16,"object-86","BIQ",NA,"SUPPRF59156"
"10",1708975082578,"26/02/2024 19:18:02",1708957082578,-5,"26/02/2024 09:18:02",167771,4,"task-gjqt",NA,35524435,10494908,NA,"complete",NA,"65dce2bedf550398cbe21df9","computer","Desktop or Laptop","Mac OS 10.15.7","Chrome 120.0.0.0","1440x900","1058x722",NA,NA,0,"BIQ (Charlotte)",3,"EFDGCHBIAJ","Passed AC2","","Chocking_first","Spreadsheet1",1,"BIQ","Screen 3","iz3the",3,"continue","",17448.0999999523,17432.9,17448.0999999523,17448.0999999523,17432.9,17448.0999999523,1,17448.0999999523,0,0,NA,"Click To Continue","Continue Button",22,"object-73","BIQ",NA,"SUPPRF59156"
"11",1708975082580,"26/02/2024 19:18:02",1708957082580,-5,"26/02/2024 09:18:02",167771,4,"task-gjqt",NA,35524435,10494908,NA,"complete",NA,"65dce2bedf550398cbe21df9","computer","Desktop or Laptop","Mac OS 10.15.7","Chrome 120.0.0.0","1440x900","1058x722",NA,NA,0,"BIQ (Charlotte)",3,"EFDGCHBIAJ","Passed AC2","","Chocking_first","Spreadsheet1",1,"BIQ","Screen 3","iz3the",3,"response","0",4633.2,17432.9,17449.5,4633.2,17432.9,17449.5,1,4633.2,12816.3,0,NA,"Rating Scale","Rating Scale",2,"object-53","BIQ",NA,"SUPPRF59156"
"12",1708975082581,"26/02/2024 19:18:02",1708957082581,-5,"26/02/2024 09:18:02",167771,4,"task-gjqt",NA,35524435,10494908,NA,"complete",NA,"65dce2bedf550398cbe21df9","computer","Desktop or Laptop","Mac OS 10.15.7","Chrome 120.0.0.0","1440x900","1058x722",NA,NA,0,"BIQ (Charlotte)",3,"EFDGCHBIAJ","Passed AC2","","Chocking_first","Spreadsheet1",1,"BIQ","Screen 3","iz3the",3,"response","0",7399.7,17432.9,17449.5,7399.7,17432.9,17449.5,1,7399.7,10049.8,0,NA,"Rating Scale","Rating Scale",9,"object-60","BIQ",NA,"SUPPRF59156"
"13",1708975082581,"26/02/2024 19:18:02",1708957082581,-5,"26/02/2024 09:18:02",167771,4,"task-gjqt",NA,35524435,10494908,NA,"complete",NA,"65dce2bedf550398cbe21df9","computer","Desktop or Laptop","Mac OS 10.15.7","Chrome 120.0.0.0","1440x900","1058x722",NA,NA,0,"BIQ (Charlotte)",3,"EFDGCHBIAJ","Passed AC2","","Chocking_first","Spreadsheet1",1,"BIQ","Screen 3","iz3the",3,"response","3",11466.6,17432.9,17449.5,11466.6,17432.9,17449.5,1,11466.6,5982.90000000001,0,NA,"Rating Scale","Rating Scale",16,"object-67","BIQ",NA,"SUPPRF59156"
"14",1708975082585,"26/02/2024 19:18:02",1708957082585,-5,"26/02/2024 09:18:02",167771,4,"task-gjqt",NA,35524435,10494908,NA,"complete",NA,"65dce2bedf550398cbe21df9","computer","Desktop or Laptop","Mac OS 10.15.7","Chrome 120.0.0.0","1440x900","1058x722",NA,NA,0,"BIQ (Charlotte)",3,"EFDGCHBIAJ","Passed AC2","","Chocking_first","Spreadsheet1",NA,"","","",NA,"5","END",NA,NA,NA,NA,NA,NA,0,NA,NA,NA,NA,"","",NA,"","",NA,"SUPPRF59156"
"1",1708976547241,"26/02/2024 19:42:27",1708947747241,-8,"26/02/2024 03:42:27",167771,4,"task-gjqt",NA,35525250,10495197,NA,"complete",NA,"65dce8d9cab7e37ca604a9ef","computer","Desktop or Laptop","Mac OS 10.15.7","Chrome 122.0.0.0","1440x900","1426x692",NA,NA,0,"BIQ (Charlotte)",3,"GHFIEJDACB","Passed AC2","","Chocking_second","Spreadsheet1",NA,"","","",NA,"5","BEGIN",NA,NA,NA,NA,NA,NA,0,NA,NA,NA,NA,"","",NA,"","",NA,"SUPPRF87285"
"2",1708976568998,"26/02/2024 19:42:48",1708947768998,-8,"26/02/2024 03:42:48",167771,4,"task-gjqt",NA,35525250,10495197,NA,"complete",NA,"65dce8d9cab7e37ca604a9ef","computer","Desktop or Laptop","Mac OS 10.15.7","Chrome 122.0.0.0","1440x900","1426x692",NA,NA,0,"BIQ (Charlotte)",3,"GHFIEJDACB","Passed AC2","","Chocking_second","Spreadsheet1",1,"BIQ","Screen 1","9dh6eq",1,"continue","",21766.2,21749.6,21766.2,21766.2,21749.6,21766.2,1,21766.2,0,0,NA,"Click To Continue","Continue Button",23,"object-48","BIQ",NA,"SUPPRF87285"
"3",1708976569000,"26/02/2024 19:42:49",1708947769000,-8,"26/02/2024 03:42:49",167771,4,"task-gjqt",NA,35525250,10495197,NA,"complete",NA,"65dce8d9cab7e37ca604a9ef","computer","Desktop or Laptop","Mac OS 10.15.7","Chrome 122.0.0.0","1440x900","1426x692",NA,NA,0,"BIQ (Charlotte)",3,"GHFIEJDACB","Passed AC2","","Chocking_second","Spreadsheet1",1,"BIQ","Screen 1","9dh6eq",1,"response","0",10233.2,21749.6,21766.2,10233.2,21749.6,21766.2,1,10233.2,11533,0,NA,"Rating Scale","Rating Scale",3,"object-5","BIQ",NA,"SUPPRF87285"
"4",1708976569001,"26/02/2024 19:42:49",1708947769001,-8,"26/02/2024 03:42:49",167771,4,"task-gjqt",NA,35525250,10495197,NA,"complete",NA,"65dce8d9cab7e37ca604a9ef","computer","Desktop or Laptop","Mac OS 10.15.7","Chrome 122.0.0.0","1440x900","1426x692",NA,NA,0,"BIQ (Charlotte)",3,"GHFIEJDACB","Passed AC2","","Chocking_second","Spreadsheet1",1,"BIQ","Screen 1","9dh6eq",1,"response","7",16199.9,21749.6,21766.2,16199.9,21749.6,21766.2,1,16199.9,5566.3,0,NA,"Rating Scale","Rating Scale",10,"object-18","BIQ",NA,"SUPPRF87285"
"5",1708976569001,"26/02/2024 19:42:49",1708947769001,-8,"26/02/2024 03:42:49",167771,4,"task-gjqt",NA,35525250,10495197,NA,"complete",NA,"65dce8d9cab7e37ca604a9ef","computer","Desktop or Laptop","Mac OS 10.15.7","Chrome 122.0.0.0","1440x900","1426x692",NA,NA,0,"BIQ (Charlotte)",3,"GHFIEJDACB","Passed AC2","","Chocking_second","Spreadsheet1",1,"BIQ","Screen 1","9dh6eq",1,"response","1",20616.3,21749.6,21766.2,20616.3,21749.6,21766.2,1,20616.3,1149.89999999999,0,NA,"Rating Scale","Rating Scale",17,"object-80","BIQ",NA,"SUPPRF87285"
"6",1708976582503,"26/02/2024 19:43:02",1708947782503,-8,"26/02/2024 03:43:02",167771,4,"task-gjqt",NA,35525250,10495197,NA,"complete",NA,"65dce8d9cab7e37ca604a9ef","computer","Desktop or Laptop","Mac OS 10.15.7","Chrome 122.0.0.0","1440x900","1426x692",NA,NA,0,"BIQ (Charlotte)",3,"GHFIEJDACB","Passed AC2","","Chocking_second","Spreadsheet1",1,"BIQ","Screen 2","o21mwi",2,"continue","",13526,13516.7,13526,13526,13516.7,13526,1,13526,0,0,NA,"Click To Continue","Continue Button",22,"object-50","BIQ",NA,"SUPPRF87285"
"7",1708976582507,"26/02/2024 19:43:02",1708947782507,-8,"26/02/2024 03:43:02",167771,4,"task-gjqt",NA,35525250,10495197,NA,"complete",NA,"65dce8d9cab7e37ca604a9ef","computer","Desktop or Laptop","Mac OS 10.15.7","Chrome 122.0.0.0","1440x900","1426x692",NA,NA,0,"BIQ (Charlotte)",3,"GHFIEJDACB","Passed AC2","","Chocking_second","Spreadsheet1",1,"BIQ","Screen 2","o21mwi",2,"response","8",4050.1,13516.7,13529.9000000004,4050.1,13516.7,13529.9000000004,1,4050.1,9479.80000000037,0,NA,"Rating Scale","Rating Scale",2,"object-259","BIQ",NA,"SUPPRF87285"
"8",1708976582507,"26/02/2024 19:43:02",1708947782507,-8,"26/02/2024 03:43:02",167771,4,"task-gjqt",NA,35525250,10495197,NA,"complete",NA,"65dce8d9cab7e37ca604a9ef","computer","Desktop or Laptop","Mac OS 10.15.7","Chrome 122.0.0.0","1440x900","1426x692",NA,NA,0,"BIQ (Charlotte)",3,"GHFIEJDACB","Passed AC2","","Chocking_second","Spreadsheet1",1,"BIQ","Screen 2","o21mwi",2,"response","5",8366.6,13516.7,13530.5999999996,8366.6,13516.7,13530.5999999996,1,8366.6,5163.99999999963,0,NA,"Rating Scale","Rating Scale",9,"object-36","BIQ",NA,"SUPPRF87285"
"9",1708976582508,"26/02/2024 19:43:02",1708947782508,-8,"26/02/2024 03:43:02",167771,4,"task-gjqt",NA,35525250,10495197,NA,"complete",NA,"65dce8d9cab7e37ca604a9ef","computer","Desktop or Laptop","Mac OS 10.15.7","Chrome 122.0.0.0","1440x900","1426x692",NA,NA,0,"BIQ (Charlotte)",3,"GHFIEJDACB","Passed AC2","","Chocking_second","Spreadsheet1",1,"BIQ","Screen 2","o21mwi",2,"response","1",12766.5,13516.7,13531.2999999989,12766.5,13516.7,13531.2999999989,1,12766.5,764.799999998882,0,NA,"Rating Scale","Rating Scale",16,"object-86","BIQ",NA,"SUPPRF87285"
"10",1708976594260,"26/02/2024 19:43:14",1708947794260,-8,"26/02/2024 03:43:14",167771,4,"task-gjqt",NA,35525250,10495197,NA,"complete",NA,"65dce8d9cab7e37ca604a9ef","computer","Desktop or Laptop","Mac OS 10.15.7","Chrome 122.0.0.0","1440x900","1426x692",NA,NA,0,"BIQ (Charlotte)",3,"GHFIEJDACB","Passed AC2","","Chocking_second","Spreadsheet1",1,"BIQ","Screen 3","iz3the",3,"continue","",11766.5,11749.8,11766.5,11766.5,11749.8,11766.5,1,11766.5,0,0,NA,"Click To Continue","Continue Button",22,"object-73","BIQ",NA,"SUPPRF87285"
"11",1708976594264,"26/02/2024 19:43:14",1708947794264,-8,"26/02/2024 03:43:14",167771,4,"task-gjqt",NA,35525250,10495197,NA,"complete",NA,"65dce8d9cab7e37ca604a9ef","computer","Desktop or Laptop","Mac OS 10.15.7","Chrome 122.0.0.0","1440x900","1426x692",NA,NA,0,"BIQ (Charlotte)",3,"GHFIEJDACB","Passed AC2","","Chocking_second","Spreadsheet1",1,"BIQ","Screen 3","iz3the",3,"response","0",3983.2,11749.8,11766.5,3983.2,11749.8,11766.5,1,3983.2,7783.3,0,NA,"Rating Scale","Rating Scale",2,"object-53","BIQ",NA,"SUPPRF87285"
"12",1708976594265,"26/02/2024 19:43:14",1708947794265,-8,"26/02/2024 03:43:14",167771,4,"task-gjqt",NA,35525250,10495197,NA,"complete",NA,"65dce8d9cab7e37ca604a9ef","computer","Desktop or Laptop","Mac OS 10.15.7","Chrome 122.0.0.0","1440x900","1426x692",NA,NA,0,"BIQ (Charlotte)",3,"GHFIEJDACB","Passed AC2","","Chocking_second","Spreadsheet1",1,"BIQ","Screen 3","iz3the",3,"response","0",5866.4,11749.8,11766.5,5866.4,11749.8,11766.5,1,5866.4,5900.1,0,NA,"Rating Scale","Rating Scale",9,"object-60","BIQ",NA,"SUPPRF87285"
"13",1708976594265,"26/02/2024 19:43:14",1708947794265,-8,"26/02/2024 03:43:14",167771,4,"task-gjqt",NA,35525250,10495197,NA,"complete",NA,"65dce8d9cab7e37ca604a9ef","computer","Desktop or Laptop","Mac OS 10.15.7","Chrome 122.0.0.0","1440x900","1426x692",NA,NA,0,"BIQ (Charlotte)",3,"GHFIEJDACB","Passed AC2","","Chocking_second","Spreadsheet1",1,"BIQ","Screen 3","iz3the",3,"response","5",9816.2,11749.8,11766.5,9816.2,11749.8,11766.5,1,9816.2,1950.3,0,NA,"Rating Scale","Rating Scale",16,"object-67","BIQ",NA,"SUPPRF87285"
"14",1708976594272,"26/02/2024 19:43:14",1708947794272,-8,"26/02/2024 03:43:14",167771,4,"task-gjqt",NA,35525250,10495197,NA,"complete",NA,"65dce8d9cab7e37ca604a9ef","computer","Desktop or Laptop","Mac OS 10.15.7","Chrome 122.0.0.0","1440x900","1426x692",NA,NA,0,"BIQ (Charlotte)",3,"GHFIEJDACB","Passed AC2","","Chocking_second","Spreadsheet1",NA,"","","",NA,"5","END",NA,NA,NA,NA,NA,NA,0,NA,NA,NA,NA,"","",NA,"","",NA,"SUPPRF87285"
"1",1708977259316,"26/02/2024 19:54:19",1708977259316,0,"26/02/2024 19:54:19",167771,4,"task-gjqt",NA,35525664,10495308,NA,"complete",NA,"65dceba002a94d3dfdc24511","computer","Desktop or Laptop","Mac OS 10.15.7","Chrome 121.0.0.0","1440x900","1440x813",NA,NA,0,"BIQ (Charlotte)",3,"HIGJFAEBDC","Passed AC2","","Chocking_second","Spreadsheet1",NA,"","","",NA,"5","BEGIN",NA,NA,NA,NA,NA,NA,0,NA,NA,NA,NA,"","",NA,"","",NA,"SUPPRF00201"
"2",1708977279065,"26/02/2024 19:54:39",1708977279065,0,"26/02/2024 19:54:39",167771,4,"task-gjqt",NA,35525664,10495308,NA,"complete",NA,"65dceba002a94d3dfdc24511","computer","Desktop or Laptop","Mac OS 10.15.7","Chrome 121.0.0.0","1440x900","1440x813",NA,NA,0,"BIQ (Charlotte)",3,"HIGJFAEBDC","Passed AC2","","Chocking_second","Spreadsheet1",1,"BIQ","Screen 1","9dh6eq",1,"continue","",20455.8000000119,20442.2,20455.8000000119,20455.8000000119,20442.2,20455.8000000119,1,20455.8000000119,0,0,NA,"Click To Continue","Continue Button",23,"object-48","BIQ",NA,"SUPPRF00201"
"3",1708977279068,"26/02/2024 19:54:39",1708977279068,0,"26/02/2024 19:54:39",167771,4,"task-gjqt",NA,35525664,10495308,NA,"complete",NA,"65dceba002a94d3dfdc24511","computer","Desktop or Laptop","Mac OS 10.15.7","Chrome 121.0.0.0","1440x900","1440x813",NA,NA,0,"BIQ (Charlotte)",3,"HIGJFAEBDC","Passed AC2","","Chocking_second","Spreadsheet1",1,"BIQ","Screen 1","9dh6eq",1,"response","4",7758.7,20442.2,20458.9,7758.7,20442.2,20458.9,1,7758.7,12700.2,0,NA,"Rating Scale","Rating Scale",3,"object-5","BIQ",NA,"SUPPRF00201"
"4",1708977279068,"26/02/2024 19:54:39",1708977279068,0,"26/02/2024 19:54:39",167771,4,"task-gjqt",NA,35525664,10495308,NA,"complete",NA,"65dceba002a94d3dfdc24511","computer","Desktop or Laptop","Mac OS 10.15.7","Chrome 121.0.0.0","1440x900","1440x813",NA,NA,0,"BIQ (Charlotte)",3,"HIGJFAEBDC","Passed AC2","","Chocking_second","Spreadsheet1",1,"BIQ","Screen 1","9dh6eq",1,"response","1",14359.1,20442.2,20458.9,14359.1,20442.2,20458.9,1,14359.1,6099.8,0,NA,"Rating Scale","Rating Scale",10,"object-18","BIQ",NA,"SUPPRF00201"
"5",1708977279068,"26/02/2024 19:54:39",1708977279068,0,"26/02/2024 19:54:39",167771,4,"task-gjqt",NA,35525664,10495308,NA,"complete",NA,"65dceba002a94d3dfdc24511","computer","Desktop or Laptop","Mac OS 10.15.7","Chrome 121.0.0.0","1440x900","1440x813",NA,NA,0,"BIQ (Charlotte)",3,"HIGJFAEBDC","Passed AC2","","Chocking_second","Spreadsheet1",1,"BIQ","Screen 1","9dh6eq",1,"response","3",19558.8,20442.2,20458.9,19558.8,20442.2,20458.9,1,19558.8,900.100000000002,0,NA,"Rating Scale","Rating Scale",17,"object-80","BIQ",NA,"SUPPRF00201"
"6",1708977319493,"26/02/2024 19:55:19",1708977319493,0,"26/02/2024 19:55:19",167771,4,"task-gjqt",NA,35525664,10495308,NA,"complete",NA,"65dceba002a94d3dfdc24511","computer","Desktop or Laptop","Mac OS 10.15.7","Chrome 121.0.0.0","1440x900","1440x813",NA,NA,0,"BIQ (Charlotte)",3,"HIGJFAEBDC","Passed AC2","","Chocking_second","Spreadsheet1",1,"BIQ","Screen 2","o21mwi",2,"continue","",40442.5000000477,40434.2,40442.5000000477,40442.5000000477,40434.2,40442.5000000477,1,40442.5000000477,0,0,NA,"Click To Continue","Continue Button",22,"object-50","BIQ",NA,"SUPPRF00201"
"7",1708977319497,"26/02/2024 19:55:19",1708977319497,0,"26/02/2024 19:55:19",167771,4,"task-gjqt",NA,35525664,10495308,NA,"complete",NA,"65dceba002a94d3dfdc24511","computer","Desktop or Laptop","Mac OS 10.15.7","Chrome 121.0.0.0","1440x900","1440x813",NA,NA,0,"BIQ (Charlotte)",3,"HIGJFAEBDC","Passed AC2","","Chocking_second","Spreadsheet1",1,"BIQ","Screen 2","o21mwi",2,"response","7",5950.3,40434.2,40446.7000000358,5950.3,40434.2,40446.7000000358,1,5950.3,34496.4000000358,0,NA,"Rating Scale","Rating Scale",2,"object-259","BIQ",NA,"SUPPRF00201"
"8",1708977319497,"26/02/2024 19:55:19",1708977319497,0,"26/02/2024 19:55:19",167771,4,"task-gjqt",NA,35525664,10495308,NA,"complete",NA,"65dceba002a94d3dfdc24511","computer","Desktop or Laptop","Mac OS 10.15.7","Chrome 121.0.0.0","1440x900","1440x813",NA,NA,0,"BIQ (Charlotte)",3,"HIGJFAEBDC","Passed AC2","","Chocking_second","Spreadsheet1",1,"BIQ","Screen 2","o21mwi",2,"response","2",29200.7,40434.2,40447.4000000238,29200.7,40434.2,40447.4000000238,1,29200.7,11246.7000000238,0,NA,"Rating Scale","Rating Scale",9,"object-36","BIQ",NA,"SUPPRF00201"
"9",1708977319498,"26/02/2024 19:55:19",1708977319498,0,"26/02/2024 19:55:19",167771,4,"task-gjqt",NA,35525664,10495308,NA,"complete",NA,"65dceba002a94d3dfdc24511","computer","Desktop or Laptop","Mac OS 10.15.7","Chrome 121.0.0.0","1440x900","1440x813",NA,NA,0,"BIQ (Charlotte)",3,"HIGJFAEBDC","Passed AC2","","Chocking_second","Spreadsheet1",1,"BIQ","Screen 2","o21mwi",2,"response","1",39484.2,40434.2,40447.7000000358,39484.2,40434.2,40447.7000000358,1,39484.2,963.500000035769,0,NA,"Rating Scale","Rating Scale",16,"object-86","BIQ",NA,"SUPPRF00201"
"10",1708977330544,"26/02/2024 19:55:30",1708977330544,0,"26/02/2024 19:55:30",167771,4,"task-gjqt",NA,35525664,10495308,NA,"complete",NA,"65dceba002a94d3dfdc24511","computer","Desktop or Laptop","Mac OS 10.15.7","Chrome 121.0.0.0","1440x900","1440x813",NA,NA,0,"BIQ (Charlotte)",3,"HIGJFAEBDC","Passed AC2","","Chocking_second","Spreadsheet1",1,"BIQ","Screen 3","iz3the",3,"continue","",11059.3000000477,11050.2,11059.3000000477,11059.3000000477,11050.2,11059.3000000477,1,11059.3000000477,0,0,NA,"Click To Continue","Continue Button",22,"object-73","BIQ",NA,"SUPPRF00201"
"11",1708977330547,"26/02/2024 19:55:30",1708977330547,0,"26/02/2024 19:55:30",167771,4,"task-gjqt",NA,35525664,10495308,NA,"complete",NA,"65dceba002a94d3dfdc24511","computer","Desktop or Laptop","Mac OS 10.15.7","Chrome 121.0.0.0","1440x900","1440x813",NA,NA,0,"BIQ (Charlotte)",3,"HIGJFAEBDC","Passed AC2","","Chocking_second","Spreadsheet1",1,"BIQ","Screen 3","iz3the",3,"response","0",5350.4,11050.2,11063.1,5350.4,11050.2,11063.1,1,5350.4,5712.7,0,NA,"Rating Scale","Rating Scale",2,"object-53","BIQ",NA,"SUPPRF00201"
"12",1708977330548,"26/02/2024 19:55:30",1708977330548,0,"26/02/2024 19:55:30",167771,4,"task-gjqt",NA,35525664,10495308,NA,"complete",NA,"65dceba002a94d3dfdc24511","computer","Desktop or Laptop","Mac OS 10.15.7","Chrome 121.0.0.0","1440x900","1440x813",NA,NA,0,"BIQ (Charlotte)",3,"HIGJFAEBDC","Passed AC2","","Chocking_second","Spreadsheet1",1,"BIQ","Screen 3","iz3the",3,"response","2",7216.99999999999,11050.2,11063.6,7216.99999999999,11050.2,11063.6,1,7216.99999999999,3846.60000000001,0,NA,"Rating Scale","Rating Scale",9,"object-60","BIQ",NA,"SUPPRF00201"
"13",1708977330548,"26/02/2024 19:55:30",1708977330548,0,"26/02/2024 19:55:30",167771,4,"task-gjqt",NA,35525664,10495308,NA,"complete",NA,"65dceba002a94d3dfdc24511","computer","Desktop or Laptop","Mac OS 10.15.7","Chrome 121.0.0.0","1440x900","1440x813",NA,NA,0,"BIQ (Charlotte)",3,"HIGJFAEBDC","Passed AC2","","Chocking_second","Spreadsheet1",1,"BIQ","Screen 3","iz3the",3,"response","6",10166.9,11050.2,11064.1,10166.9,11050.2,11064.1,1,10166.9,897.199999999997,0,NA,"Rating Scale","Rating Scale",16,"object-67","BIQ",NA,"SUPPRF00201"
"14",1708977330554,"26/02/2024 19:55:30",1708977330554,0,"26/02/2024 19:55:30",167771,4,"task-gjqt",NA,35525664,10495308,NA,"complete",NA,"65dceba002a94d3dfdc24511","computer","Desktop or Laptop","Mac OS 10.15.7","Chrome 121.0.0.0","1440x900","1440x813",NA,NA,0,"BIQ (Charlotte)",3,"HIGJFAEBDC","Passed AC2","","Chocking_second","Spreadsheet1",NA,"","","",NA,"5","END",NA,NA,NA,NA,NA,NA,0,NA,NA,NA,NA,"","",NA,"","",NA,"SUPPRF00201"
"1",1708977555917,"26/02/2024 19:59:15",1708959555917,-5,"26/02/2024 09:59:15",167771,4,"task-gjqt",NA,35525776,10495316,NA,"complete",NA,"65dcec09d5e1a6a3349a3837","computer","Desktop or Laptop","Mac OS 10.15.7","Chrome 121.0.0.0","1280x800","1243x690",NA,NA,0,"BIQ (Charlotte)",3,"IJHAGBFCED","Passed AC2","","Chocking_second","Spreadsheet1",NA,"","","",NA,"5","BEGIN",NA,NA,NA,NA,NA,NA,0,NA,NA,NA,NA,"","",NA,"","",NA,"SUPPRF64585"
"2",1708977657254,"26/02/2024 20:00:57",1708959657254,-5,"26/02/2024 10:00:57",167771,4,"task-gjqt",NA,35525776,10495316,NA,"complete",NA,"65dcec09d5e1a6a3349a3837","computer","Desktop or Laptop","Mac OS 10.15.7","Chrome 121.0.0.0","1280x800","1243x690",NA,NA,0,"BIQ (Charlotte)",3,"IJHAGBFCED","Passed AC2","","Chocking_second","Spreadsheet1",1,"BIQ","Screen 1","9dh6eq",1,"continue","",101345.900000003,101336.3,101345.900000003,101345.900000003,101336.3,101345.900000003,1,101345.900000003,0,0,NA,"Click To Continue","Continue Button",23,"object-48","BIQ",NA,"SUPPRF64585"
"3",1708977657256,"26/02/2024 20:00:57",1708959657256,-5,"26/02/2024 10:00:57",167771,4,"task-gjqt",NA,35525776,10495316,NA,"complete",NA,"65dcec09d5e1a6a3349a3837","computer","Desktop or Laptop","Mac OS 10.15.7","Chrome 121.0.0.0","1280x800","1243x690",NA,NA,0,"BIQ (Charlotte)",3,"IJHAGBFCED","Passed AC2","","Chocking_second","Spreadsheet1",1,"BIQ","Screen 1","9dh6eq",1,"response","4",16185.8,101336.3,101349.400000003,16185.8,101336.3,101349.400000003,1,16185.8,85163.600000003,0,NA,"Rating Scale","Rating Scale",3,"object-5","BIQ",NA,"SUPPRF64585"
"4",1708977657256,"26/02/2024 20:00:57",1708959657256,-5,"26/02/2024 10:00:57",167771,4,"task-gjqt",NA,35525776,10495316,NA,"complete",NA,"65dcec09d5e1a6a3349a3837","computer","Desktop or Laptop","Mac OS 10.15.7","Chrome 121.0.0.0","1280x800","1243x690",NA,NA,0,"BIQ (Charlotte)",3,"IJHAGBFCED","Passed AC2","","Chocking_second","Spreadsheet1",1,"BIQ","Screen 1","9dh6eq",1,"response","5",26594.7,101336.3,101349.800000001,26594.7,101336.3,101349.800000001,1,26594.7,74755.1000000015,0,NA,"Rating Scale","Rating Scale",10,"object-18","BIQ",NA,"SUPPRF64585"
"5",1708977657257,"26/02/2024 20:00:57",1708959657257,-5,"26/02/2024 10:00:57",167771,4,"task-gjqt",NA,35525776,10495316,NA,"complete",NA,"65dcec09d5e1a6a3349a3837","computer","Desktop or Laptop","Mac OS 10.15.7","Chrome 121.0.0.0","1280x800","1243x690",NA,NA,0,"BIQ (Charlotte)",3,"IJHAGBFCED","Passed AC2","","Chocking_second","Spreadsheet1",1,"BIQ","Screen 1","9dh6eq",1,"response","4",99073.8,101336.3,101350.100000006,99073.8,101336.3,101350.100000006,1,99073.8,2276.30000000595,0,NA,"Rating Scale","Rating Scale",17,"object-80","BIQ",NA,"SUPPRF64585"
"6",1708977694031,"26/02/2024 20:01:34",1708959694031,-5,"26/02/2024 10:01:34",167771,4,"task-gjqt",NA,35525776,10495316,NA,"complete",NA,"65dcec09d5e1a6a3349a3837","computer","Desktop or Laptop","Mac OS 10.15.7","Chrome 121.0.0.0","1280x800","1243x690",NA,NA,0,"BIQ (Charlotte)",3,"IJHAGBFCED","Passed AC2","","Chocking_second","Spreadsheet1",1,"BIQ","Screen 2","o21mwi",2,"continue","",36787.600000003,36779,36787.600000003,36787.600000003,36779,36787.600000003,1,36787.600000003,0,0,NA,"Click To Continue","Continue Button",22,"object-50","BIQ",NA,"SUPPRF64585"
"7",1708977694034,"26/02/2024 20:01:34",1708959694034,-5,"26/02/2024 10:01:34",167771,4,"task-gjqt",NA,35525776,10495316,NA,"complete",NA,"65dcec09d5e1a6a3349a3837","computer","Desktop or Laptop","Mac OS 10.15.7","Chrome 121.0.0.0","1280x800","1243x690",NA,NA,0,"BIQ (Charlotte)",3,"IJHAGBFCED","Passed AC2","","Chocking_second","Spreadsheet1",1,"BIQ","Screen 2","o21mwi",2,"response","6",10879.3,36779,36790.300000006,10879.3,36779,36790.300000006,1,10879.3,25911.000000006,0,NA,"Rating Scale","Rating Scale",2,"object-259","BIQ",NA,"SUPPRF64585"
"8",1708977694035,"26/02/2024 20:01:34",1708959694035,-5,"26/02/2024 10:01:34",167771,4,"task-gjqt",NA,35525776,10495316,NA,"complete",NA,"65dcec09d5e1a6a3349a3837","computer","Desktop or Laptop","Mac OS 10.15.7","Chrome 121.0.0.0","1280x800","1243x690",NA,NA,0,"BIQ (Charlotte)",3,"IJHAGBFCED","Passed AC2","","Chocking_second","Spreadsheet1",1,"BIQ","Screen 2","o21mwi",2,"response","2",26150.2,36779,36790.9,26150.2,36779,36790.9,1,26150.2,10640.7,0,NA,"Rating Scale","Rating Scale",9,"object-36","BIQ",NA,"SUPPRF64585"
"9",1708977694038,"26/02/2024 20:01:34",1708959694038,-5,"26/02/2024 10:01:34",167771,4,"task-gjqt",NA,35525776,10495316,NA,"complete",NA,"65dcec09d5e1a6a3349a3837","computer","Desktop or Laptop","Mac OS 10.15.7","Chrome 121.0.0.0","1280x800","1243x690",NA,NA,0,"BIQ (Charlotte)",3,"IJHAGBFCED","Passed AC2","","Chocking_second","Spreadsheet1",1,"BIQ","Screen 2","o21mwi",2,"response","4",36376,36779,36793.800000006,36376,36779,36793.800000006,1,36376,417.800000005955,0,NA,"Rating Scale","Rating Scale",16,"object-86","BIQ",NA,"SUPPRF64585"
"10",1708977716344,"26/02/2024 20:01:56",1708959716344,-5,"26/02/2024 10:01:56",167771,4,"task-gjqt",NA,35525776,10495316,NA,"complete",NA,"65dcec09d5e1a6a3349a3837","computer","Desktop or Laptop","Mac OS 10.15.7","Chrome 121.0.0.0","1280x800","1243x690",NA,NA,0,"BIQ (Charlotte)",3,"IJHAGBFCED","Passed AC2","","Chocking_second","Spreadsheet1",1,"BIQ","Screen 3","iz3the",3,"continue","",22320.4,22316.9,22320.4,22320.4,22316.9,22320.4,1,22320.4,0,0,NA,"Click To Continue","Continue Button",22,"object-73","BIQ",NA,"SUPPRF64585"
"11",1708977716346,"26/02/2024 20:01:56",1708959716346,-5,"26/02/2024 10:01:56",167771,4,"task-gjqt",NA,35525776,10495316,NA,"complete",NA,"65dcec09d5e1a6a3349a3837","computer","Desktop or Laptop","Mac OS 10.15.7","Chrome 121.0.0.0","1280x800","1243x690",NA,NA,0,"BIQ (Charlotte)",3,"IJHAGBFCED","Passed AC2","","Chocking_second","Spreadsheet1",1,"BIQ","Screen 3","iz3the",3,"response","0",7966.19999999998,22316.9,22322.699999997,7966.19999999998,22316.9,22322.699999997,1,7966.19999999998,14356.499999997,0,NA,"Rating Scale","Rating Scale",2,"object-53","BIQ",NA,"SUPPRF64585"
"12",1708977716347,"26/02/2024 20:01:56",1708959716347,-5,"26/02/2024 10:01:56",167771,4,"task-gjqt",NA,35525776,10495316,NA,"complete",NA,"65dcec09d5e1a6a3349a3837","computer","Desktop or Laptop","Mac OS 10.15.7","Chrome 121.0.0.0","1280x800","1243x690",NA,NA,0,"BIQ (Charlotte)",3,"IJHAGBFCED","Passed AC2","","Chocking_second","Spreadsheet1",1,"BIQ","Screen 3","iz3the",3,"response","2",16714.2,22316.9,22323.199999997,16714.2,22316.9,22323.199999997,1,16714.2,5608.99999999703,0,NA,"Rating Scale","Rating Scale",9,"object-60","BIQ",NA,"SUPPRF64585"
"13",1708977716347,"26/02/2024 20:01:56",1708959716347,-5,"26/02/2024 10:01:56",167771,4,"task-gjqt",NA,35525776,10495316,NA,"complete",NA,"65dcec09d5e1a6a3349a3837","computer","Desktop or Laptop","Mac OS 10.15.7","Chrome 121.0.0.0","1280x800","1243x690",NA,NA,0,"BIQ (Charlotte)",3,"IJHAGBFCED","Passed AC2","","Chocking_second","Spreadsheet1",1,"BIQ","Screen 3","iz3the",3,"response","3",20907.6,22316.9,22323.600000003,20907.6,22316.9,22323.600000003,1,20907.6,1416.00000000297,0,NA,"Rating Scale","Rating Scale",16,"object-67","BIQ",NA,"SUPPRF64585"
"14",1708977716353,"26/02/2024 20:01:56",1708959716353,-5,"26/02/2024 10:01:56",167771,4,"task-gjqt",NA,35525776,10495316,NA,"complete",NA,"65dcec09d5e1a6a3349a3837","computer","Desktop or Laptop","Mac OS 10.15.7","Chrome 121.0.0.0","1280x800","1243x690",NA,NA,0,"BIQ (Charlotte)",3,"IJHAGBFCED","Passed AC2","","Chocking_second","Spreadsheet1",NA,"","","",NA,"5","END",NA,NA,NA,NA,NA,NA,0,NA,NA,NA,NA,"","",NA,"","",NA,"SUPPRF64585"
"1",1708978162263,"26/02/2024 20:09:22",1708960162263,-5,"26/02/2024 10:09:22",167771,4,"task-gjqt",NA,35526071,10495365,NA,"complete",NA,"65dced46926eb51a950e86da","computer","Desktop or Laptop","Windows 10","Chrome 122.0.0.0","1504x1003","1504x868",NA,NA,0,"BIQ (Charlotte)",3,"JAIBHCGDFE","Passed AC2","","Chocking_first","Spreadsheet1",NA,"","","",NA,"5","BEGIN",NA,NA,NA,NA,NA,NA,0,NA,NA,NA,NA,"","",NA,"","",NA,"SUPPRF09191"
"2",1708978185048,"26/02/2024 20:09:45",1708960185048,-5,"26/02/2024 10:09:45",167771,4,"task-gjqt",NA,35526071,10495365,NA,"complete",NA,"65dced46926eb51a950e86da","computer","Desktop or Laptop","Windows 10","Chrome 122.0.0.0","1504x1003","1504x868",NA,NA,0,"BIQ (Charlotte)",3,"JAIBHCGDFE","Passed AC2","","Chocking_first","Spreadsheet1",1,"BIQ","Screen 1","9dh6eq",1,"continue","",22808.4999999642,22793.9,22808.4999999642,22808.4999999642,22793.9,22808.4999999642,1,22808.4999999642,0,0,NA,"Click To Continue","Continue Button",23,"object-48","BIQ",NA,"SUPPRF09191"
"3",1708978185053,"26/02/2024 20:09:45",1708960185053,-5,"26/02/2024 10:09:45",167771,4,"task-gjqt",NA,35526071,10495365,NA,"complete",NA,"65dced46926eb51a950e86da","computer","Desktop or Laptop","Windows 10","Chrome 122.0.0.0","1504x1003","1504x868",NA,NA,0,"BIQ (Charlotte)",3,"JAIBHCGDFE","Passed AC2","","Chocking_first","Spreadsheet1",1,"BIQ","Screen 1","9dh6eq",1,"response","4",5260.4,22793.9,22810.4,5260.4,22793.9,22810.4,1,5260.4,17550,0,NA,"Rating Scale","Rating Scale",3,"object-5","BIQ",NA,"SUPPRF09191"
"4",1708978185054,"26/02/2024 20:09:45",1708960185054,-5,"26/02/2024 10:09:45",167771,4,"task-gjqt",NA,35526071,10495365,NA,"complete",NA,"65dced46926eb51a950e86da","computer","Desktop or Laptop","Windows 10","Chrome 122.0.0.0","1504x1003","1504x868",NA,NA,0,"BIQ (Charlotte)",3,"JAIBHCGDFE","Passed AC2","","Chocking_first","Spreadsheet1",1,"BIQ","Screen 1","9dh6eq",1,"response","5",16093.7,22793.9,22810.4,16093.7,22793.9,22810.4,1,16093.7,6716.7,0,NA,"Rating Scale","Rating Scale",10,"object-18","BIQ",NA,"SUPPRF09191"
"5",1708978185055,"26/02/2024 20:09:45",1708960185055,-5,"26/02/2024 10:09:45",167771,4,"task-gjqt",NA,35526071,10495365,NA,"complete",NA,"65dced46926eb51a950e86da","computer","Desktop or Laptop","Windows 10","Chrome 122.0.0.0","1504x1003","1504x868",NA,NA,0,"BIQ (Charlotte)",3,"JAIBHCGDFE","Passed AC2","","Chocking_first","Spreadsheet1",1,"BIQ","Screen 1","9dh6eq",1,"response","3",21543.6,22793.9,22810.4,21543.6,22793.9,22810.4,1,21543.6,1266.8,0,NA,"Rating Scale","Rating Scale",17,"object-80","BIQ",NA,"SUPPRF09191"
"6",1708978200982,"26/02/2024 20:10:00",1708960200982,-5,"26/02/2024 10:10:00",167771,4,"task-gjqt",NA,35526071,10495365,NA,"complete",NA,"65dced46926eb51a950e86da","computer","Desktop or Laptop","Windows 10","Chrome 122.0.0.0","1504x1003","1504x868",NA,NA,0,"BIQ (Charlotte)",3,"JAIBHCGDFE","Passed AC2","","Chocking_first","Spreadsheet1",1,"BIQ","Screen 2","o21mwi",2,"continue","",15949.5999999642,15933.2,15949.5999999642,15949.5999999642,15933.2,15949.5999999642,1,15949.5999999642,0,0,NA,"Click To Continue","Continue Button",22,"object-50","BIQ",NA,"SUPPRF09191"
"7",1708978200988,"26/02/2024 20:10:00",1708960200988,-5,"26/02/2024 10:10:00",167771,4,"task-gjqt",NA,35526071,10495365,NA,"complete",NA,"65dced46926eb51a950e86da","computer","Desktop or Laptop","Windows 10","Chrome 122.0.0.0","1504x1003","1504x868",NA,NA,0,"BIQ (Charlotte)",3,"JAIBHCGDFE","Passed AC2","","Chocking_first","Spreadsheet1",1,"BIQ","Screen 2","o21mwi",2,"response","8",7183,15933.2,15949.8,7183,15933.2,15949.8,1,7183,8766.8,0,NA,"Rating Scale","Rating Scale",2,"object-259","BIQ",NA,"SUPPRF09191"
"8",1708978200989,"26/02/2024 20:10:00",1708960200989,-5,"26/02/2024 10:10:00",167771,4,"task-gjqt",NA,35526071,10495365,NA,"complete",NA,"65dced46926eb51a950e86da","computer","Desktop or Laptop","Windows 10","Chrome 122.0.0.0","1504x1003","1504x868",NA,NA,0,"BIQ (Charlotte)",3,"JAIBHCGDFE","Passed AC2","","Chocking_first","Spreadsheet1",1,"BIQ","Screen 2","o21mwi",2,"response","3",10199.6,15933.2,15949.8,10199.6,15933.2,15949.8,1,10199.6,5750.2,0,NA,"Rating Scale","Rating Scale",9,"object-36","BIQ",NA,"SUPPRF09191"
"9",1708978200990,"26/02/2024 20:10:00",1708960200990,-5,"26/02/2024 10:10:00",167771,4,"task-gjqt",NA,35526071,10495365,NA,"complete",NA,"65dced46926eb51a950e86da","computer","Desktop or Laptop","Windows 10","Chrome 122.0.0.0","1504x1003","1504x868",NA,NA,0,"BIQ (Charlotte)",3,"JAIBHCGDFE","Passed AC2","","Chocking_first","Spreadsheet1",1,"BIQ","Screen 2","o21mwi",2,"response","0",14599.9,15933.2,15949.8,14599.9,15933.2,15949.8,1,14599.9,1349.89999999999,0,NA,"Rating Scale","Rating Scale",16,"object-86","BIQ",NA,"SUPPRF09191"
"10",1708978210195,"26/02/2024 20:10:10",1708960210195,-5,"26/02/2024 10:10:10",167771,4,"task-gjqt",NA,35526071,10495365,NA,"complete",NA,"65dced46926eb51a950e86da","computer","Desktop or Laptop","Windows 10","Chrome 122.0.0.0","1504x1003","1504x868",NA,NA,0,"BIQ (Charlotte)",3,"JAIBHCGDFE","Passed AC2","","Chocking_first","Spreadsheet1",1,"BIQ","Screen 3","iz3the",3,"continue","",9229.3,9216.4,9229.3,9229.3,9216.4,9229.3,1,9229.3,0,0,NA,"Click To Continue","Continue Button",22,"object-73","BIQ",NA,"SUPPRF09191"
"11",1708978210196,"26/02/2024 20:10:10",1708960210196,-5,"26/02/2024 10:10:10",167771,4,"task-gjqt",NA,35526071,10495365,NA,"complete",NA,"65dced46926eb51a950e86da","computer","Desktop or Laptop","Windows 10","Chrome 122.0.0.0","1504x1003","1504x868",NA,NA,0,"BIQ (Charlotte)",3,"JAIBHCGDFE","Passed AC2","","Chocking_first","Spreadsheet1",1,"BIQ","Screen 3","iz3the",3,"response","0",3116.4,9216.4,9230.59999995232,3116.4,9216.4,9230.59999995232,1,3116.4,6114.19999995232,0,NA,"Rating Scale","Rating Scale",2,"object-53","BIQ",NA,"SUPPRF09191"
"12",1708978210197,"26/02/2024 20:10:10",1708960210197,-5,"26/02/2024 10:10:10",167771,4,"task-gjqt",NA,35526071,10495365,NA,"complete",NA,"65dced46926eb51a950e86da","computer","Desktop or Laptop","Windows 10","Chrome 122.0.0.0","1504x1003","1504x868",NA,NA,0,"BIQ (Charlotte)",3,"JAIBHCGDFE","Passed AC2","","Chocking_first","Spreadsheet1",1,"BIQ","Screen 3","iz3the",3,"response","2",4649.7,9216.4,9231.59999995232,4649.7,9216.4,9231.59999995232,1,4649.7,4581.89999995231,0,NA,"Rating Scale","Rating Scale",9,"object-60","BIQ",NA,"SUPPRF09191"
"13",1708978210198,"26/02/2024 20:10:10",1708960210198,-5,"26/02/2024 10:10:10",167771,4,"task-gjqt",NA,35526071,10495365,NA,"complete",NA,"65dced46926eb51a950e86da","computer","Desktop or Laptop","Windows 10","Chrome 122.0.0.0","1504x1003","1504x868",NA,NA,0,"BIQ (Charlotte)",3,"JAIBHCGDFE","Passed AC2","","Chocking_first","Spreadsheet1",1,"BIQ","Screen 3","iz3the",3,"response","5",8016.3,9216.4,9232.69999997616,8016.3,9216.4,9232.69999997616,1,8016.3,1216.39999997616,0,NA,"Rating Scale","Rating Scale",16,"object-67","BIQ",NA,"SUPPRF09191"
"14",1708978210211,"26/02/2024 20:10:10",1708960210211,-5,"26/02/2024 10:10:10",167771,4,"task-gjqt",NA,35526071,10495365,NA,"complete",NA,"65dced46926eb51a950e86da","computer","Desktop or Laptop","Windows 10","Chrome 122.0.0.0","1504x1003","1504x868",NA,NA,0,"BIQ (Charlotte)",3,"JAIBHCGDFE","Passed AC2","","Chocking_first","Spreadsheet1",NA,"","","",NA,"5","END",NA,NA,NA,NA,NA,NA,0,NA,NA,NA,NA,"","",NA,"","",NA,"SUPPRF09191"
"1",1708978301253,"26/02/2024 20:11:41",1708978301253,0,"26/02/2024 20:11:41",167771,4,"task-gjqt",NA,35526136,10495375,NA,"complete",NA,"65dce39a39457860b3e43fc8","computer","Desktop or Laptop","Mac OS 10.15.7","Chrome 121.0.0.0","1710x1107","1710x948",NA,NA,0,"BIQ (Charlotte)",3,"ABJCIDHEGF","Passed AC2","","Chocking_first","Spreadsheet1",NA,"","","",NA,"5","BEGIN",NA,NA,NA,NA,NA,NA,0,NA,NA,NA,NA,"","",NA,"","",NA,"SUPPRF01454"
"2",1708978326904,"26/02/2024 20:12:06",1708978326904,0,"26/02/2024 20:12:06",167771,4,"task-gjqt",NA,35526136,10495375,NA,"complete",NA,"65dce39a39457860b3e43fc8","computer","Desktop or Laptop","Mac OS 10.15.7","Chrome 121.0.0.0","1710x1107","1710x948",NA,NA,0,"BIQ (Charlotte)",3,"ABJCIDHEGF","Passed AC2","","Chocking_first","Spreadsheet1",1,"BIQ","Screen 1","9dh6eq",1,"continue","",25667.042,25650.342,25667.042,25667.042,25650.342,25667.042,1,25667.042,0,0,NA,"Click To Continue","Continue Button",23,"object-48","BIQ",NA,"SUPPRF01454"
"3",1708978326907,"26/02/2024 20:12:06",1708978326907,0,"26/02/2024 20:12:06",167771,4,"task-gjqt",NA,35526136,10495375,NA,"complete",NA,"65dce39a39457860b3e43fc8","computer","Desktop or Laptop","Mac OS 10.15.7","Chrome 121.0.0.0","1710x1107","1710x948",NA,NA,0,"BIQ (Charlotte)",3,"ABJCIDHEGF","Passed AC2","","Chocking_first","Spreadsheet1",1,"BIQ","Screen 1","9dh6eq",1,"response","7",9300.042,25650.342,25667.042,9300.042,25650.342,25667.042,1,9300.042,16367,0,NA,"Rating Scale","Rating Scale",3,"object-5","BIQ",NA,"SUPPRF01454"
"4",1708978326907,"26/02/2024 20:12:06",1708978326907,0,"26/02/2024 20:12:06",167771,4,"task-gjqt",NA,35526136,10495375,NA,"complete",NA,"65dce39a39457860b3e43fc8","computer","Desktop or Laptop","Mac OS 10.15.7","Chrome 121.0.0.0","1710x1107","1710x948",NA,NA,0,"BIQ (Charlotte)",3,"ABJCIDHEGF","Passed AC2","","Chocking_first","Spreadsheet1",1,"BIQ","Screen 1","9dh6eq",1,"response","8",17983.542,25650.342,25667.042,17983.542,25650.342,25667.042,1,17983.542,7683.5,0,NA,"Rating Scale","Rating Scale",10,"object-18","BIQ",NA,"SUPPRF01454"
"5",1708978326907,"26/02/2024 20:12:06",1708978326907,0,"26/02/2024 20:12:06",167771,4,"task-gjqt",NA,35526136,10495375,NA,"complete",NA,"65dce39a39457860b3e43fc8","computer","Desktop or Laptop","Mac OS 10.15.7","Chrome 121.0.0.0","1710x1107","1710x948",NA,NA,0,"BIQ (Charlotte)",3,"ABJCIDHEGF","Passed AC2","","Chocking_first","Spreadsheet1",1,"BIQ","Screen 1","9dh6eq",1,"response","0",22182.642,25650.342,25667.042,22182.642,25650.342,25667.042,1,22182.642,3484.39999999999,0,NA,"Rating Scale","Rating Scale",17,"object-80","BIQ",NA,"SUPPRF01454"
"6",1708978344561,"26/02/2024 20:12:24",1708978344561,0,"26/02/2024 20:12:24",167771,4,"task-gjqt",NA,35526136,10495375,NA,"complete",NA,"65dce39a39457860b3e43fc8","computer","Desktop or Laptop","Mac OS 10.15.7","Chrome 121.0.0.0","1710x1107","1710x948",NA,NA,0,"BIQ (Charlotte)",3,"ABJCIDHEGF","Passed AC2","","Chocking_first","Spreadsheet1",1,"BIQ","Screen 2","o21mwi",2,"continue","",17676.1999999998,17666.9,17676.1999999998,17676.1999999998,17666.9,17676.1999999998,1,17676.1999999998,0,0,NA,"Click To Continue","Continue Button",22,"object-50","BIQ",NA,"SUPPRF01454"
"7",1708978344564,"26/02/2024 20:12:24",1708978344564,0,"26/02/2024 20:12:24",167771,4,"task-gjqt",NA,35526136,10495375,NA,"complete",NA,"65dce39a39457860b3e43fc8","computer","Desktop or Laptop","Mac OS 10.15.7","Chrome 121.0.0.0","1710x1107","1710x948",NA,NA,0,"BIQ (Charlotte)",3,"ABJCIDHEGF","Passed AC2","","Chocking_first","Spreadsheet1",1,"BIQ","Screen 2","o21mwi",2,"response","8",4533.4,17666.9,17680.5000000001,4533.4,17666.9,17680.5000000001,1,4533.4,13147.1000000001,0,NA,"Rating Scale","Rating Scale",2,"object-259","BIQ",NA,"SUPPRF01454"
"8",1708978344565,"26/02/2024 20:12:24",1708978344565,0,"26/02/2024 20:12:24",167771,4,"task-gjqt",NA,35526136,10495375,NA,"complete",NA,"65dce39a39457860b3e43fc8","computer","Desktop or Laptop","Mac OS 10.15.7","Chrome 121.0.0.0","1710x1107","1710x948",NA,NA,0,"BIQ (Charlotte)",3,"ABJCIDHEGF","Passed AC2","","Chocking_first","Spreadsheet1",1,"BIQ","Screen 2","o21mwi",2,"response","1",7549.6,17666.9,17681.0000000001,7549.6,17666.9,17681.0000000001,1,7549.6,10131.4000000001,0,NA,"Rating Scale","Rating Scale",9,"object-36","BIQ",NA,"SUPPRF01454"
"9",1708978344565,"26/02/2024 20:12:24",1708978344565,0,"26/02/2024 20:12:24",167771,4,"task-gjqt",NA,35526136,10495375,NA,"complete",NA,"65dce39a39457860b3e43fc8","computer","Desktop or Laptop","Mac OS 10.15.7","Chrome 121.0.0.0","1710x1107","1710x948",NA,NA,0,"BIQ (Charlotte)",3,"ABJCIDHEGF","Passed AC2","","Chocking_first","Spreadsheet1",1,"BIQ","Screen 2","o21mwi",2,"response","2",16983.6,17666.9,17681.4,16983.6,17666.9,17681.4,1,16983.6,697.800000000003,0,NA,"Rating Scale","Rating Scale",16,"object-86","BIQ",NA,"SUPPRF01454"
"10",1708978356237,"26/02/2024 20:12:36",1708978356237,0,"26/02/2024 20:12:36",167771,4,"task-gjqt",NA,35526136,10495375,NA,"complete",NA,"65dce39a39457860b3e43fc8","computer","Desktop or Laptop","Mac OS 10.15.7","Chrome 121.0.0.0","1710x1107","1710x948",NA,NA,0,"BIQ (Charlotte)",3,"ABJCIDHEGF","Passed AC2","","Chocking_first","Spreadsheet1",1,"BIQ","Screen 3","iz3the",3,"continue","",11686.1999999997,11683.5,11686.1999999997,11686.1999999997,11683.5,11686.1999999997,1,11686.1999999997,0,0,NA,"Click To Continue","Continue Button",22,"object-73","BIQ",NA,"SUPPRF01454"
"11",1708978356240,"26/02/2024 20:12:36",1708978356240,0,"26/02/2024 20:12:36",167771,4,"task-gjqt",NA,35526136,10495375,NA,"complete",NA,"65dce39a39457860b3e43fc8","computer","Desktop or Laptop","Mac OS 10.15.7","Chrome 121.0.0.0","1710x1107","1710x948",NA,NA,0,"BIQ (Charlotte)",3,"ABJCIDHEGF","Passed AC2","","Chocking_first","Spreadsheet1",1,"BIQ","Screen 3","iz3the",3,"response","0",3850,11683.5,11689.6000000001,3850,11683.5,11689.6000000001,1,3850,7839.60000000009,0,NA,"Rating Scale","Rating Scale",2,"object-53","BIQ",NA,"SUPPRF01454"
"12",1708978356241,"26/02/2024 20:12:36",1708978356241,0,"26/02/2024 20:12:36",167771,4,"task-gjqt",NA,35526136,10495375,NA,"complete",NA,"65dce39a39457860b3e43fc8","computer","Desktop or Laptop","Mac OS 10.15.7","Chrome 121.0.0.0","1710x1107","1710x948",NA,NA,0,"BIQ (Charlotte)",3,"ABJCIDHEGF","Passed AC2","","Chocking_first","Spreadsheet1",1,"BIQ","Screen 3","iz3the",3,"response","0",7033.5,11683.5,11690,7033.5,11683.5,11690,1,7033.5,4656.5,0,NA,"Rating Scale","Rating Scale",9,"object-60","BIQ",NA,"SUPPRF01454"
"13",1708978356241,"26/02/2024 20:12:36",1708978356241,0,"26/02/2024 20:12:36",167771,4,"task-gjqt",NA,35526136,10495375,NA,"complete",NA,"65dce39a39457860b3e43fc8","computer","Desktop or Laptop","Mac OS 10.15.7","Chrome 121.0.0.0","1710x1107","1710x948",NA,NA,0,"BIQ (Charlotte)",3,"ABJCIDHEGF","Passed AC2","","Chocking_first","Spreadsheet1",1,"BIQ","Screen 3","iz3the",3,"response","4",10883.5,11683.5,11690.3999999999,10883.5,11683.5,11690.3999999999,1,10883.5,806.899999999907,0,NA,"Rating Scale","Rating Scale",16,"object-67","BIQ",NA,"SUPPRF01454"
"14",1708978356246,"26/02/2024 20:12:36",1708978356246,0,"26/02/2024 20:12:36",167771,4,"task-gjqt",NA,35526136,10495375,NA,"complete",NA,"65dce39a39457860b3e43fc8","computer","Desktop or Laptop","Mac OS 10.15.7","Chrome 121.0.0.0","1710x1107","1710x948",NA,NA,0,"BIQ (Charlotte)",3,"ABJCIDHEGF","Passed AC2","","Chocking_first","Spreadsheet1",NA,"","","",NA,"5","END",NA,NA,NA,NA,NA,NA,0,NA,NA,NA,NA,"","",NA,"","",NA,"SUPPRF01454"
"1",1708979098964,"26/02/2024 20:24:58",1708957498964,-6,"26/02/2024 08:24:58",167771,4,"task-gjqt",NA,35526612,10495518,NA,"complete",NA,"65dcf1725c4c8090ce3cb245","computer","Desktop or Laptop","Windows 10","Chrome 122.0.0.0","1536x864","1536x695",NA,NA,0,"BIQ (Charlotte)",3,"BCADJEIFHG","Passed AC2","","Chocking_second","Spreadsheet1",NA,"","","",NA,"5","BEGIN",NA,NA,NA,NA,NA,NA,0,NA,NA,NA,NA,"","",NA,"","",NA,"SUPPRF78484"
"2",1708979115972,"26/02/2024 20:25:15",1708957515972,-6,"26/02/2024 08:25:15",167771,4,"task-gjqt",NA,35526612,10495518,NA,"complete",NA,"65dcf1725c4c8090ce3cb245","computer","Desktop or Laptop","Windows 10","Chrome 122.0.0.0","1536x864","1536x695",NA,NA,0,"BIQ (Charlotte)",3,"BCADJEIFHG","Passed AC2","","Chocking_second","Spreadsheet1",1,"BIQ","Screen 1","9dh6eq",1,"continue","",17014.2999999046,17010.2,17014.2999999046,17014.2999999046,17010.2,17014.2999999046,1,17014.2999999046,0,0,NA,"Click To Continue","Continue Button",23,"object-48","BIQ",NA,"SUPPRF78484"
"3",1708979115973,"26/02/2024 20:25:15",1708957515973,-6,"26/02/2024 08:25:15",167771,4,"task-gjqt",NA,35526612,10495518,NA,"complete",NA,"65dcf1725c4c8090ce3cb245","computer","Desktop or Laptop","Windows 10","Chrome 122.0.0.0","1536x864","1536x695",NA,NA,0,"BIQ (Charlotte)",3,"BCADJEIFHG","Passed AC2","","Chocking_second","Spreadsheet1",1,"BIQ","Screen 1","9dh6eq",1,"response","4",7991.6,17010.2,17015.7999999046,7991.6,17010.2,17015.7999999046,1,7991.6,9024.19999990463,0,NA,"Rating Scale","Rating Scale",3,"object-5","BIQ",NA,"SUPPRF78484"
"4",1708979115973,"26/02/2024 20:25:15",1708957515973,-6,"26/02/2024 08:25:15",167771,4,"task-gjqt",NA,35526612,10495518,NA,"complete",NA,"65dcf1725c4c8090ce3cb245","computer","Desktop or Laptop","Windows 10","Chrome 122.0.0.0","1536x864","1536x695",NA,NA,0,"BIQ (Charlotte)",3,"BCADJEIFHG","Passed AC2","","Chocking_second","Spreadsheet1",1,"BIQ","Screen 1","9dh6eq",1,"response","5",11814,17010.2,17015.8999999285,11814,17010.2,17015.8999999285,1,11814,5201.89999992848,0,NA,"Rating Scale","Rating Scale",10,"object-18","BIQ",NA,"SUPPRF78484"
"5",1708979115973,"26/02/2024 20:25:15",1708957515973,-6,"26/02/2024 08:25:15",167771,4,"task-gjqt",NA,35526612,10495518,NA,"complete",NA,"65dcf1725c4c8090ce3cb245","computer","Desktop or Laptop","Windows 10","Chrome 122.0.0.0","1536x864","1536x695",NA,NA,0,"BIQ (Charlotte)",3,"BCADJEIFHG","Passed AC2","","Chocking_second","Spreadsheet1",1,"BIQ","Screen 1","9dh6eq",1,"response","4",16413.5,17010.2,17016.0999999762,16413.5,17010.2,17016.0999999762,1,16413.5,602.599999976159,0,NA,"Rating Scale","Rating Scale",17,"object-80","BIQ",NA,"SUPPRF78484"
"6",1708979122641,"26/02/2024 20:25:22",1708957522641,-6,"26/02/2024 08:25:22",167771,4,"task-gjqt",NA,35526612,10495518,NA,"complete",NA,"65dcf1725c4c8090ce3cb245","computer","Desktop or Laptop","Windows 10","Chrome 122.0.0.0","1536x864","1536x695",NA,NA,0,"BIQ (Charlotte)",3,"BCADJEIFHG","Passed AC2","","Chocking_second","Spreadsheet1",1,"BIQ","Screen 2","o21mwi",2,"continue","",6673.7,6666.7,6673.7,6673.7,6666.7,6673.7,1,6673.7,0,0,NA,"Click To Continue","Continue Button",22,"object-50","BIQ",NA,"SUPPRF78484"
"7",1708979122642,"26/02/2024 20:25:22",1708957522642,-6,"26/02/2024 08:25:22",167771,4,"task-gjqt",NA,35526612,10495518,NA,"complete",NA,"65dcf1725c4c8090ce3cb245","computer","Desktop or Laptop","Windows 10","Chrome 122.0.0.0","1536x864","1536x695",NA,NA,0,"BIQ (Charlotte)",3,"BCADJEIFHG","Passed AC2","","Chocking_second","Spreadsheet1",1,"BIQ","Screen 2","o21mwi",2,"response","6",3204.8,6666.7,6673.7,3204.8,6666.7,6673.7,1,3204.8,3468.9,0,NA,"Rating Scale","Rating Scale",2,"object-259","BIQ",NA,"SUPPRF78484"
"8",1708979122642,"26/02/2024 20:25:22",1708957522642,-6,"26/02/2024 08:25:22",167771,4,"task-gjqt",NA,35526612,10495518,NA,"complete",NA,"65dcf1725c4c8090ce3cb245","computer","Desktop or Laptop","Windows 10","Chrome 122.0.0.0","1536x864","1536x695",NA,NA,0,"BIQ (Charlotte)",3,"BCADJEIFHG","Passed AC2","","Chocking_second","Spreadsheet1",1,"BIQ","Screen 2","o21mwi",2,"response","6",4488.2,6666.7,6673.7,4488.2,6666.7,6673.7,1,4488.2,2185.5,0,NA,"Rating Scale","Rating Scale",9,"object-36","BIQ",NA,"SUPPRF78484"
"9",1708979122642,"26/02/2024 20:25:22",1708957522642,-6,"26/02/2024 08:25:22",167771,4,"task-gjqt",NA,35526612,10495518,NA,"complete",NA,"65dcf1725c4c8090ce3cb245","computer","Desktop or Laptop","Windows 10","Chrome 122.0.0.0","1536x864","1536x695",NA,NA,0,"BIQ (Charlotte)",3,"BCADJEIFHG","Passed AC2","","Chocking_second","Spreadsheet1",1,"BIQ","Screen 2","o21mwi",2,"response","5",5959,6666.7,6673.7,5959,6666.7,6673.7,1,5959,714.700000000001,0,NA,"Rating Scale","Rating Scale",16,"object-86","BIQ",NA,"SUPPRF78484"
"10",1708979137299,"26/02/2024 20:25:37",1708957537299,-6,"26/02/2024 08:25:37",167771,4,"task-gjqt",NA,35526612,10495518,NA,"complete",NA,"65dcf1725c4c8090ce3cb245","computer","Desktop or Laptop","Windows 10","Chrome 122.0.0.0","1536x864","1536x695",NA,NA,0,"BIQ (Charlotte)",3,"BCADJEIFHG","Passed AC2","","Chocking_second","Spreadsheet1",1,"BIQ","Screen 3","iz3the",3,"continue","",14664.5999999523,14658.4,14664.5999999523,14664.5999999523,14658.4,14664.5999999523,1,14664.5999999523,0,0,NA,"Click To Continue","Continue Button",22,"object-73","BIQ",NA,"SUPPRF78484"
"11",1708979137302,"26/02/2024 20:25:37",1708957537302,-6,"26/02/2024 08:25:37",167771,4,"task-gjqt",NA,35526612,10495518,NA,"complete",NA,"65dcf1725c4c8090ce3cb245","computer","Desktop or Laptop","Windows 10","Chrome 122.0.0.0","1536x864","1536x695",NA,NA,0,"BIQ (Charlotte)",3,"BCADJEIFHG","Passed AC2","","Chocking_second","Spreadsheet1",1,"BIQ","Screen 3","iz3the",3,"response","5",5404,14658.4,14665.2,5404,14658.4,14665.2,1,5404,9261.19999999999,0,NA,"Rating Scale","Rating Scale",2,"object-53","BIQ",NA,"SUPPRF78484"
"12",1708979137302,"26/02/2024 20:25:37",1708957537302,-6,"26/02/2024 08:25:37",167771,4,"task-gjqt",NA,35526612,10495518,NA,"complete",NA,"65dcf1725c4c8090ce3cb245","computer","Desktop or Laptop","Windows 10","Chrome 122.0.0.0","1536x864","1536x695",NA,NA,0,"BIQ (Charlotte)",3,"BCADJEIFHG","Passed AC2","","Chocking_second","Spreadsheet1",1,"BIQ","Screen 3","iz3the",3,"response","5",10218.3,14658.4,14665.2,10218.3,14658.4,14665.2,1,10218.3,4446.89999999999,0,NA,"Rating Scale","Rating Scale",9,"object-60","BIQ",NA,"SUPPRF78484"
"13",1708979137302,"26/02/2024 20:25:37",1708957537302,-6,"26/02/2024 08:25:37",167771,4,"task-gjqt",NA,35526612,10495518,NA,"complete",NA,"65dcf1725c4c8090ce3cb245","computer","Desktop or Laptop","Windows 10","Chrome 122.0.0.0","1536x864","1536x695",NA,NA,0,"BIQ (Charlotte)",3,"BCADJEIFHG","Passed AC2","","Chocking_second","Spreadsheet1",1,"BIQ","Screen 3","iz3the",3,"response","7",13964.6,14658.4,14665.2,13964.6,14658.4,14665.2,1,13964.6,700.599999999991,0,NA,"Rating Scale","Rating Scale",16,"object-67","BIQ",NA,"SUPPRF78484"
"14",1708979137305,"26/02/2024 20:25:37",1708957537305,-6,"26/02/2024 08:25:37",167771,4,"task-gjqt",NA,35526612,10495518,NA,"complete",NA,"65dcf1725c4c8090ce3cb245","computer","Desktop or Laptop","Windows 10","Chrome 122.0.0.0","1536x864","1536x695",NA,NA,0,"BIQ (Charlotte)",3,"BCADJEIFHG","Passed AC2","","Chocking_second","Spreadsheet1",NA,"","","",NA,"5","END",NA,NA,NA,NA,NA,NA,0,NA,NA,NA,NA,"","",NA,"","",NA,"SUPPRF78484"
"1",1708979486004,"26/02/2024 20:31:26",1708961486004,-5,"26/02/2024 10:31:26",167771,4,"task-gjqt",NA,35526819,10495617,NA,"complete",NA,"65dcf42ea8c82b9660fc4668","computer","Desktop or Laptop","Mac OS 10.15.7","Chrome 121.0.0.0","1440x900","1440x700",NA,NA,0,"BIQ (Charlotte)",3,"CDBEAFJGIH","Passed AC2","","Chocking_first","Spreadsheet1",NA,"","","",NA,"5","BEGIN",NA,NA,NA,NA,NA,NA,0,NA,NA,NA,NA,"","",NA,"","",NA,"SUPPRF59092"
"2",1708979493339,"26/02/2024 20:31:33",1708961493339,-5,"26/02/2024 10:31:33",167771,4,"task-gjqt",NA,35526819,10495617,NA,"complete",NA,"65dcf42ea8c82b9660fc4668","computer","Desktop or Laptop","Mac OS 10.15.7","Chrome 121.0.0.0","1440x900","1440x700",NA,NA,0,"BIQ (Charlotte)",3,"CDBEAFJGIH","Passed AC2","","Chocking_first","Spreadsheet1",1,"BIQ","Screen 1","9dh6eq",1,"continue","",7348.428,7332.728,7348.428,7348.428,7332.728,7348.428,1,7348.428,0,0,NA,"Click To Continue","Continue Button",23,"object-48","BIQ",NA,"SUPPRF59092"
"3",1708979493339,"26/02/2024 20:31:33",1708961493339,-5,"26/02/2024 10:31:33",167771,4,"task-gjqt",NA,35526819,10495617,NA,"complete",NA,"65dcf42ea8c82b9660fc4668","computer","Desktop or Laptop","Mac OS 10.15.7","Chrome 121.0.0.0","1440x900","1440x700",NA,NA,0,"BIQ (Charlotte)",3,"CDBEAFJGIH","Passed AC2","","Chocking_first","Spreadsheet1",1,"BIQ","Screen 1","9dh6eq",1,"response","8",2950.128,7332.728,7348.428,2950.128,7332.728,7348.428,1,2950.128,4398.3,0,NA,"Rating Scale","Rating Scale",3,"object-5","BIQ",NA,"SUPPRF59092"
"4",1708979493339,"26/02/2024 20:31:33",1708961493339,-5,"26/02/2024 10:31:33",167771,4,"task-gjqt",NA,35526819,10495617,NA,"complete",NA,"65dcf42ea8c82b9660fc4668","computer","Desktop or Laptop","Mac OS 10.15.7","Chrome 121.0.0.0","1440x900","1440x700",NA,NA,0,"BIQ (Charlotte)",3,"CDBEAFJGIH","Passed AC2","","Chocking_first","Spreadsheet1",1,"BIQ","Screen 1","9dh6eq",1,"response","6",4700.228,7332.728,7348.428,4700.228,7332.728,7348.428,1,4700.228,2648.2,0,NA,"Rating Scale","Rating Scale",10,"object-18","BIQ",NA,"SUPPRF59092"
"5",1708979493339,"26/02/2024 20:31:33",1708961493339,-5,"26/02/2024 10:31:33",167771,4,"task-gjqt",NA,35526819,10495617,NA,"complete",NA,"65dcf42ea8c82b9660fc4668","computer","Desktop or Laptop","Mac OS 10.15.7","Chrome 121.0.0.0","1440x900","1440x700",NA,NA,0,"BIQ (Charlotte)",3,"CDBEAFJGIH","Passed AC2","","Chocking_first","Spreadsheet1",1,"BIQ","Screen 1","9dh6eq",1,"response","6",5950.228,7332.728,7348.428,5950.228,7332.728,7348.428,1,5950.228,1398.2,0,NA,"Rating Scale","Rating Scale",17,"object-80","BIQ",NA,"SUPPRF59092"
"6",1708979500623,"26/02/2024 20:31:40",1708961500623,-5,"26/02/2024 10:31:40",167771,4,"task-gjqt",NA,35526819,10495617,NA,"complete",NA,"65dcf42ea8c82b9660fc4668","computer","Desktop or Laptop","Mac OS 10.15.7","Chrome 121.0.0.0","1440x900","1440x700",NA,NA,0,"BIQ (Charlotte)",3,"CDBEAFJGIH","Passed AC2","","Chocking_first","Spreadsheet1",1,"BIQ","Screen 2","o21mwi",2,"continue","",7304.89999980927,7301.1,7304.89999980927,7304.89999980927,7301.1,7304.89999980927,1,7304.89999980927,0,0,NA,"Click To Continue","Continue Button",22,"object-50","BIQ",NA,"SUPPRF59092"
"7",1708979500628,"26/02/2024 20:31:40",1708961500628,-5,"26/02/2024 10:31:40",167771,4,"task-gjqt",NA,35526819,10495617,NA,"complete",NA,"65dcf42ea8c82b9660fc4668","computer","Desktop or Laptop","Mac OS 10.15.7","Chrome 121.0.0.0","1440x900","1440x700",NA,NA,0,"BIQ (Charlotte)",3,"CDBEAFJGIH","Passed AC2","","Chocking_first","Spreadsheet1",1,"BIQ","Screen 2","o21mwi",2,"response","6",1750.9,7301.1,7310.50000019074,1750.9,7301.1,7310.50000019074,1,1750.9,5559.60000019073,0,NA,"Rating Scale","Rating Scale",2,"object-259","BIQ",NA,"SUPPRF59092"
"8",1708979500629,"26/02/2024 20:31:40",1708961500629,-5,"26/02/2024 10:31:40",167771,4,"task-gjqt",NA,35526819,10495617,NA,"complete",NA,"65dcf42ea8c82b9660fc4668","computer","Desktop or Laptop","Mac OS 10.15.7","Chrome 121.0.0.0","1440x900","1440x700",NA,NA,0,"BIQ (Charlotte)",3,"CDBEAFJGIH","Passed AC2","","Chocking_first","Spreadsheet1",1,"BIQ","Screen 2","o21mwi",2,"response","6",4534.3,7301.1,7311.29999990463,4534.3,7301.1,7311.29999990463,1,4534.3,2776.99999990463,0,NA,"Rating Scale","Rating Scale",9,"object-36","BIQ",NA,"SUPPRF59092"
"9",1708979500629,"26/02/2024 20:31:40",1708961500629,-5,"26/02/2024 10:31:40",167771,4,"task-gjqt",NA,35526819,10495617,NA,"complete",NA,"65dcf42ea8c82b9660fc4668","computer","Desktop or Laptop","Mac OS 10.15.7","Chrome 121.0.0.0","1440x900","1440x700",NA,NA,0,"BIQ (Charlotte)",3,"CDBEAFJGIH","Passed AC2","","Chocking_first","Spreadsheet1",1,"BIQ","Screen 2","o21mwi",2,"response","7",6451.2,7301.1,7311.60000009537,6451.2,7301.1,7311.60000009537,1,6451.2,860.400000095367,0,NA,"Rating Scale","Rating Scale",16,"object-86","BIQ",NA,"SUPPRF59092"
"10",1708979504947,"26/02/2024 20:31:44",1708961504947,-5,"26/02/2024 10:31:44",167771,4,"task-gjqt",NA,35526819,10495617,NA,"complete",NA,"65dcf42ea8c82b9660fc4668","computer","Desktop or Laptop","Mac OS 10.15.7","Chrome 121.0.0.0","1440x900","1440x700",NA,NA,0,"BIQ (Charlotte)",3,"CDBEAFJGIH","Passed AC2","","Chocking_first","Spreadsheet1",1,"BIQ","Screen 3","iz3the",3,"continue","",4328.6,4316.7,4328.6,4328.6,4316.7,4328.6,1,4328.6,0,0,NA,"Click To Continue","Continue Button",22,"object-73","BIQ",NA,"SUPPRF59092"
"11",1708979504948,"26/02/2024 20:31:44",1708961504948,-5,"26/02/2024 10:31:44",167771,4,"task-gjqt",NA,35526819,10495617,NA,"complete",NA,"65dcf42ea8c82b9660fc4668","computer","Desktop or Laptop","Mac OS 10.15.7","Chrome 121.0.0.0","1440x900","1440x700",NA,NA,0,"BIQ (Charlotte)",3,"CDBEAFJGIH","Passed AC2","","Chocking_first","Spreadsheet1",1,"BIQ","Screen 3","iz3the",3,"response","7",1933.3,4316.7,4329.79999980926,1933.3,4316.7,4329.79999980926,1,1933.3,2396.49999980926,0,NA,"Rating Scale","Rating Scale",2,"object-53","BIQ",NA,"SUPPRF59092"
"12",1708979504949,"26/02/2024 20:31:44",1708961504949,-5,"26/02/2024 10:31:44",167771,4,"task-gjqt",NA,35526819,10495617,NA,"complete",NA,"65dcf42ea8c82b9660fc4668","computer","Desktop or Laptop","Mac OS 10.15.7","Chrome 121.0.0.0","1440x900","1440x700",NA,NA,0,"BIQ (Charlotte)",3,"CDBEAFJGIH","Passed AC2","","Chocking_first","Spreadsheet1",1,"BIQ","Screen 3","iz3the",3,"response","6",3249.1,4316.7,4330.19999990463,3249.1,4316.7,4330.19999990463,1,3249.1,1081.09999990463,0,NA,"Rating Scale","Rating Scale",9,"object-60","BIQ",NA,"SUPPRF59092"
"13",1708979504949,"26/02/2024 20:31:44",1708961504949,-5,"26/02/2024 10:31:44",167771,4,"task-gjqt",NA,35526819,10495617,NA,"complete",NA,"65dcf42ea8c82b9660fc4668","computer","Desktop or Laptop","Mac OS 10.15.7","Chrome 121.0.0.0","1440x900","1440x700",NA,NA,0,"BIQ (Charlotte)",3,"CDBEAFJGIH","Passed AC2","","Chocking_first","Spreadsheet1",1,"BIQ","Screen 3","iz3the",3,"response","6",3750.3,4316.7,4330.69999990463,3750.3,4316.7,4330.69999990463,1,3750.3,580.399999904632,0,NA,"Rating Scale","Rating Scale",16,"object-67","BIQ",NA,"SUPPRF59092"
"14",1708979504956,"26/02/2024 20:31:44",1708961504956,-5,"26/02/2024 10:31:44",167771,4,"task-gjqt",NA,35526819,10495617,NA,"complete",NA,"65dcf42ea8c82b9660fc4668","computer","Desktop or Laptop","Mac OS 10.15.7","Chrome 121.0.0.0","1440x900","1440x700",NA,NA,0,"BIQ (Charlotte)",3,"CDBEAFJGIH","Passed AC2","","Chocking_first","Spreadsheet1",NA,"","","",NA,"5","END",NA,NA,NA,NA,NA,NA,0,NA,NA,NA,NA,"","",NA,"","",NA,"SUPPRF59092"
"1",1708980408451,"26/02/2024 20:46:48",1708962408451,-5,"26/02/2024 10:46:48",167771,4,"task-gjqt",NA,35527344,10495743,NA,"complete",NA,"65dcf76135721b0e6bbcce5f","computer","Desktop or Laptop","Windows 10","Chrome 120.0.0.0","1536x864","1536x730",NA,NA,0,"BIQ (Charlotte)",3,"DECFBGAHJI","Failed AC2","Passed AC1","Chocking_second","Spreadsheet1",NA,"","","",NA,"5","BEGIN",NA,NA,NA,NA,NA,NA,0,NA,NA,NA,NA,"","",NA,"","",NA,"SUPPRF05723"
"2",1708980435400,"26/02/2024 20:47:15",1708962435400,-5,"26/02/2024 10:47:15",167771,4,"task-gjqt",NA,35527344,10495743,NA,"complete",NA,"65dcf76135721b0e6bbcce5f","computer","Desktop or Laptop","Windows 10","Chrome 120.0.0.0","1536x864","1536x730",NA,NA,0,"BIQ (Charlotte)",3,"DECFBGAHJI","Failed AC2","Passed AC1","Chocking_second","Spreadsheet1",1,"BIQ","Screen 1","9dh6eq",1,"continue","",26965.4,26958.4,26965.4,26965.4,26958.4,26965.4,1,26965.4,0,0,NA,"Click To Continue","Continue Button",23,"object-48","BIQ",NA,"SUPPRF05723"
"3",1708980435402,"26/02/2024 20:47:15",1708962435402,-5,"26/02/2024 10:47:15",167771,4,"task-gjqt",NA,35527344,10495743,NA,"complete",NA,"65dcf76135721b0e6bbcce5f","computer","Desktop or Laptop","Windows 10","Chrome 120.0.0.0","1536x864","1536x730",NA,NA,0,"BIQ (Charlotte)",3,"DECFBGAHJI","Failed AC2","Passed AC1","Chocking_second","Spreadsheet1",1,"BIQ","Screen 1","9dh6eq",1,"response","3",16395.9,26958.4,26965.4,16395.9,26958.4,26965.4,1,16395.9,10569.5,0,NA,"Rating Scale","Rating Scale",3,"object-5","BIQ",NA,"SUPPRF05723"
"4",1708980435403,"26/02/2024 20:47:15",1708962435403,-5,"26/02/2024 10:47:15",167771,4,"task-gjqt",NA,35527344,10495743,NA,"complete",NA,"65dcf76135721b0e6bbcce5f","computer","Desktop or Laptop","Windows 10","Chrome 120.0.0.0","1536x864","1536x730",NA,NA,0,"BIQ (Charlotte)",3,"DECFBGAHJI","Failed AC2","Passed AC1","Chocking_second","Spreadsheet1",1,"BIQ","Screen 1","9dh6eq",1,"response","3",22555.6,26958.4,26965.4,22555.6,26958.4,26965.4,1,22555.6,4409.8,0,NA,"Rating Scale","Rating Scale",10,"object-18","BIQ",NA,"SUPPRF05723"
"5",1708980435403,"26/02/2024 20:47:15",1708962435403,-5,"26/02/2024 10:47:15",167771,4,"task-gjqt",NA,35527344,10495743,NA,"complete",NA,"65dcf76135721b0e6bbcce5f","computer","Desktop or Laptop","Windows 10","Chrome 120.0.0.0","1536x864","1536x730",NA,NA,0,"BIQ (Charlotte)",3,"DECFBGAHJI","Failed AC2","Passed AC1","Chocking_second","Spreadsheet1",1,"BIQ","Screen 1","9dh6eq",1,"response","4",25750.1,26958.4,26965.4,25750.1,26958.4,26965.4,1,25750.1,1215.3,0,NA,"Rating Scale","Rating Scale",17,"object-80","BIQ",NA,"SUPPRF05723"
"6",1708980452619,"26/02/2024 20:47:32",1708962452619,-5,"26/02/2024 10:47:32",167771,4,"task-gjqt",NA,35527344,10495743,NA,"complete",NA,"65dcf76135721b0e6bbcce5f","computer","Desktop or Laptop","Windows 10","Chrome 120.0.0.0","1536x864","1536x730",NA,NA,0,"BIQ (Charlotte)",3,"DECFBGAHJI","Failed AC2","Passed AC1","Chocking_second","Spreadsheet1",1,"BIQ","Screen 2","o21mwi",2,"continue","",17233.6,17229.4,17233.6,17233.6,17229.4,17233.6,1,17233.6,0,0,NA,"Click To Continue","Continue Button",22,"object-50","BIQ",NA,"SUPPRF05723"
"7",1708980452625,"26/02/2024 20:47:32",1708962452625,-5,"26/02/2024 10:47:32",167771,4,"task-gjqt",NA,35527344,10495743,NA,"complete",NA,"65dcf76135721b0e6bbcce5f","computer","Desktop or Laptop","Windows 10","Chrome 120.0.0.0","1536x864","1536x730",NA,NA,0,"BIQ (Charlotte)",3,"DECFBGAHJI","Failed AC2","Passed AC1","Chocking_second","Spreadsheet1",1,"BIQ","Screen 2","o21mwi",2,"response","3",4937.6,17229.4,17236.2,4937.6,17229.4,17236.2,1,4937.6,12298.6,0,NA,"Rating Scale","Rating Scale",2,"object-259","BIQ",NA,"SUPPRF05723"
"8",1708980452626,"26/02/2024 20:47:32",1708962452626,-5,"26/02/2024 10:47:32",167771,4,"task-gjqt",NA,35527344,10495743,NA,"complete",NA,"65dcf76135721b0e6bbcce5f","computer","Desktop or Laptop","Windows 10","Chrome 120.0.0.0","1536x864","1536x730",NA,NA,0,"BIQ (Charlotte)",3,"DECFBGAHJI","Failed AC2","Passed AC1","Chocking_second","Spreadsheet1",1,"BIQ","Screen 2","o21mwi",2,"response","5",11861.2,17229.4,17236.2,11861.2,17229.4,17236.2,1,11861.2,5375.00000000001,0,NA,"Rating Scale","Rating Scale",9,"object-36","BIQ",NA,"SUPPRF05723"
"9",1708980452627,"26/02/2024 20:47:32",1708962452627,-5,"26/02/2024 10:47:32",167771,4,"task-gjqt",NA,35527344,10495743,NA,"complete",NA,"65dcf76135721b0e6bbcce5f","computer","Desktop or Laptop","Windows 10","Chrome 120.0.0.0","1536x864","1536x730",NA,NA,0,"BIQ (Charlotte)",3,"DECFBGAHJI","Failed AC2","Passed AC1","Chocking_second","Spreadsheet1",1,"BIQ","Screen 2","o21mwi",2,"response","4",16416.7,17229.4,17236.2,16416.7,17229.4,17236.2,1,16416.7,819.500000000007,0,NA,"Rating Scale","Rating Scale",16,"object-86","BIQ",NA,"SUPPRF05723"
"10",1708980463704,"26/02/2024 20:47:43",1708962463704,-5,"26/02/2024 10:47:43",167771,4,"task-gjqt",NA,35527344,10495743,NA,"complete",NA,"65dcf76135721b0e6bbcce5f","computer","Desktop or Laptop","Windows 10","Chrome 120.0.0.0","1536x864","1536x730",NA,NA,0,"BIQ (Charlotte)",3,"DECFBGAHJI","Failed AC2","Passed AC1","Chocking_second","Spreadsheet1",1,"BIQ","Screen 3","iz3the",3,"continue","",11089.4999997139,11083.3,11089.4999997139,11089.4999997139,11083.3,11089.4999997139,1,11089.4999997139,0,0,NA,"Click To Continue","Continue Button",22,"object-73","BIQ",NA,"SUPPRF05723"
"11",1708980463710,"26/02/2024 20:47:43",1708962463710,-5,"26/02/2024 10:47:43",167771,4,"task-gjqt",NA,35527344,10495743,NA,"complete",NA,"65dcf76135721b0e6bbcce5f","computer","Desktop or Laptop","Windows 10","Chrome 120.0.0.0","1536x864","1536x730",NA,NA,0,"BIQ (Charlotte)",3,"DECFBGAHJI","Failed AC2","Passed AC1","Chocking_second","Spreadsheet1",1,"BIQ","Screen 3","iz3the",3,"response","4",4006.89999999999,11083.3,11090.3,4006.89999999999,11083.3,11090.3,1,4006.89999999999,7083.4,0,NA,"Rating Scale","Rating Scale",2,"object-53","BIQ",NA,"SUPPRF05723"
"12",1708980463711,"26/02/2024 20:47:43",1708962463711,-5,"26/02/2024 10:47:43",167771,4,"task-gjqt",NA,35527344,10495743,NA,"complete",NA,"65dcf76135721b0e6bbcce5f","computer","Desktop or Laptop","Windows 10","Chrome 120.0.0.0","1536x864","1536x730",NA,NA,0,"BIQ (Charlotte)",3,"DECFBGAHJI","Failed AC2","Passed AC1","Chocking_second","Spreadsheet1",1,"BIQ","Screen 3","iz3the",3,"response","6",5895.8,11083.3,11090.3,5895.8,11083.3,11090.3,1,5895.8,5194.5,0,NA,"Rating Scale","Rating Scale",9,"object-60","BIQ",NA,"SUPPRF05723"
"13",1708980463713,"26/02/2024 20:47:43",1708962463713,-5,"26/02/2024 10:47:43",167771,4,"task-gjqt",NA,35527344,10495743,NA,"complete",NA,"65dcf76135721b0e6bbcce5f","computer","Desktop or Laptop","Windows 10","Chrome 120.0.0.0","1536x864","1536x730",NA,NA,0,"BIQ (Charlotte)",3,"DECFBGAHJI","Failed AC2","Passed AC1","Chocking_second","Spreadsheet1",1,"BIQ","Screen 3","iz3the",3,"response","4",8777.7,11083.3,11090.3,8777.7,11083.3,11090.3,1,8777.7,2312.6,0,NA,"Rating Scale","Rating Scale",16,"object-67","BIQ",NA,"SUPPRF05723"
"14",1708980463724,"26/02/2024 20:47:43",1708962463724,-5,"26/02/2024 10:47:43",167771,4,"task-gjqt",NA,35527344,10495743,NA,"complete",NA,"65dcf76135721b0e6bbcce5f","computer","Desktop or Laptop","Windows 10","Chrome 120.0.0.0","1536x864","1536x730",NA,NA,0,"BIQ (Charlotte)",3,"DECFBGAHJI","Failed AC2","Passed AC1","Chocking_second","Spreadsheet1",NA,"","","",NA,"5","END",NA,NA,NA,NA,NA,NA,0,NA,NA,NA,NA,"","",NA,"","",NA,"SUPPRF05723"
"1",1708981219940,"26/02/2024 21:00:19",1708981219940,0,"26/02/2024 21:00:19",167771,4,"task-gjqt",NA,35527841,10495919,NA,"complete",NA,"65dcfb58aef7f9381901d3c3","computer","Desktop or Laptop","Windows 10","Chrome 121.0.0.0","1280x960","1280x791",NA,NA,0,"BIQ (Charlotte)",3,"EFDGCHBIAJ","Passed AC2","","Chocking_first","Spreadsheet1",NA,"","","",NA,"5","BEGIN",NA,NA,NA,NA,NA,NA,0,NA,NA,NA,NA,"","",NA,"","",NA,"SUPPRF99214"
"2",1708981242889,"26/02/2024 21:00:42",1708981242889,0,"26/02/2024 21:00:42",167771,4,"task-gjqt",NA,35527841,10495919,NA,"complete",NA,"65dcfb58aef7f9381901d3c3","computer","Desktop or Laptop","Windows 10","Chrome 121.0.0.0","1280x960","1280x791",NA,NA,0,"BIQ (Charlotte)",3,"EFDGCHBIAJ","Passed AC2","","Chocking_first","Spreadsheet1",1,"BIQ","Screen 1","9dh6eq",1,"continue","",22966.3,22949.5,22966.3,22966.3,22949.5,22966.3,1,22966.3,0,0,NA,"Click To Continue","Continue Button",23,"object-48","BIQ",NA,"SUPPRF99214"
"3",1708981242897,"26/02/2024 21:00:42",1708981242897,0,"26/02/2024 21:00:42",167771,4,"task-gjqt",NA,35527841,10495919,NA,"complete",NA,"65dcfb58aef7f9381901d3c3","computer","Desktop or Laptop","Windows 10","Chrome 121.0.0.0","1280x960","1280x791",NA,NA,0,"BIQ (Charlotte)",3,"EFDGCHBIAJ","Passed AC2","","Chocking_first","Spreadsheet1",1,"BIQ","Screen 1","9dh6eq",1,"response","6",10507.2,22949.5,22966.3,10507.2,22949.5,22966.3,1,10507.2,12459.1,0,NA,"Rating Scale","Rating Scale",3,"object-5","BIQ",NA,"SUPPRF99214"
"4",1708981242898,"26/02/2024 21:00:42",1708981242898,0,"26/02/2024 21:00:42",167771,4,"task-gjqt",NA,35527841,10495919,NA,"complete",NA,"65dcfb58aef7f9381901d3c3","computer","Desktop or Laptop","Windows 10","Chrome 121.0.0.0","1280x960","1280x791",NA,NA,0,"BIQ (Charlotte)",3,"EFDGCHBIAJ","Passed AC2","","Chocking_first","Spreadsheet1",1,"BIQ","Screen 1","9dh6eq",1,"response","8",18579.5,22949.5,22966.3,18579.5,22949.5,22966.3,1,18579.5,4386.8,0,NA,"Rating Scale","Rating Scale",10,"object-18","BIQ",NA,"SUPPRF99214"
"5",1708981242900,"26/02/2024 21:00:42",1708981242900,0,"26/02/2024 21:00:42",167771,4,"task-gjqt",NA,35527841,10495919,NA,"complete",NA,"65dcfb58aef7f9381901d3c3","computer","Desktop or Laptop","Windows 10","Chrome 121.0.0.0","1280x960","1280x791",NA,NA,0,"BIQ (Charlotte)",3,"EFDGCHBIAJ","Passed AC2","","Chocking_first","Spreadsheet1",1,"BIQ","Screen 1","9dh6eq",1,"response","2",22065.5,22949.5,22966.3,22065.5,22949.5,22966.3,1,22065.5,900.799999999999,0,NA,"Rating Scale","Rating Scale",17,"object-80","BIQ",NA,"SUPPRF99214"
"6",1708981256306,"26/02/2024 21:00:56",1708981256306,0,"26/02/2024 21:00:56",167771,4,"task-gjqt",NA,35527841,10495919,NA,"complete",NA,"65dcfb58aef7f9381901d3c3","computer","Desktop or Laptop","Windows 10","Chrome 121.0.0.0","1280x960","1280x791",NA,NA,0,"BIQ (Charlotte)",3,"EFDGCHBIAJ","Passed AC2","","Chocking_first","Spreadsheet1",1,"BIQ","Screen 2","o21mwi",2,"continue","",13444.8999999285,13442.2,13444.8999999285,13444.8999999285,13442.2,13444.8999999285,1,13444.8999999285,0,0,NA,"Click To Continue","Continue Button",22,"object-50","BIQ",NA,"SUPPRF99214"
