"","Event.Index","UTC.Timestamp","UTC.Date.and.Time","Local.Timestamp","Local.Timezone","Local.Date.and.Time","Experiment.ID","Experiment.Version","Tree.Node.Key","Repeat.Key","Schedule.ID","Participant.Starting.Group","Participant.Status","Participant.Completion.Code","Participant.External.Session.ID","Participant.Device.Type","Participant.Device","Participant.OS","Participant.Browser","Participant.Monitor.Size","Participant.Viewport.Size","Checkpoint","Room.ID","Room.Order","Task.Name","Task.Version","order.ot79","randomiser.lqqr","randomiser.28m8","randomiser.tf5j","Spreadsheet","Trial.Number","Display","Screen","Screen.ID","Screen.Counter","Response.Type","Response","Onset.Time","Clock.Time","Reaction.Time","Absolute.Onset.Time","Absolute.Clock.Time","Absolute.Reaction.Time","Correct","Response.Onset","Response.Duration","Proportion","Tag","Component.Name","Object.Name","Object.Number","Object.ID","Spreadsheet..display","Spreadsheet..stimulus","Spreadsheet..P","Spreadsheet..N","Manipulation..Spreadsheet","Random_ID"
"1",1,1692005872045,"14/08/2023 09:37:52",1692009472045,1,"14/08/2023 11:37:52",140743,17,"task-s9co",NA,31172521,NA,"complete",NA,"64da000bb77c30175cda1703","computer","Desktop or Laptop","Mac OS 10.15.7","Safari 16.6","810x1080","1080x707",NA,NA,0,"Video Feedback Task (Clone)",6,"DECFBGAHJI",NA,"study_2 (video_feedback and feedback_list_2)","VF_1st",1,NA,"","","",NA,"5","BEGIN",NA,NA,NA,NA,NA,NA,0,NA,NA,NA,NA,"","",NA,"","","","","",NA,"SUPPRF20908"
"2",2,1692005922991,"14/08/2023 09:38:42",1692009522991,1,"14/08/2023 11:38:42",140743,17,"task-s9co",NA,31172521,NA,"complete",NA,"64da000bb77c30175cda1703","computer","Desktop or Laptop","Mac OS 10.15.7","Safari 16.6","810x1080","1080x707",NA,NA,0,"Video Feedback Task (Clone)",6,"DECFBGAHJI",NA,"study_2 (video_feedback and feedback_list_2)","VF_1st",1,1,"Neutral Feedback","Screen 1","3zrml3",1,"continue","",50948,50931,50948,50948,50931,50948,1,50948,0,0,NA,"Click To Continue","Continue Button",1,"object-155","Neutral Feedback","P2_N.mp4","Screenshot 2023-06-30 at 15.00.42.png","Screenshot 2023-06-30 at 15.00.55.png",NA,"SUPPRF20908"
"3",3,1692005923006,"14/08/2023 09:38:43",1692009523006,1,"14/08/2023 11:38:43",140743,17,"task-s9co",NA,31172521,NA,"complete",NA,"64da000bb77c30175cda1703","computer","Desktop or Laptop","Mac OS 10.15.7","Safari 16.6","810x1080","1080x707",NA,NA,0,"Video Feedback Task (Clone)",6,"DECFBGAHJI",NA,"study_2 (video_feedback and feedback_list_2)","VF_1st",1,1,"Neutral Feedback","Screen 1","3zrml3",1,"response","You gave some detail about their clothing.",39040,50931,50948,39040,50931,50948,1,39040,11908,0,NA,"Text Entry","Text Entry",4,"object-158","Neutral Feedback","P2_N.mp4","Screenshot 2023-06-30 at 15.00.42.png","Screenshot 2023-06-30 at 15.00.55.png",NA,"SUPPRF20908"
"4",4,1692005923006,"14/08/2023 09:38:43",1692009523006,1,"14/08/2023 11:38:43",140743,17,"task-s9co",NA,31172521,NA,"complete",NA,"64da000bb77c30175cda1703","computer","Desktop or Laptop","Mac OS 10.15.7","Safari 16.6","810x1080","1080x707",NA,NA,0,"Video Feedback Task (Clone)",6,"DECFBGAHJI",NA,"study_2 (video_feedback and feedback_list_2)","VF_1st",1,1,"Neutral Feedback","Screen 1","3zrml3",1,"response","You gave some feautures of the room.",26139,50931,50948,26139,50931,50948,1,26139,24809,0,NA,"Text Entry","Text Entry",5,"object-159","Neutral Feedback","P2_N.mp4","Screenshot 2023-06-30 at 15.00.42.png","Screenshot 2023-06-30 at 15.00.55.png",NA,"SUPPRF20908"
"5",5,1692005923850,"14/08/2023 09:38:43",1692009523850,1,"14/08/2023 11:38:43",140743,17,"task-s9co",NA,31172521,NA,"complete",NA,"64da000bb77c30175cda1703","computer","Desktop or Laptop","Mac OS 10.15.7","Safari 16.6","810x1080","1080x707",NA,NA,0,"Video Feedback Task (Clone)",6,"DECFBGAHJI",NA,"study_2 (video_feedback and feedback_list_2)","VF_1st",1,1,"Neutral Feedback","Screen 2","vv4mhq",2,"continue","",883,883,883,883,883,883,1,883,0,0,NA,"Fixation Timing","Fixation",1,"object-153","Neutral Feedback","P2_N.mp4","Screenshot 2023-06-30 at 15.00.42.png","Screenshot 2023-06-30 at 15.00.55.png",NA,"SUPPRF20908"
"6",6,1692005990949,"14/08/2023 09:39:50",1692009590949,1,"14/08/2023 11:39:50",140743,17,"task-s9co",NA,31172521,NA,"complete",NA,"64da000bb77c30175cda1703","computer","Desktop or Laptop","Mac OS 10.15.7","Safari 16.6","810x1080","1080x314",NA,NA,0,"Video Feedback Task (Clone)",6,"DECFBGAHJI",NA,"study_2 (video_feedback and feedback_list_2)","VF_1st",1,1,"Positive Feedback","Video","w2ir4b",1,"continue","",67095,67078,67095,67095,67078,67095,1,67095,0,0,NA,"Click To Continue","Continue Button",1,"object-14","Positive Feedback","P5_P.mp4","Screenshot 2023-06-30 at 15.01.08.png","Screenshot 2023-06-30 at 15.00.55.png",NA,"SUPPRF20908"
"7",7,1692005990967,"14/08/2023 09:39:50",1692009590967,1,"14/08/2023 11:39:50",140743,17,"task-s9co",NA,31172521,NA,"complete",NA,"64da000bb77c30175cda1703","computer","Desktop or Laptop","Mac OS 10.15.7","Safari 16.6","810x1080","1080x314",NA,NA,0,"Video Feedback Task (Clone)",6,"DECFBGAHJI",NA,"study_2 (video_feedback and feedback_list_2)","VF_1st",1,1,"Positive Feedback","Video","w2ir4b",1,"response","You definitely knew what the people in the picture were doing.",51672,67078,67095,51672,67078,67095,1,51672,15423,0,NA,"Text Entry","Text Entry",4,"object-19","Positive Feedback","P5_P.mp4","Screenshot 2023-06-30 at 15.01.08.png","Screenshot 2023-06-30 at 15.00.55.png",NA,"SUPPRF20908"
"8",8,1692005990968,"14/08/2023 09:39:50",1692009590968,1,"14/08/2023 11:39:50",140743,17,"task-s9co",NA,31172521,NA,"complete",NA,"64da000bb77c30175cda1703","computer","Desktop or Laptop","Mac OS 10.15.7","Safari 16.6","810x1080","1080x314",NA,NA,0,"Video Feedback Task (Clone)",6,"DECFBGAHJI",NA,"study_2 (video_feedback and feedback_list_2)","VF_1st",1,1,"Positive Feedback","Video","w2ir4b",1,"response","You were very confident in describing the room in detail.",30721,67078,67095,30721,67078,67095,1,30721,36374,0,NA,"Text Entry","Text Entry",5,"object-20","Positive Feedback","P5_P.mp4","Screenshot 2023-06-30 at 15.01.08.png","Screenshot 2023-06-30 at 15.00.55.png",NA,"SUPPRF20908"
"9",9,1692005991807,"14/08/2023 09:39:51",1692009591807,1,"14/08/2023 11:39:51",140743,17,"task-s9co",NA,31172521,NA,"complete",NA,"64da000bb77c30175cda1703","computer","Desktop or Laptop","Mac OS 10.15.7","Safari 16.6","810x1080","1080x314",NA,NA,0,"Video Feedback Task (Clone)",6,"DECFBGAHJI",NA,"study_2 (video_feedback and feedback_list_2)","VF_1st",1,1,"Positive Feedback","Fixation","mtm832",2,"continue","",883,883,883,883,883,883,1,883,0,0,NA,"Fixation Timing","Fixation",1,"object-65","Positive Feedback","P5_P.mp4","Screenshot 2023-06-30 at 15.01.08.png","Screenshot 2023-06-30 at 15.00.55.png",NA,"SUPPRF20908"
"10",10,1692006062523,"14/08/2023 09:41:02",1692009662523,1,"14/08/2023 11:41:02",140743,17,"task-s9co",NA,31172521,NA,"complete",NA,"64da000bb77c30175cda1703","computer","Desktop or Laptop","Mac OS 10.15.7","Safari 16.6","810x1080","1080x707",NA,NA,0,"Video Feedback Task (Clone)",6,"DECFBGAHJI",NA,"study_2 (video_feedback and feedback_list_2)","VF_1st",1,2,"Positive Feedback","Video","w2ir4b",1,"continue","",70709,70693,70709,70709,70693,70709,1,70709,0,0,NA,"Click To Continue","Continue Button",1,"object-14","Positive Feedback","P2_P.mp4","Screenshot 2023-06-30 at 15.01.08.png","Screenshot 2023-06-30 at 15.02.01.png",NA,"SUPPRF20908"
"11",11,1692006062537,"14/08/2023 09:41:02",1692009662537,1,"14/08/2023 11:41:02",140743,17,"task-s9co",NA,31172521,NA,"complete",NA,"64da000bb77c30175cda1703","computer","Desktop or Laptop","Mac OS 10.15.7","Safari 16.6","810x1080","1080x707",NA,NA,0,"Video Feedback Task (Clone)",6,"DECFBGAHJI",NA,"study_2 (video_feedback and feedback_list_2)","VF_1st",1,2,"Positive Feedback","Video","w2ir4b",1,"response","You seemed confident in these assumptions.",61984,70693,70709,61984,70693,70709,1,61984,8725,0,NA,"Text Entry","Text Entry",4,"object-19","Positive Feedback","P2_P.mp4","Screenshot 2023-06-30 at 15.01.08.png","Screenshot 2023-06-30 at 15.02.01.png",NA,"SUPPRF20908"
"12",12,1692006062537,"14/08/2023 09:41:02",1692009662537,1,"14/08/2023 11:41:02",140743,17,"task-s9co",NA,31172521,NA,"complete",NA,"64da000bb77c30175cda1703","computer","Desktop or Laptop","Mac OS 10.15.7","Safari 16.6","810x1080","1080x707",NA,NA,0,"Video Feedback Task (Clone)",6,"DECFBGAHJI",NA,"study_2 (video_feedback and feedback_list_2)","VF_1st",1,2,"Positive Feedback","Video","w2ir4b",1,"response","You made very reasonable assumptions using different aspects of the picture.",37144,70693,70709,37144,70693,70709,1,37144,33565,0,NA,"Text Entry","Text Entry",5,"object-20","Positive Feedback","P2_P.mp4","Screenshot 2023-06-30 at 15.01.08.png","Screenshot 2023-06-30 at 15.02.01.png",NA,"SUPPRF20908"
"13",13,1692006063465,"14/08/2023 09:41:03",1692009663465,1,"14/08/2023 11:41:03",140743,17,"task-s9co",NA,31172521,NA,"complete",NA,"64da000bb77c30175cda1703","computer","Desktop or Laptop","Mac OS 10.15.7","Safari 16.6","810x1080","1080x707",NA,NA,0,"Video Feedback Task (Clone)",6,"DECFBGAHJI",NA,"study_2 (video_feedback and feedback_list_2)","VF_1st",1,2,"Positive Feedback","Fixation","mtm832",2,"continue","",967,967,967,967,967,967,1,967,0,0,NA,"Fixation Timing","Fixation",1,"object-65","Positive Feedback","P2_P.mp4","Screenshot 2023-06-30 at 15.01.08.png","Screenshot 2023-06-30 at 15.02.01.png",NA,"SUPPRF20908"
"14",14,1692006126734,"14/08/2023 09:42:06",1692009726734,1,"14/08/2023 11:42:06",140743,17,"task-s9co",NA,31172521,NA,"complete",NA,"64da000bb77c30175cda1703","computer","Desktop or Laptop","Mac OS 10.15.7","Safari 16.6","810x1080","1080x707",NA,NA,0,"Video Feedback Task (Clone)",6,"DECFBGAHJI",NA,"study_2 (video_feedback and feedback_list_2)","VF_1st",1,2,"Neutral Feedback","Screen 1","3zrml3",1,"continue","",63263,63246,63263,63263,63246,63263,1,63263,0,0,NA,"Click To Continue","Continue Button",1,"object-155","Neutral Feedback","P3_N.mp4","Screenshot 2023-06-30 at 15.01.08.png","Screenshot 2023-06-30 at 15.02.01.png",NA,"SUPPRF20908"
"15",15,1692006126752,"14/08/2023 09:42:06",1692009726752,1,"14/08/2023 11:42:06",140743,17,"task-s9co",NA,31172521,NA,"complete",NA,"64da000bb77c30175cda1703","computer","Desktop or Laptop","Mac OS 10.15.7","Safari 16.6","810x1080","1080x707",NA,NA,0,"Video Feedback Task (Clone)",6,"DECFBGAHJI",NA,"study_2 (video_feedback and feedback_list_2)","VF_1st",1,2,"Neutral Feedback","Screen 1","3zrml3",1,"response","You mentioned the detail of many fruit but did not name any.",46574,63246,63263,46574,63246,63263,1,46574,16689,0,NA,"Text Entry","Text Entry",4,"object-158","Neutral Feedback","P3_N.mp4","Screenshot 2023-06-30 at 15.01.08.png","Screenshot 2023-06-30 at 15.02.01.png",NA,"SUPPRF20908"
"16",16,1692006126752,"14/08/2023 09:42:06",1692009726752,1,"14/08/2023 11:42:06",140743,17,"task-s9co",NA,31172521,NA,"complete",NA,"64da000bb77c30175cda1703","computer","Desktop or Laptop","Mac OS 10.15.7","Safari 16.6","810x1080","1080x707",NA,NA,0,"Video Feedback Task (Clone)",6,"DECFBGAHJI",NA,"study_2 (video_feedback and feedback_list_2)","VF_1st",1,2,"Neutral Feedback","Screen 1","3zrml3",1,"response","You did okay as you repeated the same descriptions.",30990,63246,63263,30990,63246,63263,1,30990,32273,0,NA,"Text Entry","Text Entry",5,"object-159","Neutral Feedback","P3_N.mp4","Screenshot 2023-06-30 at 15.01.08.png","Screenshot 2023-06-30 at 15.02.01.png",NA,"SUPPRF20908"
"17",17,1692006127676,"14/08/2023 09:42:07",1692009727676,1,"14/08/2023 11:42:07",140743,17,"task-s9co",NA,31172521,NA,"complete",NA,"64da000bb77c30175cda1703","computer","Desktop or Laptop","Mac OS 10.15.7","Safari 16.6","810x1080","1080x707",NA,NA,0,"Video Feedback Task (Clone)",6,"DECFBGAHJI",NA,"study_2 (video_feedback and feedback_list_2)","VF_1st",1,2,"Neutral Feedback","Screen 2","vv4mhq",2,"continue","",966,966,966,966,966,966,1,966,0,0,NA,"Fixation Timing","Fixation",1,"object-153","Neutral Feedback","P3_N.mp4","Screenshot 2023-06-30 at 15.01.08.png","Screenshot 2023-06-30 at 15.02.01.png",NA,"SUPPRF20908"
"18",18,1692006212321,"14/08/2023 09:43:32",1692009812321,1,"14/08/2023 11:43:32",140743,17,"task-s9co",NA,31172521,NA,"complete",NA,"64da000bb77c30175cda1703","computer","Desktop or Laptop","Mac OS 10.15.7","Safari 16.6","810x1080","1080x707",NA,NA,0,"Video Feedback Task (Clone)",6,"DECFBGAHJI",NA,"study_2 (video_feedback and feedback_list_2)","VF_1st",1,3,"Positive Feedback","Video","w2ir4b",1,"continue","",84639,84622,84639,84639,84622,84639,1,84639,0,0,NA,"Click To Continue","Continue Button",1,"object-14","Positive Feedback","P1_P.mp4","Screenshot 2023-06-30 at 15.00.42.png","Screenshot 2023-06-30 at 15.02.01.png",NA,"SUPPRF20908"
"19",19,1692006212342,"14/08/2023 09:43:32",1692009812342,1,"14/08/2023 11:43:32",140743,17,"task-s9co",NA,31172521,NA,"complete",NA,"64da000bb77c30175cda1703","computer","Desktop or Laptop","Mac OS 10.15.7","Safari 16.6","810x1080","1080x707",NA,NA,0,"Video Feedback Task (Clone)",6,"DECFBGAHJI",NA,"study_2 (video_feedback and feedback_list_2)","VF_1st",1,3,"Positive Feedback","Video","w2ir4b",1,"response","You described small details, such as items on the desk, well.",60101,84622,84639,60101,84622,84639,1,60101,24538,0,NA,"Text Entry","Text Entry",4,"object-19","Positive Feedback","P1_P.mp4","Screenshot 2023-06-30 at 15.00.42.png","Screenshot 2023-06-30 at 15.02.01.png",NA,"SUPPRF20908"
"20",20,1692006212343,"14/08/2023 09:43:32",1692009812343,1,"14/08/2023 11:43:32",140743,17,"task-s9co",NA,31172521,NA,"complete",NA,"64da000bb77c30175cda1703","computer","Desktop or Laptop","Mac OS 10.15.7","Safari 16.6","810x1080","1080x707",NA,NA,0,"Video Feedback Task (Clone)",6,"DECFBGAHJI",NA,"study_2 (video_feedback and feedback_list_2)","VF_1st",1,3,"Positive Feedback","Video","w2ir4b",1,"response","You described the group of people well.",49489,84622,84639,49489,84622,84639,1,49489,35150,0,NA,"Text Entry","Text Entry",5,"object-20","Positive Feedback","P1_P.mp4","Screenshot 2023-06-30 at 15.00.42.png","Screenshot 2023-06-30 at 15.02.01.png",NA,"SUPPRF20908"
"21",21,1692006213178,"14/08/2023 09:43:33",1692009813178,1,"14/08/2023 11:43:33",140743,17,"task-s9co",NA,31172521,NA,"complete",NA,"64da000bb77c30175cda1703","computer","Desktop or Laptop","Mac OS 10.15.7","Safari 16.6","810x1080","1080x707",NA,NA,0,"Video Feedback Task (Clone)",6,"DECFBGAHJI",NA,"study_2 (video_feedback and feedback_list_2)","VF_1st",1,3,"Positive Feedback","Fixation","mtm832",2,"continue","",883,883,883,883,883,883,1,883,0,0,NA,"Fixation Timing","Fixation",1,"object-65","Positive Feedback","P1_P.mp4","Screenshot 2023-06-30 at 15.00.42.png","Screenshot 2023-06-30 at 15.02.01.png",NA,"SUPPRF20908"
"22",22,1692006279806,"14/08/2023 09:44:39",1692009879806,1,"14/08/2023 11:44:39",140743,17,"task-s9co",NA,31172521,NA,"complete",NA,"64da000bb77c30175cda1703","computer","Desktop or Laptop","Mac OS 10.15.7","Safari 16.6","810x1080","1080x707",NA,NA,0,"Video Feedback Task (Clone)",6,"DECFBGAHJI",NA,"study_2 (video_feedback and feedback_list_2)","VF_1st",1,3,"Neutral Feedback","Screen 1","3zrml3",1,"continue","",66612,66595,66612,66612,66595,66612,1,66612,0,0,NA,"Click To Continue","Continue Button",1,"object-155","Neutral Feedback","P4_N.mp4","Screenshot 2023-06-30 at 15.00.42.png","Screenshot 2023-06-30 at 15.02.01.png",NA,"SUPPRF20908"
"23",23,1692006279835,"14/08/2023 09:44:39",1692009879835,1,"14/08/2023 11:44:39",140743,17,"task-s9co",NA,31172521,NA,"complete",NA,"64da000bb77c30175cda1703","computer","Desktop or Laptop","Mac OS 10.15.7","Safari 16.6","810x1080","1080x707",NA,NA,0,"Video Feedback Task (Clone)",6,"DECFBGAHJI",NA,"study_2 (video_feedback and feedback_list_2)","VF_1st",1,3,"Neutral Feedback","Screen 1","3zrml3",1,"response","You gave a very bland description of the screen as a whole.",49489,66595,66612,49489,66595,66612,1,49489,17123,0,NA,"Text Entry","Text Entry",4,"object-158","Neutral Feedback","P4_N.mp4","Screenshot 2023-06-30 at 15.00.42.png","Screenshot 2023-06-30 at 15.02.01.png",NA,"SUPPRF20908"
"24",24,1692006279835,"14/08/2023 09:44:39",1692009879835,1,"14/08/2023 11:44:39",140743,17,"task-s9co",NA,31172521,NA,"complete",NA,"64da000bb77c30175cda1703","computer","Desktop or Laptop","Mac OS 10.15.7","Safari 16.6","810x1080","1080x707",NA,NA,0,"Video Feedback Task (Clone)",6,"DECFBGAHJI",NA,"study_2 (video_feedback and feedback_list_2)","VF_1st",1,3,"Neutral Feedback","Screen 1","3zrml3",1,"response","Your description of the peoples actions were limited.",12712,66595,66612,12712,66595,66612,1,12712,53900,0,NA,"Text Entry","Text Entry",5,"object-159","Neutral Feedback","P4_N.mp4","Screenshot 2023-06-30 at 15.00.42.png","Screenshot 2023-06-30 at 15.02.01.png",NA,"SUPPRF20908"
"25",25,1692006280654,"14/08/2023 09:44:40",1692009880654,1,"14/08/2023 11:44:40",140743,17,"task-s9co",NA,31172521,NA,"complete",NA,"64da000bb77c30175cda1703","computer","Desktop or Laptop","Mac OS 10.15.7","Safari 16.6","810x1080","1080x707",NA,NA,0,"Video Feedback Task (Clone)",6,"DECFBGAHJI",NA,"study_2 (video_feedback and feedback_list_2)","VF_1st",1,3,"Neutral Feedback","Screen 2","vv4mhq",2,"continue","",883,883,883,883,883,883,1,883,0,0,NA,"Fixation Timing","Fixation",1,"object-153","Neutral Feedback","P4_N.mp4","Screenshot 2023-06-30 at 15.00.42.png","Screenshot 2023-06-30 at 15.02.01.png",NA,"SUPPRF20908"
"26",26,1692006339619,"14/08/2023 09:45:39",1692009939619,1,"14/08/2023 11:45:39",140743,17,"task-s9co",NA,31172521,NA,"complete",NA,"64da000bb77c30175cda1703","computer","Desktop or Laptop","Mac OS 10.15.7","Safari 16.6","810x1080","1080x314",NA,NA,0,"Video Feedback Task (Clone)",6,"DECFBGAHJI",NA,"study_2 (video_feedback and feedback_list_2)","VF_1st",1,4,"Positive Feedback","Video","w2ir4b",1,"continue","",58966,58948,58966,58966,58948,58966,1,58966,0,0,NA,"Click To Continue","Continue Button",1,"object-14","Positive Feedback","P3_P.mp4","Screenshot 2023-06-30 at 15.00.42.png","Screenshot 2023-06-30 at 15.00.55.png",NA,"SUPPRF20908"
"27",27,1692006339625,"14/08/2023 09:45:39",1692009939625,1,"14/08/2023 11:45:39",140743,17,"task-s9co",NA,31172521,NA,"complete",NA,"64da000bb77c30175cda1703","computer","Desktop or Laptop","Mac OS 10.15.7","Safari 16.6","810x1080","1080x314",NA,NA,0,"Video Feedback Task (Clone)",6,"DECFBGAHJI",NA,"study_2 (video_feedback and feedback_list_2)","VF_1st",1,4,"Positive Feedback","Video","w2ir4b",1,"response","Your description of the happy Christmas scene was very detailed.",43724,58948,58966,43724,58948,58966,1,43724,15242,0,NA,"Text Entry","Text Entry",4,"object-19","Positive Feedback","P3_P.mp4","Screenshot 2023-06-30 at 15.00.42.png","Screenshot 2023-06-30 at 15.00.55.png",NA,"SUPPRF20908"
"28",28,1692006339626,"14/08/2023 09:45:39",1692009939626,1,"14/08/2023 11:45:39",140743,17,"task-s9co",NA,31172521,NA,"complete",NA,"64da000bb77c30175cda1703","computer","Desktop or Laptop","Mac OS 10.15.7","Safari 16.6","810x1080","1080x314",NA,NA,0,"Video Feedback Task (Clone)",6,"DECFBGAHJI",NA,"study_2 (video_feedback and feedback_list_2)","VF_1st",1,4,"Positive Feedback","Video","w2ir4b",1,"response","You were clearly confident in your description as you did not stutter or seem unsure in any way.",11368,58948,58966,11368,58948,58966,1,11368,47598,0,NA,"Text Entry","Text Entry",5,"object-20","Positive Feedback","P3_P.mp4","Screenshot 2023-06-30 at 15.00.42.png","Screenshot 2023-06-30 at 15.00.55.png",NA,"SUPPRF20908"
"29",29,1692006340565,"14/08/2023 09:45:40",1692009940565,1,"14/08/2023 11:45:40",140743,17,"task-s9co",NA,31172521,NA,"complete",NA,"64da000bb77c30175cda1703","computer","Desktop or Laptop","Mac OS 10.15.7","Safari 16.6","810x1080","1080x314",NA,NA,0,"Video Feedback Task (Clone)",6,"DECFBGAHJI",NA,"study_2 (video_feedback and feedback_list_2)","VF_1st",1,4,"Positive Feedback","Fixation","mtm832",2,"continue","",965,965,965,965,965,965,1,965,0,0,NA,"Fixation Timing","Fixation",1,"object-65","Positive Feedback","P3_P.mp4","Screenshot 2023-06-30 at 15.00.42.png","Screenshot 2023-06-30 at 15.00.55.png",NA,"SUPPRF20908"
"30",30,1692006391933,"14/08/2023 09:46:31",1692009991933,1,"14/08/2023 11:46:31",140743,17,"task-s9co",NA,31172521,NA,"complete",NA,"64da000bb77c30175cda1703","computer","Desktop or Laptop","Mac OS 10.15.7","Safari 16.6","810x1080","1080x707",NA,NA,0,"Video Feedback Task (Clone)",6,"DECFBGAHJI",NA,"study_2 (video_feedback and feedback_list_2)","VF_1st",1,4,"Neutral Feedback","Screen 1","3zrml3",1,"continue","",51367,51350,51367,51367,51350,51367,1,51367,0,0,NA,"Click To Continue","Continue Button",1,"object-155","Neutral Feedback","P5_N.mp4","Screenshot 2023-06-30 at 15.00.42.png","Screenshot 2023-06-30 at 15.02.01.png",NA,"SUPPRF20908"
"31",31,1692006391937,"14/08/2023 09:46:31",1692009991937,1,"14/08/2023 11:46:31",140743,17,"task-s9co",NA,31172521,NA,"complete",NA,"64da000bb77c30175cda1703","computer","Desktop or Laptop","Mac OS 10.15.7","Safari 16.6","810x1080","1080x707",NA,NA,0,"Video Feedback Task (Clone)",6,"DECFBGAHJI",NA,"study_2 (video_feedback and feedback_list_2)","VF_1st",1,4,"Neutral Feedback","Screen 1","3zrml3",1,"response","Your overall description was okay.",41775,51350,51367,41775,51350,51367,1,41775,9592,0,NA,"Text Entry","Text Entry",4,"object-158","Neutral Feedback","P5_N.mp4","Screenshot 2023-06-30 at 15.00.42.png","Screenshot 2023-06-30 at 15.02.01.png",NA,"SUPPRF20908"
"32",32,1692006391937,"14/08/2023 09:46:31",1692009991937,1,"14/08/2023 11:46:31",140743,17,"task-s9co",NA,31172521,NA,"complete",NA,"64da000bb77c30175cda1703","computer","Desktop or Laptop","Mac OS 10.15.7","Safari 16.6","810x1080","1080x707",NA,NA,0,"Video Feedback Task (Clone)",6,"DECFBGAHJI",NA,"study_2 (video_feedback and feedback_list_2)","VF_1st",1,4,"Neutral Feedback","Screen 1","3zrml3",1,"response","You did alright, but seemed uncertain at times.",17367,51350,51367,17367,51350,51367,1,17367,34000,0,NA,"Text Entry","Text Entry",5,"object-159","Neutral Feedback","P5_N.mp4","Screenshot 2023-06-30 at 15.00.42.png","Screenshot 2023-06-30 at 15.02.01.png",NA,"SUPPRF20908"
"33",33,1692006392880,"14/08/2023 09:46:32",1692009992880,1,"14/08/2023 11:46:32",140743,17,"task-s9co",NA,31172521,NA,"complete",NA,"64da000bb77c30175cda1703","computer","Desktop or Laptop","Mac OS 10.15.7","Safari 16.6","810x1080","1080x707",NA,NA,0,"Video Feedback Task (Clone)",6,"DECFBGAHJI",NA,"study_2 (video_feedback and feedback_list_2)","VF_1st",1,4,"Neutral Feedback","Screen 2","vv4mhq",2,"continue","",967,967,967,967,967,967,1,967,0,0,NA,"Fixation Timing","Fixation",1,"object-153","Neutral Feedback","P5_N.mp4","Screenshot 2023-06-30 at 15.00.42.png","Screenshot 2023-06-30 at 15.02.01.png",NA,"SUPPRF20908"
"34",34,1692006476122,"14/08/2023 09:47:56",1692010076122,1,"14/08/2023 11:47:56",140743,17,"task-s9co",NA,31172521,NA,"complete",NA,"64da000bb77c30175cda1703","computer","Desktop or Laptop","Mac OS 10.15.7","Safari 16.6","810x1080","1080x707",NA,NA,0,"Video Feedback Task (Clone)",6,"DECFBGAHJI",NA,"study_2 (video_feedback and feedback_list_2)","VF_1st",1,5,"Neutral Feedback","Screen 1","3zrml3",1,"continue","",83239,83222,83239,83239,83222,83239,1,83239,0,0,NA,"Click To Continue","Continue Button",1,"object-155","Neutral Feedback","P1_N.mp4","Screenshot 2023-06-30 at 15.01.08.png","Screenshot 2023-06-30 at 15.00.55.png",NA,"SUPPRF20908"
"35",35,1692006476129,"14/08/2023 09:47:56",1692010076129,1,"14/08/2023 11:47:56",140743,17,"task-s9co",NA,31172521,NA,"complete",NA,"64da000bb77c30175cda1703","computer","Desktop or Laptop","Mac OS 10.15.7","Safari 16.6","810x1080","1080x707",NA,NA,0,"Video Feedback Task (Clone)",6,"DECFBGAHJI",NA,"study_2 (video_feedback and feedback_list_2)","VF_1st",1,5,"Neutral Feedback","Screen 1","3zrml3",1,"response","Your attempt was mediocre.",51173,83222,83239,51173,83222,83239,1,51173,32066,0,NA,"Text Entry","Text Entry",4,"object-158","Neutral Feedback","P1_N.mp4","Screenshot 2023-06-30 at 15.01.08.png","Screenshot 2023-06-30 at 15.00.55.png",NA,"SUPPRF20908"
"36",36,1692006476130,"14/08/2023 09:47:56",1692010076130,1,"14/08/2023 11:47:56",140743,17,"task-s9co",NA,31172521,NA,"complete",NA,"64da000bb77c30175cda1703","computer","Desktop or Laptop","Mac OS 10.15.7","Safari 16.6","810x1080","1080x707",NA,NA,0,"Video Feedback Task (Clone)",6,"DECFBGAHJI",NA,"study_2 (video_feedback and feedback_list_2)","VF_1st",1,5,"Neutral Feedback","Screen 1","3zrml3",1,"response","Your description was very broad.",21764,83222,83239,21764,83222,83239,1,21764,61475,0,NA,"Text Entry","Text Entry",5,"object-159","Neutral Feedback","P1_N.mp4","Screenshot 2023-06-30 at 15.01.08.png","Screenshot 2023-06-30 at 15.00.55.png",NA,"SUPPRF20908"
"37",37,1692006477065,"14/08/2023 09:47:57",1692010077065,1,"14/08/2023 11:47:57",140743,17,"task-s9co",NA,31172521,NA,"complete",NA,"64da000bb77c30175cda1703","computer","Desktop or Laptop","Mac OS 10.15.7","Safari 16.6","810x1080","1080x707",NA,NA,0,"Video Feedback Task (Clone)",6,"DECFBGAHJI",NA,"study_2 (video_feedback and feedback_list_2)","VF_1st",1,5,"Neutral Feedback","Screen 2","vv4mhq",2,"continue","",966,966,966,966,966,966,1,966,0,0,NA,"Fixation Timing","Fixation",1,"object-153","Neutral Feedback","P1_N.mp4","Screenshot 2023-06-30 at 15.01.08.png","Screenshot 2023-06-30 at 15.00.55.png",NA,"SUPPRF20908"
"38",38,1692006515880,"14/08/2023 09:48:35",1692010115880,1,"14/08/2023 11:48:35",140743,17,"task-s9co",NA,31172521,NA,"complete",NA,"64da000bb77c30175cda1703","computer","Desktop or Laptop","Mac OS 10.15.7","Safari 16.6","810x1080","1080x707",NA,NA,0,"Video Feedback Task (Clone)",6,"DECFBGAHJI",NA,"study_2 (video_feedback and feedback_list_2)","VF_1st",1,5,"Positive Feedback","Video","w2ir4b",1,"continue","",38805,38788,38805,38805,38788,38805,1,38805,0,0,NA,"Click To Continue","Continue Button",1,"object-14","Positive Feedback","P4_P.mp4","Screenshot 2023-06-30 at 15.01.08.png","Screenshot 2023-06-30 at 15.00.55.png",NA,"SUPPRF20908"
"39",39,1692006515889,"14/08/2023 09:48:35",1692010115889,1,"14/08/2023 11:48:35",140743,17,"task-s9co",NA,31172521,NA,"complete",NA,"64da000bb77c30175cda1703","computer","Desktop or Laptop","Mac OS 10.15.7","Safari 16.6","810x1080","1080x707",NA,NA,0,"Video Feedback Task (Clone)",6,"DECFBGAHJI",NA,"study_2 (video_feedback and feedback_list_2)","VF_1st",1,5,"Positive Feedback","Video","w2ir4b",1,"response","You made justified assumptions.",23363,38788,38805,23363,38788,38805,1,23363,15442,0,NA,"Text Entry","Text Entry",4,"object-19","Positive Feedback","P4_P.mp4","Screenshot 2023-06-30 at 15.01.08.png","Screenshot 2023-06-30 at 15.00.55.png",NA,"SUPPRF20908"
"40",40,1692006515890,"14/08/2023 09:48:35",1692010115890,1,"14/08/2023 11:48:35",140743,17,"task-s9co",NA,31172521,NA,"complete",NA,"64da000bb77c30175cda1703","computer","Desktop or Laptop","Mac OS 10.15.7","Safari 16.6","810x1080","1080x707",NA,NA,0,"Video Feedback Task (Clone)",6,"DECFBGAHJI",NA,"study_2 (video_feedback and feedback_list_2)","VF_1st",1,5,"Positive Feedback","Video","w2ir4b",1,"response","You used very interesting adjectives.",12953,38788,38805,12953,38788,38805,1,12953,25852,0,NA,"Text Entry","Text Entry",5,"object-20","Positive Feedback","P4_P.mp4","Screenshot 2023-06-30 at 15.01.08.png","Screenshot 2023-06-30 at 15.00.55.png",NA,"SUPPRF20908"
"41",41,1692006516817,"14/08/2023 09:48:36",1692010116817,1,"14/08/2023 11:48:36",140743,17,"task-s9co",NA,31172521,NA,"complete",NA,"64da000bb77c30175cda1703","computer","Desktop or Laptop","Mac OS 10.15.7","Safari 16.6","810x1080","1080x707",NA,NA,0,"Video Feedback Task (Clone)",6,"DECFBGAHJI",NA,"study_2 (video_feedback and feedback_list_2)","VF_1st",1,5,"Positive Feedback","Fixation","mtm832",2,"continue","",965,965,965,965,965,965,1,965,0,0,NA,"Fixation Timing","Fixation",1,"object-65","Positive Feedback","P4_P.mp4","Screenshot 2023-06-30 at 15.01.08.png","Screenshot 2023-06-30 at 15.00.55.png",NA,"SUPPRF20908"
"42",42,1692006516818,"14/08/2023 09:48:36",1692010116818,1,"14/08/2023 11:48:36",140743,17,"task-s9co",NA,31172521,NA,"complete",NA,"64da000bb77c30175cda1703","computer","Desktop or Laptop","Mac OS 10.15.7","Safari 16.6","810x1080","1080x707",NA,NA,0,"Video Feedback Task (Clone)",6,"DECFBGAHJI",NA,"study_2 (video_feedback and feedback_list_2)","VF_1st",1,NA,"","","",NA,"5","END",NA,NA,NA,NA,NA,NA,0,NA,NA,NA,NA,"","",NA,"","","","","",NA,"SUPPRF20908"
"43",1,1692006487197,"14/08/2023 09:48:07",1692010087197,1,"14/08/2023 11:48:07",140743,17,"task-s9co",NA,31172733,NA,"complete",NA,"64da01617f4e2f7acbe39dd7","computer","Desktop or Laptop","Windows 10","Chrome 115.0.0.0","1536x864","1536x747",NA,NA,0,"Video Feedback Task (Clone)",6,"GHFIEJDACB",NA,"study_2 (video_feedback and feedback_list_2)","VF_1st",1,NA,"","","",NA,"5","BEGIN",NA,NA,NA,NA,NA,NA,0,NA,NA,NA,NA,"","",NA,"","","","","",NA,"SUPPRF56705"
"44",2,1692006510844,"14/08/2023 09:48:30",1692010110844,1,"14/08/2023 11:48:30",140743,17,"task-s9co",NA,31172733,NA,"complete",NA,"64da01617f4e2f7acbe39dd7","computer","Desktop or Laptop","Windows 10","Chrome 115.0.0.0","1536x864","1536x747",NA,NA,0,"Video Feedback Task (Clone)",6,"GHFIEJDACB",NA,"study_2 (video_feedback and feedback_list_2)","VF_1st",1,1,"Neutral Feedback","Screen 1","3zrml3",1,"continue","",23335.3080000119,23322.772,23335.3080000119,23335.3080000119,23322.772,23335.3080000119,1,23335.3080000119,0,0,NA,"Click To Continue","Continue Button",1,"object-155","Neutral Feedback","P2_N.mp4","Screenshot 2023-06-30 at 15.00.42.png","Screenshot 2023-06-30 at 15.02.01.png",NA,"SUPPRF56705"
"45",3,1692006510847,"14/08/2023 09:48:30",1692010110847,1,"14/08/2023 11:48:30",140743,17,"task-s9co",NA,31172733,NA,"complete",NA,"64da01617f4e2f7acbe39dd7","computer","Desktop or Laptop","Windows 10","Chrome 115.0.0.0","1536x864","1536x747",NA,NA,0,"Video Feedback Task (Clone)",6,"GHFIEJDACB",NA,"study_2 (video_feedback and feedback_list_2)","VF_1st",1,1,"Neutral Feedback","Screen 1","3zrml3",1,"response","You said um a lot",19224.656,23322.772,23338.008,19224.656,23322.772,23338.008,1,19224.656,4113.352,0,NA,"Text Entry","Text Entry",4,"object-158","Neutral Feedback","P2_N.mp4","Screenshot 2023-06-30 at 15.00.42.png","Screenshot 2023-06-30 at 15.02.01.png",NA,"SUPPRF56705"
"46",4,1692006510848,"14/08/2023 09:48:30",1692010110848,1,"14/08/2023 11:48:30",140743,17,"task-s9co",NA,31172733,NA,"complete",NA,"64da01617f4e2f7acbe39dd7","computer","Desktop or Laptop","Windows 10","Chrome 115.0.0.0","1536x864","1536x747",NA,NA,0,"Video Feedback Task (Clone)",6,"GHFIEJDACB",NA,"study_2 (video_feedback and feedback_list_2)","VF_1st",1,1,"Neutral Feedback","Screen 1","3zrml3",1,"response","You described the scene in the picture",7963.076,23322.772,23338.8080000119,7963.076,23322.772,23338.8080000119,1,7963.076,15375.7320000119,0,NA,"Text Entry","Text Entry",5,"object-159","Neutral Feedback","P2_N.mp4","Screenshot 2023-06-30 at 15.00.42.png","Screenshot 2023-06-30 at 15.02.01.png",NA,"SUPPRF56705"
"47",5,1692006511798,"14/08/2023 09:48:31",1692010111798,1,"14/08/2023 11:48:31",140743,17,"task-s9co",NA,31172733,NA,"complete",NA,"64da01617f4e2f7acbe39dd7","computer","Desktop or Laptop","Windows 10","Chrome 115.0.0.0","1536x864","1536x747",NA,NA,0,"Video Feedback Task (Clone)",6,"GHFIEJDACB",NA,"study_2 (video_feedback and feedback_list_2)","VF_1st",1,1,"Neutral Feedback","Screen 2","vv4mhq",2,"continue","",966.226000000002,966.226000000002,966.226000000002,966.226000000002,966.226000000002,966.226000000002,1,966.226000000002,0,0,NA,"Fixation Timing","Fixation",1,"object-153","Neutral Feedback","P2_N.mp4","Screenshot 2023-06-30 at 15.00.42.png","Screenshot 2023-06-30 at 15.02.01.png",NA,"SUPPRF56705"
"48",6,1692006559055,"14/08/2023 09:49:19",1692010159055,1,"14/08/2023 11:49:19",140743,17,"task-s9co",NA,31172733,NA,"complete",NA,"64da01617f4e2f7acbe39dd7","computer","Desktop or Laptop","Windows 10","Chrome 115.0.0.0","1536x864","1536x747",NA,NA,0,"Video Feedback Task (Clone)",6,"GHFIEJDACB",NA,"study_2 (video_feedback and feedback_list_2)","VF_1st",1,1,"Positive Feedback","Video","w2ir4b",1,"continue","",47257.1100000238,47245.35,47257.1100000238,47257.1100000238,47245.35,47257.1100000238,1,47257.1100000238,0,0,NA,"Click To Continue","Continue Button",1,"object-14","Positive Feedback","P5_P.mp4","Screenshot 2023-06-30 at 15.00.42.png","Screenshot 2023-06-30 at 15.00.55.png",NA,"SUPPRF56705"
"49",7,1692006559058,"14/08/2023 09:49:19",1692010159058,1,"14/08/2023 11:49:19",140743,17,"task-s9co",NA,31172733,NA,"complete",NA,"64da01617f4e2f7acbe39dd7","computer","Desktop or Laptop","Windows 10","Chrome 115.0.0.0","1536x864","1536x747",NA,NA,0,"Video Feedback Task (Clone)",6,"GHFIEJDACB",NA,"study_2 (video_feedback and feedback_list_2)","VF_1st",1,1,"Positive Feedback","Video","w2ir4b",1,"response","You described the scene well and in depth",14143.711,47245.35,47260.7100000179,14143.711,47245.35,47260.7100000179,1,14143.711,33116.9990000179,0,NA,"Text Entry","Text Entry",4,"object-19","Positive Feedback","P5_P.mp4","Screenshot 2023-06-30 at 15.00.42.png","Screenshot 2023-06-30 at 15.00.55.png",NA,"SUPPRF56705"
"50",8,1692006559059,"14/08/2023 09:49:19",1692010159059,1,"14/08/2023 11:49:19",140743,17,"task-s9co",NA,31172733,NA,"complete",NA,"64da01617f4e2f7acbe39dd7","computer","Desktop or Laptop","Windows 10","Chrome 115.0.0.0","1536x864","1536x747",NA,NA,0,"Video Feedback Task (Clone)",6,"GHFIEJDACB",NA,"study_2 (video_feedback and feedback_list_2)","VF_1st",1,1,"Positive Feedback","Video","w2ir4b",1,"response","You spoke loudly and clearly",4831.153,47245.35,47261.2100000179,4831.153,47245.35,47261.2100000179,1,4831.153,42430.0570000179,0,NA,"Text Entry","Text Entry",5,"object-20","Positive Feedback","P5_P.mp4","Screenshot 2023-06-30 at 15.00.42.png","Screenshot 2023-06-30 at 15.00.55.png",NA,"SUPPRF56705"
"51",9,1692006560009,"14/08/2023 09:49:20",1692010160009,1,"14/08/2023 11:49:20",140743,17,"task-s9co",NA,31172733,NA,"complete",NA,"64da01617f4e2f7acbe39dd7","computer","Desktop or Laptop","Windows 10","Chrome 115.0.0.0","1536x864","1536x747",NA,NA,0,"Video Feedback Task (Clone)",6,"GHFIEJDACB",NA,"study_2 (video_feedback and feedback_list_2)","VF_1st",1,1,"Positive Feedback","Fixation","mtm832",2,"continue","",966.120999999999,966.120999999999,966.120999999999,966.120999999999,966.120999999999,966.120999999999,1,966.120999999999,0,0,NA,"Fixation Timing","Fixation",1,"object-65","Positive Feedback","P5_P.mp4","Screenshot 2023-06-30 at 15.00.42.png","Screenshot 2023-06-30 at 15.00.55.png",NA,"SUPPRF56705"
"52",10,1692006612717,"14/08/2023 09:50:12",1692010212717,1,"14/08/2023 11:50:12",140743,17,"task-s9co",NA,31172733,NA,"complete",NA,"64da01617f4e2f7acbe39dd7","computer","Desktop or Laptop","Windows 10","Chrome 115.0.0.0","1536x864","1536x747",NA,NA,0,"Video Feedback Task (Clone)",6,"GHFIEJDACB",NA,"study_2 (video_feedback and feedback_list_2)","VF_1st",1,2,"Positive Feedback","Video","w2ir4b",1,"continue","",52708.1390000238,52692.781,52708.1390000238,52708.1390000238,52692.781,52708.1390000238,1,52708.1390000238,0,0,NA,"Click To Continue","Continue Button",1,"object-14","Positive Feedback","P2_P.mp4","Screenshot 2023-06-30 at 15.01.08.png","Screenshot 2023-06-30 at 15.02.01.png",NA,"SUPPRF56705"
"53",11,1692006612720,"14/08/2023 09:50:12",1692010212720,1,"14/08/2023 11:50:12",140743,17,"task-s9co",NA,31172733,NA,"complete",NA,"64da01617f4e2f7acbe39dd7","computer","Desktop or Laptop","Windows 10","Chrome 115.0.0.0","1536x864","1536x747",NA,NA,0,"Video Feedback Task (Clone)",6,"GHFIEJDACB",NA,"study_2 (video_feedback and feedback_list_2)","VF_1st",1,2,"Positive Feedback","Video","w2ir4b",1,"response","You gave an opinion which helped me understand",40631.569,52692.781,52709.565,40631.569,52692.781,52709.565,1,40631.569,12077.996,0,NA,"Text Entry","Text Entry",4,"object-19","Positive Feedback","P2_P.mp4","Screenshot 2023-06-30 at 15.01.08.png","Screenshot 2023-06-30 at 15.02.01.png",NA,"SUPPRF56705"
"54",12,1692006612720,"14/08/2023 09:50:12",1692010212720,1,"14/08/2023 11:50:12",140743,17,"task-s9co",NA,31172733,NA,"complete",NA,"64da01617f4e2f7acbe39dd7","computer","Desktop or Laptop","Windows 10","Chrome 115.0.0.0","1536x864","1536x747",NA,NA,0,"Video Feedback Task (Clone)",6,"GHFIEJDACB",NA,"study_2 (video_feedback and feedback_list_2)","VF_1st",1,2,"Positive Feedback","Video","w2ir4b",1,"response","You gave an in depth description capturing the emotions of the picture",23722.556,52692.781,52709.565,23722.556,52692.781,52709.565,1,23722.556,28987.009,0,NA,"Text Entry","Text Entry",5,"object-20","Positive Feedback","P2_P.mp4","Screenshot 2023-06-30 at 15.01.08.png","Screenshot 2023-06-30 at 15.02.01.png",NA,"SUPPRF56705"
"55",13,1692006613668,"14/08/2023 09:50:13",1692010213668,1,"14/08/2023 11:50:13",140743,17,"task-s9co",NA,31172733,NA,"complete",NA,"64da01617f4e2f7acbe39dd7","computer","Desktop or Laptop","Windows 10","Chrome 115.0.0.0","1536x864","1536x747",NA,NA,0,"Video Feedback Task (Clone)",6,"GHFIEJDACB",NA,"study_2 (video_feedback and feedback_list_2)","VF_1st",1,2,"Positive Feedback","Fixation","mtm832",2,"continue","",966.262000000002,966.262000000002,966.262000000002,966.262000000002,966.262000000002,966.262000000002,1,966.262000000002,0,0,NA,"Fixation Timing","Fixation",1,"object-65","Positive Feedback","P2_P.mp4","Screenshot 2023-06-30 at 15.01.08.png","Screenshot 2023-06-30 at 15.02.01.png",NA,"SUPPRF56705"
"56",14,1692006642221,"14/08/2023 09:50:42",1692010242221,1,"14/08/2023 11:50:42",140743,17,"task-s9co",NA,31172733,NA,"complete",NA,"64da01617f4e2f7acbe39dd7","computer","Desktop or Laptop","Windows 10","Chrome 115.0.0.0","1536x864","1536x747",NA,NA,0,"Video Feedback Task (Clone)",6,"GHFIEJDACB",NA,"study_2 (video_feedback and feedback_list_2)","VF_1st",1,2,"Neutral Feedback","Screen 1","3zrml3",1,"continue","",28552.2960000119,28536.961,28552.2960000119,28552.2960000119,28536.961,28552.2960000119,1,28552.2960000119,0,0,NA,"Click To Continue","Continue Button",1,"object-155","Neutral Feedback","P3_N.mp4","Screenshot 2023-06-30 at 15.00.42.png","Screenshot 2023-06-30 at 15.00.55.png",NA,"SUPPRF56705"
"57",15,1692006642224,"14/08/2023 09:50:42",1692010242224,1,"14/08/2023 11:50:42",140743,17,"task-s9co",NA,31172733,NA,"complete",NA,"64da01617f4e2f7acbe39dd7","computer","Desktop or Laptop","Windows 10","Chrome 115.0.0.0","1536x864","1536x747",NA,NA,0,"Video Feedback Task (Clone)",6,"GHFIEJDACB",NA,"study_2 (video_feedback and feedback_list_2)","VF_1st",1,2,"Neutral Feedback","Screen 1","3zrml3",1,"response","You did ok",25754.989,28536.961,28553.655,25754.989,28536.961,28553.655,1,25754.989,2798.666,0,NA,"Text Entry","Text Entry",4,"object-158","Neutral Feedback","P3_N.mp4","Screenshot 2023-06-30 at 15.00.42.png","Screenshot 2023-06-30 at 15.00.55.png",NA,"SUPPRF56705"
"58",16,1692006642225,"14/08/2023 09:50:42",1692010242225,1,"14/08/2023 11:50:42",140743,17,"task-s9co",NA,31172733,NA,"complete",NA,"64da01617f4e2f7acbe39dd7","computer","Desktop or Laptop","Windows 10","Chrome 115.0.0.0","1536x864","1536x747",NA,NA,0,"Video Feedback Task (Clone)",6,"GHFIEJDACB",NA,"study_2 (video_feedback and feedback_list_2)","VF_1st",1,2,"Neutral Feedback","Screen 1","3zrml3",1,"response","You described the picture",5913.85599999999,28536.961,28553.655,5913.85599999999,28536.961,28553.655,1,5913.85599999999,22639.799,0,NA,"Text Entry","Text Entry",5,"object-159","Neutral Feedback","P3_N.mp4","Screenshot 2023-06-30 at 15.00.42.png","Screenshot 2023-06-30 at 15.00.55.png",NA,"SUPPRF56705"
"59",17,1692006643172,"14/08/2023 09:50:43",1692010243172,1,"14/08/2023 11:50:43",140743,17,"task-s9co",NA,31172733,NA,"complete",NA,"64da01617f4e2f7acbe39dd7","computer","Desktop or Laptop","Windows 10","Chrome 115.0.0.0","1536x864","1536x747",NA,NA,0,"Video Feedback Task (Clone)",6,"GHFIEJDACB",NA,"study_2 (video_feedback and feedback_list_2)","VF_1st",1,2,"Neutral Feedback","Screen 2","vv4mhq",2,"continue","",966.140000000014,966.140000000014,966.140000000014,966.140000000014,966.140000000014,966.140000000014,1,966.140000000014,0,0,NA,"Fixation Timing","Fixation",1,"object-153","Neutral Feedback","P3_N.mp4","Screenshot 2023-06-30 at 15.00.42.png","Screenshot 2023-06-30 at 15.00.55.png",NA,"SUPPRF56705"
"60",18,1692006672982,"14/08/2023 09:51:12",1692010272982,1,"14/08/2023 11:51:12",140743,17,"task-s9co",NA,31172733,NA,"complete",NA,"64da01617f4e2f7acbe39dd7","computer","Desktop or Laptop","Windows 10","Chrome 115.0.0.0","1536x864","1536x747",NA,NA,0,"Video Feedback Task (Clone)",6,"GHFIEJDACB",NA,"study_2 (video_feedback and feedback_list_2)","VF_1st",1,3,"Positive Feedback","Video","w2ir4b",1,"continue","",29810.5950000179,29803.107,29810.5950000179,29810.5950000179,29803.107,29810.5950000179,1,29810.5950000179,0,0,NA,"Click To Continue","Continue Button",1,"object-14","Positive Feedback","P1_P.mp4","Screenshot 2023-06-30 at 15.01.08.png","Screenshot 2023-06-30 at 15.02.01.png",NA,"SUPPRF56705"
"61",19,1692006672985,"14/08/2023 09:51:12",1692010272985,1,"14/08/2023 11:51:12",140743,17,"task-s9co",NA,31172733,NA,"complete",NA,"64da01617f4e2f7acbe39dd7","computer","Desktop or Laptop","Windows 10","Chrome 115.0.0.0","1536x864","1536x747",NA,NA,0,"Video Feedback Task (Clone)",6,"GHFIEJDACB",NA,"study_2 (video_feedback and feedback_list_2)","VF_1st",1,3,"Positive Feedback","Video","w2ir4b",1,"response","Your use of hand gestures was interesting and emotive",16542.671,29803.107,29813.895,16542.671,29803.107,29813.895,1,16542.671,13271.224,0,NA,"Text Entry","Text Entry",4,"object-19","Positive Feedback","P1_P.mp4","Screenshot 2023-06-30 at 15.01.08.png","Screenshot 2023-06-30 at 15.02.01.png",NA,"SUPPRF56705"
"62",20,1692006672986,"14/08/2023 09:51:12",1692010272986,1,"14/08/2023 11:51:12",140743,17,"task-s9co",NA,31172733,NA,"complete",NA,"64da01617f4e2f7acbe39dd7","computer","Desktop or Laptop","Windows 10","Chrome 115.0.0.0","1536x864","1536x747",NA,NA,0,"Video Feedback Task (Clone)",6,"GHFIEJDACB",NA,"study_2 (video_feedback and feedback_list_2)","VF_1st",1,3,"Positive Feedback","Video","w2ir4b",1,"response","You have a nice accent",10945.05,29803.107,29814.395,10945.05,29803.107,29814.395,1,10945.05,18869.345,0,NA,"Text Entry","Text Entry",5,"object-20","Positive Feedback","P1_P.mp4","Screenshot 2023-06-30 at 15.01.08.png","Screenshot 2023-06-30 at 15.02.01.png",NA,"SUPPRF56705"
"63",21,1692006673941,"14/08/2023 09:51:13",1692010273941,1,"14/08/2023 11:51:13",140743,17,"task-s9co",NA,31172733,NA,"complete",NA,"64da01617f4e2f7acbe39dd7","computer","Desktop or Laptop","Windows 10","Chrome 115.0.0.0","1536x864","1536x747",NA,NA,0,"Video Feedback Task (Clone)",6,"GHFIEJDACB",NA,"study_2 (video_feedback and feedback_list_2)","VF_1st",1,3,"Positive Feedback","Fixation","mtm832",2,"continue","",966.32699999999,966.32699999999,966.32699999999,966.32699999999,966.32699999999,966.32699999999,1,966.32699999999,0,0,NA,"Fixation Timing","Fixation",1,"object-65","Positive Feedback","P1_P.mp4","Screenshot 2023-06-30 at 15.01.08.png","Screenshot 2023-06-30 at 15.02.01.png",NA,"SUPPRF56705"
"64",22,1692006703355,"14/08/2023 09:51:43",1692010303355,1,"14/08/2023 11:51:43",140743,17,"task-s9co",NA,31172733,NA,"complete",NA,"64da01617f4e2f7acbe39dd7","computer","Desktop or Laptop","Windows 10","Chrome 115.0.0.0","1536x864","1536x747",NA,NA,0,"Video Feedback Task (Clone)",6,"GHFIEJDACB",NA,"study_2 (video_feedback and feedback_list_2)","VF_1st",1,3,"Neutral Feedback","Screen 1","3zrml3",1,"continue","",29414.361000006,29403.429,29414.361000006,29414.361000006,29403.429,29414.361000006,1,29414.361000006,0,0,NA,"Click To Continue","Continue Button",1,"object-155","Neutral Feedback","P4_N.mp4","Screenshot 2023-06-30 at 15.01.08.png","Screenshot 2023-06-30 at 15.00.55.png",NA,"SUPPRF56705"
"65",23,1692006703358,"14/08/2023 09:51:43",1692010303358,1,"14/08/2023 11:51:43",140743,17,"task-s9co",NA,31172733,NA,"complete",NA,"64da01617f4e2f7acbe39dd7","computer","Desktop or Laptop","Windows 10","Chrome 115.0.0.0","1536x864","1536x747",NA,NA,0,"Video Feedback Task (Clone)",6,"GHFIEJDACB",NA,"study_2 (video_feedback and feedback_list_2)","VF_1st",1,3,"Neutral Feedback","Screen 1","3zrml3",1,"response","I could understand you",13343.884,29403.429,29417.6610000179,13343.884,29403.429,29417.6610000179,1,13343.884,16073.7770000179,0,NA,"Text Entry","Text Entry",4,"object-158","Neutral Feedback","P4_N.mp4","Screenshot 2023-06-30 at 15.01.08.png","Screenshot 2023-06-30 at 15.00.55.png",NA,"SUPPRF56705"
"66",24,1692006703359,"14/08/2023 09:51:43",1692010303359,1,"14/08/2023 11:51:43",140743,17,"task-s9co",NA,31172733,NA,"complete",NA,"64da01617f4e2f7acbe39dd7","computer","Desktop or Laptop","Windows 10","Chrome 115.0.0.0","1536x864","1536x747",NA,NA,0,"Video Feedback Task (Clone)",6,"GHFIEJDACB",NA,"study_2 (video_feedback and feedback_list_2)","VF_1st",1,3,"Neutral Feedback","Screen 1","3zrml3",1,"response","You described the picture",4581.21900000001,29403.429,29418.0610000239,4581.21900000001,29403.429,29418.0610000239,1,4581.21900000001,24836.8420000238,0,NA,"Text Entry","Text Entry",5,"object-159","Neutral Feedback","P4_N.mp4","Screenshot 2023-06-30 at 15.01.08.png","Screenshot 2023-06-30 at 15.00.55.png",NA,"SUPPRF56705"
"67",25,1692006704311,"14/08/2023 09:51:44",1692010304311,1,"14/08/2023 11:51:44",140743,17,"task-s9co",NA,31172733,NA,"complete",NA,"64da01617f4e2f7acbe39dd7","computer","Desktop or Laptop","Windows 10","Chrome 115.0.0.0","1536x864","1536x747",NA,NA,0,"Video Feedback Task (Clone)",6,"GHFIEJDACB",NA,"study_2 (video_feedback and feedback_list_2)","VF_1st",1,3,"Neutral Feedback","Screen 2","vv4mhq",2,"continue","",966.054000000004,966.054000000004,966.054000000004,966.054000000004,966.054000000004,966.054000000004,1,966.054000000004,0,0,NA,"Fixation Timing","Fixation",1,"object-153","Neutral Feedback","P4_N.mp4","Screenshot 2023-06-30 at 15.01.08.png","Screenshot 2023-06-30 at 15.00.55.png",NA,"SUPPRF56705"
"68",26,1692006728367,"14/08/2023 09:52:08",1692010328367,1,"14/08/2023 11:52:08",140743,17,"task-s9co",NA,31172733,NA,"complete",NA,"64da01617f4e2f7acbe39dd7","computer","Desktop or Laptop","Windows 10","Chrome 115.0.0.0","1536x864","1536x747",NA,NA,0,"Video Feedback Task (Clone)",6,"GHFIEJDACB",NA,"study_2 (video_feedback and feedback_list_2)","VF_1st",1,4,"Positive Feedback","Video","w2ir4b",1,"continue","",24056.7780000119,24055.679,24056.7780000119,24056.7780000119,24055.679,24056.7780000119,1,24056.7780000119,0,0,NA,"Click To Continue","Continue Button",1,"object-14","Positive Feedback","P3_P.mp4","Screenshot 2023-06-30 at 15.01.08.png","Screenshot 2023-06-30 at 15.02.01.png",NA,"SUPPRF56705"
"69",27,1692006728370,"14/08/2023 09:52:08",1692010328370,1,"14/08/2023 11:52:08",140743,17,"task-s9co",NA,31172733,NA,"complete",NA,"64da01617f4e2f7acbe39dd7","computer","Desktop or Laptop","Windows 10","Chrome 115.0.0.0","1536x864","1536x747",NA,NA,0,"Video Feedback Task (Clone)",6,"GHFIEJDACB",NA,"study_2 (video_feedback and feedback_list_2)","VF_1st",1,4,"Positive Feedback","Video","w2ir4b",1,"response","You described the scene well, I can picture it, nice use of adjectives",10928.4,24055.679,24059.5780000238,10928.4,24055.679,24059.5780000238,1,10928.4,13131.1780000239,0,NA,"Text Entry","Text Entry",4,"object-19","Positive Feedback","P3_P.mp4","Screenshot 2023-06-30 at 15.01.08.png","Screenshot 2023-06-30 at 15.02.01.png",NA,"SUPPRF56705"
"70",28,1692006728370,"14/08/2023 09:52:08",1692010328370,1,"14/08/2023 11:52:08",140743,17,"task-s9co",NA,31172733,NA,"complete",NA,"64da01617f4e2f7acbe39dd7","computer","Desktop or Laptop","Windows 10","Chrome 115.0.0.0","1536x864","1536x747",NA,NA,0,"Video Feedback Task (Clone)",6,"GHFIEJDACB",NA,"study_2 (video_feedback and feedback_list_2)","VF_1st",1,4,"Positive Feedback","Video","w2ir4b",1,"response","You have a nice accent",4348.065,24055.679,24060.1780000179,4348.065,24055.679,24060.1780000179,1,4348.065,19712.1130000179,0,NA,"Text Entry","Text Entry",5,"object-20","Positive Feedback","P3_P.mp4","Screenshot 2023-06-30 at 15.01.08.png","Screenshot 2023-06-30 at 15.02.01.png",NA,"SUPPRF56705"
"71",29,1692006729332,"14/08/2023 09:52:09",1692010329332,1,"14/08/2023 11:52:09",140743,17,"task-s9co",NA,31172733,NA,"complete",NA,"64da01617f4e2f7acbe39dd7","computer","Desktop or Laptop","Windows 10","Chrome 115.0.0.0","1536x864","1536x747",NA,NA,0,"Video Feedback Task (Clone)",6,"GHFIEJDACB",NA,"study_2 (video_feedback and feedback_list_2)","VF_1st",1,4,"Positive Feedback","Fixation","mtm832",2,"continue","",966.432000000001,966.432000000001,966.432000000001,966.432000000001,966.432000000001,966.432000000001,1,966.432000000001,0,0,NA,"Fixation Timing","Fixation",1,"object-65","Positive Feedback","P3_P.mp4","Screenshot 2023-06-30 at 15.01.08.png","Screenshot 2023-06-30 at 15.02.01.png",NA,"SUPPRF56705"
"72",30,1692006752398,"14/08/2023 09:52:32",1692010352398,1,"14/08/2023 11:52:32",140743,17,"task-s9co",NA,31172733,NA,"complete",NA,"64da01617f4e2f7acbe39dd7","computer","Desktop or Laptop","Windows 10","Chrome 115.0.0.0","1536x864","1536x747",NA,NA,0,"Video Feedback Task (Clone)",6,"GHFIEJDACB",NA,"study_2 (video_feedback and feedback_list_2)","VF_1st",1,4,"Neutral Feedback","Screen 1","3zrml3",1,"continue","",23065.267000006,23056.064,23065.267000006,23065.267000006,23056.064,23065.267000006,1,23065.267000006,0,0,NA,"Click To Continue","Continue Button",1,"object-155","Neutral Feedback","P5_N.mp4","Screenshot 2023-06-30 at 15.01.08.png","Screenshot 2023-06-30 at 15.00.55.png",NA,"SUPPRF56705"
"73",31,1692006752400,"14/08/2023 09:52:32",1692010352400,1,"14/08/2023 11:52:32",140743,17,"task-s9co",NA,31172733,NA,"complete",NA,"64da01617f4e2f7acbe39dd7","computer","Desktop or Laptop","Windows 10","Chrome 115.0.0.0","1536x864","1536x747",NA,NA,0,"Video Feedback Task (Clone)",6,"GHFIEJDACB",NA,"study_2 (video_feedback and feedback_list_2)","VF_1st",1,4,"Neutral Feedback","Screen 1","3zrml3",1,"response","You described the picture ok",14993.093,23056.064,23067.4670000238,14993.093,23056.064,23067.4670000238,1,14993.093,8074.37400002385,0,NA,"Text Entry","Text Entry",4,"object-158","Neutral Feedback","P5_N.mp4","Screenshot 2023-06-30 at 15.01.08.png","Screenshot 2023-06-30 at 15.00.55.png",NA,"SUPPRF56705"
"74",32,1692006752400,"14/08/2023 09:52:32",1692010352400,1,"14/08/2023 11:52:32",140743,17,"task-s9co",NA,31172733,NA,"complete",NA,"64da01617f4e2f7acbe39dd7","computer","Desktop or Laptop","Windows 10","Chrome 115.0.0.0","1536x864","1536x747",NA,NA,0,"Video Feedback Task (Clone)",6,"GHFIEJDACB",NA,"study_2 (video_feedback and feedback_list_2)","VF_1st",1,4,"Neutral Feedback","Screen 1","3zrml3",1,"response","I can understand what you're saying",4864.37299999999,23056.064,23067.867,4864.37299999999,23056.064,23067.867,1,4864.37299999999,18203.494,0,NA,"Text Entry","Text Entry",5,"object-159","Neutral Feedback","P5_N.mp4","Screenshot 2023-06-30 at 15.01.08.png","Screenshot 2023-06-30 at 15.00.55.png",NA,"SUPPRF56705"
"75",33,1692006753355,"14/08/2023 09:52:33",1692010353355,1,"14/08/2023 11:52:33",140743,17,"task-s9co",NA,31172733,NA,"complete",NA,"64da01617f4e2f7acbe39dd7","computer","Desktop or Laptop","Windows 10","Chrome 115.0.0.0","1536x864","1536x747",NA,NA,0,"Video Feedback Task (Clone)",6,"GHFIEJDACB",NA,"study_2 (video_feedback and feedback_list_2)","VF_1st",1,4,"Neutral Feedback","Screen 2","vv4mhq",2,"continue","",966.269000000029,966.269000000029,966.269000000029,966.269000000029,966.269000000029,966.269000000029,1,966.269000000029,0,0,NA,"Fixation Timing","Fixation",1,"object-153","Neutral Feedback","P5_N.mp4","Screenshot 2023-06-30 at 15.01.08.png","Screenshot 2023-06-30 at 15.00.55.png",NA,"SUPPRF56705"
"76",34,1692006783516,"14/08/2023 09:53:03",1692010383516,1,"14/08/2023 11:53:03",140743,17,"task-s9co",NA,31172733,NA,"complete",NA,"64da01617f4e2f7acbe39dd7","computer","Desktop or Laptop","Windows 10","Chrome 115.0.0.0","1536x864","1536x747",NA,NA,0,"Video Feedback Task (Clone)",6,"GHFIEJDACB",NA,"study_2 (video_feedback and feedback_list_2)","VF_1st",1,5,"Neutral Feedback","Screen 1","3zrml3",1,"continue","",30161.1340000238,30152.949,30161.1340000238,30161.1340000238,30152.949,30161.1340000238,1,30161.1340000238,0,0,NA,"Click To Continue","Continue Button",1,"object-155","Neutral Feedback","P1_N.mp4","Screenshot 2023-06-30 at 15.00.42.png","Screenshot 2023-06-30 at 15.00.55.png",NA,"SUPPRF56705"
"77",35,1692006783519,"14/08/2023 09:53:03",1692010383519,1,"14/08/2023 11:53:03",140743,17,"task-s9co",NA,31172733,NA,"complete",NA,"64da01617f4e2f7acbe39dd7","computer","Desktop or Laptop","Windows 10","Chrome 115.0.0.0","1536x864","1536x747",NA,NA,0,"Video Feedback Task (Clone)",6,"GHFIEJDACB",NA,"study_2 (video_feedback and feedback_list_2)","VF_1st",1,5,"Neutral Feedback","Screen 1","3zrml3",1,"response","I could understand what you were saying",11761.278,30152.949,30163.7340000179,11761.278,30152.949,30163.7340000179,1,11761.278,18402.4560000179,0,NA,"Text Entry","Text Entry",4,"object-158","Neutral Feedback","P1_N.mp4","Screenshot 2023-06-30 at 15.00.42.png","Screenshot 2023-06-30 at 15.00.55.png",NA,"SUPPRF56705"
"78",36,1692006783519,"14/08/2023 09:53:03",1692010383519,1,"14/08/2023 11:53:03",140743,17,"task-s9co",NA,31172733,NA,"complete",NA,"64da01617f4e2f7acbe39dd7","computer","Desktop or Laptop","Windows 10","Chrome 115.0.0.0","1536x864","1536x747",NA,NA,0,"Video Feedback Task (Clone)",6,"GHFIEJDACB",NA,"study_2 (video_feedback and feedback_list_2)","VF_1st",1,5,"Neutral Feedback","Screen 1","3zrml3",1,"response","You described the picture ok",3565.30699999997,30152.949,30164.4340000059,3565.30699999997,30152.949,30164.4340000059,1,3565.30699999997,26599.127000006,0,NA,"Text Entry","Text Entry",5,"object-159","Neutral Feedback","P1_N.mp4","Screenshot 2023-06-30 at 15.00.42.png","Screenshot 2023-06-30 at 15.00.55.png",NA,"SUPPRF56705"
"79",37,1692006784476,"14/08/2023 09:53:04",1692010384476,1,"14/08/2023 11:53:04",140743,17,"task-s9co",NA,31172733,NA,"complete",NA,"64da01617f4e2f7acbe39dd7","computer","Desktop or Laptop","Windows 10","Chrome 115.0.0.0","1536x864","1536x747",NA,NA,0,"Video Feedback Task (Clone)",6,"GHFIEJDACB",NA,"study_2 (video_feedback and feedback_list_2)","VF_1st",1,5,"Neutral Feedback","Screen 2","vv4mhq",2,"continue","",966.103000000003,966.103000000003,966.103000000003,966.103000000003,966.103000000003,966.103000000003,1,966.103000000003,0,0,NA,"Fixation Timing","Fixation",1,"object-153","Neutral Feedback","P1_N.mp4","Screenshot 2023-06-30 at 15.00.42.png","Screenshot 2023-06-30 at 15.00.55.png",NA,"SUPPRF56705"
"80",38,1692006821985,"14/08/2023 09:53:41",1692010421985,1,"14/08/2023 11:53:41",140743,17,"task-s9co",NA,31172733,NA,"complete",NA,"64da01617f4e2f7acbe39dd7","computer","Desktop or Laptop","Windows 10","Chrome 115.0.0.0","1536x864","1536x747",NA,NA,0,"Video Feedback Task (Clone)",6,"GHFIEJDACB",NA,"study_2 (video_feedback and feedback_list_2)","VF_1st",1,5,"Positive Feedback","Video","w2ir4b",1,"continue","",37510.982,37499.811,37510.982,37510.982,37499.811,37510.982,1,37510.982,0,0,NA,"Click To Continue","Continue Button",1,"object-14","Positive Feedback","P4_P.mp4","Screenshot 2023-06-30 at 15.00.42.png","Screenshot 2023-06-30 at 15.02.01.png",NA,"SUPPRF56705"
"81",39,1692006821988,"14/08/2023 09:53:41",1692010421988,1,"14/08/2023 11:53:41",140743,17,"task-s9co",NA,31172733,NA,"complete",NA,"64da01617f4e2f7acbe39dd7","computer","Desktop or Laptop","Windows 10","Chrome 115.0.0.0","1536x864","1536x747",NA,NA,0,"Video Feedback Task (Clone)",6,"GHFIEJDACB",NA,"study_2 (video_feedback and feedback_list_2)","VF_1st",1,5,"Positive Feedback","Video","w2ir4b",1,"response","I like the opinions you offer about the picture",27820.792,37499.811,37514.482,27820.792,37499.811,37514.482,1,27820.792,9693.69,0,NA,"Text Entry","Text Entry",4,"object-19","Positive Feedback","P4_P.mp4","Screenshot 2023-06-30 at 15.00.42.png","Screenshot 2023-06-30 at 15.02.01.png",NA,"SUPPRF56705"
"82",40,1692006821988,"14/08/2023 09:53:41",1692010421988,1,"14/08/2023 11:53:41",140743,17,"task-s9co",NA,31172733,NA,"complete",NA,"64da01617f4e2f7acbe39dd7","computer","Desktop or Laptop","Windows 10","Chrome 115.0.0.0","1536x864","1536x747",NA,NA,0,"Video Feedback Task (Clone)",6,"GHFIEJDACB",NA,"study_2 (video_feedback and feedback_list_2)","VF_1st",1,5,"Positive Feedback","Video","w2ir4b",1,"response","I like your smile and facial expressions",3448.527,37499.811,37515.1820000179,3448.527,37499.811,37515.1820000179,1,3448.527,34066.6550000179,0,NA,"Text Entry","Text Entry",5,"object-20","Positive Feedback","P4_P.mp4","Screenshot 2023-06-30 at 15.00.42.png","Screenshot 2023-06-30 at 15.02.01.png",NA,"SUPPRF56705"
"83",41,1692006822941,"14/08/2023 09:53:42",1692010422941,1,"14/08/2023 11:53:42",140743,17,"task-s9co",NA,31172733,NA,"complete",NA,"64da01617f4e2f7acbe39dd7","computer","Desktop or Laptop","Windows 10","Chrome 115.0.0.0","1536x864","1536x747",NA,NA,0,"Video Feedback Task (Clone)",6,"GHFIEJDACB",NA,"study_2 (video_feedback and feedback_list_2)","VF_1st",1,5,"Positive Feedback","Fixation","mtm832",2,"continue","",966.170999999973,966.170999999973,966.170999999973,966.170999999973,966.170999999973,966.170999999973,1,966.170999999973,0,0,NA,"Fixation Timing","Fixation",1,"object-65","Positive Feedback","P4_P.mp4","Screenshot 2023-06-30 at 15.00.42.png","Screenshot 2023-06-30 at 15.02.01.png",NA,"SUPPRF56705"
"84",42,1692006822951,"14/08/2023 09:53:42",1692010422951,1,"14/08/2023 11:53:42",140743,17,"task-s9co",NA,31172733,NA,"complete",NA,"64da01617f4e2f7acbe39dd7","computer","Desktop or Laptop","Windows 10","Chrome 115.0.0.0","1536x864","1536x747",NA,NA,0,"Video Feedback Task (Clone)",6,"GHFIEJDACB",NA,"study_2 (video_feedback and feedback_list_2)","VF_1st",1,NA,"","","",NA,"5","END",NA,NA,NA,NA,NA,NA,0,NA,NA,NA,NA,"","",NA,"","","","","",NA,"SUPPRF56705"
"85",1,1692015324054,"14/08/2023 12:15:24",1692018924054,1,"14/08/2023 14:15:24",140743,17,"task-s9co",NA,31175602,NA,"complete",NA,"64da2331d1c99ce54caf7f00","computer","Desktop or Laptop","Windows 10","Chrome 115.0.0.0","1280x720","1280x595",NA,NA,0,"Video Feedback Task (Clone)",6,"DECFBGAHJI",NA,"study_2 (video_feedback and feedback_list_2)","VF_1st",1,NA,"","","",NA,"5","BEGIN",NA,NA,NA,NA,NA,NA,0,NA,NA,NA,NA,"","",NA,"","","","","",NA,"SUPPRF01065"
"86",2,1692015357547,"14/08/2023 12:15:57",1692018957547,1,"14/08/2023 14:15:57",140743,17,"task-s9co",NA,31175602,NA,"complete",NA,"64da2331d1c99ce54caf7f00","computer","Desktop or Laptop","Windows 10","Chrome 115.0.0.0","1280x720","1280x595",NA,NA,0,"Video Feedback Task (Clone)",6,"DECFBGAHJI",NA,"study_2 (video_feedback and feedback_list_2)","VF_1st",1,1,"Neutral Feedback","Screen 1","3zrml3",1,"continue","",30225.4299999523,30212.68,30225.4299999523,30225.4299999523,30212.68,30225.4299999523,1,30225.4299999523,0,0,NA,"Click To Continue","Continue Button",1,"object-155","Neutral Feedback","P2_N.mp4","Screenshot 2023-06-30 at 15.00.42.png","Screenshot 2023-06-30 at 15.02.01.png",NA,"SUPPRF01065"
"87",3,1692015357554,"14/08/2023 12:15:57",1692018957554,1,"14/08/2023 14:15:57",140743,17,"task-s9co",NA,31175602,NA,"complete",NA,"64da2331d1c99ce54caf7f00","computer","Desktop or Laptop","Windows 10","Chrome 115.0.0.0","1280x720","1280x595",NA,NA,0,"Video Feedback Task (Clone)",6,"DECFBGAHJI",NA,"study_2 (video_feedback and feedback_list_2)","VF_1st",1,1,"Neutral Feedback","Screen 1","3zrml3",1,"response","you looked normal",22230.319,30212.68,30229.216,22230.319,30212.68,30229.216,1,22230.319,7998.897,0,NA,"Text Entry","Text Entry",4,"object-158","Neutral Feedback","P2_N.mp4","Screenshot 2023-06-30 at 15.00.42.png","Screenshot 2023-06-30 at 15.02.01.png",NA,"SUPPRF01065"
"88",4,1692015357554,"14/08/2023 12:15:57",1692018957554,1,"14/08/2023 14:15:57",140743,17,"task-s9co",NA,31175602,NA,"complete",NA,"64da2331d1c99ce54caf7f00","computer","Desktop or Laptop","Windows 10","Chrome 115.0.0.0","1280x720","1280x595",NA,NA,0,"Video Feedback Task (Clone)",6,"DECFBGAHJI",NA,"study_2 (video_feedback and feedback_list_2)","VF_1st",1,1,"Neutral Feedback","Screen 1","3zrml3",1,"response","you did ok",8832.065,30212.68,30229.216,8832.065,30212.68,30229.216,1,8832.065,21397.151,0,NA,"Text Entry","Text Entry",5,"object-159","Neutral Feedback","P2_N.mp4","Screenshot 2023-06-30 at 15.00.42.png","Screenshot 2023-06-30 at 15.02.01.png",NA,"SUPPRF01065"
"89",5,1692015358501,"14/08/2023 12:15:58",1692018958501,1,"14/08/2023 14:15:58",140743,17,"task-s9co",NA,31175602,NA,"complete",NA,"64da2331d1c99ce54caf7f00","computer","Desktop or Laptop","Windows 10","Chrome 115.0.0.0","1280x720","1280x595",NA,NA,0,"Video Feedback Task (Clone)",6,"DECFBGAHJI",NA,"study_2 (video_feedback and feedback_list_2)","VF_1st",1,1,"Neutral Feedback","Screen 2","vv4mhq",2,"continue","",966.428,966.428,966.428,966.428,966.428,966.428,1,966.428,0,0,NA,"Fixation Timing","Fixation",1,"object-153","Neutral Feedback","P2_N.mp4","Screenshot 2023-06-30 at 15.00.42.png","Screenshot 2023-06-30 at 15.02.01.png",NA,"SUPPRF01065"
"90",6,1692015391471,"14/08/2023 12:16:31",1692018991471,1,"14/08/2023 14:16:31",140743,17,"task-s9co",NA,31175602,NA,"complete",NA,"64da2331d1c99ce54caf7f00","computer","Desktop or Laptop","Windows 10","Chrome 115.0.0.0","1280x720","1280x595",NA,NA,0,"Video Feedback Task (Clone)",6,"DECFBGAHJI",NA,"study_2 (video_feedback and feedback_list_2)","VF_1st",1,1,"Positive Feedback","Video","w2ir4b",1,"continue","",32971.2219999285,32962.388,32971.2219999285,32971.2219999285,32962.388,32971.2219999285,1,32971.2219999285,0,0,NA,"Click To Continue","Continue Button",1,"object-14","Positive Feedback","P5_P.mp4","Screenshot 2023-06-30 at 15.01.08.png","Screenshot 2023-06-30 at 15.00.55.png",NA,"SUPPRF01065"
"91",7,1692015391476,"14/08/2023 12:16:31",1692018991476,1,"14/08/2023 14:16:31",140743,17,"task-s9co",NA,31175602,NA,"complete",NA,"64da2331d1c99ce54caf7f00","computer","Desktop or Laptop","Windows 10","Chrome 115.0.0.0","1280x720","1280x595",NA,NA,0,"Video Feedback Task (Clone)",6,"DECFBGAHJI",NA,"study_2 (video_feedback and feedback_list_2)","VF_1st",1,1,"Positive Feedback","Video","w2ir4b",1,"response","you really made a point here",18247.986,32962.388,32976.022,18247.986,32962.388,32976.022,1,18247.986,14728.036,0,NA,"Text Entry","Text Entry",4,"object-19","Positive Feedback","P5_P.mp4","Screenshot 2023-06-30 at 15.01.08.png","Screenshot 2023-06-30 at 15.00.55.png",NA,"SUPPRF01065"
"92",8,1692015391476,"14/08/2023 12:16:31",1692018991476,1,"14/08/2023 14:16:31",140743,17,"task-s9co",NA,31175602,NA,"complete",NA,"64da2331d1c99ce54caf7f00","computer","Desktop or Laptop","Windows 10","Chrome 115.0.0.0","1280x720","1280x595",NA,NA,0,"Video Feedback Task (Clone)",6,"DECFBGAHJI",NA,"study_2 (video_feedback and feedback_list_2)","VF_1st",1,1,"Positive Feedback","Video","w2ir4b",1,"response","you did great",6399.528,32962.388,32976.8219999523,6399.528,32962.388,32976.8219999523,1,6399.528,26577.2939999523,0,NA,"Text Entry","Text Entry",5,"object-20","Positive Feedback","P5_P.mp4","Screenshot 2023-06-30 at 15.01.08.png","Screenshot 2023-06-30 at 15.00.55.png",NA,"SUPPRF01065"
"93",9,1692015392429,"14/08/2023 12:16:32",1692018992429,1,"14/08/2023 14:16:32",140743,17,"task-s9co",NA,31175602,NA,"complete",NA,"64da2331d1c99ce54caf7f00","computer","Desktop or Laptop","Windows 10","Chrome 115.0.0.0","1280x720","1280x595",NA,NA,0,"Video Feedback Task (Clone)",6,"DECFBGAHJI",NA,"study_2 (video_feedback and feedback_list_2)","VF_1st",1,1,"Positive Feedback","Fixation","mtm832",2,"continue","",966.556000000011,966.556000000011,966.556000000011,966.556000000011,966.556000000011,966.556000000011,1,966.556000000011,0,0,NA,"Fixation Timing","Fixation",1,"object-65","Positive Feedback","P5_P.mp4","Screenshot 2023-06-30 at 15.01.08.png","Screenshot 2023-06-30 at 15.00.55.png",NA,"SUPPRF01065"
"94",10,1692015440364,"14/08/2023 12:17:20",1692019040364,1,"14/08/2023 14:17:20",140743,17,"task-s9co",NA,31175602,NA,"complete",NA,"64da2331d1c99ce54caf7f00","computer","Desktop or Laptop","Windows 10","Chrome 115.0.0.0","1280x720","1280x595",NA,NA,0,"Video Feedback Task (Clone)",6,"DECFBGAHJI",NA,"study_2 (video_feedback and feedback_list_2)","VF_1st",1,2,"Positive Feedback","Video","w2ir4b",1,"continue","",47935.3779999523,47927.184,47935.3779999523,47935.3779999523,47927.184,47935.3779999523,1,47935.3779999523,0,0,NA,"Click To Continue","Continue Button",1,"object-14","Positive Feedback","P2_P.mp4","Screenshot 2023-06-30 at 15.00.42.png","Screenshot 2023-06-30 at 15.02.01.png",NA,"SUPPRF01065"
"95",11,1692015440375,"14/08/2023 12:17:20",1692019040375,1,"14/08/2023 14:17:20",140743,17,"task-s9co",NA,31175602,NA,"complete",NA,"64da2331d1c99ce54caf7f00","computer","Desktop or Laptop","Windows 10","Chrome 115.0.0.0","1280x720","1280x595",NA,NA,0,"Video Feedback Task (Clone)",6,"DECFBGAHJI",NA,"study_2 (video_feedback and feedback_list_2)","VF_1st",1,2,"Positive Feedback","Video","w2ir4b",1,"response","you came through knowledgeable",19814.139,47927.184,47943.737,19814.139,47927.184,47943.737,1,19814.139,28129.598,0,NA,"Text Entry","Text Entry",4,"object-19","Positive Feedback","P2_P.mp4","Screenshot 2023-06-30 at 15.00.42.png","Screenshot 2023-06-30 at 15.02.01.png",NA,"SUPPRF01065"
"96",12,1692015440375,"14/08/2023 12:17:20",1692019040375,1,"14/08/2023 14:17:20",140743,17,"task-s9co",NA,31175602,NA,"complete",NA,"64da2331d1c99ce54caf7f00","computer","Desktop or Laptop","Windows 10","Chrome 115.0.0.0","1280x720","1280x595",NA,NA,0,"Video Feedback Task (Clone)",6,"DECFBGAHJI",NA,"study_2 (video_feedback and feedback_list_2)","VF_1st",1,2,"Positive Feedback","Video","w2ir4b",1,"response","you really looked confident",6749.427,47927.184,47943.737,6749.427,47927.184,47943.737,1,6749.427,41194.31,0,NA,"Text Entry","Text Entry",5,"object-20","Positive Feedback","P2_P.mp4","Screenshot 2023-06-30 at 15.00.42.png","Screenshot 2023-06-30 at 15.02.01.png",NA,"SUPPRF01065"
"97",13,1692015441323,"14/08/2023 12:17:21",1692019041323,1,"14/08/2023 14:17:21",140743,17,"task-s9co",NA,31175602,NA,"complete",NA,"64da2331d1c99ce54caf7f00","computer","Desktop or Laptop","Windows 10","Chrome 115.0.0.0","1280x720","1280x595",NA,NA,0,"Video Feedback Task (Clone)",6,"DECFBGAHJI",NA,"study_2 (video_feedback and feedback_list_2)","VF_1st",1,2,"Positive Feedback","Fixation","mtm832",2,"continue","",966.616999999998,966.616999999998,966.616999999998,966.616999999998,966.616999999998,966.616999999998,1,966.616999999998,0,0,NA,"Fixation Timing","Fixation",1,"object-65","Positive Feedback","P2_P.mp4","Screenshot 2023-06-30 at 15.00.42.png","Screenshot 2023-06-30 at 15.02.01.png",NA,"SUPPRF01065"
"98",14,1692015500904,"14/08/2023 12:18:20",1692019100904,1,"14/08/2023 14:18:20",140743,17,"task-s9co",NA,31175602,NA,"complete",NA,"64da2331d1c99ce54caf7f00","computer","Desktop or Laptop","Windows 10","Chrome 115.0.0.0","1280x720","1280x595",NA,NA,0,"Video Feedback Task (Clone)",6,"DECFBGAHJI",NA,"study_2 (video_feedback and feedback_list_2)","VF_1st",1,2,"Neutral Feedback","Screen 1","3zrml3",1,"continue","",59581.0769999523,59575.904,59581.0769999523,59581.0769999523,59575.904,59581.0769999523,1,59581.0769999523,0,0,NA,"Click To Continue","Continue Button",1,"object-155","Neutral Feedback","P3_N.mp4","Screenshot 2023-06-30 at 15.01.08.png","Screenshot 2023-06-30 at 15.00.55.png",NA,"SUPPRF01065"
"99",15,1692015500912,"14/08/2023 12:18:20",1692019100912,1,"14/08/2023 14:18:20",140743,17,"task-s9co",NA,31175602,NA,"complete",NA,"64da2331d1c99ce54caf7f00","computer","Desktop or Laptop","Windows 10","Chrome 115.0.0.0","1280x720","1280x595",NA,NA,0,"Video Feedback Task (Clone)",6,"DECFBGAHJI",NA,"study_2 (video_feedback and feedback_list_2)","VF_1st",1,2,"Neutral Feedback","Screen 1","3zrml3",1,"response","you seemed alright",39611.448,59575.904,59589.6769999762,39611.448,59575.904,59589.6769999762,1,39611.448,19978.2289999762,0,NA,"Text Entry","Text Entry",4,"object-158","Neutral Feedback","P3_N.mp4","Screenshot 2023-06-30 at 15.01.08.png","Screenshot 2023-06-30 at 15.00.55.png",NA,"SUPPRF01065"
"100",16,1692015500913,"14/08/2023 12:18:20",1692019100913,1,"14/08/2023 14:18:20",140743,17,"task-s9co",NA,31175602,NA,"complete",NA,"64da2331d1c99ce54caf7f00","computer","Desktop or Laptop","Windows 10","Chrome 115.0.0.0","1280x720","1280x595",NA,NA,0,"Video Feedback Task (Clone)",6,"DECFBGAHJI",NA,"study_2 (video_feedback and feedback_list_2)","VF_1st",1,2,"Neutral Feedback","Screen 1","3zrml3",1,"response","you were ok",9115.666,59575.904,59590.777,9115.666,59575.904,59590.777,1,9115.666,50475.111,0,NA,"Text Entry","Text Entry",5,"object-159","Neutral Feedback","P3_N.mp4","Screenshot 2023-06-30 at 15.01.08.png","Screenshot 2023-06-30 at 15.00.55.png",NA,"SUPPRF01065"
"101",17,1692015501865,"14/08/2023 12:18:21",1692019101865,1,"14/08/2023 14:18:21",140743,17,"task-s9co",NA,31175602,NA,"complete",NA,"64da2331d1c99ce54caf7f00","computer","Desktop or Laptop","Windows 10","Chrome 115.0.0.0","1280x720","1280x595",NA,NA,0,"Video Feedback Task (Clone)",6,"DECFBGAHJI",NA,"study_2 (video_feedback and feedback_list_2)","VF_1st",1,2,"Neutral Feedback","Screen 2","vv4mhq",2,"continue","",966.271999999997,966.271999999997,966.271999999997,966.271999999997,966.271999999997,966.271999999997,1,966.271999999997,0,0,NA,"Fixation Timing","Fixation",1,"object-153","Neutral Feedback","P3_N.mp4","Screenshot 2023-06-30 at 15.01.08.png","Screenshot 2023-06-30 at 15.00.55.png",NA,"SUPPRF01065"
"102",18,1692015542382,"14/08/2023 12:19:02",1692019142382,1,"14/08/2023 14:19:02",140743,17,"task-s9co",NA,31175602,NA,"complete",NA,"64da2331d1c99ce54caf7f00","computer","Desktop or Laptop","Windows 10","Chrome 115.0.0.0","1280x720","1280x595",NA,NA,0,"Video Feedback Task (Clone)",6,"DECFBGAHJI",NA,"study_2 (video_feedback and feedback_list_2)","VF_1st",1,3,"Positive Feedback","Video","w2ir4b",1,"continue","",40517.7009999046,40511.628,40517.7009999046,40517.7009999046,40511.628,40517.7009999046,1,40517.7009999046,0,0,NA,"Click To Continue","Continue Button",1,"object-14","Positive Feedback","P1_P.mp4","Screenshot 2023-06-30 at 15.00.42.png","Screenshot 2023-06-30 at 15.02.01.png",NA,"SUPPRF01065"
"103",19,1692015542390,"14/08/2023 12:19:02",1692019142390,1,"14/08/2023 14:19:02",140743,17,"task-s9co",NA,31175602,NA,"complete",NA,"64da2331d1c99ce54caf7f00","computer","Desktop or Laptop","Windows 10","Chrome 115.0.0.0","1280x720","1280x595",NA,NA,0,"Video Feedback Task (Clone)",6,"DECFBGAHJI",NA,"study_2 (video_feedback and feedback_list_2)","VF_1st",1,3,"Positive Feedback","Video","w2ir4b",1,"response","you were great",31645.8,40511.628,40525.601,31645.8,40511.628,40525.601,1,31645.8,8879.80100000001,0,NA,"Text Entry","Text Entry",4,"object-19","Positive Feedback","P1_P.mp4","Screenshot 2023-06-30 at 15.00.42.png","Screenshot 2023-06-30 at 15.02.01.png",NA,"SUPPRF01065"
"104",20,1692015542391,"14/08/2023 12:19:02",1692019142391,1,"14/08/2023 14:19:02",140743,17,"task-s9co",NA,31175602,NA,"complete",NA,"64da2331d1c99ce54caf7f00","computer","Desktop or Laptop","Windows 10","Chrome 115.0.0.0","1280x720","1280x595",NA,NA,0,"Video Feedback Task (Clone)",6,"DECFBGAHJI",NA,"study_2 (video_feedback and feedback_list_2)","VF_1st",1,3,"Positive Feedback","Video","w2ir4b",1,"response","you explained yourself perfectly",15281.278,40511.628,40526.601,15281.278,40511.628,40526.601,1,15281.278,25245.323,0,NA,"Text Entry","Text Entry",5,"object-20","Positive Feedback","P1_P.mp4","Screenshot 2023-06-30 at 15.00.42.png","Screenshot 2023-06-30 at 15.02.01.png",NA,"SUPPRF01065"
"105",21,1692015543343,"14/08/2023 12:19:03",1692019143343,1,"14/08/2023 14:19:03",140743,17,"task-s9co",NA,31175602,NA,"complete",NA,"64da2331d1c99ce54caf7f00","computer","Desktop or Laptop","Windows 10","Chrome 115.0.0.0","1280x720","1280x595",NA,NA,0,"Video Feedback Task (Clone)",6,"DECFBGAHJI",NA,"study_2 (video_feedback and feedback_list_2)","VF_1st",1,3,"Positive Feedback","Fixation","mtm832",2,"continue","",966.222000000009,966.222000000009,966.222000000009,966.222000000009,966.222000000009,966.222000000009,1,966.222000000009,0,0,NA,"Fixation Timing","Fixation",1,"object-65","Positive Feedback","P1_P.mp4","Screenshot 2023-06-30 at 15.00.42.png","Screenshot 2023-06-30 at 15.02.01.png",NA,"SUPPRF01065"
"106",22,1692015570866,"14/08/2023 12:19:30",1692019170866,1,"14/08/2023 14:19:30",140743,17,"task-s9co",NA,31175602,NA,"complete",NA,"64da2331d1c99ce54caf7f00","computer","Desktop or Laptop","Windows 10","Chrome 115.0.0.0","1280x720","1280x595",NA,NA,0,"Video Feedback Task (Clone)",6,"DECFBGAHJI",NA,"study_2 (video_feedback and feedback_list_2)","VF_1st",1,3,"Neutral Feedback","Screen 1","3zrml3",1,"continue","",27522.5509999523,27513.17,27522.5509999523,27522.5509999523,27513.17,27522.5509999523,1,27522.5509999523,0,0,NA,"Click To Continue","Continue Button",1,"object-155","Neutral Feedback","P4_N.mp4","Screenshot 2023-06-30 at 15.00.42.png","Screenshot 2023-06-30 at 15.02.01.png",NA,"SUPPRF01065"
"107",23,1692015570874,"14/08/2023 12:19:30",1692019170874,1,"14/08/2023 14:19:30",140743,17,"task-s9co",NA,31175602,NA,"complete",NA,"64da2331d1c99ce54caf7f00","computer","Desktop or Laptop","Windows 10","Chrome 115.0.0.0","1280x720","1280x595",NA,NA,0,"Video Feedback Task (Clone)",6,"DECFBGAHJI",NA,"study_2 (video_feedback and feedback_list_2)","VF_1st",1,3,"Neutral Feedback","Screen 1","3zrml3",1,"response","i could understand you",18547.669,27513.17,27529.841,18547.669,27513.17,27529.841,1,18547.669,8982.17199999999,0,NA,"Text Entry","Text Entry",4,"object-158","Neutral Feedback","P4_N.mp4","Screenshot 2023-06-30 at 15.00.42.png","Screenshot 2023-06-30 at 15.02.01.png",NA,"SUPPRF01065"
"108",24,1692015570875,"14/08/2023 12:19:30",1692019170875,1,"14/08/2023 14:19:30",140743,17,"task-s9co",NA,31175602,NA,"complete",NA,"64da2331d1c99ce54caf7f00","computer","Desktop or Laptop","Windows 10","Chrome 115.0.0.0","1280x720","1280x595",NA,NA,0,"Video Feedback Task (Clone)",6,"DECFBGAHJI",NA,"study_2 (video_feedback and feedback_list_2)","VF_1st",1,3,"Neutral Feedback","Screen 1","3zrml3",1,"response","you seemed shy",8932.429,27513.17,27529.841,8932.429,27513.17,27529.841,1,8932.429,18597.412,0,NA,"Text Entry","Text Entry",5,"object-159","Neutral Feedback","P4_N.mp4","Screenshot 2023-06-30 at 15.00.42.png","Screenshot 2023-06-30 at 15.02.01.png",NA,"SUPPRF01065"
"109",25,1692015571823,"14/08/2023 12:19:31",1692019171823,1,"14/08/2023 14:19:31",140743,17,"task-s9co",NA,31175602,NA,"complete",NA,"64da2331d1c99ce54caf7f00","computer","Desktop or Laptop","Windows 10","Chrome 115.0.0.0","1280x720","1280x595",NA,NA,0,"Video Feedback Task (Clone)",6,"DECFBGAHJI",NA,"study_2 (video_feedback and feedback_list_2)","VF_1st",1,3,"Neutral Feedback","Screen 2","vv4mhq",2,"continue","",966.902999999991,966.902999999991,966.902999999991,966.902999999991,966.902999999991,966.902999999991,1,966.902999999991,0,0,NA,"Fixation Timing","Fixation",1,"object-153","Neutral Feedback","P4_N.mp4","Screenshot 2023-06-30 at 15.00.42.png","Screenshot 2023-06-30 at 15.02.01.png",NA,"SUPPRF01065"
"110",26,1692015609407,"14/08/2023 12:20:09",1692019209407,1,"14/08/2023 14:20:09",140743,17,"task-s9co",NA,31175602,NA,"complete",NA,"64da2331d1c99ce54caf7f00","computer","Desktop or Laptop","Windows 10","Chrome 115.0.0.0","1280x720","1280x595",NA,NA,0,"Video Feedback Task (Clone)",6,"DECFBGAHJI",NA,"study_2 (video_feedback and feedback_list_2)","VF_1st",1,4,"Positive Feedback","Video","w2ir4b",1,"continue","",37583.678,37578.409,37583.678,37583.678,37578.409,37583.678,1,37583.678,0,0,NA,"Click To Continue","Continue Button",1,"object-14","Positive Feedback","P3_P.mp4","Screenshot 2023-06-30 at 15.00.42.png","Screenshot 2023-06-30 at 15.00.55.png",NA,"SUPPRF01065"
"111",27,1692015609414,"14/08/2023 12:20:09",1692019209414,1,"14/08/2023 14:20:09",140743,17,"task-s9co",NA,31175602,NA,"complete",NA,"64da2331d1c99ce54caf7f00","computer","Desktop or Laptop","Windows 10","Chrome 115.0.0.0","1280x720","1280x595",NA,NA,0,"Video Feedback Task (Clone)",6,"DECFBGAHJI",NA,"study_2 (video_feedback and feedback_list_2)","VF_1st",1,4,"Positive Feedback","Video","w2ir4b",1,"response","it was a pleasure to watch",27329.396,37578.409,37591.0779999762,27329.396,37578.409,37591.0779999762,1,27329.396,10261.6819999762,0,NA,"Text Entry","Text Entry",4,"object-19","Positive Feedback","P3_P.mp4","Screenshot 2023-06-30 at 15.00.42.png","Screenshot 2023-06-30 at 15.00.55.png",NA,"SUPPRF01065"
"112",28,1692015609415,"14/08/2023 12:20:09",1692019209415,1,"14/08/2023 14:20:09",140743,17,"task-s9co",NA,31175602,NA,"complete",NA,"64da2331d1c99ce54caf7f00","computer","Desktop or Laptop","Windows 10","Chrome 115.0.0.0","1280x720","1280x595",NA,NA,0,"Video Feedback Task (Clone)",6,"DECFBGAHJI",NA,"study_2 (video_feedback and feedback_list_2)","VF_1st",1,4,"Positive Feedback","Video","w2ir4b",1,"response","you sounded like an expert",6365.44700000001,37578.409,37592.178,6365.44700000001,37578.409,37592.178,1,6365.44700000001,31226.731,0,NA,"Text Entry","Text Entry",5,"object-20","Positive Feedback","P3_P.mp4","Screenshot 2023-06-30 at 15.00.42.png","Screenshot 2023-06-30 at 15.00.55.png",NA,"SUPPRF01065"
"113",29,1692015610369,"14/08/2023 12:20:10",1692019210369,1,"14/08/2023 14:20:10",140743,17,"task-s9co",NA,31175602,NA,"complete",NA,"64da2331d1c99ce54caf7f00","computer","Desktop or Laptop","Windows 10","Chrome 115.0.0.0","1280x720","1280x595",NA,NA,0,"Video Feedback Task (Clone)",6,"DECFBGAHJI",NA,"study_2 (video_feedback and feedback_list_2)","VF_1st",1,4,"Positive Feedback","Fixation","mtm832",2,"continue","",966.194999999949,966.194999999949,966.194999999949,966.194999999949,966.194999999949,966.194999999949,1,966.194999999949,0,0,NA,"Fixation Timing","Fixation",1,"object-65","Positive Feedback","P3_P.mp4","Screenshot 2023-06-30 at 15.00.42.png","Screenshot 2023-06-30 at 15.00.55.png",NA,"SUPPRF01065"
"114",30,1692015642786,"14/08/2023 12:20:42",1692019242786,1,"14/08/2023 14:20:42",140743,17,"task-s9co",NA,31175602,NA,"complete",NA,"64da2331d1c99ce54caf7f00","computer","Desktop or Laptop","Windows 10","Chrome 115.0.0.0","1280x720","1280x595",NA,NA,0,"Video Feedback Task (Clone)",6,"DECFBGAHJI",NA,"study_2 (video_feedback and feedback_list_2)","VF_1st",1,4,"Neutral Feedback","Screen 1","3zrml3",1,"continue","",32417.8739999523,32412.772,32417.8739999523,32417.8739999523,32412.772,32417.8739999523,1,32417.8739999523,0,0,NA,"Click To Continue","Continue Button",1,"object-155","Neutral Feedback","P5_N.mp4","Screenshot 2023-06-30 at 15.01.08.png","Screenshot 2023-06-30 at 15.02.01.png",NA,"SUPPRF01065"
"115",31,1692015642793,"14/08/2023 12:20:42",1692019242793,1,"14/08/2023 14:20:42",140743,17,"task-s9co",NA,31175602,NA,"complete",NA,"64da2331d1c99ce54caf7f00","computer","Desktop or Laptop","Windows 10","Chrome 115.0.0.0","1280x720","1280x595",NA,NA,0,"Video Feedback Task (Clone)",6,"DECFBGAHJI",NA,"study_2 (video_feedback and feedback_list_2)","VF_1st",1,4,"Neutral Feedback","Screen 1","3zrml3",1,"response","you did just fine",25213.346,32412.772,32424.9739999762,25213.346,32412.772,32424.9739999762,1,25213.346,7211.62799997616,0,NA,"Text Entry","Text Entry",4,"object-158","Neutral Feedback","P5_N.mp4","Screenshot 2023-06-30 at 15.01.08.png","Screenshot 2023-06-30 at 15.02.01.png",NA,"SUPPRF01065"
"116",32,1692015642794,"14/08/2023 12:20:42",1692019242794,1,"14/08/2023 14:20:42",140743,17,"task-s9co",NA,31175602,NA,"complete",NA,"64da2331d1c99ce54caf7f00","computer","Desktop or Laptop","Windows 10","Chrome 115.0.0.0","1280x720","1280x595",NA,NA,0,"Video Feedback Task (Clone)",6,"DECFBGAHJI",NA,"study_2 (video_feedback and feedback_list_2)","VF_1st",1,4,"Neutral Feedback","Screen 1","3zrml3",1,"response","you were natural",7216.06700000004,32412.772,32425.7739999285,7216.06700000004,32412.772,32425.7739999285,1,7216.06700000004,25209.7069999285,0,NA,"Text Entry","Text Entry",5,"object-159","Neutral Feedback","P5_N.mp4","Screenshot 2023-06-30 at 15.01.08.png","Screenshot 2023-06-30 at 15.02.01.png",NA,"SUPPRF01065"
"117",33,1692015643748,"14/08/2023 12:20:43",1692019243748,1,"14/08/2023 14:20:43",140743,17,"task-s9co",NA,31175602,NA,"complete",NA,"64da2331d1c99ce54caf7f00","computer","Desktop or Laptop","Windows 10","Chrome 115.0.0.0","1280x720","1280x595",NA,NA,0,"Video Feedback Task (Clone)",6,"DECFBGAHJI",NA,"study_2 (video_feedback and feedback_list_2)","VF_1st",1,4,"Neutral Feedback","Screen 2","vv4mhq",2,"continue","",966.247000000032,966.247000000032,966.247000000032,966.247000000032,966.247000000032,966.247000000032,1,966.247000000032,0,0,NA,"Fixation Timing","Fixation",1,"object-153","Neutral Feedback","P5_N.mp4","Screenshot 2023-06-30 at 15.01.08.png","Screenshot 2023-06-30 at 15.02.01.png",NA,"SUPPRF01065"
"118",34,1692015687280,"14/08/2023 12:21:27",1692019287280,1,"14/08/2023 14:21:27",140743,17,"task-s9co",NA,31175602,NA,"complete",NA,"64da2331d1c99ce54caf7f00","computer","Desktop or Laptop","Windows 10","Chrome 115.0.0.0","1280x720","1280x595",NA,NA,0,"Video Feedback Task (Clone)",6,"DECFBGAHJI",NA,"study_2 (video_feedback and feedback_list_2)","VF_1st",1,5,"Neutral Feedback","Screen 1","3zrml3",1,"continue","",43533.7549999285,43528.048,43533.7549999285,43533.7549999285,43528.048,43533.7549999285,1,43533.7549999285,0,0,NA,"Click To Continue","Continue Button",1,"object-155","Neutral Feedback","P1_N.mp4","Screenshot 2023-06-30 at 15.01.08.png","Screenshot 2023-06-30 at 15.00.55.png",NA,"SUPPRF01065"
"119",35,1692015687288,"14/08/2023 12:21:27",1692019287288,1,"14/08/2023 14:21:27",140743,17,"task-s9co",NA,31175602,NA,"complete",NA,"64da2331d1c99ce54caf7f00","computer","Desktop or Laptop","Windows 10","Chrome 115.0.0.0","1280x720","1280x595",NA,NA,0,"Video Feedback Task (Clone)",6,"DECFBGAHJI",NA,"study_2 (video_feedback and feedback_list_2)","VF_1st",1,5,"Neutral Feedback","Screen 1","3zrml3",1,"response","it was ok",38928.4,43528.048,43541.8549999523,38928.4,43528.048,43541.8549999523,1,38928.4,4613.45499995234,0,NA,"Text Entry","Text Entry",4,"object-158","Neutral Feedback","P1_N.mp4","Screenshot 2023-06-30 at 15.01.08.png","Screenshot 2023-06-30 at 15.00.55.png",NA,"SUPPRF01065"
"120",36,1692015687289,"14/08/2023 12:21:27",1692019287289,1,"14/08/2023 14:21:27",140743,17,"task-s9co",NA,31175602,NA,"complete",NA,"64da2331d1c99ce54caf7f00","computer","Desktop or Laptop","Windows 10","Chrome 115.0.0.0","1280x720","1280x595",NA,NA,0,"Video Feedback Task (Clone)",6,"DECFBGAHJI",NA,"study_2 (video_feedback and feedback_list_2)","VF_1st",1,5,"Neutral Feedback","Screen 1","3zrml3",1,"response","i could follow your point",9515.36499999999,43528.048,43542.8549999523,9515.36499999999,43528.048,43542.8549999523,1,9515.36499999999,34027.4899999523,0,NA,"Text Entry","Text Entry",5,"object-159","Neutral Feedback","P1_N.mp4","Screenshot 2023-06-30 at 15.01.08.png","Screenshot 2023-06-30 at 15.00.55.png",NA,"SUPPRF01065"
"121",37,1692015688241,"14/08/2023 12:21:28",1692019288241,1,"14/08/2023 14:21:28",140743,17,"task-s9co",NA,31175602,NA,"complete",NA,"64da2331d1c99ce54caf7f00","computer","Desktop or Laptop","Windows 10","Chrome 115.0.0.0","1280x720","1280x595",NA,NA,0,"Video Feedback Task (Clone)",6,"DECFBGAHJI",NA,"study_2 (video_feedback and feedback_list_2)","VF_1st",1,5,"Neutral Feedback","Screen 2","vv4mhq",2,"continue","",966.168000000005,966.168000000005,966.168000000005,966.168000000005,966.168000000005,966.168000000005,1,966.168000000005,0,0,NA,"Fixation Timing","Fixation",1,"object-153","Neutral Feedback","P1_N.mp4","Screenshot 2023-06-30 at 15.01.08.png","Screenshot 2023-06-30 at 15.00.55.png",NA,"SUPPRF01065"
"122",38,1692015705419,"14/08/2023 12:21:45",1692019305419,1,"14/08/2023 14:21:45",140743,17,"task-s9co",NA,31175602,NA,"complete",NA,"64da2331d1c99ce54caf7f00","computer","Desktop or Laptop","Windows 10","Chrome 115.0.0.0","1280x720","1280x595",NA,NA,0,"Video Feedback Task (Clone)",6,"DECFBGAHJI",NA,"study_2 (video_feedback and feedback_list_2)","VF_1st",1,5,"Positive Feedback","Video","w2ir4b",1,"continue","",17178.9389999046,17164.484,17178.9389999046,17178.9389999046,17164.484,17178.9389999046,1,17178.9389999046,0,0,NA,"Click To Continue","Continue Button",1,"object-14","Positive Feedback","P4_P.mp4","Screenshot 2023-06-30 at 15.01.08.png","Screenshot 2023-06-30 at 15.00.55.png",NA,"SUPPRF01065"
"123",39,1692015705426,"14/08/2023 12:21:45",1692019305426,1,"14/08/2023 14:21:45",140743,17,"task-s9co",NA,31175602,NA,"complete",NA,"64da2331d1c99ce54caf7f00","computer","Desktop or Laptop","Windows 10","Chrome 115.0.0.0","1280x720","1280x595",NA,NA,0,"Video Feedback Task (Clone)",6,"DECFBGAHJI",NA,"study_2 (video_feedback and feedback_list_2)","VF_1st",1,5,"Positive Feedback","Video","w2ir4b",1,"response","you seemed happy",11615.503,17164.484,17181.036,11615.503,17164.484,17181.036,1,11615.503,5565.53300000005,0,NA,"Text Entry","Text Entry",4,"object-19","Positive Feedback","P4_P.mp4","Screenshot 2023-06-30 at 15.01.08.png","Screenshot 2023-06-30 at 15.00.55.png",NA,"SUPPRF01065"
"124",40,1692015705427,"14/08/2023 12:21:45",1692019305427,1,"14/08/2023 14:21:45",140743,17,"task-s9co",NA,31175602,NA,"complete",NA,"64da2331d1c99ce54caf7f00","computer","Desktop or Laptop","Windows 10","Chrome 115.0.0.0","1280x720","1280x595",NA,NA,0,"Video Feedback Task (Clone)",6,"DECFBGAHJI",NA,"study_2 (video_feedback and feedback_list_2)","VF_1st",1,5,"Positive Feedback","Video","w2ir4b",1,"response","you lokked excited",3182.94199999998,17164.484,17181.036,3182.94199999998,17164.484,17181.036,1,3182.94199999998,13998.094,0,NA,"Text Entry","Text Entry",5,"object-20","Positive Feedback","P4_P.mp4","Screenshot 2023-06-30 at 15.01.08.png","Screenshot 2023-06-30 at 15.00.55.png",NA,"SUPPRF01065"
"125",41,1692015706372,"14/08/2023 12:21:46",1692019306372,1,"14/08/2023 14:21:46",140743,17,"task-s9co",NA,31175602,NA,"complete",NA,"64da2331d1c99ce54caf7f00","computer","Desktop or Laptop","Windows 10","Chrome 115.0.0.0","1280x720","1280x595",NA,NA,0,"Video Feedback Task (Clone)",6,"DECFBGAHJI",NA,"study_2 (video_feedback and feedback_list_2)","VF_1st",1,5,"Positive Feedback","Fixation","mtm832",2,"continue","",966.532000000007,966.532000000007,966.532000000007,966.532000000007,966.532000000007,966.532000000007,1,966.532000000007,0,0,NA,"Fixation Timing","Fixation",1,"object-65","Positive Feedback","P4_P.mp4","Screenshot 2023-06-30 at 15.01.08.png","Screenshot 2023-06-30 at 15.00.55.png",NA,"SUPPRF01065"
"126",42,1692015706382,"14/08/2023 12:21:46",1692019306382,1,"14/08/2023 14:21:46",140743,17,"task-s9co",NA,31175602,NA,"complete",NA,"64da2331d1c99ce54caf7f00","computer","Desktop or Laptop","Windows 10","Chrome 115.0.0.0","1280x720","1280x595",NA,NA,0,"Video Feedback Task (Clone)",6,"DECFBGAHJI",NA,"study_2 (video_feedback and feedback_list_2)","VF_1st",1,NA,"","","",NA,"5","END",NA,NA,NA,NA,NA,NA,0,NA,NA,NA,NA,"","",NA,"","","","","",NA,"SUPPRF01065"
"127",1,1692551678347,"20/08/2023 17:14:38",1692555278347,1,"20/08/2023 19:14:38",140743,17,"task-s9co",NA,31263450,NA,"complete",NA,"64e252d5b92f3bcf49791cfd","computer","Desktop or Laptop","Windows 10","Chrome 115.0.0.0","1280x720","1280x595",NA,NA,0,"Video Feedback Task (Clone)",6,"DECFBGAHJI",NA,"study_2 (video_feedback and feedback_list_2)","VF_1st",1,NA,"","","",NA,"5","BEGIN",NA,NA,NA,NA,NA,NA,0,NA,NA,NA,NA,"","",NA,"","","","","",NA,"SUPPRF06732"
"128",2,1692551720283,"20/08/2023 17:15:20",1692555320283,1,"20/08/2023 19:15:20",140743,17,"task-s9co",NA,31263450,NA,"complete",NA,"64e252d5b92f3bcf49791cfd","computer","Desktop or Laptop","Windows 10","Chrome 115.0.0.0","1280x720","1280x595",NA,NA,0,"Video Feedback Task (Clone)",6,"DECFBGAHJI",NA,"study_2 (video_feedback and feedback_list_2)","VF_1st",1,1,"Neutral Feedback","Screen 1","3zrml3",1,"continue","",41420.0310000477,41416.697,41420.0310000477,41420.0310000477,41416.697,41420.0310000477,1,41420.0310000477,0,0,NA,"Click To Continue","Continue Button",1,"object-155","Neutral Feedback","P2_N.mp4","Screenshot 2023-06-30 at 15.00.42.png","Screenshot 2023-06-30 at 15.02.01.png",NA,"SUPPRF06732"
"129",3,1692551720288,"20/08/2023 17:15:20",1692555320288,1,"20/08/2023 19:15:20",140743,17,"task-s9co",NA,31263450,NA,"complete",NA,"64e252d5b92f3bcf49791cfd","computer","Desktop or Laptop","Windows 10","Chrome 115.0.0.0","1280x720","1280x595",NA,NA,0,"Video Feedback Task (Clone)",6,"DECFBGAHJI",NA,"study_2 (video_feedback and feedback_list_2)","VF_1st",1,1,"Neutral Feedback","Screen 1","3zrml3",1,"response","would not say unsure just timid",28600.035,41416.697,41425.331,28600.035,41416.697,41425.331,1,28600.035,12825.296,0,NA,"Text Entry","Text Entry",4,"object-158","Neutral Feedback","P2_N.mp4","Screenshot 2023-06-30 at 15.00.42.png","Screenshot 2023-06-30 at 15.02.01.png",NA,"SUPPRF06732"
"130",4,1692551720289,"20/08/2023 17:15:20",1692555320289,1,"20/08/2023 19:15:20",140743,17,"task-s9co",NA,31263450,NA,"complete",NA,"64e252d5b92f3bcf49791cfd","computer","Desktop or Laptop","Windows 10","Chrome 115.0.0.0","1280x720","1280x595",NA,NA,0,"Video Feedback Task (Clone)",6,"DECFBGAHJI",NA,"study_2 (video_feedback and feedback_list_2)","VF_1st",1,1,"Neutral Feedback","Screen 1","3zrml3",1,"response","gives reserved and shy vibes",8166.692,41416.697,41426.2310000954,8166.692,41416.697,41426.2310000954,1,8166.692,33259.5390000954,0,NA,"Text Entry","Text Entry",5,"object-159","Neutral Feedback","P2_N.mp4","Screenshot 2023-06-30 at 15.00.42.png","Screenshot 2023-06-30 at 15.02.01.png",NA,"SUPPRF06732"
"131",5,1692551721247,"20/08/2023 17:15:21",1692555321247,1,"20/08/2023 19:15:21",140743,17,"task-s9co",NA,31263450,NA,"complete",NA,"64e252d5b92f3bcf49791cfd","computer","Desktop or Laptop","Windows 10","Chrome 115.0.0.0","1280x720","1280x595",NA,NA,0,"Video Feedback Task (Clone)",6,"DECFBGAHJI",NA,"study_2 (video_feedback and feedback_list_2)","VF_1st",1,1,"Neutral Feedback","Screen 2","vv4mhq",2,"continue","",966.640999999996,966.640999999996,966.640999999996,966.640999999996,966.640999999996,966.640999999996,1,966.640999999996,0,0,NA,"Fixation Timing","Fixation",1,"object-153","Neutral Feedback","P2_N.mp4","Screenshot 2023-06-30 at 15.00.42.png","Screenshot 2023-06-30 at 15.02.01.png",NA,"SUPPRF06732"
"132",6,1692551837091,"20/08/2023 17:17:17",1692555437091,1,"20/08/2023 19:17:17",140743,17,"task-s9co",NA,31263450,NA,"complete",NA,"64e252d5b92f3bcf49791cfd","computer","Desktop or Laptop","Windows 10","Chrome 115.0.0.0","1280x720","1280x595",NA,NA,0,"Video Feedback Task (Clone)",6,"DECFBGAHJI",NA,"study_2 (video_feedback and feedback_list_2)","VF_1st",1,1,"Positive Feedback","Video","w2ir4b",1,"continue","",115841.993,115833.011,115841.993,115841.993,115833.011,115841.993,1,115841.993,0,0,NA,"Click To Continue","Continue Button",1,"object-14","Positive Feedback","P5_P.mp4","Screenshot 2023-06-30 at 15.01.08.png","Screenshot 2023-06-30 at 15.00.55.png",NA,"SUPPRF06732"
"133",7,1692551837096,"20/08/2023 17:17:17",1692555437096,1,"20/08/2023 19:17:17",140743,17,"task-s9co",NA,31263450,NA,"complete",NA,"64e252d5b92f3bcf49791cfd","computer","Desktop or Laptop","Windows 10","Chrome 115.0.0.0","1280x720","1280x595",NA,NA,0,"Video Feedback Task (Clone)",6,"DECFBGAHJI",NA,"study_2 (video_feedback and feedback_list_2)","VF_1st",1,1,"Positive Feedback","Video","w2ir4b",1,"response","very clear and seems decisive of her explanation",104349.511,115833.011,115846.092999905,104349.511,115833.011,115846.092999905,1,104349.511,11496.5819999046,0,NA,"Text Entry","Text Entry",4,"object-19","Positive Feedback","P5_P.mp4","Screenshot 2023-06-30 at 15.01.08.png","Screenshot 2023-06-30 at 15.00.55.png",NA,"SUPPRF06732"
"134",8,1692551837098,"20/08/2023 17:17:17",1692555437098,1,"20/08/2023 19:17:17",140743,17,"task-s9co",NA,31263450,NA,"complete",NA,"64e252d5b92f3bcf49791cfd","computer","Desktop or Laptop","Windows 10","Chrome 115.0.0.0","1280x720","1280x595",NA,NA,0,"Video Feedback Task (Clone)",6,"DECFBGAHJI",NA,"study_2 (video_feedback and feedback_list_2)","VF_1st",1,1,"Positive Feedback","Video","w2ir4b",1,"response","confident in her decision ",8899.948,115833.011,115846.493,8899.948,115833.011,115846.493,1,8899.948,106946.545,0,NA,"Text Entry","Text Entry",5,"object-20","Positive Feedback","P5_P.mp4","Screenshot 2023-06-30 at 15.01.08.png","Screenshot 2023-06-30 at 15.00.55.png",NA,"SUPPRF06732"
"135",9,1692551838050,"20/08/2023 17:17:18",1692555438050,1,"20/08/2023 19:17:18",140743,17,"task-s9co",NA,31263450,NA,"complete",NA,"64e252d5b92f3bcf49791cfd","computer","Desktop or Laptop","Windows 10","Chrome 115.0.0.0","1280x720","1280x595",NA,NA,0,"Video Feedback Task (Clone)",6,"DECFBGAHJI",NA,"study_2 (video_feedback and feedback_list_2)","VF_1st",1,1,"Positive Feedback","Fixation","mtm832",2,"continue","",966.598999999987,966.598999999987,966.598999999987,966.598999999987,966.598999999987,966.598999999987,1,966.598999999987,0,0,NA,"Fixation Timing","Fixation",1,"object-65","Positive Feedback","P5_P.mp4","Screenshot 2023-06-30 at 15.01.08.png","Screenshot 2023-06-30 at 15.00.55.png",NA,"SUPPRF06732"
"136",10,1692551874026,"20/08/2023 17:17:54",1692555474026,1,"20/08/2023 19:17:54",140743,17,"task-s9co",NA,31263450,NA,"complete",NA,"64e252d5b92f3bcf49791cfd","computer","Desktop or Laptop","Windows 10","Chrome 115.0.0.0","1280x720","1280x595",NA,NA,0,"Video Feedback Task (Clone)",6,"DECFBGAHJI",NA,"study_2 (video_feedback and feedback_list_2)","VF_1st",1,2,"Positive Feedback","Video","w2ir4b",1,"continue","",35975.6829999523,35966.779,35975.6829999523,35975.6829999523,35966.779,35975.6829999523,1,35975.6829999523,0,0,NA,"Click To Continue","Continue Button",1,"object-14","Positive Feedback","P2_P.mp4","Screenshot 2023-06-30 at 15.00.42.png","Screenshot 2023-06-30 at 15.02.01.png",NA,"SUPPRF06732"
"137",11,1692551874028,"20/08/2023 17:17:54",1692555474028,1,"20/08/2023 19:17:54",140743,17,"task-s9co",NA,31263450,NA,"complete",NA,"64e252d5b92f3bcf49791cfd","computer","Desktop or Laptop","Windows 10","Chrome 115.0.0.0","1280x720","1280x595",NA,NA,0,"Video Feedback Task (Clone)",6,"DECFBGAHJI",NA,"study_2 (video_feedback and feedback_list_2)","VF_1st",1,2,"Positive Feedback","Video","w2ir4b",1,"response","explains what they are seeing with confidence",25716.669,35966.779,35978.2830000954,25716.669,35966.779,35978.2830000954,1,25716.669,10261.6140000954,0,NA,"Text Entry","Text Entry",4,"object-19","Positive Feedback","P2_P.mp4","Screenshot 2023-06-30 at 15.00.42.png","Screenshot 2023-06-30 at 15.02.01.png",NA,"SUPPRF06732"
"138",12,1692551874029,"20/08/2023 17:17:54",1692555474029,1,"20/08/2023 19:17:54",140743,17,"task-s9co",NA,31263450,NA,"complete",NA,"64e252d5b92f3bcf49791cfd","computer","Desktop or Laptop","Windows 10","Chrome 115.0.0.0","1280x720","1280x595",NA,NA,0,"Video Feedback Task (Clone)",6,"DECFBGAHJI",NA,"study_2 (video_feedback and feedback_list_2)","VF_1st",1,2,"Positive Feedback","Video","w2ir4b",1,"response","flows well with her explanation",9083.28400000001,35966.779,35978.883,9083.28400000001,35966.779,35978.883,1,9083.28400000001,26895.599,0,NA,"Text Entry","Text Entry",5,"object-20","Positive Feedback","P2_P.mp4","Screenshot 2023-06-30 at 15.00.42.png","Screenshot 2023-06-30 at 15.02.01.png",NA,"SUPPRF06732"
"139",13,1692551874984,"20/08/2023 17:17:54",1692555474984,1,"20/08/2023 19:17:54",140743,17,"task-s9co",NA,31263450,NA,"complete",NA,"64e252d5b92f3bcf49791cfd","computer","Desktop or Laptop","Windows 10","Chrome 115.0.0.0","1280x720","1280x595",NA,NA,0,"Video Feedback Task (Clone)",6,"DECFBGAHJI",NA,"study_2 (video_feedback and feedback_list_2)","VF_1st",1,2,"Positive Feedback","Fixation","mtm832",2,"continue","",966.649000000005,966.649000000005,966.649000000005,966.649000000005,966.649000000005,966.649000000005,1,966.649000000005,0,0,NA,"Fixation Timing","Fixation",1,"object-65","Positive Feedback","P2_P.mp4","Screenshot 2023-06-30 at 15.00.42.png","Screenshot 2023-06-30 at 15.02.01.png",NA,"SUPPRF06732"
"140",14,1692551912063,"20/08/2023 17:18:32",1692555512063,1,"20/08/2023 19:18:32",140743,17,"task-s9co",NA,31263450,NA,"complete",NA,"64e252d5b92f3bcf49791cfd","computer","Desktop or Laptop","Windows 10","Chrome 115.0.0.0","1280x720","1280x595",NA,NA,0,"Video Feedback Task (Clone)",6,"DECFBGAHJI",NA,"study_2 (video_feedback and feedback_list_2)","VF_1st",1,2,"Neutral Feedback","Screen 1","3zrml3",1,"continue","",37081.455,37066.442,37081.455,37081.455,37066.442,37081.455,1,37081.455,0,0,NA,"Click To Continue","Continue Button",1,"object-155","Neutral Feedback","P3_N.mp4","Screenshot 2023-06-30 at 15.01.08.png","Screenshot 2023-06-30 at 15.00.55.png",NA,"SUPPRF06732"
"141",15,1692551912069,"20/08/2023 17:18:32",1692555512069,1,"20/08/2023 19:18:32",140743,17,"task-s9co",NA,31263450,NA,"complete",NA,"64e252d5b92f3bcf49791cfd","computer","Desktop or Laptop","Windows 10","Chrome 115.0.0.0","1280x720","1280x595",NA,NA,0,"Video Feedback Task (Clone)",6,"DECFBGAHJI",NA,"study_2 (video_feedback and feedback_list_2)","VF_1st",1,2,"Neutral Feedback","Screen 1","3zrml3",1,"response","seems to hesitate but delivery is valid",21816.643,37066.442,37083.222,21816.643,37066.442,37083.222,1,21816.643,15266.579,0,NA,"Text Entry","Text Entry",4,"object-158","Neutral Feedback","P3_N.mp4","Screenshot 2023-06-30 at 15.01.08.png","Screenshot 2023-06-30 at 15.00.55.png",NA,"SUPPRF06732"
"142",16,1692551912070,"20/08/2023 17:18:32",1692555512070,1,"20/08/2023 19:18:32",140743,17,"task-s9co",NA,31263450,NA,"complete",NA,"64e252d5b92f3bcf49791cfd","computer","Desktop or Laptop","Windows 10","Chrome 115.0.0.0","1280x720","1280x595",NA,NA,0,"Video Feedback Task (Clone)",6,"DECFBGAHJI",NA,"study_2 (video_feedback and feedback_list_2)","VF_1st",1,2,"Neutral Feedback","Screen 1","3zrml3",1,"response","explains what he sees with little doubt",8066.68099999998,37066.442,37083.222,8066.68099999998,37066.442,37083.222,1,8066.68099999998,29016.541,0,NA,"Text Entry","Text Entry",5,"object-159","Neutral Feedback","P3_N.mp4","Screenshot 2023-06-30 at 15.01.08.png","Screenshot 2023-06-30 at 15.00.55.png",NA,"SUPPRF06732"
"143",17,1692551913015,"20/08/2023 17:18:33",1692555513015,1,"20/08/2023 19:18:33",140743,17,"task-s9co",NA,31263450,NA,"complete",NA,"64e252d5b92f3bcf49791cfd","computer","Desktop or Laptop","Windows 10","Chrome 115.0.0.0","1280x720","1280x595",NA,NA,0,"Video Feedback Task (Clone)",6,"DECFBGAHJI",NA,"study_2 (video_feedback and feedback_list_2)","VF_1st",1,2,"Neutral Feedback","Screen 2","vv4mhq",2,"continue","",966.703999999998,966.703999999998,966.703999999998,966.703999999998,966.703999999998,966.703999999998,1,966.703999999998,0,0,NA,"Fixation Timing","Fixation",1,"object-153","Neutral Feedback","P3_N.mp4","Screenshot 2023-06-30 at 15.01.08.png","Screenshot 2023-06-30 at 15.00.55.png",NA,"SUPPRF06732"
"144",18,1692552230886,"20/08/2023 17:23:50",1692555830886,1,"20/08/2023 19:23:50",140743,17,"task-s9co",NA,31263450,NA,"complete",NA,"64e252d5b92f3bcf49791cfd","computer","Desktop or Laptop","Windows 10","Chrome 115.0.0.0","1280x720","1280x595",NA,NA,0,"Video Feedback Task (Clone)",6,"DECFBGAHJI",NA,"study_2 (video_feedback and feedback_list_2)","VF_1st",1,3,"Positive Feedback","Video","w2ir4b",1,"continue","",317867.114,317849.805,317867.114,317867.114,317849.805,317867.114,1,317867.114,0,0,NA,"Click To Continue","Continue Button",1,"object-14","Positive Feedback","P1_P.mp4","Screenshot 2023-06-30 at 15.01.08.png","Screenshot 2023-06-30 at 15.00.55.png",NA,"SUPPRF06732"
