"","Event.Index","UTC.Timestamp","UTC.Date.and.Time","Local.Timestamp","Local.Timezone","Local.Date.and.Time","Experiment.ID","Experiment.Version","Tree.Node.Key","Repeat.Key","Schedule.ID","Participant.Starting.Group","Participant.Status","Participant.Completion.Code","Participant.External.Session.ID","Participant.Device.Type","Participant.Device","Participant.OS","Participant.Browser","Participant.Monitor.Size","Participant.Viewport.Size","Checkpoint","Room.ID","Room.Order","Task.Name","Task.Version","order.ot79","randomiser.lqqr","randomiser.28m8","randomiser.tf5j","Spreadsheet","Trial.Number","Display","Screen","Screen.ID","Screen.Counter","Response.Type","Response","Onset.Time","Clock.Time","Reaction.Time","Absolute.Onset.Time","Absolute.Clock.Time","Absolute.Reaction.Time","Correct","Response.Onset","Response.Duration","Proportion","Tag","Component.Name","Object.Name","Object.Number","Object.ID","Spreadsheet..display","Spreadsheet..Index","Spreadsheet..X1","Spreadsheet..X2","Spreadsheet..Display","Spreadsheet..test_response_save","Manipulation..Spreadsheet","Store..test_response_save","Random_ID"
"1",1,1692006519072,"14/08/2023 09:48:39",1692010119072,1,"14/08/2023 11:48:39",140743,17,"task-qhsc",NA,31172743,NA,"complete",NA,"64da000bb77c30175cda1703","computer","Desktop or Laptop","Mac OS 10.15.7","Safari 16.6","810x1080","1080x707",NA,NA,0,"Feedback Phrases Task - List 2 (Clone with new randomisation)",4,"DECFBGAHJI",NA,"study_2 (video_feedback and feedback_list_2)","VF_1st","Feedback Phrases List 2",NA,"","","",NA,"5","BEGIN",NA,NA,NA,NA,NA,NA,0,NA,NA,NA,NA,"","",NA,"",NA,NA,"","","",NA,NA,NA,"SUPPRF20908"
"2",2,1692006529309,"14/08/2023 09:48:49",1692010129309,1,"14/08/2023 11:48:49",140743,17,"task-qhsc",NA,31172743,NA,"complete",NA,"64da000bb77c30175cda1703","computer","Desktop or Laptop","Mac OS 10.15.7","Safari 16.6","810x1080","1080x707",NA,NA,0,"Feedback Phrases Task - List 2 (Clone with new randomisation)",4,"DECFBGAHJI",NA,"study_2 (video_feedback and feedback_list_2)","VF_1st","Feedback Phrases List 2",1,"Instructions","Screen 3","6w7c99",1,"continue","",10233,10217,10233,10233,10217,10233,1,10233,0,0,NA,"Click To Continue","Continue Button",2,"object-29",NA,NA,"","","Instructions",NA,NA,NA,"SUPPRF20908"
"3",3,1692006535217,"14/08/2023 09:48:55",1692010135217,1,"14/08/2023 11:48:55",140743,17,"task-qhsc",NA,31172743,NA,"complete",NA,"64da000bb77c30175cda1703","computer","Desktop or Laptop","Mac OS 10.15.7","Safari 16.6","810x1080","1080x707",NA,NA,0,"Feedback Phrases Task - List 2 (Clone with new randomisation)",4,"DECFBGAHJI",NA,"study_2 (video_feedback and feedback_list_2)","VF_1st","Feedback Phrases List 2",1,"Instructions","Screen 4","4vof69",2,"continue","",5932,5915,5932,5932,5915,5932,1,5932,0,0,NA,"Click To Continue","Continue Button",2,"object-41",NA,NA,"","","Instructions",NA,NA,NA,"SUPPRF20908"
"4",4,1692006540848,"14/08/2023 09:49:00",1692010140848,1,"14/08/2023 11:49:00",140743,17,"task-qhsc",NA,31172743,NA,"complete",NA,"64da000bb77c30175cda1703","computer","Desktop or Laptop","Mac OS 10.15.7","Safari 16.6","810x1080","1080x707",NA,NA,0,"Feedback Phrases Task - List 2 (Clone with new randomisation)",4,"DECFBGAHJI",NA,"study_2 (video_feedback and feedback_list_2)","VF_1st","Feedback Phrases List 2",1,"Task","Screen 1","113qg5",1,"response","Excellent!",5647,5631,5647,5647,5631,5647,1,5647,0,0,NA,"Click Response","Text_right_X2",3,"object-19",NA,1,"You appear very smart.","Excellent!","Task",NA,NA,NA,"SUPPRF20908"
"5",5,1692006542595,"14/08/2023 09:49:02",1692010142595,1,"14/08/2023 11:49:02",140743,17,"task-qhsc",NA,31172743,NA,"complete",NA,"64da000bb77c30175cda1703","computer","Desktop or Laptop","Mac OS 10.15.7","Safari 16.6","810x1080","1080x707",NA,NA,0,"Feedback Phrases Task - List 2 (Clone with new randomisation)",4,"DECFBGAHJI",NA,"study_2 (video_feedback and feedback_list_2)","VF_1st","Feedback Phrases List 2",1,"Task","Screen 3","izqege",2,"continue","",1766,1766,1766,1766,1766,1766,1,1766,0,0,NA,"Fixation Timing","Fixation Cross",1,"object-48",NA,1,"You appear very smart.","Excellent!","Task",NA,NA,NA,"SUPPRF20908"
"6",6,1692006546712,"14/08/2023 09:49:06",1692010146712,1,"14/08/2023 11:49:06",140743,17,"task-qhsc",NA,31172743,NA,"complete",NA,"64da000bb77c30175cda1703","computer","Desktop or Laptop","Mac OS 10.15.7","Safari 16.6","810x1080","1080x707",NA,NA,0,"Feedback Phrases Task - List 2 (Clone with new randomisation)",4,"DECFBGAHJI",NA,"study_2 (video_feedback and feedback_list_2)","VF_1st","Feedback Phrases List 2",2,"Task","Screen 1","113qg5",1,"response","You said all the right things.",4116,4099,4116,4116,4099,4116,1,4116,0,0,NA,"Click Response","Text_right_X2",3,"object-19",NA,1,"You came across really well.","You said all the right things.","Task",NA,NA,NA,"SUPPRF20908"
"7",7,1692006548457,"14/08/2023 09:49:08",1692010148457,1,"14/08/2023 11:49:08",140743,17,"task-qhsc",NA,31172743,NA,"complete",NA,"64da000bb77c30175cda1703","computer","Desktop or Laptop","Mac OS 10.15.7","Safari 16.6","810x1080","1080x707",NA,NA,0,"Feedback Phrases Task - List 2 (Clone with new randomisation)",4,"DECFBGAHJI",NA,"study_2 (video_feedback and feedback_list_2)","VF_1st","Feedback Phrases List 2",2,"Task","Screen 3","izqege",2,"continue","",1766,1766,1766,1766,1766,1766,1,1766,0,0,NA,"Fixation Timing","Fixation Cross",1,"object-48",NA,1,"You came across really well.","You said all the right things.","Task",NA,NA,NA,"SUPPRF20908"
"8",8,1692006555976,"14/08/2023 09:49:15",1692010155976,1,"14/08/2023 11:49:15",140743,17,"task-qhsc",NA,31172743,NA,"complete",NA,"64da000bb77c30175cda1703","computer","Desktop or Laptop","Mac OS 10.15.7","Safari 16.6","810x1080","1080x707",NA,NA,0,"Feedback Phrases Task - List 2 (Clone with new randomisation)",4,"DECFBGAHJI",NA,"study_2 (video_feedback and feedback_list_2)","VF_1st","Feedback Phrases List 2",3,"Task","Screen 1","113qg5",1,"response","You said all the right things.",7515,7498,7515,7515,7498,7515,1,7515,0,0,NA,"Click Response","Text_right_X2",3,"object-19",NA,1,"You are really engaging when you speak.","You said all the right things.","Task",NA,NA,NA,"SUPPRF20908"
"9",9,1692006557721,"14/08/2023 09:49:17",1692010157721,1,"14/08/2023 11:49:17",140743,17,"task-qhsc",NA,31172743,NA,"complete",NA,"64da000bb77c30175cda1703","computer","Desktop or Laptop","Mac OS 10.15.7","Safari 16.6","810x1080","1080x707",NA,NA,0,"Feedback Phrases Task - List 2 (Clone with new randomisation)",4,"DECFBGAHJI",NA,"study_2 (video_feedback and feedback_list_2)","VF_1st","Feedback Phrases List 2",3,"Task","Screen 3","izqege",2,"continue","",1766,1766,1766,1766,1766,1766,1,1766,0,0,NA,"Fixation Timing","Fixation Cross",1,"object-48",NA,1,"You are really engaging when you speak.","You said all the right things.","Task",NA,NA,NA,"SUPPRF20908"
"10",10,1692006560341,"14/08/2023 09:49:20",1692010160341,1,"14/08/2023 11:49:20",140743,17,"task-qhsc",NA,31172743,NA,"complete",NA,"64da000bb77c30175cda1703","computer","Desktop or Laptop","Mac OS 10.15.7","Safari 16.6","810x1080","1080x707",NA,NA,0,"Feedback Phrases Task - List 2 (Clone with new randomisation)",4,"DECFBGAHJI",NA,"study_2 (video_feedback and feedback_list_2)","VF_1st","Feedback Phrases List 2",4,"Task","Screen 1","113qg5",1,"response","You did what was asked of you.",2616,2599,2616,2616,2599,2616,1,2616,0,0,NA,"Click Response","Text_left_X1",2,"object-18",NA,1,"You did what was asked of you.","You're very articulate.","Task",NA,NA,NA,"SUPPRF20908"
"11",11,1692006562085,"14/08/2023 09:49:22",1692010162085,1,"14/08/2023 11:49:22",140743,17,"task-qhsc",NA,31172743,NA,"complete",NA,"64da000bb77c30175cda1703","computer","Desktop or Laptop","Mac OS 10.15.7","Safari 16.6","810x1080","1080x707",NA,NA,0,"Feedback Phrases Task - List 2 (Clone with new randomisation)",4,"DECFBGAHJI",NA,"study_2 (video_feedback and feedback_list_2)","VF_1st","Feedback Phrases List 2",4,"Task","Screen 3","izqege",2,"continue","",1766,1766,1766,1766,1766,1766,1,1766,0,0,NA,"Fixation Timing","Fixation Cross",1,"object-48",NA,1,"You did what was asked of you.","You're very articulate.","Task",NA,NA,NA,"SUPPRF20908"
"12",12,1692006563989,"14/08/2023 09:49:23",1692010163989,1,"14/08/2023 11:49:23",140743,17,"task-qhsc",NA,31172743,NA,"complete",NA,"64da000bb77c30175cda1703","computer","Desktop or Laptop","Mac OS 10.15.7","Safari 16.6","810x1080","1080x707",NA,NA,0,"Feedback Phrases Task - List 2 (Clone with new randomisation)",4,"DECFBGAHJI",NA,"study_2 (video_feedback and feedback_list_2)","VF_1st","Feedback Phrases List 2",5,"Task","Screen 1","113qg5",1,"response","You seemed very in-control.",1900,1883,1900,1900,1883,1900,1,1900,0,0,NA,"Click Response","Text_right_X2",3,"object-19",NA,1,"You're very articulate.","You seemed very in-control.","Task",NA,NA,NA,"SUPPRF20908"
"13",13,1692006565734,"14/08/2023 09:49:25",1692010165734,1,"14/08/2023 11:49:25",140743,17,"task-qhsc",NA,31172743,NA,"complete",NA,"64da000bb77c30175cda1703","computer","Desktop or Laptop","Mac OS 10.15.7","Safari 16.6","810x1080","1080x707",NA,NA,0,"Feedback Phrases Task - List 2 (Clone with new randomisation)",4,"DECFBGAHJI",NA,"study_2 (video_feedback and feedback_list_2)","VF_1st","Feedback Phrases List 2",5,"Task","Screen 3","izqege",2,"continue","",1766,1766,1766,1766,1766,1766,1,1766,0,0,NA,"Fixation Timing","Fixation Cross",1,"object-48",NA,1,"You're very articulate.","You seemed very in-control.","Task",NA,NA,NA,"SUPPRF20908"
"14",14,1692006568623,"14/08/2023 09:49:28",1692010168623,1,"14/08/2023 11:49:28",140743,17,"task-qhsc",NA,31172743,NA,"complete",NA,"64da000bb77c30175cda1703","computer","Desktop or Laptop","Mac OS 10.15.7","Safari 16.6","810x1080","1080x707",NA,NA,0,"Feedback Phrases Task - List 2 (Clone with new randomisation)",4,"DECFBGAHJI",NA,"study_2 (video_feedback and feedback_list_2)","VF_1st","Feedback Phrases List 2",6,"Task","Screen 1","113qg5",1,"response","I could easily picture what you were describing.",2883,2866,2883,2883,2866,2883,1,2883,0,0,NA,"Click Response","Text_right_X2",3,"object-19",NA,1,"You did what was asked of you.","I could easily picture what you were describing.","Task",NA,NA,NA,"SUPPRF20908"
"15",15,1692006570367,"14/08/2023 09:49:30",1692010170367,1,"14/08/2023 11:49:30",140743,17,"task-qhsc",NA,31172743,NA,"complete",NA,"64da000bb77c30175cda1703","computer","Desktop or Laptop","Mac OS 10.15.7","Safari 16.6","810x1080","1080x707",NA,NA,0,"Feedback Phrases Task - List 2 (Clone with new randomisation)",4,"DECFBGAHJI",NA,"study_2 (video_feedback and feedback_list_2)","VF_1st","Feedback Phrases List 2",6,"Task","Screen 3","izqege",2,"continue","",1766,1766,1766,1766,1766,1766,1,1766,0,0,NA,"Fixation Timing","Fixation Cross",1,"object-48",NA,1,"You did what was asked of you.","I could easily picture what you were describing.","Task",NA,NA,NA,"SUPPRF20908"
"16",16,1692006572389,"14/08/2023 09:49:32",1692010172389,1,"14/08/2023 11:49:32",140743,17,"task-qhsc",NA,31172743,NA,"complete",NA,"64da000bb77c30175cda1703","computer","Desktop or Laptop","Mac OS 10.15.7","Safari 16.6","810x1080","1080x707",NA,NA,0,"Feedback Phrases Task - List 2 (Clone with new randomisation)",4,"DECFBGAHJI",NA,"study_2 (video_feedback and feedback_list_2)","VF_1st","Feedback Phrases List 2",7,"Task","Screen 1","113qg5",1,"response","I could easily picture what you were describing.",2016,1999,2016,2016,1999,2016,1,2016,0,0,NA,"Click Response","Text_left_X1",2,"object-18",NA,1,"I could easily picture what you were describing.","Well done!","Task",NA,NA,NA,"SUPPRF20908"
"17",17,1692006574131,"14/08/2023 09:49:34",1692010174131,1,"14/08/2023 11:49:34",140743,17,"task-qhsc",NA,31172743,NA,"complete",NA,"64da000bb77c30175cda1703","computer","Desktop or Laptop","Mac OS 10.15.7","Safari 16.6","810x1080","1080x707",NA,NA,0,"Feedback Phrases Task - List 2 (Clone with new randomisation)",4,"DECFBGAHJI",NA,"study_2 (video_feedback and feedback_list_2)","VF_1st","Feedback Phrases List 2",7,"Task","Screen 3","izqege",2,"continue","",1766,1766,1766,1766,1766,1766,1,1766,0,0,NA,"Fixation Timing","Fixation Cross",1,"object-48",NA,1,"I could easily picture what you were describing.","Well done!","Task",NA,NA,NA,"SUPPRF20908"
"18",18,1692006575654,"14/08/2023 09:49:35",1692010175654,1,"14/08/2023 11:49:35",140743,17,"task-qhsc",NA,31172743,NA,"complete",NA,"64da000bb77c30175cda1703","computer","Desktop or Laptop","Mac OS 10.15.7","Safari 16.6","810x1080","1080x707",NA,NA,0,"Feedback Phrases Task - List 2 (Clone with new randomisation)",4,"DECFBGAHJI",NA,"study_2 (video_feedback and feedback_list_2)","VF_1st","Feedback Phrases List 2",8,"Task","Screen 1","113qg5",1,"response","You seemed very in-control.",1517,1500,1517,1517,1500,1517,1,1517,0,0,NA,"Click Response","Text_right_X2",3,"object-19",NA,1,"You appear very smart.","You seemed very in-control.","Task",NA,NA,NA,"SUPPRF20908"
"19",19,1692006577397,"14/08/2023 09:49:37",1692010177397,1,"14/08/2023 11:49:37",140743,17,"task-qhsc",NA,31172743,NA,"complete",NA,"64da000bb77c30175cda1703","computer","Desktop or Laptop","Mac OS 10.15.7","Safari 16.6","810x1080","1080x707",NA,NA,0,"Feedback Phrases Task - List 2 (Clone with new randomisation)",4,"DECFBGAHJI",NA,"study_2 (video_feedback and feedback_list_2)","VF_1st","Feedback Phrases List 2",8,"Task","Screen 3","izqege",2,"continue","",1766,1766,1766,1766,1766,1766,1,1766,0,0,NA,"Fixation Timing","Fixation Cross",1,"object-48",NA,1,"You appear very smart.","You seemed very in-control.","Task",NA,NA,NA,"SUPPRF20908"
"20",20,1692006578753,"14/08/2023 09:49:38",1692010178753,1,"14/08/2023 11:49:38",140743,17,"task-qhsc",NA,31172743,NA,"complete",NA,"64da000bb77c30175cda1703","computer","Desktop or Laptop","Mac OS 10.15.7","Safari 16.6","810x1080","1080x707",NA,NA,0,"Feedback Phrases Task - List 2 (Clone with new randomisation)",4,"DECFBGAHJI",NA,"study_2 (video_feedback and feedback_list_2)","VF_1st","Feedback Phrases List 2",9,"Task","Screen 1","113qg5",1,"response","You said all the right things.",1350,1333,1350,1350,1333,1350,1,1350,0,0,NA,"Click Response","Text_left_X1",2,"object-18",NA,1,"You said all the right things.","That was decent.","Task",NA,NA,NA,"SUPPRF20908"
"21",21,1692006580495,"14/08/2023 09:49:40",1692010180495,1,"14/08/2023 11:49:40",140743,17,"task-qhsc",NA,31172743,NA,"complete",NA,"64da000bb77c30175cda1703","computer","Desktop or Laptop","Mac OS 10.15.7","Safari 16.6","810x1080","1080x707",NA,NA,0,"Feedback Phrases Task - List 2 (Clone with new randomisation)",4,"DECFBGAHJI",NA,"study_2 (video_feedback and feedback_list_2)","VF_1st","Feedback Phrases List 2",9,"Task","Screen 3","izqege",2,"continue","",1766,1766,1766,1766,1766,1766,1,1766,0,0,NA,"Fixation Timing","Fixation Cross",1,"object-48",NA,1,"You said all the right things.","That was decent.","Task",NA,NA,NA,"SUPPRF20908"
"22",22,1692006583510,"14/08/2023 09:49:43",1692010183510,1,"14/08/2023 11:49:43",140743,17,"task-qhsc",NA,31172743,NA,"complete",NA,"64da000bb77c30175cda1703","computer","Desktop or Laptop","Mac OS 10.15.7","Safari 16.6","810x1080","1080x707",NA,NA,0,"Feedback Phrases Task - List 2 (Clone with new randomisation)",4,"DECFBGAHJI",NA,"study_2 (video_feedback and feedback_list_2)","VF_1st","Feedback Phrases List 2",10,"Task","Screen 1","113qg5",1,"response","I could easily picture what you were describing.",3015.00000000001,2999,3015.00000000001,3015.00000000001,2999,3015.00000000001,1,3015.00000000001,0,0,NA,"Click Response","Text_left_X1",2,"object-18",NA,1,"I could easily picture what you were describing.","You said all the right things.","Task",NA,NA,NA,"SUPPRF20908"
"23",23,1692006585262,"14/08/2023 09:49:45",1692010185262,1,"14/08/2023 11:49:45",140743,17,"task-qhsc",NA,31172743,NA,"complete",NA,"64da000bb77c30175cda1703","computer","Desktop or Laptop","Mac OS 10.15.7","Safari 16.6","810x1080","1080x707",NA,NA,0,"Feedback Phrases Task - List 2 (Clone with new randomisation)",4,"DECFBGAHJI",NA,"study_2 (video_feedback and feedback_list_2)","VF_1st","Feedback Phrases List 2",10,"Task","Screen 3","izqege",2,"continue","",1766,1766,1766,1766,1766,1766,1,1766,0,0,NA,"Fixation Timing","Fixation Cross",1,"object-48",NA,1,"I could easily picture what you were describing.","You said all the right things.","Task",NA,NA,NA,"SUPPRF20908"
"24",24,1692006586618,"14/08/2023 09:49:46",1692010186618,1,"14/08/2023 11:49:46",140743,17,"task-qhsc",NA,31172743,NA,"complete",NA,"64da000bb77c30175cda1703","computer","Desktop or Laptop","Mac OS 10.15.7","Safari 16.6","810x1080","1080x707",NA,NA,0,"Feedback Phrases Task - List 2 (Clone with new randomisation)",4,"DECFBGAHJI",NA,"study_2 (video_feedback and feedback_list_2)","VF_1st","Feedback Phrases List 2",11,"Task","Screen 1","113qg5",1,"response","Well done!",1350,1333,1350,1350,1333,1350,1,1350,0,0,NA,"Click Response","Text_left_X1",2,"object-18",NA,1,"Well done!","You appear very smart.","Task",NA,NA,NA,"SUPPRF20908"
"25",25,1692006588359,"14/08/2023 09:49:48",1692010188359,1,"14/08/2023 11:49:48",140743,17,"task-qhsc",NA,31172743,NA,"complete",NA,"64da000bb77c30175cda1703","computer","Desktop or Laptop","Mac OS 10.15.7","Safari 16.6","810x1080","1080x707",NA,NA,0,"Feedback Phrases Task - List 2 (Clone with new randomisation)",4,"DECFBGAHJI",NA,"study_2 (video_feedback and feedback_list_2)","VF_1st","Feedback Phrases List 2",11,"Task","Screen 3","izqege",2,"continue","",1766,1766,1766,1766,1766,1766,1,1766,0,0,NA,"Fixation Timing","Fixation Cross",1,"object-48",NA,1,"Well done!","You appear very smart.","Task",NA,NA,NA,"SUPPRF20908"
"26",26,1692006590382,"14/08/2023 09:49:50",1692010190382,1,"14/08/2023 11:49:50",140743,17,"task-qhsc",NA,31172743,NA,"complete",NA,"64da000bb77c30175cda1703","computer","Desktop or Laptop","Mac OS 10.15.7","Safari 16.6","810x1080","1080x707",NA,NA,0,"Feedback Phrases Task - List 2 (Clone with new randomisation)",4,"DECFBGAHJI",NA,"study_2 (video_feedback and feedback_list_2)","VF_1st","Feedback Phrases List 2",12,"Task","Screen 1","113qg5",1,"response","You did what was asked of you.",2015,1999,2015,2015,1999,2015,1,2015,0,0,NA,"Click Response","Text_right_X2",3,"object-19",NA,1,"That was decent.","You did what was asked of you.","Task",NA,NA,NA,"SUPPRF20908"
"27",27,1692006592125,"14/08/2023 09:49:52",1692010192125,1,"14/08/2023 11:49:52",140743,17,"task-qhsc",NA,31172743,NA,"complete",NA,"64da000bb77c30175cda1703","computer","Desktop or Laptop","Mac OS 10.15.7","Safari 16.6","810x1080","1080x707",NA,NA,0,"Feedback Phrases Task - List 2 (Clone with new randomisation)",4,"DECFBGAHJI",NA,"study_2 (video_feedback and feedback_list_2)","VF_1st","Feedback Phrases List 2",12,"Task","Screen 3","izqege",2,"continue","",1766,1766,1766,1766,1766,1766,1,1766,0,0,NA,"Fixation Timing","Fixation Cross",1,"object-48",NA,1,"That was decent.","You did what was asked of you.","Task",NA,NA,NA,"SUPPRF20908"
"28",28,1692006596829,"14/08/2023 09:49:56",1692010196829,1,"14/08/2023 11:49:56",140743,17,"task-qhsc",NA,31172743,NA,"complete",NA,"64da000bb77c30175cda1703","computer","Desktop or Laptop","Mac OS 10.15.7","Safari 16.6","810x1080","1080x707",NA,NA,0,"Feedback Phrases Task - List 2 (Clone with new randomisation)",4,"DECFBGAHJI",NA,"study_2 (video_feedback and feedback_list_2)","VF_1st","Feedback Phrases List 2",13,"Task","Screen 1","113qg5",1,"response","You seemed very in-control.",4699,4682,4699,4699,4682,4699,1,4699,0,0,NA,"Click Response","Text_right_X2",3,"object-19",NA,1,"You are really engaging when you speak.","You seemed very in-control.","Task",NA,NA,NA,"SUPPRF20908"
"29",29,1692006598572,"14/08/2023 09:49:58",1692010198572,1,"14/08/2023 11:49:58",140743,17,"task-qhsc",NA,31172743,NA,"complete",NA,"64da000bb77c30175cda1703","computer","Desktop or Laptop","Mac OS 10.15.7","Safari 16.6","810x1080","1080x707",NA,NA,0,"Feedback Phrases Task - List 2 (Clone with new randomisation)",4,"DECFBGAHJI",NA,"study_2 (video_feedback and feedback_list_2)","VF_1st","Feedback Phrases List 2",13,"Task","Screen 3","izqege",2,"continue","",1766,1766,1766,1766,1766,1766,1,1766,0,0,NA,"Fixation Timing","Fixation Cross",1,"object-48",NA,1,"You are really engaging when you speak.","You seemed very in-control.","Task",NA,NA,NA,"SUPPRF20908"
"30",30,1692006600311,"14/08/2023 09:50:00",1692010200311,1,"14/08/2023 11:50:00",140743,17,"task-qhsc",NA,31172743,NA,"complete",NA,"64da000bb77c30175cda1703","computer","Desktop or Laptop","Mac OS 10.15.7","Safari 16.6","810x1080","1080x707",NA,NA,0,"Feedback Phrases Task - List 2 (Clone with new randomisation)",4,"DECFBGAHJI",NA,"study_2 (video_feedback and feedback_list_2)","VF_1st","Feedback Phrases List 2",14,"Task","Screen 1","113qg5",1,"response","That was perfect.",1732,1716,1732,1732,1716,1732,1,1732,0,0,NA,"Click Response","Text_right_X2",3,"object-19",NA,1,"You appeared very confident.","That was perfect.","Task",NA,NA,NA,"SUPPRF20908"
"31",31,1692006602055,"14/08/2023 09:50:02",1692010202055,1,"14/08/2023 11:50:02",140743,17,"task-qhsc",NA,31172743,NA,"complete",NA,"64da000bb77c30175cda1703","computer","Desktop or Laptop","Mac OS 10.15.7","Safari 16.6","810x1080","1080x707",NA,NA,0,"Feedback Phrases Task - List 2 (Clone with new randomisation)",4,"DECFBGAHJI",NA,"study_2 (video_feedback and feedback_list_2)","VF_1st","Feedback Phrases List 2",14,"Task","Screen 3","izqege",2,"continue","",1767,1767,1767,1767,1767,1767,1,1767,0,0,NA,"Fixation Timing","Fixation Cross",1,"object-48",NA,1,"You appeared very confident.","That was perfect.","Task",NA,NA,NA,"SUPPRF20908"
"32",32,1692006603530,"14/08/2023 09:50:03",1692010203530,1,"14/08/2023 11:50:03",140743,17,"task-qhsc",NA,31172743,NA,"complete",NA,"64da000bb77c30175cda1703","computer","Desktop or Laptop","Mac OS 10.15.7","Safari 16.6","810x1080","1080x707",NA,NA,0,"Feedback Phrases Task - List 2 (Clone with new randomisation)",4,"DECFBGAHJI",NA,"study_2 (video_feedback and feedback_list_2)","VF_1st","Feedback Phrases List 2",15,"Task","Screen 1","113qg5",1,"response","You said all the right things.",1466,1449,1466,1466,1449,1466,1,1466,0,0,NA,"Click Response","Text_left_X1",2,"object-18",NA,1,"You said all the right things.","You're very articulate.","Task",NA,NA,NA,"SUPPRF20908"
"33",33,1692006605271,"14/08/2023 09:50:05",1692010205271,1,"14/08/2023 11:50:05",140743,17,"task-qhsc",NA,31172743,NA,"complete",NA,"64da000bb77c30175cda1703","computer","Desktop or Laptop","Mac OS 10.15.7","Safari 16.6","810x1080","1080x707",NA,NA,0,"Feedback Phrases Task - List 2 (Clone with new randomisation)",4,"DECFBGAHJI",NA,"study_2 (video_feedback and feedback_list_2)","VF_1st","Feedback Phrases List 2",15,"Task","Screen 3","izqege",2,"continue","",1766,1766,1766,1766,1766,1766,1,1766,0,0,NA,"Fixation Timing","Fixation Cross",1,"object-48",NA,1,"You said all the right things.","You're very articulate.","Task",NA,NA,NA,"SUPPRF20908"
"34",34,1692006607207,"14/08/2023 09:50:07",1692010207207,1,"14/08/2023 11:50:07",140743,17,"task-qhsc",NA,31172743,NA,"complete",NA,"64da000bb77c30175cda1703","computer","Desktop or Laptop","Mac OS 10.15.7","Safari 16.6","810x1080","1080x707",NA,NA,0,"Feedback Phrases Task - List 2 (Clone with new randomisation)",4,"DECFBGAHJI",NA,"study_2 (video_feedback and feedback_list_2)","VF_1st","Feedback Phrases List 2",16,"Task","Screen 1","113qg5",1,"response","You came across really well.",1933,1916,1933,1933,1916,1933,1,1933,0,0,NA,"Click Response","Text_left_X1",2,"object-18",NA,1,"You came across really well.","Well done!","Task",NA,NA,NA,"SUPPRF20908"
"35",35,1692006608952,"14/08/2023 09:50:08",1692010208952,1,"14/08/2023 11:50:08",140743,17,"task-qhsc",NA,31172743,NA,"complete",NA,"64da000bb77c30175cda1703","computer","Desktop or Laptop","Mac OS 10.15.7","Safari 16.6","810x1080","1080x707",NA,NA,0,"Feedback Phrases Task - List 2 (Clone with new randomisation)",4,"DECFBGAHJI",NA,"study_2 (video_feedback and feedback_list_2)","VF_1st","Feedback Phrases List 2",16,"Task","Screen 3","izqege",2,"continue","",1766,1766,1766,1766,1766,1766,1,1766,0,0,NA,"Fixation Timing","Fixation Cross",1,"object-48",NA,1,"You came across really well.","Well done!","Task",NA,NA,NA,"SUPPRF20908"
"36",36,1692006610956,"14/08/2023 09:50:10",1692010210956,1,"14/08/2023 11:50:10",140743,17,"task-qhsc",NA,31172743,NA,"complete",NA,"64da000bb77c30175cda1703","computer","Desktop or Laptop","Mac OS 10.15.7","Safari 16.6","810x1080","1080x707",NA,NA,0,"Feedback Phrases Task - List 2 (Clone with new randomisation)",4,"DECFBGAHJI",NA,"study_2 (video_feedback and feedback_list_2)","VF_1st","Feedback Phrases List 2",17,"Task","Screen 1","113qg5",1,"response","You appeared very confident.",2000,1983,2000,2000,1983,2000,1,2000,0,0,NA,"Click Response","Text_right_X2",3,"object-19",NA,1,"That was decent.","You appeared very confident.","Task",NA,NA,NA,"SUPPRF20908"
"37",37,1692006612700,"14/08/2023 09:50:12",1692010212700,1,"14/08/2023 11:50:12",140743,17,"task-qhsc",NA,31172743,NA,"complete",NA,"64da000bb77c30175cda1703","computer","Desktop or Laptop","Mac OS 10.15.7","Safari 16.6","810x1080","1080x707",NA,NA,0,"Feedback Phrases Task - List 2 (Clone with new randomisation)",4,"DECFBGAHJI",NA,"study_2 (video_feedback and feedback_list_2)","VF_1st","Feedback Phrases List 2",17,"Task","Screen 3","izqege",2,"continue","",1766,1766,1766,1766,1766,1766,1,1766,0,0,NA,"Fixation Timing","Fixation Cross",1,"object-48",NA,1,"That was decent.","You appeared very confident.","Task",NA,NA,NA,"SUPPRF20908"
"38",38,1692006614116,"14/08/2023 09:50:14",1692010214116,1,"14/08/2023 11:50:14",140743,17,"task-qhsc",NA,31172743,NA,"complete",NA,"64da000bb77c30175cda1703","computer","Desktop or Laptop","Mac OS 10.15.7","Safari 16.6","810x1080","1080x707",NA,NA,0,"Feedback Phrases Task - List 2 (Clone with new randomisation)",4,"DECFBGAHJI",NA,"study_2 (video_feedback and feedback_list_2)","VF_1st","Feedback Phrases List 2",18,"Task","Screen 1","113qg5",1,"response","You said all the right things.",1400,1383,1400,1400,1383,1400,1,1400,0,0,NA,"Click Response","Text_right_X2",3,"object-19",NA,1,"You appear very smart.","You said all the right things.","Task",NA,NA,NA,"SUPPRF20908"
"39",39,1692006615849,"14/08/2023 09:50:15",1692010215849,1,"14/08/2023 11:50:15",140743,17,"task-qhsc",NA,31172743,NA,"complete",NA,"64da000bb77c30175cda1703","computer","Desktop or Laptop","Mac OS 10.15.7","Safari 16.6","810x1080","1080x707",NA,NA,0,"Feedback Phrases Task - List 2 (Clone with new randomisation)",4,"DECFBGAHJI",NA,"study_2 (video_feedback and feedback_list_2)","VF_1st","Feedback Phrases List 2",18,"Task","Screen 3","izqege",2,"continue","",1766,1766,1766,1766,1766,1766,1,1766,0,0,NA,"Fixation Timing","Fixation Cross",1,"object-48",NA,1,"You appear very smart.","You said all the right things.","Task",NA,NA,NA,"SUPPRF20908"
"40",40,1692006617286,"14/08/2023 09:50:17",1692010217286,1,"14/08/2023 11:50:17",140743,17,"task-qhsc",NA,31172743,NA,"complete",NA,"64da000bb77c30175cda1703","computer","Desktop or Laptop","Mac OS 10.15.7","Safari 16.6","810x1080","1080x707",NA,NA,0,"Feedback Phrases Task - List 2 (Clone with new randomisation)",4,"DECFBGAHJI",NA,"study_2 (video_feedback and feedback_list_2)","VF_1st","Feedback Phrases List 2",19,"Task","Screen 1","113qg5",1,"response","You did what was asked of you.",1432,1416,1432,1432,1416,1432,1,1432,0,0,NA,"Click Response","Text_left_X1",2,"object-18",NA,1,"You did what was asked of you.","That was satisfactory.","Task",NA,NA,NA,"SUPPRF20908"
"41",41,1692006619033,"14/08/2023 09:50:19",1692010219033,1,"14/08/2023 11:50:19",140743,17,"task-qhsc",NA,31172743,NA,"complete",NA,"64da000bb77c30175cda1703","computer","Desktop or Laptop","Mac OS 10.15.7","Safari 16.6","810x1080","1080x707",NA,NA,0,"Feedback Phrases Task - List 2 (Clone with new randomisation)",4,"DECFBGAHJI",NA,"study_2 (video_feedback and feedback_list_2)","VF_1st","Feedback Phrases List 2",19,"Task","Screen 3","izqege",2,"continue","",1766,1766,1766,1766,1766,1766,1,1766,0,0,NA,"Fixation Timing","Fixation Cross",1,"object-48",NA,1,"You did what was asked of you.","That was satisfactory.","Task",NA,NA,NA,"SUPPRF20908"
"42",42,1692006624418,"14/08/2023 09:50:24",1692010224418,1,"14/08/2023 11:50:24",140743,17,"task-qhsc",NA,31172743,NA,"complete",NA,"64da000bb77c30175cda1703","computer","Desktop or Laptop","Mac OS 10.15.7","Safari 16.6","810x1080","1080x707",NA,NA,0,"Feedback Phrases Task - List 2 (Clone with new randomisation)",4,"DECFBGAHJI",NA,"study_2 (video_feedback and feedback_list_2)","VF_1st","Feedback Phrases List 2",20,"Task","Screen 1","113qg5",1,"response","You are really engaging when you speak.",5382,5365,5382,5382,5365,5382,1,5382,0,0,NA,"Click Response","Text_right_X2",3,"object-19",NA,1,"You came across really well.","You are really engaging when you speak.","Task",NA,NA,NA,"SUPPRF20908"
"43",43,1692006626163,"14/08/2023 09:50:26",1692010226163,1,"14/08/2023 11:50:26",140743,17,"task-qhsc",NA,31172743,NA,"complete",NA,"64da000bb77c30175cda1703","computer","Desktop or Laptop","Mac OS 10.15.7","Safari 16.6","810x1080","1080x707",NA,NA,0,"Feedback Phrases Task - List 2 (Clone with new randomisation)",4,"DECFBGAHJI",NA,"study_2 (video_feedback and feedback_list_2)","VF_1st","Feedback Phrases List 2",20,"Task","Screen 3","izqege",2,"continue","",1766,1766,1766,1766,1766,1766,1,1766,0,0,NA,"Fixation Timing","Fixation Cross",1,"object-48",NA,1,"You came across really well.","You are really engaging when you speak.","Task",NA,NA,NA,"SUPPRF20908"
"44",44,1692006627367,"14/08/2023 09:50:27",1692010227367,1,"14/08/2023 11:50:27",140743,17,"task-qhsc",NA,31172743,NA,"complete",NA,"64da000bb77c30175cda1703","computer","Desktop or Laptop","Mac OS 10.15.7","Safari 16.6","810x1080","1080x707",NA,NA,0,"Feedback Phrases Task - List 2 (Clone with new randomisation)",4,"DECFBGAHJI",NA,"study_2 (video_feedback and feedback_list_2)","VF_1st","Feedback Phrases List 2",21,"Task","Screen 1","113qg5",1,"response","That was perfect.",1200,1183,1200,1200,1183,1200,1,1200,0,0,NA,"Click Response","Text_right_X2",3,"object-19",NA,1,"You're very articulate.","That was perfect.","Task",NA,NA,NA,"SUPPRF20908"
"45",45,1692006629112,"14/08/2023 09:50:29",1692010229112,1,"14/08/2023 11:50:29",140743,17,"task-qhsc",NA,31172743,NA,"complete",NA,"64da000bb77c30175cda1703","computer","Desktop or Laptop","Mac OS 10.15.7","Safari 16.6","810x1080","1080x707",NA,NA,0,"Feedback Phrases Task - List 2 (Clone with new randomisation)",4,"DECFBGAHJI",NA,"study_2 (video_feedback and feedback_list_2)","VF_1st","Feedback Phrases List 2",21,"Task","Screen 3","izqege",2,"continue","",1766,1766,1766,1766,1766,1766,1,1766,0,0,NA,"Fixation Timing","Fixation Cross",1,"object-48",NA,1,"You're very articulate.","That was perfect.","Task",NA,NA,NA,"SUPPRF20908"
"46",46,1692006633183,"14/08/2023 09:50:33",1692010233183,1,"14/08/2023 11:50:33",140743,17,"task-qhsc",NA,31172743,NA,"complete",NA,"64da000bb77c30175cda1703","computer","Desktop or Laptop","Mac OS 10.15.7","Safari 16.6","810x1080","1080x707",NA,NA,0,"Feedback Phrases Task - List 2 (Clone with new randomisation)",4,"DECFBGAHJI",NA,"study_2 (video_feedback and feedback_list_2)","VF_1st","Feedback Phrases List 2",22,"Task","Screen 1","113qg5",1,"response","Your description was very insightful.",4066,4049,4066,4066,4049,4066,1,4066,0,0,NA,"Click Response","Text_left_X1",2,"object-18",NA,1,"Your description was very insightful.","You are really engaging when you speak.","Task",NA,NA,NA,"SUPPRF20908"
"47",47,1692006634926,"14/08/2023 09:50:34",1692010234926,1,"14/08/2023 11:50:34",140743,17,"task-qhsc",NA,31172743,NA,"complete",NA,"64da000bb77c30175cda1703","computer","Desktop or Laptop","Mac OS 10.15.7","Safari 16.6","810x1080","1080x707",NA,NA,0,"Feedback Phrases Task - List 2 (Clone with new randomisation)",4,"DECFBGAHJI",NA,"study_2 (video_feedback and feedback_list_2)","VF_1st","Feedback Phrases List 2",22,"Task","Screen 3","izqege",2,"continue","",1766,1766,1766,1766,1766,1766,1,1766,0,0,NA,"Fixation Timing","Fixation Cross",1,"object-48",NA,1,"Your description was very insightful.","You are really engaging when you speak.","Task",NA,NA,NA,"SUPPRF20908"
"48",48,1692006636680,"14/08/2023 09:50:36",1692010236680,1,"14/08/2023 11:50:36",140743,17,"task-qhsc",NA,31172743,NA,"complete",NA,"64da000bb77c30175cda1703","computer","Desktop or Laptop","Mac OS 10.15.7","Safari 16.6","810x1080","1080x707",NA,NA,0,"Feedback Phrases Task - List 2 (Clone with new randomisation)",4,"DECFBGAHJI",NA,"study_2 (video_feedback and feedback_list_2)","VF_1st","Feedback Phrases List 2",23,"Task","Screen 1","113qg5",1,"response","You appear very smart.",1750,1733,1750,1750,1733,1750,1,1750,0,0,NA,"Click Response","Text_left_X1",2,"object-18",NA,1,"You appear very smart.","That was satisfactory.","Task",NA,NA,NA,"SUPPRF20908"
"49",49,1692006638424,"14/08/2023 09:50:38",1692010238424,1,"14/08/2023 11:50:38",140743,17,"task-qhsc",NA,31172743,NA,"complete",NA,"64da000bb77c30175cda1703","computer","Desktop or Laptop","Mac OS 10.15.7","Safari 16.6","810x1080","1080x707",NA,NA,0,"Feedback Phrases Task - List 2 (Clone with new randomisation)",4,"DECFBGAHJI",NA,"study_2 (video_feedback and feedback_list_2)","VF_1st","Feedback Phrases List 2",23,"Task","Screen 3","izqege",2,"continue","",1766,1766,1766,1766,1766,1766,1,1766,0,0,NA,"Fixation Timing","Fixation Cross",1,"object-48",NA,1,"You appear very smart.","That was satisfactory.","Task",NA,NA,NA,"SUPPRF20908"
"50",50,1692006639797,"14/08/2023 09:50:39",1692010239797,1,"14/08/2023 11:50:39",140743,17,"task-qhsc",NA,31172743,NA,"complete",NA,"64da000bb77c30175cda1703","computer","Desktop or Laptop","Mac OS 10.15.7","Safari 16.6","810x1080","1080x707",NA,NA,0,"Feedback Phrases Task - List 2 (Clone with new randomisation)",4,"DECFBGAHJI",NA,"study_2 (video_feedback and feedback_list_2)","VF_1st","Feedback Phrases List 2",24,"Task","Screen 1","113qg5",1,"response","You appear very smart.",1367,1350,1367,1367,1350,1367,1,1367,0,0,NA,"Click Response","Text_left_X1",2,"object-18",NA,1,"You appear very smart.","That was decent.","Task",NA,NA,NA,"SUPPRF20908"
"51",51,1692006641540,"14/08/2023 09:50:41",1692010241540,1,"14/08/2023 11:50:41",140743,17,"task-qhsc",NA,31172743,NA,"complete",NA,"64da000bb77c30175cda1703","computer","Desktop or Laptop","Mac OS 10.15.7","Safari 16.6","810x1080","1080x707",NA,NA,0,"Feedback Phrases Task - List 2 (Clone with new randomisation)",4,"DECFBGAHJI",NA,"study_2 (video_feedback and feedback_list_2)","VF_1st","Feedback Phrases List 2",24,"Task","Screen 3","izqege",2,"continue","",1765,1765,1765,1765,1765,1765,1,1765,0,0,NA,"Fixation Timing","Fixation Cross",1,"object-48",NA,1,"You appear very smart.","That was decent.","Task",NA,NA,NA,"SUPPRF20908"
"52",52,1692006643112,"14/08/2023 09:50:43",1692010243112,1,"14/08/2023 11:50:43",140743,17,"task-qhsc",NA,31172743,NA,"complete",NA,"64da000bb77c30175cda1703","computer","Desktop or Laptop","Mac OS 10.15.7","Safari 16.6","810x1080","1080x707",NA,NA,0,"Feedback Phrases Task - List 2 (Clone with new randomisation)",4,"DECFBGAHJI",NA,"study_2 (video_feedback and feedback_list_2)","VF_1st","Feedback Phrases List 2",25,"Task","Screen 1","113qg5",1,"response","You said all the right things.",1567,1550,1567,1567,1550,1567,1,1567,0,0,NA,"Click Response","Text_right_X2",3,"object-19",NA,1,"Excellent!","You said all the right things.","Task",NA,NA,NA,"SUPPRF20908"
"53",53,1692006644856,"14/08/2023 09:50:44",1692010244856,1,"14/08/2023 11:50:44",140743,17,"task-qhsc",NA,31172743,NA,"complete",NA,"64da000bb77c30175cda1703","computer","Desktop or Laptop","Mac OS 10.15.7","Safari 16.6","810x1080","1080x707",NA,NA,0,"Feedback Phrases Task - List 2 (Clone with new randomisation)",4,"DECFBGAHJI",NA,"study_2 (video_feedback and feedback_list_2)","VF_1st","Feedback Phrases List 2",25,"Task","Screen 3","izqege",2,"continue","",1766,1766,1766,1766,1766,1766,1,1766,0,0,NA,"Fixation Timing","Fixation Cross",1,"object-48",NA,1,"Excellent!","You said all the right things.","Task",NA,NA,NA,"SUPPRF20908"
"54",54,1692006645978,"14/08/2023 09:50:45",1692010245978,1,"14/08/2023 11:50:45",140743,17,"task-qhsc",NA,31172743,NA,"complete",NA,"64da000bb77c30175cda1703","computer","Desktop or Laptop","Mac OS 10.15.7","Safari 16.6","810x1080","1080x707",NA,NA,0,"Feedback Phrases Task - List 2 (Clone with new randomisation)",4,"DECFBGAHJI",NA,"study_2 (video_feedback and feedback_list_2)","VF_1st","Feedback Phrases List 2",26,"Task","Screen 1","113qg5",1,"response","That was perfect.",1117,1100,1117,1117,1100,1117,1,1117,0,0,NA,"Click Response","Text_right_X2",3,"object-19",NA,1,"That was satisfactory.","That was perfect.","Task",NA,NA,NA,"SUPPRF20908"
"55",55,1692006647721,"14/08/2023 09:50:47",1692010247721,1,"14/08/2023 11:50:47",140743,17,"task-qhsc",NA,31172743,NA,"complete",NA,"64da000bb77c30175cda1703","computer","Desktop or Laptop","Mac OS 10.15.7","Safari 16.6","810x1080","1080x707",NA,NA,0,"Feedback Phrases Task - List 2 (Clone with new randomisation)",4,"DECFBGAHJI",NA,"study_2 (video_feedback and feedback_list_2)","VF_1st","Feedback Phrases List 2",26,"Task","Screen 3","izqege",2,"continue","",1766,1766,1766,1766,1766,1766,1,1766,0,0,NA,"Fixation Timing","Fixation Cross",1,"object-48",NA,1,"That was satisfactory.","That was perfect.","Task",NA,NA,NA,"SUPPRF20908"
"56",56,1692006649209,"14/08/2023 09:50:49",1692010249209,1,"14/08/2023 11:50:49",140743,17,"task-qhsc",NA,31172743,NA,"complete",NA,"64da000bb77c30175cda1703","computer","Desktop or Laptop","Mac OS 10.15.7","Safari 16.6","810x1080","1080x707",NA,NA,0,"Feedback Phrases Task - List 2 (Clone with new randomisation)",4,"DECFBGAHJI",NA,"study_2 (video_feedback and feedback_list_2)","VF_1st","Feedback Phrases List 2",27,"Task","Screen 1","113qg5",1,"response","That was perfect.",1483,1466,1483,1483,1466,1483,1,1483,0,0,NA,"Click Response","Text_right_X2",3,"object-19",NA,1,"I could easily picture what you were describing.","That was perfect.","Task",NA,NA,NA,"SUPPRF20908"
"57",57,1692006650953,"14/08/2023 09:50:50",1692010250953,1,"14/08/2023 11:50:50",140743,17,"task-qhsc",NA,31172743,NA,"complete",NA,"64da000bb77c30175cda1703","computer","Desktop or Laptop","Mac OS 10.15.7","Safari 16.6","810x1080","1080x707",NA,NA,0,"Feedback Phrases Task - List 2 (Clone with new randomisation)",4,"DECFBGAHJI",NA,"study_2 (video_feedback and feedback_list_2)","VF_1st","Feedback Phrases List 2",27,"Task","Screen 3","izqege",2,"continue","",1766,1766,1766,1766,1766,1766,1,1766,0,0,NA,"Fixation Timing","Fixation Cross",1,"object-48",NA,1,"I could easily picture what you were describing.","That was perfect.","Task",NA,NA,NA,"SUPPRF20908"
"58",58,1692006652393,"14/08/2023 09:50:52",1692010252393,1,"14/08/2023 11:50:52",140743,17,"task-qhsc",NA,31172743,NA,"complete",NA,"64da000bb77c30175cda1703","computer","Desktop or Laptop","Mac OS 10.15.7","Safari 16.6","810x1080","1080x707",NA,NA,0,"Feedback Phrases Task - List 2 (Clone with new randomisation)",4,"DECFBGAHJI",NA,"study_2 (video_feedback and feedback_list_2)","VF_1st","Feedback Phrases List 2",28,"Task","Screen 1","113qg5",1,"response","You seemed very in-control.",1432,1416,1432,1432,1416,1432,1,1432,0,0,NA,"Click Response","Text_left_X1",2,"object-18",NA,1,"You seemed very in-control.","You came across really well.","Task",NA,NA,NA,"SUPPRF20908"
"59",59,1692006654135,"14/08/2023 09:50:54",1692010254135,1,"14/08/2023 11:50:54",140743,17,"task-qhsc",NA,31172743,NA,"complete",NA,"64da000bb77c30175cda1703","computer","Desktop or Laptop","Mac OS 10.15.7","Safari 16.6","810x1080","1080x707",NA,NA,0,"Feedback Phrases Task - List 2 (Clone with new randomisation)",4,"DECFBGAHJI",NA,"study_2 (video_feedback and feedback_list_2)","VF_1st","Feedback Phrases List 2",28,"Task","Screen 3","izqege",2,"continue","",1766,1766,1766,1766,1766,1766,1,1766,0,0,NA,"Fixation Timing","Fixation Cross",1,"object-48",NA,1,"You seemed very in-control.","You came across really well.","Task",NA,NA,NA,"SUPPRF20908"
"60",60,1692006655823,"14/08/2023 09:50:55",1692010255823,1,"14/08/2023 11:50:55",140743,17,"task-qhsc",NA,31172743,NA,"complete",NA,"64da000bb77c30175cda1703","computer","Desktop or Laptop","Mac OS 10.15.7","Safari 16.6","810x1080","1080x707",NA,NA,0,"Feedback Phrases Task - List 2 (Clone with new randomisation)",4,"DECFBGAHJI",NA,"study_2 (video_feedback and feedback_list_2)","VF_1st","Feedback Phrases List 2",29,"Task","Screen 1","113qg5",1,"response","You're very articulate.",1684,1667,1684,1684,1667,1684,1,1684,0,0,NA,"Click Response","Text_right_X2",3,"object-19",NA,1,"That was decent.","You're very articulate.","Task",NA,NA,NA,"SUPPRF20908"
"61",61,1692006657567,"14/08/2023 09:50:57",1692010257567,1,"14/08/2023 11:50:57",140743,17,"task-qhsc",NA,31172743,NA,"complete",NA,"64da000bb77c30175cda1703","computer","Desktop or Laptop","Mac OS 10.15.7","Safari 16.6","810x1080","1080x707",NA,NA,0,"Feedback Phrases Task - List 2 (Clone with new randomisation)",4,"DECFBGAHJI",NA,"study_2 (video_feedback and feedback_list_2)","VF_1st","Feedback Phrases List 2",29,"Task","Screen 3","izqege",2,"continue","",1766,1766,1766,1766,1766,1766,1,1766,0,0,NA,"Fixation Timing","Fixation Cross",1,"object-48",NA,1,"That was decent.","You're very articulate.","Task",NA,NA,NA,"SUPPRF20908"
"62",62,1692006659565,"14/08/2023 09:50:59",1692010259565,1,"14/08/2023 11:50:59",140743,17,"task-qhsc",NA,31172743,NA,"complete",NA,"64da000bb77c30175cda1703","computer","Desktop or Laptop","Mac OS 10.15.7","Safari 16.6","810x1080","1080x707",NA,NA,0,"Feedback Phrases Task - List 2 (Clone with new randomisation)",4,"DECFBGAHJI",NA,"study_2 (video_feedback and feedback_list_2)","VF_1st","Feedback Phrases List 2",30,"Task","Screen 1","113qg5",1,"response","I could easily picture what you were describing.",1997,1982,1997,1997,1982,1997,1,1997,0,0,NA,"Click Response","Text_left_X1",2,"object-18",NA,1,"I could easily picture what you were describing.","You appear very smart.","Task",NA,NA,NA,"SUPPRF20908"
"63",63,1692006661316,"14/08/2023 09:51:01",1692010261316,1,"14/08/2023 11:51:01",140743,17,"task-qhsc",NA,31172743,NA,"complete",NA,"64da000bb77c30175cda1703","computer","Desktop or Laptop","Mac OS 10.15.7","Safari 16.6","810x1080","1080x707",NA,NA,0,"Feedback Phrases Task - List 2 (Clone with new randomisation)",4,"DECFBGAHJI",NA,"study_2 (video_feedback and feedback_list_2)","VF_1st","Feedback Phrases List 2",30,"Task","Screen 3","izqege",2,"continue","",1766,1766,1766,1766,1766,1766,1,1766,0,0,NA,"Fixation Timing","Fixation Cross",1,"object-48",NA,1,"I could easily picture what you were describing.","You appear very smart.","Task",NA,NA,NA,"SUPPRF20908"
"64",64,1692006662737,"14/08/2023 09:51:02",1692010262737,1,"14/08/2023 11:51:02",140743,17,"task-qhsc",NA,31172743,NA,"complete",NA,"64da000bb77c30175cda1703","computer","Desktop or Laptop","Mac OS 10.15.7","Safari 16.6","810x1080","1080x707",NA,NA,0,"Feedback Phrases Task - List 2 (Clone with new randomisation)",4,"DECFBGAHJI",NA,"study_2 (video_feedback and feedback_list_2)","VF_1st","Feedback Phrases List 2",31,"Task","Screen 1","113qg5",1,"response","You are really engaging when you speak.",1417,1400,1417,1417,1400,1417,1,1417,0,0,NA,"Click Response","Text_left_X1",2,"object-18",NA,1,"You are really engaging when you speak.","That was satisfactory.","Task",NA,NA,NA,"SUPPRF20908"
"65",65,1692006664482,"14/08/2023 09:51:04",1692010264482,1,"14/08/2023 11:51:04",140743,17,"task-qhsc",NA,31172743,NA,"complete",NA,"64da000bb77c30175cda1703","computer","Desktop or Laptop","Mac OS 10.15.7","Safari 16.6","810x1080","1080x707",NA,NA,0,"Feedback Phrases Task - List 2 (Clone with new randomisation)",4,"DECFBGAHJI",NA,"study_2 (video_feedback and feedback_list_2)","VF_1st","Feedback Phrases List 2",31,"Task","Screen 3","izqege",2,"continue","",1766,1766,1766,1766,1766,1766,1,1766,0,0,NA,"Fixation Timing","Fixation Cross",1,"object-48",NA,1,"You are really engaging when you speak.","That was satisfactory.","Task",NA,NA,NA,"SUPPRF20908"
"66",66,1692006666423,"14/08/2023 09:51:06",1692010266423,1,"14/08/2023 11:51:06",140743,17,"task-qhsc",NA,31172743,NA,"complete",NA,"64da000bb77c30175cda1703","computer","Desktop or Laptop","Mac OS 10.15.7","Safari 16.6","810x1080","1080x707",NA,NA,0,"Feedback Phrases Task - List 2 (Clone with new randomisation)",4,"DECFBGAHJI",NA,"study_2 (video_feedback and feedback_list_2)","VF_1st","Feedback Phrases List 2",32,"Task","Screen 1","113qg5",1,"response","You seemed very in-control.",1933,1916,1933,1933,1916,1933,1,1933,0,0,NA,"Click Response","Text_right_X2",3,"object-19",NA,1,"Excellent!","You seemed very in-control.","Task",NA,NA,NA,"SUPPRF20908"
"67",67,1692006668165,"14/08/2023 09:51:08",1692010268165,1,"14/08/2023 11:51:08",140743,17,"task-qhsc",NA,31172743,NA,"complete",NA,"64da000bb77c30175cda1703","computer","Desktop or Laptop","Mac OS 10.15.7","Safari 16.6","810x1080","1080x707",NA,NA,0,"Feedback Phrases Task - List 2 (Clone with new randomisation)",4,"DECFBGAHJI",NA,"study_2 (video_feedback and feedback_list_2)","VF_1st","Feedback Phrases List 2",32,"Task","Screen 3","izqege",2,"continue","",1766,1766,1766,1766,1766,1766,1,1766,0,0,NA,"Fixation Timing","Fixation Cross",1,"object-48",NA,1,"Excellent!","You seemed very in-control.","Task",NA,NA,NA,"SUPPRF20908"
"68",68,1692006670653,"14/08/2023 09:51:10",1692010270653,1,"14/08/2023 11:51:10",140743,17,"task-qhsc",NA,31172743,NA,"complete",NA,"64da000bb77c30175cda1703","computer","Desktop or Laptop","Mac OS 10.15.7","Safari 16.6","810x1080","1080x707",NA,NA,0,"Feedback Phrases Task - List 2 (Clone with new randomisation)",4,"DECFBGAHJI",NA,"study_2 (video_feedback and feedback_list_2)","VF_1st","Feedback Phrases List 2",33,"Task","Screen 1","113qg5",1,"response","Your description was very insightful.",2482,2466,2482,2482,2466,2482,1,2482,0,0,NA,"Click Response","Text_right_X2",3,"object-19",NA,1,"You're very articulate.","Your description was very insightful.","Task",NA,NA,NA,"SUPPRF20908"
"69",69,1692006672395,"14/08/2023 09:51:12",1692010272395,1,"14/08/2023 11:51:12",140743,17,"task-qhsc",NA,31172743,NA,"complete",NA,"64da000bb77c30175cda1703","computer","Desktop or Laptop","Mac OS 10.15.7","Safari 16.6","810x1080","1080x707",NA,NA,0,"Feedback Phrases Task - List 2 (Clone with new randomisation)",4,"DECFBGAHJI",NA,"study_2 (video_feedback and feedback_list_2)","VF_1st","Feedback Phrases List 2",33,"Task","Screen 3","izqege",2,"continue","",1766,1766,1766,1766,1766,1766,1,1766,0,0,NA,"Fixation Timing","Fixation Cross",1,"object-48",NA,1,"You're very articulate.","Your description was very insightful.","Task",NA,NA,NA,"SUPPRF20908"
"70",70,1692006674352,"14/08/2023 09:51:14",1692010274352,1,"14/08/2023 11:51:14",140743,17,"task-qhsc",NA,31172743,NA,"complete",NA,"64da000bb77c30175cda1703","computer","Desktop or Laptop","Mac OS 10.15.7","Safari 16.6","810x1080","1080x707",NA,NA,0,"Feedback Phrases Task - List 2 (Clone with new randomisation)",4,"DECFBGAHJI",NA,"study_2 (video_feedback and feedback_list_2)","VF_1st","Feedback Phrases List 2",34,"Task","Screen 1","113qg5",1,"response","You appeared very confident.",1950,1933,1950,1950,1933,1950,1,1950,0,0,NA,"Click Response","Text_left_X1",2,"object-18",NA,1,"You appeared very confident.","You came across really well.","Task",NA,NA,NA,"SUPPRF20908"
"71",71,1692006676095,"14/08/2023 09:51:16",1692010276095,1,"14/08/2023 11:51:16",140743,17,"task-qhsc",NA,31172743,NA,"complete",NA,"64da000bb77c30175cda1703","computer","Desktop or Laptop","Mac OS 10.15.7","Safari 16.6","810x1080","1080x707",NA,NA,0,"Feedback Phrases Task - List 2 (Clone with new randomisation)",4,"DECFBGAHJI",NA,"study_2 (video_feedback and feedback_list_2)","VF_1st","Feedback Phrases List 2",34,"Task","Screen 3","izqege",2,"continue","",1766,1766,1766,1766,1766,1766,1,1766,0,0,NA,"Fixation Timing","Fixation Cross",1,"object-48",NA,1,"You appeared very confident.","You came across really well.","Task",NA,NA,NA,"SUPPRF20908"
"72",72,1692006677971,"14/08/2023 09:51:17",1692010277971,1,"14/08/2023 11:51:17",140743,17,"task-qhsc",NA,31172743,NA,"complete",NA,"64da000bb77c30175cda1703","computer","Desktop or Laptop","Mac OS 10.15.7","Safari 16.6","810x1080","1080x707",NA,NA,0,"Feedback Phrases Task - List 2 (Clone with new randomisation)",4,"DECFBGAHJI",NA,"study_2 (video_feedback and feedback_list_2)","VF_1st","Feedback Phrases List 2",35,"Task","Screen 1","113qg5",1,"response","You are really engaging when you speak.",1877,1866,1877,1877,1866,1877,1,1877,0,0,NA,"Click Response","Text_right_X2",3,"object-19",NA,1,"That was decent.","You are really engaging when you speak.","Task",NA,NA,NA,"SUPPRF20908"
"73",73,1692006679727,"14/08/2023 09:51:19",1692010279727,1,"14/08/2023 11:51:19",140743,17,"task-qhsc",NA,31172743,NA,"complete",NA,"64da000bb77c30175cda1703","computer","Desktop or Laptop","Mac OS 10.15.7","Safari 16.6","810x1080","1080x707",NA,NA,0,"Feedback Phrases Task - List 2 (Clone with new randomisation)",4,"DECFBGAHJI",NA,"study_2 (video_feedback and feedback_list_2)","VF_1st","Feedback Phrases List 2",35,"Task","Screen 3","izqege",2,"continue","",1766,1766,1766,1766,1766,1766,1,1766,0,0,NA,"Fixation Timing","Fixation Cross",1,"object-48",NA,1,"That was decent.","You are really engaging when you speak.","Task",NA,NA,NA,"SUPPRF20908"
"74",74,1692006681416,"14/08/2023 09:51:21",1692010281416,1,"14/08/2023 11:51:21",140743,17,"task-qhsc",NA,31172743,NA,"complete",NA,"64da000bb77c30175cda1703","computer","Desktop or Laptop","Mac OS 10.15.7","Safari 16.6","810x1080","1080x707",NA,NA,0,"Feedback Phrases Task - List 2 (Clone with new randomisation)",4,"DECFBGAHJI",NA,"study_2 (video_feedback and feedback_list_2)","VF_1st","Feedback Phrases List 2",36,"Task","Screen 1","113qg5",1,"response","You did what was asked of you.",1682,1666,1682,1682,1666,1682,1,1682,0,0,NA,"Click Response","Text_left_X1",2,"object-18",NA,1,"You did what was asked of you.","You came across really well.","Task",NA,NA,NA,"SUPPRF20908"
"75",75,1692006683161,"14/08/2023 09:51:23",1692010283161,1,"14/08/2023 11:51:23",140743,17,"task-qhsc",NA,31172743,NA,"complete",NA,"64da000bb77c30175cda1703","computer","Desktop or Laptop","Mac OS 10.15.7","Safari 16.6","810x1080","1080x707",NA,NA,0,"Feedback Phrases Task - List 2 (Clone with new randomisation)",4,"DECFBGAHJI",NA,"study_2 (video_feedback and feedback_list_2)","VF_1st","Feedback Phrases List 2",36,"Task","Screen 3","izqege",2,"continue","",1766,1766,1766,1766,1766,1766,1,1766,0,0,NA,"Fixation Timing","Fixation Cross",1,"object-48",NA,1,"You did what was asked of you.","You came across really well.","Task",NA,NA,NA,"SUPPRF20908"
"76",76,1692006685539,"14/08/2023 09:51:25",1692010285539,1,"14/08/2023 11:51:25",140743,17,"task-qhsc",NA,31172743,NA,"complete",NA,"64da000bb77c30175cda1703","computer","Desktop or Laptop","Mac OS 10.15.7","Safari 16.6","810x1080","1080x707",NA,NA,0,"Feedback Phrases Task - List 2 (Clone with new randomisation)",4,"DECFBGAHJI",NA,"study_2 (video_feedback and feedback_list_2)","VF_1st","Feedback Phrases List 2",37,"Task","Screen 1","113qg5",1,"response","I could easily picture what you were describing.",2381,2366,2381,2381,2366,2381,1,2381,0,0,NA,"Click Response","Text_right_X2",3,"object-19",NA,1,"You came across really well.","I could easily picture what you were describing.","Task",NA,NA,NA,"SUPPRF20908"
"77",77,1692006687290,"14/08/2023 09:51:27",1692010287290,1,"14/08/2023 11:51:27",140743,17,"task-qhsc",NA,31172743,NA,"complete",NA,"64da000bb77c30175cda1703","computer","Desktop or Laptop","Mac OS 10.15.7","Safari 16.6","810x1080","1080x707",NA,NA,0,"Feedback Phrases Task - List 2 (Clone with new randomisation)",4,"DECFBGAHJI",NA,"study_2 (video_feedback and feedback_list_2)","VF_1st","Feedback Phrases List 2",37,"Task","Screen 3","izqege",2,"continue","",1766,1766,1766,1766,1766,1766,1,1766,0,0,NA,"Fixation Timing","Fixation Cross",1,"object-48",NA,1,"You came across really well.","I could easily picture what you were describing.","Task",NA,NA,NA,"SUPPRF20908"
"78",78,1692006688413,"14/08/2023 09:51:28",1692010288413,1,"14/08/2023 11:51:28",140743,17,"task-qhsc",NA,31172743,NA,"complete",NA,"64da000bb77c30175cda1703","computer","Desktop or Laptop","Mac OS 10.15.7","Safari 16.6","810x1080","1080x707",NA,NA,0,"Feedback Phrases Task - List 2 (Clone with new randomisation)",4,"DECFBGAHJI",NA,"study_2 (video_feedback and feedback_list_2)","VF_1st","Feedback Phrases List 2",38,"Task","Screen 1","113qg5",1,"response","That was perfect.",1117,1100,1117,1117,1100,1117,1,1117,0,0,NA,"Click Response","Text_right_X2",3,"object-19",NA,1,"Excellent!","That was perfect.","Task",NA,NA,NA,"SUPPRF20908"
"79",79,1692006690156,"14/08/2023 09:51:30",1692010290156,1,"14/08/2023 11:51:30",140743,17,"task-qhsc",NA,31172743,NA,"complete",NA,"64da000bb77c30175cda1703","computer","Desktop or Laptop","Mac OS 10.15.7","Safari 16.6","810x1080","1080x707",NA,NA,0,"Feedback Phrases Task - List 2 (Clone with new randomisation)",4,"DECFBGAHJI",NA,"study_2 (video_feedback and feedback_list_2)","VF_1st","Feedback Phrases List 2",38,"Task","Screen 3","izqege",2,"continue","",1766,1766,1766,1766,1766,1766,1,1766,0,0,NA,"Fixation Timing","Fixation Cross",1,"object-48",NA,1,"Excellent!","That was perfect.","Task",NA,NA,NA,"SUPPRF20908"
"80",80,1692006691595,"14/08/2023 09:51:31",1692010291595,1,"14/08/2023 11:51:31",140743,17,"task-qhsc",NA,31172743,NA,"complete",NA,"64da000bb77c30175cda1703","computer","Desktop or Laptop","Mac OS 10.15.7","Safari 16.6","810x1080","1080x707",NA,NA,0,"Feedback Phrases Task - List 2 (Clone with new randomisation)",4,"DECFBGAHJI",NA,"study_2 (video_feedback and feedback_list_2)","VF_1st","Feedback Phrases List 2",39,"Task","Screen 1","113qg5",1,"response","Well done!",1432,1416,1432,1432,1416,1432,1,1432,0,0,NA,"Click Response","Text_right_X2",3,"object-19",NA,1,"That was decent.","Well done!","Task",NA,NA,NA,"SUPPRF20908"
"81",81,1692006693338,"14/08/2023 09:51:33",1692010293338,1,"14/08/2023 11:51:33",140743,17,"task-qhsc",NA,31172743,NA,"complete",NA,"64da000bb77c30175cda1703","computer","Desktop or Laptop","Mac OS 10.15.7","Safari 16.6","810x1080","1080x707",NA,NA,0,"Feedback Phrases Task - List 2 (Clone with new randomisation)",4,"DECFBGAHJI",NA,"study_2 (video_feedback and feedback_list_2)","VF_1st","Feedback Phrases List 2",39,"Task","Screen 3","izqege",2,"continue","",1766,1766,1766,1766,1766,1766,1,1766,0,0,NA,"Fixation Timing","Fixation Cross",1,"object-48",NA,1,"That was decent.","Well done!","Task",NA,NA,NA,"SUPPRF20908"
"82",82,1692006694594,"14/08/2023 09:51:34",1692010294594,1,"14/08/2023 11:51:34",140743,17,"task-qhsc",NA,31172743,NA,"complete",NA,"64da000bb77c30175cda1703","computer","Desktop or Laptop","Mac OS 10.15.7","Safari 16.6","810x1080","1080x707",NA,NA,0,"Feedback Phrases Task - List 2 (Clone with new randomisation)",4,"DECFBGAHJI",NA,"study_2 (video_feedback and feedback_list_2)","VF_1st","Feedback Phrases List 2",40,"Task","Screen 1","113qg5",1,"response","I could easily picture what you were describing.",1250,1233,1250,1250,1233,1250,1,1250,0,0,NA,"Click Response","Text_left_X1",2,"object-18",NA,1,"I could easily picture what you were describing.","That was decent.","Task",NA,NA,NA,"SUPPRF20908"
"83",83,1692006696337,"14/08/2023 09:51:36",1692010296337,1,"14/08/2023 11:51:36",140743,17,"task-qhsc",NA,31172743,NA,"complete",NA,"64da000bb77c30175cda1703","computer","Desktop or Laptop","Mac OS 10.15.7","Safari 16.6","810x1080","1080x707",NA,NA,0,"Feedback Phrases Task - List 2 (Clone with new randomisation)",4,"DECFBGAHJI",NA,"study_2 (video_feedback and feedback_list_2)","VF_1st","Feedback Phrases List 2",40,"Task","Screen 3","izqege",2,"continue","",1766,1766,1766,1766,1766,1766,1,1766,0,0,NA,"Fixation Timing","Fixation Cross",1,"object-48",NA,1,"I could easily picture what you were describing.","That was decent.","Task",NA,NA,NA,"SUPPRF20908"
"84",84,1692006697443,"14/08/2023 09:51:37",1692010297443,1,"14/08/2023 11:51:37",140743,17,"task-qhsc",NA,31172743,NA,"complete",NA,"64da000bb77c30175cda1703","computer","Desktop or Laptop","Mac OS 10.15.7","Safari 16.6","810x1080","1080x707",NA,NA,0,"Feedback Phrases Task - List 2 (Clone with new randomisation)",4,"DECFBGAHJI",NA,"study_2 (video_feedback and feedback_list_2)","VF_1st","Feedback Phrases List 2",41,"Task","Screen 1","113qg5",1,"response","That was perfect.",1101,1084,1101,1101,1084,1101,1,1101,0,0,NA,"Click Response","Text_left_X1",2,"object-18",NA,1,"That was perfect.","You are really engaging when you speak.","Task",NA,NA,NA,"SUPPRF20908"
"85",85,1692006699186,"14/08/2023 09:51:39",1692010299186,1,"14/08/2023 11:51:39",140743,17,"task-qhsc",NA,31172743,NA,"complete",NA,"64da000bb77c30175cda1703","computer","Desktop or Laptop","Mac OS 10.15.7","Safari 16.6","810x1080","1080x707",NA,NA,0,"Feedback Phrases Task - List 2 (Clone with new randomisation)",4,"DECFBGAHJI",NA,"study_2 (video_feedback and feedback_list_2)","VF_1st","Feedback Phrases List 2",41,"Task","Screen 3","izqege",2,"continue","",1765,1765,1765,1765,1765,1765,1,1765,0,0,NA,"Fixation Timing","Fixation Cross",1,"object-48",NA,1,"That was perfect.","You are really engaging when you speak.","Task",NA,NA,NA,"SUPPRF20908"
"86",86,1692006700226,"14/08/2023 09:51:40",1692010300226,1,"14/08/2023 11:51:40",140743,17,"task-qhsc",NA,31172743,NA,"complete",NA,"64da000bb77c30175cda1703","computer","Desktop or Laptop","Mac OS 10.15.7","Safari 16.6","810x1080","1080x707",NA,NA,0,"Feedback Phrases Task - List 2 (Clone with new randomisation)",4,"DECFBGAHJI",NA,"study_2 (video_feedback and feedback_list_2)","VF_1st","Feedback Phrases List 2",42,"Task","Screen 1","113qg5",1,"response","That was perfect.",1034,1017,1034,1034,1017,1034,1,1034,0,0,NA,"Click Response","Text_left_X1",2,"object-18",NA,1,"That was perfect.","You said all the right things.","Task",NA,NA,NA,"SUPPRF20908"
"87",87,1692006701968,"14/08/2023 09:51:41",1692010301968,1,"14/08/2023 11:51:41",140743,17,"task-qhsc",NA,31172743,NA,"complete",NA,"64da000bb77c30175cda1703","computer","Desktop or Laptop","Mac OS 10.15.7","Safari 16.6","810x1080","1080x707",NA,NA,0,"Feedback Phrases Task - List 2 (Clone with new randomisation)",4,"DECFBGAHJI",NA,"study_2 (video_feedback and feedback_list_2)","VF_1st","Feedback Phrases List 2",42,"Task","Screen 3","izqege",2,"continue","",1766,1766,1766,1766,1766,1766,1,1766,0,0,NA,"Fixation Timing","Fixation Cross",1,"object-48",NA,1,"That was perfect.","You said all the right things.","Task",NA,NA,NA,"SUPPRF20908"
"88",88,1692006703274,"14/08/2023 09:51:43",1692010303274,1,"14/08/2023 11:51:43",140743,17,"task-qhsc",NA,31172743,NA,"complete",NA,"64da000bb77c30175cda1703","computer","Desktop or Laptop","Mac OS 10.15.7","Safari 16.6","810x1080","1080x707",NA,NA,0,"Feedback Phrases Task - List 2 (Clone with new randomisation)",4,"DECFBGAHJI",NA,"study_2 (video_feedback and feedback_list_2)","VF_1st","Feedback Phrases List 2",43,"Task","Screen 1","113qg5",1,"response","Excellent!",1300,1283,1300,1300,1283,1300,1,1300,0,0,NA,"Click Response","Text_left_X1",2,"object-18",NA,1,"Excellent!","You are really engaging when you speak.","Task",NA,NA,NA,"SUPPRF20908"
"89",89,1692006705017,"14/08/2023 09:51:45",1692010305017,1,"14/08/2023 11:51:45",140743,17,"task-qhsc",NA,31172743,NA,"complete",NA,"64da000bb77c30175cda1703","computer","Desktop or Laptop","Mac OS 10.15.7","Safari 16.6","810x1080","1080x707",NA,NA,0,"Feedback Phrases Task - List 2 (Clone with new randomisation)",4,"DECFBGAHJI",NA,"study_2 (video_feedback and feedback_list_2)","VF_1st","Feedback Phrases List 2",43,"Task","Screen 3","izqege",2,"continue","",1766,1766,1766,1766,1766,1766,1,1766,0,0,NA,"Fixation Timing","Fixation Cross",1,"object-48",NA,1,"Excellent!","You are really engaging when you speak.","Task",NA,NA,NA,"SUPPRF20908"
"90",90,1692006708789,"14/08/2023 09:51:48",1692010308789,1,"14/08/2023 11:51:48",140743,17,"task-qhsc",NA,31172743,NA,"complete",NA,"64da000bb77c30175cda1703","computer","Desktop or Laptop","Mac OS 10.15.7","Safari 16.6","810x1080","1080x707",NA,NA,0,"Feedback Phrases Task - List 2 (Clone with new randomisation)",4,"DECFBGAHJI",NA,"study_2 (video_feedback and feedback_list_2)","VF_1st","Feedback Phrases List 2",44,"Task","Screen 1","113qg5",1,"response","You're very articulate.",3766,3749,3766,3766,3749,3766,1,3766,0,0,NA,"Click Response","Text_right_X2",3,"object-19",NA,1,"You appear very smart.","You're very articulate.","Task",NA,NA,NA,"SUPPRF20908"
"91",91,1692006710532,"14/08/2023 09:51:50",1692010310532,1,"14/08/2023 11:51:50",140743,17,"task-qhsc",NA,31172743,NA,"complete",NA,"64da000bb77c30175cda1703","computer","Desktop or Laptop","Mac OS 10.15.7","Safari 16.6","810x1080","1080x707",NA,NA,0,"Feedback Phrases Task - List 2 (Clone with new randomisation)",4,"DECFBGAHJI",NA,"study_2 (video_feedback and feedback_list_2)","VF_1st","Feedback Phrases List 2",44,"Task","Screen 3","izqege",2,"continue","",1766,1766,1766,1766,1766,1766,1,1766,0,0,NA,"Fixation Timing","Fixation Cross",1,"object-48",NA,1,"You appear very smart.","You're very articulate.","Task",NA,NA,NA,"SUPPRF20908"
"92",92,1692006712204,"14/08/2023 09:51:52",1692010312204,1,"14/08/2023 11:51:52",140743,17,"task-qhsc",NA,31172743,NA,"complete",NA,"64da000bb77c30175cda1703","computer","Desktop or Laptop","Mac OS 10.15.7","Safari 16.6","810x1080","1080x707",NA,NA,0,"Feedback Phrases Task - List 2 (Clone with new randomisation)",4,"DECFBGAHJI",NA,"study_2 (video_feedback and feedback_list_2)","VF_1st","Feedback Phrases List 2",45,"Task","Screen 1","113qg5",1,"response","I could easily picture what you were describing.",1665,1649,1665,1665,1649,1665,1,1665,0,0,NA,"Click Response","Text_left_X1",2,"object-18",NA,1,"I could easily picture what you were describing.","That was satisfactory.","Task",NA,NA,NA,"SUPPRF20908"
"93",93,1692006713947,"14/08/2023 09:51:53",1692010313947,1,"14/08/2023 11:51:53",140743,17,"task-qhsc",NA,31172743,NA,"complete",NA,"64da000bb77c30175cda1703","computer","Desktop or Laptop","Mac OS 10.15.7","Safari 16.6","810x1080","1080x707",NA,NA,0,"Feedback Phrases Task - List 2 (Clone with new randomisation)",4,"DECFBGAHJI",NA,"study_2 (video_feedback and feedback_list_2)","VF_1st","Feedback Phrases List 2",45,"Task","Screen 3","izqege",2,"continue","",1766,1766,1766,1766,1766,1766,1,1766,0,0,NA,"Fixation Timing","Fixation Cross",1,"object-48",NA,1,"I could easily picture what you were describing.","That was satisfactory.","Task",NA,NA,NA,"SUPPRF20908"
"94",94,1692006717135,"14/08/2023 09:51:57",1692010317135,1,"14/08/2023 11:51:57",140743,17,"task-qhsc",NA,31172743,NA,"complete",NA,"64da000bb77c30175cda1703","computer","Desktop or Laptop","Mac OS 10.15.7","Safari 16.6","810x1080","1080x707",NA,NA,0,"Feedback Phrases Task - List 2 (Clone with new randomisation)",4,"DECFBGAHJI",NA,"study_2 (video_feedback and feedback_list_2)","VF_1st","Feedback Phrases List 2",46,"Task","Screen 1","113qg5",1,"response","I could easily picture what you were describing.",3183,3166,3183,3183,3166,3183,1,3183,0,0,NA,"Click Response","Text_left_X1",2,"object-18",NA,1,"I could easily picture what you were describing.","You appeared very confident.","Task",NA,NA,NA,"SUPPRF20908"
"95",95,1692006718879,"14/08/2023 09:51:58",1692010318879,1,"14/08/2023 11:51:58",140743,17,"task-qhsc",NA,31172743,NA,"complete",NA,"64da000bb77c30175cda1703","computer","Desktop or Laptop","Mac OS 10.15.7","Safari 16.6","810x1080","1080x707",NA,NA,0,"Feedback Phrases Task - List 2 (Clone with new randomisation)",4,"DECFBGAHJI",NA,"study_2 (video_feedback and feedback_list_2)","VF_1st","Feedback Phrases List 2",46,"Task","Screen 3","izqege",2,"continue","",1766,1766,1766,1766,1766,1766,1,1766,0,0,NA,"Fixation Timing","Fixation Cross",1,"object-48",NA,1,"I could easily picture what you were describing.","You appeared very confident.","Task",NA,NA,NA,"SUPPRF20908"
"96",96,1692006720834,"14/08/2023 09:52:00",1692010320834,1,"14/08/2023 11:52:00",140743,17,"task-qhsc",NA,31172743,NA,"complete",NA,"64da000bb77c30175cda1703","computer","Desktop or Laptop","Mac OS 10.15.7","Safari 16.6","810x1080","1080x707",NA,NA,0,"Feedback Phrases Task - List 2 (Clone with new randomisation)",4,"DECFBGAHJI",NA,"study_2 (video_feedback and feedback_list_2)","VF_1st","Feedback Phrases List 2",47,"Task","Screen 1","113qg5",1,"response","You appeared very confident.",1950,1933,1950,1950,1933,1950,1,1950,0,0,NA,"Click Response","Text_left_X1",2,"object-18",NA,1,"You appeared very confident.","That was satisfactory.","Task",NA,NA,NA,"SUPPRF20908"
"97",97,1692006722577,"14/08/2023 09:52:02",1692010322577,1,"14/08/2023 11:52:02",140743,17,"task-qhsc",NA,31172743,NA,"complete",NA,"64da000bb77c30175cda1703","computer","Desktop or Laptop","Mac OS 10.15.7","Safari 16.6","810x1080","1080x707",NA,NA,0,"Feedback Phrases Task - List 2 (Clone with new randomisation)",4,"DECFBGAHJI",NA,"study_2 (video_feedback and feedback_list_2)","VF_1st","Feedback Phrases List 2",47,"Task","Screen 3","izqege",2,"continue","",1766,1766,1766,1766,1766,1766,1,1766,0,0,NA,"Fixation Timing","Fixation Cross",1,"object-48",NA,1,"You appeared very confident.","That was satisfactory.","Task",NA,NA,NA,"SUPPRF20908"
"98",98,1692006725405,"14/08/2023 09:52:05",1692010325405,1,"14/08/2023 11:52:05",140743,17,"task-qhsc",NA,31172743,NA,"complete",NA,"64da000bb77c30175cda1703","computer","Desktop or Laptop","Mac OS 10.15.7","Safari 16.6","810x1080","1080x707",NA,NA,0,"Feedback Phrases Task - List 2 (Clone with new randomisation)",4,"DECFBGAHJI",NA,"study_2 (video_feedback and feedback_list_2)","VF_1st","Feedback Phrases List 2",48,"Task","Screen 1","113qg5",1,"response","You seemed very in-control.",2766,2749,2766,2766,2749,2766,1,2766,0,0,NA,"Click Response","Text_left_X1",2,"object-18",NA,1,"You seemed very in-control.","You appeared very confident.","Task",NA,NA,NA,"SUPPRF20908"
"99",99,1692006727152,"14/08/2023 09:52:07",1692010327152,1,"14/08/2023 11:52:07",140743,17,"task-qhsc",NA,31172743,NA,"complete",NA,"64da000bb77c30175cda1703","computer","Desktop or Laptop","Mac OS 10.15.7","Safari 16.6","810x1080","1080x707",NA,NA,0,"Feedback Phrases Task - List 2 (Clone with new randomisation)",4,"DECFBGAHJI",NA,"study_2 (video_feedback and feedback_list_2)","VF_1st","Feedback Phrases List 2",48,"Task","Screen 3","izqege",2,"continue","",1766,1766,1766,1766,1766,1766,1,1766,0,0,NA,"Fixation Timing","Fixation Cross",1,"object-48",NA,1,"You seemed very in-control.","You appeared very confident.","Task",NA,NA,NA,"SUPPRF20908"
"100",100,1692006729738,"14/08/2023 09:52:09",1692010329738,1,"14/08/2023 11:52:09",140743,17,"task-qhsc",NA,31172743,NA,"complete",NA,"64da000bb77c30175cda1703","computer","Desktop or Laptop","Mac OS 10.15.7","Safari 16.6","810x1080","1080x707",NA,NA,0,"Feedback Phrases Task - List 2 (Clone with new randomisation)",4,"DECFBGAHJI",NA,"study_2 (video_feedback and feedback_list_2)","VF_1st","Feedback Phrases List 2",49,"Task","Screen 1","113qg5",1,"response","You are really engaging when you speak.",2583,2566,2583,2583,2566,2583,1,2583,0,0,NA,"Click Response","Text_right_X2",3,"object-19",NA,1,"You appear very smart.","You are really engaging when you speak.","Task",NA,NA,NA,"SUPPRF20908"
"101",101,1692006731484,"14/08/2023 09:52:11",1692010331484,1,"14/08/2023 11:52:11",140743,17,"task-qhsc",NA,31172743,NA,"complete",NA,"64da000bb77c30175cda1703","computer","Desktop or Laptop","Mac OS 10.15.7","Safari 16.6","810x1080","1080x707",NA,NA,0,"Feedback Phrases Task - List 2 (Clone with new randomisation)",4,"DECFBGAHJI",NA,"study_2 (video_feedback and feedback_list_2)","VF_1st","Feedback Phrases List 2",49,"Task","Screen 3","izqege",2,"continue","",1766,1766,1766,1766,1766,1766,1,1766,0,0,NA,"Fixation Timing","Fixation Cross",1,"object-48",NA,1,"You appear very smart.","You are really engaging when you speak.","Task",NA,NA,NA,"SUPPRF20908"
"102",102,1692006737338,"14/08/2023 09:52:17",1692010337338,1,"14/08/2023 11:52:17",140743,17,"task-qhsc",NA,31172743,NA,"complete",NA,"64da000bb77c30175cda1703","computer","Desktop or Laptop","Mac OS 10.15.7","Safari 16.6","810x1080","1080x707",NA,NA,0,"Feedback Phrases Task - List 2 (Clone with new randomisation)",4,"DECFBGAHJI",NA,"study_2 (video_feedback and feedback_list_2)","VF_1st","Feedback Phrases List 2",50,"Task","Screen 1","113qg5",1,"response","I could easily picture what you were describing.",5847,5831,5847,5847,5831,5847,1,5847,0,0,NA,"Click Response","Text_right_X2",3,"object-19",NA,1,"You're very articulate.","I could easily picture what you were describing.","Task",NA,NA,NA,"SUPPRF20908"
"103",103,1692006739081,"14/08/2023 09:52:19",1692010339081,1,"14/08/2023 11:52:19",140743,17,"task-qhsc",NA,31172743,NA,"complete",NA,"64da000bb77c30175cda1703","computer","Desktop or Laptop","Mac OS 10.15.7","Safari 16.6","810x1080","1080x707",NA,NA,0,"Feedback Phrases Task - List 2 (Clone with new randomisation)",4,"DECFBGAHJI",NA,"study_2 (video_feedback and feedback_list_2)","VF_1st","Feedback Phrases List 2",50,"Task","Screen 3","izqege",2,"continue","",1767,1767,1767,1767,1767,1767,1,1767,0,0,NA,"Fixation Timing","Fixation Cross",1,"object-48",NA,1,"You're very articulate.","I could easily picture what you were describing.","Task",NA,NA,NA,"SUPPRF20908"
"104",104,1692006745188,"14/08/2023 09:52:25",1692010345188,1,"14/08/2023 11:52:25",140743,17,"task-qhsc",NA,31172743,NA,"complete",NA,"64da000bb77c30175cda1703","computer","Desktop or Laptop","Mac OS 10.15.7","Safari 16.6","810x1080","1080x707",NA,NA,0,"Feedback Phrases Task - List 2 (Clone with new randomisation)",4,"DECFBGAHJI",NA,"study_2 (video_feedback and feedback_list_2)","VF_1st","Feedback Phrases List 2",51,"Task","Screen 1","113qg5",1,"response","That was decent.",6098,6081,6098,6098,6081,6098,1,6098,0,0,NA,"Click Response","Text_left_X1",2,"object-18",NA,1,"That was decent.","That was satisfactory.","Task",NA,NA,NA,"SUPPRF20908"
"105",105,1692006746930,"14/08/2023 09:52:26",1692010346930,1,"14/08/2023 11:52:26",140743,17,"task-qhsc",NA,31172743,NA,"complete",NA,"64da000bb77c30175cda1703","computer","Desktop or Laptop","Mac OS 10.15.7","Safari 16.6","810x1080","1080x707",NA,NA,0,"Feedback Phrases Task - List 2 (Clone with new randomisation)",4,"DECFBGAHJI",NA,"study_2 (video_feedback and feedback_list_2)","VF_1st","Feedback Phrases List 2",51,"Task","Screen 3","izqege",2,"continue","",1766,1766,1766,1766,1766,1766,1,1766,0,0,NA,"Fixation Timing","Fixation Cross",1,"object-48",NA,1,"That was decent.","That was satisfactory.","Task",NA,NA,NA,"SUPPRF20908"
"106",106,1692006749634,"14/08/2023 09:52:29",1692010349634,1,"14/08/2023 11:52:29",140743,17,"task-qhsc",NA,31172743,NA,"complete",NA,"64da000bb77c30175cda1703","computer","Desktop or Laptop","Mac OS 10.15.7","Safari 16.6","810x1080","1080x707",NA,NA,0,"Feedback Phrases Task - List 2 (Clone with new randomisation)",4,"DECFBGAHJI",NA,"study_2 (video_feedback and feedback_list_2)","VF_1st","Feedback Phrases List 2",52,"Task","Screen 1","113qg5",1,"response","You said all the right things.",2700,2683,2700,2700,2683,2700,1,2700,0,0,NA,"Click Response","Text_right_X2",3,"object-19",NA,1,"You seemed very in-control.","You said all the right things.","Task",NA,NA,NA,"SUPPRF20908"
"107",107,1692006751377,"14/08/2023 09:52:31",1692010351377,1,"14/08/2023 11:52:31",140743,17,"task-qhsc",NA,31172743,NA,"complete",NA,"64da000bb77c30175cda1703","computer","Desktop or Laptop","Mac OS 10.15.7","Safari 16.6","810x1080","1080x707",NA,NA,0,"Feedback Phrases Task - List 2 (Clone with new randomisation)",4,"DECFBGAHJI",NA,"study_2 (video_feedback and feedback_list_2)","VF_1st","Feedback Phrases List 2",52,"Task","Screen 3","izqege",2,"continue","",1766,1766,1766,1766,1766,1766,1,1766,0,0,NA,"Fixation Timing","Fixation Cross",1,"object-48",NA,1,"You seemed very in-control.","You said all the right things.","Task",NA,NA,NA,"SUPPRF20908"
"108",108,1692006753066,"14/08/2023 09:52:33",1692010353066,1,"14/08/2023 11:52:33",140743,17,"task-qhsc",NA,31172743,NA,"complete",NA,"64da000bb77c30175cda1703","computer","Desktop or Laptop","Mac OS 10.15.7","Safari 16.6","810x1080","1080x707",NA,NA,0,"Feedback Phrases Task - List 2 (Clone with new randomisation)",4,"DECFBGAHJI",NA,"study_2 (video_feedback and feedback_list_2)","VF_1st","Feedback Phrases List 2",53,"Task","Screen 1","113qg5",1,"response","You're very articulate.",1683,1666,1683,1683,1666,1683,1,1683,0,0,NA,"Click Response","Text_right_X2",3,"object-19",NA,1,"You came across really well.","You're very articulate.","Task",NA,NA,NA,"SUPPRF20908"
"109",109,1692006754809,"14/08/2023 09:52:34",1692010354809,1,"14/08/2023 11:52:34",140743,17,"task-qhsc",NA,31172743,NA,"complete",NA,"64da000bb77c30175cda1703","computer","Desktop or Laptop","Mac OS 10.15.7","Safari 16.6","810x1080","1080x707",NA,NA,0,"Feedback Phrases Task - List 2 (Clone with new randomisation)",4,"DECFBGAHJI",NA,"study_2 (video_feedback and feedback_list_2)","VF_1st","Feedback Phrases List 2",53,"Task","Screen 3","izqege",2,"continue","",1766,1766,1766,1766,1766,1766,1,1766,0,0,NA,"Fixation Timing","Fixation Cross",1,"object-48",NA,1,"You came across really well.","You're very articulate.","Task",NA,NA,NA,"SUPPRF20908"
"110",110,1692006756016,"14/08/2023 09:52:36",1692010356016,1,"14/08/2023 11:52:36",140743,17,"task-qhsc",NA,31172743,NA,"complete",NA,"64da000bb77c30175cda1703","computer","Desktop or Laptop","Mac OS 10.15.7","Safari 16.6","810x1080","1080x707",NA,NA,0,"Feedback Phrases Task - List 2 (Clone with new randomisation)",4,"DECFBGAHJI",NA,"study_2 (video_feedback and feedback_list_2)","VF_1st","Feedback Phrases List 2",54,"Task","Screen 1","113qg5",1,"response","You're very articulate.",1200,1183,1200,1200,1183,1200,1,1200,0,0,NA,"Click Response","Text_left_X1",2,"object-18",NA,1,"You're very articulate.","That was satisfactory.","Task",NA,NA,NA,"SUPPRF20908"
"111",111,1692006757758,"14/08/2023 09:52:37",1692010357758,1,"14/08/2023 11:52:37",140743,17,"task-qhsc",NA,31172743,NA,"complete",NA,"64da000bb77c30175cda1703","computer","Desktop or Laptop","Mac OS 10.15.7","Safari 16.6","810x1080","1080x707",NA,NA,0,"Feedback Phrases Task - List 2 (Clone with new randomisation)",4,"DECFBGAHJI",NA,"study_2 (video_feedback and feedback_list_2)","VF_1st","Feedback Phrases List 2",54,"Task","Screen 3","izqege",2,"continue","",1766,1766,1766,1766,1766,1766,1,1766,0,0,NA,"Fixation Timing","Fixation Cross",1,"object-48",NA,1,"You're very articulate.","That was satisfactory.","Task",NA,NA,NA,"SUPPRF20908"
"112",112,1692006760181,"14/08/2023 09:52:40",1692010360181,1,"14/08/2023 11:52:40",140743,17,"task-qhsc",NA,31172743,NA,"complete",NA,"64da000bb77c30175cda1703","computer","Desktop or Laptop","Mac OS 10.15.7","Safari 16.6","810x1080","1080x707",NA,NA,0,"Feedback Phrases Task - List 2 (Clone with new randomisation)",4,"DECFBGAHJI",NA,"study_2 (video_feedback and feedback_list_2)","VF_1st","Feedback Phrases List 2",55,"Task","Screen 1","113qg5",1,"response","Well done!",2415,2399,2415,2415,2399,2415,1,2415,0,0,NA,"Click Response","Text_left_X1",2,"object-18",NA,1,"Well done!","You did what was asked of you.","Task",NA,NA,NA,"SUPPRF20908"
"113",113,1692006761939,"14/08/2023 09:52:41",1692010361939,1,"14/08/2023 11:52:41",140743,17,"task-qhsc",NA,31172743,NA,"complete",NA,"64da000bb77c30175cda1703","computer","Desktop or Laptop","Mac OS 10.15.7","Safari 16.6","810x1080","1080x707",NA,NA,0,"Feedback Phrases Task - List 2 (Clone with new randomisation)",4,"DECFBGAHJI",NA,"study_2 (video_feedback and feedback_list_2)","VF_1st","Feedback Phrases List 2",55,"Task","Screen 3","izqege",2,"continue","",1766,1766,1766,1766,1766,1766,1,1766,0,0,NA,"Fixation Timing","Fixation Cross",1,"object-48",NA,1,"Well done!","You did what was asked of you.","Task",NA,NA,NA,"SUPPRF20908"
"114",114,1692006763231,"14/08/2023 09:52:43",1692010363231,1,"14/08/2023 11:52:43",140743,17,"task-qhsc",NA,31172743,NA,"complete",NA,"64da000bb77c30175cda1703","computer","Desktop or Laptop","Mac OS 10.15.7","Safari 16.6","810x1080","1080x707",NA,NA,0,"Feedback Phrases Task - List 2 (Clone with new randomisation)",4,"DECFBGAHJI",NA,"study_2 (video_feedback and feedback_list_2)","VF_1st","Feedback Phrases List 2",56,"Task","Screen 1","113qg5",1,"response","Excellent!",1300,1283,1300,1300,1283,1300,1,1300,0,0,NA,"Click Response","Text_left_X1",2,"object-18",NA,1,"Excellent!","You came across really well.","Task",NA,NA,NA,"SUPPRF20908"
"115",115,1692006764973,"14/08/2023 09:52:44",1692010364973,1,"14/08/2023 11:52:44",140743,17,"task-qhsc",NA,31172743,NA,"complete",NA,"64da000bb77c30175cda1703","computer","Desktop or Laptop","Mac OS 10.15.7","Safari 16.6","810x1080","1080x707",NA,NA,0,"Feedback Phrases Task - List 2 (Clone with new randomisation)",4,"DECFBGAHJI",NA,"study_2 (video_feedback and feedback_list_2)","VF_1st","Feedback Phrases List 2",56,"Task","Screen 3","izqege",2,"continue","",1766,1766,1766,1766,1766,1766,1,1766,0,0,NA,"Fixation Timing","Fixation Cross",1,"object-48",NA,1,"Excellent!","You came across really well.","Task",NA,NA,NA,"SUPPRF20908"
"116",116,1692006767345,"14/08/2023 09:52:47",1692010367345,1,"14/08/2023 11:52:47",140743,17,"task-qhsc",NA,31172743,NA,"complete",NA,"64da000bb77c30175cda1703","computer","Desktop or Laptop","Mac OS 10.15.7","Safari 16.6","810x1080","1080x707",NA,NA,0,"Feedback Phrases Task - List 2 (Clone with new randomisation)",4,"DECFBGAHJI",NA,"study_2 (video_feedback and feedback_list_2)","VF_1st","Feedback Phrases List 2",57,"Task","Screen 1","113qg5",1,"response","Your description was very insightful.",2365,2349,2365,2365,2349,2365,1,2365,0,0,NA,"Click Response","Text_right_X2",3,"object-19",NA,1,"Well done!","Your description was very insightful.","Task",NA,NA,NA,"SUPPRF20908"
"117",117,1692006769088,"14/08/2023 09:52:49",1692010369088,1,"14/08/2023 11:52:49",140743,17,"task-qhsc",NA,31172743,NA,"complete",NA,"64da000bb77c30175cda1703","computer","Desktop or Laptop","Mac OS 10.15.7","Safari 16.6","810x1080","1080x707",NA,NA,0,"Feedback Phrases Task - List 2 (Clone with new randomisation)",4,"DECFBGAHJI",NA,"study_2 (video_feedback and feedback_list_2)","VF_1st","Feedback Phrases List 2",57,"Task","Screen 3","izqege",2,"continue","",1766,1766,1766,1766,1766,1766,1,1766,0,0,NA,"Fixation Timing","Fixation Cross",1,"object-48",NA,1,"Well done!","Your description was very insightful.","Task",NA,NA,NA,"SUPPRF20908"
"118",118,1692006770777,"14/08/2023 09:52:50",1692010370777,1,"14/08/2023 11:52:50",140743,17,"task-qhsc",NA,31172743,NA,"complete",NA,"64da000bb77c30175cda1703","computer","Desktop or Laptop","Mac OS 10.15.7","Safari 16.6","810x1080","1080x707",NA,NA,0,"Feedback Phrases Task - List 2 (Clone with new randomisation)",4,"DECFBGAHJI",NA,"study_2 (video_feedback and feedback_list_2)","VF_1st","Feedback Phrases List 2",58,"Task","Screen 1","113qg5",1,"response","Your description was very insightful.",1684,1667,1684,1684,1667,1684,1,1684,0,0,NA,"Click Response","Text_left_X1",2,"object-18",NA,1,"Your description was very insightful.","You came across really well.","Task",NA,NA,NA,"SUPPRF20908"
"119",119,1692006772520,"14/08/2023 09:52:52",1692010372520,1,"14/08/2023 11:52:52",140743,17,"task-qhsc",NA,31172743,NA,"complete",NA,"64da000bb77c30175cda1703","computer","Desktop or Laptop","Mac OS 10.15.7","Safari 16.6","810x1080","1080x707",NA,NA,0,"Feedback Phrases Task - List 2 (Clone with new randomisation)",4,"DECFBGAHJI",NA,"study_2 (video_feedback and feedback_list_2)","VF_1st","Feedback Phrases List 2",58,"Task","Screen 3","izqege",2,"continue","",1766,1766,1766,1766,1766,1766,1,1766,0,0,NA,"Fixation Timing","Fixation Cross",1,"object-48",NA,1,"Your description was very insightful.","You came across really well.","Task",NA,NA,NA,"SUPPRF20908"
"120",120,1692006774691,"14/08/2023 09:52:54",1692010374691,1,"14/08/2023 11:52:54",140743,17,"task-qhsc",NA,31172743,NA,"complete",NA,"64da000bb77c30175cda1703","computer","Desktop or Laptop","Mac OS 10.15.7","Safari 16.6","810x1080","1080x707",NA,NA,0,"Feedback Phrases Task - List 2 (Clone with new randomisation)",4,"DECFBGAHJI",NA,"study_2 (video_feedback and feedback_list_2)","VF_1st","Feedback Phrases List 2",59,"Task","Screen 1","113qg5",1,"response","You did what was asked of you.",2166,2149,2166,2166,2149,2166,1,2166,0,0,NA,"Click Response","Text_left_X1",2,"object-18",NA,1,"You did what was asked of you.","You seemed very in-control.","Task",NA,NA,NA,"SUPPRF20908"
"121",121,1692006776435,"14/08/2023 09:52:56",1692010376435,1,"14/08/2023 11:52:56",140743,17,"task-qhsc",NA,31172743,NA,"complete",NA,"64da000bb77c30175cda1703","computer","Desktop or Laptop","Mac OS 10.15.7","Safari 16.6","810x1080","1080x707",NA,NA,0,"Feedback Phrases Task - List 2 (Clone with new randomisation)",4,"DECFBGAHJI",NA,"study_2 (video_feedback and feedback_list_2)","VF_1st","Feedback Phrases List 2",59,"Task","Screen 3","izqege",2,"continue","",1766,1766,1766,1766,1766,1766,1,1766,0,0,NA,"Fixation Timing","Fixation Cross",1,"object-48",NA,1,"You did what was asked of you.","You seemed very in-control.","Task",NA,NA,NA,"SUPPRF20908"
"122",122,1692006778024,"14/08/2023 09:52:58",1692010378024,1,"14/08/2023 11:52:58",140743,17,"task-qhsc",NA,31172743,NA,"complete",NA,"64da000bb77c30175cda1703","computer","Desktop or Laptop","Mac OS 10.15.7","Safari 16.6","810x1080","1080x707",NA,NA,0,"Feedback Phrases Task - List 2 (Clone with new randomisation)",4,"DECFBGAHJI",NA,"study_2 (video_feedback and feedback_list_2)","VF_1st","Feedback Phrases List 2",60,"Task","Screen 1","113qg5",1,"response","That was perfect.",1582,1566,1582,1582,1566,1582,1,1582,0,0,NA,"Click Response","Text_left_X1",2,"object-18",NA,1,"That was perfect.","You appear very smart.","Task",NA,NA,NA,"SUPPRF20908"
"123",123,1692006779768,"14/08/2023 09:52:59",1692010379768,1,"14/08/2023 11:52:59",140743,17,"task-qhsc",NA,31172743,NA,"complete",NA,"64da000bb77c30175cda1703","computer","Desktop or Laptop","Mac OS 10.15.7","Safari 16.6","810x1080","1080x707",NA,NA,0,"Feedback Phrases Task - List 2 (Clone with new randomisation)",4,"DECFBGAHJI",NA,"study_2 (video_feedback and feedback_list_2)","VF_1st","Feedback Phrases List 2",60,"Task","Screen 3","izqege",2,"continue","",1766,1766,1766,1766,1766,1766,1,1766,0,0,NA,"Fixation Timing","Fixation Cross",1,"object-48",NA,1,"That was perfect.","You appear very smart.","Task",NA,NA,NA,"SUPPRF20908"
"124",124,1692006782324,"14/08/2023 09:53:02",1692010382324,1,"14/08/2023 11:53:02",140743,17,"task-qhsc",NA,31172743,NA,"complete",NA,"64da000bb77c30175cda1703","computer","Desktop or Laptop","Mac OS 10.15.7","Safari 16.6","810x1080","1080x707",NA,NA,0,"Feedback Phrases Task - List 2 (Clone with new randomisation)",4,"DECFBGAHJI",NA,"study_2 (video_feedback and feedback_list_2)","VF_1st","Feedback Phrases List 2",61,"Task","Screen 1","113qg5",1,"response","You appeared very confident.",2550,2533,2550,2550,2533,2550,1,2550,0,0,NA,"Click Response","Text_right_X2",3,"object-19",NA,1,"You're very articulate.","You appeared very confident.","Task",NA,NA,NA,"SUPPRF20908"
"125",125,1692006784066,"14/08/2023 09:53:04",1692010384066,1,"14/08/2023 11:53:04",140743,17,"task-qhsc",NA,31172743,NA,"complete",NA,"64da000bb77c30175cda1703","computer","Desktop or Laptop","Mac OS 10.15.7","Safari 16.6","810x1080","1080x707",NA,NA,0,"Feedback Phrases Task - List 2 (Clone with new randomisation)",4,"DECFBGAHJI",NA,"study_2 (video_feedback and feedback_list_2)","VF_1st","Feedback Phrases List 2",61,"Task","Screen 3","izqege",2,"continue","",1766,1766,1766,1766,1766,1766,1,1766,0,0,NA,"Fixation Timing","Fixation Cross",1,"object-48",NA,1,"You're very articulate.","You appeared very confident.","Task",NA,NA,NA,"SUPPRF20908"
"126",126,1692006786297,"14/08/2023 09:53:06",1692010386297,1,"14/08/2023 11:53:06",140743,17,"task-qhsc",NA,31172743,NA,"complete",NA,"64da000bb77c30175cda1703","computer","Desktop or Laptop","Mac OS 10.15.7","Safari 16.6","810x1080","1080x707",NA,NA,0,"Feedback Phrases Task - List 2 (Clone with new randomisation)",4,"DECFBGAHJI",NA,"study_2 (video_feedback and feedback_list_2)","VF_1st","Feedback Phrases List 2",62,"Task","Screen 1","113qg5",1,"response","You're very articulate.",2231,2216,2231,2231,2216,2231,1,2231,0,0,NA,"Click Response","Text_left_X1",2,"object-18",NA,1,"You're very articulate.","Well done!","Task",NA,NA,NA,"SUPPRF20908"
"127",127,1692006788051,"14/08/2023 09:53:08",1692010388051,1,"14/08/2023 11:53:08",140743,17,"task-qhsc",NA,31172743,NA,"complete",NA,"64da000bb77c30175cda1703","computer","Desktop or Laptop","Mac OS 10.15.7","Safari 16.6","810x1080","1080x707",NA,NA,0,"Feedback Phrases Task - List 2 (Clone with new randomisation)",4,"DECFBGAHJI",NA,"study_2 (video_feedback and feedback_list_2)","VF_1st","Feedback Phrases List 2",62,"Task","Screen 3","izqege",2,"continue","",1766,1766,1766,1766,1766,1766,1,1766,0,0,NA,"Fixation Timing","Fixation Cross",1,"object-48",NA,1,"You're very articulate.","Well done!","Task",NA,NA,NA,"SUPPRF20908"
"128",128,1692006790287,"14/08/2023 09:53:10",1692010390287,1,"14/08/2023 11:53:10",140743,17,"task-qhsc",NA,31172743,NA,"complete",NA,"64da000bb77c30175cda1703","computer","Desktop or Laptop","Mac OS 10.15.7","Safari 16.6","810x1080","1080x707",NA,NA,0,"Feedback Phrases Task - List 2 (Clone with new randomisation)",4,"DECFBGAHJI",NA,"study_2 (video_feedback and feedback_list_2)","VF_1st","Feedback Phrases List 2",63,"Task","Screen 1","113qg5",1,"response","You came across really well.",2233,2216,2233,2233,2216,2233,1,2233,0,0,NA,"Click Response","Text_right_X2",3,"object-19",NA,1,"That was satisfactory.","You came across really well.","Task",NA,NA,NA,"SUPPRF20908"
"129",129,1692006792030,"14/08/2023 09:53:12",1692010392030,1,"14/08/2023 11:53:12",140743,17,"task-qhsc",NA,31172743,NA,"complete",NA,"64da000bb77c30175cda1703","computer","Desktop or Laptop","Mac OS 10.15.7","Safari 16.6","810x1080","1080x707",NA,NA,0,"Feedback Phrases Task - List 2 (Clone with new randomisation)",4,"DECFBGAHJI",NA,"study_2 (video_feedback and feedback_list_2)","VF_1st","Feedback Phrases List 2",63,"Task","Screen 3","izqege",2,"continue","",1766,1766,1766,1766,1766,1766,1,1766,0,0,NA,"Fixation Timing","Fixation Cross",1,"object-48",NA,1,"That was satisfactory.","You came across really well.","Task",NA,NA,NA,"SUPPRF20908"
"130",130,1692006793252,"14/08/2023 09:53:13",1692010393252,1,"14/08/2023 11:53:13",140743,17,"task-qhsc",NA,31172743,NA,"complete",NA,"64da000bb77c30175cda1703","computer","Desktop or Laptop","Mac OS 10.15.7","Safari 16.6","810x1080","1080x707",NA,NA,0,"Feedback Phrases Task - List 2 (Clone with new randomisation)",4,"DECFBGAHJI",NA,"study_2 (video_feedback and feedback_list_2)","VF_1st","Feedback Phrases List 2",64,"Task","Screen 1","113qg5",1,"response","That was perfect.",1217,1200,1217,1217,1200,1217,1,1217,0,0,NA,"Click Response","Text_left_X1",2,"object-18",NA,1,"That was perfect.","You did what was asked of you.","Task",NA,NA,NA,"SUPPRF20908"
"131",131,1692006794995,"14/08/2023 09:53:14",1692010394995,1,"14/08/2023 11:53:14",140743,17,"task-qhsc",NA,31172743,NA,"complete",NA,"64da000bb77c30175cda1703","computer","Desktop or Laptop","Mac OS 10.15.7","Safari 16.6","810x1080","1080x707",NA,NA,0,"Feedback Phrases Task - List 2 (Clone with new randomisation)",4,"DECFBGAHJI",NA,"study_2 (video_feedback and feedback_list_2)","VF_1st","Feedback Phrases List 2",64,"Task","Screen 3","izqege",2,"continue","",1766,1766,1766,1766,1766,1766,1,1766,0,0,NA,"Fixation Timing","Fixation Cross",1,"object-48",NA,1,"That was perfect.","You did what was asked of you.","Task",NA,NA,NA,"SUPPRF20908"
"132",132,1692006797735,"14/08/2023 09:53:17",1692010397735,1,"14/08/2023 11:53:17",140743,17,"task-qhsc",NA,31172743,NA,"complete",NA,"64da000bb77c30175cda1703","computer","Desktop or Laptop","Mac OS 10.15.7","Safari 16.6","810x1080","1080x707",NA,NA,0,"Feedback Phrases Task - List 2 (Clone with new randomisation)",4,"DECFBGAHJI",NA,"study_2 (video_feedback and feedback_list_2)","VF_1st","Feedback Phrases List 2",65,"Task","Screen 1","113qg5",1,"response","Well done!",2733,2716,2733,2733,2716,2733,1,2733,0,0,NA,"Click Response","Text_right_X2",3,"object-19",NA,1,"You are really engaging when you speak.","Well done!","Task",NA,NA,NA,"SUPPRF20908"
"133",133,1692006799477,"14/08/2023 09:53:19",1692010399477,1,"14/08/2023 11:53:19",140743,17,"task-qhsc",NA,31172743,NA,"complete",NA,"64da000bb77c30175cda1703","computer","Desktop or Laptop","Mac OS 10.15.7","Safari 16.6","810x1080","1080x707",NA,NA,0,"Feedback Phrases Task - List 2 (Clone with new randomisation)",4,"DECFBGAHJI",NA,"study_2 (video_feedback and feedback_list_2)","VF_1st","Feedback Phrases List 2",65,"Task","Screen 3","izqege",2,"continue","",1765,1765,1765,1765,1765,1765,1,1765,0,0,NA,"Fixation Timing","Fixation Cross",1,"object-48",NA,1,"You are really engaging when you speak.","Well done!","Task",NA,NA,NA,"SUPPRF20908"
"134",134,1692006800916,"14/08/2023 09:53:20",1692010400916,1,"14/08/2023 11:53:20",140743,17,"task-qhsc",NA,31172743,NA,"complete",NA,"64da000bb77c30175cda1703","computer","Desktop or Laptop","Mac OS 10.15.7","Safari 16.6","810x1080","1080x707",NA,NA,0,"Feedback Phrases Task - List 2 (Clone with new randomisation)",4,"DECFBGAHJI",NA,"study_2 (video_feedback and feedback_list_2)","VF_1st","Feedback Phrases List 2",66,"Task","Screen 1","113qg5",1,"response","You came across really well.",1434,1417,1434,1434,1417,1434,1,1434,0,0,NA,"Click Response","Text_right_X2",3,"object-19",NA,1,"That was decent.","You came across really well.","Task",NA,NA,NA,"SUPPRF20908"
"135",135,1692006802660,"14/08/2023 09:53:22",1692010402660,1,"14/08/2023 11:53:22",140743,17,"task-qhsc",NA,31172743,NA,"complete",NA,"64da000bb77c30175cda1703","computer","Desktop or Laptop","Mac OS 10.15.7","Safari 16.6","810x1080","1080x707",NA,NA,0,"Feedback Phrases Task - List 2 (Clone with new randomisation)",4,"DECFBGAHJI",NA,"study_2 (video_feedback and feedback_list_2)","VF_1st","Feedback Phrases List 2",66,"Task","Screen 3","izqege",2,"continue","",1766,1766,1766,1766,1766,1766,1,1766,0,0,NA,"Fixation Timing","Fixation Cross",1,"object-48",NA,1,"That was decent.","You came across really well.","Task",NA,NA,NA,"SUPPRF20908"
"136",136,1692006804848,"14/08/2023 09:53:24",1692010404848,1,"14/08/2023 11:53:24",140743,17,"task-qhsc",NA,31172743,NA,"complete",NA,"64da000bb77c30175cda1703","computer","Desktop or Laptop","Mac OS 10.15.7","Safari 16.6","810x1080","1080x707",NA,NA,0,"Feedback Phrases Task - List 2 (Clone with new randomisation)",4,"DECFBGAHJI",NA,"study_2 (video_feedback and feedback_list_2)","VF_1st","Feedback Phrases List 2",67,"Task","Screen 1","113qg5",1,"response","Your description was very insightful.",2183,2166,2183,2183,2166,2183,1,2183,0,0,NA,"Click Response","Text_left_X1",2,"object-18",NA,1,"Your description was very insightful.","That was satisfactory.","Task",NA,NA,NA,"SUPPRF20908"
"137",137,1692006806592,"14/08/2023 09:53:26",1692010406592,1,"14/08/2023 11:53:26",140743,17,"task-qhsc",NA,31172743,NA,"complete",NA,"64da000bb77c30175cda1703","computer","Desktop or Laptop","Mac OS 10.15.7","Safari 16.6","810x1080","1080x707",NA,NA,0,"Feedback Phrases Task - List 2 (Clone with new randomisation)",4,"DECFBGAHJI",NA,"study_2 (video_feedback and feedback_list_2)","VF_1st","Feedback Phrases List 2",67,"Task","Screen 3","izqege",2,"continue","",1766,1766,1766,1766,1766,1766,1,1766,0,0,NA,"Fixation Timing","Fixation Cross",1,"object-48",NA,1,"Your description was very insightful.","That was satisfactory.","Task",NA,NA,NA,"SUPPRF20908"
"138",138,1692006809564,"14/08/2023 09:53:29",1692010409564,1,"14/08/2023 11:53:29",140743,17,"task-qhsc",NA,31172743,NA,"complete",NA,"64da000bb77c30175cda1703","computer","Desktop or Laptop","Mac OS 10.15.7","Safari 16.6","810x1080","1080x707",NA,NA,0,"Feedback Phrases Task - List 2 (Clone with new randomisation)",4,"DECFBGAHJI",NA,"study_2 (video_feedback and feedback_list_2)","VF_1st","Feedback Phrases List 2",68,"Task","Screen 1","113qg5",1,"response","You said all the right things.",2966,2949,2966,2966,2949,2966,1,2966,0,0,NA,"Click Response","Text_left_X1",2,"object-18",NA,1,"You said all the right things.","Your description was very insightful.","Task",NA,NA,NA,"SUPPRF20908"
"139",139,1692006811306,"14/08/2023 09:53:31",1692010411306,1,"14/08/2023 11:53:31",140743,17,"task-qhsc",NA,31172743,NA,"complete",NA,"64da000bb77c30175cda1703","computer","Desktop or Laptop","Mac OS 10.15.7","Safari 16.6","810x1080","1080x707",NA,NA,0,"Feedback Phrases Task - List 2 (Clone with new randomisation)",4,"DECFBGAHJI",NA,"study_2 (video_feedback and feedback_list_2)","VF_1st","Feedback Phrases List 2",68,"Task","Screen 3","izqege",2,"continue","",1766,1766,1766,1766,1766,1766,1,1766,0,0,NA,"Fixation Timing","Fixation Cross",1,"object-48",NA,1,"You said all the right things.","Your description was very insightful.","Task",NA,NA,NA,"SUPPRF20908"
"140",140,1692006813062,"14/08/2023 09:53:33",1692010413062,1,"14/08/2023 11:53:33",140743,17,"task-qhsc",NA,31172743,NA,"complete",NA,"64da000bb77c30175cda1703","computer","Desktop or Laptop","Mac OS 10.15.7","Safari 16.6","810x1080","1080x707",NA,NA,0,"Feedback Phrases Task - List 2 (Clone with new randomisation)",4,"DECFBGAHJI",NA,"study_2 (video_feedback and feedback_list_2)","VF_1st","Feedback Phrases List 2",69,"Task","Screen 1","113qg5",1,"response","I could easily picture what you were describing.",1750,1733,1750,1750,1733,1750,1,1750,0,0,NA,"Click Response","Text_left_X1",2,"object-18",NA,1,"I could easily picture what you were describing.","You seemed very in-control.","Task",NA,NA,NA,"SUPPRF20908"
"141",141,1692006814806,"14/08/2023 09:53:34",1692010414806,1,"14/08/2023 11:53:34",140743,17,"task-qhsc",NA,31172743,NA,"complete",NA,"64da000bb77c30175cda1703","computer","Desktop or Laptop","Mac OS 10.15.7","Safari 16.6","810x1080","1080x707",NA,NA,0,"Feedback Phrases Task - List 2 (Clone with new randomisation)",4,"DECFBGAHJI",NA,"study_2 (video_feedback and feedback_list_2)","VF_1st","Feedback Phrases List 2",69,"Task","Screen 3","izqege",2,"continue","",1766,1766,1766,1766,1766,1766,1,1766,0,0,NA,"Fixation Timing","Fixation Cross",1,"object-48",NA,1,"I could easily picture what you were describing.","You seemed very in-control.","Task",NA,NA,NA,"SUPPRF20908"
"142",142,1692006816096,"14/08/2023 09:53:36",1692010416096,1,"14/08/2023 11:53:36",140743,17,"task-qhsc",NA,31172743,NA,"complete",NA,"64da000bb77c30175cda1703","computer","Desktop or Laptop","Mac OS 10.15.7","Safari 16.6","810x1080","1080x707",NA,NA,0,"Feedback Phrases Task - List 2 (Clone with new randomisation)",4,"DECFBGAHJI",NA,"study_2 (video_feedback and feedback_list_2)","VF_1st","Feedback Phrases List 2",70,"Task","Screen 1","113qg5",1,"response","That was perfect.",1282,1266,1282,1282,1266,1282,1,1282,0,0,NA,"Click Response","Text_right_X2",3,"object-19",NA,1,"Your description was very insightful.","That was perfect.","Task",NA,NA,NA,"SUPPRF20908"
"143",143,1692006817838,"14/08/2023 09:53:37",1692010417838,1,"14/08/2023 11:53:37",140743,17,"task-qhsc",NA,31172743,NA,"complete",NA,"64da000bb77c30175cda1703","computer","Desktop or Laptop","Mac OS 10.15.7","Safari 16.6","810x1080","1080x707",NA,NA,0,"Feedback Phrases Task - List 2 (Clone with new randomisation)",4,"DECFBGAHJI",NA,"study_2 (video_feedback and feedback_list_2)","VF_1st","Feedback Phrases List 2",70,"Task","Screen 3","izqege",2,"continue","",1766,1766,1766,1766,1766,1766,1,1766,0,0,NA,"Fixation Timing","Fixation Cross",1,"object-48",NA,1,"Your description was very insightful.","That was perfect.","Task",NA,NA,NA,"SUPPRF20908"
"144",144,1692006820060,"14/08/2023 09:53:40",1692010420060,1,"14/08/2023 11:53:40",140743,17,"task-qhsc",NA,31172743,NA,"complete",NA,"64da000bb77c30175cda1703","computer","Desktop or Laptop","Mac OS 10.15.7","Safari 16.6","810x1080","1080x707",NA,NA,0,"Feedback Phrases Task - List 2 (Clone with new randomisation)",4,"DECFBGAHJI",NA,"study_2 (video_feedback and feedback_list_2)","VF_1st","Feedback Phrases List 2",71,"Task","Screen 1","113qg5",1,"response","That was perfect.",2217,2200,2217,2217,2200,2217,1,2217,0,0,NA,"Click Response","Text_left_X1",2,"object-18",NA,1,"That was perfect.","That was decent.","Task",NA,NA,NA,"SUPPRF20908"
"145",145,1692006821803,"14/08/2023 09:53:41",1692010421803,1,"14/08/2023 11:53:41",140743,17,"task-qhsc",NA,31172743,NA,"complete",NA,"64da000bb77c30175cda1703","computer","Desktop or Laptop","Mac OS 10.15.7","Safari 16.6","810x1080","1080x707",NA,NA,0,"Feedback Phrases Task - List 2 (Clone with new randomisation)",4,"DECFBGAHJI",NA,"study_2 (video_feedback and feedback_list_2)","VF_1st","Feedback Phrases List 2",71,"Task","Screen 3","izqege",2,"continue","",1766,1766,1766,1766,1766,1766,1,1766,0,0,NA,"Fixation Timing","Fixation Cross",1,"object-48",NA,1,"That was perfect.","That was decent.","Task",NA,NA,NA,"SUPPRF20908"
"146",146,1692006822809,"14/08/2023 09:53:42",1692010422809,1,"14/08/2023 11:53:42",140743,17,"task-qhsc",NA,31172743,NA,"complete",NA,"64da000bb77c30175cda1703","computer","Desktop or Laptop","Mac OS 10.15.7","Safari 16.6","810x1080","1080x707",NA,NA,0,"Feedback Phrases Task - List 2 (Clone with new randomisation)",4,"DECFBGAHJI",NA,"study_2 (video_feedback and feedback_list_2)","VF_1st","Feedback Phrases List 2",72,"Task","Screen 1","113qg5",1,"response","That was perfect.",1000,983,1000,1000,983,1000,1,1000,0,0,NA,"Click Response","Text_left_X1",2,"object-18",NA,1,"That was perfect.","You seemed very in-control.","Task",NA,NA,NA,"SUPPRF20908"
"147",147,1692006824552,"14/08/2023 09:53:44",1692010424552,1,"14/08/2023 11:53:44",140743,17,"task-qhsc",NA,31172743,NA,"complete",NA,"64da000bb77c30175cda1703","computer","Desktop or Laptop","Mac OS 10.15.7","Safari 16.6","810x1080","1080x707",NA,NA,0,"Feedback Phrases Task - List 2 (Clone with new randomisation)",4,"DECFBGAHJI",NA,"study_2 (video_feedback and feedback_list_2)","VF_1st","Feedback Phrases List 2",72,"Task","Screen 3","izqege",2,"continue","",1766,1766,1766,1766,1766,1766,1,1766,0,0,NA,"Fixation Timing","Fixation Cross",1,"object-48",NA,1,"That was perfect.","You seemed very in-control.","Task",NA,NA,NA,"SUPPRF20908"
"148",148,1692006825608,"14/08/2023 09:53:45",1692010425608,1,"14/08/2023 11:53:45",140743,17,"task-qhsc",NA,31172743,NA,"complete",NA,"64da000bb77c30175cda1703","computer","Desktop or Laptop","Mac OS 10.15.7","Safari 16.6","810x1080","1080x707",NA,NA,0,"Feedback Phrases Task - List 2 (Clone with new randomisation)",4,"DECFBGAHJI",NA,"study_2 (video_feedback and feedback_list_2)","VF_1st","Feedback Phrases List 2",73,"Task","Screen 1","113qg5",1,"response","That was perfect.",1050,1033,1050,1050,1033,1050,1,1050,0,0,NA,"Click Response","Text_right_X2",3,"object-19",NA,1,"You came across really well.","That was perfect.","Task",NA,NA,NA,"SUPPRF20908"
"149",149,1692006827351,"14/08/2023 09:53:47",1692010427351,1,"14/08/2023 11:53:47",140743,17,"task-qhsc",NA,31172743,NA,"complete",NA,"64da000bb77c30175cda1703","computer","Desktop or Laptop","Mac OS 10.15.7","Safari 16.6","810x1080","1080x707",NA,NA,0,"Feedback Phrases Task - List 2 (Clone with new randomisation)",4,"DECFBGAHJI",NA,"study_2 (video_feedback and feedback_list_2)","VF_1st","Feedback Phrases List 2",73,"Task","Screen 3","izqege",2,"continue","",1766,1766,1766,1766,1766,1766,1,1766,0,0,NA,"Fixation Timing","Fixation Cross",1,"object-48",NA,1,"You came across really well.","That was perfect.","Task",NA,NA,NA,"SUPPRF20908"
