"Event.Index","UTC.Timestamp","UTC.Date.and.Time","Local.Timestamp","Local.Timezone","Local.Date.and.Time","Experiment.ID","Experiment.Version","Tree.Node.Key","Repeat.Key","Schedule.ID","Participant.Private.ID","Participant.Starting.Group","Participant.Status","Participant.Completion.Code","Participant.External.Session.ID","Participant.Device.Type","Participant.Device","Participant.OS","Participant.Browser","Participant.Monitor.Size","Participant.Viewport.Size","Checkpoint","Room.ID","Room.Order","Task.Name","Task.Version","order.ot79","branch.g31k","branch.5gtn","Spreadsheet","Trial.Number","Display","Screen","Screen.ID","Screen.Counter","Response.Type","Response","Onset.Time","Clock.Time","Reaction.Time","Absolute.Onset.Time","Absolute.Clock.Time","Absolute.Reaction.Time","Correct","Response.Onset","Response.Duration","Proportion","Tag","Component.Name","Object.Name","Object.Number","Object.ID","Spreadsheet..display","Manipulation..Spreadsheet","Random_ID"
"1",1695825856903,"27/09/2023 14:44:16",1695807856903,-5,"27/09/2023 04:44:16",144636,4,"task-gjqt",NA,31896461,9431952,NA,"complete","dbvzfr","3HPZF4IVNSSVAULK2L07DSO1FRXYC3","computer","Desktop or Laptop","Windows 10","Chrome 116.0.0.0","1364x768","1346x602",NA,NA,0,"BIQ (Charlotte)",3,"DECFBGAHJI","Passed AC2","","Spreadsheet1",NA,"","","",NA,"5","BEGIN",NA,NA,NA,NA,NA,NA,0,NA,NA,NA,NA,"","",NA,"","",NA,"SUPAMT13097"
"2",1695825863301,"27/09/2023 14:44:23",1695807863301,-5,"27/09/2023 04:44:23",144636,4,"task-gjqt",NA,31896461,9431952,NA,"complete","dbvzfr","3HPZF4IVNSSVAULK2L07DSO1FRXYC3","computer","Desktop or Laptop","Windows 10","Chrome 116.0.0.0","1364x768","1346x602",NA,NA,0,"BIQ (Charlotte)",3,"DECFBGAHJI","Passed AC2","","Spreadsheet1",1,"BIQ","Screen 1","9dh6eq",1,"continue","",6343.75,6312.5,6343.75,6343.75,6312.5,6343.75,1,6343.75,0,0,NA,"Click To Continue","Continue Button",23,"object-48","BIQ",NA,"SUPAMT13097"
"3",1695825863302,"27/09/2023 14:44:23",1695807863302,-5,"27/09/2023 04:44:23",144636,4,"task-gjqt",NA,31896461,9431952,NA,"complete","dbvzfr","3HPZF4IVNSSVAULK2L07DSO1FRXYC3","computer","Desktop or Laptop","Windows 10","Chrome 116.0.0.0","1364x768","1346x602",NA,NA,0,"BIQ (Charlotte)",3,"DECFBGAHJI","Passed AC2","","Spreadsheet1",1,"BIQ","Screen 1","9dh6eq",1,"response","2",2625,6312.5,6343.75,2625,6312.5,6343.75,1,2625,3718.75,0,NA,"Rating Scale","Rating Scale",3,"object-5","BIQ",NA,"SUPAMT13097"
"4",1695825863304,"27/09/2023 14:44:23",1695807863304,-5,"27/09/2023 04:44:23",144636,4,"task-gjqt",NA,31896461,9431952,NA,"complete","dbvzfr","3HPZF4IVNSSVAULK2L07DSO1FRXYC3","computer","Desktop or Laptop","Windows 10","Chrome 116.0.0.0","1364x768","1346x602",NA,NA,0,"BIQ (Charlotte)",3,"DECFBGAHJI","Passed AC2","","Spreadsheet1",1,"BIQ","Screen 1","9dh6eq",1,"response","1",3406.25,6312.5,6343.75,3406.25,6312.5,6343.75,1,3406.25,2937.5,0,NA,"Rating Scale","Rating Scale",10,"object-18","BIQ",NA,"SUPAMT13097"
"5",1695825863304,"27/09/2023 14:44:23",1695807863304,-5,"27/09/2023 04:44:23",144636,4,"task-gjqt",NA,31896461,9431952,NA,"complete","dbvzfr","3HPZF4IVNSSVAULK2L07DSO1FRXYC3","computer","Desktop or Laptop","Windows 10","Chrome 116.0.0.0","1364x768","1346x602",NA,NA,0,"BIQ (Charlotte)",3,"DECFBGAHJI","Passed AC2","","Spreadsheet1",1,"BIQ","Screen 1","9dh6eq",1,"response","2",4000,6312.5,6343.75,4000,6312.5,6343.75,1,4000,2343.75,0,NA,"Rating Scale","Rating Scale",17,"object-80","BIQ",NA,"SUPAMT13097"
"6",1695825866680,"27/09/2023 14:44:26",1695807866680,-5,"27/09/2023 04:44:26",144636,4,"task-gjqt",NA,31896461,9431952,NA,"complete","dbvzfr","3HPZF4IVNSSVAULK2L07DSO1FRXYC3","computer","Desktop or Laptop","Windows 10","Chrome 116.0.0.0","1364x768","1346x602",NA,NA,0,"BIQ (Charlotte)",3,"DECFBGAHJI","Passed AC2","","Spreadsheet1",1,"BIQ","Screen 2","o21mwi",2,"continue","",3487.25,3468.75,3487.25,3487.25,3468.75,3487.25,1,3487.25,0,0,NA,"Click To Continue","Continue Button",22,"object-50","BIQ",NA,"SUPAMT13097"
"7",1695825866680,"27/09/2023 14:44:26",1695807866680,-5,"27/09/2023 04:44:26",144636,4,"task-gjqt",NA,31896461,9431952,NA,"complete","dbvzfr","3HPZF4IVNSSVAULK2L07DSO1FRXYC3","computer","Desktop or Laptop","Windows 10","Chrome 116.0.0.0","1364x768","1346x602",NA,NA,0,"BIQ (Charlotte)",3,"DECFBGAHJI","Passed AC2","","Spreadsheet1",1,"BIQ","Screen 2","o21mwi",2,"response","1",1687.5,3468.75,3487.25,1687.5,3468.75,3487.25,1,1687.5,1799.75,0,NA,"Rating Scale","Rating Scale",2,"object-259","BIQ",NA,"SUPAMT13097"
"8",1695825866681,"27/09/2023 14:44:26",1695807866681,-5,"27/09/2023 04:44:26",144636,4,"task-gjqt",NA,31896461,9431952,NA,"complete","dbvzfr","3HPZF4IVNSSVAULK2L07DSO1FRXYC3","computer","Desktop or Laptop","Windows 10","Chrome 116.0.0.0","1364x768","1346x602",NA,NA,0,"BIQ (Charlotte)",3,"DECFBGAHJI","Passed AC2","","Spreadsheet1",1,"BIQ","Screen 2","o21mwi",2,"response","2",2343.75,3468.75,3488.25,2343.75,3468.75,3488.25,1,2343.75,1144.5,0,NA,"Rating Scale","Rating Scale",9,"object-36","BIQ",NA,"SUPAMT13097"
"9",1695825866681,"27/09/2023 14:44:26",1695807866681,-5,"27/09/2023 04:44:26",144636,4,"task-gjqt",NA,31896461,9431952,NA,"complete","dbvzfr","3HPZF4IVNSSVAULK2L07DSO1FRXYC3","computer","Desktop or Laptop","Windows 10","Chrome 116.0.0.0","1364x768","1346x602",NA,NA,0,"BIQ (Charlotte)",3,"DECFBGAHJI","Passed AC2","","Spreadsheet1",1,"BIQ","Screen 2","o21mwi",2,"response","2",3125,3468.75,3488.25,3125,3468.75,3488.25,1,3125,363.25,0,NA,"Rating Scale","Rating Scale",16,"object-86","BIQ",NA,"SUPAMT13097"
"10",1695825924402,"27/09/2023 14:45:24",1695807924402,-5,"27/09/2023 04:45:24",144636,4,"task-gjqt",NA,31896461,9431952,NA,"complete","dbvzfr","3HPZF4IVNSSVAULK2L07DSO1FRXYC3","computer","Desktop or Laptop","Windows 10","Chrome 116.0.0.0","1364x768","1346x602",NA,NA,0,"BIQ (Charlotte)",3,"DECFBGAHJI","Passed AC2","","Spreadsheet1",1,"BIQ","Screen 3","iz3the",3,"continue","",57739.5,57718.75,57739.5,57739.5,57718.75,57739.5,1,57739.5,0,0,NA,"Click To Continue","Continue Button",22,"object-73","BIQ",NA,"SUPAMT13097"
"11",1695825924407,"27/09/2023 14:45:24",1695807924407,-5,"27/09/2023 04:45:24",144636,4,"task-gjqt",NA,31896461,9431952,NA,"complete","dbvzfr","3HPZF4IVNSSVAULK2L07DSO1FRXYC3","computer","Desktop or Laptop","Windows 10","Chrome 116.0.0.0","1364x768","1346x602",NA,NA,0,"BIQ (Charlotte)",3,"DECFBGAHJI","Passed AC2","","Spreadsheet1",1,"BIQ","Screen 3","iz3the",3,"response","1",53187.5,57718.75,57744.5,53187.5,57718.75,57744.5,1,53187.5,4557,0,NA,"Rating Scale","Rating Scale",2,"object-53","BIQ",NA,"SUPAMT13097"
"12",1695825924407,"27/09/2023 14:45:24",1695807924407,-5,"27/09/2023 04:45:24",144636,4,"task-gjqt",NA,31896461,9431952,NA,"complete","dbvzfr","3HPZF4IVNSSVAULK2L07DSO1FRXYC3","computer","Desktop or Laptop","Windows 10","Chrome 116.0.0.0","1364x768","1346x602",NA,NA,0,"BIQ (Charlotte)",3,"DECFBGAHJI","Passed AC2","","Spreadsheet1",1,"BIQ","Screen 3","iz3the",3,"response","2",53875,57718.75,57745.5,53875,57718.75,57745.5,1,53875,3870.5,0,NA,"Rating Scale","Rating Scale",9,"object-60","BIQ",NA,"SUPAMT13097"
"13",1695825924407,"27/09/2023 14:45:24",1695807924407,-5,"27/09/2023 04:45:24",144636,4,"task-gjqt",NA,31896461,9431952,NA,"complete","dbvzfr","3HPZF4IVNSSVAULK2L07DSO1FRXYC3","computer","Desktop or Laptop","Windows 10","Chrome 116.0.0.0","1364x768","1346x602",NA,NA,0,"BIQ (Charlotte)",3,"DECFBGAHJI","Passed AC2","","Spreadsheet1",1,"BIQ","Screen 3","iz3the",3,"response","2",54531.25,57718.75,57745.5,54531.25,57718.75,57745.5,1,54531.25,3214.25,0,NA,"Rating Scale","Rating Scale",16,"object-67","BIQ",NA,"SUPAMT13097"
"14",1695825924409,"27/09/2023 14:45:24",1695807924409,-5,"27/09/2023 04:45:24",144636,4,"task-gjqt",NA,31896461,9431952,NA,"complete","dbvzfr","3HPZF4IVNSSVAULK2L07DSO1FRXYC3","computer","Desktop or Laptop","Windows 10","Chrome 116.0.0.0","1364x768","1346x602",NA,NA,0,"BIQ (Charlotte)",3,"DECFBGAHJI","Passed AC2","","Spreadsheet1",NA,"","","",NA,"5","END",NA,NA,NA,NA,NA,NA,0,NA,NA,NA,NA,"","",NA,"","",NA,"SUPAMT13097"
"1",1695823391686,"27/09/2023 14:03:11",1695808991686,-4,"27/09/2023 06:03:11",144636,4,"task-gjqt",NA,31897167,9432112,NA,"rejected - time limit reached","","3EJPLAJKESF6Z3MOOGPN5Z5TPYR6Z9","computer","Desktop or Laptop","Mac OS 10.15.7","Safari 16.6","414x896","414x714",NA,NA,0,"BIQ (Charlotte)",3,"DECFBGAHJI","Passed AC2","","Spreadsheet1",NA,"","","",NA,"5","BEGIN",NA,NA,NA,NA,NA,NA,0,NA,NA,NA,NA,"","",NA,"","",NA,"SUPAMT44779"
"2",1695823422241,"27/09/2023 14:03:42",1695809022241,-4,"27/09/2023 06:03:42",144636,4,"task-gjqt",NA,31897167,9432112,NA,"rejected - time limit reached","","3EJPLAJKESF6Z3MOOGPN5Z5TPYR6Z9","computer","Desktop or Laptop","Mac OS 10.15.7","Safari 16.6","414x896","800x331",NA,NA,0,"BIQ (Charlotte)",3,"DECFBGAHJI","Passed AC2","","Spreadsheet1",1,"BIQ","Screen 1","9dh6eq",1,"continue","",30530,30514,30530,30530,30514,30530,1,30530,0,0,NA,"Click To Continue","Continue Button",23,"object-48","BIQ",NA,"SUPAMT44779"
"3",1695823422253,"27/09/2023 14:03:42",1695809022253,-4,"27/09/2023 06:03:42",144636,4,"task-gjqt",NA,31897167,9432112,NA,"rejected - time limit reached","","3EJPLAJKESF6Z3MOOGPN5Z5TPYR6Z9","computer","Desktop or Laptop","Mac OS 10.15.7","Safari 16.6","414x896","800x331",NA,NA,0,"BIQ (Charlotte)",3,"DECFBGAHJI","Passed AC2","","Spreadsheet1",1,"BIQ","Screen 1","9dh6eq",1,"response","7",12003,30514,30530,12003,30514,30530,1,12003,18527,0,NA,"Rating Scale","Rating Scale",3,"object-5","BIQ",NA,"SUPAMT44779"
"4",1695823422254,"27/09/2023 14:03:42",1695809022254,-4,"27/09/2023 06:03:42",144636,4,"task-gjqt",NA,31897167,9432112,NA,"rejected - time limit reached","","3EJPLAJKESF6Z3MOOGPN5Z5TPYR6Z9","computer","Desktop or Laptop","Mac OS 10.15.7","Safari 16.6","414x896","800x331",NA,NA,0,"BIQ (Charlotte)",3,"DECFBGAHJI","Passed AC2","","Spreadsheet1",1,"BIQ","Screen 1","9dh6eq",1,"response","7",27950,30514,30530,27950,30514,30530,1,27950,2580,0,NA,"Rating Scale","Rating Scale",10,"object-18","BIQ",NA,"SUPAMT44779"
"5",1695823422255,"27/09/2023 14:03:42",1695809022255,-4,"27/09/2023 06:03:42",144636,4,"task-gjqt",NA,31897167,9432112,NA,"rejected - time limit reached","","3EJPLAJKESF6Z3MOOGPN5Z5TPYR6Z9","computer","Desktop or Laptop","Mac OS 10.15.7","Safari 16.6","414x896","800x331",NA,NA,0,"BIQ (Charlotte)",3,"DECFBGAHJI","Passed AC2","","Spreadsheet1",1,"BIQ","Screen 1","9dh6eq",1,"response","7",28483,30514,30530,28483,30514,30530,1,28483,2047,0,NA,"Rating Scale","Rating Scale",17,"object-80","BIQ",NA,"SUPAMT44779"
"6",1695823450021,"27/09/2023 14:04:10",1695809050021,-4,"27/09/2023 06:04:10",144636,4,"task-gjqt",NA,31897167,9432112,NA,"rejected - time limit reached","","3EJPLAJKESF6Z3MOOGPN5Z5TPYR6Z9","computer","Desktop or Laptop","Mac OS 10.15.7","Safari 16.6","414x896","800x331",NA,NA,0,"BIQ (Charlotte)",3,"DECFBGAHJI","Passed AC2","","Spreadsheet1",1,"BIQ","Screen 2","o21mwi",2,"continue","",27816,27799,27816,27816,27799,27816,1,27816,0,0,NA,"Click To Continue","Continue Button",22,"object-50","BIQ",NA,"SUPAMT44779"
"7",1695823450044,"27/09/2023 14:04:10",1695809050044,-4,"27/09/2023 06:04:10",144636,4,"task-gjqt",NA,31897167,9432112,NA,"rejected - time limit reached","","3EJPLAJKESF6Z3MOOGPN5Z5TPYR6Z9","computer","Desktop or Laptop","Mac OS 10.15.7","Safari 16.6","414x896","800x331",NA,NA,0,"BIQ (Charlotte)",3,"DECFBGAHJI","Passed AC2","","Spreadsheet1",1,"BIQ","Screen 2","o21mwi",2,"response","8",4822,27799,27816,4822,27799,27816,1,4822,22994,0,NA,"Rating Scale","Rating Scale",2,"object-259","BIQ",NA,"SUPAMT44779"
"8",1695823450044,"27/09/2023 14:04:10",1695809050044,-4,"27/09/2023 06:04:10",144636,4,"task-gjqt",NA,31897167,9432112,NA,"rejected - time limit reached","","3EJPLAJKESF6Z3MOOGPN5Z5TPYR6Z9","computer","Desktop or Laptop","Mac OS 10.15.7","Safari 16.6","414x896","800x331",NA,NA,0,"BIQ (Charlotte)",3,"DECFBGAHJI","Passed AC2","","Spreadsheet1",1,"BIQ","Screen 2","o21mwi",2,"response","8",5874,27799,27816,5874,27799,27816,1,5874,21942,0,NA,"Rating Scale","Rating Scale",9,"object-36","BIQ",NA,"SUPAMT44779"
"9",1695823450045,"27/09/2023 14:04:10",1695809050045,-4,"27/09/2023 06:04:10",144636,4,"task-gjqt",NA,31897167,9432112,NA,"rejected - time limit reached","","3EJPLAJKESF6Z3MOOGPN5Z5TPYR6Z9","computer","Desktop or Laptop","Mac OS 10.15.7","Safari 16.6","414x896","800x331",NA,NA,0,"BIQ (Charlotte)",3,"DECFBGAHJI","Passed AC2","","Spreadsheet1",1,"BIQ","Screen 2","o21mwi",2,"response","8",13921,27799,27816,13921,27799,27816,1,13921,13895,0,NA,"Rating Scale","Rating Scale",16,"object-86","BIQ",NA,"SUPAMT44779"
"10",1695823462834,"27/09/2023 14:04:22",1695809062834,-4,"27/09/2023 06:04:22",144636,4,"task-gjqt",NA,31897167,9432112,NA,"rejected - time limit reached","","3EJPLAJKESF6Z3MOOGPN5Z5TPYR6Z9","computer","Desktop or Laptop","Mac OS 10.15.7","Safari 16.6","414x896","800x331",NA,NA,0,"BIQ (Charlotte)",3,"DECFBGAHJI","Passed AC2","","Spreadsheet1",1,"BIQ","Screen 3","iz3the",3,"continue","",12833,12816,12833,12833,12816,12833,1,12833,0,0,NA,"Click To Continue","Continue Button",22,"object-73","BIQ",NA,"SUPAMT44779"
"11",1695823462855,"27/09/2023 14:04:22",1695809062855,-4,"27/09/2023 06:04:22",144636,4,"task-gjqt",NA,31897167,9432112,NA,"rejected - time limit reached","","3EJPLAJKESF6Z3MOOGPN5Z5TPYR6Z9","computer","Desktop or Laptop","Mac OS 10.15.7","Safari 16.6","414x896","800x331",NA,NA,0,"BIQ (Charlotte)",3,"DECFBGAHJI","Passed AC2","","Spreadsheet1",1,"BIQ","Screen 3","iz3the",3,"response","0",9920,12816,12833,9920,12816,12833,1,9920,2913,0,NA,"Rating Scale","Rating Scale",2,"object-53","BIQ",NA,"SUPAMT44779"
"12",1695823462856,"27/09/2023 14:04:22",1695809062856,-4,"27/09/2023 06:04:22",144636,4,"task-gjqt",NA,31897167,9432112,NA,"rejected - time limit reached","","3EJPLAJKESF6Z3MOOGPN5Z5TPYR6Z9","computer","Desktop or Laptop","Mac OS 10.15.7","Safari 16.6","414x896","800x331",NA,NA,0,"BIQ (Charlotte)",3,"DECFBGAHJI","Passed AC2","","Spreadsheet1",1,"BIQ","Screen 3","iz3the",3,"response","0",10800,12816,12833,10800,12816,12833,1,10800,2033,0,NA,"Rating Scale","Rating Scale",9,"object-60","BIQ",NA,"SUPAMT44779"
"13",1695823462857,"27/09/2023 14:04:22",1695809062857,-4,"27/09/2023 06:04:22",144636,4,"task-gjqt",NA,31897167,9432112,NA,"rejected - time limit reached","","3EJPLAJKESF6Z3MOOGPN5Z5TPYR6Z9","computer","Desktop or Laptop","Mac OS 10.15.7","Safari 16.6","414x896","800x331",NA,NA,0,"BIQ (Charlotte)",3,"DECFBGAHJI","Passed AC2","","Spreadsheet1",1,"BIQ","Screen 3","iz3the",3,"response","0",12233,12816,12833,12233,12816,12833,1,12233,600,0,NA,"Rating Scale","Rating Scale",16,"object-67","BIQ",NA,"SUPAMT44779"
"14",1695823462860,"27/09/2023 14:04:22",1695809062860,-4,"27/09/2023 06:04:22",144636,4,"task-gjqt",NA,31897167,9432112,NA,"rejected - time limit reached","","3EJPLAJKESF6Z3MOOGPN5Z5TPYR6Z9","computer","Desktop or Laptop","Mac OS 10.15.7","Safari 16.6","414x896","800x331",NA,NA,0,"BIQ (Charlotte)",3,"DECFBGAHJI","Passed AC2","","Spreadsheet1",NA,"","","",NA,"5","END",NA,NA,NA,NA,NA,NA,0,NA,NA,NA,NA,"","",NA,"","",NA,"SUPAMT44779"
"1",1695823425241,"27/09/2023 14:03:45",1695809025241,-4,"27/09/2023 06:03:45",144636,4,"task-gjqt",NA,31897181,9432110,NA,"complete","nmmhkj","3G5F9DBFOVW5N81VJ2ROHKHNA10VHY","computer","Desktop or Laptop","Windows 10","Chrome 116.0.0.0","1366x768","1366x619",NA,NA,0,"BIQ (Charlotte)",3,"EFDGCHBIAJ","Failed AC2","Passed AC1","Spreadsheet1",NA,"","","",NA,"5","BEGIN",NA,NA,NA,NA,NA,NA,0,NA,NA,NA,NA,"","",NA,"","",NA,"SUPAMT53463"
"2",1695823440959,"27/09/2023 14:04:00",1695809040959,-4,"27/09/2023 06:04:00",144636,4,"task-gjqt",NA,31897181,9432110,NA,"complete","nmmhkj","3G5F9DBFOVW5N81VJ2ROHKHNA10VHY","computer","Desktop or Laptop","Windows 10","Chrome 116.0.0.0","1366x768","1366x619",NA,NA,0,"BIQ (Charlotte)",3,"EFDGCHBIAJ","Failed AC2","Passed AC1","Spreadsheet1",1,"BIQ","Screen 1","9dh6eq",1,"continue","",15740.8279998093,15718.75,15740.8279998093,15740.8279998093,15718.75,15740.8279998093,1,15740.8279998093,0,0,NA,"Click To Continue","Continue Button",23,"object-48","BIQ",NA,"SUPAMT53463"
"3",1695823440962,"27/09/2023 14:04:00",1695809040962,-4,"27/09/2023 06:04:00",144636,4,"task-gjqt",NA,31897181,9432110,NA,"complete","nmmhkj","3G5F9DBFOVW5N81VJ2ROHKHNA10VHY","computer","Desktop or Laptop","Windows 10","Chrome 116.0.0.0","1366x768","1366x619",NA,NA,0,"BIQ (Charlotte)",3,"EFDGCHBIAJ","Failed AC2","Passed AC1","Spreadsheet1",1,"BIQ","Screen 1","9dh6eq",1,"response","8",4218.75,15718.75,15744.5279998569,4218.75,15718.75,15744.5279998569,1,4218.75,11525.7779998569,0,NA,"Rating Scale","Rating Scale",3,"object-5","BIQ",NA,"SUPAMT53463"
"4",1695823440963,"27/09/2023 14:04:00",1695809040963,-4,"27/09/2023 06:04:00",144636,4,"task-gjqt",NA,31897181,9432110,NA,"complete","nmmhkj","3G5F9DBFOVW5N81VJ2ROHKHNA10VHY","computer","Desktop or Laptop","Windows 10","Chrome 116.0.0.0","1366x768","1366x619",NA,NA,0,"BIQ (Charlotte)",3,"EFDGCHBIAJ","Failed AC2","Passed AC1","Spreadsheet1",1,"BIQ","Screen 1","9dh6eq",1,"response","7",5218.75,15718.75,15745.0279998569,5218.75,15718.75,15745.0279998569,1,5218.75,10526.2779998569,0,NA,"Rating Scale","Rating Scale",10,"object-18","BIQ",NA,"SUPAMT53463"
"5",1695823440963,"27/09/2023 14:04:00",1695809040963,-4,"27/09/2023 06:04:00",144636,4,"task-gjqt",NA,31897181,9432110,NA,"complete","nmmhkj","3G5F9DBFOVW5N81VJ2ROHKHNA10VHY","computer","Desktop or Laptop","Windows 10","Chrome 116.0.0.0","1366x768","1366x619",NA,NA,0,"BIQ (Charlotte)",3,"EFDGCHBIAJ","Failed AC2","Passed AC1","Spreadsheet1",1,"BIQ","Screen 1","9dh6eq",1,"response","8",6125,15718.75,15745.3279998093,6125,15718.75,15745.3279998093,1,6125,9620.32799980927,0,NA,"Rating Scale","Rating Scale",17,"object-80","BIQ",NA,"SUPAMT53463"
"6",1695823446645,"27/09/2023 14:04:06",1695809046645,-4,"27/09/2023 06:04:06",144636,4,"task-gjqt",NA,31897181,9432110,NA,"complete","nmmhkj","3G5F9DBFOVW5N81VJ2ROHKHNA10VHY","computer","Desktop or Laptop","Windows 10","Chrome 116.0.0.0","1366x768","1366x619",NA,NA,0,"BIQ (Charlotte)",3,"EFDGCHBIAJ","Failed AC2","Passed AC1","Spreadsheet1",1,"BIQ","Screen 2","o21mwi",2,"continue","",5708.77799985695,5687.5,5708.77799985695,5708.77799985695,5687.5,5708.77799985695,1,5708.77799985695,0,0,NA,"Click To Continue","Continue Button",22,"object-50","BIQ",NA,"SUPAMT53463"
"7",1695823446646,"27/09/2023 14:04:06",1695809046646,-4,"27/09/2023 06:04:06",144636,4,"task-gjqt",NA,31897181,9432110,NA,"complete","nmmhkj","3G5F9DBFOVW5N81VJ2ROHKHNA10VHY","computer","Desktop or Laptop","Windows 10","Chrome 116.0.0.0","1366x768","1366x619",NA,NA,0,"BIQ (Charlotte)",3,"EFDGCHBIAJ","Failed AC2","Passed AC1","Spreadsheet1",1,"BIQ","Screen 2","o21mwi",2,"response","5",2125,5687.5,5709.47799990463,2125,5687.5,5709.47799990463,1,2125,3584.47799990463,0,NA,"Rating Scale","Rating Scale",2,"object-259","BIQ",NA,"SUPAMT53463"
"8",1695823446646,"27/09/2023 14:04:06",1695809046646,-4,"27/09/2023 06:04:06",144636,4,"task-gjqt",NA,31897181,9432110,NA,"complete","nmmhkj","3G5F9DBFOVW5N81VJ2ROHKHNA10VHY","computer","Desktop or Laptop","Windows 10","Chrome 116.0.0.0","1366x768","1366x619",NA,NA,0,"BIQ (Charlotte)",3,"EFDGCHBIAJ","Failed AC2","Passed AC1","Spreadsheet1",1,"BIQ","Screen 2","o21mwi",2,"response","7",3531.25,5687.5,5709.878,3531.25,5687.5,5709.878,1,3531.25,2178.628,0,NA,"Rating Scale","Rating Scale",9,"object-36","BIQ",NA,"SUPAMT53463"
"9",1695823446647,"27/09/2023 14:04:06",1695809046647,-4,"27/09/2023 06:04:06",144636,4,"task-gjqt",NA,31897181,9432110,NA,"complete","nmmhkj","3G5F9DBFOVW5N81VJ2ROHKHNA10VHY","computer","Desktop or Laptop","Windows 10","Chrome 116.0.0.0","1366x768","1366x619",NA,NA,0,"BIQ (Charlotte)",3,"EFDGCHBIAJ","Failed AC2","Passed AC1","Spreadsheet1",1,"BIQ","Screen 2","o21mwi",2,"response","6",4562.5,5687.5,5710.378,4562.5,5687.5,5710.378,1,4562.5,1147.878,0,NA,"Rating Scale","Rating Scale",16,"object-86","BIQ",NA,"SUPAMT53463"
"10",1695823452390,"27/09/2023 14:04:12",1695809052390,-4,"27/09/2023 06:04:12",144636,4,"task-gjqt",NA,31897181,9432110,NA,"complete","nmmhkj","3G5F9DBFOVW5N81VJ2ROHKHNA10VHY","computer","Desktop or Laptop","Windows 10","Chrome 116.0.0.0","1366x768","1366x619",NA,NA,0,"BIQ (Charlotte)",3,"EFDGCHBIAJ","Failed AC2","Passed AC1","Spreadsheet1",1,"BIQ","Screen 3","iz3the",3,"continue","",5766.17799995232,5750,5766.17799995232,5766.17799995232,5750,5766.17799995232,1,5766.17799995232,0,0,NA,"Click To Continue","Continue Button",22,"object-73","BIQ",NA,"SUPAMT53463"
"11",1695823452395,"27/09/2023 14:04:12",1695809052395,-4,"27/09/2023 06:04:12",144636,4,"task-gjqt",NA,31897181,9432110,NA,"complete","nmmhkj","3G5F9DBFOVW5N81VJ2ROHKHNA10VHY","computer","Desktop or Laptop","Windows 10","Chrome 116.0.0.0","1366x768","1366x619",NA,NA,0,"BIQ (Charlotte)",3,"EFDGCHBIAJ","Failed AC2","Passed AC1","Spreadsheet1",1,"BIQ","Screen 3","iz3the",3,"response","6",2968.75,5750,5770.97799990463,2968.75,5750,5770.97799990463,1,2968.75,2802.22799990463,0,NA,"Rating Scale","Rating Scale",2,"object-53","BIQ",NA,"SUPAMT53463"
"12",1695823452395,"27/09/2023 14:04:12",1695809052395,-4,"27/09/2023 06:04:12",144636,4,"task-gjqt",NA,31897181,9432110,NA,"complete","nmmhkj","3G5F9DBFOVW5N81VJ2ROHKHNA10VHY","computer","Desktop or Laptop","Windows 10","Chrome 116.0.0.0","1366x768","1366x619",NA,NA,0,"BIQ (Charlotte)",3,"EFDGCHBIAJ","Failed AC2","Passed AC1","Spreadsheet1",1,"BIQ","Screen 3","iz3the",3,"response","7",4187.5,5750,5771.67799995232,4187.5,5750,5771.67799995232,1,4187.5,1584.17799995232,0,NA,"Rating Scale","Rating Scale",9,"object-60","BIQ",NA,"SUPAMT53463"
"13",1695823452396,"27/09/2023 14:04:12",1695809052396,-4,"27/09/2023 06:04:12",144636,4,"task-gjqt",NA,31897181,9432110,NA,"complete","nmmhkj","3G5F9DBFOVW5N81VJ2ROHKHNA10VHY","computer","Desktop or Laptop","Windows 10","Chrome 116.0.0.0","1366x768","1366x619",NA,NA,0,"BIQ (Charlotte)",3,"EFDGCHBIAJ","Failed AC2","Passed AC1","Spreadsheet1",1,"BIQ","Screen 3","iz3the",3,"response","6",5000,5750,5772.17799995232,5000,5750,5772.17799995232,1,5000,772.177999952317,0,NA,"Rating Scale","Rating Scale",16,"object-67","BIQ",NA,"SUPAMT53463"
"14",1695823452398,"27/09/2023 14:04:12",1695809052398,-4,"27/09/2023 06:04:12",144636,4,"task-gjqt",NA,31897181,9432110,NA,"complete","nmmhkj","3G5F9DBFOVW5N81VJ2ROHKHNA10VHY","computer","Desktop or Laptop","Windows 10","Chrome 116.0.0.0","1366x768","1366x619",NA,NA,0,"BIQ (Charlotte)",3,"EFDGCHBIAJ","Failed AC2","Passed AC1","Spreadsheet1",NA,"","","",NA,"5","END",NA,NA,NA,NA,NA,NA,0,NA,NA,NA,NA,"","",NA,"","",NA,"SUPAMT53463"
"1",1695827256764,"27/09/2023 15:07:36",1695809256764,-5,"27/09/2023 05:07:36",144636,4,"task-gjqt",NA,31897309,9432047,NA,"complete","ajsggl","3FTF2T8WLXHPNRJHB08SQ52DYZSW9L","computer","Desktop or Laptop","Windows 10","Chrome 116.0.0.0","1366x768","1366x651",NA,NA,0,"BIQ (Charlotte)",3,"CDBEAFJGIH","Failed AC2","Passed AC1","Spreadsheet1",NA,"","","",NA,"5","BEGIN",NA,NA,NA,NA,NA,NA,0,NA,NA,NA,NA,"","",NA,"","",NA,"SUPAMT64920"
"2",1695827264599,"27/09/2023 15:07:44",1695809264599,-5,"27/09/2023 05:07:44",144636,4,"task-gjqt",NA,31897309,9432047,NA,"complete","ajsggl","3FTF2T8WLXHPNRJHB08SQ52DYZSW9L","computer","Desktop or Laptop","Windows 10","Chrome 116.0.0.0","1366x768","1366x651",NA,NA,0,"BIQ (Charlotte)",3,"CDBEAFJGIH","Failed AC2","Passed AC1","Spreadsheet1",1,"BIQ","Screen 1","9dh6eq",1,"continue","",7858.33900009537,7845.455,7858.33900009537,7858.33900009537,7845.455,7858.33900009537,1,7858.33900009537,0,0,NA,"Click To Continue","Continue Button",23,"object-48","BIQ",NA,"SUPAMT64920"
"3",1695827264600,"27/09/2023 15:07:44",1695809264600,-5,"27/09/2023 05:07:44",144636,4,"task-gjqt",NA,31897309,9432047,NA,"complete","ajsggl","3FTF2T8WLXHPNRJHB08SQ52DYZSW9L","computer","Desktop or Laptop","Windows 10","Chrome 116.0.0.0","1366x768","1366x651",NA,NA,0,"BIQ (Charlotte)",3,"CDBEAFJGIH","Failed AC2","Passed AC1","Spreadsheet1",1,"BIQ","Screen 1","9dh6eq",1,"response","4",4350.871,7845.455,7859.939,4350.871,7845.455,7859.939,1,4350.871,3509.068,0,NA,"Rating Scale","Rating Scale",3,"object-5","BIQ",NA,"SUPAMT64920"
"4",1695827264600,"27/09/2023 15:07:44",1695809264600,-5,"27/09/2023 05:07:44",144636,4,"task-gjqt",NA,31897309,9432047,NA,"complete","ajsggl","3FTF2T8WLXHPNRJHB08SQ52DYZSW9L","computer","Desktop or Laptop","Windows 10","Chrome 116.0.0.0","1366x768","1366x651",NA,NA,0,"BIQ (Charlotte)",3,"CDBEAFJGIH","Failed AC2","Passed AC1","Spreadsheet1",1,"BIQ","Screen 1","9dh6eq",1,"response","5",6149.816,7845.455,7860.33900009537,6149.816,7845.455,7860.33900009537,1,6149.816,1710.52300009537,0,NA,"Rating Scale","Rating Scale",10,"object-18","BIQ",NA,"SUPAMT64920"
"5",1695827264600,"27/09/2023 15:07:44",1695809264600,-5,"27/09/2023 05:07:44",144636,4,"task-gjqt",NA,31897309,9432047,NA,"complete","ajsggl","3FTF2T8WLXHPNRJHB08SQ52DYZSW9L","computer","Desktop or Laptop","Windows 10","Chrome 116.0.0.0","1366x768","1366x651",NA,NA,0,"BIQ (Charlotte)",3,"CDBEAFJGIH","Failed AC2","Passed AC1","Spreadsheet1",1,"BIQ","Screen 1","9dh6eq",1,"response","4",7189.701,7845.455,7860.73899995232,7189.701,7845.455,7860.73899995232,1,7189.701,671.037999952316,0,NA,"Rating Scale","Rating Scale",17,"object-80","BIQ",NA,"SUPAMT64920"
"6",1695827269677,"27/09/2023 15:07:49",1695809269677,-5,"27/09/2023 05:07:49",144636,4,"task-gjqt",NA,31897309,9432047,NA,"complete","ajsggl","3FTF2T8WLXHPNRJHB08SQ52DYZSW9L","computer","Desktop or Laptop","Windows 10","Chrome 116.0.0.0","1366x768","1366x651",NA,NA,0,"BIQ (Charlotte)",3,"CDBEAFJGIH","Failed AC2","Passed AC1","Spreadsheet1",1,"BIQ","Screen 2","o21mwi",2,"continue","",5092.08400014305,5089.129,5092.08400014305,5092.08400014305,5089.129,5092.08400014305,1,5092.08400014305,0,0,NA,"Click To Continue","Continue Button",22,"object-50","BIQ",NA,"SUPAMT64920"
"7",1695827269680,"27/09/2023 15:07:49",1695809269680,-5,"27/09/2023 05:07:49",144636,4,"task-gjqt",NA,31897309,9432047,NA,"complete","ajsggl","3FTF2T8WLXHPNRJHB08SQ52DYZSW9L","computer","Desktop or Laptop","Windows 10","Chrome 116.0.0.0","1366x768","1366x651",NA,NA,0,"BIQ (Charlotte)",3,"CDBEAFJGIH","Failed AC2","Passed AC1","Spreadsheet1",1,"BIQ","Screen 2","o21mwi",2,"response","4",2166.689,5089.129,5095.28399995232,2166.689,5089.129,5095.28399995232,1,2166.689,2928.59499995232,0,NA,"Rating Scale","Rating Scale",2,"object-259","BIQ",NA,"SUPAMT64920"
"8",1695827269681,"27/09/2023 15:07:49",1695809269681,-5,"27/09/2023 05:07:49",144636,4,"task-gjqt",NA,31897309,9432047,NA,"complete","ajsggl","3FTF2T8WLXHPNRJHB08SQ52DYZSW9L","computer","Desktop or Laptop","Windows 10","Chrome 116.0.0.0","1366x768","1366x651",NA,NA,0,"BIQ (Charlotte)",3,"CDBEAFJGIH","Failed AC2","Passed AC1","Spreadsheet1",1,"BIQ","Screen 2","o21mwi",2,"response","5",3036.754,5089.129,5095.78399995232,3036.754,5089.129,5095.78399995232,1,3036.754,2059.02999995232,0,NA,"Rating Scale","Rating Scale",9,"object-36","BIQ",NA,"SUPAMT64920"
"9",1695827269681,"27/09/2023 15:07:49",1695809269681,-5,"27/09/2023 05:07:49",144636,4,"task-gjqt",NA,31897309,9432047,NA,"complete","ajsggl","3FTF2T8WLXHPNRJHB08SQ52DYZSW9L","computer","Desktop or Laptop","Windows 10","Chrome 116.0.0.0","1366x768","1366x651",NA,NA,0,"BIQ (Charlotte)",3,"CDBEAFJGIH","Failed AC2","Passed AC1","Spreadsheet1",1,"BIQ","Screen 2","o21mwi",2,"response","4",3795.128,5089.129,5096.18400004768,3795.128,5089.129,5096.18400004768,1,3795.128,1301.05600004768,0,NA,"Rating Scale","Rating Scale",16,"object-86","BIQ",NA,"SUPAMT64920"
"10",1695827273557,"27/09/2023 15:07:53",1695809273557,-5,"27/09/2023 05:07:53",144636,4,"task-gjqt",NA,31897309,9432047,NA,"complete","ajsggl","3FTF2T8WLXHPNRJHB08SQ52DYZSW9L","computer","Desktop or Laptop","Windows 10","Chrome 116.0.0.0","1366x768","1366x651",NA,NA,0,"BIQ (Charlotte)",3,"CDBEAFJGIH","Failed AC2","Passed AC1","Spreadsheet1",1,"BIQ","Screen 3","iz3the",3,"continue","",3882.55500004768,3869.082,3882.55500004768,3882.55500004768,3869.082,3882.55500004768,1,3882.55500004768,0,0,NA,"Click To Continue","Continue Button",22,"object-73","BIQ",NA,"SUPAMT64920"
"11",1695827273557,"27/09/2023 15:07:53",1695809273557,-5,"27/09/2023 05:07:53",144636,4,"task-gjqt",NA,31897309,9432047,NA,"complete","ajsggl","3FTF2T8WLXHPNRJHB08SQ52DYZSW9L","computer","Desktop or Laptop","Windows 10","Chrome 116.0.0.0","1366x768","1366x651",NA,NA,0,"BIQ (Charlotte)",3,"CDBEAFJGIH","Failed AC2","Passed AC1","Spreadsheet1",1,"BIQ","Screen 3","iz3the",3,"response","4",1821.393,3869.082,3883.25500009537,1821.393,3869.082,3883.25500009537,1,1821.393,2061.86200009537,0,NA,"Rating Scale","Rating Scale",2,"object-53","BIQ",NA,"SUPAMT64920"
"12",1695827273558,"27/09/2023 15:07:53",1695809273558,-5,"27/09/2023 05:07:53",144636,4,"task-gjqt",NA,31897309,9432047,NA,"complete","ajsggl","3FTF2T8WLXHPNRJHB08SQ52DYZSW9L","computer","Desktop or Laptop","Windows 10","Chrome 116.0.0.0","1366x768","1366x651",NA,NA,0,"BIQ (Charlotte)",3,"CDBEAFJGIH","Failed AC2","Passed AC1","Spreadsheet1",1,"BIQ","Screen 3","iz3the",3,"response","5",2367.772,3869.082,3883.65499995232,2367.772,3869.082,3883.65499995232,1,2367.772,1515.88299995232,0,NA,"Rating Scale","Rating Scale",9,"object-60","BIQ",NA,"SUPAMT64920"
"13",1695827273558,"27/09/2023 15:07:53",1695809273558,-5,"27/09/2023 05:07:53",144636,4,"task-gjqt",NA,31897309,9432047,NA,"complete","ajsggl","3FTF2T8WLXHPNRJHB08SQ52DYZSW9L","computer","Desktop or Laptop","Windows 10","Chrome 116.0.0.0","1366x768","1366x651",NA,NA,0,"BIQ (Charlotte)",3,"CDBEAFJGIH","Failed AC2","Passed AC1","Spreadsheet1",1,"BIQ","Screen 3","iz3the",3,"response","4",3020.638,3869.082,3884.05500004768,3020.638,3869.082,3884.05500004768,1,3020.638,863.417000047684,0,NA,"Rating Scale","Rating Scale",16,"object-67","BIQ",NA,"SUPAMT64920"
"14",1695827273560,"27/09/2023 15:07:53",1695809273560,-5,"27/09/2023 05:07:53",144636,4,"task-gjqt",NA,31897309,9432047,NA,"complete","ajsggl","3FTF2T8WLXHPNRJHB08SQ52DYZSW9L","computer","Desktop or Laptop","Windows 10","Chrome 116.0.0.0","1366x768","1366x651",NA,NA,0,"BIQ (Charlotte)",3,"CDBEAFJGIH","Failed AC2","Passed AC1","Spreadsheet1",NA,"","","",NA,"5","END",NA,NA,NA,NA,NA,NA,0,NA,NA,NA,NA,"","",NA,"","",NA,"SUPAMT64920"
"1",1695823820914,"27/09/2023 14:10:20",1695809420914,-4,"27/09/2023 06:10:20",144636,4,"task-gjqt",NA,31897403,9432203,NA,"complete","abnvro","3WI0P0II67RWILFCOM3OP2DMX3TRDR","computer","Desktop or Laptop","Windows 10","Chrome 116.0.0.0","1536x864","1536x715",NA,NA,0,"BIQ (Charlotte)",3,"HIGJFAEBDC","Passed AC2","","Spreadsheet1",NA,"","","",NA,"5","BEGIN",NA,NA,NA,NA,NA,NA,0,NA,NA,NA,NA,"","",NA,"","",NA,"SUPAMT18538"
"2",1695823832041,"27/09/2023 14:10:32",1695809432041,-4,"27/09/2023 06:10:32",144636,4,"task-gjqt",NA,31897403,9432203,NA,"complete","abnvro","3WI0P0II67RWILFCOM3OP2DMX3TRDR","computer","Desktop or Laptop","Windows 10","Chrome 116.0.0.0","1536x864","1536x715",NA,NA,0,"BIQ (Charlotte)",3,"HIGJFAEBDC","Passed AC2","","Spreadsheet1",1,"BIQ","Screen 1","9dh6eq",1,"continue","",11156.25,11125,11156.25,11156.25,11125,11156.25,1,11156.25,0,0,NA,"Click To Continue","Continue Button",23,"object-48","BIQ",NA,"SUPAMT18538"
"3",1695823832046,"27/09/2023 14:10:32",1695809432046,-4,"27/09/2023 06:10:32",144636,4,"task-gjqt",NA,31897403,9432203,NA,"complete","abnvro","3WI0P0II67RWILFCOM3OP2DMX3TRDR","computer","Desktop or Laptop","Windows 10","Chrome 116.0.0.0","1536x864","1536x715",NA,NA,0,"BIQ (Charlotte)",3,"HIGJFAEBDC","Passed AC2","","Spreadsheet1",1,"BIQ","Screen 1","9dh6eq",1,"response","7",4187.5,11125,11156.25,4187.5,11125,11156.25,1,4187.5,6968.75,0,NA,"Rating Scale","Rating Scale",3,"object-5","BIQ",NA,"SUPAMT18538"
"4",1695823832046,"27/09/2023 14:10:32",1695809432046,-4,"27/09/2023 06:10:32",144636,4,"task-gjqt",NA,31897403,9432203,NA,"complete","abnvro","3WI0P0II67RWILFCOM3OP2DMX3TRDR","computer","Desktop or Laptop","Windows 10","Chrome 116.0.0.0","1536x864","1536x715",NA,NA,0,"BIQ (Charlotte)",3,"HIGJFAEBDC","Passed AC2","","Spreadsheet1",1,"BIQ","Screen 1","9dh6eq",1,"response","0",8718.75,11125,11156.25,8718.75,11125,11156.25,1,8718.75,2437.5,0,NA,"Rating Scale","Rating Scale",10,"object-18","BIQ",NA,"SUPAMT18538"
"5",1695823832050,"27/09/2023 14:10:32",1695809432050,-4,"27/09/2023 06:10:32",144636,4,"task-gjqt",NA,31897403,9432203,NA,"complete","abnvro","3WI0P0II67RWILFCOM3OP2DMX3TRDR","computer","Desktop or Laptop","Windows 10","Chrome 116.0.0.0","1536x864","1536x715",NA,NA,0,"BIQ (Charlotte)",3,"HIGJFAEBDC","Passed AC2","","Spreadsheet1",1,"BIQ","Screen 1","9dh6eq",1,"response","0",10343.75,11125,11156.25,10343.75,11125,11156.25,1,10343.75,812.5,0,NA,"Rating Scale","Rating Scale",17,"object-80","BIQ",NA,"SUPAMT18538"
"6",1695823845776,"27/09/2023 14:10:45",1695809445776,-4,"27/09/2023 06:10:45",144636,4,"task-gjqt",NA,31897403,9432203,NA,"complete","abnvro","3WI0P0II67RWILFCOM3OP2DMX3TRDR","computer","Desktop or Laptop","Windows 10","Chrome 116.0.0.0","1536x864","1536x715",NA,NA,0,"BIQ (Charlotte)",3,"HIGJFAEBDC","Passed AC2","","Spreadsheet1",1,"BIQ","Screen 2","o21mwi",2,"continue","",13779.75,13750,13779.75,13779.75,13750,13779.75,1,13779.75,0,0,NA,"Click To Continue","Continue Button",22,"object-50","BIQ",NA,"SUPAMT18538"
"7",1695823845779,"27/09/2023 14:10:45",1695809445779,-4,"27/09/2023 06:10:45",144636,4,"task-gjqt",NA,31897403,9432203,NA,"complete","abnvro","3WI0P0II67RWILFCOM3OP2DMX3TRDR","computer","Desktop or Laptop","Windows 10","Chrome 116.0.0.0","1536x864","1536x715",NA,NA,0,"BIQ (Charlotte)",3,"HIGJFAEBDC","Passed AC2","","Spreadsheet1",1,"BIQ","Screen 2","o21mwi",2,"response","7",12750,13750,13781.25,12750,13750,13781.25,1,12750,1031.25,0,NA,"Rating Scale","Rating Scale",2,"object-259","BIQ",NA,"SUPAMT18538"
"8",1695823845780,"27/09/2023 14:10:45",1695809445780,-4,"27/09/2023 06:10:45",144636,4,"task-gjqt",NA,31897403,9432203,NA,"complete","abnvro","3WI0P0II67RWILFCOM3OP2DMX3TRDR","computer","Desktop or Laptop","Windows 10","Chrome 116.0.0.0","1536x864","1536x715",NA,NA,0,"BIQ (Charlotte)",3,"HIGJFAEBDC","Passed AC2","","Spreadsheet1",1,"BIQ","Screen 2","o21mwi",2,"response","1",10218.75,13750,13781.25,10218.75,13750,13781.25,1,10218.75,3562.5,0,NA,"Rating Scale","Rating Scale",9,"object-36","BIQ",NA,"SUPAMT18538"
"9",1695823845780,"27/09/2023 14:10:45",1695809445780,-4,"27/09/2023 06:10:45",144636,4,"task-gjqt",NA,31897403,9432203,NA,"complete","abnvro","3WI0P0II67RWILFCOM3OP2DMX3TRDR","computer","Desktop or Laptop","Windows 10","Chrome 116.0.0.0","1536x864","1536x715",NA,NA,0,"BIQ (Charlotte)",3,"HIGJFAEBDC","Passed AC2","","Spreadsheet1",1,"BIQ","Screen 2","o21mwi",2,"response","0",6750,13750,13781.25,6750,13750,13781.25,1,6750,7031.25,0,NA,"Rating Scale","Rating Scale",16,"object-86","BIQ",NA,"SUPAMT18538"
"10",1695823876257,"27/09/2023 14:11:16",1695809476257,-4,"27/09/2023 06:11:16",144636,4,"task-gjqt",NA,31897403,9432203,NA,"complete","abnvro","3WI0P0II67RWILFCOM3OP2DMX3TRDR","computer","Desktop or Laptop","Windows 10","Chrome 116.0.0.0","1536x864","1536x715",NA,NA,0,"BIQ (Charlotte)",3,"HIGJFAEBDC","Passed AC2","","Spreadsheet1",1,"BIQ","Screen 3","iz3the",3,"continue","",30510.75,30500,30510.75,30510.75,30500,30510.75,1,30510.75,0,0,NA,"Click To Continue","Continue Button",22,"object-73","BIQ",NA,"SUPAMT18538"
"11",1695823876261,"27/09/2023 14:11:16",1695809476261,-4,"27/09/2023 06:11:16",144636,4,"task-gjqt",NA,31897403,9432203,NA,"complete","abnvro","3WI0P0II67RWILFCOM3OP2DMX3TRDR","computer","Desktop or Laptop","Windows 10","Chrome 116.0.0.0","1536x864","1536x715",NA,NA,0,"BIQ (Charlotte)",3,"HIGJFAEBDC","Passed AC2","","Spreadsheet1",1,"BIQ","Screen 3","iz3the",3,"response","3",9250,30500,30513.75,9250,30500,30513.75,1,9250,21263.75,0,NA,"Rating Scale","Rating Scale",2,"object-53","BIQ",NA,"SUPAMT18538"
"12",1695823876261,"27/09/2023 14:11:16",1695809476261,-4,"27/09/2023 06:11:16",144636,4,"task-gjqt",NA,31897403,9432203,NA,"complete","abnvro","3WI0P0II67RWILFCOM3OP2DMX3TRDR","computer","Desktop or Laptop","Windows 10","Chrome 116.0.0.0","1536x864","1536x715",NA,NA,0,"BIQ (Charlotte)",3,"HIGJFAEBDC","Passed AC2","","Spreadsheet1",1,"BIQ","Screen 3","iz3the",3,"response","1",27375,30500,30514.75,27375,30500,30514.75,1,27375,3139.75,0,NA,"Rating Scale","Rating Scale",9,"object-60","BIQ",NA,"SUPAMT18538"
"13",1695823876261,"27/09/2023 14:11:16",1695809476261,-4,"27/09/2023 06:11:16",144636,4,"task-gjqt",NA,31897403,9432203,NA,"complete","abnvro","3WI0P0II67RWILFCOM3OP2DMX3TRDR","computer","Desktop or Laptop","Windows 10","Chrome 116.0.0.0","1536x864","1536x715",NA,NA,0,"BIQ (Charlotte)",3,"HIGJFAEBDC","Passed AC2","","Spreadsheet1",1,"BIQ","Screen 3","iz3the",3,"response","8",29937.5,30500,30514.75,29937.5,30500,30514.75,1,29937.5,577.25,0,NA,"Rating Scale","Rating Scale",16,"object-67","BIQ",NA,"SUPAMT18538"
"14",1695823876263,"27/09/2023 14:11:16",1695809476263,-4,"27/09/2023 06:11:16",144636,4,"task-gjqt",NA,31897403,9432203,NA,"complete","abnvro","3WI0P0II67RWILFCOM3OP2DMX3TRDR","computer","Desktop or Laptop","Windows 10","Chrome 116.0.0.0","1536x864","1536x715",NA,NA,0,"BIQ (Charlotte)",3,"HIGJFAEBDC","Passed AC2","","Spreadsheet1",NA,"","","",NA,"5","END",NA,NA,NA,NA,NA,NA,0,NA,NA,NA,NA,"","",NA,"","",NA,"SUPAMT18538"
"1",1695824079208,"27/09/2023 14:14:39",1695809679208,-4,"27/09/2023 06:14:39",144636,4,"task-gjqt",NA,31897557,9432180,NA,"complete","ywycqd","","computer","Desktop or Laptop","Windows 10","Chrome 117.0.0.0","1366x768","1366x619",NA,NA,0,"BIQ (Charlotte)",3,"IJHAGBFCED","Passed AC2","","Spreadsheet1",NA,"","","",NA,"5","BEGIN",NA,NA,NA,NA,NA,NA,0,NA,NA,NA,NA,"","",NA,"","",NA,NA
"2",1695824088618,"27/09/2023 14:14:48",1695809688618,-4,"27/09/2023 06:14:48",144636,4,"task-gjqt",NA,31897557,9432180,NA,"complete","ywycqd","","computer","Desktop or Laptop","Windows 10","Chrome 117.0.0.0","1366x768","1366x619",NA,NA,0,"BIQ (Charlotte)",3,"IJHAGBFCED","Passed AC2","","Spreadsheet1",1,"BIQ","Screen 1","9dh6eq",1,"continue","",9425.46400000298,9406.25,9425.46400000298,9425.46400000298,9406.25,9425.46400000298,1,9425.46400000298,0,0,NA,"Click To Continue","Continue Button",23,"object-48","BIQ",NA,NA
"3",1695824088619,"27/09/2023 14:14:48",1695809688619,-4,"27/09/2023 06:14:48",144636,4,"task-gjqt",NA,31897557,9432180,NA,"complete","ywycqd","","computer","Desktop or Laptop","Windows 10","Chrome 117.0.0.0","1366x768","1366x619",NA,NA,0,"BIQ (Charlotte)",3,"IJHAGBFCED","Passed AC2","","Spreadsheet1",1,"BIQ","Screen 1","9dh6eq",1,"response","4",1875,9406.25,9427.46400000298,1875,9406.25,9427.46400000298,1,1875,7552.46400000298,0,NA,"Rating Scale","Rating Scale",3,"object-5","BIQ",NA,NA
"4",1695824088619,"27/09/2023 14:14:48",1695809688619,-4,"27/09/2023 06:14:48",144636,4,"task-gjqt",NA,31897557,9432180,NA,"complete","ywycqd","","computer","Desktop or Laptop","Windows 10","Chrome 117.0.0.0","1366x768","1366x619",NA,NA,0,"BIQ (Charlotte)",3,"IJHAGBFCED","Passed AC2","","Spreadsheet1",1,"BIQ","Screen 1","9dh6eq",1,"response","5",2531.25,9406.25,9427.86400000149,2531.25,9406.25,9427.86400000149,1,2531.25,6896.61400000149,0,NA,"Rating Scale","Rating Scale",10,"object-18","BIQ",NA,NA
"5",1695824088620,"27/09/2023 14:14:48",1695809688620,-4,"27/09/2023 06:14:48",144636,4,"task-gjqt",NA,31897557,9432180,NA,"complete","ywycqd","","computer","Desktop or Laptop","Windows 10","Chrome 117.0.0.0","1366x768","1366x619",NA,NA,0,"BIQ (Charlotte)",3,"IJHAGBFCED","Passed AC2","","Spreadsheet1",1,"BIQ","Screen 1","9dh6eq",1,"response","4",7218.75,9406.25,9428.36400000149,7218.75,9406.25,9428.36400000149,1,7218.75,2209.61400000149,0,NA,"Rating Scale","Rating Scale",17,"object-80","BIQ",NA,NA
"6",1695824127888,"27/09/2023 14:15:27",1695809727888,-4,"27/09/2023 06:15:27",144636,4,"task-gjqt",NA,31897557,9432180,NA,"complete","ywycqd","","computer","Desktop or Laptop","Windows 10","Chrome 117.0.0.0","1366x768","1366x619",NA,NA,0,"BIQ (Charlotte)",3,"IJHAGBFCED","Passed AC2","","Spreadsheet1",1,"BIQ","Screen 2","o21mwi",2,"continue","",39290.514,39281.25,39290.514,39290.514,39281.25,39290.514,1,39290.514,0,0,NA,"Click To Continue","Continue Button",22,"object-50","BIQ",NA,NA
"7",1695824127892,"27/09/2023 14:15:27",1695809727892,-4,"27/09/2023 06:15:27",144636,4,"task-gjqt",NA,31897557,9432180,NA,"complete","ywycqd","","computer","Desktop or Laptop","Windows 10","Chrome 117.0.0.0","1366x768","1366x619",NA,NA,0,"BIQ (Charlotte)",3,"IJHAGBFCED","Passed AC2","","Spreadsheet1",1,"BIQ","Screen 2","o21mwi",2,"response","4",37531.25,39281.25,39294.1140000015,37531.25,39281.25,39294.1140000015,1,37531.25,1762.86400000149,0,NA,"Rating Scale","Rating Scale",2,"object-259","BIQ",NA,NA
"8",1695824127892,"27/09/2023 14:15:27",1695809727892,-4,"27/09/2023 06:15:27",144636,4,"task-gjqt",NA,31897557,9432180,NA,"complete","ywycqd","","computer","Desktop or Laptop","Windows 10","Chrome 117.0.0.0","1366x768","1366x619",NA,NA,0,"BIQ (Charlotte)",3,"IJHAGBFCED","Passed AC2","","Spreadsheet1",1,"BIQ","Screen 2","o21mwi",2,"response","5",38156.25,39281.25,39294.9139999985,38156.25,39281.25,39294.9139999985,1,38156.25,1138.66399999851,0,NA,"Rating Scale","Rating Scale",9,"object-36","BIQ",NA,NA
"9",1695824127893,"27/09/2023 14:15:27",1695809727893,-4,"27/09/2023 06:15:27",144636,4,"task-gjqt",NA,31897557,9432180,NA,"complete","ywycqd","","computer","Desktop or Laptop","Windows 10","Chrome 117.0.0.0","1366x768","1366x619",NA,NA,0,"BIQ (Charlotte)",3,"IJHAGBFCED","Passed AC2","","Spreadsheet1",1,"BIQ","Screen 2","o21mwi",2,"response","4",38718.75,39281.25,39295.514,38718.75,39281.25,39295.514,1,38718.75,576.763999999996,0,NA,"Rating Scale","Rating Scale",16,"object-86","BIQ",NA,NA
"10",1695824132224,"27/09/2023 14:15:32",1695809732224,-4,"27/09/2023 06:15:32",144636,4,"task-gjqt",NA,31897557,9432180,NA,"complete","ywycqd","","computer","Desktop or Laptop","Windows 10","Chrome 117.0.0.0","1366x768","1366x619",NA,NA,0,"BIQ (Charlotte)",3,"IJHAGBFCED","Passed AC2","","Spreadsheet1",1,"BIQ","Screen 3","iz3the",3,"continue","",4343.75,4312.5,4343.75,4343.75,4312.5,4343.75,1,4343.75,0,0,NA,"Click To Continue","Continue Button",22,"object-73","BIQ",NA,NA
"11",1695824132224,"27/09/2023 14:15:32",1695809732224,-4,"27/09/2023 06:15:32",144636,4,"task-gjqt",NA,31897557,9432180,NA,"complete","ywycqd","","computer","Desktop or Laptop","Windows 10","Chrome 117.0.0.0","1366x768","1366x619",NA,NA,0,"BIQ (Charlotte)",3,"IJHAGBFCED","Passed AC2","","Spreadsheet1",1,"BIQ","Screen 3","iz3the",3,"response","4",2750,4312.5,4343.75,2750,4312.5,4343.75,1,2750,1593.75,0,NA,"Rating Scale","Rating Scale",2,"object-53","BIQ",NA,NA
"12",1695824132225,"27/09/2023 14:15:32",1695809732225,-4,"27/09/2023 06:15:32",144636,4,"task-gjqt",NA,31897557,9432180,NA,"complete","ywycqd","","computer","Desktop or Laptop","Windows 10","Chrome 117.0.0.0","1366x768","1366x619",NA,NA,0,"BIQ (Charlotte)",3,"IJHAGBFCED","Passed AC2","","Spreadsheet1",1,"BIQ","Screen 3","iz3the",3,"response","5",3375,4312.5,4343.75,3375,4312.5,4343.75,1,3375,968.75,0,NA,"Rating Scale","Rating Scale",9,"object-60","BIQ",NA,NA
"13",1695824132226,"27/09/2023 14:15:32",1695809732226,-4,"27/09/2023 06:15:32",144636,4,"task-gjqt",NA,31897557,9432180,NA,"complete","ywycqd","","computer","Desktop or Laptop","Windows 10","Chrome 117.0.0.0","1366x768","1366x619",NA,NA,0,"BIQ (Charlotte)",3,"IJHAGBFCED","Passed AC2","","Spreadsheet1",1,"BIQ","Screen 3","iz3the",3,"response","4",3906.25,4312.5,4343.75,3906.25,4312.5,4343.75,1,3906.25,437.5,0,NA,"Rating Scale","Rating Scale",16,"object-67","BIQ",NA,NA
"14",1695824132232,"27/09/2023 14:15:32",1695809732232,-4,"27/09/2023 06:15:32",144636,4,"task-gjqt",NA,31897557,9432180,NA,"complete","ywycqd","","computer","Desktop or Laptop","Windows 10","Chrome 117.0.0.0","1366x768","1366x619",NA,NA,0,"BIQ (Charlotte)",3,"IJHAGBFCED","Passed AC2","","Spreadsheet1",NA,"","","",NA,"5","END",NA,NA,NA,NA,NA,NA,0,NA,NA,NA,NA,"","",NA,"","",NA,NA
"1",1695826085801,"27/09/2023 14:48:05",1695811685801,-4,"27/09/2023 06:48:05",144636,4,"task-gjqt",NA,31898734,9432150,NA,"complete","yvuxbq","3AQF3RZ55EH0UMVON4VG27PBDTW6FK","computer","Desktop or Laptop","Windows 10","Chrome 116.0.0.0","1280x1024","1280x875",NA,NA,0,"BIQ (Charlotte)",3,"IJHAGBFCED","Passed AC2","","Spreadsheet1",NA,"","","",NA,"5","BEGIN",NA,NA,NA,NA,NA,NA,0,NA,NA,NA,NA,"","",NA,"","",NA,"SUPAMT59606"
"2",1695826094966,"27/09/2023 14:48:14",1695811694966,-4,"27/09/2023 06:48:14",144636,4,"task-gjqt",NA,31898734,9432150,NA,"complete","yvuxbq","3AQF3RZ55EH0UMVON4VG27PBDTW6FK","computer","Desktop or Laptop","Windows 10","Chrome 116.0.0.0","1280x1024","1280x875",NA,NA,0,"BIQ (Charlotte)",3,"IJHAGBFCED","Passed AC2","","Spreadsheet1",1,"BIQ","Screen 1","9dh6eq",1,"continue","",9182.95300014305,9177.778,9182.95300014305,9182.95300014305,9177.778,9182.95300014305,1,9182.95300014305,0,0,NA,"Click To Continue","Continue Button",23,"object-48","BIQ",NA,"SUPAMT59606"
"3",1695826094966,"27/09/2023 14:48:14",1695811694966,-4,"27/09/2023 06:48:14",144636,4,"task-gjqt",NA,31898734,9432150,NA,"complete","yvuxbq","3AQF3RZ55EH0UMVON4VG27PBDTW6FK","computer","Desktop or Laptop","Windows 10","Chrome 116.0.0.0","1280x1024","1280x875",NA,NA,0,"BIQ (Charlotte)",3,"IJHAGBFCED","Passed AC2","","Spreadsheet1",1,"BIQ","Screen 1","9dh6eq",1,"response","6",2759.282,9177.778,9184.15299995232,2759.282,9177.778,9184.15299995232,1,2759.282,6424.87099995232,0,NA,"Rating Scale","Rating Scale",3,"object-5","BIQ",NA,"SUPAMT59606"
"4",1695826094966,"27/09/2023 14:48:14",1695811694966,-4,"27/09/2023 06:48:14",144636,4,"task-gjqt",NA,31898734,9432150,NA,"complete","yvuxbq","3AQF3RZ55EH0UMVON4VG27PBDTW6FK","computer","Desktop or Laptop","Windows 10","Chrome 116.0.0.0","1280x1024","1280x875",NA,NA,0,"BIQ (Charlotte)",3,"IJHAGBFCED","Passed AC2","","Spreadsheet1",1,"BIQ","Screen 1","9dh6eq",1,"response","7",3390.735,9177.778,9184.353,3390.735,9177.778,9184.353,1,3390.735,5793.618,0,NA,"Rating Scale","Rating Scale",10,"object-18","BIQ",NA,"SUPAMT59606"
"5",1695826094967,"27/09/2023 14:48:14",1695811694967,-4,"27/09/2023 06:48:14",144636,4,"task-gjqt",NA,31898734,9432150,NA,"complete","yvuxbq","3AQF3RZ55EH0UMVON4VG27PBDTW6FK","computer","Desktop or Laptop","Windows 10","Chrome 116.0.0.0","1280x1024","1280x875",NA,NA,0,"BIQ (Charlotte)",3,"IJHAGBFCED","Passed AC2","","Spreadsheet1",1,"BIQ","Screen 1","9dh6eq",1,"response","6",4477.808,9177.778,9184.65299995232,4477.808,9177.778,9184.65299995232,1,4477.808,4706.84499995232,0,NA,"Rating Scale","Rating Scale",17,"object-80","BIQ",NA,"SUPAMT59606"
"6",1695826098683,"27/09/2023 14:48:18",1695811698683,-4,"27/09/2023 06:48:18",144636,4,"task-gjqt",NA,31898734,9432150,NA,"complete","yvuxbq","3AQF3RZ55EH0UMVON4VG27PBDTW6FK","computer","Desktop or Laptop","Windows 10","Chrome 116.0.0.0","1280x1024","1280x875",NA,NA,0,"BIQ (Charlotte)",3,"IJHAGBFCED","Passed AC2","","Spreadsheet1",1,"BIQ","Screen 2","o21mwi",2,"continue","",3722.87499995232,3714.756,3722.87499995232,3722.87499995232,3714.756,3722.87499995232,1,3722.87499995232,0,0,NA,"Click To Continue","Continue Button",22,"object-50","BIQ",NA,"SUPAMT59606"
"7",1695826098685,"27/09/2023 14:48:18",1695811698685,-4,"27/09/2023 06:48:18",144636,4,"task-gjqt",NA,31898734,9432150,NA,"complete","yvuxbq","3AQF3RZ55EH0UMVON4VG27PBDTW6FK","computer","Desktop or Laptop","Windows 10","Chrome 116.0.0.0","1280x1024","1280x875",NA,NA,0,"BIQ (Charlotte)",3,"IJHAGBFCED","Passed AC2","","Spreadsheet1",1,"BIQ","Screen 2","o21mwi",2,"response","6",1587.012,3714.756,3725.075,1587.012,3714.756,3725.075,1,1587.012,2138.063,0,NA,"Rating Scale","Rating Scale",2,"object-259","BIQ",NA,"SUPAMT59606"
"8",1695826098686,"27/09/2023 14:48:18",1695811698686,-4,"27/09/2023 06:48:18",144636,4,"task-gjqt",NA,31898734,9432150,NA,"complete","yvuxbq","3AQF3RZ55EH0UMVON4VG27PBDTW6FK","computer","Desktop or Laptop","Windows 10","Chrome 116.0.0.0","1280x1024","1280x875",NA,NA,0,"BIQ (Charlotte)",3,"IJHAGBFCED","Passed AC2","","Spreadsheet1",1,"BIQ","Screen 2","o21mwi",2,"response","5",2173.46,3714.756,3725.47500009537,2173.46,3714.756,3725.47500009537,1,2173.46,1552.01500009537,0,NA,"Rating Scale","Rating Scale",9,"object-36","BIQ",NA,"SUPAMT59606"
"9",1695826098686,"27/09/2023 14:48:18",1695811698686,-4,"27/09/2023 06:48:18",144636,4,"task-gjqt",NA,31898734,9432150,NA,"complete","yvuxbq","3AQF3RZ55EH0UMVON4VG27PBDTW6FK","computer","Desktop or Laptop","Windows 10","Chrome 116.0.0.0","1280x1024","1280x875",NA,NA,0,"BIQ (Charlotte)",3,"IJHAGBFCED","Passed AC2","","Spreadsheet1",1,"BIQ","Screen 2","o21mwi",2,"response","7",2944.383,3714.756,3725.77500004768,2944.383,3714.756,3725.77500004768,1,2944.383,781.392000047683,0,NA,"Rating Scale","Rating Scale",16,"object-86","BIQ",NA,"SUPAMT59606"
"10",1695826103108,"27/09/2023 14:48:23",1695811703108,-4,"27/09/2023 06:48:23",144636,4,"task-gjqt",NA,31898734,9432150,NA,"complete","yvuxbq","3AQF3RZ55EH0UMVON4VG27PBDTW6FK","computer","Desktop or Laptop","Windows 10","Chrome 116.0.0.0","1280x1024","1280x875",NA,NA,0,"BIQ (Charlotte)",3,"IJHAGBFCED","Passed AC2","","Spreadsheet1",1,"BIQ","Screen 3","iz3the",3,"continue","",4433.319,4420.986,4433.319,4433.319,4420.986,4433.319,1,4433.319,0,0,NA,"Click To Continue","Continue Button",22,"object-73","BIQ",NA,"SUPAMT59606"
"11",1695826103109,"27/09/2023 14:48:23",1695811703109,-4,"27/09/2023 06:48:23",144636,4,"task-gjqt",NA,31898734,9432150,NA,"complete","yvuxbq","3AQF3RZ55EH0UMVON4VG27PBDTW6FK","computer","Desktop or Laptop","Windows 10","Chrome 116.0.0.0","1280x1024","1280x875",NA,NA,0,"BIQ (Charlotte)",3,"IJHAGBFCED","Passed AC2","","Spreadsheet1",1,"BIQ","Screen 3","iz3the",3,"response","6",2306.771,4420.986,4433.91900014305,2306.771,4420.986,4433.91900014305,1,2306.771,2127.14800014305,0,NA,"Rating Scale","Rating Scale",2,"object-53","BIQ",NA,"SUPAMT59606"
"12",1695826103109,"27/09/2023 14:48:23",1695811703109,-4,"27/09/2023 06:48:23",144636,4,"task-gjqt",NA,31898734,9432150,NA,"complete","yvuxbq","3AQF3RZ55EH0UMVON4VG27PBDTW6FK","computer","Desktop or Laptop","Windows 10","Chrome 116.0.0.0","1280x1024","1280x875",NA,NA,0,"BIQ (Charlotte)",3,"IJHAGBFCED","Passed AC2","","Spreadsheet1",1,"BIQ","Screen 3","iz3the",3,"response","7",2874.076,4420.986,4434.319,2874.076,4420.986,4434.319,1,2874.076,1560.243,0,NA,"Rating Scale","Rating Scale",9,"object-60","BIQ",NA,"SUPAMT59606"
"13",1695826103110,"27/09/2023 14:48:23",1695811703110,-4,"27/09/2023 06:48:23",144636,4,"task-gjqt",NA,31898734,9432150,NA,"complete","yvuxbq","3AQF3RZ55EH0UMVON4VG27PBDTW6FK","computer","Desktop or Laptop","Windows 10","Chrome 116.0.0.0","1280x1024","1280x875",NA,NA,0,"BIQ (Charlotte)",3,"IJHAGBFCED","Passed AC2","","Spreadsheet1",1,"BIQ","Screen 3","iz3the",3,"response","6",3541.983,4420.986,4434.71900009537,3541.983,4420.986,4434.71900009537,1,3541.983,892.736000095367,0,NA,"Rating Scale","Rating Scale",16,"object-67","BIQ",NA,"SUPAMT59606"
"14",1695826103111,"27/09/2023 14:48:23",1695811703111,-4,"27/09/2023 06:48:23",144636,4,"task-gjqt",NA,31898734,9432150,NA,"complete","yvuxbq","3AQF3RZ55EH0UMVON4VG27PBDTW6FK","computer","Desktop or Laptop","Windows 10","Chrome 116.0.0.0","1280x1024","1280x875",NA,NA,0,"BIQ (Charlotte)",3,"IJHAGBFCED","Passed AC2","","Spreadsheet1",NA,"","","",NA,"5","END",NA,NA,NA,NA,NA,NA,0,NA,NA,NA,NA,"","",NA,"","",NA,"SUPAMT59606"
"1",1695828250344,"27/09/2023 15:24:10",1695813850344,-4,"27/09/2023 07:24:10",144636,4,"task-gjqt",NA,31899950,9432771,NA,"complete","rpvtpu","37TRT2X24WQM50YF2L39SL3VK1UBJJ","computer","Desktop or Laptop","Windows 10","Chrome 116.0.0.0","1366x768","1707x773",NA,NA,0,"BIQ (Charlotte)",3,"IJHAGBFCED","Passed AC2","","Spreadsheet1",NA,"","","",NA,"5","BEGIN",NA,NA,NA,NA,NA,NA,0,NA,NA,NA,NA,"","",NA,"","",NA,"SUPAMT54803"
"2",1695828271164,"27/09/2023 15:24:31",1695813871164,-4,"27/09/2023 07:24:31",144636,4,"task-gjqt",NA,31899950,9432771,NA,"complete","rpvtpu","37TRT2X24WQM50YF2L39SL3VK1UBJJ","computer","Desktop or Laptop","Windows 10","Chrome 116.0.0.0","1366x768","1707x773",NA,NA,0,"BIQ (Charlotte)",3,"IJHAGBFCED","Passed AC2","","Spreadsheet1",1,"BIQ","Screen 1","9dh6eq",1,"continue","",20841.1310000477,20830.409,20841.1310000477,20841.1310000477,20830.409,20841.1310000477,1,20841.1310000477,0,0,NA,"Click To Continue","Continue Button",23,"object-48","BIQ",NA,"SUPAMT54803"
"3",1695828271166,"27/09/2023 15:24:31",1695813871166,-4,"27/09/2023 07:24:31",144636,4,"task-gjqt",NA,31899950,9432771,NA,"complete","rpvtpu","37TRT2X24WQM50YF2L39SL3VK1UBJJ","computer","Desktop or Laptop","Windows 10","Chrome 116.0.0.0","1366x768","1707x773",NA,NA,0,"BIQ (Charlotte)",3,"IJHAGBFCED","Passed AC2","","Spreadsheet1",1,"BIQ","Screen 1","9dh6eq",1,"response","7",1546.577,20830.409,20844.8309998569,1546.577,20830.409,20844.8309998569,1,1546.577,19298.2539998569,0,NA,"Rating Scale","Rating Scale",3,"object-5","BIQ",NA,"SUPAMT54803"
"4",1695828271167,"27/09/2023 15:24:31",1695813871167,-4,"27/09/2023 07:24:31",144636,4,"task-gjqt",NA,31899950,9432771,NA,"complete","rpvtpu","37TRT2X24WQM50YF2L39SL3VK1UBJJ","computer","Desktop or Laptop","Windows 10","Chrome 116.0.0.0","1366x768","1707x773",NA,NA,0,"BIQ (Charlotte)",3,"IJHAGBFCED","Passed AC2","","Spreadsheet1",1,"BIQ","Screen 1","9dh6eq",1,"response","7",2234.791,20830.409,20845.2309999523,2234.791,20830.409,20845.2309999523,1,2234.791,18610.4399999523,0,NA,"Rating Scale","Rating Scale",10,"object-18","BIQ",NA,"SUPAMT54803"
"5",1695828271167,"27/09/2023 15:24:31",1695813871167,-4,"27/09/2023 07:24:31",144636,4,"task-gjqt",NA,31899950,9432771,NA,"complete","rpvtpu","37TRT2X24WQM50YF2L39SL3VK1UBJJ","computer","Desktop or Laptop","Windows 10","Chrome 116.0.0.0","1366x768","1707x773",NA,NA,0,"BIQ (Charlotte)",3,"IJHAGBFCED","Passed AC2","","Spreadsheet1",1,"BIQ","Screen 1","9dh6eq",1,"response","6",3014.177,20830.409,20845.7309999523,3014.177,20830.409,20845.7309999523,1,3014.177,17831.5539999523,0,NA,"Rating Scale","Rating Scale",17,"object-80","BIQ",NA,"SUPAMT54803"
"6",1695828275954,"27/09/2023 15:24:35",1695813875954,-4,"27/09/2023 07:24:35",144636,4,"task-gjqt",NA,31899950,9432771,NA,"complete","rpvtpu","37TRT2X24WQM50YF2L39SL3VK1UBJJ","computer","Desktop or Laptop","Windows 10","Chrome 116.0.0.0","1366x768","1707x773",NA,NA,0,"BIQ (Charlotte)",3,"IJHAGBFCED","Passed AC2","","Spreadsheet1",1,"BIQ","Screen 2","o21mwi",2,"continue","",4801.752,4785.086,4801.752,4801.752,4785.086,4801.752,1,4801.752,0,0,NA,"Click To Continue","Continue Button",22,"object-50","BIQ",NA,"SUPAMT54803"
"7",1695828275954,"27/09/2023 15:24:35",1695813875954,-4,"27/09/2023 07:24:35",144636,4,"task-gjqt",NA,31899950,9432771,NA,"complete","rpvtpu","37TRT2X24WQM50YF2L39SL3VK1UBJJ","computer","Desktop or Laptop","Windows 10","Chrome 116.0.0.0","1366x768","1707x773",NA,NA,0,"BIQ (Charlotte)",3,"IJHAGBFCED","Passed AC2","","Spreadsheet1",1,"BIQ","Screen 2","o21mwi",2,"response","7",3109.012,4785.086,4801.752,3109.012,4785.086,4801.752,1,3109.012,1692.73999999999,0,NA,"Rating Scale","Rating Scale",2,"object-259","BIQ",NA,"SUPAMT54803"
"8",1695828275955,"27/09/2023 15:24:35",1695813875955,-4,"27/09/2023 07:24:35",144636,4,"task-gjqt",NA,31899950,9432771,NA,"complete","rpvtpu","37TRT2X24WQM50YF2L39SL3VK1UBJJ","computer","Desktop or Laptop","Windows 10","Chrome 116.0.0.0","1366x768","1707x773",NA,NA,0,"BIQ (Charlotte)",3,"IJHAGBFCED","Passed AC2","","Spreadsheet1",1,"BIQ","Screen 2","o21mwi",2,"response","6",3715.002,4785.086,4801.752,3715.002,4785.086,4801.752,1,3715.002,1086.75,0,NA,"Rating Scale","Rating Scale",9,"object-36","BIQ",NA,"SUPAMT54803"
"9",1695828275955,"27/09/2023 15:24:35",1695813875955,-4,"27/09/2023 07:24:35",144636,4,"task-gjqt",NA,31899950,9432771,NA,"complete","rpvtpu","37TRT2X24WQM50YF2L39SL3VK1UBJJ","computer","Desktop or Laptop","Windows 10","Chrome 116.0.0.0","1366x768","1707x773",NA,NA,0,"BIQ (Charlotte)",3,"IJHAGBFCED","Passed AC2","","Spreadsheet1",1,"BIQ","Screen 2","o21mwi",2,"response","7",4251.494,4785.086,4801.752,4251.494,4785.086,4801.752,1,4251.494,550.257999999994,0,NA,"Rating Scale","Rating Scale",16,"object-86","BIQ",NA,"SUPAMT54803"
"10",1695828296985,"27/09/2023 15:24:56",1695813896985,-4,"27/09/2023 07:24:56",144636,4,"task-gjqt",NA,31899950,9432771,NA,"complete","rpvtpu","37TRT2X24WQM50YF2L39SL3VK1UBJJ","computer","Desktop or Laptop","Windows 10","Chrome 116.0.0.0","1366x768","1707x773",NA,NA,0,"BIQ (Charlotte)",3,"IJHAGBFCED","Passed AC2","","Spreadsheet1",1,"BIQ","Screen 3","iz3the",3,"continue","",21048.436,21032.232,21048.436,21048.436,21032.232,21048.436,1,21048.436,0,0,NA,"Click To Continue","Continue Button",22,"object-73","BIQ",NA,"SUPAMT54803"
"11",1695828296989,"27/09/2023 15:24:56",1695813896989,-4,"27/09/2023 07:24:56",144636,4,"task-gjqt",NA,31899950,9432771,NA,"complete","rpvtpu","37TRT2X24WQM50YF2L39SL3VK1UBJJ","computer","Desktop or Laptop","Windows 10","Chrome 116.0.0.0","1366x768","1707x773",NA,NA,0,"BIQ (Charlotte)",3,"IJHAGBFCED","Passed AC2","","Spreadsheet1",1,"BIQ","Screen 3","iz3the",3,"response","7",19149.623,21032.232,21048.898,19149.623,21032.232,21048.898,1,19149.623,1899.27500000001,0,NA,"Rating Scale","Rating Scale",2,"object-53","BIQ",NA,"SUPAMT54803"
"12",1695828296990,"27/09/2023 15:24:56",1695813896990,-4,"27/09/2023 07:24:56",144636,4,"task-gjqt",NA,31899950,9432771,NA,"complete","rpvtpu","37TRT2X24WQM50YF2L39SL3VK1UBJJ","computer","Desktop or Laptop","Windows 10","Chrome 116.0.0.0","1366x768","1707x773",NA,NA,0,"BIQ (Charlotte)",3,"IJHAGBFCED","Passed AC2","","Spreadsheet1",1,"BIQ","Screen 3","iz3the",3,"response","6",19851.949,21032.232,21048.898,19851.949,21032.232,21048.898,1,19851.949,1196.94900000001,0,NA,"Rating Scale","Rating Scale",9,"object-60","BIQ",NA,"SUPAMT54803"
"13",1695828296990,"27/09/2023 15:24:56",1695813896990,-4,"27/09/2023 07:24:56",144636,4,"task-gjqt",NA,31899950,9432771,NA,"complete","rpvtpu","37TRT2X24WQM50YF2L39SL3VK1UBJJ","computer","Desktop or Laptop","Windows 10","Chrome 116.0.0.0","1366x768","1707x773",NA,NA,0,"BIQ (Charlotte)",3,"IJHAGBFCED","Passed AC2","","Spreadsheet1",1,"BIQ","Screen 3","iz3the",3,"response","6",20517.129,21032.232,21048.898,20517.129,21032.232,21048.898,1,20517.129,531.769000000008,0,NA,"Rating Scale","Rating Scale",16,"object-67","BIQ",NA,"SUPAMT54803"
"14",1695828296992,"27/09/2023 15:24:56",1695813896992,-4,"27/09/2023 07:24:56",144636,4,"task-gjqt",NA,31899950,9432771,NA,"complete","rpvtpu","37TRT2X24WQM50YF2L39SL3VK1UBJJ","computer","Desktop or Laptop","Windows 10","Chrome 116.0.0.0","1366x768","1707x773",NA,NA,0,"BIQ (Charlotte)",3,"IJHAGBFCED","Passed AC2","","Spreadsheet1",NA,"","","",NA,"5","END",NA,NA,NA,NA,NA,NA,0,NA,NA,NA,NA,"","",NA,"","",NA,"SUPAMT54803"
"1",1695828260543,"27/09/2023 15:24:20",1695813860543,-4,"27/09/2023 07:24:20",144636,4,"task-gjqt",NA,31899953,9432753,NA,"complete","tmiiem","3KXIR214IAF2E5FYGLNULQB88YR42J","computer","Desktop or Laptop","Windows 10","Chrome 116.0.0.0","1366x768","1366x619",NA,NA,0,"BIQ (Charlotte)",3,"HIGJFAEBDC","Passed AC2","","Spreadsheet1",NA,"","","",NA,"5","BEGIN",NA,NA,NA,NA,NA,NA,0,NA,NA,NA,NA,"","",NA,"","",NA,"SUPAMT40213"
"2",1695828314400,"27/09/2023 15:25:14",1695813914400,-4,"27/09/2023 07:25:14",144636,4,"task-gjqt",NA,31899953,9432753,NA,"complete","tmiiem","3KXIR214IAF2E5FYGLNULQB88YR42J","computer","Desktop or Laptop","Windows 10","Chrome 116.0.0.0","1366x768","1366x619",NA,NA,0,"BIQ (Charlotte)",3,"HIGJFAEBDC","Passed AC2","","Spreadsheet1",1,"BIQ","Screen 1","9dh6eq",1,"continue","",53873.897,53857.231,53873.897,53873.897,53857.231,53873.897,1,53873.897,0,0,NA,"Click To Continue","Continue Button",23,"object-48","BIQ",NA,"SUPAMT40213"
"3",1695828314403,"27/09/2023 15:25:14",1695813914403,-4,"27/09/2023 07:25:14",144636,4,"task-gjqt",NA,31899953,9432753,NA,"complete","tmiiem","3KXIR214IAF2E5FYGLNULQB88YR42J","computer","Desktop or Laptop","Windows 10","Chrome 116.0.0.0","1366x768","1366x619",NA,NA,0,"BIQ (Charlotte)",3,"HIGJFAEBDC","Passed AC2","","Spreadsheet1",1,"BIQ","Screen 1","9dh6eq",1,"response","7",5731.378,53857.231,53873.897,5731.378,53857.231,53873.897,1,5731.378,48142.519,0,NA,"Rating Scale","Rating Scale",3,"object-5","BIQ",NA,"SUPAMT40213"
"4",1695828314403,"27/09/2023 15:25:14",1695813914403,-4,"27/09/2023 07:25:14",144636,4,"task-gjqt",NA,31899953,9432753,NA,"complete","tmiiem","3KXIR214IAF2E5FYGLNULQB88YR42J","computer","Desktop or Laptop","Windows 10","Chrome 116.0.0.0","1366x768","1366x619",NA,NA,0,"BIQ (Charlotte)",3,"HIGJFAEBDC","Passed AC2","","Spreadsheet1",1,"BIQ","Screen 1","9dh6eq",1,"response","6",6472.101,53857.231,53873.897,6472.101,53857.231,53873.897,1,6472.101,47401.796,0,NA,"Rating Scale","Rating Scale",10,"object-18","BIQ",NA,"SUPAMT40213"
"5",1695828314404,"27/09/2023 15:25:14",1695813914404,-4,"27/09/2023 07:25:14",144636,4,"task-gjqt",NA,31899953,9432753,NA,"complete","tmiiem","3KXIR214IAF2E5FYGLNULQB88YR42J","computer","Desktop or Laptop","Windows 10","Chrome 116.0.0.0","1366x768","1366x619",NA,NA,0,"BIQ (Charlotte)",3,"HIGJFAEBDC","Passed AC2","","Spreadsheet1",1,"BIQ","Screen 1","9dh6eq",1,"response","7",13200.616,53857.231,53873.897,13200.616,53857.231,53873.897,1,13200.616,40673.281,0,NA,"Rating Scale","Rating Scale",17,"object-80","BIQ",NA,"SUPAMT40213"
"6",1695828330455,"27/09/2023 15:25:30",1695813930455,-4,"27/09/2023 07:25:30",144636,4,"task-gjqt",NA,31899953,9432753,NA,"complete","tmiiem","3KXIR214IAF2E5FYGLNULQB88YR42J","computer","Desktop or Laptop","Windows 10","Chrome 116.0.0.0","1366x768","1366x619",NA,NA,0,"BIQ (Charlotte)",3,"HIGJFAEBDC","Passed AC2","","Spreadsheet1",1,"BIQ","Screen 2","o21mwi",2,"continue","",16072.864,16066.475,16072.864,16072.864,16066.475,16072.864,1,16072.864,0,0,NA,"Click To Continue","Continue Button",22,"object-50","BIQ",NA,"SUPAMT40213"
"7",1695828330457,"27/09/2023 15:25:30",1695813930457,-4,"27/09/2023 07:25:30",144636,4,"task-gjqt",NA,31899953,9432753,NA,"complete","tmiiem","3KXIR214IAF2E5FYGLNULQB88YR42J","computer","Desktop or Laptop","Windows 10","Chrome 116.0.0.0","1366x768","1366x619",NA,NA,0,"BIQ (Charlotte)",3,"HIGJFAEBDC","Passed AC2","","Spreadsheet1",1,"BIQ","Screen 2","o21mwi",2,"response","7",13907.832,16066.475,16075.1639999523,13907.832,16066.475,16075.1639999523,1,13907.832,2167.33199995232,0,NA,"Rating Scale","Rating Scale",2,"object-259","BIQ",NA,"SUPAMT40213"
"8",1695828330458,"27/09/2023 15:25:30",1695813930458,-4,"27/09/2023 07:25:30",144636,4,"task-gjqt",NA,31899953,9432753,NA,"complete","tmiiem","3KXIR214IAF2E5FYGLNULQB88YR42J","computer","Desktop or Laptop","Windows 10","Chrome 116.0.0.0","1366x768","1366x619",NA,NA,0,"BIQ (Charlotte)",3,"HIGJFAEBDC","Passed AC2","","Spreadsheet1",1,"BIQ","Screen 2","o21mwi",2,"response","6",14687.946,16066.475,16076.4640001431,14687.946,16066.475,16076.4640001431,1,14687.946,1388.51800014306,0,NA,"Rating Scale","Rating Scale",9,"object-36","BIQ",NA,"SUPAMT40213"
"9",1695828330459,"27/09/2023 15:25:30",1695813930459,-4,"27/09/2023 07:25:30",144636,4,"task-gjqt",NA,31899953,9432753,NA,"complete","tmiiem","3KXIR214IAF2E5FYGLNULQB88YR42J","computer","Desktop or Laptop","Windows 10","Chrome 116.0.0.0","1366x768","1366x619",NA,NA,0,"BIQ (Charlotte)",3,"HIGJFAEBDC","Passed AC2","","Spreadsheet1",1,"BIQ","Screen 2","o21mwi",2,"response","5",15348.963,16066.475,16076.9640001431,15348.963,16066.475,16076.9640001431,1,15348.963,728.001000143049,0,NA,"Rating Scale","Rating Scale",16,"object-86","BIQ",NA,"SUPAMT40213"
"10",1695828335222,"27/09/2023 15:25:35",1695813935222,-4,"27/09/2023 07:25:35",144636,4,"task-gjqt",NA,31899953,9432753,NA,"complete","tmiiem","3KXIR214IAF2E5FYGLNULQB88YR42J","computer","Desktop or Laptop","Windows 10","Chrome 116.0.0.0","1366x768","1366x619",NA,NA,0,"BIQ (Charlotte)",3,"HIGJFAEBDC","Passed AC2","","Spreadsheet1",1,"BIQ","Screen 3","iz3the",3,"continue","",4774.08900004768,4769.867,4774.08900004768,4774.08900004768,4769.867,4774.08900004768,1,4774.08900004768,0,0,NA,"Click To Continue","Continue Button",22,"object-73","BIQ",NA,"SUPAMT40213"
"11",1695828335223,"27/09/2023 15:25:35",1695813935223,-4,"27/09/2023 07:25:35",144636,4,"task-gjqt",NA,31899953,9432753,NA,"complete","tmiiem","3KXIR214IAF2E5FYGLNULQB88YR42J","computer","Desktop or Laptop","Windows 10","Chrome 116.0.0.0","1366x768","1366x619",NA,NA,0,"BIQ (Charlotte)",3,"HIGJFAEBDC","Passed AC2","","Spreadsheet1",1,"BIQ","Screen 3","iz3the",3,"response","6",1993.95,4769.867,4774.78900009536,1993.95,4769.867,4774.78900009536,1,1993.95,2780.83900009537,0,NA,"Rating Scale","Rating Scale",2,"object-53","BIQ",NA,"SUPAMT40213"
"12",1695828335223,"27/09/2023 15:25:35",1695813935223,-4,"27/09/2023 07:25:35",144636,4,"task-gjqt",NA,31899953,9432753,NA,"complete","tmiiem","3KXIR214IAF2E5FYGLNULQB88YR42J","computer","Desktop or Laptop","Windows 10","Chrome 116.0.0.0","1366x768","1366x619",NA,NA,0,"BIQ (Charlotte)",3,"HIGJFAEBDC","Passed AC2","","Spreadsheet1",1,"BIQ","Screen 3","iz3the",3,"response","4",3282.594,4769.867,4775.28900009536,3282.594,4769.867,4775.28900009536,1,3282.594,1492.69500009537,0,NA,"Rating Scale","Rating Scale",9,"object-60","BIQ",NA,"SUPAMT40213"
"13",1695828335224,"27/09/2023 15:25:35",1695813935224,-4,"27/09/2023 07:25:35",144636,4,"task-gjqt",NA,31899953,9432753,NA,"complete","tmiiem","3KXIR214IAF2E5FYGLNULQB88YR42J","computer","Desktop or Laptop","Windows 10","Chrome 116.0.0.0","1366x768","1366x619",NA,NA,0,"BIQ (Charlotte)",3,"HIGJFAEBDC","Passed AC2","","Spreadsheet1",1,"BIQ","Screen 3","iz3the",3,"response","5",3890.961,4769.867,4775.68899995231,3890.961,4769.867,4775.68899995231,1,3890.961,884.727999952316,0,NA,"Rating Scale","Rating Scale",16,"object-67","BIQ",NA,"SUPAMT40213"
"14",1695828335225,"27/09/2023 15:25:35",1695813935225,-4,"27/09/2023 07:25:35",144636,4,"task-gjqt",NA,31899953,9432753,NA,"complete","tmiiem","3KXIR214IAF2E5FYGLNULQB88YR42J","computer","Desktop or Laptop","Windows 10","Chrome 116.0.0.0","1366x768","1366x619",NA,NA,0,"BIQ (Charlotte)",3,"HIGJFAEBDC","Passed AC2","","Spreadsheet1",NA,"","","",NA,"5","END",NA,NA,NA,NA,NA,NA,0,NA,NA,NA,NA,"","",NA,"","",NA,"SUPAMT40213"
"1",1695828659519,"27/09/2023 15:30:59",1695814259519,-4,"27/09/2023 07:30:59",144636,4,"task-gjqt",NA,31900156,9432855,NA,"complete","zmhkod","3J2UYBXQQRB9XIGYKMCVZ0277RE06H","computer","Desktop or Laptop","Windows 10","Chrome 117.0.0.0","1366x768","1366x619",NA,NA,0,"BIQ (Charlotte)",3,"EFDGCHBIAJ","Passed AC2","","Spreadsheet1",NA,"","","",NA,"5","BEGIN",NA,NA,NA,NA,NA,NA,0,NA,NA,NA,NA,"","",NA,"","",NA,"SUPAMT01454"
"2",1695828665966,"27/09/2023 15:31:05",1695814265966,-4,"27/09/2023 07:31:05",144636,4,"task-gjqt",NA,31900156,9432855,NA,"complete","zmhkod","3J2UYBXQQRB9XIGYKMCVZ0277RE06H","computer","Desktop or Laptop","Windows 10","Chrome 117.0.0.0","1366x768","1366x619",NA,NA,0,"BIQ (Charlotte)",3,"EFDGCHBIAJ","Passed AC2","","Spreadsheet1",1,"BIQ","Screen 1","9dh6eq",1,"continue","",6469.84700001192,6456.274,6469.84700001192,6469.84700001192,6456.274,6469.84700001192,1,6469.84700001192,0,0,NA,"Click To Continue","Continue Button",23,"object-48","BIQ",NA,"SUPAMT01454"
"3",1695828665967,"27/09/2023 15:31:05",1695814265967,-4,"27/09/2023 07:31:05",144636,4,"task-gjqt",NA,31900156,9432855,NA,"complete","zmhkod","3J2UYBXQQRB9XIGYKMCVZ0277RE06H","computer","Desktop or Laptop","Windows 10","Chrome 117.0.0.0","1366x768","1366x619",NA,NA,0,"BIQ (Charlotte)",3,"EFDGCHBIAJ","Passed AC2","","Spreadsheet1",1,"BIQ","Screen 1","9dh6eq",1,"response","6",4134.318,6456.274,6473.14700002384,4134.318,6456.274,6473.14700002384,1,4134.318,2338.82900002384,0,NA,"Rating Scale","Rating Scale",3,"object-5","BIQ",NA,"SUPAMT01454"
"4",1695828665968,"27/09/2023 15:31:05",1695814265968,-4,"27/09/2023 07:31:05",144636,4,"task-gjqt",NA,31900156,9432855,NA,"complete","zmhkod","3J2UYBXQQRB9XIGYKMCVZ0277RE06H","computer","Desktop or Laptop","Windows 10","Chrome 117.0.0.0","1366x768","1366x619",NA,NA,0,"BIQ (Charlotte)",3,"EFDGCHBIAJ","Passed AC2","","Spreadsheet1",1,"BIQ","Screen 1","9dh6eq",1,"response","7",4992.081,6456.274,6473.84700001192,4992.081,6456.274,6473.84700001192,1,4992.081,1481.76600001192,0,NA,"Rating Scale","Rating Scale",10,"object-18","BIQ",NA,"SUPAMT01454"
"5",1695828665968,"27/09/2023 15:31:05",1695814265968,-4,"27/09/2023 07:31:05",144636,4,"task-gjqt",NA,31900156,9432855,NA,"complete","zmhkod","3J2UYBXQQRB9XIGYKMCVZ0277RE06H","computer","Desktop or Laptop","Windows 10","Chrome 117.0.0.0","1366x768","1366x619",NA,NA,0,"BIQ (Charlotte)",3,"EFDGCHBIAJ","Passed AC2","","Spreadsheet1",1,"BIQ","Screen 1","9dh6eq",1,"response","8",5503.812,6456.274,6474.44700003576,5503.812,6456.274,6474.44700003576,1,5503.812,970.635000035763,0,NA,"Rating Scale","Rating Scale",17,"object-80","BIQ",NA,"SUPAMT01454"
"6",1695828675913,"27/09/2023 15:31:15",1695814275913,-4,"27/09/2023 07:31:15",144636,4,"task-gjqt",NA,31900156,9432855,NA,"complete","zmhkod","3J2UYBXQQRB9XIGYKMCVZ0277RE06H","computer","Desktop or Laptop","Windows 10","Chrome 117.0.0.0","1366x768","1366x619",NA,NA,0,"BIQ (Charlotte)",3,"EFDGCHBIAJ","Passed AC2","","Spreadsheet1",1,"BIQ","Screen 2","o21mwi",2,"continue","",9963.07300001192,9945.615,9963.07300001192,9963.07300001192,9945.615,9963.07300001192,1,9963.07300001192,0,0,NA,"Click To Continue","Continue Button",22,"object-50","BIQ",NA,"SUPAMT01454"
"7",1695828675917,"27/09/2023 15:31:15",1695814275917,-4,"27/09/2023 07:31:15",144636,4,"task-gjqt",NA,31900156,9432855,NA,"complete","zmhkod","3J2UYBXQQRB9XIGYKMCVZ0277RE06H","computer","Desktop or Laptop","Windows 10","Chrome 117.0.0.0","1366x768","1366x619",NA,NA,0,"BIQ (Charlotte)",3,"EFDGCHBIAJ","Passed AC2","","Spreadsheet1",1,"BIQ","Screen 2","o21mwi",2,"response","8",3741.202,9945.615,9966.97299998808,3741.202,9945.615,9966.97299998808,1,3741.202,6225.77099998808,0,NA,"Rating Scale","Rating Scale",2,"object-259","BIQ",NA,"SUPAMT01454"
"8",1695828675918,"27/09/2023 15:31:15",1695814275918,-4,"27/09/2023 07:31:15",144636,4,"task-gjqt",NA,31900156,9432855,NA,"complete","zmhkod","3J2UYBXQQRB9XIGYKMCVZ0277RE06H","computer","Desktop or Laptop","Windows 10","Chrome 117.0.0.0","1366x768","1366x619",NA,NA,0,"BIQ (Charlotte)",3,"EFDGCHBIAJ","Passed AC2","","Spreadsheet1",1,"BIQ","Screen 2","o21mwi",2,"response","7",5020.917,9945.615,9967.773,5020.917,9945.615,9967.773,1,5020.917,4946.856,0,NA,"Rating Scale","Rating Scale",9,"object-36","BIQ",NA,"SUPAMT01454"
"9",1695828675919,"27/09/2023 15:31:15",1695814275919,-4,"27/09/2023 07:31:15",144636,4,"task-gjqt",NA,31900156,9432855,NA,"complete","zmhkod","3J2UYBXQQRB9XIGYKMCVZ0277RE06H","computer","Desktop or Laptop","Windows 10","Chrome 117.0.0.0","1366x768","1366x619",NA,NA,0,"BIQ (Charlotte)",3,"EFDGCHBIAJ","Passed AC2","","Spreadsheet1",1,"BIQ","Screen 2","o21mwi",2,"response","6",8852.59,9945.615,9968.773,8852.59,9945.615,9968.773,1,8852.59,1116.183,0,NA,"Rating Scale","Rating Scale",16,"object-86","BIQ",NA,"SUPAMT01454"
"10",1695828724959,"27/09/2023 15:32:04",1695814324959,-4,"27/09/2023 07:32:04",144636,4,"task-gjqt",NA,31900156,9432855,NA,"complete","zmhkod","3J2UYBXQQRB9XIGYKMCVZ0277RE06H","computer","Desktop or Laptop","Windows 10","Chrome 117.0.0.0","1366x768","1366x619",NA,NA,0,"BIQ (Charlotte)",3,"EFDGCHBIAJ","Passed AC2","","Spreadsheet1",1,"BIQ","Screen 3","iz3the",3,"continue","",49063.2580000238,49055.73,49063.2580000238,49063.2580000238,49055.73,49063.2580000238,1,49063.2580000238,0,0,NA,"Click To Continue","Continue Button",22,"object-73","BIQ",NA,"SUPAMT01454"
"11",1695828724964,"27/09/2023 15:32:04",1695814324964,-4,"27/09/2023 07:32:04",144636,4,"task-gjqt",NA,31900156,9432855,NA,"complete","zmhkod","3J2UYBXQQRB9XIGYKMCVZ0277RE06H","computer","Desktop or Laptop","Windows 10","Chrome 117.0.0.0","1366x768","1366x619",NA,NA,0,"BIQ (Charlotte)",3,"EFDGCHBIAJ","Passed AC2","","Spreadsheet1",1,"BIQ","Screen 3","iz3the",3,"response","5",45740.209,49055.73,49068.5580000358,45740.209,49055.73,49068.5580000358,1,45740.209,3328.34900003576,0,NA,"Rating Scale","Rating Scale",2,"object-53","BIQ",NA,"SUPAMT01454"
"12",1695828724965,"27/09/2023 15:32:04",1695814324965,-4,"27/09/2023 07:32:04",144636,4,"task-gjqt",NA,31900156,9432855,NA,"complete","zmhkod","3J2UYBXQQRB9XIGYKMCVZ0277RE06H","computer","Desktop or Laptop","Windows 10","Chrome 117.0.0.0","1366x768","1366x619",NA,NA,0,"BIQ (Charlotte)",3,"EFDGCHBIAJ","Passed AC2","","Spreadsheet1",1,"BIQ","Screen 3","iz3the",3,"response","6",46663.503,49055.73,49069.4580000119,46663.503,49055.73,49069.4580000119,1,46663.503,2405.95500001192,0,NA,"Rating Scale","Rating Scale",9,"object-60","BIQ",NA,"SUPAMT01454"
"13",1695828724966,"27/09/2023 15:32:04",1695814324966,-4,"27/09/2023 07:32:04",144636,4,"task-gjqt",NA,31900156,9432855,NA,"complete","zmhkod","3J2UYBXQQRB9XIGYKMCVZ0277RE06H","computer","Desktop or Laptop","Windows 10","Chrome 117.0.0.0","1366x768","1366x619",NA,NA,0,"BIQ (Charlotte)",3,"EFDGCHBIAJ","Passed AC2","","Spreadsheet1",1,"BIQ","Screen 3","iz3the",3,"response","7",47700.743,49055.73,49070.4580000119,47700.743,49055.73,49070.4580000119,1,47700.743,1369.71500001191,0,NA,"Rating Scale","Rating Scale",16,"object-67","BIQ",NA,"SUPAMT01454"
"14",1695828724971,"27/09/2023 15:32:04",1695814324971,-4,"27/09/2023 07:32:04",144636,4,"task-gjqt",NA,31900156,9432855,NA,"complete","zmhkod","3J2UYBXQQRB9XIGYKMCVZ0277RE06H","computer","Desktop or Laptop","Windows 10","Chrome 117.0.0.0","1366x768","1366x619",NA,NA,0,"BIQ (Charlotte)",3,"EFDGCHBIAJ","Passed AC2","","Spreadsheet1",NA,"","","",NA,"5","END",NA,NA,NA,NA,NA,NA,0,NA,NA,NA,NA,"","",NA,"","",NA,"SUPAMT01454"
"1",1695829912219,"27/09/2023 15:51:52",1695815512219,-4,"27/09/2023 07:51:52",144636,4,"task-gjqt",NA,31900714,9432975,NA,"complete","ekwfxs","33M4IA01QM0AGRKTFM40J9GEDLFRX3","computer","Desktop or Laptop","Windows 10","Chrome 116.0.0.0","1366x768","1366x651",NA,NA,0,"BIQ (Charlotte)",3,"FGEHDICJBA","Passed AC2","","Spreadsheet1",NA,"","","",NA,"5","BEGIN",NA,NA,NA,NA,NA,NA,0,NA,NA,NA,NA,"","",NA,"","",NA,"SUPAMT51338"
"2",1695829947518,"27/09/2023 15:52:27",1695815547518,-4,"27/09/2023 07:52:27",144636,4,"task-gjqt",NA,31900714,9432975,NA,"complete","ekwfxs","33M4IA01QM0AGRKTFM40J9GEDLFRX3","computer","Desktop or Laptop","Windows 10","Chrome 116.0.0.0","1366x768","1366x651",NA,NA,0,"BIQ (Charlotte)",3,"FGEHDICJBA","Passed AC2","","Spreadsheet1",1,"BIQ","Screen 1","9dh6eq",1,"continue","",35335.5,35312.5,35335.5,35335.5,35312.5,35335.5,1,35335.5,0,0,NA,"Click To Continue","Continue Button",23,"object-48","BIQ",NA,"SUPAMT51338"
"3",1695829947521,"27/09/2023 15:52:27",1695815547521,-4,"27/09/2023 07:52:27",144636,4,"task-gjqt",NA,31900714,9432975,NA,"complete","ekwfxs","33M4IA01QM0AGRKTFM40J9GEDLFRX3","computer","Desktop or Laptop","Windows 10","Chrome 116.0.0.0","1366x768","1366x651",NA,NA,0,"BIQ (Charlotte)",3,"FGEHDICJBA","Passed AC2","","Spreadsheet1",1,"BIQ","Screen 1","9dh6eq",1,"response","6",29375,35312.5,35343.5,29375,35312.5,35343.5,1,29375,5968.5,0,NA,"Rating Scale","Rating Scale",3,"object-5","BIQ",NA,"SUPAMT51338"
"4",1695829947521,"27/09/2023 15:52:27",1695815547521,-4,"27/09/2023 07:52:27",144636,4,"task-gjqt",NA,31900714,9432975,NA,"complete","ekwfxs","33M4IA01QM0AGRKTFM40J9GEDLFRX3","computer","Desktop or Laptop","Windows 10","Chrome 116.0.0.0","1366x768","1366x651",NA,NA,0,"BIQ (Charlotte)",3,"FGEHDICJBA","Passed AC2","","Spreadsheet1",1,"BIQ","Screen 1","9dh6eq",1,"response","4",30468.75,35312.5,35343.75,30468.75,35312.5,35343.75,1,30468.75,4875,0,NA,"Rating Scale","Rating Scale",10,"object-18","BIQ",NA,"SUPAMT51338"
"5",1695829947522,"27/09/2023 15:52:27",1695815547522,-4,"27/09/2023 07:52:27",144636,4,"task-gjqt",NA,31900714,9432975,NA,"complete","ekwfxs","33M4IA01QM0AGRKTFM40J9GEDLFRX3","computer","Desktop or Laptop","Windows 10","Chrome 116.0.0.0","1366x768","1366x651",NA,NA,0,"BIQ (Charlotte)",3,"FGEHDICJBA","Passed AC2","","Spreadsheet1",1,"BIQ","Screen 1","9dh6eq",1,"response","5",31156.25,35312.5,35343.75,31156.25,35312.5,35343.75,1,31156.25,4187.5,0,NA,"Rating Scale","Rating Scale",17,"object-80","BIQ",NA,"SUPAMT51338"
"6",1695829965872,"27/09/2023 15:52:45",1695815565872,-4,"27/09/2023 07:52:45",144636,4,"task-gjqt",NA,31900714,9432975,NA,"complete","ekwfxs","33M4IA01QM0AGRKTFM40J9GEDLFRX3","computer","Desktop or Laptop","Windows 10","Chrome 116.0.0.0","1366x768","1366x651",NA,NA,0,"BIQ (Charlotte)",3,"FGEHDICJBA","Passed AC2","","Spreadsheet1",1,"BIQ","Screen 2","o21mwi",2,"continue","",18383,18375,18383,18383,18375,18383,1,18383,0,0,NA,"Click To Continue","Continue Button",22,"object-50","BIQ",NA,"SUPAMT51338"
"7",1695829965876,"27/09/2023 15:52:45",1695815565876,-4,"27/09/2023 07:52:45",144636,4,"task-gjqt",NA,31900714,9432975,NA,"complete","ekwfxs","33M4IA01QM0AGRKTFM40J9GEDLFRX3","computer","Desktop or Laptop","Windows 10","Chrome 116.0.0.0","1366x768","1366x651",NA,NA,0,"BIQ (Charlotte)",3,"FGEHDICJBA","Passed AC2","","Spreadsheet1",1,"BIQ","Screen 2","o21mwi",2,"response","5",17000,18375,18387,17000,18375,18387,1,17000,1387,0,NA,"Rating Scale","Rating Scale",2,"object-259","BIQ",NA,"SUPAMT51338"
"8",1695829965877,"27/09/2023 15:52:45",1695815565877,-4,"27/09/2023 07:52:45",144636,4,"task-gjqt",NA,31900714,9432975,NA,"complete","ekwfxs","33M4IA01QM0AGRKTFM40J9GEDLFRX3","computer","Desktop or Laptop","Windows 10","Chrome 116.0.0.0","1366x768","1366x651",NA,NA,0,"BIQ (Charlotte)",3,"FGEHDICJBA","Passed AC2","","Spreadsheet1",1,"BIQ","Screen 2","o21mwi",2,"response","4",17156.25,18375,18388,17156.25,18375,18388,1,17156.25,1231.75,0,NA,"Rating Scale","Rating Scale",9,"object-36","BIQ",NA,"SUPAMT51338"
"9",1695829965877,"27/09/2023 15:52:45",1695815565877,-4,"27/09/2023 07:52:45",144636,4,"task-gjqt",NA,31900714,9432975,NA,"complete","ekwfxs","33M4IA01QM0AGRKTFM40J9GEDLFRX3","computer","Desktop or Laptop","Windows 10","Chrome 116.0.0.0","1366x768","1366x651",NA,NA,0,"BIQ (Charlotte)",3,"FGEHDICJBA","Passed AC2","","Spreadsheet1",1,"BIQ","Screen 2","o21mwi",2,"response","5",17625,18375,18388,17625,18375,18388,1,17625,763,0,NA,"Rating Scale","Rating Scale",16,"object-86","BIQ",NA,"SUPAMT51338"
"10",1695830061082,"27/09/2023 15:54:21",1695815661082,-4,"27/09/2023 07:54:21",144636,4,"task-gjqt",NA,31900714,9432975,NA,"complete","ekwfxs","33M4IA01QM0AGRKTFM40J9GEDLFRX3","computer","Desktop or Laptop","Windows 10","Chrome 116.0.0.0","1366x768","1366x651",NA,NA,0,"BIQ (Charlotte)",3,"FGEHDICJBA","Passed AC2","","Spreadsheet1",1,"BIQ","Screen 3","iz3the",3,"continue","",95218,95187.5,95218,95218,95187.5,95218,1,95218,0,0,NA,"Click To Continue","Continue Button",22,"object-73","BIQ",NA,"SUPAMT51338"
"11",1695830061086,"27/09/2023 15:54:21",1695815661086,-4,"27/09/2023 07:54:21",144636,4,"task-gjqt",NA,31900714,9432975,NA,"complete","ekwfxs","33M4IA01QM0AGRKTFM40J9GEDLFRX3","computer","Desktop or Laptop","Windows 10","Chrome 116.0.0.0","1366x768","1366x651",NA,NA,0,"BIQ (Charlotte)",3,"FGEHDICJBA","Passed AC2","","Spreadsheet1",1,"BIQ","Screen 3","iz3the",3,"response","4",93437.5,95187.5,95218.75,93437.5,95187.5,95218.75,1,93437.5,1781.25,0,NA,"Rating Scale","Rating Scale",2,"object-53","BIQ",NA,"SUPAMT51338"
"12",1695830061086,"27/09/2023 15:54:21",1695815661086,-4,"27/09/2023 07:54:21",144636,4,"task-gjqt",NA,31900714,9432975,NA,"complete","ekwfxs","33M4IA01QM0AGRKTFM40J9GEDLFRX3","computer","Desktop or Laptop","Windows 10","Chrome 116.0.0.0","1366x768","1366x651",NA,NA,0,"BIQ (Charlotte)",3,"FGEHDICJBA","Passed AC2","","Spreadsheet1",1,"BIQ","Screen 3","iz3the",3,"response","5",93843.75,95187.5,95218.75,93843.75,95187.5,95218.75,1,93843.75,1375,0,NA,"Rating Scale","Rating Scale",9,"object-60","BIQ",NA,"SUPAMT51338"
"13",1695830061087,"27/09/2023 15:54:21",1695815661087,-4,"27/09/2023 07:54:21",144636,4,"task-gjqt",NA,31900714,9432975,NA,"complete","ekwfxs","33M4IA01QM0AGRKTFM40J9GEDLFRX3","computer","Desktop or Laptop","Windows 10","Chrome 116.0.0.0","1366x768","1366x651",NA,NA,0,"BIQ (Charlotte)",3,"FGEHDICJBA","Passed AC2","","Spreadsheet1",1,"BIQ","Screen 3","iz3the",3,"response","4",94281.25,95187.5,95218.75,94281.25,95187.5,95218.75,1,94281.25,937.5,0,NA,"Rating Scale","Rating Scale",16,"object-67","BIQ",NA,"SUPAMT51338"
"14",1695830061088,"27/09/2023 15:54:21",1695815661088,-4,"27/09/2023 07:54:21",144636,4,"task-gjqt",NA,31900714,9432975,NA,"complete","ekwfxs","33M4IA01QM0AGRKTFM40J9GEDLFRX3","computer","Desktop or Laptop","Windows 10","Chrome 116.0.0.0","1366x768","1366x651",NA,NA,0,"BIQ (Charlotte)",3,"FGEHDICJBA","Passed AC2","","Spreadsheet1",NA,"","","",NA,"5","END",NA,NA,NA,NA,NA,NA,0,NA,NA,NA,NA,"","",NA,"","",NA,"SUPAMT51338"
"1",1695797131572,"27/09/2023 06:45:31",1695816931572,5.5,"27/09/2023 17:45:31",144636,4,"task-gjqt",NA,31901376,9433024,NA,"complete","gaecgl","3GA6AFUKOUNLBZZCZSLIYPP4JHEH3U","computer","Desktop or Laptop","Windows 10","Chrome 116.0.0.0","1536x864","1536x715",NA,NA,0,"BIQ (Charlotte)",3,"JAIBHCGDFE","Passed AC2","","Spreadsheet1",NA,"","","",NA,"5","BEGIN",NA,NA,NA,NA,NA,NA,0,NA,NA,NA,NA,"","",NA,"","",NA,"SUPAMT90670"
"2",1695797142908,"27/09/2023 06:45:42",1695816942908,5.5,"27/09/2023 17:45:42",144636,4,"task-gjqt",NA,31901376,9433024,NA,"complete","gaecgl","3GA6AFUKOUNLBZZCZSLIYPP4JHEH3U","computer","Desktop or Laptop","Windows 10","Chrome 116.0.0.0","1536x864","1536x715",NA,NA,0,"BIQ (Charlotte)",3,"JAIBHCGDFE","Passed AC2","","Spreadsheet1",1,"BIQ","Screen 1","9dh6eq",1,"continue","",11370.7,11366.212,11370.7,11370.7,11366.212,11370.7,1,11370.7,0,0,NA,"Click To Continue","Continue Button",23,"object-48","BIQ",NA,"SUPAMT90670"
"3",1695797142913,"27/09/2023 06:45:42",1695816942913,5.5,"27/09/2023 17:45:42",144636,4,"task-gjqt",NA,31901376,9433024,NA,"complete","gaecgl","3GA6AFUKOUNLBZZCZSLIYPP4JHEH3U","computer","Desktop or Laptop","Windows 10","Chrome 116.0.0.0","1536x864","1536x715",NA,NA,0,"BIQ (Charlotte)",3,"JAIBHCGDFE","Passed AC2","","Spreadsheet1",1,"BIQ","Screen 1","9dh6eq",1,"response","5",9549.618,11366.212,11376.7,9549.618,11366.212,11376.7,1,9549.618,1827.082,0,NA,"Rating Scale","Rating Scale",3,"object-5","BIQ",NA,"SUPAMT90670"
"4",1695797142914,"27/09/2023 06:45:42",1695816942914,5.5,"27/09/2023 17:45:42",144636,4,"task-gjqt",NA,31901376,9433024,NA,"complete","gaecgl","3GA6AFUKOUNLBZZCZSLIYPP4JHEH3U","computer","Desktop or Laptop","Windows 10","Chrome 116.0.0.0","1536x864","1536x715",NA,NA,0,"BIQ (Charlotte)",3,"JAIBHCGDFE","Passed AC2","","Spreadsheet1",1,"BIQ","Screen 1","9dh6eq",1,"response","4",10016.266,11366.212,11378.7,10016.266,11366.212,11378.7,1,10016.266,1362.434,0,NA,"Rating Scale","Rating Scale",10,"object-18","BIQ",NA,"SUPAMT90670"
"5",1695797142915,"27/09/2023 06:45:42",1695816942915,5.5,"27/09/2023 17:45:42",144636,4,"task-gjqt",NA,31901376,9433024,NA,"complete","gaecgl","3GA6AFUKOUNLBZZCZSLIYPP4JHEH3U","computer","Desktop or Laptop","Windows 10","Chrome 116.0.0.0","1536x864","1536x715",NA,NA,0,"BIQ (Charlotte)",3,"JAIBHCGDFE","Passed AC2","","Spreadsheet1",1,"BIQ","Screen 1","9dh6eq",1,"response","5",10482.914,11366.212,11379.7,10482.914,11366.212,11379.7,1,10482.914,896.786,0,NA,"Rating Scale","Rating Scale",17,"object-80","BIQ",NA,"SUPAMT90670"
"6",1695797145298,"27/09/2023 06:45:45",1695816945298,5.5,"27/09/2023 17:45:45",144636,4,"task-gjqt",NA,31901376,9433024,NA,"complete","gaecgl","3GA6AFUKOUNLBZZCZSLIYPP4JHEH3U","computer","Desktop or Laptop","Windows 10","Chrome 116.0.0.0","1536x864","1536x715",NA,NA,0,"BIQ (Charlotte)",3,"JAIBHCGDFE","Passed AC2","","Spreadsheet1",1,"BIQ","Screen 2","o21mwi",2,"continue","",2395.488,2383.238,2395.488,2395.488,2383.238,2395.488,1,2395.488,0,0,NA,"Click To Continue","Continue Button",22,"object-50","BIQ",NA,"SUPAMT90670"
"7",1695797145298,"27/09/2023 06:45:45",1695816945298,5.5,"27/09/2023 17:45:45",144636,4,"task-gjqt",NA,31901376,9433024,NA,"complete","gaecgl","3GA6AFUKOUNLBZZCZSLIYPP4JHEH3U","computer","Desktop or Laptop","Windows 10","Chrome 116.0.0.0","1536x864","1536x715",NA,NA,0,"BIQ (Charlotte)",3,"JAIBHCGDFE","Passed AC2","","Spreadsheet1",1,"BIQ","Screen 2","o21mwi",2,"response","5",1066.624,2383.238,2396.488,1066.624,2383.238,2396.488,1,1066.624,1329.864,0,NA,"Rating Scale","Rating Scale",2,"object-259","BIQ",NA,"SUPAMT90670"
"8",1695797145299,"27/09/2023 06:45:45",1695816945299,5.5,"27/09/2023 17:45:45",144636,4,"task-gjqt",NA,31901376,9433024,NA,"complete","gaecgl","3GA6AFUKOUNLBZZCZSLIYPP4JHEH3U","computer","Desktop or Laptop","Windows 10","Chrome 116.0.0.0","1536x864","1536x715",NA,NA,0,"BIQ (Charlotte)",3,"JAIBHCGDFE","Passed AC2","","Spreadsheet1",1,"BIQ","Screen 2","o21mwi",2,"response","4",1466.608,2383.238,2397.488,1466.608,2383.238,2397.488,1,1466.608,930.880000000001,0,NA,"Rating Scale","Rating Scale",9,"object-36","BIQ",NA,"SUPAMT90670"
"9",1695797145300,"27/09/2023 06:45:45",1695816945300,5.5,"27/09/2023 17:45:45",144636,4,"task-gjqt",NA,31901376,9433024,NA,"complete","gaecgl","3GA6AFUKOUNLBZZCZSLIYPP4JHEH3U","computer","Desktop or Laptop","Windows 10","Chrome 116.0.0.0","1536x864","1536x715",NA,NA,0,"BIQ (Charlotte)",3,"JAIBHCGDFE","Passed AC2","","Spreadsheet1",1,"BIQ","Screen 2","o21mwi",2,"response","5",1916.59,2383.238,2398.488,1916.59,2383.238,2398.488,1,1916.59,481.898000000001,0,NA,"Rating Scale","Rating Scale",16,"object-86","BIQ",NA,"SUPAMT90670"
"10",1695797147473,"27/09/2023 06:45:47",1695816947473,5.5,"27/09/2023 17:45:47",144636,4,"task-gjqt",NA,31901376,9433024,NA,"complete","gaecgl","3GA6AFUKOUNLBZZCZSLIYPP4JHEH3U","computer","Desktop or Laptop","Windows 10","Chrome 116.0.0.0","1536x864","1536x715",NA,NA,0,"BIQ (Charlotte)",3,"JAIBHCGDFE","Passed AC2","","Spreadsheet1",1,"BIQ","Screen 3","iz3the",3,"continue","",2187.25,2183.246,2187.25,2187.25,2183.246,2187.25,1,2187.25,0,0,NA,"Click To Continue","Continue Button",22,"object-73","BIQ",NA,"SUPAMT90670"
"11",1695797147474,"27/09/2023 06:45:47",1695816947474,5.5,"27/09/2023 17:45:47",144636,4,"task-gjqt",NA,31901376,9433024,NA,"complete","gaecgl","3GA6AFUKOUNLBZZCZSLIYPP4JHEH3U","computer","Desktop or Laptop","Windows 10","Chrome 116.0.0.0","1536x864","1536x715",NA,NA,0,"BIQ (Charlotte)",3,"JAIBHCGDFE","Passed AC2","","Spreadsheet1",1,"BIQ","Screen 3","iz3the",3,"response","5",983.294000000002,2183.246,2188.25,983.294000000002,2183.246,2188.25,1,983.294000000002,1204.956,0,NA,"Rating Scale","Rating Scale",2,"object-53","BIQ",NA,"SUPAMT90670"
"12",1695797147475,"27/09/2023 06:45:47",1695816947475,5.5,"27/09/2023 17:45:47",144636,4,"task-gjqt",NA,31901376,9433024,NA,"complete","gaecgl","3GA6AFUKOUNLBZZCZSLIYPP4JHEH3U","computer","Desktop or Laptop","Windows 10","Chrome 116.0.0.0","1536x864","1536x715",NA,NA,0,"BIQ (Charlotte)",3,"JAIBHCGDFE","Passed AC2","","Spreadsheet1",1,"BIQ","Screen 3","iz3the",3,"response","4",1366.612,2183.246,2189.25,1366.612,2183.246,2189.25,1,1366.612,822.637999999999,0,NA,"Rating Scale","Rating Scale",9,"object-60","BIQ",NA,"SUPAMT90670"
"13",1695797147476,"27/09/2023 06:45:47",1695816947476,5.5,"27/09/2023 17:45:47",144636,4,"task-gjqt",NA,31901376,9433024,NA,"complete","gaecgl","3GA6AFUKOUNLBZZCZSLIYPP4JHEH3U","computer","Desktop or Laptop","Windows 10","Chrome 116.0.0.0","1536x864","1536x715",NA,NA,0,"BIQ (Charlotte)",3,"JAIBHCGDFE","Passed AC2","","Spreadsheet1",1,"BIQ","Screen 3","iz3the",3,"response","5",1716.598,2183.246,2190.25,1716.598,2183.246,2190.25,1,1716.598,473.651999999998,0,NA,"Rating Scale","Rating Scale",16,"object-67","BIQ",NA,"SUPAMT90670"
"14",1695797147479,"27/09/2023 06:45:47",1695816947479,5.5,"27/09/2023 17:45:47",144636,4,"task-gjqt",NA,31901376,9433024,NA,"complete","gaecgl","3GA6AFUKOUNLBZZCZSLIYPP4JHEH3U","computer","Desktop or Laptop","Windows 10","Chrome 116.0.0.0","1536x864","1536x715",NA,NA,0,"BIQ (Charlotte)",3,"JAIBHCGDFE","Passed AC2","","Spreadsheet1",NA,"","","",NA,"5","END",NA,NA,NA,NA,NA,NA,0,NA,NA,NA,NA,"","",NA,"","",NA,"SUPAMT90670"
"1",1695844031110,"27/09/2023 19:47:11",1695818831110,-7,"27/09/2023 05:47:11",144636,4,"task-gjqt",NA,31902266,9433320,NA,"complete","viygue","3L4D84MIL5RWWD112DD5EW6TFE8HJE","computer","Desktop or Laptop","Windows 10","Chrome 117.0.0.0","1366x768","1346x609",NA,NA,0,"BIQ (Charlotte)",3,"CDBEAFJGIH","Passed AC2","","Spreadsheet1",NA,"","","",NA,"5","BEGIN",NA,NA,NA,NA,NA,NA,0,NA,NA,NA,NA,"","",NA,"","",NA,"SUPAMT55461"
"2",1695844038678,"27/09/2023 19:47:18",1695818838678,-7,"27/09/2023 05:47:18",144636,4,"task-gjqt",NA,31902266,9433320,NA,"complete","viygue","3L4D84MIL5RWWD112DD5EW6TFE8HJE","computer","Desktop or Laptop","Windows 10","Chrome 117.0.0.0","1366x768","1346x609",NA,NA,0,"BIQ (Charlotte)",3,"CDBEAFJGIH","Passed AC2","","Spreadsheet1",1,"BIQ","Screen 1","9dh6eq",1,"continue","",7588.028,7583.03,7588.028,7588.028,7583.03,7588.028,1,7588.028,0,0,NA,"Click To Continue","Continue Button",23,"object-48","BIQ",NA,"SUPAMT55461"
"3",1695844038678,"27/09/2023 19:47:18",1695818838678,-7,"27/09/2023 05:47:18",144636,4,"task-gjqt",NA,31902266,9433320,NA,"complete","viygue","3L4D84MIL5RWWD112DD5EW6TFE8HJE","computer","Desktop or Laptop","Windows 10","Chrome 117.0.0.0","1366x768","1346x609",NA,NA,0,"BIQ (Charlotte)",3,"CDBEAFJGIH","Passed AC2","","Spreadsheet1",1,"BIQ","Screen 1","9dh6eq",1,"response","7",4233.164,7583.03,7589.028,4233.164,7583.03,7589.028,1,4233.164,3355.864,0,NA,"Rating Scale","Rating Scale",3,"object-5","BIQ",NA,"SUPAMT55461"
"4",1695844038679,"27/09/2023 19:47:18",1695818838679,-7,"27/09/2023 05:47:18",144636,4,"task-gjqt",NA,31902266,9433320,NA,"complete","viygue","3L4D84MIL5RWWD112DD5EW6TFE8HJE","computer","Desktop or Laptop","Windows 10","Chrome 117.0.0.0","1366x768","1346x609",NA,NA,0,"BIQ (Charlotte)",3,"CDBEAFJGIH","Passed AC2","","Spreadsheet1",1,"BIQ","Screen 1","9dh6eq",1,"response","6",5416.45,7583.03,7590.028,5416.45,7583.03,7590.028,1,5416.45,2173.578,0,NA,"Rating Scale","Rating Scale",10,"object-18","BIQ",NA,"SUPAMT55461"
"5",1695844038679,"27/09/2023 19:47:18",1695818838679,-7,"27/09/2023 05:47:18",144636,4,"task-gjqt",NA,31902266,9433320,NA,"complete","viygue","3L4D84MIL5RWWD112DD5EW6TFE8HJE","computer","Desktop or Laptop","Windows 10","Chrome 117.0.0.0","1366x768","1346x609",NA,NA,0,"BIQ (Charlotte)",3,"CDBEAFJGIH","Passed AC2","","Spreadsheet1",1,"BIQ","Screen 1","9dh6eq",1,"response","6",6433.076,7583.03,7590.028,6433.076,7583.03,7590.028,1,6433.076,1156.952,0,NA,"Rating Scale","Rating Scale",17,"object-80","BIQ",NA,"SUPAMT55461"
"6",1695844043008,"27/09/2023 19:47:23",1695818843008,-7,"27/09/2023 05:47:23",144636,4,"task-gjqt",NA,31902266,9433320,NA,"complete","viygue","3L4D84MIL5RWWD112DD5EW6TFE8HJE","computer","Desktop or Laptop","Windows 10","Chrome 117.0.0.0","1366x768","1346x609",NA,NA,0,"BIQ (Charlotte)",3,"CDBEAFJGIH","Passed AC2","","Spreadsheet1",1,"BIQ","Screen 2","o21mwi",2,"continue","",4334.998,4333.16,4334.998,4334.998,4333.16,4334.998,1,4334.998,0,0,NA,"Click To Continue","Continue Button",22,"object-50","BIQ",NA,"SUPAMT55461"
"7",1695844043010,"27/09/2023 19:47:23",1695818843010,-7,"27/09/2023 05:47:23",144636,4,"task-gjqt",NA,31902266,9433320,NA,"complete","viygue","3L4D84MIL5RWWD112DD5EW6TFE8HJE","computer","Desktop or Laptop","Windows 10","Chrome 117.0.0.0","1366x768","1346x609",NA,NA,0,"BIQ (Charlotte)",3,"CDBEAFJGIH","Passed AC2","","Spreadsheet1",1,"BIQ","Screen 2","o21mwi",2,"response","6",1783.262,4333.16,4337.998,1783.262,4333.16,4337.998,1,1783.262,2554.736,0,NA,"Rating Scale","Rating Scale",2,"object-259","BIQ",NA,"SUPAMT55461"
"8",1695844043010,"27/09/2023 19:47:23",1695818843010,-7,"27/09/2023 05:47:23",144636,4,"task-gjqt",NA,31902266,9433320,NA,"complete","viygue","3L4D84MIL5RWWD112DD5EW6TFE8HJE","computer","Desktop or Laptop","Windows 10","Chrome 117.0.0.0","1366x768","1346x609",NA,NA,0,"BIQ (Charlotte)",3,"CDBEAFJGIH","Passed AC2","","Spreadsheet1",1,"BIQ","Screen 2","o21mwi",2,"response","6",2649.894,4333.16,4337.998,2649.894,4333.16,4337.998,1,2649.894,1688.104,0,NA,"Rating Scale","Rating Scale",9,"object-36","BIQ",NA,"SUPAMT55461"
"9",1695844043011,"27/09/2023 19:47:23",1695818843011,-7,"27/09/2023 05:47:23",144636,4,"task-gjqt",NA,31902266,9433320,NA,"complete","viygue","3L4D84MIL5RWWD112DD5EW6TFE8HJE","computer","Desktop or Laptop","Windows 10","Chrome 117.0.0.0","1366x768","1346x609",NA,NA,0,"BIQ (Charlotte)",3,"CDBEAFJGIH","Passed AC2","","Spreadsheet1",1,"BIQ","Screen 2","o21mwi",2,"response","6",3399.864,4333.16,4338.998,3399.864,4333.16,4338.998,1,3399.864,939.134,0,NA,"Rating Scale","Rating Scale",16,"object-86","BIQ",NA,"SUPAMT55461"
"10",1695844047303,"27/09/2023 19:47:27",1695818847303,-7,"27/09/2023 05:47:27",144636,4,"task-gjqt",NA,31902266,9433320,NA,"complete","viygue","3L4D84MIL5RWWD112DD5EW6TFE8HJE","computer","Desktop or Laptop","Windows 10","Chrome 117.0.0.0","1366x768","1346x609",NA,NA,0,"BIQ (Charlotte)",3,"CDBEAFJGIH","Passed AC2","","Spreadsheet1",1,"BIQ","Screen 3","iz3the",3,"continue","",4297.838,4283.162,4297.838,4297.838,4283.162,4297.838,1,4297.838,0,0,NA,"Click To Continue","Continue Button",22,"object-73","BIQ",NA,"SUPAMT55461"
"11",1695844047303,"27/09/2023 19:47:27",1695818847303,-7,"27/09/2023 05:47:27",144636,4,"task-gjqt",NA,31902266,9433320,NA,"complete","viygue","3L4D84MIL5RWWD112DD5EW6TFE8HJE","computer","Desktop or Laptop","Windows 10","Chrome 117.0.0.0","1366x768","1346x609",NA,NA,0,"BIQ (Charlotte)",3,"CDBEAFJGIH","Passed AC2","","Spreadsheet1",1,"BIQ","Screen 3","iz3the",3,"response","6",1616.602,4283.162,4297.838,1616.602,4283.162,4297.838,1,1616.602,2681.236,0,NA,"Rating Scale","Rating Scale",2,"object-53","BIQ",NA,"SUPAMT55461"
"12",1695844047304,"27/09/2023 19:47:27",1695818847304,-7,"27/09/2023 05:47:27",144636,4,"task-gjqt",NA,31902266,9433320,NA,"complete","viygue","3L4D84MIL5RWWD112DD5EW6TFE8HJE","computer","Desktop or Laptop","Windows 10","Chrome 117.0.0.0","1366x768","1346x609",NA,NA,0,"BIQ (Charlotte)",3,"CDBEAFJGIH","Passed AC2","","Spreadsheet1",1,"BIQ","Screen 3","iz3the",3,"response","7",2266.576,4283.162,4298.838,2266.576,4283.162,4298.838,1,2266.576,2032.262,0,NA,"Rating Scale","Rating Scale",9,"object-60","BIQ",NA,"SUPAMT55461"
"13",1695844047304,"27/09/2023 19:47:27",1695818847304,-7,"27/09/2023 05:47:27",144636,4,"task-gjqt",NA,31902266,9433320,NA,"complete","viygue","3L4D84MIL5RWWD112DD5EW6TFE8HJE","computer","Desktop or Laptop","Windows 10","Chrome 117.0.0.0","1366x768","1346x609",NA,NA,0,"BIQ (Charlotte)",3,"CDBEAFJGIH","Passed AC2","","Spreadsheet1",1,"BIQ","Screen 3","iz3the",3,"response","6",3016.546,4283.162,4298.838,3016.546,4283.162,4298.838,1,3016.546,1282.292,0,NA,"Rating Scale","Rating Scale",16,"object-67","BIQ",NA,"SUPAMT55461"
"14",1695844047307,"27/09/2023 19:47:27",1695818847307,-7,"27/09/2023 05:47:27",144636,4,"task-gjqt",NA,31902266,9433320,NA,"complete","viygue","3L4D84MIL5RWWD112DD5EW6TFE8HJE","computer","Desktop or Laptop","Windows 10","Chrome 117.0.0.0","1366x768","1346x609",NA,NA,0,"BIQ (Charlotte)",3,"CDBEAFJGIH","Passed AC2","","Spreadsheet1",NA,"","","",NA,"5","END",NA,NA,NA,NA,NA,NA,0,NA,NA,NA,NA,"","",NA,"","",NA,"SUPAMT55461"
"1",1695833254823,"27/09/2023 16:47:34",1695818854823,-4,"27/09/2023 08:47:34",144636,4,"task-gjqt",NA,31902275,9433321,NA,"complete","wngnnm","3634BBTX0UTGN6QPP545ZAFGMK6IF5","computer","Desktop or Laptop","Windows 10","Chrome 116.0.0.0","1366x768","1366x619",NA,NA,0,"BIQ (Charlotte)",3,"DECFBGAHJI","Passed AC2","","Spreadsheet1",NA,"","","",NA,"5","BEGIN",NA,NA,NA,NA,NA,NA,0,NA,NA,NA,NA,"","",NA,"","",NA,"SUPAMT51859"
"2",1695833263849,"27/09/2023 16:47:43",1695818863849,-4,"27/09/2023 08:47:43",144636,4,"task-gjqt",NA,31902275,9433321,NA,"complete","wngnnm","3634BBTX0UTGN6QPP545ZAFGMK6IF5","computer","Desktop or Laptop","Windows 10","Chrome 116.0.0.0","1366x768","1366x619",NA,NA,0,"BIQ (Charlotte)",3,"DECFBGAHJI","Passed AC2","","Spreadsheet1",1,"BIQ","Screen 1","9dh6eq",1,"continue","",9046.375,9030.829,9046.375,9046.375,9030.829,9046.375,1,9046.375,0,0,NA,"Click To Continue","Continue Button",23,"object-48","BIQ",NA,"SUPAMT51859"
"3",1695833263850,"27/09/2023 16:47:43",1695818863850,-4,"27/09/2023 08:47:43",144636,4,"task-gjqt",NA,31902275,9433321,NA,"complete","wngnnm","3634BBTX0UTGN6QPP545ZAFGMK6IF5","computer","Desktop or Laptop","Windows 10","Chrome 116.0.0.0","1366x768","1366x619",NA,NA,0,"BIQ (Charlotte)",3,"DECFBGAHJI","Passed AC2","","Spreadsheet1",1,"BIQ","Screen 1","9dh6eq",1,"response","6",2872.972,9030.829,9047.495,2872.972,9030.829,9047.495,1,2872.972,6174.523,0,NA,"Rating Scale","Rating Scale",3,"object-5","BIQ",NA,"SUPAMT51859"
"4",1695833263850,"27/09/2023 16:47:43",1695818863850,-4,"27/09/2023 08:47:43",144636,4,"task-gjqt",NA,31902275,9433321,NA,"complete","wngnnm","3634BBTX0UTGN6QPP545ZAFGMK6IF5","computer","Desktop or Laptop","Windows 10","Chrome 116.0.0.0","1366x768","1366x619",NA,NA,0,"BIQ (Charlotte)",3,"DECFBGAHJI","Passed AC2","","Spreadsheet1",1,"BIQ","Screen 1","9dh6eq",1,"response","2",3798.399,9030.829,9047.495,3798.399,9030.829,9047.495,1,3798.399,5249.096,0,NA,"Rating Scale","Rating Scale",10,"object-18","BIQ",NA,"SUPAMT51859"
"5",1695833263850,"27/09/2023 16:47:43",1695818863850,-4,"27/09/2023 08:47:43",144636,4,"task-gjqt",NA,31902275,9433321,NA,"complete","wngnnm","3634BBTX0UTGN6QPP545ZAFGMK6IF5","computer","Desktop or Laptop","Windows 10","Chrome 116.0.0.0","1366x768","1366x619",NA,NA,0,"BIQ (Charlotte)",3,"DECFBGAHJI","Passed AC2","","Spreadsheet1",1,"BIQ","Screen 1","9dh6eq",1,"response","4",4453.262,9030.829,9047.495,4453.262,9030.829,9047.495,1,4453.262,4594.233,0,NA,"Rating Scale","Rating Scale",17,"object-80","BIQ",NA,"SUPAMT51859"
"6",1695833269696,"27/09/2023 16:47:49",1695818869696,-4,"27/09/2023 08:47:49",144636,4,"task-gjqt",NA,31902275,9433321,NA,"complete","wngnnm","3634BBTX0UTGN6QPP545ZAFGMK6IF5","computer","Desktop or Laptop","Windows 10","Chrome 116.0.0.0","1366x768","1366x619",NA,NA,0,"BIQ (Charlotte)",3,"DECFBGAHJI","Passed AC2","","Spreadsheet1",1,"BIQ","Screen 2","o21mwi",2,"continue","",5862.546,5849.378,5862.546,5862.546,5849.378,5862.546,1,5862.546,0,0,NA,"Click To Continue","Continue Button",22,"object-50","BIQ",NA,"SUPAMT51859"
"7",1695833269698,"27/09/2023 16:47:49",1695818869698,-4,"27/09/2023 08:47:49",144636,4,"task-gjqt",NA,31902275,9433321,NA,"complete","wngnnm","3634BBTX0UTGN6QPP545ZAFGMK6IF5","computer","Desktop or Laptop","Windows 10","Chrome 116.0.0.0","1366x768","1366x619",NA,NA,0,"BIQ (Charlotte)",3,"DECFBGAHJI","Passed AC2","","Spreadsheet1",1,"BIQ","Screen 2","o21mwi",2,"response","4",3532.57,5849.378,5864.94600009537,3532.57,5849.378,5864.94600009537,1,3532.57,2332.37600009537,0,NA,"Rating Scale","Rating Scale",2,"object-259","BIQ",NA,"SUPAMT51859"
"8",1695833269698,"27/09/2023 16:47:49",1695818869698,-4,"27/09/2023 08:47:49",144636,4,"task-gjqt",NA,31902275,9433321,NA,"complete","wngnnm","3634BBTX0UTGN6QPP545ZAFGMK6IF5","computer","Desktop or Laptop","Windows 10","Chrome 116.0.0.0","1366x768","1366x619",NA,NA,0,"BIQ (Charlotte)",3,"DECFBGAHJI","Passed AC2","","Spreadsheet1",1,"BIQ","Screen 2","o21mwi",2,"response","5",4344.902,5849.378,5865.34600019074,4344.902,5849.378,5865.34600019074,1,4344.902,1520.44400019074,0,NA,"Rating Scale","Rating Scale",9,"object-36","BIQ",NA,"SUPAMT51859"
"9",1695833269698,"27/09/2023 16:47:49",1695818869698,-4,"27/09/2023 08:47:49",144636,4,"task-gjqt",NA,31902275,9433321,NA,"complete","wngnnm","3634BBTX0UTGN6QPP545ZAFGMK6IF5","computer","Desktop or Laptop","Windows 10","Chrome 116.0.0.0","1366x768","1366x619",NA,NA,0,"BIQ (Charlotte)",3,"DECFBGAHJI","Passed AC2","","Spreadsheet1",1,"BIQ","Screen 2","o21mwi",2,"response","4",5046.899,5849.378,5865.64600014305,5046.899,5849.378,5865.64600014305,1,5046.899,818.747000143052,0,NA,"Rating Scale","Rating Scale",16,"object-86","BIQ",NA,"SUPAMT51859"
"10",1695833273289,"27/09/2023 16:47:53",1695818873289,-4,"27/09/2023 08:47:53",144636,4,"task-gjqt",NA,31902275,9433321,NA,"complete","wngnnm","3634BBTX0UTGN6QPP545ZAFGMK6IF5","computer","Desktop or Laptop","Windows 10","Chrome 116.0.0.0","1366x768","1366x619",NA,NA,0,"BIQ (Charlotte)",3,"DECFBGAHJI","Passed AC2","","Spreadsheet1",1,"BIQ","Screen 3","iz3the",3,"continue","",3606.46800019074,3596.857,3606.46800019074,3606.46800019074,3596.857,3606.46800019074,1,3606.46800019074,0,0,NA,"Click To Continue","Continue Button",22,"object-73","BIQ",NA,"SUPAMT51859"
