"Event.Index","UTC.Timestamp","UTC.Date.and.Time","Local.Timestamp","Local.Timezone","Local.Date.and.Time","Experiment.ID","Experiment.Version","Tree.Node.Key","Repeat.Key","Schedule.ID","Participant.Private.ID","Participant.Starting.Group","Participant.Status","Participant.Completion.Code","Participant.External.Session.ID","Participant.Device.Type","Participant.Device","Participant.OS","Participant.Browser","Participant.Monitor.Size","Participant.Viewport.Size","Checkpoint","Room.ID","Room.Order","Task.Name","Task.Version","order.ot79","branch.g31k","branch.5gtn","Spreadsheet","Trial.Number","Display","Screen","Screen.ID","Screen.Counter","Response.Type","Response","Onset.Time","Clock.Time","Reaction.Time","Absolute.Onset.Time","Absolute.Clock.Time","Absolute.Reaction.Time","Correct","Response.Onset","Response.Duration","Proportion","Tag","Component.Name","Object.Name","Object.Number","Object.ID","Spreadsheet..display","Manipulation..Spreadsheet","Random_ID"
"1",1695822058837,"27/09/2023 13:40:58",1695807658837,-4,"27/09/2023 05:40:58",144636,4,"task-hbx7",NA,31896347,9431917,NA,"complete","dpankh","3XUHV3NRVQXOPEMGDB9BDMNOXDMH51","computer","Desktop or Laptop","Windows 10","Chrome 116.0.0.0","1280x800","1280x651",NA,NA,0,"Task Introduction and Instructions (Clone)",9,"ABJCIDHEGF","Passed AC2","","Spreadsheet1",NA,"","","",NA,"5","BEGIN",NA,NA,NA,NA,NA,NA,0,NA,NA,NA,NA,"","",NA,"","",NA,"SUPAMT62293"
"2",1695822062165,"27/09/2023 13:41:02",1695807662165,-4,"27/09/2023 05:41:02",144636,4,"task-hbx7",NA,31896347,9431917,NA,"complete","dpankh","3XUHV3NRVQXOPEMGDB9BDMNOXDMH51","computer","Desktop or Laptop","Windows 10","Chrome 116.0.0.0","1280x800","1280x651",NA,NA,0,"Task Introduction and Instructions (Clone)",9,"ABJCIDHEGF","Passed AC2","","Spreadsheet1",1,"Task Instructions","Screen 1","anr7sn",1,"continue","",3083.17699980926,3076.59,3083.17699980926,3083.17699980926,3076.59,3083.17699980926,1,3083.17699980926,0,0,NA,"Click To Continue","Continue Button",2,"object-1944","Task Instructions",NA,"SUPAMT62293"
"3",1695822065230,"27/09/2023 13:41:05",1695807665230,-4,"27/09/2023 05:41:05",144636,4,"task-hbx7",NA,31896347,9431917,NA,"complete","dpankh","3XUHV3NRVQXOPEMGDB9BDMNOXDMH51","computer","Desktop or Laptop","Windows 10","Chrome 116.0.0.0","1280x800","1280x651",NA,NA,0,"Task Introduction and Instructions (Clone)",9,"ABJCIDHEGF","Passed AC2","","Spreadsheet1",1,"Task Instructions","Screen 2","ce2tc8",2,"continue","",3071.387,3068.02,3071.387,3071.387,3068.02,3071.387,1,3071.387,0,0,NA,"Click To Continue","Continue Button",2,"object-7","Task Instructions",NA,"SUPAMT62293"
"4",1695822077947,"27/09/2023 13:41:17",1695807677947,-4,"27/09/2023 05:41:17",144636,4,"task-hbx7",NA,31896347,9431917,NA,"complete","dpankh","3XUHV3NRVQXOPEMGDB9BDMNOXDMH51","computer","Desktop or Laptop","Windows 10","Chrome 116.0.0.0","1280x800","1280x651",NA,NA,0,"Task Introduction and Instructions (Clone)",9,"ABJCIDHEGF","Passed AC2","","Spreadsheet1",1,"Task Instructions","Screen 5","spepx9",3,"continue","",12720.9669999046,12715.824,12720.9669999046,12720.9669999046,12715.824,12720.9669999046,1,12720.9669999046,0,0,NA,"Click To Continue","Continue Button",2,"object-9","Task Instructions",NA,"SUPAMT62293"
"5",1695822087732,"27/09/2023 13:41:27",1695807687732,-4,"27/09/2023 05:41:27",144636,4,"task-hbx7",NA,31896347,9431917,NA,"complete","dpankh","3XUHV3NRVQXOPEMGDB9BDMNOXDMH51","computer","Desktop or Laptop","Windows 10","Chrome 116.0.0.0","1280x800","1280x651",NA,NA,0,"Task Introduction and Instructions (Clone)",9,"ABJCIDHEGF","Passed AC2","","Spreadsheet1",1,"Task Instructions","Screen 9","8nvnao",4,"continue","",9789.94299961853,9775.897,9789.94299961853,9789.94299961853,9775.897,9789.94299961853,1,9789.94299961853,0,0,NA,"Click To Continue","Continue Button",2,"object-44","Task Instructions",NA,"SUPAMT62293"
"6",1695822087735,"27/09/2023 13:41:27",1695807687735,-4,"27/09/2023 05:41:27",144636,4,"task-hbx7",NA,31896347,9431917,NA,"complete","dpankh","3XUHV3NRVQXOPEMGDB9BDMNOXDMH51","computer","Desktop or Laptop","Windows 10","Chrome 116.0.0.0","1280x800","1280x651",NA,NA,0,"Task Introduction and Instructions (Clone)",9,"ABJCIDHEGF","Passed AC2","","Spreadsheet1",NA,"","","",NA,"5","END",NA,NA,NA,NA,NA,NA,0,NA,NA,NA,NA,"","",NA,"","",NA,"SUPAMT62293"
"1",1695832817514,"27/09/2023 16:40:17",1695818417514,-4,"27/09/2023 08:40:17",144636,4,"task-hbx7",NA,31896395,9431923,NA,"complete","djmbpp","3PXX5PX6L3XB47VB8FQWZM0CUEIABK","computer","Desktop or Laptop","Windows 10","Chrome 117.0.0.0","1366x768","1366x651",NA,NA,0,"Task Introduction and Instructions (Clone)",9,"CDBEAFJGIH","Failed AC2","Passed AC1","Spreadsheet1",NA,"","","",NA,"5","BEGIN",NA,NA,NA,NA,NA,NA,0,NA,NA,NA,NA,"","",NA,"","",NA,"SUPAMT35697"
"2",1695832820803,"27/09/2023 16:40:20",1695818420803,-4,"27/09/2023 08:40:20",144636,4,"task-hbx7",NA,31896395,9431923,NA,"complete","djmbpp","3PXX5PX6L3XB47VB8FQWZM0CUEIABK","computer","Desktop or Laptop","Windows 10","Chrome 117.0.0.0","1366x768","1366x651",NA,NA,0,"Task Introduction and Instructions (Clone)",9,"CDBEAFJGIH","Failed AC2","Passed AC1","Spreadsheet1",1,"Task Instructions","Screen 1","anr7sn",1,"continue","",3188.789,3177.93,3188.789,3188.789,3177.93,3188.789,1,3188.789,0,0,NA,"Click To Continue","Continue Button",2,"object-1944","Task Instructions",NA,"SUPAMT35697"
"3",1695832823996,"27/09/2023 16:40:23",1695818423996,-4,"27/09/2023 08:40:23",144636,4,"task-hbx7",NA,31896395,9431923,NA,"complete","djmbpp","3PXX5PX6L3XB47VB8FQWZM0CUEIABK","computer","Desktop or Laptop","Windows 10","Chrome 117.0.0.0","1366x768","1366x651",NA,NA,0,"Task Introduction and Instructions (Clone)",9,"CDBEAFJGIH","Failed AC2","Passed AC1","Spreadsheet1",1,"Task Instructions","Screen 2","ce2tc8",2,"continue","",3204.359,3191.982,3204.359,3204.359,3191.982,3204.359,1,3204.359,0,0,NA,"Click To Continue","Continue Button",2,"object-7","Task Instructions",NA,"SUPAMT35697"
"4",1695832826857,"27/09/2023 16:40:26",1695818426857,-4,"27/09/2023 08:40:26",144636,4,"task-hbx7",NA,31896395,9431923,NA,"complete","djmbpp","3PXX5PX6L3XB47VB8FQWZM0CUEIABK","computer","Desktop or Laptop","Windows 10","Chrome 117.0.0.0","1366x768","1366x651",NA,NA,0,"Task Introduction and Instructions (Clone)",9,"CDBEAFJGIH","Failed AC2","Passed AC1","Spreadsheet1",1,"Task Instructions","Screen 5","spepx9",3,"continue","",2873.77700000596,2862.072,2873.77700000596,2873.77700000596,2862.072,2873.77700000596,1,2873.77700000596,0,0,NA,"Click To Continue","Continue Button",2,"object-9","Task Instructions",NA,"SUPAMT35697"
"5",1695832832026,"27/09/2023 16:40:32",1695818432026,-4,"27/09/2023 08:40:32",144636,4,"task-hbx7",NA,31896395,9431923,NA,"complete","djmbpp","3PXX5PX6L3XB47VB8FQWZM0CUEIABK","computer","Desktop or Laptop","Windows 10","Chrome 117.0.0.0","1366x768","1366x651",NA,NA,0,"Task Introduction and Instructions (Clone)",9,"CDBEAFJGIH","Failed AC2","Passed AC1","Spreadsheet1",1,"Task Instructions","Screen 9","8nvnao",4,"continue","",5179.90500000894,5174.635,5179.90500000894,5179.90500000894,5174.635,5179.90500000894,1,5179.90500000894,0,0,NA,"Click To Continue","Continue Button",2,"object-44","Task Instructions",NA,"SUPAMT35697"
"6",1695832832033,"27/09/2023 16:40:32",1695818432033,-4,"27/09/2023 08:40:32",144636,4,"task-hbx7",NA,31896395,9431923,NA,"complete","djmbpp","3PXX5PX6L3XB47VB8FQWZM0CUEIABK","computer","Desktop or Laptop","Windows 10","Chrome 117.0.0.0","1366x768","1366x651",NA,NA,0,"Task Introduction and Instructions (Clone)",9,"CDBEAFJGIH","Failed AC2","Passed AC1","Spreadsheet1",NA,"","","",NA,"5","END",NA,NA,NA,NA,NA,NA,0,NA,NA,NA,NA,"","",NA,"","",NA,"SUPAMT35697"
"1",1695825786913,"27/09/2023 14:43:06",1695807786913,-5,"27/09/2023 04:43:06",144636,4,"task-hbx7",NA,31896422,9431924,NA,"complete","zevsju","352YTHGRO1C6TVIGZ6Q18UHAXHRH4W","computer","Desktop or Laptop","Windows 10","Chrome 116.0.0.0","1366x768","1366x651",NA,NA,0,"Task Introduction and Instructions (Clone)",9,"BCADJEIFHG","Passed AC2","","Spreadsheet1",NA,"","","",NA,"5","BEGIN",NA,NA,NA,NA,NA,NA,0,NA,NA,NA,NA,"","",NA,"","",NA,"SUPAMT79593"
"2",1695825790897,"27/09/2023 14:43:10",1695807790897,-5,"27/09/2023 04:43:10",144636,4,"task-hbx7",NA,31896422,9431924,NA,"complete","zevsju","352YTHGRO1C6TVIGZ6Q18UHAXHRH4W","computer","Desktop or Laptop","Windows 10","Chrome 116.0.0.0","1366x768","1366x651",NA,NA,0,"Task Introduction and Instructions (Clone)",9,"BCADJEIFHG","Passed AC2","","Spreadsheet1",1,"Task Instructions","Screen 1","anr7sn",1,"continue","",3854.31299980926,3846.229,3854.31299980926,3854.31299980926,3846.229,3854.31299980926,1,3854.31299980926,0,0,NA,"Click To Continue","Continue Button",2,"object-1944","Task Instructions",NA,"SUPAMT79593"
"3",1695825794312,"27/09/2023 14:43:14",1695807794312,-5,"27/09/2023 04:43:14",144636,4,"task-hbx7",NA,31896422,9431924,NA,"complete","zevsju","352YTHGRO1C6TVIGZ6Q18UHAXHRH4W","computer","Desktop or Laptop","Windows 10","Chrome 116.0.0.0","1366x768","1366x651",NA,NA,0,"Task Introduction and Instructions (Clone)",9,"BCADJEIFHG","Passed AC2","","Spreadsheet1",1,"Task Instructions","Screen 2","ce2tc8",2,"continue","",3423.384,3420.412,3423.384,3423.384,3420.412,3423.384,1,3423.384,0,0,NA,"Click To Continue","Continue Button",2,"object-7","Task Instructions",NA,"SUPAMT79593"
"4",1695825803489,"27/09/2023 14:43:23",1695807803489,-5,"27/09/2023 04:43:23",144636,4,"task-hbx7",NA,31896422,9431924,NA,"complete","zevsju","352YTHGRO1C6TVIGZ6Q18UHAXHRH4W","computer","Desktop or Laptop","Windows 10","Chrome 116.0.0.0","1366x768","1366x651",NA,NA,0,"Task Introduction and Instructions (Clone)",9,"BCADJEIFHG","Passed AC2","","Spreadsheet1",1,"Task Instructions","Screen 5","spepx9",3,"continue","",9178.67199980926,9171.002,9178.67199980926,9178.67199980926,9171.002,9178.67199980926,1,9178.67199980926,0,0,NA,"Click To Continue","Continue Button",2,"object-9","Task Instructions",NA,"SUPAMT79593"
"5",1695825808017,"27/09/2023 14:43:28",1695807808017,-5,"27/09/2023 04:43:28",144636,4,"task-hbx7",NA,31896422,9431924,NA,"complete","zevsju","352YTHGRO1C6TVIGZ6Q18UHAXHRH4W","computer","Desktop or Laptop","Windows 10","Chrome 116.0.0.0","1366x768","1366x651",NA,NA,0,"Task Introduction and Instructions (Clone)",9,"BCADJEIFHG","Passed AC2","","Spreadsheet1",1,"Task Instructions","Screen 9","8nvnao",4,"continue","",4535.26999995232,4526.897,4535.26999995232,4535.26999995232,4526.897,4535.26999995232,1,4535.26999995232,0,0,NA,"Click To Continue","Continue Button",2,"object-44","Task Instructions",NA,"SUPAMT79593"
"6",1695825808019,"27/09/2023 14:43:28",1695807808019,-5,"27/09/2023 04:43:28",144636,4,"task-hbx7",NA,31896422,9431924,NA,"complete","zevsju","352YTHGRO1C6TVIGZ6Q18UHAXHRH4W","computer","Desktop or Laptop","Windows 10","Chrome 116.0.0.0","1366x768","1366x651",NA,NA,0,"Task Introduction and Instructions (Clone)",9,"BCADJEIFHG","Passed AC2","","Spreadsheet1",NA,"","","",NA,"5","END",NA,NA,NA,NA,NA,NA,0,NA,NA,NA,NA,"","",NA,"","",NA,"SUPAMT79593"
"1",1695822528106,"27/09/2023 13:48:48",1695808128106,-4,"27/09/2023 05:48:48",144636,4,"task-hbx7",NA,31896608,9431959,NA,"complete","oeamun","3TVRFO09GQEZDTPGA274XX7F7UIXLD","computer","Desktop or Laptop","Windows 10","Chrome 115.0.0.0","1280x1024","1600x1093",NA,NA,0,"Task Introduction and Instructions (Clone)",9,"FGEHDICJBA","Passed AC2","","Spreadsheet1",NA,"","","",NA,"5","BEGIN",NA,NA,NA,NA,NA,NA,0,NA,NA,NA,NA,"","",NA,"","",NA,"SUPAMT05446"
"2",1695822538844,"27/09/2023 13:48:58",1695808138844,-4,"27/09/2023 05:48:58",144636,4,"task-hbx7",NA,31896608,9431959,NA,"complete","oeamun","3TVRFO09GQEZDTPGA274XX7F7UIXLD","computer","Desktop or Laptop","Windows 10","Chrome 115.0.0.0","1280x1024","1600x1093",NA,NA,0,"Task Introduction and Instructions (Clone)",9,"FGEHDICJBA","Passed AC2","","Spreadsheet1",1,"Task Instructions","Screen 1","anr7sn",1,"continue","",10691.496,10674.83,10691.496,10691.496,10674.83,10691.496,1,10691.496,0,0,NA,"Click To Continue","Continue Button",2,"object-1944","Task Instructions",NA,"SUPAMT05446"
"3",1695822571523,"27/09/2023 13:49:31",1695808171523,-4,"27/09/2023 05:49:31",144636,4,"task-hbx7",NA,31896608,9431959,NA,"complete","oeamun","3TVRFO09GQEZDTPGA274XX7F7UIXLD","computer","Desktop or Laptop","Windows 10","Chrome 115.0.0.0","1280x1024","1600x1093",NA,NA,0,"Task Introduction and Instructions (Clone)",9,"FGEHDICJBA","Passed AC2","","Spreadsheet1",1,"Task Instructions","Screen 2","ce2tc8",2,"continue","",32696.265,32679.599,32696.265,32696.265,32679.599,32696.265,1,32696.265,0,0,NA,"Click To Continue","Continue Button",2,"object-7","Task Instructions",NA,"SUPAMT05446"
"4",1695822574859,"27/09/2023 13:49:34",1695808174859,-4,"27/09/2023 05:49:34",144636,4,"task-hbx7",NA,31896608,9431959,NA,"complete","oeamun","3TVRFO09GQEZDTPGA274XX7F7UIXLD","computer","Desktop or Laptop","Windows 10","Chrome 115.0.0.0","1280x1024","1600x1093",NA,NA,0,"Task Introduction and Instructions (Clone)",9,"FGEHDICJBA","Passed AC2","","Spreadsheet1",1,"Task Instructions","Screen 5","spepx9",3,"continue","",3353.89800009537,3346.766,3353.89800009537,3353.89800009537,3346.766,3353.89800009537,1,3353.89800009537,0,0,NA,"Click To Continue","Continue Button",2,"object-9","Task Instructions",NA,"SUPAMT05446"
"5",1695822584553,"27/09/2023 13:49:44",1695808184553,-4,"27/09/2023 05:49:44",144636,4,"task-hbx7",NA,31896608,9431959,NA,"complete","oeamun","3TVRFO09GQEZDTPGA274XX7F7UIXLD","computer","Desktop or Laptop","Windows 10","Chrome 115.0.0.0","1280x1024","1600x1093",NA,NA,0,"Task Introduction and Instructions (Clone)",9,"FGEHDICJBA","Passed AC2","","Spreadsheet1",1,"Task Instructions","Screen 9","8nvnao",4,"continue","",9701.43199980927,9689.506,9701.43199980927,9701.43199980927,9689.506,9701.43199980927,1,9701.43199980927,0,0,NA,"Click To Continue","Continue Button",2,"object-44","Task Instructions",NA,"SUPAMT05446"
"6",1695822584560,"27/09/2023 13:49:44",1695808184560,-4,"27/09/2023 05:49:44",144636,4,"task-hbx7",NA,31896608,9431959,NA,"complete","oeamun","3TVRFO09GQEZDTPGA274XX7F7UIXLD","computer","Desktop or Laptop","Windows 10","Chrome 115.0.0.0","1280x1024","1600x1093",NA,NA,0,"Task Introduction and Instructions (Clone)",9,"FGEHDICJBA","Passed AC2","","Spreadsheet1",NA,"","","",NA,"5","END",NA,NA,NA,NA,NA,NA,0,NA,NA,NA,NA,"","",NA,"","",NA,"SUPAMT05446"
"1",1695822842635,"27/09/2023 13:54:02",1695808442635,-4,"27/09/2023 05:54:02",144636,4,"task-hbx7",NA,31896978,9432035,NA,"complete","pbhmjd","3C44YUNSI7OB68ZXBUZZK7D7WL5PDX","computer","Desktop or Laptop","Windows 10","Chrome 116.0.0.0","1280x1024","1280x875",NA,NA,0,"Task Introduction and Instructions (Clone)",9,"JAIBHCGDFE","Passed AC2","","Spreadsheet1",NA,"","","",NA,"5","BEGIN",NA,NA,NA,NA,NA,NA,0,NA,NA,NA,NA,"","",NA,"","",NA,"SUPAMT53772"
"2",1695822850557,"27/09/2023 13:54:10",1695808450557,-4,"27/09/2023 05:54:10",144636,4,"task-hbx7",NA,31896978,9432035,NA,"complete","pbhmjd","3C44YUNSI7OB68ZXBUZZK7D7WL5PDX","computer","Desktop or Laptop","Windows 10","Chrome 116.0.0.0","1280x1024","1280x875",NA,NA,0,"Task Introduction and Instructions (Clone)",9,"JAIBHCGDFE","Passed AC2","","Spreadsheet1",1,"Task Instructions","Screen 1","anr7sn",1,"continue","",7767.96300009537,7762.131,7767.96300009537,7767.96300009537,7762.131,7767.96300009537,1,7767.96300009537,0,0,NA,"Click To Continue","Continue Button",2,"object-1944","Task Instructions",NA,"SUPAMT53772"
"3",1695822857844,"27/09/2023 13:54:17",1695808457844,-4,"27/09/2023 05:54:17",144636,4,"task-hbx7",NA,31896978,9432035,NA,"complete","pbhmjd","3C44YUNSI7OB68ZXBUZZK7D7WL5PDX","computer","Desktop or Laptop","Windows 10","Chrome 116.0.0.0","1280x1024","1280x875",NA,NA,0,"Task Introduction and Instructions (Clone)",9,"JAIBHCGDFE","Passed AC2","","Spreadsheet1",1,"Task Instructions","Screen 2","ce2tc8",2,"continue","",7293.432,7283.097,7293.432,7293.432,7283.097,7293.432,1,7293.432,0,0,NA,"Click To Continue","Continue Button",2,"object-7","Task Instructions",NA,"SUPAMT53772"
"4",1695822861359,"27/09/2023 13:54:21",1695808461359,-4,"27/09/2023 05:54:21",144636,4,"task-hbx7",NA,31896978,9432035,NA,"complete","pbhmjd","3C44YUNSI7OB68ZXBUZZK7D7WL5PDX","computer","Desktop or Laptop","Windows 10","Chrome 116.0.0.0","1280x1024","1280x875",NA,NA,0,"Task Introduction and Instructions (Clone)",9,"JAIBHCGDFE","Passed AC2","","Spreadsheet1",1,"Task Instructions","Screen 5","spepx9",3,"continue","",3525.335,3516.157,3525.335,3525.335,3516.157,3525.335,1,3525.335,0,0,NA,"Click To Continue","Continue Button",2,"object-9","Task Instructions",NA,"SUPAMT53772"
"5",1695822864820,"27/09/2023 13:54:24",1695808464820,-4,"27/09/2023 05:54:24",144636,4,"task-hbx7",NA,31896978,9432035,NA,"complete","pbhmjd","3C44YUNSI7OB68ZXBUZZK7D7WL5PDX","computer","Desktop or Laptop","Windows 10","Chrome 116.0.0.0","1280x1024","1280x875",NA,NA,0,"Task Introduction and Instructions (Clone)",9,"JAIBHCGDFE","Passed AC2","","Spreadsheet1",1,"Task Instructions","Screen 9","8nvnao",4,"continue","",3470.77800038147,3454.502,3470.77800038147,3470.77800038147,3454.502,3470.77800038147,1,3470.77800038147,0,0,NA,"Click To Continue","Continue Button",2,"object-44","Task Instructions",NA,"SUPAMT53772"
"6",1695822864828,"27/09/2023 13:54:24",1695808464828,-4,"27/09/2023 05:54:24",144636,4,"task-hbx7",NA,31896978,9432035,NA,"complete","pbhmjd","3C44YUNSI7OB68ZXBUZZK7D7WL5PDX","computer","Desktop or Laptop","Windows 10","Chrome 116.0.0.0","1280x1024","1280x875",NA,NA,0,"Task Introduction and Instructions (Clone)",9,"JAIBHCGDFE","Passed AC2","","Spreadsheet1",NA,"","","",NA,"5","END",NA,NA,NA,NA,NA,NA,0,NA,NA,NA,NA,"","",NA,"","",NA,"SUPAMT53772"
"1",1695826720792,"27/09/2023 14:58:40",1695808720792,-5,"27/09/2023 04:58:40",144636,4,"task-hbx7",NA,31896992,9431952,NA,"complete","dbvzfr","3HPZF4IVNSSVAULK2L07DSO1FRXYC3","computer","Desktop or Laptop","Windows 10","Chrome 116.0.0.0","1364x768","1346x602",NA,NA,0,"Task Introduction and Instructions (Clone)",9,"DECFBGAHJI","Passed AC2","","Spreadsheet1",NA,"","","",NA,"5","BEGIN",NA,NA,NA,NA,NA,NA,0,NA,NA,NA,NA,"","",NA,"","",NA,"SUPAMT13097"
"2",1695826724378,"27/09/2023 14:58:44",1695808724378,-5,"27/09/2023 04:58:44",144636,4,"task-hbx7",NA,31896992,9431952,NA,"complete","dbvzfr","3HPZF4IVNSSVAULK2L07DSO1FRXYC3","computer","Desktop or Laptop","Windows 10","Chrome 116.0.0.0","1364x768","1346x602",NA,NA,0,"Task Introduction and Instructions (Clone)",9,"DECFBGAHJI","Passed AC2","","Spreadsheet1",1,"Task Instructions","Screen 1","anr7sn",1,"continue","",3246.75,3218.75,3246.75,3246.75,3218.75,3246.75,1,3246.75,0,0,NA,"Click To Continue","Continue Button",2,"object-1944","Task Instructions",NA,"SUPAMT13097"
"3",1695826727045,"27/09/2023 14:58:47",1695808727045,-5,"27/09/2023 04:58:47",144636,4,"task-hbx7",NA,31896992,9431952,NA,"complete","dbvzfr","3HPZF4IVNSSVAULK2L07DSO1FRXYC3","computer","Desktop or Laptop","Windows 10","Chrome 116.0.0.0","1364x768","1346x602",NA,NA,0,"Task Introduction and Instructions (Clone)",9,"DECFBGAHJI","Passed AC2","","Spreadsheet1",1,"Task Instructions","Screen 2","ce2tc8",2,"continue","",2694,2687.5,2694,2694,2687.5,2694,1,2694,0,0,NA,"Click To Continue","Continue Button",2,"object-7","Task Instructions",NA,"SUPAMT13097"
"4",1695826730187,"27/09/2023 14:58:50",1695808730187,-5,"27/09/2023 04:58:50",144636,4,"task-hbx7",NA,31896992,9431952,NA,"complete","dbvzfr","3HPZF4IVNSSVAULK2L07DSO1FRXYC3","computer","Desktop or Laptop","Windows 10","Chrome 116.0.0.0","1364x768","1346x602",NA,NA,0,"Task Introduction and Instructions (Clone)",9,"DECFBGAHJI","Passed AC2","","Spreadsheet1",1,"Task Instructions","Screen 5","spepx9",3,"continue","",3149.5,3125,3149.5,3149.5,3125,3149.5,1,3149.5,0,0,NA,"Click To Continue","Continue Button",2,"object-9","Task Instructions",NA,"SUPAMT13097"
"5",1695826733278,"27/09/2023 14:58:53",1695808733278,-5,"27/09/2023 04:58:53",144636,4,"task-hbx7",NA,31896992,9431952,NA,"complete","dbvzfr","3HPZF4IVNSSVAULK2L07DSO1FRXYC3","computer","Desktop or Laptop","Windows 10","Chrome 116.0.0.0","1364x768","1346x602",NA,NA,0,"Task Introduction and Instructions (Clone)",9,"DECFBGAHJI","Passed AC2","","Spreadsheet1",1,"Task Instructions","Screen 9","8nvnao",4,"continue","",3115.5,3093.75,3115.5,3115.5,3093.75,3115.5,1,3115.5,0,0,NA,"Click To Continue","Continue Button",2,"object-44","Task Instructions",NA,"SUPAMT13097"
"6",1695826733287,"27/09/2023 14:58:53",1695808733287,-5,"27/09/2023 04:58:53",144636,4,"task-hbx7",NA,31896992,9431952,NA,"complete","dbvzfr","3HPZF4IVNSSVAULK2L07DSO1FRXYC3","computer","Desktop or Laptop","Windows 10","Chrome 116.0.0.0","1364x768","1346x602",NA,NA,0,"Task Introduction and Instructions (Clone)",9,"DECFBGAHJI","Passed AC2","","Spreadsheet1",NA,"","","",NA,"5","END",NA,NA,NA,NA,NA,NA,0,NA,NA,NA,NA,"","",NA,"","",NA,"SUPAMT13097"
"1",1695823124736,"27/09/2023 13:58:44",1695808724736,-4,"27/09/2023 05:58:44",144636,4,"task-hbx7",NA,31897003,9431998,NA,"complete","locbhl","3CFJTT4SXZP38DBJ7M6TBI2ZOW8I7M","computer","Desktop or Laptop","Windows 10","Chrome 116.0.0.0","1366x768","1366x619",NA,NA,0,"Task Introduction and Instructions (Clone)",9,"HIGJFAEBDC","Passed AC2","","Spreadsheet1",NA,"","","",NA,"5","BEGIN",NA,NA,NA,NA,NA,NA,0,NA,NA,NA,NA,"","",NA,"","",NA,"SUPAMT84418"
"2",1695823143284,"27/09/2023 13:59:03",1695808743284,-4,"27/09/2023 05:59:03",144636,4,"task-hbx7",NA,31897003,9431998,NA,"complete","locbhl","3CFJTT4SXZP38DBJ7M6TBI2ZOW8I7M","computer","Desktop or Laptop","Windows 10","Chrome 116.0.0.0","1366x768","1366x619",NA,NA,0,"Task Introduction and Instructions (Clone)",9,"HIGJFAEBDC","Passed AC2","","Spreadsheet1",1,"Task Instructions","Screen 1","anr7sn",1,"continue","",18458.914,18442.248,18458.914,18458.914,18442.248,18458.914,1,18458.914,0,0,NA,"Click To Continue","Continue Button",2,"object-1944","Task Instructions",NA,"SUPAMT84418"
"3",1695823149220,"27/09/2023 13:59:09",1695808749220,-4,"27/09/2023 05:59:09",144636,4,"task-hbx7",NA,31897003,9431998,NA,"complete","locbhl","3CFJTT4SXZP38DBJ7M6TBI2ZOW8I7M","computer","Desktop or Laptop","Windows 10","Chrome 116.0.0.0","1366x768","1366x619",NA,NA,0,"Task Introduction and Instructions (Clone)",9,"HIGJFAEBDC","Passed AC2","","Spreadsheet1",1,"Task Instructions","Screen 2","ce2tc8",2,"continue","",5952.25299995232,5942.515,5952.25299995232,5952.25299995232,5942.515,5952.25299995232,1,5952.25299995232,0,0,NA,"Click To Continue","Continue Button",2,"object-7","Task Instructions",NA,"SUPAMT84418"
"4",1695823155004,"27/09/2023 13:59:15",1695808755004,-4,"27/09/2023 05:59:15",144636,4,"task-hbx7",NA,31897003,9431998,NA,"complete","locbhl","3CFJTT4SXZP38DBJ7M6TBI2ZOW8I7M","computer","Desktop or Laptop","Windows 10","Chrome 116.0.0.0","1366x768","1366x619",NA,NA,0,"Task Introduction and Instructions (Clone)",9,"HIGJFAEBDC","Passed AC2","","Spreadsheet1",1,"Task Instructions","Screen 5","spepx9",3,"continue","",5793.73799995231,5777.159,5793.73799995231,5793.73799995231,5777.159,5793.73799995231,1,5793.73799995231,0,0,NA,"Click To Continue","Continue Button",2,"object-9","Task Instructions",NA,"SUPAMT84418"
"5",1695823159229,"27/09/2023 13:59:19",1695808759229,-4,"27/09/2023 05:59:19",144636,4,"task-hbx7",NA,31897003,9431998,NA,"complete","locbhl","3CFJTT4SXZP38DBJ7M6TBI2ZOW8I7M","computer","Desktop or Laptop","Windows 10","Chrome 116.0.0.0","1366x768","1366x619",NA,NA,0,"Task Introduction and Instructions (Clone)",9,"HIGJFAEBDC","Passed AC2","","Spreadsheet1",1,"Task Instructions","Screen 9","8nvnao",4,"continue","",4240.87899990463,4230.927,4240.87899990463,4240.87899990463,4230.927,4240.87899990463,1,4240.87899990463,0,0,NA,"Click To Continue","Continue Button",2,"object-44","Task Instructions",NA,"SUPAMT84418"
"6",1695823159238,"27/09/2023 13:59:19",1695808759238,-4,"27/09/2023 05:59:19",144636,4,"task-hbx7",NA,31897003,9431998,NA,"complete","locbhl","3CFJTT4SXZP38DBJ7M6TBI2ZOW8I7M","computer","Desktop or Laptop","Windows 10","Chrome 116.0.0.0","1366x768","1366x619",NA,NA,0,"Task Introduction and Instructions (Clone)",9,"HIGJFAEBDC","Passed AC2","","Spreadsheet1",NA,"","","",NA,"5","END",NA,NA,NA,NA,NA,NA,0,NA,NA,NA,NA,"","",NA,"","",NA,"SUPAMT84418"
"1",1695823353001,"27/09/2023 14:02:33",1695808953001,-4,"27/09/2023 06:02:33",144636,4,"task-hbx7",NA,31897143,9432024,NA,"complete","qlzqvl","3137ONMDKM4AL1KY46KWWGH0V6JEGB","computer","Desktop or Laptop","Windows 10","Chrome 116.0.0.0","1280x1024","1280x875",NA,NA,0,"Task Introduction and Instructions (Clone)",9,"ABJCIDHEGF","Passed AC2","","Spreadsheet1",NA,"","","",NA,"5","BEGIN",NA,NA,NA,NA,NA,NA,0,NA,NA,NA,NA,"","",NA,"","",NA,"SUPAMT26473"
"2",1695823357126,"27/09/2023 14:02:37",1695808957126,-4,"27/09/2023 06:02:37",144636,4,"task-hbx7",NA,31897143,9432024,NA,"complete","qlzqvl","3137ONMDKM4AL1KY46KWWGH0V6JEGB","computer","Desktop or Laptop","Windows 10","Chrome 116.0.0.0","1280x1024","1280x875",NA,NA,0,"Task Introduction and Instructions (Clone)",9,"ABJCIDHEGF","Passed AC2","","Spreadsheet1",1,"Task Instructions","Screen 1","anr7sn",1,"continue","",3993.53300014305,3985.715,3993.53300014305,3993.53300014305,3985.715,3993.53300014305,1,3993.53300014305,0,0,NA,"Click To Continue","Continue Button",2,"object-1944","Task Instructions",NA,"SUPAMT26473"
"3",1695823360076,"27/09/2023 14:02:40",1695808960076,-4,"27/09/2023 06:02:40",144636,4,"task-hbx7",NA,31897143,9432024,NA,"complete","qlzqvl","3137ONMDKM4AL1KY46KWWGH0V6JEGB","computer","Desktop or Laptop","Windows 10","Chrome 116.0.0.0","1280x1024","1280x875",NA,NA,0,"Task Introduction and Instructions (Clone)",9,"ABJCIDHEGF","Passed AC2","","Spreadsheet1",1,"Task Instructions","Screen 2","ce2tc8",2,"continue","",2958.718,2949.424,2958.718,2958.718,2949.424,2958.718,1,2958.718,0,0,NA,"Click To Continue","Continue Button",2,"object-7","Task Instructions",NA,"SUPAMT26473"
"4",1695823364989,"27/09/2023 14:02:44",1695808964989,-4,"27/09/2023 06:02:44",144636,4,"task-hbx7",NA,31897143,9432024,NA,"complete","qlzqvl","3137ONMDKM4AL1KY46KWWGH0V6JEGB","computer","Desktop or Laptop","Windows 10","Chrome 116.0.0.0","1280x1024","1280x875",NA,NA,0,"Task Introduction and Instructions (Clone)",9,"ABJCIDHEGF","Passed AC2","","Spreadsheet1",1,"Task Instructions","Screen 5","spepx9",3,"continue","",4921.99400004768,4911.029,4921.99400004768,4921.99400004768,4911.029,4921.99400004768,1,4921.99400004768,0,0,NA,"Click To Continue","Continue Button",2,"object-9","Task Instructions",NA,"SUPAMT26473"
"5",1695823383684,"27/09/2023 14:03:03",1695808983684,-4,"27/09/2023 06:03:03",144636,4,"task-hbx7",NA,31897143,9432024,NA,"complete","qlzqvl","3137ONMDKM4AL1KY46KWWGH0V6JEGB","computer","Desktop or Laptop","Windows 10","Chrome 116.0.0.0","1280x1024","1280x875",NA,NA,0,"Task Introduction and Instructions (Clone)",9,"ABJCIDHEGF","Passed AC2","","Spreadsheet1",1,"Task Instructions","Screen 9","8nvnao",4,"continue","",18705.5649999523,18696.818,18705.5649999523,18705.5649999523,18696.818,18705.5649999523,1,18705.5649999523,0,0,NA,"Click To Continue","Continue Button",2,"object-44","Task Instructions",NA,"SUPAMT26473"
"6",1695823383690,"27/09/2023 14:03:03",1695808983690,-4,"27/09/2023 06:03:03",144636,4,"task-hbx7",NA,31897143,9432024,NA,"complete","qlzqvl","3137ONMDKM4AL1KY46KWWGH0V6JEGB","computer","Desktop or Laptop","Windows 10","Chrome 116.0.0.0","1280x1024","1280x875",NA,NA,0,"Task Introduction and Instructions (Clone)",9,"ABJCIDHEGF","Passed AC2","","Spreadsheet1",NA,"","","",NA,"5","END",NA,NA,NA,NA,NA,NA,0,NA,NA,NA,NA,"","",NA,"","",NA,"SUPAMT26473"
"1",1695845310296,"27/09/2023 20:08:30",1695830910296,-4,"27/09/2023 12:08:30",144636,4,"task-hbx7",NA,31897319,9432154,NA,"complete","gpgjfx","3K3R2QNK8H2CVNUCG0TR8HHGDHK9UY","computer","Desktop or Laptop","Windows 10","Chrome 116.0.0.0","1280x1024","1280x875",NA,NA,0,"Task Introduction and Instructions (Clone)",9,"GHFIEJDACB","Passed AC2","","Spreadsheet1",NA,"","","",NA,"5","BEGIN",NA,NA,NA,NA,NA,NA,0,NA,NA,NA,NA,"","",NA,"","",NA,"SUPAMT40465"
"2",1695845314032,"27/09/2023 20:08:34",1695830914032,-4,"27/09/2023 12:08:34",144636,4,"task-hbx7",NA,31897319,9432154,NA,"complete","gpgjfx","3K3R2QNK8H2CVNUCG0TR8HHGDHK9UY","computer","Desktop or Laptop","Windows 10","Chrome 116.0.0.0","1280x1024","1280x875",NA,NA,0,"Task Introduction and Instructions (Clone)",9,"GHFIEJDACB","Passed AC2","","Spreadsheet1",1,"Task Instructions","Screen 1","anr7sn",1,"continue","",3613.41200004768,3610.008,3613.41200004768,3613.41200004768,3610.008,3613.41200004768,1,3613.41200004768,0,0,NA,"Click To Continue","Continue Button",2,"object-1944","Task Instructions",NA,"SUPAMT40465"
"3",1695845317268,"27/09/2023 20:08:37",1695830917268,-4,"27/09/2023 12:08:37",144636,4,"task-hbx7",NA,31897319,9432154,NA,"complete","gpgjfx","3K3R2QNK8H2CVNUCG0TR8HHGDHK9UY","computer","Desktop or Laptop","Windows 10","Chrome 116.0.0.0","1280x1024","1280x875",NA,NA,0,"Task Introduction and Instructions (Clone)",9,"GHFIEJDACB","Passed AC2","","Spreadsheet1",1,"Task Instructions","Screen 2","ce2tc8",2,"continue","",3238.90400004768,3229.409,3238.90400004768,3238.90400004768,3229.409,3238.90400004768,1,3238.90400004768,0,0,NA,"Click To Continue","Continue Button",2,"object-7","Task Instructions",NA,"SUPAMT40465"
"4",1695845320364,"27/09/2023 20:08:40",1695830920364,-4,"27/09/2023 12:08:40",144636,4,"task-hbx7",NA,31897319,9432154,NA,"complete","gpgjfx","3K3R2QNK8H2CVNUCG0TR8HHGDHK9UY","computer","Desktop or Laptop","Windows 10","Chrome 116.0.0.0","1280x1024","1280x875",NA,NA,0,"Task Introduction and Instructions (Clone)",9,"GHFIEJDACB","Passed AC2","","Spreadsheet1",1,"Task Instructions","Screen 5","spepx9",3,"continue","",3105.59499995232,3094.174,3105.59499995232,3105.59499995232,3094.174,3105.59499995232,1,3105.59499995232,0,0,NA,"Click To Continue","Continue Button",2,"object-9","Task Instructions",NA,"SUPAMT40465"
"5",1695845323744,"27/09/2023 20:08:43",1695830923744,-4,"27/09/2023 12:08:43",144636,4,"task-hbx7",NA,31897319,9432154,NA,"complete","gpgjfx","3K3R2QNK8H2CVNUCG0TR8HHGDHK9UY","computer","Desktop or Laptop","Windows 10","Chrome 116.0.0.0","1280x1024","1280x875",NA,NA,0,"Task Introduction and Instructions (Clone)",9,"GHFIEJDACB","Passed AC2","","Spreadsheet1",1,"Task Instructions","Screen 9","8nvnao",4,"continue","",3392.22099990463,3372.458,3392.22099990463,3392.22099990463,3372.458,3392.22099990463,1,3392.22099990463,0,0,NA,"Click To Continue","Continue Button",2,"object-44","Task Instructions",NA,"SUPAMT40465"
"6",1695845323748,"27/09/2023 20:08:43",1695830923748,-4,"27/09/2023 12:08:43",144636,4,"task-hbx7",NA,31897319,9432154,NA,"complete","gpgjfx","3K3R2QNK8H2CVNUCG0TR8HHGDHK9UY","computer","Desktop or Laptop","Windows 10","Chrome 116.0.0.0","1280x1024","1280x875",NA,NA,0,"Task Introduction and Instructions (Clone)",9,"GHFIEJDACB","Passed AC2","","Spreadsheet1",NA,"","","",NA,"5","END",NA,NA,NA,NA,NA,NA,0,NA,NA,NA,NA,"","",NA,"","",NA,"SUPAMT40465"
"1",1695823845173,"27/09/2023 14:10:45",1695809445173,-4,"27/09/2023 06:10:45",144636,4,"task-hbx7",NA,31897421,9432110,NA,"complete","nmmhkj","3G5F9DBFOVW5N81VJ2ROHKHNA10VHY","computer","Desktop or Laptop","Windows 10","Chrome 116.0.0.0","1366x768","1366x619",NA,NA,0,"Task Introduction and Instructions (Clone)",9,"EFDGCHBIAJ","Failed AC2","Passed AC1","Spreadsheet1",NA,"","","",NA,"5","BEGIN",NA,NA,NA,NA,NA,NA,0,NA,NA,NA,NA,"","",NA,"","",NA,"SUPAMT53463"
"2",1695823853092,"27/09/2023 14:10:53",1695809453092,-4,"27/09/2023 06:10:53",144636,4,"task-hbx7",NA,31897421,9432110,NA,"complete","nmmhkj","3G5F9DBFOVW5N81VJ2ROHKHNA10VHY","computer","Desktop or Laptop","Windows 10","Chrome 116.0.0.0","1366x768","1366x619",NA,NA,0,"Task Introduction and Instructions (Clone)",9,"EFDGCHBIAJ","Failed AC2","Passed AC1","Spreadsheet1",1,"Task Instructions","Screen 1","anr7sn",1,"continue","",7861.59099985695,7843.75,7861.59099985695,7861.59099985695,7843.75,7861.59099985695,1,7861.59099985695,0,0,NA,"Click To Continue","Continue Button",2,"object-1944","Task Instructions",NA,"SUPAMT53463"
"3",1695823865960,"27/09/2023 14:11:05",1695809465960,-4,"27/09/2023 06:11:05",144636,4,"task-hbx7",NA,31897421,9432110,NA,"complete","nmmhkj","3G5F9DBFOVW5N81VJ2ROHKHNA10VHY","computer","Desktop or Laptop","Windows 10","Chrome 116.0.0.0","1366x768","1366x619",NA,NA,0,"Task Introduction and Instructions (Clone)",9,"EFDGCHBIAJ","Failed AC2","Passed AC1","Spreadsheet1",1,"Task Instructions","Screen 2","ce2tc8",2,"continue","",12885.5409999046,12875,12885.5409999046,12885.5409999046,12875,12885.5409999046,1,12885.5409999046,0,0,NA,"Click To Continue","Continue Button",2,"object-7","Task Instructions",NA,"SUPAMT53463"
"4",1695823870817,"27/09/2023 14:11:10",1695809470817,-4,"27/09/2023 06:11:10",144636,4,"task-hbx7",NA,31897421,9432110,NA,"complete","nmmhkj","3G5F9DBFOVW5N81VJ2ROHKHNA10VHY","computer","Desktop or Laptop","Windows 10","Chrome 116.0.0.0","1366x768","1366x619",NA,NA,0,"Task Introduction and Instructions (Clone)",9,"EFDGCHBIAJ","Failed AC2","Passed AC1","Spreadsheet1",1,"Task Instructions","Screen 5","spepx9",3,"continue","",4867.441,4843.75,4867.441,4867.441,4843.75,4867.441,1,4867.441,0,0,NA,"Click To Continue","Continue Button",2,"object-9","Task Instructions",NA,"SUPAMT53463"
"5",1695823875717,"27/09/2023 14:11:15",1695809475717,-4,"27/09/2023 06:11:15",144636,4,"task-hbx7",NA,31897421,9432110,NA,"complete","nmmhkj","3G5F9DBFOVW5N81VJ2ROHKHNA10VHY","computer","Desktop or Laptop","Windows 10","Chrome 116.0.0.0","1366x768","1366x619",NA,NA,0,"Task Introduction and Instructions (Clone)",9,"EFDGCHBIAJ","Failed AC2","Passed AC1","Spreadsheet1",1,"Task Instructions","Screen 9","8nvnao",4,"continue","",4923.99099995232,4906.25,4923.99099995232,4923.99099995232,4906.25,4923.99099995232,1,4923.99099995232,0,0,NA,"Click To Continue","Continue Button",2,"object-44","Task Instructions",NA,"SUPAMT53463"
"6",1695823875725,"27/09/2023 14:11:15",1695809475725,-4,"27/09/2023 06:11:15",144636,4,"task-hbx7",NA,31897421,9432110,NA,"complete","nmmhkj","3G5F9DBFOVW5N81VJ2ROHKHNA10VHY","computer","Desktop or Laptop","Windows 10","Chrome 116.0.0.0","1366x768","1366x619",NA,NA,0,"Task Introduction and Instructions (Clone)",9,"EFDGCHBIAJ","Failed AC2","Passed AC1","Spreadsheet1",NA,"","","",NA,"5","END",NA,NA,NA,NA,NA,NA,0,NA,NA,NA,NA,"","",NA,"","",NA,"SUPAMT53463"
"1",1695824312671,"27/09/2023 14:18:32",1695809912671,-4,"27/09/2023 06:18:32",144636,4,"task-hbx7",NA,31897721,9432180,NA,"complete","ywycqd","","computer","Desktop or Laptop","Windows 10","Chrome 117.0.0.0","1366x768","1366x619",NA,NA,0,"Task Introduction and Instructions (Clone)",9,"IJHAGBFCED","Passed AC2","","Spreadsheet1",NA,"","","",NA,"5","BEGIN",NA,NA,NA,NA,NA,NA,0,NA,NA,NA,NA,"","",NA,"","",NA,"SUPAMT35697"
"2",1695824363130,"27/09/2023 14:19:23",1695809963130,-4,"27/09/2023 06:19:23",144636,4,"task-hbx7",NA,31897721,9432180,NA,"complete","ywycqd","","computer","Desktop or Laptop","Windows 10","Chrome 117.0.0.0","1366x768","1366x619",NA,NA,0,"Task Introduction and Instructions (Clone)",9,"IJHAGBFCED","Passed AC2","","Spreadsheet1",1,"Task Instructions","Screen 1","anr7sn",1,"continue","",50415.2129999985,50406.25,50415.2129999985,50415.2129999985,50406.25,50415.2129999985,1,50415.2129999985,0,0,NA,"Click To Continue","Continue Button",2,"object-1944","Task Instructions",NA,"SUPAMT35697"
"3",1695824538848,"27/09/2023 14:22:18",1695810138848,-4,"27/09/2023 06:22:18",144636,4,"task-hbx7",NA,31897721,9432180,NA,"complete","ywycqd","","computer","Desktop or Laptop","Windows 10","Chrome 117.0.0.0","1366x768","1366x619",NA,NA,0,"Task Introduction and Instructions (Clone)",9,"IJHAGBFCED","Passed AC2","","Spreadsheet1",1,"Task Instructions","Screen 2","ce2tc8",2,"continue","",175729.663000001,175718.75,175729.663000001,175729.663000001,175718.75,175729.663000001,1,175729.663000001,0,0,NA,"Click To Continue","Continue Button",2,"object-7","Task Instructions",NA,"SUPAMT35697"
"4",1695824599028,"27/09/2023 14:23:19",1695810199028,-4,"27/09/2023 06:23:19",144636,4,"task-hbx7",NA,31897721,9432180,NA,"complete","ywycqd","","computer","Desktop or Laptop","Windows 10","Chrome 117.0.0.0","1366x768","1366x619",NA,NA,0,"Task Introduction and Instructions (Clone)",9,"IJHAGBFCED","Passed AC2","","Spreadsheet1",1,"Task Instructions","Screen 5","spepx9",3,"continue","",60191.813,60187.5,60191.813,60191.813,60187.5,60191.813,1,60191.813,0,0,NA,"Click To Continue","Continue Button",2,"object-9","Task Instructions",NA,"SUPAMT35697"
"5",1695824602844,"27/09/2023 14:23:22",1695810202844,-4,"27/09/2023 06:23:22",144636,4,"task-hbx7",NA,31897721,9432180,NA,"complete","ywycqd","","computer","Desktop or Laptop","Windows 10","Chrome 117.0.0.0","1366x768","1366x619",NA,NA,0,"Task Introduction and Instructions (Clone)",9,"IJHAGBFCED","Passed AC2","","Spreadsheet1",1,"Task Instructions","Screen 9","8nvnao",4,"continue","",3820.513000003,3812.5,3820.513000003,3820.513000003,3812.5,3820.513000003,1,3820.513000003,0,0,NA,"Click To Continue","Continue Button",2,"object-44","Task Instructions",NA,"SUPAMT35697"
"6",1695824602847,"27/09/2023 14:23:22",1695810202847,-4,"27/09/2023 06:23:22",144636,4,"task-hbx7",NA,31897721,9432180,NA,"complete","ywycqd","","computer","Desktop or Laptop","Windows 10","Chrome 117.0.0.0","1366x768","1366x619",NA,NA,0,"Task Introduction and Instructions (Clone)",9,"IJHAGBFCED","Passed AC2","","Spreadsheet1",NA,"","","",NA,"5","END",NA,NA,NA,NA,NA,NA,0,NA,NA,NA,NA,"","",NA,"","",NA,"SUPAMT35697"
"1",1695824416608,"27/09/2023 14:20:16",1695810016608,-4,"27/09/2023 06:20:16",144636,4,"task-hbx7",NA,31897781,9432268,NA,"complete","lldbkq","3VHP9MDGRTJPA34PXV8JO7HL9F9CFK","computer","Desktop or Laptop","Windows 10","Chrome 116.0.0.0","1280x1024","1280x907",NA,NA,0,"Task Introduction and Instructions (Clone)",9,"BCADJEIFHG","Failed AC2","Passed AC1","Spreadsheet1",NA,"","","",NA,"5","BEGIN",NA,NA,NA,NA,NA,NA,0,NA,NA,NA,NA,"","",NA,"","",NA,"SUPAMT90660"
"2",1695824420270,"27/09/2023 14:20:20",1695810020270,-4,"27/09/2023 06:20:20",144636,4,"task-hbx7",NA,31897781,9432268,NA,"complete","lldbkq","3VHP9MDGRTJPA34PXV8JO7HL9F9CFK","computer","Desktop or Laptop","Windows 10","Chrome 116.0.0.0","1280x1024","1280x907",NA,NA,0,"Task Introduction and Instructions (Clone)",9,"BCADJEIFHG","Failed AC2","Passed AC1","Spreadsheet1",1,"Task Instructions","Screen 1","anr7sn",1,"continue","",3517.972,3502.613,3517.972,3517.972,3502.613,3517.972,1,3517.972,0,0,NA,"Click To Continue","Continue Button",2,"object-1944","Task Instructions",NA,"SUPAMT90660"
"3",1695824423772,"27/09/2023 14:20:23",1695810023772,-4,"27/09/2023 06:20:23",144636,4,"task-hbx7",NA,31897781,9432268,NA,"complete","lldbkq","3VHP9MDGRTJPA34PXV8JO7HL9F9CFK","computer","Desktop or Laptop","Windows 10","Chrome 116.0.0.0","1280x1024","1280x907",NA,NA,0,"Task Introduction and Instructions (Clone)",9,"BCADJEIFHG","Failed AC2","Passed AC1","Spreadsheet1",1,"Task Instructions","Screen 2","ce2tc8",2,"continue","",3518.15899995232,3514.404,3518.15899995232,3518.15899995232,3514.404,3518.15899995232,1,3518.15899995232,0,0,NA,"Click To Continue","Continue Button",2,"object-7","Task Instructions",NA,"SUPAMT90660"
"4",1695824427253,"27/09/2023 14:20:27",1695810027253,-4,"27/09/2023 06:20:27",144636,4,"task-hbx7",NA,31897781,9432268,NA,"complete","lldbkq","3VHP9MDGRTJPA34PXV8JO7HL9F9CFK","computer","Desktop or Laptop","Windows 10","Chrome 116.0.0.0","1280x1024","1280x907",NA,NA,0,"Task Introduction and Instructions (Clone)",9,"BCADJEIFHG","Failed AC2","Passed AC1","Spreadsheet1",1,"Task Instructions","Screen 5","spepx9",3,"continue","",3484.75499995232,3473.499,3484.75499995232,3484.75499995232,3473.499,3484.75499995232,1,3484.75499995232,0,0,NA,"Click To Continue","Continue Button",2,"object-9","Task Instructions",NA,"SUPAMT90660"
"5",1695824430341,"27/09/2023 14:20:30",1695810030341,-4,"27/09/2023 06:20:30",144636,4,"task-hbx7",NA,31897781,9432268,NA,"complete","lldbkq","3VHP9MDGRTJPA34PXV8JO7HL9F9CFK","computer","Desktop or Laptop","Windows 10","Chrome 116.0.0.0","1280x1024","1280x907",NA,NA,0,"Task Introduction and Instructions (Clone)",9,"BCADJEIFHG","Failed AC2","Passed AC1","Spreadsheet1",1,"Task Instructions","Screen 9","8nvnao",4,"continue","",3098.75599995232,3088.546,3098.75599995232,3098.75599995232,3088.546,3098.75599995232,1,3098.75599995232,0,0,NA,"Click To Continue","Continue Button",2,"object-44","Task Instructions",NA,"SUPAMT90660"
"6",1695824430343,"27/09/2023 14:20:30",1695810030343,-4,"27/09/2023 06:20:30",144636,4,"task-hbx7",NA,31897781,9432268,NA,"complete","lldbkq","3VHP9MDGRTJPA34PXV8JO7HL9F9CFK","computer","Desktop or Laptop","Windows 10","Chrome 116.0.0.0","1280x1024","1280x907",NA,NA,0,"Task Introduction and Instructions (Clone)",9,"BCADJEIFHG","Failed AC2","Passed AC1","Spreadsheet1",NA,"","","",NA,"5","END",NA,NA,NA,NA,NA,NA,0,NA,NA,NA,NA,"","",NA,"","",NA,"SUPAMT90660"
"1",1695824519558,"27/09/2023 14:21:59",1695810119558,-4,"27/09/2023 06:21:59",144636,4,"task-hbx7",NA,31897823,9432192,NA,"complete","fymfca","3BF51CHDT19PU70FG53ZWRRXG6NH0U","computer","Desktop or Laptop","Windows 10","Chrome 116.0.0.0","1366x768","1366x619",NA,NA,0,"Task Introduction and Instructions (Clone)",9,"JAIBHCGDFE","Passed AC2","","Spreadsheet1",NA,"","","",NA,"5","BEGIN",NA,NA,NA,NA,NA,NA,0,NA,NA,NA,NA,"","",NA,"","",NA,"SUPAMT73193"
"2",1695824555602,"27/09/2023 14:22:35",1695810155602,-4,"27/09/2023 06:22:35",144636,4,"task-hbx7",NA,31897823,9432192,NA,"complete","fymfca","3BF51CHDT19PU70FG53ZWRRXG6NH0U","computer","Desktop or Laptop","Windows 10","Chrome 116.0.0.0","1366x768","1366x619",NA,NA,0,"Task Introduction and Instructions (Clone)",9,"JAIBHCGDFE","Passed AC2","","Spreadsheet1",1,"Task Instructions","Screen 1","anr7sn",1,"continue","",35992,35968.75,35992,35992,35968.75,35992,1,35992,0,0,NA,"Click To Continue","Continue Button",2,"object-1944","Task Instructions",NA,"SUPAMT73193"
"3",1695824566991,"27/09/2023 14:22:46",1695810166991,-4,"27/09/2023 06:22:46",144636,4,"task-hbx7",NA,31897823,9432192,NA,"complete","fymfca","3BF51CHDT19PU70FG53ZWRRXG6NH0U","computer","Desktop or Laptop","Windows 10","Chrome 116.0.0.0","1366x768","1366x619",NA,NA,0,"Task Introduction and Instructions (Clone)",9,"JAIBHCGDFE","Passed AC2","","Spreadsheet1",1,"Task Instructions","Screen 2","ce2tc8",2,"continue","",11406.25,11375,11406.25,11406.25,11375,11406.25,1,11406.25,0,0,NA,"Click To Continue","Continue Button",2,"object-7","Task Instructions",NA,"SUPAMT73193"
"4",1695824574156,"27/09/2023 14:22:54",1695810174156,-4,"27/09/2023 06:22:54",144636,4,"task-hbx7",NA,31897823,9432192,NA,"complete","fymfca","3BF51CHDT19PU70FG53ZWRRXG6NH0U","computer","Desktop or Laptop","Windows 10","Chrome 116.0.0.0","1366x768","1366x619",NA,NA,0,"Task Introduction and Instructions (Clone)",9,"JAIBHCGDFE","Passed AC2","","Spreadsheet1",1,"Task Instructions","Screen 5","spepx9",3,"continue","",7202.25,7187.5,7202.25,7202.25,7187.5,7202.25,1,7202.25,0,0,NA,"Click To Continue","Continue Button",2,"object-9","Task Instructions",NA,"SUPAMT73193"
"5",1695824581926,"27/09/2023 14:23:01",1695810181926,-4,"27/09/2023 06:23:01",144636,4,"task-hbx7",NA,31897823,9432192,NA,"complete","fymfca","3BF51CHDT19PU70FG53ZWRRXG6NH0U","computer","Desktop or Laptop","Windows 10","Chrome 116.0.0.0","1366x768","1366x619",NA,NA,0,"Task Introduction and Instructions (Clone)",9,"JAIBHCGDFE","Passed AC2","","Spreadsheet1",1,"Task Instructions","Screen 9","8nvnao",4,"continue","",7781.25,7750,7781.25,7781.25,7750,7781.25,1,7781.25,0,0,NA,"Click To Continue","Continue Button",2,"object-44","Task Instructions",NA,"SUPAMT73193"
"6",1695824581935,"27/09/2023 14:23:01",1695810181935,-4,"27/09/2023 06:23:01",144636,4,"task-hbx7",NA,31897823,9432192,NA,"complete","fymfca","3BF51CHDT19PU70FG53ZWRRXG6NH0U","computer","Desktop or Laptop","Windows 10","Chrome 116.0.0.0","1366x768","1366x619",NA,NA,0,"Task Introduction and Instructions (Clone)",9,"JAIBHCGDFE","Passed AC2","","Spreadsheet1",NA,"","","",NA,"5","END",NA,NA,NA,NA,NA,NA,0,NA,NA,NA,NA,"","",NA,"","",NA,"SUPAMT73193"
"1",1695824680559,"27/09/2023 14:24:40",1695810280559,-4,"27/09/2023 06:24:40",144636,4,"task-hbx7",NA,31897901,9432136,NA,"complete","camtlm","3K772S5NPEAOLXF9OC2EHGT1A6XHEE","computer","Desktop or Laptop","Windows 10","Chrome 116.0.0.0","1366x768","1366x619",NA,NA,0,"Task Introduction and Instructions (Clone)",9,"CDBEAFJGIH","Failed AC2","Passed AC1","Spreadsheet1",NA,"","","",NA,"5","BEGIN",NA,NA,NA,NA,NA,NA,0,NA,NA,NA,NA,"","",NA,"","",NA,"SUPAMT29384"
"2",1695824685851,"27/09/2023 14:24:45",1695810285851,-4,"27/09/2023 06:24:45",144636,4,"task-hbx7",NA,31897901,9432136,NA,"complete","camtlm","3K772S5NPEAOLXF9OC2EHGT1A6XHEE","computer","Desktop or Laptop","Windows 10","Chrome 116.0.0.0","1366x768","1366x619",NA,NA,0,"Task Introduction and Instructions (Clone)",9,"CDBEAFJGIH","Failed AC2","Passed AC1","Spreadsheet1",1,"Task Instructions","Screen 1","anr7sn",1,"continue","",5250,5218.75,5250,5250,5218.75,5250,1,5250,0,0,NA,"Click To Continue","Continue Button",2,"object-1944","Task Instructions",NA,"SUPAMT29384"
"3",1695824690164,"27/09/2023 14:24:50",1695810290164,-4,"27/09/2023 06:24:50",144636,4,"task-hbx7",NA,31897901,9432136,NA,"complete","camtlm","3K772S5NPEAOLXF9OC2EHGT1A6XHEE","computer","Desktop or Laptop","Windows 10","Chrome 116.0.0.0","1366x768","1366x619",NA,NA,0,"Task Introduction and Instructions (Clone)",9,"CDBEAFJGIH","Failed AC2","Passed AC1","Spreadsheet1",1,"Task Instructions","Screen 2","ce2tc8",2,"continue","",4347.67500019073,4343.75,4347.67500019073,4347.67500019073,4343.75,4347.67500019073,1,4347.67500019073,0,0,NA,"Click To Continue","Continue Button",2,"object-7","Task Instructions",NA,"SUPAMT29384"
"4",1695824697049,"27/09/2023 14:24:57",1695810297049,-4,"27/09/2023 06:24:57",144636,4,"task-hbx7",NA,31897901,9432136,NA,"complete","camtlm","3K772S5NPEAOLXF9OC2EHGT1A6XHEE","computer","Desktop or Laptop","Windows 10","Chrome 116.0.0.0","1366x768","1366x619",NA,NA,0,"Task Introduction and Instructions (Clone)",9,"CDBEAFJGIH","Failed AC2","Passed AC1","Spreadsheet1",1,"Task Instructions","Screen 5","spepx9",3,"continue","",6888.32500004768,6875,6888.32500004768,6888.32500004768,6875,6888.32500004768,1,6888.32500004768,0,0,NA,"Click To Continue","Continue Button",2,"object-9","Task Instructions",NA,"SUPAMT29384"
"5",1695824710065,"27/09/2023 14:25:10",1695810310065,-4,"27/09/2023 06:25:10",144636,4,"task-hbx7",NA,31897901,9432136,NA,"complete","camtlm","3K772S5NPEAOLXF9OC2EHGT1A6XHEE","computer","Desktop or Laptop","Windows 10","Chrome 116.0.0.0","1366x768","1366x619",NA,NA,0,"Task Introduction and Instructions (Clone)",9,"CDBEAFJGIH","Failed AC2","Passed AC1","Spreadsheet1",1,"Task Instructions","Screen 9","8nvnao",4,"continue","",13029.2250001431,13000,13029.2250001431,13029.2250001431,13000,13029.2250001431,1,13029.2250001431,0,0,NA,"Click To Continue","Continue Button",2,"object-44","Task Instructions",NA,"SUPAMT29384"
"6",1695824710070,"27/09/2023 14:25:10",1695810310070,-4,"27/09/2023 06:25:10",144636,4,"task-hbx7",NA,31897901,9432136,NA,"complete","camtlm","3K772S5NPEAOLXF9OC2EHGT1A6XHEE","computer","Desktop or Laptop","Windows 10","Chrome 116.0.0.0","1366x768","1366x619",NA,NA,0,"Task Introduction and Instructions (Clone)",9,"CDBEAFJGIH","Failed AC2","Passed AC1","Spreadsheet1",NA,"","","",NA,"5","END",NA,NA,NA,NA,NA,NA,0,NA,NA,NA,NA,"","",NA,"","",NA,"SUPAMT29384"
"1",1695825877951,"27/09/2023 14:44:37",1695811477951,-4,"27/09/2023 06:44:37",144636,4,"task-hbx7",NA,31898659,9432512,NA,"complete","avivci","3UXUOQ9OKKWO2VSLVYEGUKEGBO4A7B","computer","Desktop or Laptop","Windows 10","Chrome 116.0.0.0","1280x1024","1280x875",NA,NA,0,"Task Introduction and Instructions (Clone)",9,"GHFIEJDACB","Passed AC2","","Spreadsheet1",NA,"","","",NA,"5","BEGIN",NA,NA,NA,NA,NA,NA,0,NA,NA,NA,NA,"","",NA,"","",NA,"SUPAMT92652"
"2",1695825881783,"27/09/2023 14:44:41",1695811481783,-4,"27/09/2023 06:44:41",144636,4,"task-hbx7",NA,31898659,9432512,NA,"complete","avivci","3UXUOQ9OKKWO2VSLVYEGUKEGBO4A7B","computer","Desktop or Laptop","Windows 10","Chrome 116.0.0.0","1280x1024","1280x875",NA,NA,0,"Task Introduction and Instructions (Clone)",9,"GHFIEJDACB","Passed AC2","","Spreadsheet1",1,"Task Instructions","Screen 1","anr7sn",1,"continue","",3709.787,3698.136,3709.787,3709.787,3698.136,3709.787,1,3709.787,0,0,NA,"Click To Continue","Continue Button",2,"object-1944","Task Instructions",NA,"SUPAMT92652"
"3",1695826226498,"27/09/2023 14:50:26",1695811826498,-4,"27/09/2023 06:50:26",144636,4,"task-hbx7",NA,31898659,9432512,NA,"complete","avivci","3UXUOQ9OKKWO2VSLVYEGUKEGBO4A7B","computer","Desktop or Laptop","Windows 10","Chrome 116.0.0.0","1280x1024","1280x875",NA,NA,0,"Task Introduction and Instructions (Clone)",9,"GHFIEJDACB","Passed AC2","","Spreadsheet1",1,"Task Instructions","Screen 2","ce2tc8",2,"continue","",344724.550999857,344719.942,344724.550999857,344724.550999857,344719.942,344724.550999857,1,344724.550999857,0,0,NA,"Click To Continue","Continue Button",2,"object-7","Task Instructions",NA,"SUPAMT92652"
"4",1695826230305,"27/09/2023 14:50:30",1695811830305,-4,"27/09/2023 06:50:30",144636,4,"task-hbx7",NA,31898659,9432512,NA,"complete","avivci","3UXUOQ9OKKWO2VSLVYEGUKEGBO4A7B","computer","Desktop or Laptop","Windows 10","Chrome 116.0.0.0","1280x1024","1280x875",NA,NA,0,"Task Introduction and Instructions (Clone)",9,"GHFIEJDACB","Passed AC2","","Spreadsheet1",1,"Task Instructions","Screen 5","spepx9",3,"continue","",3812.30899990461,3797.00999999995,3812.30899990461,3812.30899990461,3797.00999999995,3812.30899990461,1,3812.30899990461,0,0,NA,"Click To Continue","Continue Button",2,"object-9","Task Instructions",NA,"SUPAMT92652"
"5",1695826236505,"27/09/2023 14:50:36",1695811836505,-4,"27/09/2023 06:50:36",144636,4,"task-hbx7",NA,31898659,9432512,NA,"complete","avivci","3UXUOQ9OKKWO2VSLVYEGUKEGBO4A7B","computer","Desktop or Laptop","Windows 10","Chrome 116.0.0.0","1280x1024","1280x875",NA,NA,0,"Task Introduction and Instructions (Clone)",9,"GHFIEJDACB","Passed AC2","","Spreadsheet1",1,"Task Instructions","Screen 9","8nvnao",4,"continue","",6214.89900004771,6204.11300000001,6214.89900004771,6214.89900004771,6204.11300000001,6214.89900004771,1,6214.89900004771,0,0,NA,"Click To Continue","Continue Button",2,"object-44","Task Instructions",NA,"SUPAMT92652"
"6",1695826236508,"27/09/2023 14:50:36",1695811836508,-4,"27/09/2023 06:50:36",144636,4,"task-hbx7",NA,31898659,9432512,NA,"complete","avivci","3UXUOQ9OKKWO2VSLVYEGUKEGBO4A7B","computer","Desktop or Laptop","Windows 10","Chrome 116.0.0.0","1280x1024","1280x875",NA,NA,0,"Task Introduction and Instructions (Clone)",9,"GHFIEJDACB","Passed AC2","","Spreadsheet1",NA,"","","",NA,"5","END",NA,NA,NA,NA,NA,NA,0,NA,NA,NA,NA,"","",NA,"","",NA,"SUPAMT92652"
"1",1695826015551,"27/09/2023 14:46:55",1695811615551,-4,"27/09/2023 06:46:55",144636,4,"task-hbx7",NA,31898711,9432377,NA,"complete","jqddnj","","computer","Desktop or Laptop","Windows 10","Chrome 116.0.0.0","1280x1024","1280x875",NA,NA,0,"Task Introduction and Instructions (Clone)",9,"EFDGCHBIAJ","Passed AC2","","Spreadsheet1",NA,"","","",NA,"5","BEGIN",NA,NA,NA,NA,NA,NA,0,NA,NA,NA,NA,"","",NA,"","",NA,"SUPAMT35697"
"2",1695826026558,"27/09/2023 14:47:06",1695811626558,-4,"27/09/2023 06:47:06",144636,4,"task-hbx7",NA,31898711,9432377,NA,"complete","jqddnj","","computer","Desktop or Laptop","Windows 10","Chrome 116.0.0.0","1280x1024","1280x875",NA,NA,0,"Task Introduction and Instructions (Clone)",9,"EFDGCHBIAJ","Passed AC2","","Spreadsheet1",1,"Task Instructions","Screen 1","anr7sn",1,"continue","",10855.7229998569,10849.953,10855.7229998569,10855.7229998569,10849.953,10855.7229998569,1,10855.7229998569,0,0,NA,"Click To Continue","Continue Button",2,"object-1944","Task Instructions",NA,"SUPAMT35697"
"3",1695826029949,"27/09/2023 14:47:09",1695811629949,-4,"27/09/2023 06:47:09",144636,4,"task-hbx7",NA,31898711,9432377,NA,"complete","jqddnj","","computer","Desktop or Laptop","Windows 10","Chrome 116.0.0.0","1280x1024","1280x875",NA,NA,0,"Task Introduction and Instructions (Clone)",9,"EFDGCHBIAJ","Passed AC2","","Spreadsheet1",1,"Task Instructions","Screen 2","ce2tc8",2,"continue","",3395.635,3378.969,3395.635,3395.635,3378.969,3395.635,1,3395.635,0,0,NA,"Click To Continue","Continue Button",2,"object-7","Task Instructions",NA,"SUPAMT35697"
"4",1695826034142,"27/09/2023 14:47:14",1695811634142,-4,"27/09/2023 06:47:14",144636,4,"task-hbx7",NA,31898711,9432377,NA,"complete","jqddnj","","computer","Desktop or Laptop","Windows 10","Chrome 116.0.0.0","1280x1024","1280x875",NA,NA,0,"Task Introduction and Instructions (Clone)",9,"EFDGCHBIAJ","Passed AC2","","Spreadsheet1",1,"Task Instructions","Screen 5","spepx9",3,"continue","",4211.20099995232,4207.332,4211.20099995232,4211.20099995232,4207.332,4211.20099995232,1,4211.20099995232,0,0,NA,"Click To Continue","Continue Button",2,"object-9","Task Instructions",NA,"SUPAMT35697"
"5",1695826063997,"27/09/2023 14:47:43",1695811663997,-4,"27/09/2023 06:47:43",144636,4,"task-hbx7",NA,31898711,9432377,NA,"complete","jqddnj","","computer","Desktop or Laptop","Windows 10","Chrome 116.0.0.0","1280x1024","1280x875",NA,NA,0,"Task Introduction and Instructions (Clone)",9,"EFDGCHBIAJ","Passed AC2","","Spreadsheet1",1,"Task Instructions","Screen 9","8nvnao",4,"continue","",29857.717,29841.051,29857.717,29857.717,29841.051,29857.717,1,29857.717,0,0,NA,"Click To Continue","Continue Button",2,"object-44","Task Instructions",NA,"SUPAMT35697"
"6",1695826064005,"27/09/2023 14:47:44",1695811664005,-4,"27/09/2023 06:47:44",144636,4,"task-hbx7",NA,31898711,9432377,NA,"complete","jqddnj","","computer","Desktop or Laptop","Windows 10","Chrome 116.0.0.0","1280x1024","1280x875",NA,NA,0,"Task Introduction and Instructions (Clone)",9,"EFDGCHBIAJ","Passed AC2","","Spreadsheet1",NA,"","","",NA,"5","END",NA,NA,NA,NA,NA,NA,0,NA,NA,NA,NA,"","",NA,"","",NA,"SUPAMT35697"
"1",1695826072340,"27/09/2023 14:47:52",1695811672340,-4,"27/09/2023 06:47:52",144636,4,"task-hbx7",NA,31898727,9432505,NA,"complete","jwepkj","374TNBHA8HUZ4VV37312XXDIJ51YQ9","computer","Desktop or Laptop","Windows 10","Chrome 116.0.0.0","1280x1024","1280x875",NA,NA,0,"Task Introduction and Instructions (Clone)",9,"FGEHDICJBA","Passed AC2","","Spreadsheet1",NA,"","","",NA,"5","BEGIN",NA,NA,NA,NA,NA,NA,0,NA,NA,NA,NA,"","",NA,"","",NA,"SUPAMT52969"
"2",1695826082467,"27/09/2023 14:48:02",1695811682467,-4,"27/09/2023 06:48:02",144636,4,"task-hbx7",NA,31898727,9432505,NA,"complete","jwepkj","374TNBHA8HUZ4VV37312XXDIJ51YQ9","computer","Desktop or Laptop","Windows 10","Chrome 116.0.0.0","1280x1024","1280x875",NA,NA,0,"Task Introduction and Instructions (Clone)",9,"FGEHDICJBA","Passed AC2","","Spreadsheet1",1,"Task Instructions","Screen 1","anr7sn",1,"continue","",9987.252,9968.75,9987.252,9987.252,9968.75,9987.252,1,9987.252,0,0,NA,"Click To Continue","Continue Button",2,"object-1944","Task Instructions",NA,"SUPAMT52969"
"3",1695826093618,"27/09/2023 14:48:13",1695811693618,-4,"27/09/2023 06:48:13",144636,4,"task-hbx7",NA,31898727,9432505,NA,"complete","jwepkj","374TNBHA8HUZ4VV37312XXDIJ51YQ9","computer","Desktop or Laptop","Windows 10","Chrome 116.0.0.0","1280x1024","1280x875",NA,NA,0,"Task Introduction and Instructions (Clone)",9,"FGEHDICJBA","Passed AC2","","Spreadsheet1",1,"Task Instructions","Screen 2","ce2tc8",2,"continue","",11169.6019999046,11156.25,11169.6019999046,11169.6019999046,11156.25,11169.6019999046,1,11169.6019999046,0,0,NA,"Click To Continue","Continue Button",2,"object-7","Task Instructions",NA,"SUPAMT52969"
"4",1695826100042,"27/09/2023 14:48:20",1695811700042,-4,"27/09/2023 06:48:20",144636,4,"task-hbx7",NA,31898727,9432505,NA,"complete","jwepkj","374TNBHA8HUZ4VV37312XXDIJ51YQ9","computer","Desktop or Laptop","Windows 10","Chrome 116.0.0.0","1280x1024","1280x875",NA,NA,0,"Task Introduction and Instructions (Clone)",9,"FGEHDICJBA","Passed AC2","","Spreadsheet1",1,"Task Instructions","Screen 5","spepx9",3,"continue","",6437.5,6406.25,6437.5,6437.5,6406.25,6437.5,1,6437.5,0,0,NA,"Click To Continue","Continue Button",2,"object-9","Task Instructions",NA,"SUPAMT52969"
"5",1695826105208,"27/09/2023 14:48:25",1695811705208,-4,"27/09/2023 06:48:25",144636,4,"task-hbx7",NA,31898727,9432505,NA,"complete","jwepkj","374TNBHA8HUZ4VV37312XXDIJ51YQ9","computer","Desktop or Laptop","Windows 10","Chrome 116.0.0.0","1280x1024","1280x875",NA,NA,0,"Task Introduction and Instructions (Clone)",9,"FGEHDICJBA","Passed AC2","","Spreadsheet1",1,"Task Instructions","Screen 9","8nvnao",4,"continue","",5195.20200004768,5187.5,5195.20200004768,5195.20200004768,5187.5,5195.20200004768,1,5195.20200004768,0,0,NA,"Click To Continue","Continue Button",2,"object-44","Task Instructions",NA,"SUPAMT52969"
"6",1695826105212,"27/09/2023 14:48:25",1695811705212,-4,"27/09/2023 06:48:25",144636,4,"task-hbx7",NA,31898727,9432505,NA,"complete","jwepkj","374TNBHA8HUZ4VV37312XXDIJ51YQ9","computer","Desktop or Laptop","Windows 10","Chrome 116.0.0.0","1280x1024","1280x875",NA,NA,0,"Task Introduction and Instructions (Clone)",9,"FGEHDICJBA","Passed AC2","","Spreadsheet1",NA,"","","",NA,"5","END",NA,NA,NA,NA,NA,NA,0,NA,NA,NA,NA,"","",NA,"","",NA,"SUPAMT52969"
"1",1695826080827,"27/09/2023 14:48:00",1695811680827,-4,"27/09/2023 06:48:00",144636,4,"task-hbx7",NA,31898729,9432514,NA,"complete","uvjjmy","","computer","Desktop or Laptop","Windows 10","Chrome 116.0.0.0","1280x1024","1280x875",NA,NA,0,"Task Introduction and Instructions (Clone)",9,"HIGJFAEBDC","Passed AC2","","Spreadsheet1",NA,"","","",NA,"5","BEGIN",NA,NA,NA,NA,NA,NA,0,NA,NA,NA,NA,"","",NA,"","",NA,"SUPAMT35697"
"2",1695826086508,"27/09/2023 14:48:06",1695811686508,-4,"27/09/2023 06:48:06",144636,4,"task-hbx7",NA,31898729,9432514,NA,"complete","uvjjmy","","computer","Desktop or Laptop","Windows 10","Chrome 116.0.0.0","1280x1024","1280x875",NA,NA,0,"Task Introduction and Instructions (Clone)",9,"HIGJFAEBDC","Passed AC2","","Spreadsheet1",1,"Task Instructions","Screen 1","anr7sn",1,"continue","",5456.054,5439.388,5456.054,5456.054,5439.388,5456.054,1,5456.054,0,0,NA,"Click To Continue","Continue Button",2,"object-1944","Task Instructions",NA,"SUPAMT35697"
"3",1695826089883,"27/09/2023 14:48:09",1695811689883,-4,"27/09/2023 06:48:09",144636,4,"task-hbx7",NA,31898729,9432514,NA,"complete","uvjjmy","","computer","Desktop or Laptop","Windows 10","Chrome 116.0.0.0","1280x1024","1280x875",NA,NA,0,"Task Introduction and Instructions (Clone)",9,"HIGJFAEBDC","Passed AC2","","Spreadsheet1",1,"Task Instructions","Screen 2","ce2tc8",2,"continue","",3392.60500014305,3382.131,3392.60500014305,3392.60500014305,3382.131,3392.60500014305,1,3392.60500014305,0,0,NA,"Click To Continue","Continue Button",2,"object-7","Task Instructions",NA,"SUPAMT35697"
"4",1695826093962,"27/09/2023 14:48:13",1695811693962,-4,"27/09/2023 06:48:13",144636,4,"task-hbx7",NA,31898729,9432514,NA,"complete","uvjjmy","","computer","Desktop or Laptop","Windows 10","Chrome 116.0.0.0","1280x1024","1280x875",NA,NA,0,"Task Introduction and Instructions (Clone)",9,"HIGJFAEBDC","Passed AC2","","Spreadsheet1",1,"Task Instructions","Screen 5","spepx9",3,"continue","",4089.374,4081.195,4089.374,4089.374,4081.195,4089.374,1,4089.374,0,0,NA,"Click To Continue","Continue Button",2,"object-9","Task Instructions",NA,"SUPAMT35697"
"5",1695826096948,"27/09/2023 14:48:16",1695811696948,-4,"27/09/2023 06:48:16",144636,4,"task-hbx7",NA,31898729,9432514,NA,"complete","uvjjmy","","computer","Desktop or Laptop","Windows 10","Chrome 116.0.0.0","1280x1024","1280x875",NA,NA,0,"Task Introduction and Instructions (Clone)",9,"HIGJFAEBDC","Passed AC2","","Spreadsheet1",1,"Task Instructions","Screen 9","8nvnao",4,"continue","",2994.179,2982.335,2994.179,2994.179,2982.335,2994.179,1,2994.179,0,0,NA,"Click To Continue","Continue Button",2,"object-44","Task Instructions",NA,"SUPAMT35697"
"6",1695826096951,"27/09/2023 14:48:16",1695811696951,-4,"27/09/2023 06:48:16",144636,4,"task-hbx7",NA,31898729,9432514,NA,"complete","uvjjmy","","computer","Desktop or Laptop","Windows 10","Chrome 116.0.0.0","1280x1024","1280x875",NA,NA,0,"Task Introduction and Instructions (Clone)",9,"HIGJFAEBDC","Passed AC2","","Spreadsheet1",NA,"","","",NA,"5","END",NA,NA,NA,NA,NA,NA,0,NA,NA,NA,NA,"","",NA,"","",NA,"SUPAMT35697"
"1",1695826830285,"27/09/2023 15:00:30",1695812430285,-4,"27/09/2023 07:00:30",144636,4,"task-hbx7",NA,31899064,9432562,NA,"complete","ozxtog","3B1NLC6UG5VEIS9ODK07QSG49EMPGA","computer","Desktop or Laptop","Windows 10","Chrome 116.0.0.0","1364x768","1345x602",NA,NA,0,"Task Introduction and Instructions (Clone)",9,"ABJCIDHEGF","Passed AC2","","Spreadsheet1",NA,"","","",NA,"5","BEGIN",NA,NA,NA,NA,NA,NA,0,NA,NA,NA,NA,"","",NA,"","",NA,"SUPAMT70919"
"2",1695827414497,"27/09/2023 15:10:14",1695813014497,-4,"27/09/2023 07:10:14",144636,4,"task-hbx7",NA,31899064,9432562,NA,"complete","ozxtog","3B1NLC6UG5VEIS9ODK07QSG49EMPGA","computer","Desktop or Laptop","Windows 10","Chrome 116.0.0.0","1364x768","1345x602",NA,NA,0,"Task Introduction and Instructions (Clone)",9,"ABJCIDHEGF","Passed AC2","","Spreadsheet1",1,"Task Instructions","Screen 1","anr7sn",1,"continue","",583929.5,583906.25,583929.5,583929.5,583906.25,583929.5,1,583929.5,0,0,NA,"Click To Continue","Continue Button",2,"object-1944","Task Instructions",NA,"SUPAMT70919"
"3",1695827417810,"27/09/2023 15:10:17",1695813017810,-4,"27/09/2023 07:10:17",144636,4,"task-hbx7",NA,31899064,9432562,NA,"complete","ozxtog","3B1NLC6UG5VEIS9ODK07QSG49EMPGA","computer","Desktop or Laptop","Windows 10","Chrome 116.0.0.0","1364x768","1345x602",NA,NA,0,"Task Introduction and Instructions (Clone)",9,"ABJCIDHEGF","Passed AC2","","Spreadsheet1",1,"Task Instructions","Screen 2","ce2tc8",2,"continue","",3336.25,3312.5,3336.25,3336.25,3312.5,3336.25,1,3336.25,0,0,NA,"Click To Continue","Continue Button",2,"object-7","Task Instructions",NA,"SUPAMT70919"
"4",1695827421514,"27/09/2023 15:10:21",1695813021514,-4,"27/09/2023 07:10:21",144636,4,"task-hbx7",NA,31899064,9432562,NA,"complete","ozxtog","3B1NLC6UG5VEIS9ODK07QSG49EMPGA","computer","Desktop or Laptop","Windows 10","Chrome 116.0.0.0","1364x768","1345x602",NA,NA,0,"Task Introduction and Instructions (Clone)",9,"ABJCIDHEGF","Passed AC2","","Spreadsheet1",1,"Task Instructions","Screen 5","spepx9",3,"continue","",3727.75,3718.75,3727.75,3727.75,3718.75,3727.75,1,3727.75,0,0,NA,"Click To Continue","Continue Button",2,"object-9","Task Instructions",NA,"SUPAMT70919"
"5",1695827424850,"27/09/2023 15:10:24",1695813024850,-4,"27/09/2023 07:10:24",144636,4,"task-hbx7",NA,31899064,9432562,NA,"complete","ozxtog","3B1NLC6UG5VEIS9ODK07QSG49EMPGA","computer","Desktop or Laptop","Windows 10","Chrome 116.0.0.0","1364x768","1345x602",NA,NA,0,"Task Introduction and Instructions (Clone)",9,"ABJCIDHEGF","Passed AC2","","Spreadsheet1",1,"Task Instructions","Screen 9","8nvnao",4,"continue","",3343.75,3312.5,3343.75,3343.75,3312.5,3343.75,1,3343.75,0,0,NA,"Click To Continue","Continue Button",2,"object-44","Task Instructions",NA,"SUPAMT70919"
"6",1695827424855,"27/09/2023 15:10:24",1695813024855,-4,"27/09/2023 07:10:24",144636,4,"task-hbx7",NA,31899064,9432562,NA,"complete","ozxtog","3B1NLC6UG5VEIS9ODK07QSG49EMPGA","computer","Desktop or Laptop","Windows 10","Chrome 116.0.0.0","1364x768","1345x602",NA,NA,0,"Task Introduction and Instructions (Clone)",9,"ABJCIDHEGF","Passed AC2","","Spreadsheet1",NA,"","","",NA,"5","END",NA,NA,NA,NA,NA,NA,0,NA,NA,NA,NA,"","",NA,"","",NA,"SUPAMT70919"
"1",1695828101412,"27/09/2023 15:21:41",1695813701412,-4,"27/09/2023 07:21:41",144636,4,"task-hbx7",NA,31900001,9432569,NA,"complete","smzssm","3IXEICO798IADRDPIO05JB4C4276TV","computer","Desktop or Laptop","Windows 10","Chrome 116.0.0.0","1366x768","1366x651",NA,NA,0,"Task Introduction and Instructions (Clone)",9,"BCADJEIFHG","Failed AC2","Passed AC1","Spreadsheet1",NA,"","","",NA,"5","BEGIN",NA,NA,NA,NA,NA,NA,0,NA,NA,NA,NA,"","",NA,"","",NA,"SUPAMT61489"
"2",1695828105717,"27/09/2023 15:21:45",1695813705717,-4,"27/09/2023 07:21:45",144636,4,"task-hbx7",NA,31900001,9432569,NA,"complete","smzssm","3IXEICO798IADRDPIO05JB4C4276TV","computer","Desktop or Laptop","Windows 10","Chrome 116.0.0.0","1366x768","1366x651",NA,NA,0,"Task Introduction and Instructions (Clone)",9,"BCADJEIFHG","Failed AC2","Passed AC1","Spreadsheet1",1,"Task Instructions","Screen 1","anr7sn",1,"continue","",4187.05599995232,4174.386,4187.05599995232,4187.05599995232,4174.386,4187.05599995232,1,4187.05599995232,0,0,NA,"Click To Continue","Continue Button",2,"object-1944","Task Instructions",NA,"SUPAMT61489"
"3",1695828110977,"27/09/2023 15:21:50",1695813710977,-4,"27/09/2023 07:21:50",144636,4,"task-hbx7",NA,31900001,9432569,NA,"complete","smzssm","3IXEICO798IADRDPIO05JB4C4276TV","computer","Desktop or Laptop","Windows 10","Chrome 116.0.0.0","1366x768","1366x651",NA,NA,0,"Task Introduction and Instructions (Clone)",9,"BCADJEIFHG","Failed AC2","Passed AC1","Spreadsheet1",1,"Task Instructions","Screen 2","ce2tc8",2,"continue","",5272.57000004768,5260.731,5272.57000004768,5272.57000004768,5260.731,5272.57000004768,1,5272.57000004768,0,0,NA,"Click To Continue","Continue Button",2,"object-7","Task Instructions",NA,"SUPAMT61489"
"4",1695828146643,"27/09/2023 15:22:26",1695813746643,-4,"27/09/2023 07:22:26",144636,4,"task-hbx7",NA,31900001,9432569,NA,"complete","smzssm","3IXEICO798IADRDPIO05JB4C4276TV","computer","Desktop or Laptop","Windows 10","Chrome 116.0.0.0","1366x768","1366x651",NA,NA,0,"Task Introduction and Instructions (Clone)",9,"BCADJEIFHG","Failed AC2","Passed AC1","Spreadsheet1",1,"Task Instructions","Screen 5","spepx9",3,"continue","",35677.5389998569,35667.63,35677.5389998569,35677.5389998569,35667.63,35677.5389998569,1,35677.5389998569,0,0,NA,"Click To Continue","Continue Button",2,"object-9","Task Instructions",NA,"SUPAMT61489"
"5",1695828150676,"27/09/2023 15:22:30",1695813750676,-4,"27/09/2023 07:22:30",144636,4,"task-hbx7",NA,31900001,9432569,NA,"complete","smzssm","3IXEICO798IADRDPIO05JB4C4276TV","computer","Desktop or Laptop","Windows 10","Chrome 116.0.0.0","1366x768","1366x651",NA,NA,0,"Task Introduction and Instructions (Clone)",9,"BCADJEIFHG","Failed AC2","Passed AC1","Spreadsheet1",1,"Task Instructions","Screen 9","8nvnao",4,"continue","",4043.40899985695,4034.02899999999,4043.40899985695,4043.40899985695,4034.02899999999,4043.40899985695,1,4043.40899985695,0,0,NA,"Click To Continue","Continue Button",2,"object-44","Task Instructions",NA,"SUPAMT61489"
"6",1695828150678,"27/09/2023 15:22:30",1695813750678,-4,"27/09/2023 07:22:30",144636,4,"task-hbx7",NA,31900001,9432569,NA,"complete","smzssm","3IXEICO798IADRDPIO05JB4C4276TV","computer","Desktop or Laptop","Windows 10","Chrome 116.0.0.0","1366x768","1366x651",NA,NA,0,"Task Introduction and Instructions (Clone)",9,"BCADJEIFHG","Failed AC2","Passed AC1","Spreadsheet1",NA,"","","",NA,"5","END",NA,NA,NA,NA,NA,NA,0,NA,NA,NA,NA,"","",NA,"","",NA,"SUPAMT61489"
"1",1695828363770,"27/09/2023 15:26:03",1695813963770,-4,"27/09/2023 07:26:03",144636,4,"task-hbx7",NA,31900016,9432653,NA,"complete","tdwmjw","33UKMF931FJGFPO1E18YULWQOAKTTV","computer","Desktop or Laptop","Windows 10","Chrome 115.0.0.0","1280x1024","1280x907",NA,NA,0,"Task Introduction and Instructions (Clone)",9,"FGEHDICJBA","Failed AC2","Passed AC1","Spreadsheet1",NA,"","","",NA,"5","BEGIN",NA,NA,NA,NA,NA,NA,0,NA,NA,NA,NA,"","",NA,"","",NA,"SUPAMT30004"
"2",1695828367400,"27/09/2023 15:26:07",1695813967400,-4,"27/09/2023 07:26:07",144636,4,"task-hbx7",NA,31900016,9432653,NA,"complete","tdwmjw","33UKMF931FJGFPO1E18YULWQOAKTTV","computer","Desktop or Laptop","Windows 10","Chrome 115.0.0.0","1280x1024","1280x907",NA,NA,0,"Task Introduction and Instructions (Clone)",9,"FGEHDICJBA","Failed AC2","Passed AC1","Spreadsheet1",1,"Task Instructions","Screen 1","anr7sn",1,"continue","",3517.673,3503.387,3517.673,3517.673,3503.387,3517.673,1,3517.673,0,0,NA,"Click To Continue","Continue Button",2,"object-1944","Task Instructions",NA,"SUPAMT30004"
"3",1695828370759,"27/09/2023 15:26:10",1695813970759,-4,"27/09/2023 07:26:10",144636,4,"task-hbx7",NA,31900016,9432653,NA,"complete","tdwmjw","33UKMF931FJGFPO1E18YULWQOAKTTV","computer","Desktop or Laptop","Windows 10","Chrome 115.0.0.0","1280x1024","1280x907",NA,NA,0,"Task Introduction and Instructions (Clone)",9,"FGEHDICJBA","Failed AC2","Passed AC1","Spreadsheet1",1,"Task Instructions","Screen 2","ce2tc8",2,"continue","",3373.60499961853,3363.125,3373.60499961853,3373.60499961853,3363.125,3373.60499961853,1,3373.60499961853,0,0,NA,"Click To Continue","Continue Button",2,"object-7","Task Instructions",NA,"SUPAMT30004"
"4",1695828376114,"27/09/2023 15:26:16",1695813976114,-4,"27/09/2023 07:26:16",144636,4,"task-hbx7",NA,31900016,9432653,NA,"complete","tdwmjw","33UKMF931FJGFPO1E18YULWQOAKTTV","computer","Desktop or Laptop","Windows 10","Chrome 115.0.0.0","1280x1024","1280x907",NA,NA,0,"Task Introduction and Instructions (Clone)",9,"FGEHDICJBA","Failed AC2","Passed AC1","Spreadsheet1",1,"Task Instructions","Screen 5","spepx9",3,"continue","",5366.1799994278,5360.806,5366.1799994278,5366.1799994278,5360.806,5366.1799994278,1,5366.1799994278,0,0,NA,"Click To Continue","Continue Button",2,"object-9","Task Instructions",NA,"SUPAMT30004"
"5",1695828380457,"27/09/2023 15:26:20",1695813980457,-4,"27/09/2023 07:26:20",144636,4,"task-hbx7",NA,31900016,9432653,NA,"complete","tdwmjw","33UKMF931FJGFPO1E18YULWQOAKTTV","computer","Desktop or Laptop","Windows 10","Chrome 115.0.0.0","1280x1024","1280x907",NA,NA,0,"Task Introduction and Instructions (Clone)",9,"FGEHDICJBA","Failed AC2","Passed AC1","Spreadsheet1",1,"Task Instructions","Screen 9","8nvnao",4,"continue","",4348.47399980926,4338.601,4348.47399980926,4348.47399980926,4338.601,4348.47399980926,1,4348.47399980926,0,0,NA,"Click To Continue","Continue Button",2,"object-44","Task Instructions",NA,"SUPAMT30004"
"6",1695828380462,"27/09/2023 15:26:20",1695813980462,-4,"27/09/2023 07:26:20",144636,4,"task-hbx7",NA,31900016,9432653,NA,"complete","tdwmjw","33UKMF931FJGFPO1E18YULWQOAKTTV","computer","Desktop or Laptop","Windows 10","Chrome 115.0.0.0","1280x1024","1280x907",NA,NA,0,"Task Introduction and Instructions (Clone)",9,"FGEHDICJBA","Failed AC2","Passed AC1","Spreadsheet1",NA,"","","",NA,"5","END",NA,NA,NA,NA,NA,NA,0,NA,NA,NA,NA,"","",NA,"","",NA,"SUPAMT30004"
"1",1695828383913,"27/09/2023 15:26:23",1695813983913,-4,"27/09/2023 07:26:23",144636,4,"task-hbx7",NA,31900026,9432671,NA,"complete","dmjpat","39JEC753700E60QFXADN6TK7X91CVC","computer","Desktop or Laptop","Windows 10","Chrome 116.0.0.0","1366x768","1366x619",NA,NA,0,"Task Introduction and Instructions (Clone)",9,"GHFIEJDACB","Passed AC2","","Spreadsheet1",NA,"","","",NA,"5","BEGIN",NA,NA,NA,NA,NA,NA,0,NA,NA,NA,NA,"","",NA,"","",NA,"SUPAMT88617"
"2",1695828685298,"27/09/2023 15:31:25",1695814285298,-4,"27/09/2023 07:31:25",144636,4,"task-hbx7",NA,31900026,9432671,NA,"complete","dmjpat","39JEC753700E60QFXADN6TK7X91CVC","computer","Desktop or Laptop","Windows 10","Chrome 116.0.0.0","1366x768","1366x619",NA,NA,0,"Task Introduction and Instructions (Clone)",9,"GHFIEJDACB","Passed AC2","","Spreadsheet1",1,"Task Instructions","Screen 1","anr7sn",1,"continue","",301280.902000095,301273.803,301280.902000095,301280.902000095,301273.803,301280.902000095,1,301280.902000095,0,0,NA,"Click To Continue","Continue Button",2,"object-1944","Task Instructions",NA,"SUPAMT88617"
"3",1695828691113,"27/09/2023 15:31:31",1695814291113,-4,"27/09/2023 07:31:31",144636,4,"task-hbx7",NA,31900026,9432671,NA,"complete","dmjpat","39JEC753700E60QFXADN6TK7X91CVC","computer","Desktop or Laptop","Windows 10","Chrome 116.0.0.0","1366x768","1366x619",NA,NA,0,"Task Introduction and Instructions (Clone)",9,"GHFIEJDACB","Passed AC2","","Spreadsheet1",1,"Task Instructions","Screen 2","ce2tc8",2,"continue","",5822.49899995234,5805.91899999999,5822.49899995234,5822.49899995234,5805.91899999999,5822.49899995234,1,5822.49899995234,0,0,NA,"Click To Continue","Continue Button",2,"object-7","Task Instructions",NA,"SUPAMT88617"
"4",1695828695858,"27/09/2023 15:31:35",1695814295858,-4,"27/09/2023 07:31:35",144636,4,"task-hbx7",NA,31900026,9432671,NA,"complete","dmjpat","39JEC753700E60QFXADN6TK7X91CVC","computer","Desktop or Laptop","Windows 10","Chrome 116.0.0.0","1366x768","1366x619",NA,NA,0,"Task Introduction and Instructions (Clone)",9,"GHFIEJDACB","Passed AC2","","Spreadsheet1",1,"Task Instructions","Screen 5","spepx9",3,"continue","",4760.37999990466,4758.39500000002,4760.37999990466,4760.37999990466,4758.39500000002,4760.37999990466,1,4760.37999990466,0,0,NA,"Click To Continue","Continue Button",2,"object-9","Task Instructions",NA,"SUPAMT88617"
"5",1695828699258,"27/09/2023 15:31:39",1695814299258,-4,"27/09/2023 07:31:39",144636,4,"task-hbx7",NA,31900026,9432671,NA,"complete","dmjpat","39JEC753700E60QFXADN6TK7X91CVC","computer","Desktop or Laptop","Windows 10","Chrome 116.0.0.0","1366x768","1366x619",NA,NA,0,"Task Introduction and Instructions (Clone)",9,"GHFIEJDACB","Passed AC2","","Spreadsheet1",1,"Task Instructions","Screen 9","8nvnao",4,"continue","",3401.98499990464,3390.00800000003,3401.98499990464,3401.98499990464,3390.00800000003,3401.98499990464,1,3401.98499990464,0,0,NA,"Click To Continue","Continue Button",2,"object-44","Task Instructions",NA,"SUPAMT88617"
"6",1695828699261,"27/09/2023 15:31:39",1695814299261,-4,"27/09/2023 07:31:39",144636,4,"task-hbx7",NA,31900026,9432671,NA,"complete","dmjpat","39JEC753700E60QFXADN6TK7X91CVC","computer","Desktop or Laptop","Windows 10","Chrome 116.0.0.0","1366x768","1366x619",NA,NA,0,"Task Introduction and Instructions (Clone)",9,"GHFIEJDACB","Passed AC2","","Spreadsheet1",NA,"","","",NA,"5","END",NA,NA,NA,NA,NA,NA,0,NA,NA,NA,NA,"","",NA,"","",NA,"SUPAMT88617"
"1",1695828412209,"27/09/2023 15:26:52",1695814012209,-4,"27/09/2023 07:26:52",144636,4,"task-hbx7",NA,31900040,9432772,NA,"complete","uzorbn","3LO69W1SU9COR7UQLS709B7K43RGL7","computer","Desktop or Laptop","Windows 10","Chrome 116.0.0.0","1600x900","1600x751",NA,NA,0,"Task Introduction and Instructions (Clone)",9,"ABJCIDHEGF","Failed AC2","Passed AC1","Spreadsheet1",NA,"","","",NA,"5","BEGIN",NA,NA,NA,NA,NA,NA,0,NA,NA,NA,NA,"","",NA,"","",NA,"SUPAMT97320"
"2",1695828416133,"27/09/2023 15:26:56",1695814016133,-4,"27/09/2023 07:26:56",144636,4,"task-hbx7",NA,31900040,9432772,NA,"complete","uzorbn","3LO69W1SU9COR7UQLS709B7K43RGL7","computer","Desktop or Laptop","Windows 10","Chrome 116.0.0.0","1600x900","1600x751",NA,NA,0,"Task Introduction and Instructions (Clone)",9,"ABJCIDHEGF","Failed AC2","Passed AC1","Spreadsheet1",1,"Task Instructions","Screen 1","anr7sn",1,"continue","",3779.61499997616,3769.239,3779.61499997616,3779.61499997616,3769.239,3779.61499997616,1,3779.61499997616,0,0,NA,"Click To Continue","Continue Button",2,"object-1944","Task Instructions",NA,"SUPAMT97320"
"3",1695828421172,"27/09/2023 15:27:01",1695814021172,-4,"27/09/2023 07:27:01",144636,4,"task-hbx7",NA,31900040,9432772,NA,"complete","uzorbn","3LO69W1SU9COR7UQLS709B7K43RGL7","computer","Desktop or Laptop","Windows 10","Chrome 116.0.0.0","1600x900","1600x751",NA,NA,0,"Task Introduction and Instructions (Clone)",9,"ABJCIDHEGF","Failed AC2","Passed AC1","Spreadsheet1",1,"Task Instructions","Screen 2","ce2tc8",2,"continue","",5049.27600007153,5041.029,5049.27600007153,5049.27600007153,5041.029,5049.27600007153,1,5049.27600007153,0,0,NA,"Click To Continue","Continue Button",2,"object-7","Task Instructions",NA,"SUPAMT97320"
"4",1695828424413,"27/09/2023 15:27:04",1695814024413,-4,"27/09/2023 07:27:04",144636,4,"task-hbx7",NA,31900040,9432772,NA,"complete","uzorbn","3LO69W1SU9COR7UQLS709B7K43RGL7","computer","Desktop or Laptop","Windows 10","Chrome 116.0.0.0","1600x900","1600x751",NA,NA,0,"Task Introduction and Instructions (Clone)",9,"ABJCIDHEGF","Failed AC2","Passed AC1","Spreadsheet1",1,"Task Instructions","Screen 5","spepx9",3,"continue","",3249.04700002384,3240.834,3249.04700002384,3249.04700002384,3240.834,3249.04700002384,1,3249.04700002384,0,0,NA,"Click To Continue","Continue Button",2,"object-9","Task Instructions",NA,"SUPAMT97320"
"5",1695828427515,"27/09/2023 15:27:07",1695814027515,-4,"27/09/2023 07:27:07",144636,4,"task-hbx7",NA,31900040,9432772,NA,"complete","uzorbn","3LO69W1SU9COR7UQLS709B7K43RGL7","computer","Desktop or Laptop","Windows 10","Chrome 116.0.0.0","1600x900","1600x751",NA,NA,0,"Task Introduction and Instructions (Clone)",9,"ABJCIDHEGF","Failed AC2","Passed AC1","Spreadsheet1",1,"Task Instructions","Screen 9","8nvnao",4,"continue","",3110.51299997616,3108.509,3110.51299997616,3110.51299997616,3108.509,3110.51299997616,1,3110.51299997616,0,0,NA,"Click To Continue","Continue Button",2,"object-44","Task Instructions",NA,"SUPAMT97320"
"6",1695828427517,"27/09/2023 15:27:07",1695814027517,-4,"27/09/2023 07:27:07",144636,4,"task-hbx7",NA,31900040,9432772,NA,"complete","uzorbn","3LO69W1SU9COR7UQLS709B7K43RGL7","computer","Desktop or Laptop","Windows 10","Chrome 116.0.0.0","1600x900","1600x751",NA,NA,0,"Task Introduction and Instructions (Clone)",9,"ABJCIDHEGF","Failed AC2","Passed AC1","Spreadsheet1",NA,"","","",NA,"5","END",NA,NA,NA,NA,NA,NA,0,NA,NA,NA,NA,"","",NA,"","",NA,"SUPAMT97320"
"1",1695828494344,"27/09/2023 15:28:14",1695814094344,-4,"27/09/2023 07:28:14",144636,4,"task-hbx7",NA,31900081,9432753,NA,"complete","tmiiem","3KXIR214IAF2E5FYGLNULQB88YR42J","computer","Desktop or Laptop","Windows 10","Chrome 116.0.0.0","1366x768","1366x619",NA,NA,0,"Task Introduction and Instructions (Clone)",9,"HIGJFAEBDC","Passed AC2","","Spreadsheet1",NA,"","","",NA,"5","BEGIN",NA,NA,NA,NA,NA,NA,0,NA,NA,NA,NA,"","",NA,"","",NA,"SUPAMT40213"
"2",1695828686564,"27/09/2023 15:31:26",1695814286564,-4,"27/09/2023 07:31:26",144636,4,"task-hbx7",NA,31900081,9432753,NA,"complete","tmiiem","3KXIR214IAF2E5FYGLNULQB88YR42J","computer","Desktop or Laptop","Windows 10","Chrome 116.0.0.0","1366x768","1366x619",NA,NA,0,"Task Introduction and Instructions (Clone)",9,"HIGJFAEBDC","Passed AC2","","Spreadsheet1",1,"Task Instructions","Screen 1","anr7sn",1,"continue","",192129.741000048,192117.203,192129.741000048,192129.741000048,192117.203,192129.741000048,1,192129.741000048,0,0,NA,"Click To Continue","Continue Button",2,"object-1944","Task Instructions",NA,"SUPAMT40213"
"3",1695828692433,"27/09/2023 15:31:32",1695814292433,-4,"27/09/2023 07:31:32",144636,4,"task-hbx7",NA,31900081,9432753,NA,"complete","tmiiem","3KXIR214IAF2E5FYGLNULQB88YR42J","computer","Desktop or Laptop","Windows 10","Chrome 116.0.0.0","1366x768","1366x619",NA,NA,0,"Task Introduction and Instructions (Clone)",9,"HIGJFAEBDC","Passed AC2","","Spreadsheet1",1,"Task Instructions","Screen 2","ce2tc8",2,"continue","",5881.63799995231,5873.10999999999,5881.63799995231,5881.63799995231,5873.10999999999,5881.63799995231,1,5881.63799995231,0,0,NA,"Click To Continue","Continue Button",2,"object-7","Task Instructions",NA,"SUPAMT40213"
"4",1695828697537,"27/09/2023 15:31:37",1695814297537,-4,"27/09/2023 07:31:37",144636,4,"task-hbx7",NA,31900081,9432753,NA,"complete","tmiiem","3KXIR214IAF2E5FYGLNULQB88YR42J","computer","Desktop or Laptop","Windows 10","Chrome 116.0.0.0","1366x768","1366x619",NA,NA,0,"Task Introduction and Instructions (Clone)",9,"HIGJFAEBDC","Passed AC2","","Spreadsheet1",1,"Task Instructions","Screen 5","spepx9",3,"continue","",5112.82799990464,5105.74900000001,5112.82799990464,5112.82799990464,5105.74900000001,5112.82799990464,1,5112.82799990464,0,0,NA,"Click To Continue","Continue Button",2,"object-9","Task Instructions",NA,"SUPAMT40213"
"5",1695828700425,"27/09/2023 15:31:40",1695814300425,-4,"27/09/2023 07:31:40",144636,4,"task-hbx7",NA,31900081,9432753,NA,"complete","tmiiem","3KXIR214IAF2E5FYGLNULQB88YR42J","computer","Desktop or Laptop","Windows 10","Chrome 116.0.0.0","1366x768","1366x619",NA,NA,0,"Task Introduction and Instructions (Clone)",9,"HIGJFAEBDC","Passed AC2","","Spreadsheet1",1,"Task Instructions","Screen 9","8nvnao",4,"continue","",2894.87899985694,2888.89999999999,2894.87899985694,2894.87899985694,2888.89999999999,2894.87899985694,1,2894.87899985694,0,0,NA,"Click To Continue","Continue Button",2,"object-44","Task Instructions",NA,"SUPAMT40213"
"6",1695828700427,"27/09/2023 15:31:40",1695814300427,-4,"27/09/2023 07:31:40",144636,4,"task-hbx7",NA,31900081,9432753,NA,"complete","tmiiem","3KXIR214IAF2E5FYGLNULQB88YR42J","computer","Desktop or Laptop","Windows 10","Chrome 116.0.0.0","1366x768","1366x619",NA,NA,0,"Task Introduction and Instructions (Clone)",9,"HIGJFAEBDC","Passed AC2","","Spreadsheet1",NA,"","","",NA,"5","END",NA,NA,NA,NA,NA,NA,0,NA,NA,NA,NA,"","",NA,"","",NA,"SUPAMT40213"
"1",1695828503519,"27/09/2023 15:28:23",1695814103519,-4,"27/09/2023 07:28:23",144636,4,"task-hbx7",NA,31900085,9432771,NA,"complete","rpvtpu","37TRT2X24WQM50YF2L39SL3VK1UBJJ","computer","Desktop or Laptop","Windows 10","Chrome 116.0.0.0","1366x768","1707x773",NA,NA,0,"Task Introduction and Instructions (Clone)",9,"IJHAGBFCED","Passed AC2","","Spreadsheet1",NA,"","","",NA,"5","BEGIN",NA,NA,NA,NA,NA,NA,0,NA,NA,NA,NA,"","",NA,"","",NA,"SUPAMT54803"
"2",1695828520749,"27/09/2023 15:28:40",1695814120749,-4,"27/09/2023 07:28:40",144636,4,"task-hbx7",NA,31900085,9432771,NA,"complete","rpvtpu","37TRT2X24WQM50YF2L39SL3VK1UBJJ","computer","Desktop or Laptop","Windows 10","Chrome 116.0.0.0","1366x768","1707x773",NA,NA,0,"Task Introduction and Instructions (Clone)",9,"IJHAGBFCED","Passed AC2","","Spreadsheet1",1,"Task Instructions","Screen 1","anr7sn",1,"continue","",17130.03,17121.515,17130.03,17130.03,17121.515,17130.03,1,17130.03,0,0,NA,"Click To Continue","Continue Button",2,"object-1944","Task Instructions",NA,"SUPAMT54803"
"3",1695828523916,"27/09/2023 15:28:43",1695814123916,-4,"27/09/2023 07:28:43",144636,4,"task-hbx7",NA,31900085,9432771,NA,"complete","rpvtpu","37TRT2X24WQM50YF2L39SL3VK1UBJJ","computer","Desktop or Laptop","Windows 10","Chrome 116.0.0.0","1366x768","1707x773",NA,NA,0,"Task Introduction and Instructions (Clone)",9,"IJHAGBFCED","Passed AC2","","Spreadsheet1",1,"Task Instructions","Screen 2","ce2tc8",2,"continue","",3176.71500004768,3166.482,3176.71500004768,3176.71500004768,3166.482,3176.71500004768,1,3176.71500004768,0,0,NA,"Click To Continue","Continue Button",2,"object-7","Task Instructions",NA,"SUPAMT54803"
"4",1695828528309,"27/09/2023 15:28:48",1695814128309,-4,"27/09/2023 07:28:48",144636,4,"task-hbx7",NA,31900085,9432771,NA,"complete","rpvtpu","37TRT2X24WQM50YF2L39SL3VK1UBJJ","computer","Desktop or Laptop","Windows 10","Chrome 116.0.0.0","1366x768","1707x773",NA,NA,0,"Task Introduction and Instructions (Clone)",9,"IJHAGBFCED","Passed AC2","","Spreadsheet1",1,"Task Instructions","Screen 5","spepx9",3,"continue","",4402.63299990463,4394.269,4402.63299990463,4402.63299990463,4394.269,4402.63299990463,1,4402.63299990463,0,0,NA,"Click To Continue","Continue Button",2,"object-9","Task Instructions",NA,"SUPAMT54803"
"5",1695828531309,"27/09/2023 15:28:51",1695814131309,-4,"27/09/2023 07:28:51",144636,4,"task-hbx7",NA,31900085,9432771,NA,"complete","rpvtpu","37TRT2X24WQM50YF2L39SL3VK1UBJJ","computer","Desktop or Laptop","Windows 10","Chrome 116.0.0.0","1366x768","1707x773",NA,NA,0,"Task Introduction and Instructions (Clone)",9,"IJHAGBFCED","Passed AC2","","Spreadsheet1",1,"Task Instructions","Screen 9","8nvnao",4,"continue","",3008.16399985695,2994.775,3008.16399985695,3008.16399985695,2994.775,3008.16399985695,1,3008.16399985695,0,0,NA,"Click To Continue","Continue Button",2,"object-44","Task Instructions",NA,"SUPAMT54803"
"6",1695828531314,"27/09/2023 15:28:51",1695814131314,-4,"27/09/2023 07:28:51",144636,4,"task-hbx7",NA,31900085,9432771,NA,"complete","rpvtpu","37TRT2X24WQM50YF2L39SL3VK1UBJJ","computer","Desktop or Laptop","Windows 10","Chrome 116.0.0.0","1366x768","1707x773",NA,NA,0,"Task Introduction and Instructions (Clone)",9,"IJHAGBFCED","Passed AC2","","Spreadsheet1",NA,"","","",NA,"5","END",NA,NA,NA,NA,NA,NA,0,NA,NA,NA,NA,"","",NA,"","",NA,"SUPAMT54803"
"1",1695828531769,"27/09/2023 15:28:51",1695814131769,-4,"27/09/2023 07:28:51",144636,4,"task-hbx7",NA,31900100,9432749,NA,"complete","yyptyb","3LEP4MGT3MZ92EYNSPHYPN8IFHXBD5","computer","Desktop or Laptop","Windows 10","Chrome 116.0.0.0","1366x768","2049x928",NA,NA,0,"Task Introduction and Instructions (Clone)",9,"JAIBHCGDFE","Passed AC2","","Spreadsheet1",NA,"","","",NA,"5","BEGIN",NA,NA,NA,NA,NA,NA,0,NA,NA,NA,NA,"","",NA,"","",NA,"SUPAMT54273"
"2",1695828535045,"27/09/2023 15:28:55",1695814135045,-4,"27/09/2023 07:28:55",144636,4,"task-hbx7",NA,31900100,9432749,NA,"complete","yyptyb","3LEP4MGT3MZ92EYNSPHYPN8IFHXBD5","computer","Desktop or Laptop","Windows 10","Chrome 116.0.0.0","1366x768","2049x928",NA,NA,0,"Task Introduction and Instructions (Clone)",9,"JAIBHCGDFE","Passed AC2","","Spreadsheet1",1,"Task Instructions","Screen 1","anr7sn",1,"continue","",3189.73599995232,3177.721,3189.73599995232,3189.73599995232,3177.721,3189.73599995232,1,3189.73599995232,0,0,NA,"Click To Continue","Continue Button",2,"object-1944","Task Instructions",NA,"SUPAMT54273"
"3",1695828548205,"27/09/2023 15:29:08",1695814148205,-4,"27/09/2023 07:29:08",144636,4,"task-hbx7",NA,31900100,9432749,NA,"complete","yyptyb","3LEP4MGT3MZ92EYNSPHYPN8IFHXBD5","computer","Desktop or Laptop","Windows 10","Chrome 116.0.0.0","1366x768","2049x928",NA,NA,0,"Task Introduction and Instructions (Clone)",9,"JAIBHCGDFE","Passed AC2","","Spreadsheet1",1,"Task Instructions","Screen 2","ce2tc8",2,"continue","",13172.8149999046,13158.996,13172.8149999046,13172.8149999046,13158.996,13172.8149999046,1,13172.8149999046,0,0,NA,"Click To Continue","Continue Button",2,"object-7","Task Instructions",NA,"SUPAMT54273"
"4",1695828558692,"27/09/2023 15:29:18",1695814158692,-4,"27/09/2023 07:29:18",144636,4,"task-hbx7",NA,31900100,9432749,NA,"complete","yyptyb","3LEP4MGT3MZ92EYNSPHYPN8IFHXBD5","computer","Desktop or Laptop","Windows 10","Chrome 116.0.0.0","1366x768","2049x928",NA,NA,0,"Task Introduction and Instructions (Clone)",9,"JAIBHCGDFE","Passed AC2","","Spreadsheet1",1,"Task Instructions","Screen 5","spepx9",3,"continue","",10501.1189998569,10485.746,10501.1189998569,10501.1189998569,10485.746,10501.1189998569,1,10501.1189998569,0,0,NA,"Click To Continue","Continue Button",2,"object-9","Task Instructions",NA,"SUPAMT54273"
"5",1695828564692,"27/09/2023 15:29:24",1695814164692,-4,"27/09/2023 07:29:24",144636,4,"task-hbx7",NA,31900100,9432749,NA,"complete","yyptyb","3LEP4MGT3MZ92EYNSPHYPN8IFHXBD5","computer","Desktop or Laptop","Windows 10","Chrome 116.0.0.0","1366x768","2049x928",NA,NA,0,"Task Introduction and Instructions (Clone)",9,"JAIBHCGDFE","Passed AC2","","Spreadsheet1",1,"Task Instructions","Screen 9","8nvnao",4,"continue","",6013.839,5997.173,6013.839,6013.839,5997.173,6013.839,1,6013.839,0,0,NA,"Click To Continue","Continue Button",2,"object-44","Task Instructions",NA,"SUPAMT54273"
"6",1695828564695,"27/09/2023 15:29:24",1695814164695,-4,"27/09/2023 07:29:24",144636,4,"task-hbx7",NA,31900100,9432749,NA,"complete","yyptyb","3LEP4MGT3MZ92EYNSPHYPN8IFHXBD5","computer","Desktop or Laptop","Windows 10","Chrome 116.0.0.0","1366x768","2049x928",NA,NA,0,"Task Introduction and Instructions (Clone)",9,"JAIBHCGDFE","Passed AC2","","Spreadsheet1",NA,"","","",NA,"5","END",NA,NA,NA,NA,NA,NA,0,NA,NA,NA,NA,"","",NA,"","",NA,"SUPAMT54273"
"1",1695828688538,"27/09/2023 15:31:28",1695814288538,-4,"27/09/2023 07:31:28",144636,4,"task-hbx7",NA,31900165,9432754,NA,"complete","avudal","39K0FND3ANE7NYZ8Z4G5D2B66D4AMR","computer","Desktop or Laptop","Windows 10","Chrome 116.0.0.0","1366x768","1366x619",NA,NA,0,"Task Introduction and Instructions (Clone)",9,"DECFBGAHJI","Passed AC2","","Spreadsheet1",NA,"","","",NA,"5","BEGIN",NA,NA,NA,NA,NA,NA,0,NA,NA,NA,NA,"","",NA,"","",NA,"SUPAMT33061"
"2",1695828693843,"27/09/2023 15:31:33",1695814293843,-4,"27/09/2023 07:31:33",144636,4,"task-hbx7",NA,31900165,9432754,NA,"complete","avudal","39K0FND3ANE7NYZ8Z4G5D2B66D4AMR","computer","Desktop or Laptop","Windows 10","Chrome 116.0.0.0","1366x768","1366x619",NA,NA,0,"Task Introduction and Instructions (Clone)",9,"DECFBGAHJI","Passed AC2","","Spreadsheet1",1,"Task Instructions","Screen 1","anr7sn",1,"continue","",5185.798,5169.132,5185.798,5185.798,5169.132,5185.798,1,5185.798,0,0,NA,"Click To Continue","Continue Button",2,"object-1944","Task Instructions",NA,"SUPAMT33061"
"3",1695828702433,"27/09/2023 15:31:42",1695814302433,-4,"27/09/2023 07:31:42",144636,4,"task-hbx7",NA,31900165,9432754,NA,"complete","avudal","39K0FND3ANE7NYZ8Z4G5D2B66D4AMR","computer","Desktop or Laptop","Windows 10","Chrome 116.0.0.0","1366x768","1366x619",NA,NA,0,"Task Introduction and Instructions (Clone)",9,"DECFBGAHJI","Passed AC2","","Spreadsheet1",1,"Task Instructions","Screen 2","ce2tc8",2,"continue","",8609.33199995232,8603.733,8609.33199995232,8609.33199995232,8603.733,8609.33199995232,1,8609.33199995232,0,0,NA,"Click To Continue","Continue Button",2,"object-7","Task Instructions",NA,"SUPAMT33061"
"4",1695828705889,"27/09/2023 15:31:45",1695814305889,-4,"27/09/2023 07:31:45",144636,4,"task-hbx7",NA,31900165,9432754,NA,"complete","avudal","39K0FND3ANE7NYZ8Z4G5D2B66D4AMR","computer","Desktop or Laptop","Windows 10","Chrome 116.0.0.0","1366x768","1366x619",NA,NA,0,"Task Introduction and Instructions (Clone)",9,"DECFBGAHJI","Passed AC2","","Spreadsheet1",1,"Task Instructions","Screen 5","spepx9",3,"continue","",3461.09899995232,3448.778,3461.09899995232,3461.09899995232,3448.778,3461.09899995232,1,3461.09899995232,0,0,NA,"Click To Continue","Continue Button",2,"object-9","Task Instructions",NA,"SUPAMT33061"
"5",1695828710785,"27/09/2023 15:31:50",1695814310785,-4,"27/09/2023 07:31:50",144636,4,"task-hbx7",NA,31900165,9432754,NA,"complete","avudal","39K0FND3ANE7NYZ8Z4G5D2B66D4AMR","computer","Desktop or Laptop","Windows 10","Chrome 116.0.0.0","1366x768","1366x619",NA,NA,0,"Task Introduction and Instructions (Clone)",9,"DECFBGAHJI","Passed AC2","","Spreadsheet1",1,"Task Instructions","Screen 9","8nvnao",4,"continue","",4908.62100014305,4904.183,4908.62100014305,4908.62100014305,4904.183,4908.62100014305,1,4908.62100014305,0,0,NA,"Click To Continue","Continue Button",2,"object-44","Task Instructions",NA,"SUPAMT33061"
"6",1695828710788,"27/09/2023 15:31:50",1695814310788,-4,"27/09/2023 07:31:50",144636,4,"task-hbx7",NA,31900165,9432754,NA,"complete","avudal","39K0FND3ANE7NYZ8Z4G5D2B66D4AMR","computer","Desktop or Laptop","Windows 10","Chrome 116.0.0.0","1366x768","1366x619",NA,NA,0,"Task Introduction and Instructions (Clone)",9,"DECFBGAHJI","Passed AC2","","Spreadsheet1",NA,"","","",NA,"5","END",NA,NA,NA,NA,NA,NA,0,NA,NA,NA,NA,"","",NA,"","",NA,"SUPAMT33061"
"1",1695829014719,"27/09/2023 15:36:54",1695814614719,-4,"27/09/2023 07:36:54",144636,4,"task-hbx7",NA,31900410,9432831,NA,"complete","urshml","3BEFOD78WCSSL9JRQ36E0ZP6E38M4S","computer","Desktop or Laptop","Windows 10","Chrome 117.0.0.0","1366x768","1366x619",NA,NA,0,"Task Introduction and Instructions (Clone)",9,"CDBEAFJGIH","Passed AC2","","Spreadsheet1",NA,"","","",NA,"5","BEGIN",NA,NA,NA,NA,NA,NA,0,NA,NA,NA,NA,"","",NA,"","",NA,"SUPAMT43564"
"2",1695829028566,"27/09/2023 15:37:08",1695814628566,-4,"27/09/2023 07:37:08",144636,4,"task-hbx7",NA,31900410,9432831,NA,"complete","urshml","3BEFOD78WCSSL9JRQ36E0ZP6E38M4S","computer","Desktop or Laptop","Windows 10","Chrome 117.0.0.0","1366x768","1366x619",NA,NA,0,"Task Introduction and Instructions (Clone)",9,"CDBEAFJGIH","Passed AC2","","Spreadsheet1",1,"Task Instructions","Screen 1","anr7sn",1,"continue","",13718.3790000238,13689.615,13718.3790000238,13718.3790000238,13689.615,13718.3790000238,1,13718.3790000238,0,0,NA,"Click To Continue","Continue Button",2,"object-1944","Task Instructions",NA,"SUPAMT43564"
"3",1695829033981,"27/09/2023 15:37:13",1695814633981,-4,"27/09/2023 07:37:13",144636,4,"task-hbx7",NA,31900410,9432831,NA,"complete","urshml","3BEFOD78WCSSL9JRQ36E0ZP6E38M4S","computer","Desktop or Laptop","Windows 10","Chrome 117.0.0.0","1366x768","1366x619",NA,NA,0,"Task Introduction and Instructions (Clone)",9,"CDBEAFJGIH","Passed AC2","","Spreadsheet1",1,"Task Instructions","Screen 2","ce2tc8",2,"continue","",5443.46400001192,5413.757,5443.46400001192,5443.46400001192,5413.757,5443.46400001192,1,5443.46400001192,0,0,NA,"Click To Continue","Continue Button",2,"object-7","Task Instructions",NA,"SUPAMT43564"
"4",1695829041522,"27/09/2023 15:37:21",1695814641522,-4,"27/09/2023 07:37:21",144636,4,"task-hbx7",NA,31900410,9432831,NA,"complete","urshml","3BEFOD78WCSSL9JRQ36E0ZP6E38M4S","computer","Desktop or Laptop","Windows 10","Chrome 117.0.0.0","1366x768","1366x619",NA,NA,0,"Task Introduction and Instructions (Clone)",9,"CDBEAFJGIH","Passed AC2","","Spreadsheet1",1,"Task Instructions","Screen 5","spepx9",3,"continue","",7570.80699997616,7554.496,7570.80699997616,7570.80699997616,7554.496,7570.80699997616,1,7570.80699997616,0,0,NA,"Click To Continue","Continue Button",2,"object-9","Task Instructions",NA,"SUPAMT43564"
"5",1695829049432,"27/09/2023 15:37:29",1695814649432,-4,"27/09/2023 07:37:29",144636,4,"task-hbx7",NA,31900410,9432831,NA,"complete","urshml","3BEFOD78WCSSL9JRQ36E0ZP6E38M4S","computer","Desktop or Laptop","Windows 10","Chrome 117.0.0.0","1366x768","1366x619",NA,NA,0,"Task Introduction and Instructions (Clone)",9,"CDBEAFJGIH","Passed AC2","","Spreadsheet1",1,"Task Instructions","Screen 9","8nvnao",4,"continue","",7926.81099997616,7901.275,7926.81099997616,7926.81099997616,7901.275,7926.81099997616,1,7926.81099997616,0,0,NA,"Click To Continue","Continue Button",2,"object-44","Task Instructions",NA,"SUPAMT43564"
"6",1695829049441,"27/09/2023 15:37:29",1695814649441,-4,"27/09/2023 07:37:29",144636,4,"task-hbx7",NA,31900410,9432831,NA,"complete","urshml","3BEFOD78WCSSL9JRQ36E0ZP6E38M4S","computer","Desktop or Laptop","Windows 10","Chrome 117.0.0.0","1366x768","1366x619",NA,NA,0,"Task Introduction and Instructions (Clone)",9,"CDBEAFJGIH","Passed AC2","","Spreadsheet1",NA,"","","",NA,"5","END",NA,NA,NA,NA,NA,NA,0,NA,NA,NA,NA,"","",NA,"","",NA,"SUPAMT43564"
"1",1695829081572,"27/09/2023 15:38:01",1695814681572,-4,"27/09/2023 07:38:01",144636,4,"task-hbx7",NA,31900447,9432855,NA,"complete","zmhkod","3J2UYBXQQRB9XIGYKMCVZ0277RE06H","computer","Desktop or Laptop","Windows 10","Chrome 117.0.0.0","1366x768","1366x619",NA,NA,0,"Task Introduction and Instructions (Clone)",9,"EFDGCHBIAJ","Passed AC2","","Spreadsheet1",NA,"","","",NA,"5","BEGIN",NA,NA,NA,NA,NA,NA,0,NA,NA,NA,NA,"","",NA,"","",NA,"SUPAMT01454"
"2",1695829085535,"27/09/2023 15:38:05",1695814685535,-4,"27/09/2023 07:38:05",144636,4,"task-hbx7",NA,31900447,9432855,NA,"complete","zmhkod","3J2UYBXQQRB9XIGYKMCVZ0277RE06H","computer","Desktop or Laptop","Windows 10","Chrome 117.0.0.0","1366x768","1366x619",NA,NA,0,"Task Introduction and Instructions (Clone)",9,"EFDGCHBIAJ","Passed AC2","","Spreadsheet1",1,"Task Instructions","Screen 1","anr7sn",1,"continue","",3845.70299997616,3823.996,3845.70299997616,3845.70299997616,3823.996,3845.70299997616,1,3845.70299997616,0,0,NA,"Click To Continue","Continue Button",2,"object-1944","Task Instructions",NA,"SUPAMT01454"
"3",1695829088687,"27/09/2023 15:38:08",1695814688687,-4,"27/09/2023 07:38:08",144636,4,"task-hbx7",NA,31900447,9432855,NA,"complete","zmhkod","3J2UYBXQQRB9XIGYKMCVZ0277RE06H","computer","Desktop or Laptop","Windows 10","Chrome 117.0.0.0","1366x768","1366x619",NA,NA,0,"Task Introduction and Instructions (Clone)",9,"EFDGCHBIAJ","Passed AC2","","Spreadsheet1",1,"Task Instructions","Screen 2","ce2tc8",2,"continue","",3173.70699997616,3170.538,3173.70699997616,3173.70699997616,3170.538,3173.70699997616,1,3173.70699997616,0,0,NA,"Click To Continue","Continue Button",2,"object-7","Task Instructions",NA,"SUPAMT01454"
"4",1695829092110,"27/09/2023 15:38:12",1695814692110,-4,"27/09/2023 07:38:12",144636,4,"task-hbx7",NA,31900447,9432855,NA,"complete","zmhkod","3J2UYBXQQRB9XIGYKMCVZ0277RE06H","computer","Desktop or Laptop","Windows 10","Chrome 117.0.0.0","1366x768","1366x619",NA,NA,0,"Task Introduction and Instructions (Clone)",9,"EFDGCHBIAJ","Passed AC2","","Spreadsheet1",1,"Task Instructions","Screen 5","spepx9",3,"continue","",3426.289,3395.039,3426.289,3426.289,3395.039,3426.289,1,3426.289,0,0,NA,"Click To Continue","Continue Button",2,"object-9","Task Instructions",NA,"SUPAMT01454"
"5",1695829095157,"27/09/2023 15:38:15",1695814695157,-4,"27/09/2023 07:38:15",144636,4,"task-hbx7",NA,31900447,9432855,NA,"complete","zmhkod","3J2UYBXQQRB9XIGYKMCVZ0277RE06H","computer","Desktop or Laptop","Windows 10","Chrome 117.0.0.0","1366x768","1366x619",NA,NA,0,"Task Introduction and Instructions (Clone)",9,"EFDGCHBIAJ","Passed AC2","","Spreadsheet1",1,"Task Instructions","Screen 9","8nvnao",4,"continue","",3078.73,3068.328,3078.73,3078.73,3068.328,3078.73,1,3078.73,0,0,NA,"Click To Continue","Continue Button",2,"object-44","Task Instructions",NA,"SUPAMT01454"
"6",1695829095163,"27/09/2023 15:38:15",1695814695163,-4,"27/09/2023 07:38:15",144636,4,"task-hbx7",NA,31900447,9432855,NA,"complete","zmhkod","3J2UYBXQQRB9XIGYKMCVZ0277RE06H","computer","Desktop or Laptop","Windows 10","Chrome 117.0.0.0","1366x768","1366x619",NA,NA,0,"Task Introduction and Instructions (Clone)",9,"EFDGCHBIAJ","Passed AC2","","Spreadsheet1",NA,"","","",NA,"5","END",NA,NA,NA,NA,NA,NA,0,NA,NA,NA,NA,"","",NA,"","",NA,"SUPAMT01454"
"1",1695829228974,"27/09/2023 15:40:28",1695814828974,-4,"27/09/2023 07:40:28",144636,4,"task-hbx7",NA,31900506,9432621,NA,"complete","uzmrjk","3H8DHMCCWFAAVH2HY2UROQR82B5KDX","computer","Desktop or Laptop","Windows 10","Chrome 117.0.0.0","1366x768","1366x619",NA,NA,0,"Task Introduction and Instructions (Clone)",9,"EFDGCHBIAJ","Passed AC2","","Spreadsheet1",NA,"","","",NA,"5","BEGIN",NA,NA,NA,NA,NA,NA,0,NA,NA,NA,NA,"","",NA,"","",NA,"SUPAMT06323"
"2",1695829233166,"27/09/2023 15:40:33",1695814833166,-4,"27/09/2023 07:40:33",144636,4,"task-hbx7",NA,31900506,9432621,NA,"complete","uzmrjk","3H8DHMCCWFAAVH2HY2UROQR82B5KDX","computer","Desktop or Laptop","Windows 10","Chrome 117.0.0.0","1366x768","1366x619",NA,NA,0,"Task Introduction and Instructions (Clone)",9,"EFDGCHBIAJ","Passed AC2","","Spreadsheet1",1,"Task Instructions","Screen 1","anr7sn",1,"continue","",3843.75,3812.5,3843.75,3843.75,3812.5,3843.75,1,3843.75,0,0,NA,"Click To Continue","Continue Button",2,"object-1944","Task Instructions",NA,"SUPAMT06323"
"3",1695829238758,"27/09/2023 15:40:38",1695814838758,-4,"27/09/2023 07:40:38",144636,4,"task-hbx7",NA,31900506,9432621,NA,"complete","uzmrjk","3H8DHMCCWFAAVH2HY2UROQR82B5KDX","computer","Desktop or Laptop","Windows 10","Chrome 117.0.0.0","1366x768","1366x619",NA,NA,0,"Task Introduction and Instructions (Clone)",9,"EFDGCHBIAJ","Passed AC2","","Spreadsheet1",1,"Task Instructions","Screen 2","ce2tc8",2,"continue","",5623.75,5593.75,5623.75,5623.75,5593.75,5623.75,1,5623.75,0,0,NA,"Click To Continue","Continue Button",2,"object-7","Task Instructions",NA,"SUPAMT06323"
"4",1695829242104,"27/09/2023 15:40:42",1695814842104,-4,"27/09/2023 07:40:42",144636,4,"task-hbx7",NA,31900506,9432621,NA,"complete","uzmrjk","3H8DHMCCWFAAVH2HY2UROQR82B5KDX","computer","Desktop or Laptop","Windows 10","Chrome 117.0.0.0","1366x768","1366x619",NA,NA,0,"Task Introduction and Instructions (Clone)",9,"EFDGCHBIAJ","Passed AC2","","Spreadsheet1",1,"Task Instructions","Screen 5","spepx9",3,"continue","",3375,3343.75,3375,3375,3343.75,3375,1,3375,0,0,NA,"Click To Continue","Continue Button",2,"object-9","Task Instructions",NA,"SUPAMT06323"
"5",1695829245665,"27/09/2023 15:40:45",1695814845665,-4,"27/09/2023 07:40:45",144636,4,"task-hbx7",NA,31900506,9432621,NA,"complete","uzmrjk","3H8DHMCCWFAAVH2HY2UROQR82B5KDX","computer","Desktop or Laptop","Windows 10","Chrome 117.0.0.0","1366x768","1366x619",NA,NA,0,"Task Introduction and Instructions (Clone)",9,"EFDGCHBIAJ","Passed AC2","","Spreadsheet1",1,"Task Instructions","Screen 9","8nvnao",4,"continue","",3593.25,3562.5,3593.25,3593.25,3562.5,3593.25,1,3593.25,0,0,NA,"Click To Continue","Continue Button",2,"object-44","Task Instructions",NA,"SUPAMT06323"
