Event.Index,UTC.Timestamp,UTC.Date.and.Time,Local.Timestamp,Local.Timezone,Local.Date.and.Time,Experiment.ID,Experiment.Version,Tree.Node.Key,Repeat.Key,Schedule.ID,Participant.Private.ID,Participant.Starting.Group,Participant.Status,Participant.Completion.Code,Participant.External.Session.ID,Participant.Device.Type,Participant.Device,Participant.OS,Participant.Browser,Participant.Monitor.Size,Participant.Viewport.Size,Checkpoint,Room.ID,Room.Order,Task.Name,Task.Version,order.ot79,branch.g31k,branch.5gtn,Spreadsheet,Trial.Number,Display,Screen,Screen.ID,Screen.Counter,Response.Type,Response,Onset.Time,Clock.Time,Reaction.Time,Absolute.Onset.Time,Absolute.Clock.Time,Absolute.Reaction.Time,Correct,Response.Onset,Response.Duration,Proportion,Tag,Component.Name,Object.Name,Object.Number,Object.ID,Spreadsheet..display,Manipulation..Spreadsheet,Random_ID
1,1.70811E+12,16/02/2024 18:02,1.70808E+12,-8,16/02/2024 02:02,166635,2,task-gjqt,NA,35235417,10409670,NA,complete,NA,65cf9bdd7baa2a49168d0052,computer,Desktop or Laptop,Windows 10,Chrome 121.0.0.0,1600x900,1600x765,NA,NA,0,BIQ (Charlotte),3,BCADJEIFHG,Passed AC2,,Spreadsheet1,NA,,,,NA,5,BEGIN,NA,NA,NA,NA,NA,NA,0,NA,NA,NA,NA,,,NA,,,NA,SUPPRF14876
2,1.70811E+12,16/02/2024 18:03,1.70808E+12,-8,16/02/2024 02:03,166635,2,task-gjqt,NA,35235417,10409670,NA,complete,NA,65cf9bdd7baa2a49168d0052,computer,Desktop or Laptop,Windows 10,Chrome 121.0.0.0,1600x900,1600x765,NA,NA,0,BIQ (Charlotte),3,BCADJEIFHG,Passed AC2,,Spreadsheet1,1,BIQ,Screen 1,9dh6eq,1,continue,,98545.786,98520.786,98545.786,98545.786,98520.786,98545.786,1,98545.786,0,0,NA,Click To Continue,Continue Button,23,object-48,BIQ,NA,SUPPRF14876
3,1.70811E+12,16/02/2024 18:03,1.70808E+12,-8,16/02/2024 02:03,166635,2,task-gjqt,NA,35235417,10409670,NA,complete,NA,65cf9bdd7baa2a49168d0052,computer,Desktop or Laptop,Windows 10,Chrome 121.0.0.0,1600x900,1600x765,NA,NA,0,BIQ (Charlotte),3,BCADJEIFHG,Passed AC2,,Spreadsheet1,1,BIQ,Screen 1,9dh6eq,1,response,4,50172.086,98520.786,98545.786,50172.086,98520.786,98545.786,1,50172.086,48373.7,0,NA,Rating Scale,Rating Scale,3,object-5,BIQ,NA,SUPPRF14876
4,1.70811E+12,16/02/2024 18:03,1.70808E+12,-8,16/02/2024 02:03,166635,2,task-gjqt,NA,35235417,10409670,NA,complete,NA,65cf9bdd7baa2a49168d0052,computer,Desktop or Laptop,Windows 10,Chrome 121.0.0.0,1600x900,1600x765,NA,NA,0,BIQ (Charlotte),3,BCADJEIFHG,Passed AC2,,Spreadsheet1,1,BIQ,Screen 1,9dh6eq,1,response,8,87002.086,98520.786,98545.786,87002.086,98520.786,98545.786,1,87002.086,11543.7,0,NA,Rating Scale,Rating Scale,10,object-18,BIQ,NA,SUPPRF14876
5,1.70811E+12,16/02/2024 18:03,1.70808E+12,-8,16/02/2024 02:03,166635,2,task-gjqt,NA,35235417,10409670,NA,complete,NA,65cf9bdd7baa2a49168d0052,computer,Desktop or Laptop,Windows 10,Chrome 121.0.0.0,1600x900,1600x765,NA,NA,0,BIQ (Charlotte),3,BCADJEIFHG,Passed AC2,,Spreadsheet1,1,BIQ,Screen 1,9dh6eq,1,response,0,96921.786,98520.786,98545.786,96921.786,98520.786,98545.786,1,96921.786,1624,0,NA,Rating Scale,Rating Scale,17,object-80,BIQ,NA,SUPPRF14876
6,1.70811E+12,16/02/2024 18:04,1.70808E+12,-8,16/02/2024 02:04,166635,2,task-gjqt,NA,35235417,10409670,NA,complete,NA,65cf9bdd7baa2a49168d0052,computer,Desktop or Laptop,Windows 10,Chrome 121.0.0.0,1600x900,1600x765,NA,NA,0,BIQ (Charlotte),3,BCADJEIFHG,Passed AC2,,Spreadsheet1,1,BIQ,Screen 2,o21mwi,2,continue,,41826.5,41802.6,41826.5,41826.5,41802.6,41826.5,1,41826.5,0,0,NA,Click To Continue,Continue Button,22,object-50,BIQ,NA,SUPPRF14876
7,1.70811E+12,16/02/2024 18:04,1.70808E+12,-8,16/02/2024 02:04,166635,2,task-gjqt,NA,35235417,10409670,NA,complete,NA,65cf9bdd7baa2a49168d0052,computer,Desktop or Laptop,Windows 10,Chrome 121.0.0.0,1600x900,1600x765,NA,NA,0,BIQ (Charlotte),3,BCADJEIFHG,Passed AC2,,Spreadsheet1,1,BIQ,Screen 2,o21mwi,2,response,0,15366.9,41802.6,41827.6,15366.9,41802.6,41827.6,1,15366.9,26460.7,0,NA,Rating Scale,Rating Scale,2,object-259,BIQ,NA,SUPPRF14876
8,1.70811E+12,16/02/2024 18:04,1.70808E+12,-8,16/02/2024 02:04,166635,2,task-gjqt,NA,35235417,10409670,NA,complete,NA,65cf9bdd7baa2a49168d0052,computer,Desktop or Laptop,Windows 10,Chrome 121.0.0.0,1600x900,1600x765,NA,NA,0,BIQ (Charlotte),3,BCADJEIFHG,Passed AC2,,Spreadsheet1,1,BIQ,Screen 2,o21mwi,2,response,3,24062.2,41802.6,41827.6,24062.2,41802.6,41827.6,1,24062.2,17765.4,0,NA,Rating Scale,Rating Scale,9,object-36,BIQ,NA,SUPPRF14876
9,1.70811E+12,16/02/2024 18:04,1.70808E+12,-8,16/02/2024 02:04,166635,2,task-gjqt,NA,35235417,10409670,NA,complete,NA,65cf9bdd7baa2a49168d0052,computer,Desktop or Laptop,Windows 10,Chrome 121.0.0.0,1600x900,1600x765,NA,NA,0,BIQ (Charlotte),3,BCADJEIFHG,Passed AC2,,Spreadsheet1,1,BIQ,Screen 2,o21mwi,2,response,4,40928,41802.6,41827.6,40928,41802.6,41827.6,1,40928,899.6,0,NA,Rating Scale,Rating Scale,16,object-86,BIQ,NA,SUPPRF14876
10,1.70811E+12,16/02/2024 18:04,1.70808E+12,-8,16/02/2024 02:04,166635,2,task-gjqt,NA,35235417,10409670,NA,complete,NA,65cf9bdd7baa2a49168d0052,computer,Desktop or Laptop,Windows 10,Chrome 121.0.0.0,1600x900,1600x765,NA,NA,0,BIQ (Charlotte),3,BCADJEIFHG,Passed AC2,,Spreadsheet1,1,BIQ,Screen 3,iz3the,3,continue,,22046,22038.1,22046,22046,22038.1,22046,1,22046,0,0,NA,Click To Continue,Continue Button,22,object-73,BIQ,NA,SUPPRF14876
11,1.70811E+12,16/02/2024 18:04,1.70808E+12,-8,16/02/2024 02:04,166635,2,task-gjqt,NA,35235417,10409670,NA,complete,NA,65cf9bdd7baa2a49168d0052,computer,Desktop or Laptop,Windows 10,Chrome 121.0.0.0,1600x900,1600x765,NA,NA,0,BIQ (Charlotte),3,BCADJEIFHG,Passed AC2,,Spreadsheet1,1,BIQ,Screen 3,iz3the,3,response,4,12543.3,22038.1,22054.3,12543.3,22038.1,22054.3,1,12543.3,9511,0,NA,Rating Scale,Rating Scale,2,object-53,BIQ,NA,SUPPRF14876
12,1.70811E+12,16/02/2024 18:04,1.70808E+12,-8,16/02/2024 02:04,166635,2,task-gjqt,NA,35235417,10409670,NA,complete,NA,65cf9bdd7baa2a49168d0052,computer,Desktop or Laptop,Windows 10,Chrome 121.0.0.0,1600x900,1600x765,NA,NA,0,BIQ (Charlotte),3,BCADJEIFHG,Passed AC2,,Spreadsheet1,1,BIQ,Screen 3,iz3the,3,response,2,17365.7,22038.1,22056.7,17365.7,22038.1,22056.7,1,17365.7,4691,0,NA,Rating Scale,Rating Scale,9,object-60,BIQ,NA,SUPPRF14876
13,1.70811E+12,16/02/2024 18:04,1.70808E+12,-8,16/02/2024 02:04,166635,2,task-gjqt,NA,35235417,10409670,NA,complete,NA,65cf9bdd7baa2a49168d0052,computer,Desktop or Laptop,Windows 10,Chrome 121.0.0.0,1600x900,1600x765,NA,NA,0,BIQ (Charlotte),3,BCADJEIFHG,Passed AC2,,Spreadsheet1,1,BIQ,Screen 3,iz3the,3,response,4,20189.2,22038.1,22060.9,20189.2,22038.1,22060.9,1,20189.2,1871.7,0,NA,Rating Scale,Rating Scale,16,object-67,BIQ,NA,SUPPRF14876
14,1.70811E+12,16/02/2024 18:04,1.70808E+12,-8,16/02/2024 02:04,166635,2,task-gjqt,NA,35235417,10409670,NA,complete,NA,65cf9bdd7baa2a49168d0052,computer,Desktop or Laptop,Windows 10,Chrome 121.0.0.0,1600x900,1600x765,NA,NA,0,BIQ (Charlotte),3,BCADJEIFHG,Passed AC2,,Spreadsheet1,NA,,,,NA,5,END,NA,NA,NA,NA,NA,NA,0,NA,NA,NA,NA,,,NA,,,NA,SUPPRF14876
1,1.70811E+12,16/02/2024 17:57,1.70811E+12,1,16/02/2024 19:57,166635,2,task-gjqt,NA,35235317,10409683,NA,complete,NA,65cf9c591522a6a49d012188,computer,Desktop or Laptop,Windows 10,Chrome 121.0.0.0,1280x720,1280x632,NA,NA,0,BIQ (Charlotte),3,ABJCIDHEGF,Failed AC2,Passed AC1,Spreadsheet1,NA,,,,NA,5,BEGIN,NA,NA,NA,NA,NA,NA,0,NA,NA,NA,NA,,,NA,,,NA,SUPPRF61541
2,1.70811E+12,16/02/2024 17:58,1.70811E+12,1,16/02/2024 19:58,166635,2,task-gjqt,NA,35235317,10409683,NA,complete,NA,65cf9c591522a6a49d012188,computer,Desktop or Laptop,Windows 10,Chrome 121.0.0.0,1280x720,1280x632,NA,NA,0,BIQ (Charlotte),3,ABJCIDHEGF,Failed AC2,Passed AC1,Spreadsheet1,1,BIQ,Screen 1,9dh6eq,1,continue,,34967.4,34950.9,34967.4,34967.4,34950.9,34967.4,1,34967.4,0,0,NA,Click To Continue,Continue Button,23,object-48,BIQ,NA,SUPPRF61541
3,1.70811E+12,16/02/2024 17:58,1.70811E+12,1,16/02/2024 19:58,166635,2,task-gjqt,NA,35235317,10409683,NA,complete,NA,65cf9c591522a6a49d012188,computer,Desktop or Laptop,Windows 10,Chrome 121.0.0.0,1280x720,1280x632,NA,NA,0,BIQ (Charlotte),3,ABJCIDHEGF,Failed AC2,Passed AC1,Spreadsheet1,1,BIQ,Screen 1,9dh6eq,1,response,5,18399.9,34950.9,34967.4,18399.9,34950.9,34967.4,1,18399.9,16567.5,0,NA,Rating Scale,Rating Scale,3,object-5,BIQ,NA,SUPPRF61541
4,1.70811E+12,16/02/2024 17:58,1.70811E+12,1,16/02/2024 19:58,166635,2,task-gjqt,NA,35235317,10409683,NA,complete,NA,65cf9c591522a6a49d012188,computer,Desktop or Laptop,Windows 10,Chrome 121.0.0.0,1280x720,1280x632,NA,NA,0,BIQ (Charlotte),3,ABJCIDHEGF,Failed AC2,Passed AC1,Spreadsheet1,1,BIQ,Screen 1,9dh6eq,1,response,8,28440.5,34950.9,34967.4,28440.5,34950.9,34967.4,1,28440.5,6526.9,0,NA,Rating Scale,Rating Scale,10,object-18,BIQ,NA,SUPPRF61541
5,1.70811E+12,16/02/2024 17:58,1.70811E+12,1,16/02/2024 19:58,166635,2,task-gjqt,NA,35235317,10409683,NA,complete,NA,65cf9c591522a6a49d012188,computer,Desktop or Laptop,Windows 10,Chrome 121.0.0.0,1280x720,1280x632,NA,NA,0,BIQ (Charlotte),3,ABJCIDHEGF,Failed AC2,Passed AC1,Spreadsheet1,1,BIQ,Screen 1,9dh6eq,1,response,0,33985.1,34950.9,34967.4,33985.1,34950.9,34967.4,1,33985.1,982.3,0,NA,Rating Scale,Rating Scale,17,object-80,BIQ,NA,SUPPRF61541
6,1.70811E+12,16/02/2024 17:59,1.70811E+12,1,16/02/2024 19:59,166635,2,task-gjqt,NA,35235317,10409683,NA,complete,NA,65cf9c591522a6a49d012188,computer,Desktop or Laptop,Windows 10,Chrome 121.0.0.0,1280x720,1280x632,NA,NA,0,BIQ (Charlotte),3,ABJCIDHEGF,Failed AC2,Passed AC1,Spreadsheet1,1,BIQ,Screen 2,o21mwi,2,continue,,43292.8,43276.2,43292.8,43292.8,43276.2,43292.8,1,43292.8,0,0,NA,Click To Continue,Continue Button,22,object-50,BIQ,NA,SUPPRF61541
7,1.70811E+12,16/02/2024 17:59,1.70811E+12,1,16/02/2024 19:59,166635,2,task-gjqt,NA,35235317,10409683,NA,complete,NA,65cf9c591522a6a49d012188,computer,Desktop or Laptop,Windows 10,Chrome 121.0.0.0,1280x720,1280x632,NA,NA,0,BIQ (Charlotte),3,ABJCIDHEGF,Failed AC2,Passed AC1,Spreadsheet1,1,BIQ,Screen 2,o21mwi,2,continue,,47141.2,47139,47141.2,47141.2,47139,47141.2,1,47141.2,0,0,NA,Click To Continue,Continue Button,22,object-50,BIQ,NA,SUPPRF61541
8,1.70811E+12,16/02/2024 17:59,1.70811E+12,1,16/02/2024 19:59,166635,2,task-gjqt,NA,35235317,10409683,NA,complete,NA,65cf9c591522a6a49d012188,computer,Desktop or Laptop,Windows 10,Chrome 121.0.0.0,1280x720,1280x632,NA,NA,0,BIQ (Charlotte),3,ABJCIDHEGF,Failed AC2,Passed AC1,Spreadsheet1,1,BIQ,Screen 2,o21mwi,2,response,7,12521.8,47139,47142.7,12521.8,47139,47142.7,1,12521.8,34620.9,0,NA,Rating Scale,Rating Scale,2,object-259,BIQ,NA,SUPPRF61541
9,1.70811E+12,16/02/2024 17:59,1.70811E+12,1,16/02/2024 19:59,166635,2,task-gjqt,NA,35235317,10409683,NA,complete,NA,65cf9c591522a6a49d012188,computer,Desktop or Laptop,Windows 10,Chrome 121.0.0.0,1280x720,1280x632,NA,NA,0,BIQ (Charlotte),3,ABJCIDHEGF,Failed AC2,Passed AC1,Spreadsheet1,1,BIQ,Screen 2,o21mwi,2,response,0,22928.7,47139,47144.6,22928.7,47139,47144.6,1,22928.7,24215.9,0,NA,Rating Scale,Rating Scale,9,object-36,BIQ,NA,SUPPRF61541
10,1.70811E+12,16/02/2024 17:59,1.70811E+12,1,16/02/2024 19:59,166635,2,task-gjqt,NA,35235317,10409683,NA,complete,NA,65cf9c591522a6a49d012188,computer,Desktop or Laptop,Windows 10,Chrome 121.0.0.0,1280x720,1280x632,NA,NA,0,BIQ (Charlotte),3,ABJCIDHEGF,Failed AC2,Passed AC1,Spreadsheet1,1,BIQ,Screen 2,o21mwi,2,response,8,44908.1,47139,47145.7,44908.1,47139,47145.7,1,44908.1,2237.6,0,NA,Rating Scale,Rating Scale,16,object-86,BIQ,NA,SUPPRF61541
11,1.70811E+12,16/02/2024 17:59,1.70811E+12,1,16/02/2024 19:59,166635,2,task-gjqt,NA,35235317,10409683,NA,complete,NA,65cf9c591522a6a49d012188,computer,Desktop or Laptop,Windows 10,Chrome 121.0.0.0,1280x720,1280x632,NA,NA,0,BIQ (Charlotte),3,ABJCIDHEGF,Failed AC2,Passed AC1,Spreadsheet1,1,BIQ,Screen 3,iz3the,3,continue,,26578.8,26575.2,26578.8,26578.8,26575.2,26578.8,1,26578.8,0,0,NA,Click To Continue,Continue Button,22,object-73,BIQ,NA,SUPPRF61541
12,1.70811E+12,16/02/2024 17:59,1.70811E+12,1,16/02/2024 19:59,166635,2,task-gjqt,NA,35235317,10409683,NA,complete,NA,65cf9c591522a6a49d012188,computer,Desktop or Laptop,Windows 10,Chrome 121.0.0.0,1280x720,1280x632,NA,NA,0,BIQ (Charlotte),3,ABJCIDHEGF,Failed AC2,Passed AC1,Spreadsheet1,1,BIQ,Screen 3,iz3the,3,response,0,12205.8,26575.2,26587.8,12205.8,26575.2,26587.8,1,12205.8,14382,0,NA,Rating Scale,Rating Scale,2,object-53,BIQ,NA,SUPPRF61541
13,1.70811E+12,16/02/2024 17:59,1.70811E+12,1,16/02/2024 19:59,166635,2,task-gjqt,NA,35235317,10409683,NA,complete,NA,65cf9c591522a6a49d012188,computer,Desktop or Laptop,Windows 10,Chrome 121.0.0.0,1280x720,1280x632,NA,NA,0,BIQ (Charlotte),3,ABJCIDHEGF,Failed AC2,Passed AC1,Spreadsheet1,1,BIQ,Screen 3,iz3the,3,response,0,20098.3,26575.2,26589.6,20098.3,26575.2,26589.6,1,20098.3,6491.3,0,NA,Rating Scale,Rating Scale,9,object-60,BIQ,NA,SUPPRF61541
14,1.70811E+12,16/02/2024 17:59,1.70811E+12,1,16/02/2024 19:59,166635,2,task-gjqt,NA,35235317,10409683,NA,complete,NA,65cf9c591522a6a49d012188,computer,Desktop or Laptop,Windows 10,Chrome 121.0.0.0,1280x720,1280x632,NA,NA,0,BIQ (Charlotte),3,ABJCIDHEGF,Failed AC2,Passed AC1,Spreadsheet1,1,BIQ,Screen 3,iz3the,3,response,6,25076.9,26575.2,26591.5,25076.9,26575.2,26591.5,1,25076.9,1514.6,0,NA,Rating Scale,Rating Scale,16,object-67,BIQ,NA,SUPPRF61541
15,1.70811E+12,16/02/2024 17:59,1.70811E+12,1,16/02/2024 19:59,166635,2,task-gjqt,NA,35235317,10409683,NA,complete,NA,65cf9c591522a6a49d012188,computer,Desktop or Laptop,Windows 10,Chrome 121.0.0.0,1280x720,1280x632,NA,NA,0,BIQ (Charlotte),3,ABJCIDHEGF,Failed AC2,Passed AC1,Spreadsheet1,NA,,,,NA,5,END,NA,NA,NA,NA,NA,NA,0,NA,NA,NA,NA,,,NA,,,NA,SUPPRF61541
1,1.70811E+12,16/02/2024 17:53,1.70811E+12,1,16/02/2024 19:53,166635,2,task-gjqt,NA,35235187,10409770,NA,complete,NA,65cf9ed3adac672e940732b5,computer,Desktop or Laptop,Linux x86_64,Chrome 121.0.0.0,1360x768,1366x620,NA,NA,0,BIQ (Charlotte),3,CDBEAFJGIH,Passed AC2,,Spreadsheet1,NA,,,,NA,5,BEGIN,NA,NA,NA,NA,NA,NA,0,NA,NA,NA,NA,,,NA,,,NA,SUPPRF16119
2,1.70811E+12,16/02/2024 17:54,1.70811E+12,1,16/02/2024 19:54,166635,2,task-gjqt,NA,35235187,10409770,NA,complete,NA,65cf9ed3adac672e940732b5,computer,Desktop or Laptop,Linux x86_64,Chrome 121.0.0.0,1360x768,1366x620,NA,NA,0,BIQ (Charlotte),3,CDBEAFJGIH,Passed AC2,,Spreadsheet1,1,BIQ,Screen 1,9dh6eq,1,continue,,41738.5,41724.2,41738.5,41738.5,41724.2,41738.5,1,41738.5,0,0,NA,Click To Continue,Continue Button,23,object-48,BIQ,NA,SUPPRF16119
3,1.70811E+12,16/02/2024 17:54,1.70811E+12,1,16/02/2024 19:54,166635,2,task-gjqt,NA,35235187,10409770,NA,complete,NA,65cf9ed3adac672e940732b5,computer,Desktop or Laptop,Linux x86_64,Chrome 121.0.0.0,1360x768,1366x620,NA,NA,0,BIQ (Charlotte),3,CDBEAFJGIH,Passed AC2,,Spreadsheet1,1,BIQ,Screen 1,9dh6eq,1,response,7,23993.3,41724.2,41740.8,23993.3,41724.2,41740.8,1,23993.3,17747.5,0,NA,Rating Scale,Rating Scale,3,object-5,BIQ,NA,SUPPRF16119
4,1.70811E+12,16/02/2024 17:54,1.70811E+12,1,16/02/2024 19:54,166635,2,task-gjqt,NA,35235187,10409770,NA,complete,NA,65cf9ed3adac672e940732b5,computer,Desktop or Laptop,Linux x86_64,Chrome 121.0.0.0,1360x768,1366x620,NA,NA,0,BIQ (Charlotte),3,CDBEAFJGIH,Passed AC2,,Spreadsheet1,1,BIQ,Screen 1,9dh6eq,1,response,7,33224.2,41724.2,41740.8,33224.2,41724.2,41740.8,1,33224.2,8516.6,0,NA,Rating Scale,Rating Scale,10,object-18,BIQ,NA,SUPPRF16119
5,1.70811E+12,16/02/2024 17:54,1.70811E+12,1,16/02/2024 19:54,166635,2,task-gjqt,NA,35235187,10409770,NA,complete,NA,65cf9ed3adac672e940732b5,computer,Desktop or Laptop,Linux x86_64,Chrome 121.0.0.0,1360x768,1366x620,NA,NA,0,BIQ (Charlotte),3,CDBEAFJGIH,Passed AC2,,Spreadsheet1,1,BIQ,Screen 1,9dh6eq,1,response,1,38557.5,41724.2,41740.8,38557.5,41724.2,41740.8,1,38557.5,3183.3,0,NA,Rating Scale,Rating Scale,17,object-80,BIQ,NA,SUPPRF16119
6,1.70811E+12,16/02/2024 17:55,1.70811E+12,1,16/02/2024 19:55,166635,2,task-gjqt,NA,35235187,10409770,NA,complete,NA,65cf9ed3adac672e940732b5,computer,Desktop or Laptop,Linux x86_64,Chrome 121.0.0.0,1360x768,1366x620,NA,NA,0,BIQ (Charlotte),3,CDBEAFJGIH,Passed AC2,,Spreadsheet1,1,BIQ,Screen 2,o21mwi,2,continue,,45816.2,45799.2,45816.2,45816.2,45799.2,45816.2,1,45816.2,0,0,NA,Click To Continue,Continue Button,22,object-50,BIQ,NA,SUPPRF16119
7,1.70811E+12,16/02/2024 17:55,1.70811E+12,1,16/02/2024 19:55,166635,2,task-gjqt,NA,35235187,10409770,NA,complete,NA,65cf9ed3adac672e940732b5,computer,Desktop or Laptop,Linux x86_64,Chrome 121.0.0.0,1360x768,1366x620,NA,NA,0,BIQ (Charlotte),3,CDBEAFJGIH,Passed AC2,,Spreadsheet1,1,BIQ,Screen 2,o21mwi,2,response,6,8119.1,45799.2,45821.1,8119.1,45799.2,45821.1,1,8119.1,37702,0,NA,Rating Scale,Rating Scale,2,object-259,BIQ,NA,SUPPRF16119
8,1.70811E+12,16/02/2024 17:55,1.70811E+12,1,16/02/2024 19:55,166635,2,task-gjqt,NA,35235187,10409770,NA,complete,NA,65cf9ed3adac672e940732b5,computer,Desktop or Laptop,Linux x86_64,Chrome 121.0.0.0,1360x768,1366x620,NA,NA,0,BIQ (Charlotte),3,CDBEAFJGIH,Passed AC2,,Spreadsheet1,1,BIQ,Screen 2,o21mwi,2,response,1,28799.7,45799.2,45821.9,28799.7,45799.2,45821.9,1,28799.7,17022.2,0,NA,Rating Scale,Rating Scale,9,object-36,BIQ,NA,SUPPRF16119
9,1.70811E+12,16/02/2024 17:55,1.70811E+12,1,16/02/2024 19:55,166635,2,task-gjqt,NA,35235187,10409770,NA,complete,NA,65cf9ed3adac672e940732b5,computer,Desktop or Laptop,Linux x86_64,Chrome 121.0.0.0,1360x768,1366x620,NA,NA,0,BIQ (Charlotte),3,CDBEAFJGIH,Passed AC2,,Spreadsheet1,1,BIQ,Screen 2,o21mwi,2,response,1,44500.3,45799.2,45821.9,44500.3,45799.2,45821.9,1,44500.3,1321.6,0,NA,Rating Scale,Rating Scale,16,object-86,BIQ,NA,SUPPRF16119
10,1.70811E+12,16/02/2024 17:55,1.70811E+12,1,16/02/2024 19:55,166635,2,task-gjqt,NA,35235187,10409770,NA,complete,NA,65cf9ed3adac672e940732b5,computer,Desktop or Laptop,Linux x86_64,Chrome 121.0.0.0,1360x768,1366x620,NA,NA,0,BIQ (Charlotte),3,CDBEAFJGIH,Passed AC2,,Spreadsheet1,1,BIQ,Screen 3,iz3the,3,continue,,17578.9,17567,17578.9,17578.9,17567,17578.9,1,17578.9,0,0,NA,Click To Continue,Continue Button,22,object-73,BIQ,NA,SUPPRF16119
11,1.70811E+12,16/02/2024 17:55,1.70811E+12,1,16/02/2024 19:55,166635,2,task-gjqt,NA,35235187,10409770,NA,complete,NA,65cf9ed3adac672e940732b5,computer,Desktop or Laptop,Linux x86_64,Chrome 121.0.0.0,1360x768,1366x620,NA,NA,0,BIQ (Charlotte),3,CDBEAFJGIH,Passed AC2,,Spreadsheet1,1,BIQ,Screen 3,iz3the,3,response,1,6288,17567,17583.1,6288,17567,17583.1,1,6288,11295.1,0,NA,Rating Scale,Rating Scale,2,object-53,BIQ,NA,SUPPRF16119
12,1.70811E+12,16/02/2024 17:55,1.70811E+12,1,16/02/2024 19:55,166635,2,task-gjqt,NA,35235187,10409770,NA,complete,NA,65cf9ed3adac672e940732b5,computer,Desktop or Laptop,Linux x86_64,Chrome 121.0.0.0,1360x768,1366x620,NA,NA,0,BIQ (Charlotte),3,CDBEAFJGIH,Passed AC2,,Spreadsheet1,1,BIQ,Screen 3,iz3the,3,response,2,12854.2,17567,17583.7,12854.2,17567,17583.7,1,12854.2,4729.5,0,NA,Rating Scale,Rating Scale,9,object-60,BIQ,NA,SUPPRF16119
13,1.70811E+12,16/02/2024 17:55,1.70811E+12,1,16/02/2024 19:55,166635,2,task-gjqt,NA,35235187,10409770,NA,complete,NA,65cf9ed3adac672e940732b5,computer,Desktop or Laptop,Linux x86_64,Chrome 121.0.0.0,1360x768,1366x620,NA,NA,0,BIQ (Charlotte),3,CDBEAFJGIH,Passed AC2,,Spreadsheet1,1,BIQ,Screen 3,iz3the,3,response,1,16604.6,17567,17583.7,16604.6,17567,17583.7,1,16604.6,979.1,0,NA,Rating Scale,Rating Scale,16,object-67,BIQ,NA,SUPPRF16119
14,1.70811E+12,16/02/2024 17:55,1.70811E+12,1,16/02/2024 19:55,166635,2,task-gjqt,NA,35235187,10409770,NA,complete,NA,65cf9ed3adac672e940732b5,computer,Desktop or Laptop,Linux x86_64,Chrome 121.0.0.0,1360x768,1366x620,NA,NA,0,BIQ (Charlotte),3,CDBEAFJGIH,Passed AC2,,Spreadsheet1,NA,,,,NA,5,END,NA,NA,NA,NA,NA,NA,0,NA,NA,NA,NA,,,NA,,,NA,SUPPRF16119
1,1.70811E+12,16/02/2024 17:59,1.70811E+12,0,16/02/2024 17:59,166635,2,task-gjqt,NA,35235365,10409801,NA,complete,NA,65cf9e5075ba348a6a36999c,computer,Desktop or Laptop,Windows 10,Chrome 121.0.0.0,1536x864,1536x747,NA,NA,0,BIQ (Charlotte),3,DECFBGAHJI,Passed AC2,,Spreadsheet1,NA,,,,NA,5,BEGIN,NA,NA,NA,NA,NA,NA,0,NA,NA,NA,NA,,,NA,,,NA,SUPPRF92604
2,1.70811E+12,16/02/2024 17:59,1.70811E+12,0,16/02/2024 17:59,166635,2,task-gjqt,NA,35235365,10409801,NA,complete,NA,65cf9e5075ba348a6a36999c,computer,Desktop or Laptop,Windows 10,Chrome 121.0.0.0,1536x864,1536x747,NA,NA,0,BIQ (Charlotte),3,DECFBGAHJI,Passed AC2,,Spreadsheet1,1,BIQ,Screen 1,9dh6eq,1,continue,,41681.1,41674.4,41681.1,41681.1,41674.4,41681.1,1,41681.1,0,0,NA,Click To Continue,Continue Button,23,object-48,BIQ,NA,SUPPRF92604
3,1.70811E+12,16/02/2024 17:59,1.70811E+12,0,16/02/2024 17:59,166635,2,task-gjqt,NA,35235365,10409801,NA,complete,NA,65cf9e5075ba348a6a36999c,computer,Desktop or Laptop,Windows 10,Chrome 121.0.0.0,1536x864,1536x747,NA,NA,0,BIQ (Charlotte),3,DECFBGAHJI,Passed AC2,,Spreadsheet1,1,BIQ,Screen 1,9dh6eq,1,response,3,9757.3,41674.4,41681.1,9757.3,41674.4,41681.1,1,9757.3,31923.8,0,NA,Rating Scale,Rating Scale,3,object-5,BIQ,NA,SUPPRF92604
4,1.70811E+12,16/02/2024 17:59,1.70811E+12,0,16/02/2024 17:59,166635,2,task-gjqt,NA,35235365,10409801,NA,complete,NA,65cf9e5075ba348a6a36999c,computer,Desktop or Laptop,Windows 10,Chrome 121.0.0.0,1536x864,1536x747,NA,NA,0,BIQ (Charlotte),3,DECFBGAHJI,Passed AC2,,Spreadsheet1,1,BIQ,Screen 1,9dh6eq,1,response,7,19680.9,41674.4,41681.1,19680.9,41674.4,41681.1,1,19680.9,22000.2,0,NA,Rating Scale,Rating Scale,10,object-18,BIQ,NA,SUPPRF92604
5,1.70811E+12,16/02/2024 17:59,1.70811E+12,0,16/02/2024 17:59,166635,2,task-gjqt,NA,35235365,10409801,NA,complete,NA,65cf9e5075ba348a6a36999c,computer,Desktop or Laptop,Windows 10,Chrome 121.0.0.0,1536x864,1536x747,NA,NA,0,BIQ (Charlotte),3,DECFBGAHJI,Passed AC2,,Spreadsheet1,1,BIQ,Screen 1,9dh6eq,1,response,4,24785.3,41674.4,41681.1,24785.3,41674.4,41681.1,1,24785.3,16895.8,0,NA,Rating Scale,Rating Scale,17,object-80,BIQ,NA,SUPPRF92604
6,1.70811E+12,16/02/2024 18:00,1.70811E+12,0,16/02/2024 18:00,166635,2,task-gjqt,NA,35235365,10409801,NA,complete,NA,65cf9e5075ba348a6a36999c,computer,Desktop or Laptop,Windows 10,Chrome 121.0.0.0,1536x864,1536x747,NA,NA,0,BIQ (Charlotte),3,DECFBGAHJI,Passed AC2,,Spreadsheet1,1,BIQ,Screen 2,o21mwi,2,continue,,23378,23375.5,23378,23378,23375.5,23378,1,23378,0,0,NA,Click To Continue,Continue Button,22,object-50,BIQ,NA,SUPPRF92604
7,1.70811E+12,16/02/2024 18:00,1.70811E+12,0,16/02/2024 18:00,166635,2,task-gjqt,NA,35235365,10409801,NA,complete,NA,65cf9e5075ba348a6a36999c,computer,Desktop or Laptop,Windows 10,Chrome 121.0.0.0,1536x864,1536x747,NA,NA,0,BIQ (Charlotte),3,DECFBGAHJI,Passed AC2,,Spreadsheet1,1,BIQ,Screen 2,o21mwi,2,response,8,4562.9,23375.5,23379.6,4562.9,23375.5,23379.6,1,4562.9,18816.7,0,NA,Rating Scale,Rating Scale,2,object-259,BIQ,NA,SUPPRF92604
8,1.70811E+12,16/02/2024 18:00,1.70811E+12,0,16/02/2024 18:00,166635,2,task-gjqt,NA,35235365,10409801,NA,complete,NA,65cf9e5075ba348a6a36999c,computer,Desktop or Laptop,Windows 10,Chrome 121.0.0.0,1536x864,1536x747,NA,NA,0,BIQ (Charlotte),3,DECFBGAHJI,Passed AC2,,Spreadsheet1,1,BIQ,Screen 2,o21mwi,2,response,3,10208.8,23375.5,23379.9,10208.8,23375.5,23379.9,1,10208.8,13171.1,0,NA,Rating Scale,Rating Scale,9,object-36,BIQ,NA,SUPPRF92604
9,1.70811E+12,16/02/2024 18:00,1.70811E+12,0,16/02/2024 18:00,166635,2,task-gjqt,NA,35235365,10409801,NA,complete,NA,65cf9e5075ba348a6a36999c,computer,Desktop or Laptop,Windows 10,Chrome 121.0.0.0,1536x864,1536x747,NA,NA,0,BIQ (Charlotte),3,DECFBGAHJI,Passed AC2,,Spreadsheet1,1,BIQ,Screen 2,o21mwi,2,response,0,13750.4,23375.5,23380.1,13750.4,23375.5,23380.1,1,13750.4,9629.7,0,NA,Rating Scale,Rating Scale,16,object-86,BIQ,NA,SUPPRF92604
10,1.70811E+12,16/02/2024 18:00,1.70811E+12,0,16/02/2024 18:00,166635,2,task-gjqt,NA,35235365,10409801,NA,complete,NA,65cf9e5075ba348a6a36999c,computer,Desktop or Laptop,Windows 10,Chrome 121.0.0.0,1536x864,1536x747,NA,NA,0,BIQ (Charlotte),3,DECFBGAHJI,Passed AC2,,Spreadsheet1,1,BIQ,Screen 3,iz3the,3,continue,,16796.8,16792.1,16796.8,16796.8,16792.1,16796.8,1,16796.8,0,0,NA,Click To Continue,Continue Button,22,object-73,BIQ,NA,SUPPRF92604
11,1.70811E+12,16/02/2024 18:00,1.70811E+12,0,16/02/2024 18:00,166635,2,task-gjqt,NA,35235365,10409801,NA,complete,NA,65cf9e5075ba348a6a36999c,computer,Desktop or Laptop,Windows 10,Chrome 121.0.0.0,1536x864,1536x747,NA,NA,0,BIQ (Charlotte),3,DECFBGAHJI,Passed AC2,,Spreadsheet1,1,BIQ,Screen 3,iz3the,3,response,0,2347.3,16792.1,16798.8,2347.3,16792.1,16798.8,1,2347.3,14451.5,0,NA,Rating Scale,Rating Scale,2,object-53,BIQ,NA,SUPPRF92604
12,1.70811E+12,16/02/2024 18:00,1.70811E+12,0,16/02/2024 18:00,166635,2,task-gjqt,NA,35235365,10409801,NA,complete,NA,65cf9e5075ba348a6a36999c,computer,Desktop or Laptop,Windows 10,Chrome 121.0.0.0,1536x864,1536x747,NA,NA,0,BIQ (Charlotte),3,DECFBGAHJI,Passed AC2,,Spreadsheet1,1,BIQ,Screen 3,iz3the,3,response,1,10139.4,16792.1,16798.8,10139.4,16792.1,16798.8,1,10139.4,6659.4,0,NA,Rating Scale,Rating Scale,9,object-60,BIQ,NA,SUPPRF92604
13,1.70811E+12,16/02/2024 18:00,1.70811E+12,0,16/02/2024 18:00,166635,2,task-gjqt,NA,35235365,10409801,NA,complete,NA,65cf9e5075ba348a6a36999c,computer,Desktop or Laptop,Windows 10,Chrome 121.0.0.0,1536x864,1536x747,NA,NA,0,BIQ (Charlotte),3,DECFBGAHJI,Passed AC2,,Spreadsheet1,1,BIQ,Screen 3,iz3the,3,response,2,14646.2,16792.1,16798.8,14646.2,16792.1,16798.8,1,14646.2,2152.6,0,NA,Rating Scale,Rating Scale,16,object-67,BIQ,NA,SUPPRF92604
14,1.70811E+12,16/02/2024 18:00,1.70811E+12,0,16/02/2024 18:00,166635,2,task-gjqt,NA,35235365,10409801,NA,complete,NA,65cf9e5075ba348a6a36999c,computer,Desktop or Laptop,Windows 10,Chrome 121.0.0.0,1536x864,1536x747,NA,NA,0,BIQ (Charlotte),3,DECFBGAHJI,Passed AC2,,Spreadsheet1,NA,,,,NA,5,END,NA,NA,NA,NA,NA,NA,0,NA,NA,NA,NA,,,NA,,,NA,SUPPRF92604
1,1.70811E+12,16/02/2024 18:36,1.70811E+12,0,16/02/2024 18:36,166635,2,task-gjqt,NA,35236342,10410189,NA,complete,NA,65cfaa77aa458aef6c66cf21,computer,Desktop or Laptop,Windows 10,Chrome 121.0.0.0,1536x864,1536x695,NA,NA,0,BIQ (Charlotte),3,FGEHDICJBA,Passed AC2,,Spreadsheet1,NA,,,,NA,5,BEGIN,NA,NA,NA,NA,NA,NA,0,NA,NA,NA,NA,,,NA,,,NA,SUPPRF90660
2,1.70811E+12,16/02/2024 18:38,1.70811E+12,0,16/02/2024 18:38,166635,2,task-gjqt,NA,35236342,10410189,NA,complete,NA,65cfaa77aa458aef6c66cf21,computer,Desktop or Laptop,Windows 10,Chrome 121.0.0.0,1536x864,1536x695,NA,NA,0,BIQ (Charlotte),3,FGEHDICJBA,Passed AC2,,Spreadsheet1,1,BIQ,Screen 1,9dh6eq,1,continue,,106069.24,106053.34,106069.24,106069.24,106053.34,106069.24,1,106069.24,0,0,NA,Click To Continue,Continue Button,23,object-48,BIQ,NA,SUPPRF90660
3,1.70811E+12,16/02/2024 18:38,1.70811E+12,0,16/02/2024 18:38,166635,2,task-gjqt,NA,35236342,10410189,NA,complete,NA,65cfaa77aa458aef6c66cf21,computer,Desktop or Laptop,Windows 10,Chrome 121.0.0.0,1536x864,1536x695,NA,NA,0,BIQ (Charlotte),3,FGEHDICJBA,Passed AC2,,Spreadsheet1,1,BIQ,Screen 1,9dh6eq,1,response,5,99203.84,106053.34,106070.04,99203.84,106053.34,106070.04,1,99203.84,6866.2,0,NA,Rating Scale,Rating Scale,3,object-5,BIQ,NA,SUPPRF90660
4,1.70811E+12,16/02/2024 18:38,1.70811E+12,0,16/02/2024 18:38,166635,2,task-gjqt,NA,35236342,10410189,NA,complete,NA,65cfaa77aa458aef6c66cf21,computer,Desktop or Laptop,Windows 10,Chrome 121.0.0.0,1536x864,1536x695,NA,NA,0,BIQ (Charlotte),3,FGEHDICJBA,Passed AC2,,Spreadsheet1,1,BIQ,Screen 1,9dh6eq,1,response,6,95887.84,106053.34,106070.04,95887.84,106053.34,106070.04,1,95887.84,10182.2,0,NA,Rating Scale,Rating Scale,10,object-18,BIQ,NA,SUPPRF90660
5,1.70811E+12,16/02/2024 18:38,1.70811E+12,0,16/02/2024 18:38,166635,2,task-gjqt,NA,35236342,10410189,NA,complete,NA,65cfaa77aa458aef6c66cf21,computer,Desktop or Laptop,Windows 10,Chrome 121.0.0.0,1536x864,1536x695,NA,NA,0,BIQ (Charlotte),3,FGEHDICJBA,Passed AC2,,Spreadsheet1,1,BIQ,Screen 1,9dh6eq,1,response,2,102503.64,106053.34,106070.04,102503.64,106053.34,106070.04,1,102503.64,3566.4,0,NA,Rating Scale,Rating Scale,17,object-80,BIQ,NA,SUPPRF90660
6,1.70811E+12,16/02/2024 18:38,1.70811E+12,0,16/02/2024 18:38,166635,2,task-gjqt,NA,35236342,10410189,NA,complete,NA,65cfaa77aa458aef6c66cf21,computer,Desktop or Laptop,Windows 10,Chrome 121.0.0.0,1536x864,1536x695,NA,NA,0,BIQ (Charlotte),3,FGEHDICJBA,Passed AC2,,Spreadsheet1,1,BIQ,Screen 2,o21mwi,2,continue,,25454.5,25446.5,25454.5,25454.5,25446.5,25454.5,1,25454.5,0,0,NA,Click To Continue,Continue Button,22,object-50,BIQ,NA,SUPPRF90660
7,1.70811E+12,16/02/2024 18:38,1.70811E+12,0,16/02/2024 18:38,166635,2,task-gjqt,NA,35236342,10410189,NA,complete,NA,65cfaa77aa458aef6c66cf21,computer,Desktop or Laptop,Windows 10,Chrome 121.0.0.0,1536x864,1536x695,NA,NA,0,BIQ (Charlotte),3,FGEHDICJBA,Passed AC2,,Spreadsheet1,1,BIQ,Screen 2,o21mwi,2,response,7,2699.3,25446.5,25459.5,2699.3,25446.5,25459.5,1,2699.3,22760.2,0,NA,Rating Scale,Rating Scale,2,object-259,BIQ,NA,SUPPRF90660
8,1.70811E+12,16/02/2024 18:38,1.70811E+12,0,16/02/2024 18:38,166635,2,task-gjqt,NA,35236342,10410189,NA,complete,NA,65cfaa77aa458aef6c66cf21,computer,Desktop or Laptop,Windows 10,Chrome 121.0.0.0,1536x864,1536x695,NA,NA,0,BIQ (Charlotte),3,FGEHDICJBA,Passed AC2,,Spreadsheet1,1,BIQ,Screen 2,o21mwi,2,response,2,7465.6,25446.5,25460.4,7465.6,25446.5,25460.4,1,7465.6,17994.8,0,NA,Rating Scale,Rating Scale,9,object-36,BIQ,NA,SUPPRF90660
9,1.70811E+12,16/02/2024 18:38,1.70811E+12,0,16/02/2024 18:38,166635,2,task-gjqt,NA,35236342,10410189,NA,complete,NA,65cfaa77aa458aef6c66cf21,computer,Desktop or Laptop,Windows 10,Chrome 121.0.0.0,1536x864,1536x695,NA,NA,0,BIQ (Charlotte),3,FGEHDICJBA,Passed AC2,,Spreadsheet1,1,BIQ,Screen 2,o21mwi,2,response,1,9915.3,25446.5,25461.2,9915.3,25446.5,25461.2,1,9915.3,15545.9,0,NA,Rating Scale,Rating Scale,16,object-86,BIQ,NA,SUPPRF90660
10,1.70811E+12,16/02/2024 18:38,1.70811E+12,0,16/02/2024 18:38,166635,2,task-gjqt,NA,35236342,10410189,NA,complete,NA,65cfaa77aa458aef6c66cf21,computer,Desktop or Laptop,Windows 10,Chrome 121.0.0.0,1536x864,1536x695,NA,NA,0,BIQ (Charlotte),3,FGEHDICJBA,Passed AC2,,Spreadsheet1,1,BIQ,Screen 3,iz3the,3,continue,,13651.5,13648.4,13651.5,13651.5,13648.4,13651.5,1,13651.5,0,0,NA,Click To Continue,Continue Button,22,object-73,BIQ,NA,SUPPRF90660
11,1.70811E+12,16/02/2024 18:38,1.70811E+12,0,16/02/2024 18:38,166635,2,task-gjqt,NA,35236342,10410189,NA,complete,NA,65cfaa77aa458aef6c66cf21,computer,Desktop or Laptop,Windows 10,Chrome 121.0.0.0,1536x864,1536x695,NA,NA,0,BIQ (Charlotte),3,FGEHDICJBA,Passed AC2,,Spreadsheet1,1,BIQ,Screen 3,iz3the,3,response,2,2499.8,13648.4,13656.5,2499.8,13648.4,13656.5,1,2499.8,11156.7,0,NA,Rating Scale,Rating Scale,2,object-53,BIQ,NA,SUPPRF90660
12,1.70811E+12,16/02/2024 18:38,1.70811E+12,0,16/02/2024 18:38,166635,2,task-gjqt,NA,35236342,10410189,NA,complete,NA,65cfaa77aa458aef6c66cf21,computer,Desktop or Laptop,Windows 10,Chrome 121.0.0.0,1536x864,1536x695,NA,NA,0,BIQ (Charlotte),3,FGEHDICJBA,Passed AC2,,Spreadsheet1,1,BIQ,Screen 3,iz3the,3,response,4,3899.7,13648.4,13657.3,3899.7,13648.4,13657.3,1,3899.7,9757.6,0,NA,Rating Scale,Rating Scale,9,object-60,BIQ,NA,SUPPRF90660
13,1.70811E+12,16/02/2024 18:38,1.70811E+12,0,16/02/2024 18:38,166635,2,task-gjqt,NA,35236342,10410189,NA,complete,NA,65cfaa77aa458aef6c66cf21,computer,Desktop or Laptop,Windows 10,Chrome 121.0.0.0,1536x864,1536x695,NA,NA,0,BIQ (Charlotte),3,FGEHDICJBA,Passed AC2,,Spreadsheet1,1,BIQ,Screen 3,iz3the,3,response,2,5982.7,13648.4,13657.8,5982.7,13648.4,13657.8,1,5982.7,7675.1,0,NA,Rating Scale,Rating Scale,16,object-67,BIQ,NA,SUPPRF90660
14,1.70811E+12,16/02/2024 18:38,1.70811E+12,0,16/02/2024 18:38,166635,2,task-gjqt,NA,35236342,10410189,NA,complete,NA,65cfaa77aa458aef6c66cf21,computer,Desktop or Laptop,Windows 10,Chrome 121.0.0.0,1536x864,1536x695,NA,NA,0,BIQ (Charlotte),3,FGEHDICJBA,Passed AC2,,Spreadsheet1,NA,,,,NA,5,END,NA,NA,NA,NA,NA,NA,0,NA,NA,NA,NA,,,NA,,,NA,SUPPRF90660
1,1.70811E+12,16/02/2024 18:52,1.70811E+12,0,16/02/2024 18:52,166635,2,task-gjqt,NA,35236714,10410271,NA,complete,NA,65cfadaf101939b09af728d0,computer,Desktop or Laptop,Windows 10,Chrome 121.0.0.0,1536x864,1536x738,NA,NA,0,BIQ (Charlotte),3,HIGJFAEBDC,Passed AC2,,Spreadsheet1,NA,,,,NA,5,BEGIN,NA,NA,NA,NA,NA,NA,0,NA,NA,NA,NA,,,NA,,,NA,SUPPRF21106
2,1.70811E+12,16/02/2024 18:52,1.70811E+12,0,16/02/2024 18:52,166635,2,task-gjqt,NA,35236714,10410271,NA,complete,NA,65cfadaf101939b09af728d0,computer,Desktop or Laptop,Windows 10,Chrome 121.0.0.0,1536x864,1536x738,NA,NA,0,BIQ (Charlotte),3,HIGJFAEBDC,Passed AC2,,Spreadsheet1,1,BIQ,Screen 1,9dh6eq,1,continue,,28503.1,28497.9,28503.1,28503.1,28497.9,28503.1,1,28503.1,0,0,NA,Click To Continue,Continue Button,23,object-48,BIQ,NA,SUPPRF21106
3,1.70811E+12,16/02/2024 18:52,1.70811E+12,0,16/02/2024 18:52,166635,2,task-gjqt,NA,35236714,10410271,NA,complete,NA,65cfadaf101939b09af728d0,computer,Desktop or Laptop,Windows 10,Chrome 121.0.0.0,1536x864,1536x738,NA,NA,0,BIQ (Charlotte),3,HIGJFAEBDC,Passed AC2,,Spreadsheet1,1,BIQ,Screen 1,9dh6eq,1,response,6,13498,28497.9,28509.7,13498,28497.9,28509.7,1,13498,15011.7,0,NA,Rating Scale,Rating Scale,3,object-5,BIQ,NA,SUPPRF21106
4,1.70811E+12,16/02/2024 18:52,1.70811E+12,0,16/02/2024 18:52,166635,2,task-gjqt,NA,35236714,10410271,NA,complete,NA,65cfadaf101939b09af728d0,computer,Desktop or Laptop,Windows 10,Chrome 121.0.0.0,1536x864,1536x738,NA,NA,0,BIQ (Charlotte),3,HIGJFAEBDC,Passed AC2,,Spreadsheet1,1,BIQ,Screen 1,9dh6eq,1,response,8,22341.1,28497.9,28510.7,22341.1,28497.9,28510.7,1,22341.1,6169.6,0,NA,Rating Scale,Rating Scale,10,object-18,BIQ,NA,SUPPRF21106
5,1.70811E+12,16/02/2024 18:52,1.70811E+12,0,16/02/2024 18:52,166635,2,task-gjqt,NA,35236714,10410271,NA,complete,NA,65cfadaf101939b09af728d0,computer,Desktop or Laptop,Windows 10,Chrome 121.0.0.0,1536x864,1536x738,NA,NA,0,BIQ (Charlotte),3,HIGJFAEBDC,Passed AC2,,Spreadsheet1,1,BIQ,Screen 1,9dh6eq,1,response,0,27596.9,28497.9,28511.5,27596.9,28497.9,28511.5,1,27596.9,914.6,0,NA,Rating Scale,Rating Scale,17,object-80,BIQ,NA,SUPPRF21106
6,1.70811E+12,16/02/2024 18:53,1.70811E+12,0,16/02/2024 18:53,166635,2,task-gjqt,NA,35236714,10410271,NA,complete,NA,65cfadaf101939b09af728d0,computer,Desktop or Laptop,Windows 10,Chrome 121.0.0.0,1536x864,1536x738,NA,NA,0,BIQ (Charlotte),3,HIGJFAEBDC,Passed AC2,,Spreadsheet1,1,BIQ,Screen 2,o21mwi,2,continue,,20743.8,20739.4,20743.8,20743.8,20739.4,20743.8,1,20743.8,0,0,NA,Click To Continue,Continue Button,22,object-50,BIQ,NA,SUPPRF21106
7,1.70811E+12,16/02/2024 18:53,1.70811E+12,0,16/02/2024 18:53,166635,2,task-gjqt,NA,35236714,10410271,NA,complete,NA,65cfadaf101939b09af728d0,computer,Desktop or Laptop,Windows 10,Chrome 121.0.0.0,1536x864,1536x738,NA,NA,0,BIQ (Charlotte),3,HIGJFAEBDC,Passed AC2,,Spreadsheet1,1,BIQ,Screen 2,o21mwi,2,response,8,5873.2,20739.4,20749.1,5873.2,20739.4,20749.1,1,5873.2,14875.9,0,NA,Rating Scale,Rating Scale,2,object-259,BIQ,NA,SUPPRF21106
8,1.70811E+12,16/02/2024 18:53,1.70811E+12,0,16/02/2024 18:53,166635,2,task-gjqt,NA,35236714,10410271,NA,complete,NA,65cfadaf101939b09af728d0,computer,Desktop or Laptop,Windows 10,Chrome 121.0.0.0,1536x864,1536x738,NA,NA,0,BIQ (Charlotte),3,HIGJFAEBDC,Passed AC2,,Spreadsheet1,1,BIQ,Screen 2,o21mwi,2,response,7,9777.6,20739.4,20750.3,9777.6,20739.4,20750.3,1,9777.6,10972.7,0,NA,Rating Scale,Rating Scale,9,object-36,BIQ,NA,SUPPRF21106
9,1.70811E+12,16/02/2024 18:53,1.70811E+12,0,16/02/2024 18:53,166635,2,task-gjqt,NA,35236714,10410271,NA,complete,NA,65cfadaf101939b09af728d0,computer,Desktop or Laptop,Windows 10,Chrome 121.0.0.0,1536x864,1536x738,NA,NA,0,BIQ (Charlotte),3,HIGJFAEBDC,Passed AC2,,Spreadsheet1,1,BIQ,Screen 2,o21mwi,2,response,0,15600.5,20739.4,20751.5,15600.5,20739.4,20751.5,1,15600.5,5151,0,NA,Rating Scale,Rating Scale,16,object-86,BIQ,NA,SUPPRF21106
10,1.70811E+12,16/02/2024 18:53,1.70811E+12,0,16/02/2024 18:53,166635,2,task-gjqt,NA,35236714,10410271,NA,complete,NA,65cfadaf101939b09af728d0,computer,Desktop or Laptop,Windows 10,Chrome 121.0.0.0,1536x864,1536x738,NA,NA,0,BIQ (Charlotte),3,HIGJFAEBDC,Passed AC2,,Spreadsheet1,1,BIQ,Screen 3,iz3the,3,continue,,11810,11796.5,11810,11810,11796.5,11810,1,11810,0,0,NA,Click To Continue,Continue Button,22,object-73,BIQ,NA,SUPPRF21106
11,1.70811E+12,16/02/2024 18:53,1.70811E+12,0,16/02/2024 18:53,166635,2,task-gjqt,NA,35236714,10410271,NA,complete,NA,65cfadaf101939b09af728d0,computer,Desktop or Laptop,Windows 10,Chrome 121.0.0.0,1536x864,1536x738,NA,NA,0,BIQ (Charlotte),3,HIGJFAEBDC,Passed AC2,,Spreadsheet1,1,BIQ,Screen 3,iz3the,3,response,0,3770.9,11796.5,11813.2,3770.9,11796.5,11813.2,1,3770.9,8042.3,0,NA,Rating Scale,Rating Scale,2,object-53,BIQ,NA,SUPPRF21106
12,1.70811E+12,16/02/2024 18:53,1.70811E+12,0,16/02/2024 18:53,166635,2,task-gjqt,NA,35236714,10410271,NA,complete,NA,65cfadaf101939b09af728d0,computer,Desktop or Laptop,Windows 10,Chrome 121.0.0.0,1536x864,1536x738,NA,NA,0,BIQ (Charlotte),3,HIGJFAEBDC,Passed AC2,,Spreadsheet1,1,BIQ,Screen 3,iz3the,3,response,0,6206.9,11796.5,11813.2,6206.9,11796.5,11813.2,1,6206.9,5606.3,0,NA,Rating Scale,Rating Scale,9,object-60,BIQ,NA,SUPPRF21106
13,1.70811E+12,16/02/2024 18:53,1.70811E+12,0,16/02/2024 18:53,166635,2,task-gjqt,NA,35236714,10410271,NA,complete,NA,65cfadaf101939b09af728d0,computer,Desktop or Laptop,Windows 10,Chrome 121.0.0.0,1536x864,1536x738,NA,NA,0,BIQ (Charlotte),3,HIGJFAEBDC,Passed AC2,,Spreadsheet1,1,BIQ,Screen 3,iz3the,3,response,3,10495,11796.5,11813.2,10495,11796.5,11813.2,1,10495,1318.2,0,NA,Rating Scale,Rating Scale,16,object-67,BIQ,NA,SUPPRF21106
14,1.70811E+12,16/02/2024 18:53,1.70811E+12,0,16/02/2024 18:53,166635,2,task-gjqt,NA,35236714,10410271,NA,complete,NA,65cfadaf101939b09af728d0,computer,Desktop or Laptop,Windows 10,Chrome 121.0.0.0,1536x864,1536x738,NA,NA,0,BIQ (Charlotte),3,HIGJFAEBDC,Passed AC2,,Spreadsheet1,NA,,,,NA,5,END,NA,NA,NA,NA,NA,NA,0,NA,NA,NA,NA,,,NA,,,NA,SUPPRF21106
1,1.70811E+12,16/02/2024 19:06,1.70811E+12,0,16/02/2024 19:06,166635,2,task-gjqt,NA,35237019,10410299,NA,complete,NA,65cfaf013bcd2ef77a27bccc,computer,Desktop or Laptop,Mac OS 10.15.7,Chrome 121.0.0.0,1512x982,1090x713,NA,NA,0,BIQ (Charlotte),3,IJHAGBFCED,Passed AC2,,Spreadsheet1,NA,,,,NA,5,BEGIN,NA,NA,NA,NA,NA,NA,0,NA,NA,NA,NA,,,NA,,,NA,SUPPRF80091
2,1.70811E+12,16/02/2024 19:07,1.70811E+12,0,16/02/2024 19:07,166635,2,task-gjqt,NA,35237019,10410299,NA,complete,NA,65cfaf013bcd2ef77a27bccc,computer,Desktop or Laptop,Mac OS 10.15.7,Chrome 121.0.0.0,1512x982,1090x713,NA,NA,0,BIQ (Charlotte),3,IJHAGBFCED,Passed AC2,,Spreadsheet1,1,BIQ,Screen 1,9dh6eq,1,continue,,31716.6,31708.2,31716.6,31716.6,31708.2,31716.6,1,31716.6,0,0,NA,Click To Continue,Continue Button,23,object-48,BIQ,NA,SUPPRF80091
3,1.70811E+12,16/02/2024 19:07,1.70811E+12,0,16/02/2024 19:07,166635,2,task-gjqt,NA,35237019,10410299,NA,complete,NA,65cfaf013bcd2ef77a27bccc,computer,Desktop or Laptop,Mac OS 10.15.7,Chrome 121.0.0.0,1512x982,1090x713,NA,NA,0,BIQ (Charlotte),3,IJHAGBFCED,Passed AC2,,Spreadsheet1,1,BIQ,Screen 1,9dh6eq,1,response,6,10279.1,31708.2,31716.6,10279.1,31708.2,31716.6,1,10279.1,21437.5,0,NA,Rating Scale,Rating Scale,3,object-5,BIQ,NA,SUPPRF80091
4,1.70811E+12,16/02/2024 19:07,1.70811E+12,0,16/02/2024 19:07,166635,2,task-gjqt,NA,35237019,10410299,NA,complete,NA,65cfaf013bcd2ef77a27bccc,computer,Desktop or Laptop,Mac OS 10.15.7,Chrome 121.0.0.0,1512x982,1090x713,NA,NA,0,BIQ (Charlotte),3,IJHAGBFCED,Passed AC2,,Spreadsheet1,1,BIQ,Screen 1,9dh6eq,1,response,8,24224.8,31708.2,31716.6,24224.8,31708.2,31716.6,1,24224.8,7491.8,0,NA,Rating Scale,Rating Scale,10,object-18,BIQ,NA,SUPPRF80091
5,1.70811E+12,16/02/2024 19:07,1.70811E+12,0,16/02/2024 19:07,166635,2,task-gjqt,NA,35237019,10410299,NA,complete,NA,65cfaf013bcd2ef77a27bccc,computer,Desktop or Laptop,Mac OS 10.15.7,Chrome 121.0.0.0,1512x982,1090x713,NA,NA,0,BIQ (Charlotte),3,IJHAGBFCED,Passed AC2,,Spreadsheet1,1,BIQ,Screen 1,9dh6eq,1,response,1,29669.9,31708.2,31716.6,29669.9,31708.2,31716.6,1,29669.9,2046.7,0,NA,Rating Scale,Rating Scale,17,object-80,BIQ,NA,SUPPRF80091
6,1.70811E+12,16/02/2024 19:07,1.70811E+12,0,16/02/2024 19:07,166635,2,task-gjqt,NA,35237019,10410299,NA,complete,NA,65cfaf013bcd2ef77a27bccc,computer,Desktop or Laptop,Mac OS 10.15.7,Chrome 121.0.0.0,1512x982,1090x713,NA,NA,0,BIQ (Charlotte),3,IJHAGBFCED,Passed AC2,,Spreadsheet1,1,BIQ,Screen 2,o21mwi,2,continue,,20216.4,20212.5,20216.4,20216.4,20212.5,20216.4,1,20216.4,0,0,NA,Click To Continue,Continue Button,22,object-50,BIQ,NA,SUPPRF80091
7,1.70811E+12,16/02/2024 19:07,1.70811E+12,0,16/02/2024 19:07,166635,2,task-gjqt,NA,35237019,10410299,NA,complete,NA,65cfaf013bcd2ef77a27bccc,computer,Desktop or Laptop,Mac OS 10.15.7,Chrome 121.0.0.0,1512x982,1090x713,NA,NA,0,BIQ (Charlotte),3,IJHAGBFCED,Passed AC2,,Spreadsheet1,1,BIQ,Screen 2,o21mwi,2,response,8,10058.2,20212.5,20219.4,10058.2,20212.5,20219.4,1,10058.2,10161.2,0,NA,Rating Scale,Rating Scale,2,object-259,BIQ,NA,SUPPRF80091
8,1.70811E+12,16/02/2024 19:07,1.70811E+12,0,16/02/2024 19:07,166635,2,task-gjqt,NA,35237019,10410299,NA,complete,NA,65cfaf013bcd2ef77a27bccc,computer,Desktop or Laptop,Mac OS 10.15.7,Chrome 121.0.0.0,1512x982,1090x713,NA,NA,0,BIQ (Charlotte),3,IJHAGBFCED,Passed AC2,,Spreadsheet1,1,BIQ,Screen 2,o21mwi,2,response,0,13220.6,20212.5,20219.9,13220.6,20212.5,20219.9,1,13220.6,6999.3,0,NA,Rating Scale,Rating Scale,9,object-36,BIQ,NA,SUPPRF80091
9,1.70811E+12,16/02/2024 19:07,1.70811E+12,0,16/02/2024 19:07,166635,2,task-gjqt,NA,35237019,10410299,NA,complete,NA,65cfaf013bcd2ef77a27bccc,computer,Desktop or Laptop,Mac OS 10.15.7,Chrome 121.0.0.0,1512x982,1090x713,NA,NA,0,BIQ (Charlotte),3,IJHAGBFCED,Passed AC2,,Spreadsheet1,1,BIQ,Screen 2,o21mwi,2,response,0,19187.4,20212.5,20220.3,19187.4,20212.5,20220.3,1,19187.4,1032.9,0,NA,Rating Scale,Rating Scale,16,object-86,BIQ,NA,SUPPRF80091
10,1.70811E+12,16/02/2024 19:07,1.70811E+12,0,16/02/2024 19:07,166635,2,task-gjqt,NA,35237019,10410299,NA,complete,NA,65cfaf013bcd2ef77a27bccc,computer,Desktop or Laptop,Mac OS 10.15.7,Chrome 121.0.0.0,1512x982,1090x713,NA,NA,0,BIQ (Charlotte),3,IJHAGBFCED,Passed AC2,,Spreadsheet1,1,BIQ,Screen 3,iz3the,3,continue,,16187.3,16183.2,16187.3,16187.3,16183.2,16187.3,1,16187.3,0,0,NA,Click To Continue,Continue Button,22,object-73,BIQ,NA,SUPPRF80091
11,1.70811E+12,16/02/2024 19:07,1.70811E+12,0,16/02/2024 19:07,166635,2,task-gjqt,NA,35237019,10410299,NA,complete,NA,65cfaf013bcd2ef77a27bccc,computer,Desktop or Laptop,Mac OS 10.15.7,Chrome 121.0.0.0,1512x982,1090x713,NA,NA,0,BIQ (Charlotte),3,IJHAGBFCED,Passed AC2,,Spreadsheet1,1,BIQ,Screen 3,iz3the,3,response,0,4395.2,16183.2,16191,4395.2,16183.2,16191,1,4395.2,11795.8,0,NA,Rating Scale,Rating Scale,2,object-53,BIQ,NA,SUPPRF80091
12,1.70811E+12,16/02/2024 19:07,1.70811E+12,0,16/02/2024 19:07,166635,2,task-gjqt,NA,35237019,10410299,NA,complete,NA,65cfaf013bcd2ef77a27bccc,computer,Desktop or Laptop,Mac OS 10.15.7,Chrome 121.0.0.0,1512x982,1090x713,NA,NA,0,BIQ (Charlotte),3,IJHAGBFCED,Passed AC2,,Spreadsheet1,1,BIQ,Screen 3,iz3the,3,response,0,6949.9,16183.2,16191.4,6949.9,16183.2,16191.4,1,6949.9,9241.5,0,NA,Rating Scale,Rating Scale,9,object-60,BIQ,NA,SUPPRF80091
13,1.70811E+12,16/02/2024 19:07,1.70811E+12,0,16/02/2024 19:07,166635,2,task-gjqt,NA,35237019,10410299,NA,complete,NA,65cfaf013bcd2ef77a27bccc,computer,Desktop or Laptop,Mac OS 10.15.7,Chrome 121.0.0.0,1512x982,1090x713,NA,NA,0,BIQ (Charlotte),3,IJHAGBFCED,Passed AC2,,Spreadsheet1,1,BIQ,Screen 3,iz3the,3,response,0,11699.6,16183.2,16191.7,11699.6,16183.2,16191.7,1,11699.6,4492.1,0,NA,Rating Scale,Rating Scale,16,object-67,BIQ,NA,SUPPRF80091
14,1.70811E+12,16/02/2024 19:07,1.70811E+12,0,16/02/2024 19:07,166635,2,task-gjqt,NA,35237019,10410299,NA,complete,NA,65cfaf013bcd2ef77a27bccc,computer,Desktop or Laptop,Mac OS 10.15.7,Chrome 121.0.0.0,1512x982,1090x713,NA,NA,0,BIQ (Charlotte),3,IJHAGBFCED,Passed AC2,,Spreadsheet1,NA,,,,NA,5,END,NA,NA,NA,NA,NA,NA,0,NA,NA,NA,NA,,,NA,,,NA,SUPPRF80091
1,1.70811E+12,16/02/2024 19:19,1.70809E+12,-6,16/02/2024 07:19,166635,2,task-gjqt,NA,35237261,10410377,NA,complete,NA,65cfb1f4bb345b2197aee9aa,computer,Desktop or Laptop,Mac OS 10.15.7,Chrome 114.0.0.0,1440x900,1440x789,NA,NA,0,BIQ (Charlotte),3,ABJCIDHEGF,Passed AC2,,Spreadsheet1,NA,,,,NA,5,BEGIN,NA,NA,NA,NA,NA,NA,0,NA,NA,NA,NA,,,NA,,,NA,SUPPRF07437
2,1.70811E+12,16/02/2024 19:20,1.70809E+12,-6,16/02/2024 07:20,166635,2,task-gjqt,NA,35237261,10410377,NA,complete,NA,65cfb1f4bb345b2197aee9aa,computer,Desktop or Laptop,Mac OS 10.15.7,Chrome 114.0.0.0,1440x900,1440x789,NA,NA,0,BIQ (Charlotte),3,ABJCIDHEGF,Passed AC2,,Spreadsheet1,1,BIQ,Screen 1,9dh6eq,1,continue,,55766.637,55752.489,55766.637,55766.637,55752.489,55766.637,1,55766.637,0,0,NA,Click To Continue,Continue Button,23,object-48,BIQ,NA,SUPPRF07437
3,1.70811E+12,16/02/2024 19:20,1.70809E+12,-6,16/02/2024 07:20,166635,2,task-gjqt,NA,35237261,10410377,NA,complete,NA,65cfb1f4bb345b2197aee9aa,computer,Desktop or Laptop,Mac OS 10.15.7,Chrome 114.0.0.0,1440x900,1440x789,NA,NA,0,BIQ (Charlotte),3,ABJCIDHEGF,Passed AC2,,Spreadsheet1,1,BIQ,Screen 1,9dh6eq,1,response,2,28568.609,55752.489,55769.155,28568.609,55752.489,55769.155,1,28568.609,27200.546,0,NA,Rating Scale,Rating Scale,3,object-5,BIQ,NA,SUPPRF07437
4,1.70811E+12,16/02/2024 19:20,1.70809E+12,-6,16/02/2024 07:20,166635,2,task-gjqt,NA,35237261,10410377,NA,complete,NA,65cfb1f4bb345b2197aee9aa,computer,Desktop or Laptop,Mac OS 10.15.7,Chrome 114.0.0.0,1440x900,1440x789,NA,NA,0,BIQ (Charlotte),3,ABJCIDHEGF,Passed AC2,,Spreadsheet1,1,BIQ,Screen 1,9dh6eq,1,response,6,43918.773,55752.489,55769.155,43918.773,55752.489,55769.155,1,43918.773,11850.382,0,NA,Rating Scale,Rating Scale,10,object-18,BIQ,NA,SUPPRF07437
5,1.70811E+12,16/02/2024 19:20,1.70809E+12,-6,16/02/2024 07:20,166635,2,task-gjqt,NA,35237261,10410377,NA,complete,NA,65cfb1f4bb345b2197aee9aa,computer,Desktop or Laptop,Mac OS 10.15.7,Chrome 114.0.0.0,1440x900,1440x789,NA,NA,0,BIQ (Charlotte),3,ABJCIDHEGF,Passed AC2,,Spreadsheet1,1,BIQ,Screen 1,9dh6eq,1,response,2,53385.917,55752.489,55769.155,53385.917,55752.489,55769.155,1,53385.917,2383.238,0,NA,Rating Scale,Rating Scale,17,object-80,BIQ,NA,SUPPRF07437
6,1.70811E+12,16/02/2024 19:20,1.70809E+12,-6,16/02/2024 07:20,166635,2,task-gjqt,NA,35237261,10410377,NA,complete,NA,65cfb1f4bb345b2197aee9aa,computer,Desktop or Laptop,Mac OS 10.15.7,Chrome 114.0.0.0,1440x900,1440x789,NA,NA,0,BIQ (Charlotte),3,ABJCIDHEGF,Passed AC2,,Spreadsheet1,1,BIQ,Screen 2,o21mwi,2,continue,,30359.748,30351.733,30359.748,30359.748,30351.733,30359.748,1,30359.748,0,0,NA,Click To Continue,Continue Button,22,object-50,BIQ,NA,SUPPRF07437
7,1.70811E+12,16/02/2024 19:20,1.70809E+12,-6,16/02/2024 07:20,166635,2,task-gjqt,NA,35237261,10410377,NA,complete,NA,65cfb1f4bb345b2197aee9aa,computer,Desktop or Laptop,Mac OS 10.15.7,Chrome 114.0.0.0,1440x900,1440x789,NA,NA,0,BIQ (Charlotte),3,ABJCIDHEGF,Passed AC2,,Spreadsheet1,1,BIQ,Screen 2,o21mwi,2,response,7,8884.163,30351.733,30363.048,8884.163,30351.733,30363.048,1,8884.163,21478.885,0,NA,Rating Scale,Rating Scale,2,object-259,BIQ,NA,SUPPRF07437
8,1.70811E+12,16/02/2024 19:20,1.70809E+12,-6,16/02/2024 07:20,166635,2,task-gjqt,NA,35237261,10410377,NA,complete,NA,65cfb1f4bb345b2197aee9aa,computer,Desktop or Laptop,Mac OS 10.15.7,Chrome 114.0.0.0,1440x900,1440x789,NA,NA,0,BIQ (Charlotte),3,ABJCIDHEGF,Passed AC2,,Spreadsheet1,1,BIQ,Screen 2,o21mwi,2,response,6,14433.941,30351.733,30363.448,14433.941,30351.733,30363.448,1,14433.941,15929.507,0,NA,Rating Scale,Rating Scale,9,object-36,BIQ,NA,SUPPRF07437
9,1.70811E+12,16/02/2024 19:20,1.70809E+12,-6,16/02/2024 07:20,166635,2,task-gjqt,NA,35237261,10410377,NA,complete,NA,65cfb1f4bb345b2197aee9aa,computer,Desktop or Laptop,Mac OS 10.15.7,Chrome 114.0.0.0,1440x900,1440x789,NA,NA,0,BIQ (Charlotte),3,ABJCIDHEGF,Passed AC2,,Spreadsheet1,1,BIQ,Screen 2,o21mwi,2,response,4,29968.415,30351.733,30364.048,29968.415,30351.733,30364.048,1,29968.415,395.6330004,0,NA,Rating Scale,Rating Scale,16,object-86,BIQ,NA,SUPPRF07437
10,1.70811E+12,16/02/2024 19:21,1.70809E+12,-6,16/02/2024 07:21,166635,2,task-gjqt,NA,35237261,10410377,NA,complete,NA,65cfb1f4bb345b2197aee9aa,computer,Desktop or Laptop,Mac OS 10.15.7,Chrome 114.0.0.0,1440x900,1440x789,NA,NA,0,BIQ (Charlotte),3,ABJCIDHEGF,Passed AC2,,Spreadsheet1,1,BIQ,Screen 3,iz3the,3,continue,,22208.915,22199.922,22208.915,22208.915,22199.922,22208.915,1,22208.915,0,0,NA,Click To Continue,Continue Button,22,object-73,BIQ,NA,SUPPRF07437
11,1.70811E+12,16/02/2024 19:21,1.70809E+12,-6,16/02/2024 07:21,166635,2,task-gjqt,NA,35237261,10410377,NA,complete,NA,65cfb1f4bb345b2197aee9aa,computer,Desktop or Laptop,Mac OS 10.15.7,Chrome 114.0.0.0,1440x900,1440x789,NA,NA,0,BIQ (Charlotte),3,ABJCIDHEGF,Passed AC2,,Spreadsheet1,1,BIQ,Screen 3,iz3the,3,response,2,8582.99,22199.922,22213.415,8582.99,22199.922,22213.415,1,8582.99,13630.425,0,NA,Rating Scale,Rating Scale,2,object-53,BIQ,NA,SUPPRF07437
12,1.70811E+12,16/02/2024 19:21,1.70809E+12,-6,16/02/2024 07:21,166635,2,task-gjqt,NA,35237261,10410377,NA,complete,NA,65cfb1f4bb345b2197aee9aa,computer,Desktop or Laptop,Mac OS 10.15.7,Chrome 114.0.0.0,1440x900,1440x789,NA,NA,0,BIQ (Charlotte),3,ABJCIDHEGF,Passed AC2,,Spreadsheet1,1,BIQ,Screen 3,iz3the,3,response,3,13916.92,22199.922,22213.915,13916.92,22199.922,22213.915,1,13916.92,8296.995,0,NA,Rating Scale,Rating Scale,9,object-60,BIQ,NA,SUPPRF07437
13,1.70811E+12,16/02/2024 19:21,1.70809E+12,-6,16/02/2024 07:21,166635,2,task-gjqt,NA,35237261,10410377,NA,complete,NA,65cfb1f4bb345b2197aee9aa,computer,Desktop or Laptop,Mac OS 10.15.7,Chrome 114.0.0.0,1440x900,1440x789,NA,NA,0,BIQ (Charlotte),3,ABJCIDHEGF,Passed AC2,,Spreadsheet1,1,BIQ,Screen 3,iz3the,3,response,5,21283.292,22199.922,22214.315,21283.292,22199.922,22214.315,1,21283.292,931.0230004,0,NA,Rating Scale,Rating Scale,16,object-67,BIQ,NA,SUPPRF07437
14,1.70811E+12,16/02/2024 19:21,1.70809E+12,-6,16/02/2024 07:21,166635,2,task-gjqt,NA,35237261,10410377,NA,complete,NA,65cfb1f4bb345b2197aee9aa,computer,Desktop or Laptop,Mac OS 10.15.7,Chrome 114.0.0.0,1440x900,1440x789,NA,NA,0,BIQ (Charlotte),3,ABJCIDHEGF,Passed AC2,,Spreadsheet1,NA,,,,NA,5,END,NA,NA,NA,NA,NA,NA,0,NA,NA,NA,NA,,,NA,,,NA,SUPPRF07437
1,1.70811E+12,16/02/2024 19:24,1.70811E+12,0,16/02/2024 19:24,166635,2,task-gjqt,NA,35237364,10410439,NA,complete,NA,65cfb4595ff43f82e95cb6b5,computer,Desktop or Laptop,Windows 10,Chrome 121.0.0.0,1280x720,1280x632,NA,NA,0,BIQ (Charlotte),3,CDBEAFJGIH,Passed AC2,,Spreadsheet1,NA,,,,NA,5,BEGIN,NA,NA,NA,NA,NA,NA,0,NA,NA,NA,NA,,,NA,,,NA,SUPPRF78069
2,1.70811E+12,16/02/2024 19:24,1.70811E+12,0,16/02/2024 19:24,166635,2,task-gjqt,NA,35237364,10410439,NA,complete,NA,65cfb4595ff43f82e95cb6b5,computer,Desktop or Laptop,Windows 10,Chrome 121.0.0.0,1280x720,1280x632,NA,NA,0,BIQ (Charlotte),3,CDBEAFJGIH,Passed AC2,,Spreadsheet1,1,BIQ,Screen 1,9dh6eq,1,continue,,37323.482,37306.582,37323.482,37323.482,37306.582,37323.482,1,37323.482,0,0,NA,Click To Continue,Continue Button,23,object-48,BIQ,NA,SUPPRF78069
3,1.70811E+12,16/02/2024 19:24,1.70811E+12,0,16/02/2024 19:24,166635,2,task-gjqt,NA,35237364,10410439,NA,complete,NA,65cfb4595ff43f82e95cb6b5,computer,Desktop or Laptop,Windows 10,Chrome 121.0.0.0,1280x720,1280x632,NA,NA,0,BIQ (Charlotte),3,CDBEAFJGIH,Passed AC2,,Spreadsheet1,1,BIQ,Screen 1,9dh6eq,1,response,2,16378.382,37306.582,37323.482,16378.382,37306.582,37323.482,1,16378.382,20945.1,0,NA,Rating Scale,Rating Scale,3,object-5,BIQ,NA,SUPPRF78069
4,1.70811E+12,16/02/2024 19:24,1.70811E+12,0,16/02/2024 19:24,166635,2,task-gjqt,NA,35237364,10410439,NA,complete,NA,65cfb4595ff43f82e95cb6b5,computer,Desktop or Laptop,Windows 10,Chrome 121.0.0.0,1280x720,1280x632,NA,NA,0,BIQ (Charlotte),3,CDBEAFJGIH,Passed AC2,,Spreadsheet1,1,BIQ,Screen 1,9dh6eq,1,response,8,24076.382,37306.582,37323.482,24076.382,37306.582,37323.482,1,24076.382,13247.1,0,NA,Rating Scale,Rating Scale,10,object-18,BIQ,NA,SUPPRF78069
5,1.70811E+12,16/02/2024 19:24,1.70811E+12,0,16/02/2024 19:24,166635,2,task-gjqt,NA,35237364,10410439,NA,complete,NA,65cfb4595ff43f82e95cb6b5,computer,Desktop or Laptop,Windows 10,Chrome 121.0.0.0,1280x720,1280x632,NA,NA,0,BIQ (Charlotte),3,CDBEAFJGIH,Passed AC2,,Spreadsheet1,1,BIQ,Screen 1,9dh6eq,1,response,0,36556.382,37306.582,37323.482,36556.382,37306.582,37323.482,1,36556.382,767.1,0,NA,Rating Scale,Rating Scale,17,object-80,BIQ,NA,SUPPRF78069
6,1.70811E+12,16/02/2024 19:25,1.70811E+12,0,16/02/2024 19:25,166635,2,task-gjqt,NA,35237364,10410439,NA,complete,NA,65cfb4595ff43f82e95cb6b5,computer,Desktop or Laptop,Windows 10,Chrome 121.0.0.0,1280x720,1280x632,NA,NA,0,BIQ (Charlotte),3,CDBEAFJGIH,Passed AC2,,Spreadsheet1,1,BIQ,Screen 2,o21mwi,2,continue,,11898.2,11896.7,11898.2,11898.2,11896.7,11898.2,1,11898.2,0,0,NA,Click To Continue,Continue Button,22,object-50,BIQ,NA,SUPPRF78069
7,1.70811E+12,16/02/2024 19:25,1.70811E+12,0,16/02/2024 19:25,166635,2,task-gjqt,NA,35237364,10410439,NA,complete,NA,65cfb4595ff43f82e95cb6b5,computer,Desktop or Laptop,Windows 10,Chrome 121.0.0.0,1280x720,1280x632,NA,NA,0,BIQ (Charlotte),3,CDBEAFJGIH,Passed AC2,,Spreadsheet1,1,BIQ,Screen 2,o21mwi,2,response,8,3448.7,11896.7,11901.6,3448.7,11896.7,11901.6,1,3448.7,8452.9,0,NA,Rating Scale,Rating Scale,2,object-259,BIQ,NA,SUPPRF78069
8,1.70811E+12,16/02/2024 19:25,1.70811E+12,0,16/02/2024 19:25,166635,2,task-gjqt,NA,35237364,10410439,NA,complete,NA,65cfb4595ff43f82e95cb6b5,computer,Desktop or Laptop,Windows 10,Chrome 121.0.0.0,1280x720,1280x632,NA,NA,0,BIQ (Charlotte),3,CDBEAFJGIH,Passed AC2,,Spreadsheet1,1,BIQ,Screen 2,o21mwi,2,response,0,5681.4,11896.7,11902.3,5681.4,11896.7,11902.3,1,5681.4,6220.9,0,NA,Rating Scale,Rating Scale,9,object-36,BIQ,NA,SUPPRF78069
9,1.70811E+12,16/02/2024 19:25,1.70811E+12,0,16/02/2024 19:25,166635,2,task-gjqt,NA,35237364,10410439,NA,complete,NA,65cfb4595ff43f82e95cb6b5,computer,Desktop or Laptop,Windows 10,Chrome 121.0.0.0,1280x720,1280x632,NA,NA,0,BIQ (Charlotte),3,CDBEAFJGIH,Passed AC2,,Spreadsheet1,1,BIQ,Screen 2,o21mwi,2,response,0,11080.4,11896.7,11903.1,11080.4,11896.7,11903.1,1,11080.4,822.7,0,NA,Rating Scale,Rating Scale,16,object-86,BIQ,NA,SUPPRF78069
10,1.70811E+12,16/02/2024 19:25,1.70811E+12,0,16/02/2024 19:25,166635,2,task-gjqt,NA,35237364,10410439,NA,complete,NA,65cfb4595ff43f82e95cb6b5,computer,Desktop or Laptop,Windows 10,Chrome 121.0.0.0,1280x720,1280x632,NA,NA,0,BIQ (Charlotte),3,CDBEAFJGIH,Passed AC2,,Spreadsheet1,1,BIQ,Screen 3,iz3the,3,continue,,6569.8,6565.7,6569.8,6569.8,6565.7,6569.8,1,6569.8,0,0,NA,Click To Continue,Continue Button,22,object-73,BIQ,NA,SUPPRF78069
11,1.70811E+12,16/02/2024 19:25,1.70811E+12,0,16/02/2024 19:25,166635,2,task-gjqt,NA,35237364,10410439,NA,complete,NA,65cfb4595ff43f82e95cb6b5,computer,Desktop or Laptop,Windows 10,Chrome 121.0.0.0,1280x720,1280x632,NA,NA,0,BIQ (Charlotte),3,CDBEAFJGIH,Passed AC2,,Spreadsheet1,1,BIQ,Screen 3,iz3the,3,response,0,3398.8,6565.7,6571.7,3398.8,6565.7,6571.7,1,3398.8,3172.9,0,NA,Rating Scale,Rating Scale,2,object-53,BIQ,NA,SUPPRF78069
12,1.70811E+12,16/02/2024 19:25,1.70811E+12,0,16/02/2024 19:25,166635,2,task-gjqt,NA,35237364,10410439,NA,complete,NA,65cfb4595ff43f82e95cb6b5,computer,Desktop or Laptop,Windows 10,Chrome 121.0.0.0,1280x720,1280x632,NA,NA,0,BIQ (Charlotte),3,CDBEAFJGIH,Passed AC2,,Spreadsheet1,1,BIQ,Screen 3,iz3the,3,response,0,4581.8,6565.7,6572.9,4581.8,6565.7,6572.9,1,4581.8,1991.1,0,NA,Rating Scale,Rating Scale,9,object-60,BIQ,NA,SUPPRF78069
13,1.70811E+12,16/02/2024 19:25,1.70811E+12,0,16/02/2024 19:25,166635,2,task-gjqt,NA,35237364,10410439,NA,complete,NA,65cfb4595ff43f82e95cb6b5,computer,Desktop or Laptop,Windows 10,Chrome 121.0.0.0,1280x720,1280x632,NA,NA,0,BIQ (Charlotte),3,CDBEAFJGIH,Passed AC2,,Spreadsheet1,1,BIQ,Screen 3,iz3the,3,response,0,5464.9,6565.7,6573.4,5464.9,6565.7,6573.4,1,5464.9,1108.5,0,NA,Rating Scale,Rating Scale,16,object-67,BIQ,NA,SUPPRF78069
14,1.70811E+12,16/02/2024 19:25,1.70811E+12,0,16/02/2024 19:25,166635,2,task-gjqt,NA,35237364,10410439,NA,complete,NA,65cfb4595ff43f82e95cb6b5,computer,Desktop or Laptop,Windows 10,Chrome 121.0.0.0,1280x720,1280x632,NA,NA,0,BIQ (Charlotte),3,CDBEAFJGIH,Passed AC2,,Spreadsheet1,NA,,,,NA,5,END,NA,NA,NA,NA,NA,NA,0,NA,NA,NA,NA,,,NA,,,NA,SUPPRF78069
1,1.70811E+12,16/02/2024 19:26,1.70812E+12,1,16/02/2024 21:26,166635,2,task-gjqt,NA,35237400,10410440,NA,complete,NA,65cfb45ed03608ff7096d8f5,computer,Desktop or Laptop,Linux x86_64,Chrome 120.0.0.0,412x846,1113x1939,NA,NA,0,BIQ (Charlotte),3,DECFBGAHJI,Passed AC2,,Spreadsheet1,NA,,,,NA,5,BEGIN,NA,NA,NA,NA,NA,NA,0,NA,NA,NA,NA,,,NA,,,NA,SUPPRF04615
2,1.70811E+12,16/02/2024 19:27,1.70812E+12,1,16/02/2024 21:27,166635,2,task-gjqt,NA,35237400,10410440,NA,complete,NA,65cfb45ed03608ff7096d8f5,computer,Desktop or Laptop,Linux x86_64,Chrome 120.0.0.0,412x846,1113x1939,NA,NA,0,BIQ (Charlotte),3,DECFBGAHJI,Passed AC2,,Spreadsheet1,1,BIQ,Screen 1,9dh6eq,1,continue,,91996.694,91980.035,91996.694,91996.694,91980.035,91996.694,1,91996.694,0,0,NA,Click To Continue,Continue Button,23,object-48,BIQ,NA,SUPPRF04615
3,1.70811E+12,16/02/2024 19:27,1.70812E+12,1,16/02/2024 21:27,166635,2,task-gjqt,NA,35237400,10410440,NA,complete,NA,65cfb45ed03608ff7096d8f5,computer,Desktop or Laptop,Linux x86_64,Chrome 120.0.0.0,412x846,1113x1939,NA,NA,0,BIQ (Charlotte),3,DECFBGAHJI,Passed AC2,,Spreadsheet1,1,BIQ,Screen 1,9dh6eq,1,response,7,26790.272,91980.035,91996.694,26790.272,91980.035,91996.694,1,26790.272,65206.422,0,NA,Rating Scale,Rating Scale,3,object-5,BIQ,NA,SUPPRF04615
4,1.70811E+12,16/02/2024 19:27,1.70812E+12,1,16/02/2024 21:27,166635,2,task-gjqt,NA,35237400,10410440,NA,complete,NA,65cfb45ed03608ff7096d8f5,computer,Desktop or Laptop,Linux x86_64,Chrome 120.0.0.0,412x846,1113x1939,NA,NA,0,BIQ (Charlotte),3,DECFBGAHJI,Passed AC2,,Spreadsheet1,1,BIQ,Screen 1,9dh6eq,1,response,4,36048.405,91980.035,91996.694,36048.405,91980.035,91996.694,1,36048.405,55948.289,0,NA,Rating Scale,Rating Scale,10,object-18,BIQ,NA,SUPPRF04615
5,1.70811E+12,16/02/2024 19:27,1.70812E+12,1,16/02/2024 21:27,166635,2,task-gjqt,NA,35237400,10410440,NA,complete,NA,65cfb45ed03608ff7096d8f5,computer,Desktop or Laptop,Linux x86_64,Chrome 120.0.0.0,412x846,1113x1939,NA,NA,0,BIQ (Charlotte),3,DECFBGAHJI,Passed AC2,,Spreadsheet1,1,BIQ,Screen 1,9dh6eq,1,response,2,45004.884,91980.035,91996.694,45004.884,91980.035,91996.694,1,45004.884,46991.81,0,NA,Rating Scale,Rating Scale,17,object-80,BIQ,NA,SUPPRF04615
6,1.70811E+12,16/02/2024 19:28,1.70812E+12,1,16/02/2024 21:28,166635,2,task-gjqt,NA,35237400,10410440,NA,complete,NA,65cfb45ed03608ff7096d8f5,computer,Desktop or Laptop,Linux x86_64,Chrome 120.0.0.0,412x846,1113x1939,NA,NA,0,BIQ (Charlotte),3,DECFBGAHJI,Passed AC2,,Spreadsheet1,1,BIQ,Screen 2,o21mwi,2,continue,,51680.704,51669.556,51680.704,51680.704,51669.556,51680.704,1,51680.704,0,0,NA,Click To Continue,Continue Button,22,object-50,BIQ,NA,SUPPRF04615
7,1.70811E+12,16/02/2024 19:28,1.70812E+12,1,16/02/2024 21:28,166635,2,task-gjqt,NA,35237400,10410440,NA,complete,NA,65cfb45ed03608ff7096d8f5,computer,Desktop or Laptop,Linux x86_64,Chrome 120.0.0.0,412x846,1113x1939,NA,NA,0,BIQ (Charlotte),3,DECFBGAHJI,Passed AC2,,Spreadsheet1,1,BIQ,Screen 2,o21mwi,2,response,5,7726.761,51669.556,51686.197,7726.761,51669.556,51686.197,1,7726.761,43959.436,0,NA,Rating Scale,Rating Scale,2,object-259,BIQ,NA,SUPPRF04615
8,1.70811E+12,16/02/2024 19:28,1.70812E+12,1,16/02/2024 21:28,166635,2,task-gjqt,NA,35237400,10410440,NA,complete,NA,65cfb45ed03608ff7096d8f5,computer,Desktop or Laptop,Linux x86_64,Chrome 120.0.0.0,412x846,1113x1939,NA,NA,0,BIQ (Charlotte),3,DECFBGAHJI,Passed AC2,,Spreadsheet1,1,BIQ,Screen 2,o21mwi,2,response,4,41929.053,51669.556,51686.197,41929.053,51669.556,51686.197,1,41929.053,9757.144,0,NA,Rating Scale,Rating Scale,9,object-36,BIQ,NA,SUPPRF04615
9,1.70811E+12,16/02/2024 19:28,1.70812E+12,1,16/02/2024 21:28,166635,2,task-gjqt,NA,35237400,10410440,NA,complete,NA,65cfb45ed03608ff7096d8f5,computer,Desktop or Laptop,Linux x86_64,Chrome 120.0.0.0,412x846,1113x1939,NA,NA,0,BIQ (Charlotte),3,DECFBGAHJI,Passed AC2,,Spreadsheet1,1,BIQ,Screen 2,o21mwi,2,response,5,51016.443,51669.556,51686.197,51016.443,51669.556,51686.197,1,51016.443,669.754,0,NA,Rating Scale,Rating Scale,16,object-86,BIQ,NA,SUPPRF04615
10,1.70811E+12,16/02/2024 19:28,1.70812E+12,1,16/02/2024 21:28,166635,2,task-gjqt,NA,35237400,10410440,NA,complete,NA,65cfb45ed03608ff7096d8f5,computer,Desktop or Laptop,Linux x86_64,Chrome 120.0.0.0,412x846,1113x1939,NA,NA,0,BIQ (Charlotte),3,DECFBGAHJI,Passed AC2,,Spreadsheet1,1,BIQ,Screen 3,iz3the,3,continue,,18249.413,18232.749,18249.413,18249.413,18232.749,18249.413,1,18249.413,0,0,NA,Click To Continue,Continue Button,22,object-73,BIQ,NA,SUPPRF04615
11,1.70811E+12,16/02/2024 19:28,1.70812E+12,1,16/02/2024 21:28,166635,2,task-gjqt,NA,35237400,10410440,NA,complete,NA,65cfb45ed03608ff7096d8f5,computer,Desktop or Laptop,Linux x86_64,Chrome 120.0.0.0,412x846,1113x1939,NA,NA,0,BIQ (Charlotte),3,DECFBGAHJI,Passed AC2,,Spreadsheet1,1,BIQ,Screen 3,iz3the,3,response,4,5045.371,18232.749,18249.413,5045.371,18232.749,18249.413,1,5045.371,13204.042,0,NA,Rating Scale,Rating Scale,2,object-53,BIQ,NA,SUPPRF04615
12,1.70811E+12,16/02/2024 19:28,1.70812E+12,1,16/02/2024 21:28,166635,2,task-gjqt,NA,35237400,10410440,NA,complete,NA,65cfb45ed03608ff7096d8f5,computer,Desktop or Laptop,Linux x86_64,Chrome 120.0.0.0,412x846,1113x1939,NA,NA,0,BIQ (Charlotte),3,DECFBGAHJI,Passed AC2,,Spreadsheet1,1,BIQ,Screen 3,iz3the,3,response,6,12537.825,18232.749,18249.413,12537.825,18232.749,18249.413,1,12537.825,5711.588,0,NA,Rating Scale,Rating Scale,9,object-60,BIQ,NA,SUPPRF04615
13,1.70811E+12,16/02/2024 19:28,1.70812E+12,1,16/02/2024 21:28,166635,2,task-gjqt,NA,35237400,10410440,NA,complete,NA,65cfb45ed03608ff7096d8f5,computer,Desktop or Laptop,Linux x86_64,Chrome 120.0.0.0,412x846,1113x1939,NA,NA,0,BIQ (Charlotte),3,DECFBGAHJI,Passed AC2,,Spreadsheet1,1,BIQ,Screen 3,iz3the,3,response,5,17436.811,18232.749,18249.413,17436.811,18232.749,18249.413,1,17436.811,812.602,0,NA,Rating Scale,Rating Scale,16,object-67,BIQ,NA,SUPPRF04615
14,1.70811E+12,16/02/2024 19:28,1.70812E+12,1,16/02/2024 21:28,166635,2,task-gjqt,NA,35237400,10410440,NA,complete,NA,65cfb45ed03608ff7096d8f5,computer,Desktop or Laptop,Linux x86_64,Chrome 120.0.0.0,412x846,1113x1939,NA,NA,0,BIQ (Charlotte),3,DECFBGAHJI,Passed AC2,,Spreadsheet1,NA,,,,NA,5,END,NA,NA,NA,NA,NA,NA,0,NA,NA,NA,NA,,,NA,,,NA,SUPPRF04615
1,1.70811E+12,16/02/2024 19:25,1.70811E+12,0,16/02/2024 19:25,166635,2,task-gjqt,NA,35237382,10410473,NA,complete,NA,65cfb5f8f1264ee93bd8ff8d,computer,Desktop or Laptop,Mac OS 10.15.7,Chrome 108.0.0.0,1440x900,1440x821,NA,NA,0,BIQ (Charlotte),3,EFDGCHBIAJ,Passed AC2,,Spreadsheet1,NA,,,,NA,5,BEGIN,NA,NA,NA,NA,NA,NA,0,NA,NA,NA,NA,,,NA,,,NA,SUPPRF24224
2,1.70811E+12,16/02/2024 19:25,1.70811E+12,0,16/02/2024 19:25,166635,2,task-gjqt,NA,35237382,10410473,NA,complete,NA,65cfb5f8f1264ee93bd8ff8d,computer,Desktop or Laptop,Mac OS 10.15.7,Chrome 108.0.0.0,1440x900,1440x821,NA,NA,0,BIQ (Charlotte),3,EFDGCHBIAJ,Passed AC2,,Spreadsheet1,1,BIQ,Screen 1,9dh6eq,1,continue,,32720.801,32704.09,32720.801,32720.801,32704.09,32720.801,1,32720.801,0,0,NA,Click To Continue,Continue Button,23,object-48,BIQ,NA,SUPPRF24224
3,1.70811E+12,16/02/2024 19:25,1.70811E+12,0,16/02/2024 19:25,166635,2,task-gjqt,NA,35237382,10410473,NA,complete,NA,65cfb5f8f1264ee93bd8ff8d,computer,Desktop or Laptop,Mac OS 10.15.7,Chrome 108.0.0.0,1440x900,1440x821,NA,NA,0,BIQ (Charlotte),3,EFDGCHBIAJ,Passed AC2,,Spreadsheet1,1,BIQ,Screen 1,9dh6eq,1,response,4,12032.12,32704.09,32720.801,12032.12,32704.09,32720.801,1,12032.12,20688.681,0,NA,Rating Scale,Rating Scale,3,object-5,BIQ,NA,SUPPRF24224
4,1.70811E+12,16/02/2024 19:25,1.70811E+12,0,16/02/2024 19:25,166635,2,task-gjqt,NA,35237382,10410473,NA,complete,NA,65cfb5f8f1264ee93bd8ff8d,computer,Desktop or Laptop,Mac OS 10.15.7,Chrome 108.0.0.0,1440x900,1440x821,NA,NA,0,BIQ (Charlotte),3,EFDGCHBIAJ,Passed AC2,,Spreadsheet1,1,BIQ,Screen 1,9dh6eq,1,response,6,19936.674,32704.09,32720.801,19936.674,32704.09,32720.801,1,19936.674,12784.127,0,NA,Rating Scale,Rating Scale,10,object-18,BIQ,NA,SUPPRF24224
5,1.70811E+12,16/02/2024 19:25,1.70811E+12,0,16/02/2024 19:25,166635,2,task-gjqt,NA,35237382,10410473,NA,complete,NA,65cfb5f8f1264ee93bd8ff8d,computer,Desktop or Laptop,Mac OS 10.15.7,Chrome 108.0.0.0,1440x900,1440x821,NA,NA,0,BIQ (Charlotte),3,EFDGCHBIAJ,Passed AC2,,Spreadsheet1,1,BIQ,Screen 1,9dh6eq,1,response,1,31467.476,32704.09,32720.801,31467.476,32704.09,32720.801,1,31467.476,1253.325,0,NA,Rating Scale,Rating Scale,17,object-80,BIQ,NA,SUPPRF24224
6,1.70811E+12,16/02/2024 19:26,1.70811E+12,0,16/02/2024 19:26,166635,2,task-gjqt,NA,35237382,10410473,NA,complete,NA,65cfb5f8f1264ee93bd8ff8d,computer,Desktop or Laptop,Mac OS 10.15.7,Chrome 108.0.0.0,1440x900,1440x821,NA,NA,0,BIQ (Charlotte),3,EFDGCHBIAJ,Passed AC2,,Spreadsheet1,1,BIQ,Screen 2,o21mwi,2,continue,,25200.579,25183.907,25200.579,25200.579,25183.907,25200.579,1,25200.579,0,0,NA,Click To Continue,Continue Button,22,object-50,BIQ,NA,SUPPRF24224
7,1.70811E+12,16/02/2024 19:26,1.70811E+12,0,16/02/2024 19:26,166635,2,task-gjqt,NA,35237382,10410473,NA,complete,NA,65cfb5f8f1264ee93bd8ff8d,computer,Desktop or Laptop,Mac OS 10.15.7,Chrome 108.0.0.0,1440x900,1440x821,NA,NA,0,BIQ (Charlotte),3,EFDGCHBIAJ,Passed AC2,,Spreadsheet1,1,BIQ,Screen 2,o21mwi,2,response,7,8171.859,25183.907,25200.618,8171.859,25183.907,25200.618,1,8171.859,17028.759,0,NA,Rating Scale,Rating Scale,2,object-259,BIQ,NA,SUPPRF24224
8,1.70811E+12,16/02/2024 19:26,1.70811E+12,0,16/02/2024 19:26,166635,2,task-gjqt,NA,35237382,10410473,NA,complete,NA,65cfb5f8f1264ee93bd8ff8d,computer,Desktop or Laptop,Mac OS 10.15.7,Chrome 108.0.0.0,1440x900,1440x821,NA,NA,0,BIQ (Charlotte),3,EFDGCHBIAJ,Passed AC2,,Spreadsheet1,1,BIQ,Screen 2,o21mwi,2,response,1,15023.369,25183.907,25200.618,15023.369,25183.907,25200.618,1,15023.369,10177.249,0,NA,Rating Scale,Rating Scale,9,object-36,BIQ,NA,SUPPRF24224
9,1.70811E+12,16/02/2024 19:26,1.70811E+12,0,16/02/2024 19:26,166635,2,task-gjqt,NA,35237382,10410473,NA,complete,NA,65cfb5f8f1264ee93bd8ff8d,computer,Desktop or Laptop,Mac OS 10.15.7,Chrome 108.0.0.0,1440x900,1440x821,NA,NA,0,BIQ (Charlotte),3,EFDGCHBIAJ,Passed AC2,,Spreadsheet1,1,BIQ,Screen 2,o21mwi,2,response,0,20822.336,25183.907,25200.618,20822.336,25183.907,25200.618,1,20822.336,4378.282,0,NA,Rating Scale,Rating Scale,16,object-86,BIQ,NA,SUPPRF24224
10,1.70811E+12,16/02/2024 19:26,1.70811E+12,0,16/02/2024 19:26,166635,2,task-gjqt,NA,35237382,10410473,NA,complete,NA,65cfb5f8f1264ee93bd8ff8d,computer,Desktop or Laptop,Mac OS 10.15.7,Chrome 108.0.0.0,1440x900,1440x821,NA,NA,0,BIQ (Charlotte),3,EFDGCHBIAJ,Passed AC2,,Spreadsheet1,1,BIQ,Screen 3,iz3the,3,continue,,22944.566,22927.855,22944.566,22944.566,22927.855,22944.566,1,22944.566,0,0,NA,Click To Continue,Continue Button,22,object-73,BIQ,NA,SUPPRF24224
11,1.70811E+12,16/02/2024 19:26,1.70811E+12,0,16/02/2024 19:26,166635,2,task-gjqt,NA,35237382,10410473,NA,complete,NA,65cfb5f8f1264ee93bd8ff8d,computer,Desktop or Laptop,Mac OS 10.15.7,Chrome 108.0.0.0,1440x900,1440x821,NA,NA,0,BIQ (Charlotte),3,EFDGCHBIAJ,Passed AC2,,Spreadsheet1,1,BIQ,Screen 3,iz3the,3,response,0,6183.25,22927.855,22944.566,6183.25,22927.855,22944.566,1,6183.25,16761.316,0,NA,Rating Scale,Rating Scale,2,object-53,BIQ,NA,SUPPRF24224
12,1.70811E+12,16/02/2024 19:26,1.70811E+12,0,16/02/2024 19:26,166635,2,task-gjqt,NA,35237382,10410473,NA,complete,NA,65cfb5f8f1264ee93bd8ff8d,computer,Desktop or Laptop,Mac OS 10.15.7,Chrome 108.0.0.0,1440x900,1440x821,NA,NA,0,BIQ (Charlotte),3,EFDGCHBIAJ,Passed AC2,,Spreadsheet1,1,BIQ,Screen 3,iz3the,3,response,2,13970.576,22927.855,22944.566,13970.576,22927.855,22944.566,1,13970.576,8973.99,0,NA,Rating Scale,Rating Scale,9,object-60,BIQ,NA,SUPPRF24224
13,1.70811E+12,16/02/2024 19:26,1.70811E+12,0,16/02/2024 19:26,166635,2,task-gjqt,NA,35237382,10410473,NA,complete,NA,65cfb5f8f1264ee93bd8ff8d,computer,Desktop or Laptop,Mac OS 10.15.7,Chrome 108.0.0.0,1440x900,1440x821,NA,NA,0,BIQ (Charlotte),3,EFDGCHBIAJ,Passed AC2,,Spreadsheet1,1,BIQ,Screen 3,iz3the,3,response,2,20655.159,22927.855,22944.566,20655.159,22927.855,22944.566,1,20655.159,2289.407,0,NA,Rating Scale,Rating Scale,16,object-67,BIQ,NA,SUPPRF24224
14,1.70811E+12,16/02/2024 19:26,1.70811E+12,0,16/02/2024 19:26,166635,2,task-gjqt,NA,35237382,10410473,NA,complete,NA,65cfb5f8f1264ee93bd8ff8d,computer,Desktop or Laptop,Mac OS 10.15.7,Chrome 108.0.0.0,1440x900,1440x821,NA,NA,0,BIQ (Charlotte),3,EFDGCHBIAJ,Passed AC2,,Spreadsheet1,NA,,,,NA,5,END,NA,NA,NA,NA,NA,NA,0,NA,NA,NA,NA,,,NA,,,NA,SUPPRF24224
1,1.70811E+12,16/02/2024 19:28,1.70811E+12,0,16/02/2024 19:28,166635,2,task-gjqt,NA,35237452,10410507,NA,complete,NA,65cfb71a6c39a6d844a84def,computer,Desktop or Laptop,Windows 10,Chrome 121.0.0.0,1536x864,1536x738,NA,NA,0,BIQ (Charlotte),3,FGEHDICJBA,Passed AC2,,Spreadsheet1,NA,,,,NA,5,BEGIN,NA,NA,NA,NA,NA,NA,0,NA,NA,NA,NA,,,NA,,,NA,SUPPRF68193
2,1.70811E+12,16/02/2024 19:28,1.70811E+12,0,16/02/2024 19:28,166635,2,task-gjqt,NA,35237452,10410507,NA,complete,NA,65cfb71a6c39a6d844a84def,computer,Desktop or Laptop,Windows 10,Chrome 121.0.0.0,1536x864,1536x738,NA,NA,0,BIQ (Charlotte),3,FGEHDICJBA,Passed AC2,,Spreadsheet1,1,BIQ,Screen 1,9dh6eq,1,continue,,23079.3,23072.4,23079.3,23079.3,23072.4,23079.3,1,23079.3,0,0,NA,Click To Continue,Continue Button,23,object-48,BIQ,NA,SUPPRF68193
3,1.70811E+12,16/02/2024 19:28,1.70811E+12,0,16/02/2024 19:28,166635,2,task-gjqt,NA,35237452,10410507,NA,complete,NA,65cfb71a6c39a6d844a84def,computer,Desktop or Laptop,Windows 10,Chrome 121.0.0.0,1536x864,1536x738,NA,NA,0,BIQ (Charlotte),3,FGEHDICJBA,Passed AC2,,Spreadsheet1,1,BIQ,Screen 1,9dh6eq,1,response,7,12961.4,23072.4,23079.3,12961.4,23072.4,23079.3,1,12961.4,10117.9,0,NA,Rating Scale,Rating Scale,3,object-5,BIQ,NA,SUPPRF68193
4,1.70811E+12,16/02/2024 19:28,1.70811E+12,0,16/02/2024 19:28,166635,2,task-gjqt,NA,35237452,10410507,NA,complete,NA,65cfb71a6c39a6d844a84def,computer,Desktop or Laptop,Windows 10,Chrome 121.0.0.0,1536x864,1536x738,NA,NA,0,BIQ (Charlotte),3,FGEHDICJBA,Passed AC2,,Spreadsheet1,1,BIQ,Screen 1,9dh6eq,1,response,6,19669.7,23072.4,23079.3,19669.7,23072.4,23079.3,1,19669.7,3409.6,0,NA,Rating Scale,Rating Scale,10,object-18,BIQ,NA,SUPPRF68193
5,1.70811E+12,16/02/2024 19:28,1.70811E+12,0,16/02/2024 19:28,166635,2,task-gjqt,NA,35237452,10410507,NA,complete,NA,65cfb71a6c39a6d844a84def,computer,Desktop or Laptop,Windows 10,Chrome 121.0.0.0,1536x864,1536x738,NA,NA,0,BIQ (Charlotte),3,FGEHDICJBA,Passed AC2,,Spreadsheet1,1,BIQ,Screen 1,9dh6eq,1,response,5,22572.5,23072.4,23079.3,22572.5,23072.4,23079.3,1,22572.5,506.8,0,NA,Rating Scale,Rating Scale,17,object-80,BIQ,NA,SUPPRF68193
6,1.70811E+12,16/02/2024 19:29,1.70811E+12,0,16/02/2024 19:29,166635,2,task-gjqt,NA,35237452,10410507,NA,complete,NA,65cfb71a6c39a6d844a84def,computer,Desktop or Laptop,Windows 10,Chrome 121.0.0.0,1536x864,1536x738,NA,NA,0,BIQ (Charlotte),3,FGEHDICJBA,Passed AC2,,Spreadsheet1,1,BIQ,Screen 2,o21mwi,2,continue,,16347.4,16340.8,16347.4,16347.4,16340.8,16347.4,1,16347.4,0,0,NA,Click To Continue,Continue Button,22,object-50,BIQ,NA,SUPPRF68193
7,1.70811E+12,16/02/2024 19:29,1.70811E+12,0,16/02/2024 19:29,166635,2,task-gjqt,NA,35237452,10410507,NA,complete,NA,65cfb71a6c39a6d844a84def,computer,Desktop or Laptop,Windows 10,Chrome 121.0.0.0,1536x864,1536x738,NA,NA,0,BIQ (Charlotte),3,FGEHDICJBA,Passed AC2,,Spreadsheet1,1,BIQ,Screen 2,o21mwi,2,response,8,4882.3,16340.8,16347.9,4882.3,16340.8,16347.9,1,4882.3,11465.6,0,NA,Rating Scale,Rating Scale,2,object-259,BIQ,NA,SUPPRF68193
8,1.70811E+12,16/02/2024 19:29,1.70811E+12,0,16/02/2024 19:29,166635,2,task-gjqt,NA,35237452,10410507,NA,complete,NA,65cfb71a6c39a6d844a84def,computer,Desktop or Laptop,Windows 10,Chrome 121.0.0.0,1536x864,1536x738,NA,NA,0,BIQ (Charlotte),3,FGEHDICJBA,Passed AC2,,Spreadsheet1,1,BIQ,Screen 2,o21mwi,2,response,2,10507,16340.8,16347.9,10507,16340.8,16347.9,1,10507,5840.9,0,NA,Rating Scale,Rating Scale,9,object-36,BIQ,NA,SUPPRF68193
9,1.70811E+12,16/02/2024 19:29,1.70811E+12,0,16/02/2024 19:29,166635,2,task-gjqt,NA,35237452,10410507,NA,complete,NA,65cfb71a6c39a6d844a84def,computer,Desktop or Laptop,Windows 10,Chrome 121.0.0.0,1536x864,1536x738,NA,NA,0,BIQ (Charlotte),3,FGEHDICJBA,Passed AC2,,Spreadsheet1,1,BIQ,Screen 2,o21mwi,2,response,2,15180.6,16340.8,16347.9,15180.6,16340.8,16347.9,1,15180.6,1167.3,0,NA,Rating Scale,Rating Scale,16,object-86,BIQ,NA,SUPPRF68193
10,1.70811E+12,16/02/2024 19:29,1.70811E+12,0,16/02/2024 19:29,166635,2,task-gjqt,NA,35237452,10410507,NA,complete,NA,65cfb71a6c39a6d844a84def,computer,Desktop or Laptop,Windows 10,Chrome 121.0.0.0,1536x864,1536x738,NA,NA,0,BIQ (Charlotte),3,FGEHDICJBA,Passed AC2,,Spreadsheet1,1,BIQ,Screen 3,iz3the,3,continue,,10477.1,10472.3,10477.1,10477.1,10472.3,10477.1,1,10477.1,0,0,NA,Click To Continue,Continue Button,22,object-73,BIQ,NA,SUPPRF68193
11,1.70811E+12,16/02/2024 19:29,1.70811E+12,0,16/02/2024 19:29,166635,2,task-gjqt,NA,35237452,10410507,NA,complete,NA,65cfb71a6c39a6d844a84def,computer,Desktop or Laptop,Windows 10,Chrome 121.0.0.0,1536x864,1536x738,NA,NA,0,BIQ (Charlotte),3,FGEHDICJBA,Passed AC2,,Spreadsheet1,1,BIQ,Screen 3,iz3the,3,response,0,3832.9,10472.3,10479.8,3832.9,10472.3,10479.8,1,3832.9,6646.9,0,NA,Rating Scale,Rating Scale,2,object-53,BIQ,NA,SUPPRF68193
12,1.70811E+12,16/02/2024 19:29,1.70811E+12,0,16/02/2024 19:29,166635,2,task-gjqt,NA,35237452,10410507,NA,complete,NA,65cfb71a6c39a6d844a84def,computer,Desktop or Laptop,Windows 10,Chrome 121.0.0.0,1536x864,1536x738,NA,NA,0,BIQ (Charlotte),3,FGEHDICJBA,Passed AC2,,Spreadsheet1,1,BIQ,Screen 3,iz3the,3,response,1,6763.6,10472.3,10479.8,6763.6,10472.3,10479.8,1,6763.6,3716.2,0,NA,Rating Scale,Rating Scale,9,object-60,BIQ,NA,SUPPRF68193
13,1.70811E+12,16/02/2024 19:29,1.70811E+12,0,16/02/2024 19:29,166635,2,task-gjqt,NA,35237452,10410507,NA,complete,NA,65cfb71a6c39a6d844a84def,computer,Desktop or Laptop,Windows 10,Chrome 121.0.0.0,1536x864,1536x738,NA,NA,0,BIQ (Charlotte),3,FGEHDICJBA,Passed AC2,,Spreadsheet1,1,BIQ,Screen 3,iz3the,3,response,5,8291.4,10472.3,10479.8,8291.4,10472.3,10479.8,1,8291.4,2188.4,0,NA,Rating Scale,Rating Scale,16,object-67,BIQ,NA,SUPPRF68193
14,1.70811E+12,16/02/2024 19:29,1.70811E+12,0,16/02/2024 19:29,166635,2,task-gjqt,NA,35237452,10410507,NA,complete,NA,65cfb71a6c39a6d844a84def,computer,Desktop or Laptop,Windows 10,Chrome 121.0.0.0,1536x864,1536x738,NA,NA,0,BIQ (Charlotte),3,FGEHDICJBA,Passed AC2,,Spreadsheet1,NA,,,,NA,5,END,NA,NA,NA,NA,NA,NA,0,NA,NA,NA,NA,,,NA,,,NA,SUPPRF68193
1,1.70811E+12,16/02/2024 19:36,1.70811E+12,0,16/02/2024 19:36,166635,2,task-gjqt,NA,35237631,10410522,NA,complete,NA,65cfb67cb613ac74bfe89d1a,computer,Desktop or Laptop,Windows 10,Chrome 121.0.0.0,1366x768,1366x607,NA,NA,0,BIQ (Charlotte),3,IJHAGBFCED,Passed AC2,,Spreadsheet1,NA,,,,NA,5,BEGIN,NA,NA,NA,NA,NA,NA,0,NA,NA,NA,NA,,,NA,,,NA,SUPPRF54678
2,1.70811E+12,16/02/2024 19:37,1.70811E+12,0,16/02/2024 19:37,166635,2,task-gjqt,NA,35237631,10410522,NA,complete,NA,65cfb67cb613ac74bfe89d1a,computer,Desktop or Laptop,Windows 10,Chrome 121.0.0.0,1366x768,1366x607,NA,NA,0,BIQ (Charlotte),3,IJHAGBFCED,Passed AC2,,Spreadsheet1,1,BIQ,Screen 1,9dh6eq,1,continue,,49221.286,49208.986,49221.286,49221.286,49208.986,49221.286,1,49221.286,0,0,NA,Click To Continue,Continue Button,23,object-48,BIQ,NA,SUPPRF54678
3,1.70811E+12,16/02/2024 19:37,1.70811E+12,0,16/02/2024 19:37,166635,2,task-gjqt,NA,35237631,10410522,NA,complete,NA,65cfb67cb613ac74bfe89d1a,computer,Desktop or Laptop,Windows 10,Chrome 121.0.0.0,1366x768,1366x607,NA,NA,0,BIQ (Charlotte),3,IJHAGBFCED,Passed AC2,,Spreadsheet1,1,BIQ,Screen 1,9dh6eq,1,response,7,22913.586,49208.986,49225.386,22913.586,49208.986,49225.386,1,22913.586,26311.8,0,NA,Rating Scale,Rating Scale,3,object-5,BIQ,NA,SUPPRF54678
4,1.70811E+12,16/02/2024 19:37,1.70811E+12,0,16/02/2024 19:37,166635,2,task-gjqt,NA,35237631,10410522,NA,complete,NA,65cfb67cb613ac74bfe89d1a,computer,Desktop or Laptop,Windows 10,Chrome 121.0.0.0,1366x768,1366x607,NA,NA,0,BIQ (Charlotte),3,IJHAGBFCED,Passed AC2,,Spreadsheet1,1,BIQ,Screen 1,9dh6eq,1,response,6,30162.386,49208.986,49225.386,30162.386,49208.986,49225.386,1,30162.386,19063,0,NA,Rating Scale,Rating Scale,10,object-18,BIQ,NA,SUPPRF54678
5,1.70811E+12,16/02/2024 19:37,1.70811E+12,0,16/02/2024 19:37,166635,2,task-gjqt,NA,35237631,10410522,NA,complete,NA,65cfb67cb613ac74bfe89d1a,computer,Desktop or Laptop,Windows 10,Chrome 121.0.0.0,1366x768,1366x607,NA,NA,0,BIQ (Charlotte),3,IJHAGBFCED,Passed AC2,,Spreadsheet1,1,BIQ,Screen 1,9dh6eq,1,response,1,47442.886,49208.986,49225.386,47442.886,49208.986,49225.386,1,47442.886,1782.5,0,NA,Rating Scale,Rating Scale,17,object-80,BIQ,NA,SUPPRF54678
6,1.70811E+12,16/02/2024 19:37,1.70811E+12,0,16/02/2024 19:37,166635,2,task-gjqt,NA,35237631,10410522,NA,complete,NA,65cfb67cb613ac74bfe89d1a,computer,Desktop or Laptop,Windows 10,Chrome 121.0.0.0,1366x768,1366x607,NA,NA,0,BIQ (Charlotte),3,IJHAGBFCED,Passed AC2,,Spreadsheet1,1,BIQ,Screen 2,o21mwi,2,continue,,22254.8,22246.7,22254.8,22254.8,22246.7,22254.8,1,22254.8,0,0,NA,Click To Continue,Continue Button,22,object-50,BIQ,NA,SUPPRF54678
7,1.70811E+12,16/02/2024 19:37,1.70811E+12,0,16/02/2024 19:37,166635,2,task-gjqt,NA,35237631,10410522,NA,complete,NA,65cfb67cb613ac74bfe89d1a,computer,Desktop or Laptop,Windows 10,Chrome 121.0.0.0,1366x768,1366x607,NA,NA,0,BIQ (Charlotte),3,IJHAGBFCED,Passed AC2,,Spreadsheet1,1,BIQ,Screen 2,o21mwi,2,response,8,4032.8,22246.7,22261.2,4032.8,22246.7,22261.2,1,4032.8,18228.4,0,NA,Rating Scale,Rating Scale,2,object-259,BIQ,NA,SUPPRF54678
8,1.70811E+12,16/02/2024 19:37,1.70811E+12,0,16/02/2024 19:37,166635,2,task-gjqt,NA,35237631,10410522,NA,complete,NA,65cfb67cb613ac74bfe89d1a,computer,Desktop or Laptop,Windows 10,Chrome 121.0.0.0,1366x768,1366x607,NA,NA,0,BIQ (Charlotte),3,IJHAGBFCED,Passed AC2,,Spreadsheet1,1,BIQ,Screen 2,o21mwi,2,response,3,12448.3,22246.7,22262.6,12448.3,22246.7,22262.6,1,12448.3,9814.3,0,NA,Rating Scale,Rating Scale,9,object-36,BIQ,NA,SUPPRF54678
9,1.70811E+12,16/02/2024 19:37,1.70811E+12,0,16/02/2024 19:37,166635,2,task-gjqt,NA,35237631,10410522,NA,complete,NA,65cfb67cb613ac74bfe89d1a,computer,Desktop or Laptop,Windows 10,Chrome 121.0.0.0,1366x768,1366x607,NA,NA,0,BIQ (Charlotte),3,IJHAGBFCED,Passed AC2,,Spreadsheet1,1,BIQ,Screen 2,o21mwi,2,response,0,18430.9,22246.7,22263.1,18430.9,22246.7,22263.1,1,18430.9,3832.2,0,NA,Rating Scale,Rating Scale,16,object-86,BIQ,NA,SUPPRF54678
10,1.70811E+12,16/02/2024 19:37,1.70811E+12,0,16/02/2024 19:37,166635,2,task-gjqt,NA,35237631,10410522,NA,complete,NA,65cfb67cb613ac74bfe89d1a,computer,Desktop or Laptop,Windows 10,Chrome 121.0.0.0,1366x768,1366x607,NA,NA,0,BIQ (Charlotte),3,IJHAGBFCED,Passed AC2,,Spreadsheet1,1,BIQ,Screen 3,iz3the,3,continue,,17755.3,17747.2,17755.3,17755.3,17747.2,17755.3,1,17755.3,0,0,NA,Click To Continue,Continue Button,22,object-73,BIQ,NA,SUPPRF54678
11,1.70811E+12,16/02/2024 19:37,1.70811E+12,0,16/02/2024 19:37,166635,2,task-gjqt,NA,35237631,10410522,NA,complete,NA,65cfb67cb613ac74bfe89d1a,computer,Desktop or Laptop,Windows 10,Chrome 121.0.0.0,1366x768,1366x607,NA,NA,0,BIQ (Charlotte),3,IJHAGBFCED,Passed AC2,,Spreadsheet1,1,BIQ,Screen 3,iz3the,3,response,0,5799.3,17747.2,17761.7,5799.3,17747.2,17761.7,1,5799.3,11962.4,0,NA,Rating Scale,Rating Scale,2,object-53,BIQ,NA,SUPPRF54678
12,1.70811E+12,16/02/2024 19:37,1.70811E+12,0,16/02/2024 19:37,166635,2,task-gjqt,NA,35237631,10410522,NA,complete,NA,65cfb67cb613ac74bfe89d1a,computer,Desktop or Laptop,Windows 10,Chrome 121.0.0.0,1366x768,1366x607,NA,NA,0,BIQ (Charlotte),3,IJHAGBFCED,Passed AC2,,Spreadsheet1,1,BIQ,Screen 3,iz3the,3,response,0,10065.2,17747.2,17763.9,10065.2,17747.2,17763.9,1,10065.2,7698.7,0,NA,Rating Scale,Rating Scale,9,object-60,BIQ,NA,SUPPRF54678
13,1.70811E+12,16/02/2024 19:37,1.70811E+12,0,16/02/2024 19:37,166635,2,task-gjqt,NA,35237631,10410522,NA,complete,NA,65cfb67cb613ac74bfe89d1a,computer,Desktop or Laptop,Windows 10,Chrome 121.0.0.0,1366x768,1366x607,NA,NA,0,BIQ (Charlotte),3,IJHAGBFCED,Passed AC2,,Spreadsheet1,1,BIQ,Screen 3,iz3the,3,response,2,15180.8,17747.2,17763.9,15180.8,17747.2,17763.9,1,15180.8,2583.1,0,NA,Rating Scale,Rating Scale,16,object-67,BIQ,NA,SUPPRF54678
14,1.70811E+12,16/02/2024 19:37,1.70811E+12,0,16/02/2024 19:37,166635,2,task-gjqt,NA,35237631,10410522,NA,complete,NA,65cfb67cb613ac74bfe89d1a,computer,Desktop or Laptop,Windows 10,Chrome 121.0.0.0,1366x768,1366x607,NA,NA,0,BIQ (Charlotte),3,IJHAGBFCED,Passed AC2,,Spreadsheet1,NA,,,,NA,5,END,NA,NA,NA,NA,NA,NA,0,NA,NA,NA,NA,,,NA,,,NA,SUPPRF54678
1,1.70811E+12,16/02/2024 19:45,1.70811E+12,0,16/02/2024 19:45,166635,2,task-gjqt,NA,35237922,10410544,NA,complete,NA,65cfb775739cdfcf63af397d,computer,Desktop or Laptop,Mac OS 10.16.0,Chrome 69.0.3497.100,1280x800,1200x590,NA,NA,0,BIQ (Charlotte),3,JAIBHCGDFE,Passed AC2,,Spreadsheet1,NA,,,,NA,5,BEGIN,NA,NA,NA,NA,NA,NA,0,NA,NA,NA,NA,,,NA,,,NA,SUPPRF68806
2,1.70811E+12,16/02/2024 19:46,1.70811E+12,0,16/02/2024 19:46,166635,2,task-gjqt,NA,35237922,10410544,NA,complete,NA,65cfb775739cdfcf63af397d,computer,Desktop or Laptop,Mac OS 10.16.0,Chrome 69.0.3497.100,1280x800,1200x590,NA,NA,0,BIQ (Charlotte),3,JAIBHCGDFE,Passed AC2,,Spreadsheet1,1,BIQ,Screen 1,9dh6eq,1,continue,,48182.705,48172.689,48182.705,48182.705,48172.689,48182.705,1,48182.705,0,0,NA,Click To Continue,Continue Button,23,object-48,BIQ,NA,SUPPRF68806
3,1.70811E+12,16/02/2024 19:46,1.70811E+12,0,16/02/2024 19:46,166635,2,task-gjqt,NA,35237922,10410544,NA,complete,NA,65cfb775739cdfcf63af397d,computer,Desktop or Laptop,Mac OS 10.16.0,Chrome 69.0.3497.100,1280x800,1200x590,NA,NA,0,BIQ (Charlotte),3,JAIBHCGDFE,Passed AC2,,Spreadsheet1,1,BIQ,Screen 1,9dh6eq,1,response,6,25670.815,48172.689,48189.362,25670.815,48172.689,48189.362,1,25670.815,22518.547,0,NA,Rating Scale,Rating Scale,3,object-5,BIQ,NA,SUPPRF68806
4,1.70811E+12,16/02/2024 19:46,1.70811E+12,0,16/02/2024 19:46,166635,2,task-gjqt,NA,35237922,10410544,NA,complete,NA,65cfb775739cdfcf63af397d,computer,Desktop or Laptop,Mac OS 10.16.0,Chrome 69.0.3497.100,1280x800,1200x590,NA,NA,0,BIQ (Charlotte),3,JAIBHCGDFE,Passed AC2,,Spreadsheet1,1,BIQ,Screen 1,9dh6eq,1,response,6,31172.905,48172.689,48189.362,31172.905,48172.689,48189.362,1,31172.905,17016.457,0,NA,Rating Scale,Rating Scale,10,object-18,BIQ,NA,SUPPRF68806
5,1.70811E+12,16/02/2024 19:46,1.70811E+12,0,16/02/2024 19:46,166635,2,task-gjqt,NA,35237922,10410544,NA,complete,NA,65cfb775739cdfcf63af397d,computer,Desktop or Laptop,Mac OS 10.16.0,Chrome 69.0.3497.100,1280x800,1200x590,NA,NA,0,BIQ (Charlotte),3,JAIBHCGDFE,Passed AC2,,Spreadsheet1,1,BIQ,Screen 1,9dh6eq,1,response,2,36198.309,48172.689,48189.362,36198.309,48172.689,48189.362,1,36198.309,11991.053,0,NA,Rating Scale,Rating Scale,17,object-80,BIQ,NA,SUPPRF68806
6,1.70811E+12,16/02/2024 19:46,1.70811E+12,0,16/02/2024 19:46,166635,2,task-gjqt,NA,35237922,10410544,NA,complete,NA,65cfb775739cdfcf63af397d,computer,Desktop or Laptop,Mac OS 10.16.0,Chrome 69.0.3497.100,1280x800,1200x590,NA,NA,0,BIQ (Charlotte),3,JAIBHCGDFE,Passed AC2,,Spreadsheet1,1,BIQ,Screen 2,o21mwi,2,continue,,23874.116,23865.154,23874.116,23874.116,23865.154,23874.116,1,23874.116,0,0,NA,Click To Continue,Continue Button,22,object-50,BIQ,NA,SUPPRF68806
7,1.70811E+12,16/02/2024 19:46,1.70811E+12,0,16/02/2024 19:46,166635,2,task-gjqt,NA,35237922,10410544,NA,complete,NA,65cfb775739cdfcf63af397d,computer,Desktop or Laptop,Mac OS 10.16.0,Chrome 69.0.3497.100,1280x800,1200x590,NA,NA,0,BIQ (Charlotte),3,JAIBHCGDFE,Passed AC2,,Spreadsheet1,1,BIQ,Screen 2,o21mwi,2,response,7,7056.991,23865.154,23880.816,7056.991,23865.154,23880.816,1,7056.991,16823.825,0,NA,Rating Scale,Rating Scale,2,object-259,BIQ,NA,SUPPRF68806
8,1.70811E+12,16/02/2024 19:46,1.70811E+12,0,16/02/2024 19:46,166635,2,task-gjqt,NA,35237922,10410544,NA,complete,NA,65cfb775739cdfcf63af397d,computer,Desktop or Laptop,Mac OS 10.16.0,Chrome 69.0.3497.100,1280x800,1200x590,NA,NA,0,BIQ (Charlotte),3,JAIBHCGDFE,Passed AC2,,Spreadsheet1,1,BIQ,Screen 2,o21mwi,2,response,1,11125.203,23865.154,23881.216,11125.203,23865.154,23881.216,1,11125.203,12756.013,0,NA,Rating Scale,Rating Scale,9,object-36,BIQ,NA,SUPPRF68806
9,1.70811E+12,16/02/2024 19:46,1.70811E+12,0,16/02/2024 19:46,166635,2,task-gjqt,NA,35237922,10410544,NA,complete,NA,65cfb775739cdfcf63af397d,computer,Desktop or Laptop,Mac OS 10.16.0,Chrome 69.0.3497.100,1280x800,1200x590,NA,NA,0,BIQ (Charlotte),3,JAIBHCGDFE,Passed AC2,,Spreadsheet1,1,BIQ,Screen 2,o21mwi,2,response,0,21981.105,23865.154,23881.516,21981.105,23865.154,23881.516,1,21981.105,1900.411,0,NA,Rating Scale,Rating Scale,16,object-86,BIQ,NA,SUPPRF68806
10,1.70811E+12,16/02/2024 19:47,1.70811E+12,0,16/02/2024 19:47,166635,2,task-gjqt,NA,35237922,10410544,NA,complete,NA,65cfb775739cdfcf63af397d,computer,Desktop or Laptop,Mac OS 10.16.0,Chrome 69.0.3497.100,1280x800,1200x590,NA,NA,0,BIQ (Charlotte),3,JAIBHCGDFE,Passed AC2,,Spreadsheet1,1,BIQ,Screen 3,iz3the,3,continue,,15394.962,15382.268,15394.962,15394.962,15382.268,15394.962,1,15394.962,0,0,NA,Click To Continue,Continue Button,22,object-73,BIQ,NA,SUPPRF68806
11,1.70811E+12,16/02/2024 19:47,1.70811E+12,0,16/02/2024 19:47,166635,2,task-gjqt,NA,35237922,10410544,NA,complete,NA,65cfb775739cdfcf63af397d,computer,Desktop or Laptop,Mac OS 10.16.0,Chrome 69.0.3497.100,1280x800,1200x590,NA,NA,0,BIQ (Charlotte),3,JAIBHCGDFE,Passed AC2,,Spreadsheet1,1,BIQ,Screen 3,iz3the,3,response,0,5118.611,15382.268,15397.962,5118.611,15382.268,15397.962,1,5118.611,10279.351,0,NA,Rating Scale,Rating Scale,2,object-53,BIQ,NA,SUPPRF68806
12,1.70811E+12,16/02/2024 19:47,1.70811E+12,0,16/02/2024 19:47,166635,2,task-gjqt,NA,35237922,10410544,NA,complete,NA,65cfb775739cdfcf63af397d,computer,Desktop or Laptop,Mac OS 10.16.0,Chrome 69.0.3497.100,1280x800,1200x590,NA,NA,0,BIQ (Charlotte),3,JAIBHCGDFE,Passed AC2,,Spreadsheet1,1,BIQ,Screen 3,iz3the,3,response,1,8746.414,15382.268,15398.562,8746.414,15382.268,15398.562,1,8746.414,6652.148,0,NA,Rating Scale,Rating Scale,9,object-60,BIQ,NA,SUPPRF68806
13,1.70811E+12,16/02/2024 19:47,1.70811E+12,0,16/02/2024 19:47,166635,2,task-gjqt,NA,35237922,10410544,NA,complete,NA,65cfb775739cdfcf63af397d,computer,Desktop or Laptop,Mac OS 10.16.0,Chrome 69.0.3497.100,1280x800,1200x590,NA,NA,0,BIQ (Charlotte),3,JAIBHCGDFE,Passed AC2,,Spreadsheet1,1,BIQ,Screen 3,iz3the,3,response,1,13298.143,15382.268,15398.862,13298.143,15382.268,15398.862,1,13298.143,2100.719,0,NA,Rating Scale,Rating Scale,16,object-67,BIQ,NA,SUPPRF68806
14,1.70811E+12,16/02/2024 19:47,1.70811E+12,0,16/02/2024 19:47,166635,2,task-gjqt,NA,35237922,10410544,NA,complete,NA,65cfb775739cdfcf63af397d,computer,Desktop or Laptop,Mac OS 10.16.0,Chrome 69.0.3497.100,1280x800,1200x590,NA,NA,0,BIQ (Charlotte),3,JAIBHCGDFE,Passed AC2,,Spreadsheet1,NA,,,,NA,5,END,NA,NA,NA,NA,NA,NA,0,NA,NA,NA,NA,,,NA,,,NA,SUPPRF68806
1,1.70811E+12,16/02/2024 19:54,1.7081E+12,-5,16/02/2024 09:54,166635,2,task-gjqt,NA,35238234,10410648,NA,complete,NA,65cfbb453bcd2ef77a27c04d,computer,Desktop or Laptop,Mac OS 10.15.7,Chrome 121.0.0.0,1440x900,1440x789,NA,NA,0,BIQ (Charlotte),3,ABJCIDHEGF,Passed AC2,,Spreadsheet1,NA,,,,NA,5,BEGIN,NA,NA,NA,NA,NA,NA,0,NA,NA,NA,NA,,,NA,,,NA,SUPPRF52996
2,1.70811E+12,16/02/2024 19:54,1.7081E+12,-5,16/02/2024 09:54,166635,2,task-gjqt,NA,35238234,10410648,NA,complete,NA,65cfbb453bcd2ef77a27c04d,computer,Desktop or Laptop,Mac OS 10.15.7,Chrome 121.0.0.0,1440x900,1440x789,NA,NA,0,BIQ (Charlotte),3,ABJCIDHEGF,Passed AC2,,Spreadsheet1,1,BIQ,Screen 1,9dh6eq,1,continue,,27358.3,27350.5,27358.3,27358.3,27350.5,27358.3,1,27358.3,0,0,NA,Click To Continue,Continue Button,23,object-48,BIQ,NA,SUPPRF52996
3,1.70811E+12,16/02/2024 19:54,1.7081E+12,-5,16/02/2024 09:54,166635,2,task-gjqt,NA,35238234,10410648,NA,complete,NA,65cfbb453bcd2ef77a27c04d,computer,Desktop or Laptop,Mac OS 10.15.7,Chrome 121.0.0.0,1440x900,1440x789,NA,NA,0,BIQ (Charlotte),3,ABJCIDHEGF,Passed AC2,,Spreadsheet1,1,BIQ,Screen 1,9dh6eq,1,response,7,10417.3,27350.5,27360.4,10417.3,27350.5,27360.4,1,10417.3,16943.1,0,NA,Rating Scale,Rating Scale,3,object-5,BIQ,NA,SUPPRF52996
4,1.70811E+12,16/02/2024 19:54,1.7081E+12,-5,16/02/2024 09:54,166635,2,task-gjqt,NA,35238234,10410648,NA,complete,NA,65cfbb453bcd2ef77a27c04d,computer,Desktop or Laptop,Mac OS 10.15.7,Chrome 121.0.0.0,1440x900,1440x789,NA,NA,0,BIQ (Charlotte),3,ABJCIDHEGF,Passed AC2,,Spreadsheet1,1,BIQ,Screen 1,9dh6eq,1,response,6,14550.2,27350.5,27360.6,14550.2,27350.5,27360.6,1,14550.2,12810.4,0,NA,Rating Scale,Rating Scale,10,object-18,BIQ,NA,SUPPRF52996
5,1.70811E+12,16/02/2024 19:54,1.7081E+12,-5,16/02/2024 09:54,166635,2,task-gjqt,NA,35238234,10410648,NA,complete,NA,65cfbb453bcd2ef77a27c04d,computer,Desktop or Laptop,Mac OS 10.15.7,Chrome 121.0.0.0,1440x900,1440x789,NA,NA,0,BIQ (Charlotte),3,ABJCIDHEGF,Passed AC2,,Spreadsheet1,1,BIQ,Screen 1,9dh6eq,1,response,1,20700.8,27350.5,27360.9,20700.8,27350.5,27360.9,1,20700.8,6660.1,0,NA,Rating Scale,Rating Scale,17,object-80,BIQ,NA,SUPPRF52996
6,1.70811E+12,16/02/2024 19:54,1.7081E+12,-5,16/02/2024 09:54,166635,2,task-gjqt,NA,35238234,10410648,NA,complete,NA,65cfbb453bcd2ef77a27c04d,computer,Desktop or Laptop,Mac OS 10.15.7,Chrome 121.0.0.0,1440x900,1440x789,NA,NA,0,BIQ (Charlotte),3,ABJCIDHEGF,Passed AC2,,Spreadsheet1,1,BIQ,Screen 2,o21mwi,2,continue,,10848.2,10832.4,10848.2,10848.2,10832.4,10848.2,1,10848.2,0,0,NA,Click To Continue,Continue Button,22,object-50,BIQ,NA,SUPPRF52996
7,1.70811E+12,16/02/2024 19:54,1.7081E+12,-5,16/02/2024 09:54,166635,2,task-gjqt,NA,35238234,10410648,NA,complete,NA,65cfbb453bcd2ef77a27c04d,computer,Desktop or Laptop,Mac OS 10.15.7,Chrome 121.0.0.0,1440x900,1440x789,NA,NA,0,BIQ (Charlotte),3,ABJCIDHEGF,Passed AC2,,Spreadsheet1,1,BIQ,Screen 2,o21mwi,2,response,8,3649.1,10832.4,10848.2,3649.1,10832.4,10848.2,1,3649.1,7199.1,0,NA,Rating Scale,Rating Scale,2,object-259,BIQ,NA,SUPPRF52996
8,1.70811E+12,16/02/2024 19:54,1.7081E+12,-5,16/02/2024 09:54,166635,2,task-gjqt,NA,35238234,10410648,NA,complete,NA,65cfbb453bcd2ef77a27c04d,computer,Desktop or Laptop,Mac OS 10.15.7,Chrome 121.0.0.0,1440x900,1440x789,NA,NA,0,BIQ (Charlotte),3,ABJCIDHEGF,Passed AC2,,Spreadsheet1,1,BIQ,Screen 2,o21mwi,2,response,1,7149.2,10832.4,10848.2,7149.2,10832.4,10848.2,1,7149.2,3699,0,NA,Rating Scale,Rating Scale,9,object-36,BIQ,NA,SUPPRF52996
9,1.70811E+12,16/02/2024 19:54,1.7081E+12,-5,16/02/2024 09:54,166635,2,task-gjqt,NA,35238234,10410648,NA,complete,NA,65cfbb453bcd2ef77a27c04d,computer,Desktop or Laptop,Mac OS 10.15.7,Chrome 121.0.0.0,1440x900,1440x789,NA,NA,0,BIQ (Charlotte),3,ABJCIDHEGF,Passed AC2,,Spreadsheet1,1,BIQ,Screen 2,o21mwi,2,response,1,9966.2,10832.4,10848.2,9966.2,10832.4,10848.2,1,9966.2,882,0,NA,Rating Scale,Rating Scale,16,object-86,BIQ,NA,SUPPRF52996
10,1.70811E+12,16/02/2024 19:55,1.7081E+12,-5,16/02/2024 09:55,166635,2,task-gjqt,NA,35238234,10410648,NA,complete,NA,65cfbb453bcd2ef77a27c04d,computer,Desktop or Laptop,Mac OS 10.15.7,Chrome 121.0.0.0,1440x900,1440x789,NA,NA,0,BIQ (Charlotte),3,ABJCIDHEGF,Passed AC2,,Spreadsheet1,1,BIQ,Screen 3,iz3the,3,continue,,10478.6,10466.9,10478.6,10478.6,10466.9,10478.6,1,10478.6,0,0,NA,Click To Continue,Continue Button,22,object-73,BIQ,NA,SUPPRF52996
11,1.70811E+12,16/02/2024 19:55,1.7081E+12,-5,16/02/2024 09:55,166635,2,task-gjqt,NA,35238234,10410648,NA,complete,NA,65cfbb453bcd2ef77a27c04d,computer,Desktop or Laptop,Mac OS 10.15.7,Chrome 121.0.0.0,1440x900,1440x789,NA,NA,0,BIQ (Charlotte),3,ABJCIDHEGF,Passed AC2,,Spreadsheet1,1,BIQ,Screen 3,iz3the,3,response,0,3883.2,10466.9,10481.7,3883.2,10466.9,10481.7,1,3883.2,6598.5,0,NA,Rating Scale,Rating Scale,2,object-53,BIQ,NA,SUPPRF52996
12,1.70811E+12,16/02/2024 19:55,1.7081E+12,-5,16/02/2024 09:55,166635,2,task-gjqt,NA,35238234,10410648,NA,complete,NA,65cfbb453bcd2ef77a27c04d,computer,Desktop or Laptop,Mac OS 10.15.7,Chrome 121.0.0.0,1440x900,1440x789,NA,NA,0,BIQ (Charlotte),3,ABJCIDHEGF,Passed AC2,,Spreadsheet1,1,BIQ,Screen 3,iz3the,3,response,1,7116.7,10466.9,10482.1,7116.7,10466.9,10482.1,1,7116.7,3365.4,0,NA,Rating Scale,Rating Scale,9,object-60,BIQ,NA,SUPPRF52996
13,1.70811E+12,16/02/2024 19:55,1.7081E+12,-5,16/02/2024 09:55,166635,2,task-gjqt,NA,35238234,10410648,NA,complete,NA,65cfbb453bcd2ef77a27c04d,computer,Desktop or Laptop,Mac OS 10.15.7,Chrome 121.0.0.0,1440x900,1440x789,NA,NA,0,BIQ (Charlotte),3,ABJCIDHEGF,Passed AC2,,Spreadsheet1,1,BIQ,Screen 3,iz3the,3,response,0,9317.1,10466.9,10482.5,9317.1,10466.9,10482.5,1,9317.1,1165.4,0,NA,Rating Scale,Rating Scale,16,object-67,BIQ,NA,SUPPRF52996
14,1.70811E+12,16/02/2024 19:55,1.7081E+12,-5,16/02/2024 09:55,166635,2,task-gjqt,NA,35238234,10410648,NA,complete,NA,65cfbb453bcd2ef77a27c04d,computer,Desktop or Laptop,Mac OS 10.15.7,Chrome 121.0.0.0,1440x900,1440x789,NA,NA,0,BIQ (Charlotte),3,ABJCIDHEGF,Passed AC2,,Spreadsheet1,NA,,,,NA,5,END,NA,NA,NA,NA,NA,NA,0,NA,NA,NA,NA,,,NA,,,NA,SUPPRF52996
1,1.70812E+12,16/02/2024 20:34,1.70812E+12,0,16/02/2024 20:34,166635,2,task-gjqt,NA,35239626,10410854,NA,complete,NA,65cfac1bb0283ebbe7149ea7,computer,Desktop or Laptop,Windows 10,Chrome 121.0.0.0,1366x768,1366x641,NA,NA,0,BIQ (Charlotte),3,CDBEAFJGIH,Passed AC2,,Spreadsheet1,NA,,,,NA,5,BEGIN,NA,NA,NA,NA,NA,NA,0,NA,NA,NA,NA,,,NA,,,NA,SUPPRF81177
2,1.70812E+12,16/02/2024 20:36,1.70812E+12,0,16/02/2024 20:36,166635,2,task-gjqt,NA,35239626,10410854,NA,complete,NA,65cfac1bb0283ebbe7149ea7,computer,Desktop or Laptop,Windows 10,Chrome 121.0.0.0,1366x768,1366x641,NA,NA,0,BIQ (Charlotte),3,CDBEAFJGIH,Passed AC2,,Spreadsheet1,1,BIQ,Screen 1,9dh6eq,1,continue,,73563.012,73546.412,73563.012,73563.012,73546.412,73563.012,1,73563.012,0,0,NA,Click To Continue,Continue Button,23,object-48,BIQ,NA,SUPPRF81177
3,1.70812E+12,16/02/2024 20:36,1.70812E+12,0,16/02/2024 20:36,166635,2,task-gjqt,NA,35239626,10410854,NA,complete,NA,65cfac1bb0283ebbe7149ea7,computer,Desktop or Laptop,Windows 10,Chrome 121.0.0.0,1366x768,1366x641,NA,NA,0,BIQ (Charlotte),3,CDBEAFJGIH,Passed AC2,,Spreadsheet1,1,BIQ,Screen 1,9dh6eq,1,response,2,45899.812,73546.412,73563.012,45899.812,73546.412,73563.012,1,45899.812,27663.2,0,NA,Rating Scale,Rating Scale,3,object-5,BIQ,NA,SUPPRF81177
4,1.70812E+12,16/02/2024 20:36,1.70812E+12,0,16/02/2024 20:36,166635,2,task-gjqt,NA,35239626,10410854,NA,complete,NA,65cfac1bb0283ebbe7149ea7,computer,Desktop or Laptop,Windows 10,Chrome 121.0.0.0,1366x768,1366x641,NA,NA,0,BIQ (Charlotte),3,CDBEAFJGIH,Passed AC2,,Spreadsheet1,1,BIQ,Screen 1,9dh6eq,1,response,8,61287.712,73546.412,73563.012,61287.712,73546.412,73563.012,1,61287.712,12275.3,0,NA,Rating Scale,Rating Scale,10,object-18,BIQ,NA,SUPPRF81177
5,1.70812E+12,16/02/2024 20:36,1.70812E+12,0,16/02/2024 20:36,166635,2,task-gjqt,NA,35239626,10410854,NA,complete,NA,65cfac1bb0283ebbe7149ea7,computer,Desktop or Laptop,Windows 10,Chrome 121.0.0.0,1366x768,1366x641,NA,NA,0,BIQ (Charlotte),3,CDBEAFJGIH,Passed AC2,,Spreadsheet1,1,BIQ,Screen 1,9dh6eq,1,response,0,70726.312,73546.412,73563.012,70726.312,73546.412,73563.012,1,70726.312,2836.7,0,NA,Rating Scale,Rating Scale,17,object-80,BIQ,NA,SUPPRF81177
6,1.70812E+12,16/02/2024 20:36,1.70812E+12,0,16/02/2024 20:36,166635,2,task-gjqt,NA,35239626,10410854,NA,complete,NA,65cfac1bb0283ebbe7149ea7,computer,Desktop or Laptop,Windows 10,Chrome 121.0.0.0,1366x768,1366x641,NA,NA,0,BIQ (Charlotte),3,CDBEAFJGIH,Passed AC2,,Spreadsheet1,1,BIQ,Screen 2,o21mwi,2,continue,,39141.2,39125.8,39141.2,39141.2,39125.8,39141.2,1,39141.2,0,0,NA,Click To Continue,Continue Button,22,object-50,BIQ,NA,SUPPRF81177
7,1.70812E+12,16/02/2024 20:36,1.70812E+12,0,16/02/2024 20:36,166635,2,task-gjqt,NA,35239626,10410854,NA,complete,NA,65cfac1bb0283ebbe7149ea7,computer,Desktop or Laptop,Windows 10,Chrome 121.0.0.0,1366x768,1366x641,NA,NA,0,BIQ (Charlotte),3,CDBEAFJGIH,Passed AC2,,Spreadsheet1,1,BIQ,Screen 2,o21mwi,2,response,8,13944.1,39125.8,39142.5,13944.1,39125.8,39142.5,1,13944.1,25198.4,0,NA,Rating Scale,Rating Scale,2,object-259,BIQ,NA,SUPPRF81177
8,1.70812E+12,16/02/2024 20:36,1.70812E+12,0,16/02/2024 20:36,166635,2,task-gjqt,NA,35239626,10410854,NA,complete,NA,65cfac1bb0283ebbe7149ea7,computer,Desktop or Laptop,Windows 10,Chrome 121.0.0.0,1366x768,1366x641,NA,NA,0,BIQ (Charlotte),3,CDBEAFJGIH,Passed AC2,,Spreadsheet1,1,BIQ,Screen 2,o21mwi,2,response,0,24827.3,39125.8,39142.5,24827.3,39125.8,39142.5,1,24827.3,14315.2,0,NA,Rating Scale,Rating Scale,9,object-36,BIQ,NA,SUPPRF81177
9,1.70812E+12,16/02/2024 20:36,1.70812E+12,0,16/02/2024 20:36,166635,2,task-gjqt,NA,35239626,10410854,NA,complete,NA,65cfac1bb0283ebbe7149ea7,computer,Desktop or Laptop,Windows 10,Chrome 121.0.0.0,1366x768,1366x641,NA,NA,0,BIQ (Charlotte),3,CDBEAFJGIH,Passed AC2,,Spreadsheet1,1,BIQ,Screen 2,o21mwi,2,response,0,36606.3,39125.8,39142.5,36606.3,39125.8,39142.5,1,36606.3,2536.2,0,NA,Rating Scale,Rating Scale,16,object-86,BIQ,NA,SUPPRF81177
10,1.70812E+12,16/02/2024 20:37,1.70812E+12,0,16/02/2024 20:37,166635,2,task-gjqt,NA,35239626,10410854,NA,complete,NA,65cfac1bb0283ebbe7149ea7,computer,Desktop or Laptop,Windows 10,Chrome 121.0.0.0,1366x768,1366x641,NA,NA,0,BIQ (Charlotte),3,CDBEAFJGIH,Passed AC2,,Spreadsheet1,1,BIQ,Screen 3,iz3the,3,continue,,35058.4,35054.8,35058.4,35058.4,35054.8,35058.4,1,35058.4,0,0,NA,Click To Continue,Continue Button,22,object-73,BIQ,NA,SUPPRF81177
11,1.70812E+12,16/02/2024 20:37,1.70812E+12,0,16/02/2024 20:37,166635,2,task-gjqt,NA,35239626,10410854,NA,complete,NA,65cfac1bb0283ebbe7149ea7,computer,Desktop or Laptop,Windows 10,Chrome 121.0.0.0,1366x768,1366x641,NA,NA,0,BIQ (Charlotte),3,CDBEAFJGIH,Passed AC2,,Spreadsheet1,1,BIQ,Screen 3,iz3the,3,response,0,16482.7,35054.8,35064.8,16482.7,35054.8,35064.8,1,16482.7,18582.1,0,NA,Rating Scale,Rating Scale,2,object-53,BIQ,NA,SUPPRF81177
12,1.70812E+12,16/02/2024 20:37,1.70812E+12,0,16/02/2024 20:37,166635,2,task-gjqt,NA,35239626,10410854,NA,complete,NA,65cfac1bb0283ebbe7149ea7,computer,Desktop or Laptop,Windows 10,Chrome 121.0.0.0,1366x768,1366x641,NA,NA,0,BIQ (Charlotte),3,CDBEAFJGIH,Passed AC2,,Spreadsheet1,1,BIQ,Screen 3,iz3the,3,response,0,24392.8,35054.8,35066.3,24392.8,35054.8,35066.3,1,24392.8,10673.5,0,NA,Rating Scale,Rating Scale,9,object-60,BIQ,NA,SUPPRF81177
13,1.70812E+12,16/02/2024 20:37,1.70812E+12,0,16/02/2024 20:37,166635,2,task-gjqt,NA,35239626,10410854,NA,complete,NA,65cfac1bb0283ebbe7149ea7,computer,Desktop or Laptop,Windows 10,Chrome 121.0.0.0,1366x768,1366x641,NA,NA,0,BIQ (Charlotte),3,CDBEAFJGIH,Passed AC2,,Spreadsheet1,1,BIQ,Screen 3,iz3the,3,response,0,33302.4,35054.8,35067.8,33302.4,35054.8,35067.8,1,33302.4,1765.4,0,NA,Rating Scale,Rating Scale,16,object-67,BIQ,NA,SUPPRF81177
14,1.70812E+12,16/02/2024 20:37,1.70812E+12,0,16/02/2024 20:37,166635,2,task-gjqt,NA,35239626,10410854,NA,complete,NA,65cfac1bb0283ebbe7149ea7,computer,Desktop or Laptop,Windows 10,Chrome 121.0.0.0,1366x768,1366x641,NA,NA,0,BIQ (Charlotte),3,CDBEAFJGIH,Passed AC2,,Spreadsheet1,NA,,,,NA,5,END,NA,NA,NA,NA,NA,NA,0,NA,NA,NA,NA,,,NA,,,NA,SUPPRF81177
1,1.70812E+12,16/02/2024 21:12,1.70809E+12,-8,16/02/2024 05:12,166635,2,task-gjqt,NA,35240455,10411297,NA,complete,NA,65cfcdd84190d5f435c1e579,computer,Desktop or Laptop,Windows 10,Chrome 121.0.0.0,1920x1080,1920x919,NA,NA,0,BIQ (Charlotte),3,DECFBGAHJI,Passed AC2,,Spreadsheet1,NA,,,,NA,5,BEGIN,NA,NA,NA,NA,NA,NA,0,NA,NA,NA,NA,,,NA,,,NA,SUPPRF57917
2,1.70812E+12,16/02/2024 21:12,1.70809E+12,-8,16/02/2024 05:12,166635,2,task-gjqt,NA,35240455,10411297,NA,complete,NA,65cfcdd84190d5f435c1e579,computer,Desktop or Laptop,Windows 10,Chrome 121.0.0.0,1920x1080,1920x919,NA,NA,0,BIQ (Charlotte),3,DECFBGAHJI,Passed AC2,,Spreadsheet1,1,BIQ,Screen 1,9dh6eq,1,continue,,42289.7,42278.4,42289.7,42289.7,42278.4,42289.7,1,42289.7,0,0,NA,Click To Continue,Continue Button,23,object-48,BIQ,NA,SUPPRF57917
3,1.70812E+12,16/02/2024 21:12,1.70809E+12,-8,16/02/2024 05:12,166635,2,task-gjqt,NA,35240455,10411297,NA,complete,NA,65cfcdd84190d5f435c1e579,computer,Desktop or Laptop,Windows 10,Chrome 121.0.0.0,1920x1080,1920x919,NA,NA,0,BIQ (Charlotte),3,DECFBGAHJI,Passed AC2,,Spreadsheet1,1,BIQ,Screen 1,9dh6eq,1,response,7,26330.3,42278.4,42294.3,26330.3,42278.4,42294.3,1,26330.3,15964,0,NA,Rating Scale,Rating Scale,3,object-5,BIQ,NA,SUPPRF57917
