Event.Index,UTC.Timestamp,UTC.Date.and.Time,Local.Timestamp,Local.Timezone,Local.Date.and.Time,Experiment.ID,Experiment.Version,Tree.Node.Key,Repeat.Key,Schedule.ID,Participant.Private.ID,Participant.Starting.Group,Participant.Status,Participant.Completion.Code,Participant.External.Session.ID,Participant.Device.Type,Participant.Device,Participant.OS,Participant.Browser,Participant.Monitor.Size,Participant.Viewport.Size,Checkpoint,Room.ID,Room.Order,Task.Name,Task.Version,order.ot79,branch.g31k,branch.5gtn,Spreadsheet,Trial.Number,Display,Screen,Screen.ID,Screen.Counter,Response.Type,Response,Onset.Time,Clock.Time,Reaction.Time,Absolute.Onset.Time,Absolute.Clock.Time,Absolute.Reaction.Time,Correct,Response.Onset,Response.Duration,Proportion,Tag,Component.Name,Object.Name,Object.Number,Object.ID,Spreadsheet..display,Manipulation..Spreadsheet,Random_ID
1,1.70811E+12,16/02/2024 17:59,1.70811E+12,1,16/02/2024 19:59,166635,2,task-v7r7,NA,35235371,10409770,NA,complete,NA,65cf9ed3adac672e940732b5,computer,Desktop or Laptop,Linux x86_64,Chrome 121.0.0.0,1360x768,1366x620,NA,NA,0,Task Introduction and Instructions (re-introduce video and audio) (Clone),3,CDBEAFJGIH,Passed AC2,,Spreadsheet1,NA,,,,NA,5,BEGIN,NA,NA,NA,NA,NA,NA,0,NA,NA,NA,NA,,,NA,,,NA,SUPPRF16119
2,1.70811E+12,16/02/2024 17:59,1.70811E+12,1,16/02/2024 19:59,166635,2,task-v7r7,NA,35235371,10409770,NA,complete,NA,65cf9ed3adac672e940732b5,computer,Desktop or Laptop,Linux x86_64,Chrome 121.0.0.0,1360x768,1366x620,NA,NA,0,Task Introduction and Instructions (re-introduce video and audio) (Clone),3,CDBEAFJGIH,Passed AC2,,Spreadsheet1,1,Task Instructions,Screen 1,anr7sn,1,continue,,4556,4540.3,4556,4556,4540.3,4556,1,4556,0,0,NA,Click To Continue,Continue Button,3,object-60,Task Instructions,NA,SUPPRF16119
3,1.70811E+12,16/02/2024 17:59,1.70811E+12,1,16/02/2024 19:59,166635,2,task-v7r7,NA,35235371,10409770,NA,complete,NA,65cf9ed3adac672e940732b5,computer,Desktop or Laptop,Linux x86_64,Chrome 121.0.0.0,1360x768,1366x620,NA,NA,0,Task Introduction and Instructions (re-introduce video and audio) (Clone),3,CDBEAFJGIH,Passed AC2,,Spreadsheet1,1,Task Instructions,Screen 2,ce2tc8,2,continue,,12384.2,12367.4,12384.2,12384.2,12367.4,12384.2,1,12384.2,0,0,NA,Click To Continue,Continue Button,3,object-59,Task Instructions,NA,SUPPRF16119
4,1.70811E+12,16/02/2024 17:59,1.70811E+12,1,16/02/2024 19:59,166635,2,task-v7r7,NA,35235371,10409770,NA,complete,NA,65cf9ed3adac672e940732b5,computer,Desktop or Laptop,Linux x86_64,Chrome 121.0.0.0,1360x768,1366x620,NA,NA,0,Task Introduction and Instructions (re-introduce video and audio) (Clone),3,CDBEAFJGIH,Passed AC2,,Spreadsheet1,1,Task Instructions,Screen 3,1qtc8v,3,continue,,17860.7,17850.2,17860.7,17860.7,17850.2,17860.7,1,17860.7,0,0,NA,Click To Continue,Continue Button,2,object-2983,Task Instructions,NA,SUPPRF16119
5,1.70811E+12,16/02/2024 18:00,1.70811E+12,1,16/02/2024 20:00,166635,2,task-v7r7,NA,35235371,10409770,NA,complete,NA,65cf9ed3adac672e940732b5,computer,Desktop or Laptop,Linux x86_64,Chrome 121.0.0.0,1360x768,1366x620,NA,NA,0,Task Introduction and Instructions (re-introduce video and audio) (Clone),3,CDBEAFJGIH,Passed AC2,,Spreadsheet1,1,Task Instructions,Screen 12,1a4vu2,4,continue,,11857.7,11853.3,11857.7,11857.7,11853.3,11857.7,1,11857.7,0,0,NA,Click To Continue,Continue Button,2,object-2466,Task Instructions,NA,SUPPRF16119
6,1.70811E+12,16/02/2024 18:00,1.70811E+12,1,16/02/2024 20:00,166635,2,task-v7r7,NA,35235371,10409770,NA,complete,NA,65cf9ed3adac672e940732b5,computer,Desktop or Laptop,Linux x86_64,Chrome 121.0.0.0,1360x768,1366x620,NA,NA,0,Task Introduction and Instructions (re-introduce video and audio) (Clone),3,CDBEAFJGIH,Passed AC2,,Spreadsheet1,1,Task Instructions,Screen 13,q9vwda,5,continue,,9317.7,9305.9,9317.7,9317.7,9305.9,9317.7,1,9317.7,0,0,NA,Click To Continue,Continue Button,2,object-2989,Task Instructions,NA,SUPPRF16119
7,1.70811E+12,16/02/2024 18:00,1.70811E+12,1,16/02/2024 20:00,166635,2,task-v7r7,NA,35235371,10409770,NA,complete,NA,65cf9ed3adac672e940732b5,computer,Desktop or Laptop,Linux x86_64,Chrome 121.0.0.0,1360x768,1366x620,NA,NA,0,Task Introduction and Instructions (re-introduce video and audio) (Clone),3,CDBEAFJGIH,Passed AC2,,Spreadsheet1,1,Task Instructions,Screen 11,oyulb7,6,continue,,3318.5,3306,3318.5,3318.5,3306,3318.5,1,3318.5,0,0,NA,Click To Continue,Continue Button,2,object-52,Task Instructions,NA,SUPPRF16119
8,1.70811E+12,16/02/2024 18:00,1.70811E+12,1,16/02/2024 20:00,166635,2,task-v7r7,NA,35235371,10409770,NA,complete,NA,65cf9ed3adac672e940732b5,computer,Desktop or Laptop,Linux x86_64,Chrome 121.0.0.0,1360x768,1366x620,NA,NA,0,Task Introduction and Instructions (re-introduce video and audio) (Clone),3,CDBEAFJGIH,Passed AC2,,Spreadsheet1,1,Task Instructions,Screen 4,spepx9,7,continue,,7759.5,7752.7,7759.5,7759.5,7752.7,7759.5,1,7759.5,0,0,NA,Click To Continue,Continue Button,2,object-9,Task Instructions,NA,SUPPRF16119
9,1.70811E+12,16/02/2024 18:00,1.70811E+12,1,16/02/2024 20:00,166635,2,task-v7r7,NA,35235371,10409770,NA,complete,NA,65cf9ed3adac672e940732b5,computer,Desktop or Laptop,Linux x86_64,Chrome 121.0.0.0,1360x768,1366x620,NA,NA,0,Task Introduction and Instructions (re-introduce video and audio) (Clone),3,CDBEAFJGIH,Passed AC2,,Spreadsheet1,1,Task Instructions,Screen 5,8nvnao,8,continue,,3386.4,3380.9,3386.4,3386.4,3380.9,3386.4,1,3386.4,0,0,NA,Click To Continue,Continue Button,2,object-44,Task Instructions,NA,SUPPRF16119
10,1.70811E+12,16/02/2024 18:00,1.70811E+12,1,16/02/2024 20:00,166635,2,task-v7r7,NA,35235371,10409770,NA,complete,NA,65cf9ed3adac672e940732b5,computer,Desktop or Laptop,Linux x86_64,Chrome 121.0.0.0,1360x768,1366x620,NA,NA,0,Task Introduction and Instructions (re-introduce video and audio) (Clone),3,CDBEAFJGIH,Passed AC2,,Spreadsheet1,NA,,,,NA,5,END,NA,NA,NA,NA,NA,NA,0,NA,NA,NA,NA,,,NA,,,NA,SUPPRF16119
1,1.70811E+12,16/02/2024 18:04,1.70811E+12,0,16/02/2024 18:04,166635,2,task-v7r7,NA,35235555,10409801,NA,complete,NA,65cf9e5075ba348a6a36999c,computer,Desktop or Laptop,Windows 10,Chrome 121.0.0.0,1536x864,1536x747,NA,NA,0,Task Introduction and Instructions (re-introduce video and audio) (Clone),3,DECFBGAHJI,Passed AC2,,Spreadsheet1,NA,,,,NA,5,BEGIN,NA,NA,NA,NA,NA,NA,0,NA,NA,NA,NA,,,NA,,,NA,SUPPRF92604
2,1.70811E+12,16/02/2024 18:05,1.70811E+12,0,16/02/2024 18:05,166635,2,task-v7r7,NA,35235555,10409801,NA,complete,NA,65cf9e5075ba348a6a36999c,computer,Desktop or Laptop,Windows 10,Chrome 121.0.0.0,1536x864,1536x747,NA,NA,0,Task Introduction and Instructions (re-introduce video and audio) (Clone),3,DECFBGAHJI,Passed AC2,,Spreadsheet1,1,Task Instructions,Screen 1,anr7sn,1,continue,,4948.1,4944.3,4948.1,4948.1,4944.3,4948.1,1,4948.1,0,0,NA,Click To Continue,Continue Button,3,object-60,Task Instructions,NA,SUPPRF92604
3,1.70811E+12,16/02/2024 18:05,1.70811E+12,0,16/02/2024 18:05,166635,2,task-v7r7,NA,35235555,10409801,NA,complete,NA,65cf9e5075ba348a6a36999c,computer,Desktop or Laptop,Windows 10,Chrome 121.0.0.0,1536x864,1536x747,NA,NA,0,Task Introduction and Instructions (re-introduce video and audio) (Clone),3,DECFBGAHJI,Passed AC2,,Spreadsheet1,1,Task Instructions,Screen 2,ce2tc8,2,continue,,13218.4,13215.8,13218.4,13218.4,13215.8,13218.4,1,13218.4,0,0,NA,Click To Continue,Continue Button,3,object-59,Task Instructions,NA,SUPPRF92604
4,1.70811E+12,16/02/2024 18:05,1.70811E+12,0,16/02/2024 18:05,166635,2,task-v7r7,NA,35235555,10409801,NA,complete,NA,65cf9e5075ba348a6a36999c,computer,Desktop or Laptop,Windows 10,Chrome 121.0.0.0,1536x864,1536x747,NA,NA,0,Task Introduction and Instructions (re-introduce video and audio) (Clone),3,DECFBGAHJI,Passed AC2,,Spreadsheet1,1,Task Instructions,Screen 3,1qtc8v,3,continue,,4513.8,4506.8,4513.8,4513.8,4506.8,4513.8,1,4513.8,0,0,NA,Click To Continue,Continue Button,2,object-2983,Task Instructions,NA,SUPPRF92604
5,1.70811E+12,16/02/2024 18:05,1.70811E+12,0,16/02/2024 18:05,166635,2,task-v7r7,NA,35235555,10409801,NA,complete,NA,65cf9e5075ba348a6a36999c,computer,Desktop or Laptop,Windows 10,Chrome 121.0.0.0,1536x864,1536x747,NA,NA,0,Task Introduction and Instructions (re-introduce video and audio) (Clone),3,DECFBGAHJI,Passed AC2,,Spreadsheet1,1,Task Instructions,Screen 12,1a4vu2,4,continue,,6559.8,6555.9,6559.8,6559.8,6555.9,6559.8,1,6559.8,0,0,NA,Click To Continue,Continue Button,2,object-2466,Task Instructions,NA,SUPPRF92604
6,1.70811E+12,16/02/2024 18:05,1.70811E+12,0,16/02/2024 18:05,166635,2,task-v7r7,NA,35235555,10409801,NA,complete,NA,65cf9e5075ba348a6a36999c,computer,Desktop or Laptop,Windows 10,Chrome 121.0.0.0,1536x864,1536x747,NA,NA,0,Task Introduction and Instructions (re-introduce video and audio) (Clone),3,DECFBGAHJI,Passed AC2,,Spreadsheet1,1,Task Instructions,Screen 13,q9vwda,5,continue,,4982.8,4979.3,4982.8,4982.8,4979.3,4982.8,1,4982.8,0,0,NA,Click To Continue,Continue Button,2,object-2989,Task Instructions,NA,SUPPRF92604
7,1.70811E+12,16/02/2024 18:05,1.70811E+12,0,16/02/2024 18:05,166635,2,task-v7r7,NA,35235555,10409801,NA,complete,NA,65cf9e5075ba348a6a36999c,computer,Desktop or Laptop,Windows 10,Chrome 121.0.0.0,1536x864,1536x747,NA,NA,0,Task Introduction and Instructions (re-introduce video and audio) (Clone),3,DECFBGAHJI,Passed AC2,,Spreadsheet1,1,Task Instructions,Screen 11,oyulb7,6,continue,,3316.3,3312.7,3316.3,3316.3,3312.7,3316.3,1,3316.3,0,0,NA,Click To Continue,Continue Button,2,object-52,Task Instructions,NA,SUPPRF92604
8,1.70811E+12,16/02/2024 18:05,1.70811E+12,0,16/02/2024 18:05,166635,2,task-v7r7,NA,35235555,10409801,NA,complete,NA,65cf9e5075ba348a6a36999c,computer,Desktop or Laptop,Windows 10,Chrome 121.0.0.0,1536x864,1536x747,NA,NA,0,Task Introduction and Instructions (re-introduce video and audio) (Clone),3,DECFBGAHJI,Passed AC2,,Spreadsheet1,1,Task Instructions,Screen 4,spepx9,7,continue,,2737.8,2735.8,2737.8,2737.8,2735.8,2737.8,1,2737.8,0,0,NA,Click To Continue,Continue Button,2,object-9,Task Instructions,NA,SUPPRF92604
9,1.70811E+12,16/02/2024 18:05,1.70811E+12,0,16/02/2024 18:05,166635,2,task-v7r7,NA,35235555,10409801,NA,complete,NA,65cf9e5075ba348a6a36999c,computer,Desktop or Laptop,Windows 10,Chrome 121.0.0.0,1536x864,1536x747,NA,NA,0,Task Introduction and Instructions (re-introduce video and audio) (Clone),3,DECFBGAHJI,Passed AC2,,Spreadsheet1,1,Task Instructions,Screen 5,8nvnao,8,continue,,2684.9,2680.7,2684.9,2684.9,2680.7,2684.9,1,2684.9,0,0,NA,Click To Continue,Continue Button,2,object-44,Task Instructions,NA,SUPPRF92604
10,1.70811E+12,16/02/2024 18:05,1.70811E+12,0,16/02/2024 18:05,166635,2,task-v7r7,NA,35235555,10409801,NA,complete,NA,65cf9e5075ba348a6a36999c,computer,Desktop or Laptop,Windows 10,Chrome 121.0.0.0,1536x864,1536x747,NA,NA,0,Task Introduction and Instructions (re-introduce video and audio) (Clone),3,DECFBGAHJI,Passed AC2,,Spreadsheet1,NA,,,,NA,5,END,NA,NA,NA,NA,NA,NA,0,NA,NA,NA,NA,,,NA,,,NA,SUPPRF92604
1,1.70811E+12,16/02/2024 18:52,1.70811E+12,0,16/02/2024 18:52,166635,2,task-v7r7,NA,35236721,10410189,NA,complete,NA,65cfaa77aa458aef6c66cf21,computer,Desktop or Laptop,Windows 10,Chrome 121.0.0.0,1536x864,1536x695,NA,NA,0,Task Introduction and Instructions (re-introduce video and audio) (Clone),3,FGEHDICJBA,Passed AC2,,Spreadsheet1,NA,,,,NA,5,BEGIN,NA,NA,NA,NA,NA,NA,0,NA,NA,NA,NA,,,NA,,,NA,SUPPRF90660
2,1.70811E+12,16/02/2024 18:52,1.70811E+12,0,16/02/2024 18:52,166635,2,task-v7r7,NA,35236721,10410189,NA,complete,NA,65cfaa77aa458aef6c66cf21,computer,Desktop or Laptop,Windows 10,Chrome 121.0.0.0,1536x864,1536x695,NA,NA,0,Task Introduction and Instructions (re-introduce video and audio) (Clone),3,FGEHDICJBA,Passed AC2,,Spreadsheet1,1,Task Instructions,Screen 1,anr7sn,1,continue,,3527.9,3516.3,3527.9,3527.9,3516.3,3527.9,1,3527.9,0,0,NA,Click To Continue,Continue Button,3,object-60,Task Instructions,NA,SUPPRF90660
3,1.70811E+12,16/02/2024 18:53,1.70811E+12,0,16/02/2024 18:53,166635,2,task-v7r7,NA,35236721,10410189,NA,complete,NA,65cfaa77aa458aef6c66cf21,computer,Desktop or Laptop,Windows 10,Chrome 121.0.0.0,1536x864,1536x695,NA,NA,0,Task Introduction and Instructions (re-introduce video and audio) (Clone),3,FGEHDICJBA,Passed AC2,,Spreadsheet1,1,Task Instructions,Screen 2,ce2tc8,2,continue,,10243.1,10232.4,10243.1,10243.1,10232.4,10243.1,1,10243.1,0,0,NA,Click To Continue,Continue Button,3,object-59,Task Instructions,NA,SUPPRF90660
4,1.70811E+12,16/02/2024 18:53,1.70811E+12,0,16/02/2024 18:53,166635,2,task-v7r7,NA,35236721,10410189,NA,complete,NA,65cfaa77aa458aef6c66cf21,computer,Desktop or Laptop,Windows 10,Chrome 121.0.0.0,1536x864,1536x695,NA,NA,0,Task Introduction and Instructions (re-introduce video and audio) (Clone),3,FGEHDICJBA,Passed AC2,,Spreadsheet1,1,Task Instructions,Screen 3,1qtc8v,3,continue,,10478.7,10464.9,10478.7,10478.7,10464.9,10478.7,1,10478.7,0,0,NA,Click To Continue,Continue Button,2,object-2983,Task Instructions,NA,SUPPRF90660
5,1.70811E+12,16/02/2024 18:53,1.70811E+12,0,16/02/2024 18:53,166635,2,task-v7r7,NA,35236721,10410189,NA,complete,NA,65cfaa77aa458aef6c66cf21,computer,Desktop or Laptop,Windows 10,Chrome 121.0.0.0,1536x864,1536x695,NA,NA,0,Task Introduction and Instructions (re-introduce video and audio) (Clone),3,FGEHDICJBA,Passed AC2,,Spreadsheet1,1,Task Instructions,Screen 12,1a4vu2,4,continue,,36064.5,36062.1,36064.5,36064.5,36062.1,36064.5,1,36064.5,0,0,NA,Click To Continue,Continue Button,2,object-2466,Task Instructions,NA,SUPPRF90660
6,1.70811E+12,16/02/2024 18:53,1.70811E+12,0,16/02/2024 18:53,166635,2,task-v7r7,NA,35236721,10410189,NA,complete,NA,65cfaa77aa458aef6c66cf21,computer,Desktop or Laptop,Windows 10,Chrome 121.0.0.0,1536x864,1536x695,NA,NA,0,Task Introduction and Instructions (re-introduce video and audio) (Clone),3,FGEHDICJBA,Passed AC2,,Spreadsheet1,1,Task Instructions,Screen 13,q9vwda,5,continue,,5314.2,5299.2,5314.2,5314.2,5299.2,5314.2,1,5314.2,0,0,NA,Click To Continue,Continue Button,2,object-2989,Task Instructions,NA,SUPPRF90660
7,1.70811E+12,16/02/2024 18:53,1.70811E+12,0,16/02/2024 18:53,166635,2,task-v7r7,NA,35236721,10410189,NA,complete,NA,65cfaa77aa458aef6c66cf21,computer,Desktop or Laptop,Windows 10,Chrome 121.0.0.0,1536x864,1536x695,NA,NA,0,Task Introduction and Instructions (re-introduce video and audio) (Clone),3,FGEHDICJBA,Passed AC2,,Spreadsheet1,1,Task Instructions,Screen 11,oyulb7,6,continue,,3344.7,3333,3344.7,3344.7,3333,3344.7,1,3344.7,0,0,NA,Click To Continue,Continue Button,2,object-52,Task Instructions,NA,SUPPRF90660
8,1.70811E+12,16/02/2024 18:53,1.70811E+12,0,16/02/2024 18:53,166635,2,task-v7r7,NA,35236721,10410189,NA,complete,NA,65cfaa77aa458aef6c66cf21,computer,Desktop or Laptop,Windows 10,Chrome 121.0.0.0,1536x864,1536x695,NA,NA,0,Task Introduction and Instructions (re-introduce video and audio) (Clone),3,FGEHDICJBA,Passed AC2,,Spreadsheet1,1,Task Instructions,Screen 4,spepx9,7,continue,,2894.4,2883.1,2894.4,2894.4,2883.1,2894.4,1,2894.4,0,0,NA,Click To Continue,Continue Button,2,object-9,Task Instructions,NA,SUPPRF90660
9,1.70811E+12,16/02/2024 18:54,1.70811E+12,0,16/02/2024 18:54,166635,2,task-v7r7,NA,35236721,10410189,NA,complete,NA,65cfaa77aa458aef6c66cf21,computer,Desktop or Laptop,Windows 10,Chrome 121.0.0.0,1536x864,1536x695,NA,NA,0,Task Introduction and Instructions (re-introduce video and audio) (Clone),3,FGEHDICJBA,Passed AC2,,Spreadsheet1,1,Task Instructions,Screen 5,8nvnao,8,continue,,2826.5,2816.7,2826.5,2826.5,2816.7,2826.5,1,2826.5,0,0,NA,Click To Continue,Continue Button,2,object-44,Task Instructions,NA,SUPPRF90660
10,1.70811E+12,16/02/2024 18:54,1.70811E+12,0,16/02/2024 18:54,166635,2,task-v7r7,NA,35236721,10410189,NA,complete,NA,65cfaa77aa458aef6c66cf21,computer,Desktop or Laptop,Windows 10,Chrome 121.0.0.0,1536x864,1536x695,NA,NA,0,Task Introduction and Instructions (re-introduce video and audio) (Clone),3,FGEHDICJBA,Passed AC2,,Spreadsheet1,NA,,,,NA,5,END,NA,NA,NA,NA,NA,NA,0,NA,NA,NA,NA,,,NA,,,NA,SUPPRF90660
1,1.70811E+12,16/02/2024 18:57,1.70811E+12,0,16/02/2024 18:57,166635,2,task-v7r7,NA,35236837,10410271,NA,complete,NA,65cfadaf101939b09af728d0,computer,Desktop or Laptop,Windows 10,Chrome 121.0.0.0,1536x864,1536x738,NA,NA,0,Task Introduction and Instructions (re-introduce video and audio) (Clone),3,HIGJFAEBDC,Passed AC2,,Spreadsheet1,NA,,,,NA,5,BEGIN,NA,NA,NA,NA,NA,NA,0,NA,NA,NA,NA,,,NA,,,NA,SUPPRF21106
2,1.70811E+12,16/02/2024 18:57,1.70811E+12,0,16/02/2024 18:57,166635,2,task-v7r7,NA,35236837,10410271,NA,complete,NA,65cfadaf101939b09af728d0,computer,Desktop or Laptop,Windows 10,Chrome 121.0.0.0,1536x864,1536x738,NA,NA,0,Task Introduction and Instructions (re-introduce video and audio) (Clone),3,HIGJFAEBDC,Passed AC2,,Spreadsheet1,1,Task Instructions,Screen 1,anr7sn,1,continue,,5056.2,5039.2,5056.2,5056.2,5039.2,5056.2,1,5056.2,0,0,NA,Click To Continue,Continue Button,3,object-60,Task Instructions,NA,SUPPRF21106
3,1.70811E+12,16/02/2024 18:57,1.70811E+12,0,16/02/2024 18:57,166635,2,task-v7r7,NA,35236837,10410271,NA,complete,NA,65cfadaf101939b09af728d0,computer,Desktop or Laptop,Windows 10,Chrome 121.0.0.0,1536x864,1536x738,NA,NA,0,Task Introduction and Instructions (re-introduce video and audio) (Clone),3,HIGJFAEBDC,Passed AC2,,Spreadsheet1,1,Task Instructions,Screen 2,ce2tc8,2,continue,,10695.1,10678.3,10695.1,10695.1,10678.3,10695.1,1,10695.1,0,0,NA,Click To Continue,Continue Button,3,object-59,Task Instructions,NA,SUPPRF21106
4,1.70811E+12,16/02/2024 18:57,1.70811E+12,0,16/02/2024 18:57,166635,2,task-v7r7,NA,35236837,10410271,NA,complete,NA,65cfadaf101939b09af728d0,computer,Desktop or Laptop,Windows 10,Chrome 121.0.0.0,1536x864,1536x738,NA,NA,0,Task Introduction and Instructions (re-introduce video and audio) (Clone),3,HIGJFAEBDC,Passed AC2,,Spreadsheet1,1,Task Instructions,Screen 3,1qtc8v,3,continue,,7476.5,7474.8,7476.5,7476.5,7474.8,7476.5,1,7476.5,0,0,NA,Click To Continue,Continue Button,2,object-2983,Task Instructions,NA,SUPPRF21106
5,1.70811E+12,16/02/2024 18:58,1.70811E+12,0,16/02/2024 18:58,166635,2,task-v7r7,NA,35236837,10410271,NA,complete,NA,65cfadaf101939b09af728d0,computer,Desktop or Laptop,Windows 10,Chrome 121.0.0.0,1536x864,1536x738,NA,NA,0,Task Introduction and Instructions (re-introduce video and audio) (Clone),3,HIGJFAEBDC,Passed AC2,,Spreadsheet1,1,Task Instructions,Screen 12,1a4vu2,4,continue,,17280.6,17269.1,17280.6,17280.6,17269.1,17280.6,1,17280.6,0,0,NA,Click To Continue,Continue Button,2,object-2466,Task Instructions,NA,SUPPRF21106
6,1.70811E+12,16/02/2024 18:58,1.70811E+12,0,16/02/2024 18:58,166635,2,task-v7r7,NA,35236837,10410271,NA,complete,NA,65cfadaf101939b09af728d0,computer,Desktop or Laptop,Windows 10,Chrome 121.0.0.0,1536x864,1536x738,NA,NA,0,Task Introduction and Instructions (re-introduce video and audio) (Clone),3,HIGJFAEBDC,Passed AC2,,Spreadsheet1,1,Task Instructions,Screen 13,q9vwda,5,continue,,6604,6590.6,6604,6604,6590.6,6604,1,6604,0,0,NA,Click To Continue,Continue Button,2,object-2989,Task Instructions,NA,SUPPRF21106
7,1.70811E+12,16/02/2024 18:58,1.70811E+12,0,16/02/2024 18:58,166635,2,task-v7r7,NA,35236837,10410271,NA,complete,NA,65cfadaf101939b09af728d0,computer,Desktop or Laptop,Windows 10,Chrome 121.0.0.0,1536x864,1536x738,NA,NA,0,Task Introduction and Instructions (re-introduce video and audio) (Clone),3,HIGJFAEBDC,Passed AC2,,Spreadsheet1,1,Task Instructions,Screen 11,oyulb7,6,continue,,3441.6,3436.9,3441.6,3441.6,3436.9,3441.6,1,3441.6,0,0,NA,Click To Continue,Continue Button,2,object-52,Task Instructions,NA,SUPPRF21106
8,1.70811E+12,16/02/2024 18:58,1.70811E+12,0,16/02/2024 18:58,166635,2,task-v7r7,NA,35236837,10410271,NA,complete,NA,65cfadaf101939b09af728d0,computer,Desktop or Laptop,Windows 10,Chrome 121.0.0.0,1536x864,1536x738,NA,NA,0,Task Introduction and Instructions (re-introduce video and audio) (Clone),3,HIGJFAEBDC,Passed AC2,,Spreadsheet1,1,Task Instructions,Screen 4,spepx9,7,continue,,3243.5,3237.2,3243.5,3243.5,3237.2,3243.5,1,3243.5,0,0,NA,Click To Continue,Continue Button,2,object-9,Task Instructions,NA,SUPPRF21106
9,1.70811E+12,16/02/2024 18:58,1.70811E+12,0,16/02/2024 18:58,166635,2,task-v7r7,NA,35236837,10410271,NA,complete,NA,65cfadaf101939b09af728d0,computer,Desktop or Laptop,Windows 10,Chrome 121.0.0.0,1536x864,1536x738,NA,NA,0,Task Introduction and Instructions (re-introduce video and audio) (Clone),3,HIGJFAEBDC,Passed AC2,,Spreadsheet1,1,Task Instructions,Screen 5,8nvnao,8,continue,,3133.5,3120,3133.5,3133.5,3120,3133.5,1,3133.5,0,0,NA,Click To Continue,Continue Button,2,object-44,Task Instructions,NA,SUPPRF21106
10,1.70811E+12,16/02/2024 18:58,1.70811E+12,0,16/02/2024 18:58,166635,2,task-v7r7,NA,35236837,10410271,NA,complete,NA,65cfadaf101939b09af728d0,computer,Desktop or Laptop,Windows 10,Chrome 121.0.0.0,1536x864,1536x738,NA,NA,0,Task Introduction and Instructions (re-introduce video and audio) (Clone),3,HIGJFAEBDC,Passed AC2,,Spreadsheet1,NA,,,,NA,5,END,NA,NA,NA,NA,NA,NA,0,NA,NA,NA,NA,,,NA,,,NA,SUPPRF21106
1,1.70811E+12,16/02/2024 19:12,1.70811E+12,0,16/02/2024 19:12,166635,2,task-v7r7,NA,35237139,10410299,NA,complete,NA,65cfaf013bcd2ef77a27bccc,computer,Desktop or Laptop,Mac OS 10.15.7,Chrome 121.0.0.0,1512x982,1090x713,NA,NA,0,Task Introduction and Instructions (re-introduce video and audio) (Clone),3,IJHAGBFCED,Passed AC2,,Spreadsheet1,NA,,,,NA,5,BEGIN,NA,NA,NA,NA,NA,NA,0,NA,NA,NA,NA,,,NA,,,NA,SUPPRF80091
2,1.70811E+12,16/02/2024 19:13,1.70811E+12,0,16/02/2024 19:13,166635,2,task-v7r7,NA,35237139,10410299,NA,complete,NA,65cfaf013bcd2ef77a27bccc,computer,Desktop or Laptop,Mac OS 10.15.7,Chrome 121.0.0.0,1512x982,1090x713,NA,NA,0,Task Introduction and Instructions (re-introduce video and audio) (Clone),3,IJHAGBFCED,Passed AC2,,Spreadsheet1,1,Task Instructions,Screen 1,anr7sn,1,continue,,40198.8,40191.3,40198.8,40198.8,40191.3,40198.8,1,40198.8,0,0,NA,Click To Continue,Continue Button,3,object-60,Task Instructions,NA,SUPPRF80091
3,1.70811E+12,16/02/2024 19:13,1.70811E+12,0,16/02/2024 19:13,166635,2,task-v7r7,NA,35237139,10410299,NA,complete,NA,65cfaf013bcd2ef77a27bccc,computer,Desktop or Laptop,Mac OS 10.15.7,Chrome 121.0.0.0,1512x982,1090x713,NA,NA,0,Task Introduction and Instructions (re-introduce video and audio) (Clone),3,IJHAGBFCED,Passed AC2,,Spreadsheet1,1,Task Instructions,Screen 2,ce2tc8,2,continue,,19845.9,19837.7,19845.9,19845.9,19837.7,19845.9,1,19845.9,0,0,NA,Click To Continue,Continue Button,3,object-59,Task Instructions,NA,SUPPRF80091
4,1.70811E+12,16/02/2024 19:14,1.70811E+12,0,16/02/2024 19:14,166635,2,task-v7r7,NA,35237139,10410299,NA,complete,NA,65cfaf013bcd2ef77a27bccc,computer,Desktop or Laptop,Mac OS 10.15.7,Chrome 121.0.0.0,1512x982,1090x713,NA,NA,0,Task Introduction and Instructions (re-introduce video and audio) (Clone),3,IJHAGBFCED,Passed AC2,,Spreadsheet1,1,Task Instructions,Screen 3,1qtc8v,3,continue,,15251.5,15249.6,15251.5,15251.5,15249.6,15251.5,1,15251.5,0,0,NA,Click To Continue,Continue Button,2,object-2983,Task Instructions,NA,SUPPRF80091
5,1.70811E+12,16/02/2024 19:14,1.70811E+12,0,16/02/2024 19:14,166635,2,task-v7r7,NA,35237139,10410299,NA,complete,NA,65cfaf013bcd2ef77a27bccc,computer,Desktop or Laptop,Mac OS 10.15.7,Chrome 121.0.0.0,1512x982,1090x713,NA,NA,0,Task Introduction and Instructions (re-introduce video and audio) (Clone),3,IJHAGBFCED,Passed AC2,,Spreadsheet1,1,Task Instructions,Screen 12,1a4vu2,4,continue,,9182.8,9179.5,9182.8,9182.8,9179.5,9182.8,1,9182.8,0,0,NA,Click To Continue,Continue Button,2,object-2466,Task Instructions,NA,SUPPRF80091
6,1.70811E+12,16/02/2024 19:14,1.70811E+12,0,16/02/2024 19:14,166635,2,task-v7r7,NA,35237139,10410299,NA,complete,NA,65cfaf013bcd2ef77a27bccc,computer,Desktop or Laptop,Mac OS 10.15.7,Chrome 121.0.0.0,1512x982,1090x713,NA,NA,0,Task Introduction and Instructions (re-introduce video and audio) (Clone),3,IJHAGBFCED,Passed AC2,,Spreadsheet1,1,Task Instructions,Screen 13,q9vwda,5,continue,,6798.2,6790.7,6798.2,6798.2,6790.7,6798.2,1,6798.2,0,0,NA,Click To Continue,Continue Button,2,object-2989,Task Instructions,NA,SUPPRF80091
7,1.70811E+12,16/02/2024 19:14,1.70811E+12,0,16/02/2024 19:14,166635,2,task-v7r7,NA,35237139,10410299,NA,complete,NA,65cfaf013bcd2ef77a27bccc,computer,Desktop or Laptop,Mac OS 10.15.7,Chrome 121.0.0.0,1512x982,1090x713,NA,NA,0,Task Introduction and Instructions (re-introduce video and audio) (Clone),3,IJHAGBFCED,Passed AC2,,Spreadsheet1,1,Task Instructions,Screen 11,oyulb7,6,continue,,8713.5,8705.1,8713.5,8713.5,8705.1,8713.5,1,8713.5,0,0,NA,Click To Continue,Continue Button,2,object-52,Task Instructions,NA,SUPPRF80091
8,1.70811E+12,16/02/2024 19:14,1.70811E+12,0,16/02/2024 19:14,166635,2,task-v7r7,NA,35237139,10410299,NA,complete,NA,65cfaf013bcd2ef77a27bccc,computer,Desktop or Laptop,Mac OS 10.15.7,Chrome 121.0.0.0,1512x982,1090x713,NA,NA,0,Task Introduction and Instructions (re-introduce video and audio) (Clone),3,IJHAGBFCED,Passed AC2,,Spreadsheet1,1,Task Instructions,Screen 4,spepx9,7,continue,,18882.8,18878.2,18882.8,18882.8,18878.2,18882.8,1,18882.8,0,0,NA,Click To Continue,Continue Button,2,object-9,Task Instructions,NA,SUPPRF80091
9,1.70811E+12,16/02/2024 19:14,1.70811E+12,0,16/02/2024 19:14,166635,2,task-v7r7,NA,35237139,10410299,NA,complete,NA,65cfaf013bcd2ef77a27bccc,computer,Desktop or Laptop,Mac OS 10.15.7,Chrome 121.0.0.0,1512x982,1090x713,NA,NA,0,Task Introduction and Instructions (re-introduce video and audio) (Clone),3,IJHAGBFCED,Passed AC2,,Spreadsheet1,1,Task Instructions,Screen 5,8nvnao,8,continue,,4130.1,4126,4130.1,4130.1,4126,4130.1,1,4130.1,0,0,NA,Click To Continue,Continue Button,2,object-44,Task Instructions,NA,SUPPRF80091
10,1.70811E+12,16/02/2024 19:14,1.70811E+12,0,16/02/2024 19:14,166635,2,task-v7r7,NA,35237139,10410299,NA,complete,NA,65cfaf013bcd2ef77a27bccc,computer,Desktop or Laptop,Mac OS 10.15.7,Chrome 121.0.0.0,1512x982,1090x713,NA,NA,0,Task Introduction and Instructions (re-introduce video and audio) (Clone),3,IJHAGBFCED,Passed AC2,,Spreadsheet1,NA,,,,NA,5,END,NA,NA,NA,NA,NA,NA,0,NA,NA,NA,NA,,,NA,,,NA,SUPPRF80091
1,1.70811E+12,16/02/2024 19:21,1.70809E+12,-6,16/02/2024 07:21,166635,2,task-v7r7,NA,35237295,10410377,NA,complete,NA,65cfb1f4bb345b2197aee9aa,computer,Desktop or Laptop,Mac OS 10.15.7,Chrome 114.0.0.0,1440x900,1440x789,NA,NA,0,Task Introduction and Instructions (re-introduce video and audio) (Clone),3,ABJCIDHEGF,Passed AC2,,Spreadsheet1,NA,,,,NA,5,BEGIN,NA,NA,NA,NA,NA,NA,0,NA,NA,NA,NA,,,NA,,,NA,SUPPRF07437
2,1.70811E+12,16/02/2024 19:21,1.70809E+12,-6,16/02/2024 07:21,166635,2,task-v7r7,NA,35237295,10410377,NA,complete,NA,65cfb1f4bb345b2197aee9aa,computer,Desktop or Laptop,Mac OS 10.15.7,Chrome 114.0.0.0,1440x900,1440x789,NA,NA,0,Task Introduction and Instructions (re-introduce video and audio) (Clone),3,ABJCIDHEGF,Passed AC2,,Spreadsheet1,1,Task Instructions,Screen 1,anr7sn,1,continue,,3891.933,3884.032,3891.933,3891.933,3884.032,3891.933,1,3891.933,0,0,NA,Click To Continue,Continue Button,3,object-60,Task Instructions,NA,SUPPRF07437
3,1.70811E+12,16/02/2024 19:21,1.70809E+12,-6,16/02/2024 07:21,166635,2,task-v7r7,NA,35237295,10410377,NA,complete,NA,65cfb1f4bb345b2197aee9aa,computer,Desktop or Laptop,Mac OS 10.15.7,Chrome 114.0.0.0,1440x900,1440x789,NA,NA,0,Task Introduction and Instructions (re-introduce video and audio) (Clone),3,ABJCIDHEGF,Passed AC2,,Spreadsheet1,1,Task Instructions,Screen 2,ce2tc8,2,continue,,9010.101,8999.64,9010.101,9010.101,8999.64,9010.101,1,9010.101,0,0,NA,Click To Continue,Continue Button,3,object-59,Task Instructions,NA,SUPPRF07437
4,1.70811E+12,16/02/2024 19:22,1.70809E+12,-6,16/02/2024 07:22,166635,2,task-v7r7,NA,35237295,10410377,NA,complete,NA,65cfb1f4bb345b2197aee9aa,computer,Desktop or Laptop,Mac OS 10.15.7,Chrome 114.0.0.0,1440x900,1440x789,NA,NA,0,Task Introduction and Instructions (re-introduce video and audio) (Clone),3,ABJCIDHEGF,Passed AC2,,Spreadsheet1,1,Task Instructions,Screen 3,1qtc8v,3,continue,,12411.061,12400.334,12411.061,12411.061,12400.334,12411.061,1,12411.061,0,0,NA,Click To Continue,Continue Button,2,object-2983,Task Instructions,NA,SUPPRF07437
5,1.70811E+12,16/02/2024 19:22,1.70809E+12,-6,16/02/2024 07:22,166635,2,task-v7r7,NA,35237295,10410377,NA,complete,NA,65cfb1f4bb345b2197aee9aa,computer,Desktop or Laptop,Mac OS 10.15.7,Chrome 114.0.0.0,1440x900,1440x789,NA,NA,0,Task Introduction and Instructions (re-introduce video and audio) (Clone),3,ABJCIDHEGF,Passed AC2,,Spreadsheet1,1,Task Instructions,Screen 12,1a4vu2,4,continue,,13960.427,13951.491,13960.427,13960.427,13951.491,13960.427,1,13960.427,0,0,NA,Click To Continue,Continue Button,2,object-2466,Task Instructions,NA,SUPPRF07437
6,1.70811E+12,16/02/2024 19:22,1.70809E+12,-6,16/02/2024 07:22,166635,2,task-v7r7,NA,35237295,10410377,NA,complete,NA,65cfb1f4bb345b2197aee9aa,computer,Desktop or Laptop,Mac OS 10.15.7,Chrome 114.0.0.0,1440x900,1440x789,NA,NA,0,Task Introduction and Instructions (re-introduce video and audio) (Clone),3,ABJCIDHEGF,Passed AC2,,Spreadsheet1,1,Task Instructions,Screen 13,q9vwda,5,continue,,5507.536,5499.78,5507.536,5507.536,5499.78,5507.536,1,5507.536,0,0,NA,Click To Continue,Continue Button,2,object-2989,Task Instructions,NA,SUPPRF07437
7,1.70811E+12,16/02/2024 19:22,1.70809E+12,-6,16/02/2024 07:22,166635,2,task-v7r7,NA,35237295,10410377,NA,complete,NA,65cfb1f4bb345b2197aee9aa,computer,Desktop or Laptop,Mac OS 10.15.7,Chrome 114.0.0.0,1440x900,1440x789,NA,NA,0,Task Introduction and Instructions (re-introduce video and audio) (Clone),3,ABJCIDHEGF,Passed AC2,,Spreadsheet1,1,Task Instructions,Screen 11,oyulb7,6,continue,,2757.856,2749.89,2757.856,2757.856,2749.89,2757.856,1,2757.856,0,0,NA,Click To Continue,Continue Button,2,object-52,Task Instructions,NA,SUPPRF07437
8,1.70811E+12,16/02/2024 19:22,1.70809E+12,-6,16/02/2024 07:22,166635,2,task-v7r7,NA,35237295,10410377,NA,complete,NA,65cfb1f4bb345b2197aee9aa,computer,Desktop or Laptop,Mac OS 10.15.7,Chrome 114.0.0.0,1440x900,1440x789,NA,NA,0,Task Introduction and Instructions (re-introduce video and audio) (Clone),3,ABJCIDHEGF,Passed AC2,,Spreadsheet1,1,Task Instructions,Screen 4,spepx9,7,continue,,2858.866,2850.692,2858.866,2858.866,2850.692,2858.866,1,2858.866,0,0,NA,Click To Continue,Continue Button,2,object-9,Task Instructions,NA,SUPPRF07437
9,1.70811E+12,16/02/2024 19:22,1.70809E+12,-6,16/02/2024 07:22,166635,2,task-v7r7,NA,35237295,10410377,NA,complete,NA,65cfb1f4bb345b2197aee9aa,computer,Desktop or Laptop,Mac OS 10.15.7,Chrome 114.0.0.0,1440x900,1440x789,NA,NA,0,Task Introduction and Instructions (re-introduce video and audio) (Clone),3,ABJCIDHEGF,Passed AC2,,Spreadsheet1,1,Task Instructions,Screen 5,8nvnao,8,continue,,3074.874,3066.544,3074.874,3074.874,3066.544,3074.874,1,3074.874,0,0,NA,Click To Continue,Continue Button,2,object-44,Task Instructions,NA,SUPPRF07437
10,1.70811E+12,16/02/2024 19:22,1.70809E+12,-6,16/02/2024 07:22,166635,2,task-v7r7,NA,35237295,10410377,NA,complete,NA,65cfb1f4bb345b2197aee9aa,computer,Desktop or Laptop,Mac OS 10.15.7,Chrome 114.0.0.0,1440x900,1440x789,NA,NA,0,Task Introduction and Instructions (re-introduce video and audio) (Clone),3,ABJCIDHEGF,Passed AC2,,Spreadsheet1,NA,,,,NA,5,END,NA,NA,NA,NA,NA,NA,0,NA,NA,NA,NA,,,NA,,,NA,SUPPRF07437
1,1.70811E+12,16/02/2024 19:27,1.70811E+12,0,16/02/2024 19:27,166635,2,task-v7r7,NA,35237427,10410439,NA,complete,NA,65cfb4595ff43f82e95cb6b5,computer,Desktop or Laptop,Windows 10,Chrome 121.0.0.0,1280x720,1280x632,NA,NA,0,Task Introduction and Instructions (re-introduce video and audio) (Clone),3,CDBEAFJGIH,Passed AC2,,Spreadsheet1,NA,,,,NA,5,BEGIN,NA,NA,NA,NA,NA,NA,0,NA,NA,NA,NA,,,NA,,,NA,SUPPRF78069
2,1.70811E+12,16/02/2024 19:27,1.70811E+12,0,16/02/2024 19:27,166635,2,task-v7r7,NA,35237427,10410439,NA,complete,NA,65cfb4595ff43f82e95cb6b5,computer,Desktop or Laptop,Windows 10,Chrome 121.0.0.0,1280x720,1280x632,NA,NA,0,Task Introduction and Instructions (re-introduce video and audio) (Clone),3,CDBEAFJGIH,Passed AC2,,Spreadsheet1,1,Task Instructions,Screen 1,anr7sn,1,continue,,3132.3,3115.6,3132.3,3132.3,3115.6,3132.3,1,3132.3,0,0,NA,Click To Continue,Continue Button,3,object-60,Task Instructions,NA,SUPPRF78069
3,1.70811E+12,16/02/2024 19:27,1.70811E+12,0,16/02/2024 19:27,166635,2,task-v7r7,NA,35237427,10410439,NA,complete,NA,65cfb4595ff43f82e95cb6b5,computer,Desktop or Laptop,Windows 10,Chrome 121.0.0.0,1280x720,1280x632,NA,NA,0,Task Introduction and Instructions (re-introduce video and audio) (Clone),3,CDBEAFJGIH,Passed AC2,,Spreadsheet1,1,Task Instructions,Screen 2,ce2tc8,2,continue,,8927.7,8914.2,8927.7,8927.7,8914.2,8927.7,1,8927.7,0,0,NA,Click To Continue,Continue Button,3,object-59,Task Instructions,NA,SUPPRF78069
4,1.70811E+12,16/02/2024 19:27,1.70811E+12,0,16/02/2024 19:27,166635,2,task-v7r7,NA,35237427,10410439,NA,complete,NA,65cfb4595ff43f82e95cb6b5,computer,Desktop or Laptop,Windows 10,Chrome 121.0.0.0,1280x720,1280x632,NA,NA,0,Task Introduction and Instructions (re-introduce video and audio) (Clone),3,CDBEAFJGIH,Passed AC2,,Spreadsheet1,1,Task Instructions,Screen 3,1qtc8v,3,continue,,7788.4,7781.3,7788.4,7788.4,7781.3,7788.4,1,7788.4,0,0,NA,Click To Continue,Continue Button,2,object-2983,Task Instructions,NA,SUPPRF78069
5,1.70811E+12,16/02/2024 19:27,1.70811E+12,0,16/02/2024 19:27,166635,2,task-v7r7,NA,35237427,10410439,NA,complete,NA,65cfb4595ff43f82e95cb6b5,computer,Desktop or Laptop,Windows 10,Chrome 121.0.0.0,1280x720,1280x632,NA,NA,0,Task Introduction and Instructions (re-introduce video and audio) (Clone),3,CDBEAFJGIH,Passed AC2,,Spreadsheet1,1,Task Instructions,Screen 12,1a4vu2,4,continue,,6055.5,6048.4,6055.5,6055.5,6048.4,6055.5,1,6055.5,0,0,NA,Click To Continue,Continue Button,2,object-2466,Task Instructions,NA,SUPPRF78069
6,1.70811E+12,16/02/2024 19:27,1.70811E+12,0,16/02/2024 19:27,166635,2,task-v7r7,NA,35237427,10410439,NA,complete,NA,65cfb4595ff43f82e95cb6b5,computer,Desktop or Laptop,Windows 10,Chrome 121.0.0.0,1280x720,1280x632,NA,NA,0,Task Introduction and Instructions (re-introduce video and audio) (Clone),3,CDBEAFJGIH,Passed AC2,,Spreadsheet1,1,Task Instructions,Screen 13,q9vwda,5,continue,,4994.6,4982,4994.6,4994.6,4982,4994.6,1,4994.6,0,0,NA,Click To Continue,Continue Button,2,object-2989,Task Instructions,NA,SUPPRF78069
7,1.70811E+12,16/02/2024 19:27,1.70811E+12,0,16/02/2024 19:27,166635,2,task-v7r7,NA,35237427,10410439,NA,complete,NA,65cfb4595ff43f82e95cb6b5,computer,Desktop or Laptop,Windows 10,Chrome 121.0.0.0,1280x720,1280x632,NA,NA,0,Task Introduction and Instructions (re-introduce video and audio) (Clone),3,CDBEAFJGIH,Passed AC2,,Spreadsheet1,1,Task Instructions,Screen 11,oyulb7,6,continue,,2477.3,2466,2477.3,2477.3,2466,2477.3,1,2477.3,0,0,NA,Click To Continue,Continue Button,2,object-52,Task Instructions,NA,SUPPRF78069
8,1.70811E+12,16/02/2024 19:27,1.70811E+12,0,16/02/2024 19:27,166635,2,task-v7r7,NA,35237427,10410439,NA,complete,NA,65cfb4595ff43f82e95cb6b5,computer,Desktop or Laptop,Windows 10,Chrome 121.0.0.0,1280x720,1280x632,NA,NA,0,Task Introduction and Instructions (re-introduce video and audio) (Clone),3,CDBEAFJGIH,Passed AC2,,Spreadsheet1,1,Task Instructions,Screen 4,spepx9,7,continue,,3126.1,3116.5,3126.1,3126.1,3116.5,3126.1,1,3126.1,0,0,NA,Click To Continue,Continue Button,2,object-9,Task Instructions,NA,SUPPRF78069
9,1.70811E+12,16/02/2024 19:28,1.70811E+12,0,16/02/2024 19:28,166635,2,task-v7r7,NA,35237427,10410439,NA,complete,NA,65cfb4595ff43f82e95cb6b5,computer,Desktop or Laptop,Windows 10,Chrome 121.0.0.0,1280x720,1280x632,NA,NA,0,Task Introduction and Instructions (re-introduce video and audio) (Clone),3,CDBEAFJGIH,Passed AC2,,Spreadsheet1,1,Task Instructions,Screen 5,8nvnao,8,continue,,2703.2,2699,2703.2,2703.2,2699,2703.2,1,2703.2,0,0,NA,Click To Continue,Continue Button,2,object-44,Task Instructions,NA,SUPPRF78069
10,1.70811E+12,16/02/2024 19:28,1.70811E+12,0,16/02/2024 19:28,166635,2,task-v7r7,NA,35237427,10410439,NA,complete,NA,65cfb4595ff43f82e95cb6b5,computer,Desktop or Laptop,Windows 10,Chrome 121.0.0.0,1280x720,1280x632,NA,NA,0,Task Introduction and Instructions (re-introduce video and audio) (Clone),3,CDBEAFJGIH,Passed AC2,,Spreadsheet1,NA,,,,NA,5,END,NA,NA,NA,NA,NA,NA,0,NA,NA,NA,NA,,,NA,,,NA,SUPPRF78069
1,1.70811E+12,16/02/2024 19:37,1.70812E+12,1,16/02/2024 21:37,166635,2,task-v7r7,NA,35237644,10410440,NA,complete,NA,65cfb45ed03608ff7096d8f5,computer,Desktop or Laptop,Linux x86_64,Chrome 120.0.0.0,412x846,1113x1939,NA,NA,0,Task Introduction and Instructions (re-introduce video and audio) (Clone),3,DECFBGAHJI,Passed AC2,,Spreadsheet1,NA,,,,NA,5,BEGIN,NA,NA,NA,NA,NA,NA,0,NA,NA,NA,NA,,,NA,,,NA,SUPPRF04615
2,1.70811E+12,16/02/2024 19:37,1.70812E+12,1,16/02/2024 21:37,166635,2,task-v7r7,NA,35237644,10410440,NA,complete,NA,65cfb45ed03608ff7096d8f5,computer,Desktop or Laptop,Linux x86_64,Chrome 120.0.0.0,412x846,1113x1939,NA,NA,0,Task Introduction and Instructions (re-introduce video and audio) (Clone),3,DECFBGAHJI,Passed AC2,,Spreadsheet1,1,Task Instructions,Screen 1,anr7sn,1,continue,,53012.275,52995.625,53012.275,53012.275,52995.625,53012.275,1,53012.275,0,0,NA,Click To Continue,Continue Button,3,object-60,Task Instructions,NA,SUPPRF04615
3,1.70811E+12,16/02/2024 19:38,1.70812E+12,1,16/02/2024 21:38,166635,2,task-v7r7,NA,35237644,10410440,NA,complete,NA,65cfb45ed03608ff7096d8f5,computer,Desktop or Laptop,Linux x86_64,Chrome 120.0.0.0,412x846,1113x1939,NA,NA,0,Task Introduction and Instructions (re-introduce video and audio) (Clone),3,DECFBGAHJI,Passed AC2,,Spreadsheet1,1,Task Instructions,Screen 2,ce2tc8,2,continue,,12564.085,12552.862,12564.085,12564.085,12552.862,12564.085,1,12564.085,0,0,NA,Click To Continue,Continue Button,3,object-59,Task Instructions,NA,SUPPRF04615
4,1.70811E+12,16/02/2024 19:38,1.70812E+12,1,16/02/2024 21:38,166635,2,task-v7r7,NA,35237644,10410440,NA,complete,NA,65cfb45ed03608ff7096d8f5,computer,Desktop or Laptop,Linux x86_64,Chrome 120.0.0.0,412x846,1113x1939,NA,NA,0,Task Introduction and Instructions (re-introduce video and audio) (Clone),3,DECFBGAHJI,Passed AC2,,Spreadsheet1,1,Task Instructions,Screen 3,1qtc8v,3,continue,,11854.023,11839.325,11854.023,11854.023,11839.325,11854.023,1,11854.023,0,0,NA,Click To Continue,Continue Button,2,object-2983,Task Instructions,NA,SUPPRF04615
5,1.70811E+12,16/02/2024 19:38,1.70812E+12,1,16/02/2024 21:38,166635,2,task-v7r7,NA,35237644,10410440,NA,complete,NA,65cfb45ed03608ff7096d8f5,computer,Desktop or Laptop,Linux x86_64,Chrome 120.0.0.0,412x846,1113x1939,NA,NA,0,Task Introduction and Instructions (re-introduce video and audio) (Clone),3,DECFBGAHJI,Passed AC2,,Spreadsheet1,1,Task Instructions,Screen 12,1a4vu2,4,continue,,14483.88,14467.218,14483.88,14483.88,14467.218,14483.88,1,14483.88,0,0,NA,Click To Continue,Continue Button,2,object-2466,Task Instructions,NA,SUPPRF04615
6,1.70811E+12,16/02/2024 19:38,1.70812E+12,1,16/02/2024 21:38,166635,2,task-v7r7,NA,35237644,10410440,NA,complete,NA,65cfb45ed03608ff7096d8f5,computer,Desktop or Laptop,Linux x86_64,Chrome 120.0.0.0,412x846,1113x1939,NA,NA,0,Task Introduction and Instructions (re-introduce video and audio) (Clone),3,DECFBGAHJI,Passed AC2,,Spreadsheet1,1,Task Instructions,Screen 13,q9vwda,5,continue,,16768.58,16760.27,16768.58,16768.58,16760.27,16768.58,1,16768.58,0,0,NA,Click To Continue,Continue Button,2,object-2989,Task Instructions,NA,SUPPRF04615
7,1.70811E+12,16/02/2024 19:38,1.70812E+12,1,16/02/2024 21:38,166635,2,task-v7r7,NA,35237644,10410440,NA,complete,NA,65cfb45ed03608ff7096d8f5,computer,Desktop or Laptop,Linux x86_64,Chrome 120.0.0.0,412x846,1113x1939,NA,NA,0,Task Introduction and Instructions (re-introduce video and audio) (Clone),3,DECFBGAHJI,Passed AC2,,Spreadsheet1,1,Task Instructions,Screen 11,oyulb7,6,continue,,6126.61,6115.13,6126.61,6126.61,6115.13,6126.61,1,6126.61,0,0,NA,Click To Continue,Continue Button,2,object-52,Task Instructions,NA,SUPPRF04615
8,1.70811E+12,16/02/2024 19:39,1.70812E+12,1,16/02/2024 21:39,166635,2,task-v7r7,NA,35237644,10410440,NA,complete,NA,65cfb45ed03608ff7096d8f5,computer,Desktop or Laptop,Linux x86_64,Chrome 120.0.0.0,412x846,1113x1939,NA,NA,0,Task Introduction and Instructions (re-introduce video and audio) (Clone),3,DECFBGAHJI,Passed AC2,,Spreadsheet1,1,Task Instructions,Screen 4,spepx9,7,continue,,10854.82,10838.174,10854.82,10854.82,10838.174,10854.82,1,10854.82,0,0,NA,Click To Continue,Continue Button,2,object-9,Task Instructions,NA,SUPPRF04615
9,1.70811E+12,16/02/2024 19:39,1.70812E+12,1,16/02/2024 21:39,166635,2,task-v7r7,NA,35237644,10410440,NA,complete,NA,65cfb45ed03608ff7096d8f5,computer,Desktop or Laptop,Linux x86_64,Chrome 120.0.0.0,412x846,1113x1939,NA,NA,0,Task Introduction and Instructions (re-introduce video and audio) (Clone),3,DECFBGAHJI,Passed AC2,,Spreadsheet1,1,Task Instructions,Screen 5,8nvnao,8,continue,,7278.206,7275.252,7278.206,7278.206,7275.252,7278.206,1,7278.206,0,0,NA,Click To Continue,Continue Button,2,object-44,Task Instructions,NA,SUPPRF04615
10,1.70811E+12,16/02/2024 19:39,1.70812E+12,1,16/02/2024 21:39,166635,2,task-v7r7,NA,35237644,10410440,NA,complete,NA,65cfb45ed03608ff7096d8f5,computer,Desktop or Laptop,Linux x86_64,Chrome 120.0.0.0,412x846,1113x1939,NA,NA,0,Task Introduction and Instructions (re-introduce video and audio) (Clone),3,DECFBGAHJI,Passed AC2,,Spreadsheet1,NA,,,,NA,5,END,NA,NA,NA,NA,NA,NA,0,NA,NA,NA,NA,,,NA,,,NA,SUPPRF04615
1,1.70811E+12,16/02/2024 19:36,1.70811E+12,0,16/02/2024 19:36,166635,2,task-v7r7,NA,35237628,10410473,NA,complete,NA,65cfb5f8f1264ee93bd8ff8d,computer,Desktop or Laptop,Mac OS 10.15.7,Chrome 108.0.0.0,1440x900,1440x821,NA,NA,0,Task Introduction and Instructions (re-introduce video and audio) (Clone),3,EFDGCHBIAJ,Passed AC2,,Spreadsheet1,NA,,,,NA,5,BEGIN,NA,NA,NA,NA,NA,NA,0,NA,NA,NA,NA,,,NA,,,NA,SUPPRF24224
2,1.70811E+12,16/02/2024 19:36,1.70811E+12,0,16/02/2024 19:36,166635,2,task-v7r7,NA,35237628,10410473,NA,complete,NA,65cfb5f8f1264ee93bd8ff8d,computer,Desktop or Laptop,Mac OS 10.15.7,Chrome 108.0.0.0,1440x900,1440x821,NA,NA,0,Task Introduction and Instructions (re-introduce video and audio) (Clone),3,EFDGCHBIAJ,Passed AC2,,Spreadsheet1,1,Task Instructions,Screen 1,anr7sn,1,continue,,5096.855,5080.144,5096.855,5096.855,5080.144,5096.855,1,5096.855,0,0,NA,Click To Continue,Continue Button,3,object-60,Task Instructions,NA,SUPPRF24224
3,1.70811E+12,16/02/2024 19:36,1.70811E+12,0,16/02/2024 19:36,166635,2,task-v7r7,NA,35237628,10410473,NA,complete,NA,65cfb5f8f1264ee93bd8ff8d,computer,Desktop or Laptop,Mac OS 10.15.7,Chrome 108.0.0.0,1440x900,1440x821,NA,NA,0,Task Introduction and Instructions (re-introduce video and audio) (Clone),3,EFDGCHBIAJ,Passed AC2,,Spreadsheet1,1,Task Instructions,Screen 2,ce2tc8,2,continue,,14672.469,14655.758,14672.469,14672.469,14655.758,14672.469,1,14672.469,0,0,NA,Click To Continue,Continue Button,3,object-59,Task Instructions,NA,SUPPRF24224
4,1.70811E+12,16/02/2024 19:36,1.70811E+12,0,16/02/2024 19:36,166635,2,task-v7r7,NA,35237628,10410473,NA,complete,NA,65cfb5f8f1264ee93bd8ff8d,computer,Desktop or Laptop,Mac OS 10.15.7,Chrome 108.0.0.0,1440x900,1440x821,NA,NA,0,Task Introduction and Instructions (re-introduce video and audio) (Clone),3,EFDGCHBIAJ,Passed AC2,,Spreadsheet1,1,Task Instructions,Screen 3,1qtc8v,3,continue,,8506.123,8489.412,8506.123,8506.123,8489.412,8506.123,1,8506.123,0,0,NA,Click To Continue,Continue Button,2,object-2983,Task Instructions,NA,SUPPRF24224
5,1.70811E+12,16/02/2024 19:36,1.70811E+12,0,16/02/2024 19:36,166635,2,task-v7r7,NA,35237628,10410473,NA,complete,NA,65cfb5f8f1264ee93bd8ff8d,computer,Desktop or Laptop,Mac OS 10.15.7,Chrome 108.0.0.0,1440x900,1440x821,NA,NA,0,Task Introduction and Instructions (re-introduce video and audio) (Clone),3,EFDGCHBIAJ,Passed AC2,,Spreadsheet1,1,Task Instructions,Screen 12,1a4vu2,4,continue,,13837.086,13820.375,13837.086,13837.086,13820.375,13837.086,1,13837.086,0,0,NA,Click To Continue,Continue Button,2,object-2466,Task Instructions,NA,SUPPRF24224
6,1.70811E+12,16/02/2024 19:40,1.70811E+12,0,16/02/2024 19:40,166635,2,task-v7r7,NA,35237628,10410473,NA,complete,NA,65cfb5f8f1264ee93bd8ff8d,computer,Desktop or Laptop,Mac OS 10.15.7,Chrome 108.0.0.0,1440x900,1440x821,NA,NA,0,Task Introduction and Instructions (re-introduce video and audio) (Clone),3,EFDGCHBIAJ,Passed AC2,,Spreadsheet1,1,Task Instructions,Screen 13,q9vwda,5,continue,,223680.685,223663.974,223680.685,223680.685,223663.974,223680.685,1,223680.685,0,0,NA,Click To Continue,Continue Button,2,object-2989,Task Instructions,NA,SUPPRF24224
7,1.70811E+12,16/02/2024 19:48,1.70811E+12,0,16/02/2024 19:48,166635,2,task-v7r7,NA,35237628,10410473,NA,complete,NA,65cfb5f8f1264ee93bd8ff8d,computer,Desktop or Laptop,Mac OS 10.15.7,Chrome 108.0.0.0,1440x900,1440x821,NA,NA,0,Task Introduction and Instructions (re-introduce video and audio) (Clone),3,EFDGCHBIAJ,Passed AC2,,Spreadsheet1,1,Task Instructions,Screen 11,oyulb7,6,continue,,448380.757,448364.046,448380.757,448380.757,448364.046,448380.757,1,448380.757,0,0,NA,Click To Continue,Continue Button,2,object-52,Task Instructions,NA,SUPPRF24224
8,1.70811E+12,16/02/2024 19:53,1.70811E+12,0,16/02/2024 19:53,166635,2,task-v7r7,NA,35237628,10410473,NA,complete,NA,65cfb5f8f1264ee93bd8ff8d,computer,Desktop or Laptop,Mac OS 10.15.7,Chrome 108.0.0.0,1440x900,1440x821,NA,NA,0,Task Introduction and Instructions (re-introduce video and audio) (Clone),3,EFDGCHBIAJ,Passed AC2,,Spreadsheet1,1,Task Instructions,Screen 4,spepx9,7,continue,,307321.403,307315.29,307321.403,307321.403,307315.29,307321.403,1,307321.403,0,0,NA,Click To Continue,Continue Button,2,object-9,Task Instructions,NA,SUPPRF24224
9,1.70811E+12,16/02/2024 19:53,1.70811E+12,0,16/02/2024 19:53,166635,2,task-v7r7,NA,35237628,10410473,NA,complete,NA,65cfb5f8f1264ee93bd8ff8d,computer,Desktop or Laptop,Mac OS 10.15.7,Chrome 108.0.0.0,1440x900,1440x821,NA,NA,0,Task Introduction and Instructions (re-introduce video and audio) (Clone),3,EFDGCHBIAJ,Passed AC2,,Spreadsheet1,1,Task Instructions,Screen 5,8nvnao,8,continue,,3765.413,3748.702,3765.413,3765.413,3748.702,3765.413,1,3765.413,0,0,NA,Click To Continue,Continue Button,2,object-44,Task Instructions,NA,SUPPRF24224
10,1.70811E+12,16/02/2024 19:53,1.70811E+12,0,16/02/2024 19:53,166635,2,task-v7r7,NA,35237628,10410473,NA,complete,NA,65cfb5f8f1264ee93bd8ff8d,computer,Desktop or Laptop,Mac OS 10.15.7,Chrome 108.0.0.0,1440x900,1440x821,NA,NA,0,Task Introduction and Instructions (re-introduce video and audio) (Clone),3,EFDGCHBIAJ,Passed AC2,,Spreadsheet1,NA,,,,NA,5,END,NA,NA,NA,NA,NA,NA,0,NA,NA,NA,NA,,,NA,,,NA,SUPPRF24224
1,1.70811E+12,16/02/2024 19:43,1.70811E+12,0,16/02/2024 19:43,166635,2,task-v7r7,NA,35237832,10410522,NA,complete,NA,65cfb67cb613ac74bfe89d1a,computer,Desktop or Laptop,Windows 10,Chrome 121.0.0.0,1366x768,1366x607,NA,NA,0,Task Introduction and Instructions (re-introduce video and audio) (Clone),3,IJHAGBFCED,Passed AC2,,Spreadsheet1,NA,,,,NA,5,BEGIN,NA,NA,NA,NA,NA,NA,0,NA,NA,NA,NA,,,NA,,,NA,SUPPRF54678
2,1.70811E+12,16/02/2024 19:43,1.70811E+12,0,16/02/2024 19:43,166635,2,task-v7r7,NA,35237832,10410522,NA,complete,NA,65cfb67cb613ac74bfe89d1a,computer,Desktop or Laptop,Windows 10,Chrome 121.0.0.0,1366x768,1366x607,NA,NA,0,Task Introduction and Instructions (re-introduce video and audio) (Clone),3,IJHAGBFCED,Passed AC2,,Spreadsheet1,1,Task Instructions,Screen 1,anr7sn,1,continue,,6495.6,6482.4,6495.6,6495.6,6482.4,6495.6,1,6495.6,0,0,NA,Click To Continue,Continue Button,3,object-60,Task Instructions,NA,SUPPRF54678
3,1.70811E+12,16/02/2024 19:43,1.70811E+12,0,16/02/2024 19:43,166635,2,task-v7r7,NA,35237832,10410522,NA,complete,NA,65cfb67cb613ac74bfe89d1a,computer,Desktop or Laptop,Windows 10,Chrome 121.0.0.0,1366x768,1366x607,NA,NA,0,Task Introduction and Instructions (re-introduce video and audio) (Clone),3,IJHAGBFCED,Passed AC2,,Spreadsheet1,1,Task Instructions,Screen 2,ce2tc8,2,continue,,23479.6,23463,23479.6,23479.6,23463,23479.6,1,23479.6,0,0,NA,Click To Continue,Continue Button,3,object-59,Task Instructions,NA,SUPPRF54678
4,1.70811E+12,16/02/2024 19:43,1.70811E+12,0,16/02/2024 19:43,166635,2,task-v7r7,NA,35237832,10410522,NA,complete,NA,65cfb67cb613ac74bfe89d1a,computer,Desktop or Laptop,Windows 10,Chrome 121.0.0.0,1366x768,1366x607,NA,NA,0,Task Introduction and Instructions (re-introduce video and audio) (Clone),3,IJHAGBFCED,Passed AC2,,Spreadsheet1,1,Task Instructions,Screen 3,1qtc8v,3,continue,,7429.9,7415.6,7429.9,7429.9,7415.6,7429.9,1,7429.9,0,0,NA,Click To Continue,Continue Button,2,object-2983,Task Instructions,NA,SUPPRF54678
5,1.70811E+12,16/02/2024 19:43,1.70811E+12,0,16/02/2024 19:43,166635,2,task-v7r7,NA,35237832,10410522,NA,complete,NA,65cfb67cb613ac74bfe89d1a,computer,Desktop or Laptop,Windows 10,Chrome 121.0.0.0,1366x768,1366x607,NA,NA,0,Task Introduction and Instructions (re-introduce video and audio) (Clone),3,IJHAGBFCED,Passed AC2,,Spreadsheet1,1,Task Instructions,Screen 12,1a4vu2,4,continue,,16903.2,16897.4,16903.2,16903.2,16897.4,16903.2,1,16903.2,0,0,NA,Click To Continue,Continue Button,2,object-2466,Task Instructions,NA,SUPPRF54678
6,1.70811E+12,16/02/2024 19:44,1.70811E+12,0,16/02/2024 19:44,166635,2,task-v7r7,NA,35237832,10410522,NA,complete,NA,65cfb67cb613ac74bfe89d1a,computer,Desktop or Laptop,Windows 10,Chrome 121.0.0.0,1366x768,1366x607,NA,NA,0,Task Introduction and Instructions (re-introduce video and audio) (Clone),3,IJHAGBFCED,Passed AC2,,Spreadsheet1,1,Task Instructions,Screen 13,q9vwda,5,continue,,6232.7,6215.9,6232.7,6232.7,6215.9,6232.7,1,6232.7,0,0,NA,Click To Continue,Continue Button,2,object-2989,Task Instructions,NA,SUPPRF54678
7,1.70811E+12,16/02/2024 19:44,1.70811E+12,0,16/02/2024 19:44,166635,2,task-v7r7,NA,35237832,10410522,NA,complete,NA,65cfb67cb613ac74bfe89d1a,computer,Desktop or Laptop,Windows 10,Chrome 121.0.0.0,1366x768,1366x607,NA,NA,0,Task Introduction and Instructions (re-introduce video and audio) (Clone),3,IJHAGBFCED,Passed AC2,,Spreadsheet1,1,Task Instructions,Screen 11,oyulb7,6,continue,,4391.4,4382.4,4391.4,4391.4,4382.4,4391.4,1,4391.4,0,0,NA,Click To Continue,Continue Button,2,object-52,Task Instructions,NA,SUPPRF54678
8,1.70811E+12,16/02/2024 19:44,1.70811E+12,0,16/02/2024 19:44,166635,2,task-v7r7,NA,35237832,10410522,NA,complete,NA,65cfb67cb613ac74bfe89d1a,computer,Desktop or Laptop,Windows 10,Chrome 121.0.0.0,1366x768,1366x607,NA,NA,0,Task Introduction and Instructions (re-introduce video and audio) (Clone),3,IJHAGBFCED,Passed AC2,,Spreadsheet1,1,Task Instructions,Screen 4,spepx9,7,continue,,15684.8,15680.8,15684.8,15684.8,15680.8,15684.8,1,15684.8,0,0,NA,Click To Continue,Continue Button,2,object-9,Task Instructions,NA,SUPPRF54678
9,1.70811E+12,16/02/2024 19:44,1.70811E+12,0,16/02/2024 19:44,166635,2,task-v7r7,NA,35237832,10410522,NA,complete,NA,65cfb67cb613ac74bfe89d1a,computer,Desktop or Laptop,Windows 10,Chrome 121.0.0.0,1366x768,1366x607,NA,NA,0,Task Introduction and Instructions (re-introduce video and audio) (Clone),3,IJHAGBFCED,Passed AC2,,Spreadsheet1,1,Task Instructions,Screen 5,8nvnao,8,continue,,3970.5,3966.2,3970.5,3970.5,3966.2,3970.5,1,3970.5,0,0,NA,Click To Continue,Continue Button,2,object-44,Task Instructions,NA,SUPPRF54678
10,1.70811E+12,16/02/2024 19:44,1.70811E+12,0,16/02/2024 19:44,166635,2,task-v7r7,NA,35237832,10410522,NA,complete,NA,65cfb67cb613ac74bfe89d1a,computer,Desktop or Laptop,Windows 10,Chrome 121.0.0.0,1366x768,1366x607,NA,NA,0,Task Introduction and Instructions (re-introduce video and audio) (Clone),3,IJHAGBFCED,Passed AC2,,Spreadsheet1,NA,,,,NA,5,END,NA,NA,NA,NA,NA,NA,0,NA,NA,NA,NA,,,NA,,,NA,SUPPRF54678
1,1.70811E+12,16/02/2024 19:48,1.70811E+12,0,16/02/2024 19:48,166635,2,task-v7r7,NA,35238022,10410544,NA,complete,NA,65cfb775739cdfcf63af397d,computer,Desktop or Laptop,Mac OS 10.16.0,Chrome 69.0.3497.100,1280x800,1200x590,NA,NA,0,Task Introduction and Instructions (re-introduce video and audio) (Clone),3,JAIBHCGDFE,Passed AC2,,Spreadsheet1,NA,,,,NA,5,BEGIN,NA,NA,NA,NA,NA,NA,0,NA,NA,NA,NA,,,NA,,,NA,SUPPRF68806
2,1.70811E+12,16/02/2024 19:48,1.70811E+12,0,16/02/2024 19:48,166635,2,task-v7r7,NA,35238022,10410544,NA,complete,NA,65cfb775739cdfcf63af397d,computer,Desktop or Laptop,Mac OS 10.16.0,Chrome 69.0.3497.100,1280x800,1200x590,NA,NA,0,Task Introduction and Instructions (re-introduce video and audio) (Clone),3,JAIBHCGDFE,Passed AC2,,Spreadsheet1,1,Task Instructions,Screen 1,anr7sn,1,continue,,3713.792,3701.406,3713.792,3713.792,3701.406,3713.792,1,3713.792,0,0,NA,Click To Continue,Continue Button,3,object-60,Task Instructions,NA,SUPPRF68806
3,1.70811E+12,16/02/2024 19:48,1.70811E+12,0,16/02/2024 19:48,166635,2,task-v7r7,NA,35238022,10410544,NA,complete,NA,65cfb775739cdfcf63af397d,computer,Desktop or Laptop,Mac OS 10.16.0,Chrome 69.0.3497.100,1280x800,1200x590,NA,NA,0,Task Introduction and Instructions (re-introduce video and audio) (Clone),3,JAIBHCGDFE,Passed AC2,,Spreadsheet1,1,Task Instructions,Screen 2,ce2tc8,2,continue,,12101.386,12095.502,12101.386,12101.386,12095.502,12101.386,1,12101.386,0,0,NA,Click To Continue,Continue Button,3,object-59,Task Instructions,NA,SUPPRF68806
4,1.70811E+12,16/02/2024 19:48,1.70811E+12,0,16/02/2024 19:48,166635,2,task-v7r7,NA,35238022,10410544,NA,complete,NA,65cfb775739cdfcf63af397d,computer,Desktop or Laptop,Mac OS 10.16.0,Chrome 69.0.3497.100,1280x800,1200x590,NA,NA,0,Task Introduction and Instructions (re-introduce video and audio) (Clone),3,JAIBHCGDFE,Passed AC2,,Spreadsheet1,1,Task Instructions,Screen 3,1qtc8v,3,continue,,12554.769,12538.096,12554.769,12554.769,12538.096,12554.769,1,12554.769,0,0,NA,Click To Continue,Continue Button,2,object-2983,Task Instructions,NA,SUPPRF68806
5,1.70811E+12,16/02/2024 19:48,1.70811E+12,0,16/02/2024 19:48,166635,2,task-v7r7,NA,35238022,10410544,NA,complete,NA,65cfb775739cdfcf63af397d,computer,Desktop or Laptop,Mac OS 10.16.0,Chrome 69.0.3497.100,1280x800,1200x590,NA,NA,0,Task Introduction and Instructions (re-introduce video and audio) (Clone),3,JAIBHCGDFE,Passed AC2,,Spreadsheet1,1,Task Instructions,Screen 12,1a4vu2,4,continue,,16115.79,16099.117,16115.79,16115.79,16099.117,16115.79,1,16115.79,0,0,NA,Click To Continue,Continue Button,2,object-2466,Task Instructions,NA,SUPPRF68806
6,1.70811E+12,16/02/2024 19:48,1.70811E+12,0,16/02/2024 19:48,166635,2,task-v7r7,NA,35238022,10410544,NA,complete,NA,65cfb775739cdfcf63af397d,computer,Desktop or Laptop,Mac OS 10.16.0,Chrome 69.0.3497.100,1280x800,1200x590,NA,NA,0,Task Introduction and Instructions (re-introduce video and audio) (Clone),3,JAIBHCGDFE,Passed AC2,,Spreadsheet1,1,Task Instructions,Screen 13,q9vwda,5,continue,,5203.771,5200.835,5203.771,5203.771,5200.835,5203.771,1,5203.771,0,0,NA,Click To Continue,Continue Button,2,object-2989,Task Instructions,NA,SUPPRF68806
7,1.70811E+12,16/02/2024 19:48,1.70811E+12,0,16/02/2024 19:48,166635,2,task-v7r7,NA,35238022,10410544,NA,complete,NA,65cfb775739cdfcf63af397d,computer,Desktop or Laptop,Mac OS 10.16.0,Chrome 69.0.3497.100,1280x800,1200x590,NA,NA,0,Task Introduction and Instructions (re-introduce video and audio) (Clone),3,JAIBHCGDFE,Passed AC2,,Spreadsheet1,1,Task Instructions,Screen 11,oyulb7,6,continue,,3680.136,3668.06,3680.136,3680.136,3668.06,3680.136,1,3680.136,0,0,NA,Click To Continue,Continue Button,2,object-52,Task Instructions,NA,SUPPRF68806
8,1.70811E+12,16/02/2024 19:49,1.70811E+12,0,16/02/2024 19:49,166635,2,task-v7r7,NA,35238022,10410544,NA,complete,NA,65cfb775739cdfcf63af397d,computer,Desktop or Laptop,Mac OS 10.16.0,Chrome 69.0.3497.100,1280x800,1200x590,NA,NA,0,Task Introduction and Instructions (re-introduce video and audio) (Clone),3,JAIBHCGDFE,Passed AC2,,Spreadsheet1,1,Task Instructions,Screen 4,spepx9,7,continue,,3094.576,3090.507,3094.576,3094.576,3090.507,3094.576,1,3094.576,0,0,NA,Click To Continue,Continue Button,2,object-9,Task Instructions,NA,SUPPRF68806
9,1.70811E+12,16/02/2024 19:49,1.70811E+12,0,16/02/2024 19:49,166635,2,task-v7r7,NA,35238022,10410544,NA,complete,NA,65cfb775739cdfcf63af397d,computer,Desktop or Laptop,Mac OS 10.16.0,Chrome 69.0.3497.100,1280x800,1200x590,NA,NA,0,Task Introduction and Instructions (re-introduce video and audio) (Clone),3,JAIBHCGDFE,Passed AC2,,Spreadsheet1,1,Task Instructions,Screen 5,8nvnao,8,continue,,2736.869,2734.372,2736.869,2736.869,2734.372,2736.869,1,2736.869,0,0,NA,Click To Continue,Continue Button,2,object-44,Task Instructions,NA,SUPPRF68806
10,1.70811E+12,16/02/2024 19:49,1.70811E+12,0,16/02/2024 19:49,166635,2,task-v7r7,NA,35238022,10410544,NA,complete,NA,65cfb775739cdfcf63af397d,computer,Desktop or Laptop,Mac OS 10.16.0,Chrome 69.0.3497.100,1280x800,1200x590,NA,NA,0,Task Introduction and Instructions (re-introduce video and audio) (Clone),3,JAIBHCGDFE,Passed AC2,,Spreadsheet1,NA,,,,NA,5,END,NA,NA,NA,NA,NA,NA,0,NA,NA,NA,NA,,,NA,,,NA,SUPPRF68806
1,1.70811E+12,16/02/2024 18:09,1.70808E+12,-8,16/02/2024 02:09,166635,2,task-v7r7,NA,35235689,10409670,NA,complete,NA,65cf9bdd7baa2a49168d0052,computer,Desktop or Laptop,Windows 10,Chrome 121.0.0.0,1600x900,1600x765,NA,NA,0,Task Introduction and Instructions (re-introduce video and audio) (Clone),3,BCADJEIFHG,Passed AC2,,Spreadsheet1,NA,,,,NA,5,BEGIN,NA,NA,NA,NA,NA,NA,0,NA,NA,NA,NA,,,NA,,,NA,SUPPRF14876
2,1.70811E+12,16/02/2024 18:09,1.70808E+12,-8,16/02/2024 02:09,166635,2,task-v7r7,NA,35235689,10409670,NA,complete,NA,65cf9bdd7baa2a49168d0052,computer,Desktop or Laptop,Windows 10,Chrome 121.0.0.0,1600x900,1600x765,NA,NA,0,Task Introduction and Instructions (re-introduce video and audio) (Clone),3,BCADJEIFHG,Passed AC2,,Spreadsheet1,1,Task Instructions,Screen 1,anr7sn,1,continue,,8045.4,8020.5,8045.4,8045.4,8020.5,8045.4,1,8045.4,0,0,NA,Click To Continue,Continue Button,3,object-60,Task Instructions,NA,SUPPRF14876
3,1.70811E+12,16/02/2024 18:10,1.70808E+12,-8,16/02/2024 02:10,166635,2,task-v7r7,NA,35235689,10409670,NA,complete,NA,65cf9bdd7baa2a49168d0052,computer,Desktop or Laptop,Windows 10,Chrome 121.0.0.0,1600x900,1600x765,NA,NA,0,Task Introduction and Instructions (re-introduce video and audio) (Clone),3,BCADJEIFHG,Passed AC2,,Spreadsheet1,1,Task Instructions,Screen 2,ce2tc8,2,continue,,23046.9,23037.7,23046.9,23046.9,23037.7,23046.9,1,23046.9,0,0,NA,Click To Continue,Continue Button,3,object-59,Task Instructions,NA,SUPPRF14876
4,1.70811E+12,16/02/2024 18:10,1.70808E+12,-8,16/02/2024 02:10,166635,2,task-v7r7,NA,35235689,10409670,NA,complete,NA,65cf9bdd7baa2a49168d0052,computer,Desktop or Laptop,Windows 10,Chrome 121.0.0.0,1600x900,1600x765,NA,NA,0,Task Introduction and Instructions (re-introduce video and audio) (Clone),3,BCADJEIFHG,Passed AC2,,Spreadsheet1,1,Task Instructions,Screen 3,1qtc8v,3,continue,,10544.5,10519.4,10544.5,10544.5,10519.4,10544.5,1,10544.5,0,0,NA,Click To Continue,Continue Button,2,object-2983,Task Instructions,NA,SUPPRF14876
5,1.70811E+12,16/02/2024 18:10,1.70808E+12,-8,16/02/2024 02:10,166635,2,task-v7r7,NA,35235689,10409670,NA,complete,NA,65cf9bdd7baa2a49168d0052,computer,Desktop or Laptop,Windows 10,Chrome 121.0.0.0,1600x900,1600x765,NA,NA,0,Task Introduction and Instructions (re-introduce video and audio) (Clone),3,BCADJEIFHG,Passed AC2,,Spreadsheet1,1,Task Instructions,Screen 12,1a4vu2,4,continue,,14913.8,14892,14913.8,14913.8,14892,14913.8,1,14913.8,0,0,NA,Click To Continue,Continue Button,2,object-2466,Task Instructions,NA,SUPPRF14876
6,1.70811E+12,16/02/2024 18:10,1.70808E+12,-8,16/02/2024 02:10,166635,2,task-v7r7,NA,35235689,10409670,NA,complete,NA,65cf9bdd7baa2a49168d0052,computer,Desktop or Laptop,Windows 10,Chrome 121.0.0.0,1600x900,1600x765,NA,NA,0,Task Introduction and Instructions (re-introduce video and audio) (Clone),3,BCADJEIFHG,Passed AC2,,Spreadsheet1,1,Task Instructions,Screen 13,q9vwda,5,continue,,20156.2,20139.1,20156.2,20156.2,20139.1,20156.2,1,20156.2,0,0,NA,Click To Continue,Continue Button,2,object-2989,Task Instructions,NA,SUPPRF14876
7,1.70811E+12,16/02/2024 18:10,1.70808E+12,-8,16/02/2024 02:10,166635,2,task-v7r7,NA,35235689,10409670,NA,complete,NA,65cf9bdd7baa2a49168d0052,computer,Desktop or Laptop,Windows 10,Chrome 121.0.0.0,1600x900,1600x765,NA,NA,0,Task Introduction and Instructions (re-introduce video and audio) (Clone),3,BCADJEIFHG,Passed AC2,,Spreadsheet1,1,Task Instructions,Screen 11,oyulb7,6,continue,,6415.5,6396.5,6415.5,6415.5,6396.5,6415.5,1,6415.5,0,0,NA,Click To Continue,Continue Button,2,object-52,Task Instructions,NA,SUPPRF14876
8,1.70811E+12,16/02/2024 18:10,1.70808E+12,-8,16/02/2024 02:10,166635,2,task-v7r7,NA,35235689,10409670,NA,complete,NA,65cf9bdd7baa2a49168d0052,computer,Desktop or Laptop,Windows 10,Chrome 121.0.0.0,1600x900,1600x765,NA,NA,0,Task Introduction and Instructions (re-introduce video and audio) (Clone),3,BCADJEIFHG,Passed AC2,,Spreadsheet1,1,Task Instructions,Screen 4,spepx9,7,continue,,5357.1,5347.6,5357.1,5357.1,5347.6,5357.1,1,5357.1,0,0,NA,Click To Continue,Continue Button,2,object-9,Task Instructions,NA,SUPPRF14876
9,1.70811E+12,16/02/2024 18:11,1.70808E+12,-8,16/02/2024 02:11,166635,2,task-v7r7,NA,35235689,10409670,NA,complete,NA,65cf9bdd7baa2a49168d0052,computer,Desktop or Laptop,Windows 10,Chrome 121.0.0.0,1600x900,1600x765,NA,NA,0,Task Introduction and Instructions (re-introduce video and audio) (Clone),3,BCADJEIFHG,Passed AC2,,Spreadsheet1,1,Task Instructions,Screen 5,8nvnao,8,continue,,5441.1,5421.7,5441.1,5441.1,5421.7,5441.1,1,5441.1,0,0,NA,Click To Continue,Continue Button,2,object-44,Task Instructions,NA,SUPPRF14876
10,1.70811E+12,16/02/2024 18:11,1.70808E+12,-8,16/02/2024 02:11,166635,2,task-v7r7,NA,35235689,10409670,NA,complete,NA,65cf9bdd7baa2a49168d0052,computer,Desktop or Laptop,Windows 10,Chrome 121.0.0.0,1600x900,1600x765,NA,NA,0,Task Introduction and Instructions (re-introduce video and audio) (Clone),3,BCADJEIFHG,Passed AC2,,Spreadsheet1,NA,,,,NA,5,END,NA,NA,NA,NA,NA,NA,0,NA,NA,NA,NA,,,NA,,,NA,SUPPRF14876
1,1.70811E+12,16/02/2024 18:01,1.70811E+12,1,16/02/2024 20:01,166635,2,task-v7r7,NA,35235409,10409683,NA,complete,NA,65cf9c591522a6a49d012188,computer,Desktop or Laptop,Windows 10,Chrome 121.0.0.0,1280x720,1280x632,NA,NA,0,Task Introduction and Instructions (re-introduce video and audio) (Clone),3,ABJCIDHEGF,Failed AC2,Passed AC1,Spreadsheet1,NA,,,,NA,5,BEGIN,NA,NA,NA,NA,NA,NA,0,NA,NA,NA,NA,,,NA,,,NA,SUPPRF61541
2,1.70811E+12,16/02/2024 18:01,1.70811E+12,1,16/02/2024 20:01,166635,2,task-v7r7,NA,35235409,10409683,NA,complete,NA,65cf9c591522a6a49d012188,computer,Desktop or Laptop,Windows 10,Chrome 121.0.0.0,1280x720,1280x632,NA,NA,0,Task Introduction and Instructions (re-introduce video and audio) (Clone),3,ABJCIDHEGF,Failed AC2,Passed AC1,Spreadsheet1,1,Task Instructions,Screen 1,anr7sn,1,continue,,4593.5,4579.3,4593.5,4593.5,4579.3,4593.5,1,4593.5,0,0,NA,Click To Continue,Continue Button,3,object-60,Task Instructions,NA,SUPPRF61541
3,1.70811E+12,16/02/2024 18:01,1.70811E+12,1,16/02/2024 20:01,166635,2,task-v7r7,NA,35235409,10409683,NA,complete,NA,65cf9c591522a6a49d012188,computer,Desktop or Laptop,Windows 10,Chrome 121.0.0.0,1280x720,1280x632,NA,NA,0,Task Introduction and Instructions (re-introduce video and audio) (Clone),3,ABJCIDHEGF,Failed AC2,Passed AC1,Spreadsheet1,1,Task Instructions,Screen 2,ce2tc8,2,continue,,9005.4,8991.8,9005.4,9005.4,8991.8,9005.4,1,9005.4,0,0,NA,Click To Continue,Continue Button,3,object-59,Task Instructions,NA,SUPPRF61541
4,1.70811E+12,16/02/2024 18:01,1.70811E+12,1,16/02/2024 20:01,166635,2,task-v7r7,NA,35235409,10409683,NA,complete,NA,65cf9c591522a6a49d012188,computer,Desktop or Laptop,Windows 10,Chrome 121.0.0.0,1280x720,1280x632,NA,NA,0,Task Introduction and Instructions (re-introduce video and audio) (Clone),3,ABJCIDHEGF,Failed AC2,Passed AC1,Spreadsheet1,1,Task Instructions,Screen 3,1qtc8v,3,continue,,7516,7509.7,7516,7516,7509.7,7516,1,7516,0,0,NA,Click To Continue,Continue Button,2,object-2983,Task Instructions,NA,SUPPRF61541
5,1.70811E+12,16/02/2024 18:01,1.70811E+12,1,16/02/2024 20:01,166635,2,task-v7r7,NA,35235409,10409683,NA,complete,NA,65cf9c591522a6a49d012188,computer,Desktop or Laptop,Windows 10,Chrome 121.0.0.0,1280x720,1280x632,NA,NA,0,Task Introduction and Instructions (re-introduce video and audio) (Clone),3,ABJCIDHEGF,Failed AC2,Passed AC1,Spreadsheet1,1,Task Instructions,Screen 12,1a4vu2,4,continue,,13273.3,13270.3,13273.3,13273.3,13270.3,13273.3,1,13273.3,0,0,NA,Click To Continue,Continue Button,2,object-2466,Task Instructions,NA,SUPPRF61541
6,1.70811E+12,16/02/2024 18:02,1.70811E+12,1,16/02/2024 20:02,166635,2,task-v7r7,NA,35235409,10409683,NA,complete,NA,65cf9c591522a6a49d012188,computer,Desktop or Laptop,Windows 10,Chrome 121.0.0.0,1280x720,1280x632,NA,NA,0,Task Introduction and Instructions (re-introduce video and audio) (Clone),3,ABJCIDHEGF,Failed AC2,Passed AC1,Spreadsheet1,1,Task Instructions,Screen 13,q9vwda,5,continue,,9077.1,9074.8,9077.1,9077.1,9074.8,9077.1,1,9077.1,0,0,NA,Click To Continue,Continue Button,2,object-2989,Task Instructions,NA,SUPPRF61541
7,1.70811E+12,16/02/2024 18:02,1.70811E+12,1,16/02/2024 20:02,166635,2,task-v7r7,NA,35235409,10409683,NA,complete,NA,65cf9c591522a6a49d012188,computer,Desktop or Laptop,Windows 10,Chrome 121.0.0.0,1280x720,1280x632,NA,NA,0,Task Introduction and Instructions (re-introduce video and audio) (Clone),3,ABJCIDHEGF,Failed AC2,Passed AC1,Spreadsheet1,1,Task Instructions,Screen 11,oyulb7,6,continue,,4026.6,4013,4026.6,4026.6,4013,4026.6,1,4026.6,0,0,NA,Click To Continue,Continue Button,2,object-52,Task Instructions,NA,SUPPRF61541
8,1.70811E+12,16/02/2024 18:02,1.70811E+12,1,16/02/2024 20:02,166635,2,task-v7r7,NA,35235409,10409683,NA,complete,NA,65cf9c591522a6a49d012188,computer,Desktop or Laptop,Windows 10,Chrome 121.0.0.0,1280x720,1280x632,NA,NA,0,Task Introduction and Instructions (re-introduce video and audio) (Clone),3,ABJCIDHEGF,Failed AC2,Passed AC1,Spreadsheet1,1,Task Instructions,Screen 4,spepx9,7,continue,,5449.8,5445.2,5449.8,5449.8,5445.2,5449.8,1,5449.8,0,0,NA,Click To Continue,Continue Button,2,object-9,Task Instructions,NA,SUPPRF61541
9,1.70811E+12,16/02/2024 18:02,1.70811E+12,1,16/02/2024 20:02,166635,2,task-v7r7,NA,35235409,10409683,NA,complete,NA,65cf9c591522a6a49d012188,computer,Desktop or Laptop,Windows 10,Chrome 121.0.0.0,1280x720,1280x632,NA,NA,0,Task Introduction and Instructions (re-introduce video and audio) (Clone),3,ABJCIDHEGF,Failed AC2,Passed AC1,Spreadsheet1,1,Task Instructions,Screen 5,8nvnao,8,continue,,3324.4,3313.7,3324.4,3324.4,3313.7,3324.4,1,3324.4,0,0,NA,Click To Continue,Continue Button,2,object-44,Task Instructions,NA,SUPPRF61541
10,1.70811E+12,16/02/2024 18:02,1.70811E+12,1,16/02/2024 20:02,166635,2,task-v7r7,NA,35235409,10409683,NA,complete,NA,65cf9c591522a6a49d012188,computer,Desktop or Laptop,Windows 10,Chrome 121.0.0.0,1280x720,1280x632,NA,NA,0,Task Introduction and Instructions (re-introduce video and audio) (Clone),3,ABJCIDHEGF,Failed AC2,Passed AC1,Spreadsheet1,NA,,,,NA,5,END,NA,NA,NA,NA,NA,NA,0,NA,NA,NA,NA,,,NA,,,NA,SUPPRF61541
1,1.70811E+12,16/02/2024 19:52,1.70811E+12,0,16/02/2024 19:52,166635,2,task-v7r7,NA,35238195,10410507,NA,complete,NA,65cfb71a6c39a6d844a84def,computer,Desktop or Laptop,Windows 10,Chrome 121.0.0.0,1536x864,1536x738,NA,NA,0,Task Introduction and Instructions (re-introduce video and audio) (Clone),3,FGEHDICJBA,Passed AC2,,Spreadsheet1,NA,,,,NA,5,BEGIN,NA,NA,NA,NA,NA,NA,0,NA,NA,NA,NA,,,NA,,,NA,SUPPRF68193
2,1.70811E+12,16/02/2024 19:52,1.70811E+12,0,16/02/2024 19:52,166635,2,task-v7r7,NA,35238195,10410507,NA,complete,NA,65cfb71a6c39a6d844a84def,computer,Desktop or Laptop,Windows 10,Chrome 121.0.0.0,1536x864,1536x738,NA,NA,0,Task Introduction and Instructions (re-introduce video and audio) (Clone),3,FGEHDICJBA,Passed AC2,,Spreadsheet1,1,Task Instructions,Screen 1,anr7sn,1,continue,,3567.1,3562.4,3567.1,3567.1,3562.4,3567.1,1,3567.1,0,0,NA,Click To Continue,Continue Button,3,object-60,Task Instructions,NA,SUPPRF68193
3,1.70811E+12,16/02/2024 19:53,1.70811E+12,0,16/02/2024 19:53,166635,2,task-v7r7,NA,35238195,10410507,NA,complete,NA,65cfb71a6c39a6d844a84def,computer,Desktop or Laptop,Windows 10,Chrome 121.0.0.0,1536x864,1536x738,NA,NA,0,Task Introduction and Instructions (re-introduce video and audio) (Clone),3,FGEHDICJBA,Passed AC2,,Spreadsheet1,1,Task Instructions,Screen 2,ce2tc8,2,continue,,5041.9,5034.9,5041.9,5041.9,5034.9,5041.9,1,5041.9,0,0,NA,Click To Continue,Continue Button,3,object-59,Task Instructions,NA,SUPPRF68193
4,1.70811E+12,16/02/2024 19:53,1.70811E+12,0,16/02/2024 19:53,166635,2,task-v7r7,NA,35238195,10410507,NA,complete,NA,65cfb71a6c39a6d844a84def,computer,Desktop or Laptop,Windows 10,Chrome 121.0.0.0,1536x864,1536x738,NA,NA,0,Task Introduction and Instructions (re-introduce video and audio) (Clone),3,FGEHDICJBA,Passed AC2,,Spreadsheet1,1,Task Instructions,Screen 3,1qtc8v,3,continue,,28269.7,28263.9,28269.7,28269.7,28263.9,28269.7,1,28269.7,0,0,NA,Click To Continue,Continue Button,2,object-2983,Task Instructions,NA,SUPPRF68193
5,1.70811E+12,16/02/2024 19:53,1.70811E+12,0,16/02/2024 19:53,166635,2,task-v7r7,NA,35238195,10410507,NA,complete,NA,65cfb71a6c39a6d844a84def,computer,Desktop or Laptop,Windows 10,Chrome 121.0.0.0,1536x864,1536x738,NA,NA,0,Task Introduction and Instructions (re-introduce video and audio) (Clone),3,FGEHDICJBA,Passed AC2,,Spreadsheet1,1,Task Instructions,Screen 12,1a4vu2,4,continue,,4758.6,4756.8,4758.6,4758.6,4756.8,4758.6,1,4758.6,0,0,NA,Click To Continue,Continue Button,2,object-2466,Task Instructions,NA,SUPPRF68193
6,1.70811E+12,16/02/2024 19:53,1.70811E+12,0,16/02/2024 19:53,166635,2,task-v7r7,NA,35238195,10410507,NA,complete,NA,65cfb71a6c39a6d844a84def,computer,Desktop or Laptop,Windows 10,Chrome 121.0.0.0,1536x864,1536x738,NA,NA,0,Task Introduction and Instructions (re-introduce video and audio) (Clone),3,FGEHDICJBA,Passed AC2,,Spreadsheet1,1,Task Instructions,Screen 13,q9vwda,5,continue,,8688.9,8687.5,8688.9,8688.9,8687.5,8688.9,1,8688.9,0,0,NA,Click To Continue,Continue Button,2,object-2989,Task Instructions,NA,SUPPRF68193
7,1.70811E+12,16/02/2024 19:53,1.70811E+12,0,16/02/2024 19:53,166635,2,task-v7r7,NA,35238195,10410507,NA,complete,NA,65cfb71a6c39a6d844a84def,computer,Desktop or Laptop,Windows 10,Chrome 121.0.0.0,1536x864,1536x738,NA,NA,0,Task Introduction and Instructions (re-introduce video and audio) (Clone),3,FGEHDICJBA,Passed AC2,,Spreadsheet1,1,Task Instructions,Screen 11,oyulb7,6,continue,,3864.9,3861.1,3864.9,3864.9,3861.1,3864.9,1,3864.9,0,0,NA,Click To Continue,Continue Button,2,object-52,Task Instructions,NA,SUPPRF68193
8,1.70811E+12,16/02/2024 19:53,1.70811E+12,0,16/02/2024 19:53,166635,2,task-v7r7,NA,35238195,10410507,NA,complete,NA,65cfb71a6c39a6d844a84def,computer,Desktop or Laptop,Windows 10,Chrome 121.0.0.0,1536x864,1536x738,NA,NA,0,Task Introduction and Instructions (re-introduce video and audio) (Clone),3,FGEHDICJBA,Passed AC2,,Spreadsheet1,1,Task Instructions,Screen 4,spepx9,7,continue,,4104.7,4104.1,4104.7,4104.7,4104.1,4104.7,1,4104.7,0,0,NA,Click To Continue,Continue Button,2,object-9,Task Instructions,NA,SUPPRF68193
9,1.70811E+12,16/02/2024 19:53,1.70811E+12,0,16/02/2024 19:53,166635,2,task-v7r7,NA,35238195,10410507,NA,complete,NA,65cfb71a6c39a6d844a84def,computer,Desktop or Laptop,Windows 10,Chrome 121.0.0.0,1536x864,1536x738,NA,NA,0,Task Introduction and Instructions (re-introduce video and audio) (Clone),3,FGEHDICJBA,Passed AC2,,Spreadsheet1,1,Task Instructions,Screen 5,8nvnao,8,continue,,4065.7,4062.5,4065.7,4065.7,4062.5,4065.7,1,4065.7,0,0,NA,Click To Continue,Continue Button,2,object-44,Task Instructions,NA,SUPPRF68193
10,1.70811E+12,16/02/2024 19:53,1.70811E+12,0,16/02/2024 19:53,166635,2,task-v7r7,NA,35238195,10410507,NA,complete,NA,65cfb71a6c39a6d844a84def,computer,Desktop or Laptop,Windows 10,Chrome 121.0.0.0,1536x864,1536x738,NA,NA,0,Task Introduction and Instructions (re-introduce video and audio) (Clone),3,FGEHDICJBA,Passed AC2,,Spreadsheet1,NA,,,,NA,5,END,NA,NA,NA,NA,NA,NA,0,NA,NA,NA,NA,,,NA,,,NA,SUPPRF68193
1,1.70811E+12,16/02/2024 19:55,1.7081E+12,-5,16/02/2024 09:55,166635,2,task-v7r7,NA,35238274,10410648,NA,complete,NA,65cfbb453bcd2ef77a27c04d,computer,Desktop or Laptop,Mac OS 10.15.7,Chrome 121.0.0.0,1440x900,1440x789,NA,NA,0,Task Introduction and Instructions (re-introduce video and audio) (Clone),3,ABJCIDHEGF,Passed AC2,,Spreadsheet1,NA,,,,NA,5,BEGIN,NA,NA,NA,NA,NA,NA,0,NA,NA,NA,NA,,,NA,,,NA,SUPPRF52996
2,1.70811E+12,16/02/2024 19:55,1.7081E+12,-5,16/02/2024 09:55,166635,2,task-v7r7,NA,35238274,10410648,NA,complete,NA,65cfbb453bcd2ef77a27c04d,computer,Desktop or Laptop,Mac OS 10.15.7,Chrome 121.0.0.0,1440x900,1440x789,NA,NA,0,Task Introduction and Instructions (re-introduce video and audio) (Clone),3,ABJCIDHEGF,Passed AC2,,Spreadsheet1,1,Task Instructions,Screen 1,anr7sn,1,continue,,13465.3,13449.9,13465.3,13465.3,13449.9,13465.3,1,13465.3,0,0,NA,Click To Continue,Continue Button,3,object-60,Task Instructions,NA,SUPPRF52996
3,1.70811E+12,16/02/2024 19:55,1.7081E+12,-5,16/02/2024 09:55,166635,2,task-v7r7,NA,35238274,10410648,NA,complete,NA,65cfbb453bcd2ef77a27c04d,computer,Desktop or Laptop,Mac OS 10.15.7,Chrome 121.0.0.0,1440x900,1440x789,NA,NA,0,Task Introduction and Instructions (re-introduce video and audio) (Clone),3,ABJCIDHEGF,Passed AC2,,Spreadsheet1,1,Task Instructions,Screen 2,ce2tc8,2,continue,,18417,18416,18417,18417,18416,18417,1,18417,0,0,NA,Click To Continue,Continue Button,3,object-59,Task Instructions,NA,SUPPRF52996
4,1.70811E+12,16/02/2024 19:56,1.7081E+12,-5,16/02/2024 09:56,166635,2,task-v7r7,NA,35238274,10410648,NA,complete,NA,65cfbb453bcd2ef77a27c04d,computer,Desktop or Laptop,Mac OS 10.15.7,Chrome 121.0.0.0,1440x900,1440x789,NA,NA,0,Task Introduction and Instructions (re-introduce video and audio) (Clone),3,ABJCIDHEGF,Passed AC2,,Spreadsheet1,1,Task Instructions,Screen 3,1qtc8v,3,continue,,7879.2,7866.9,7879.2,7879.2,7866.9,7879.2,1,7879.2,0,0,NA,Click To Continue,Continue Button,2,object-2983,Task Instructions,NA,SUPPRF52996
5,1.70811E+12,16/02/2024 19:56,1.7081E+12,-5,16/02/2024 09:56,166635,2,task-v7r7,NA,35238274,10410648,NA,complete,NA,65cfbb453bcd2ef77a27c04d,computer,Desktop or Laptop,Mac OS 10.15.7,Chrome 121.0.0.0,1440x900,1440x789,NA,NA,0,Task Introduction and Instructions (re-introduce video and audio) (Clone),3,ABJCIDHEGF,Passed AC2,,Spreadsheet1,1,Task Instructions,Screen 12,1a4vu2,4,continue,,5995,5983.3,5995,5995,5983.3,5995,1,5995,0,0,NA,Click To Continue,Continue Button,2,object-2466,Task Instructions,NA,SUPPRF52996
6,1.70811E+12,16/02/2024 19:56,1.7081E+12,-5,16/02/2024 09:56,166635,2,task-v7r7,NA,35238274,10410648,NA,complete,NA,65cfbb453bcd2ef77a27c04d,computer,Desktop or Laptop,Mac OS 10.15.7,Chrome 121.0.0.0,1440x900,1440x789,NA,NA,0,Task Introduction and Instructions (re-introduce video and audio) (Clone),3,ABJCIDHEGF,Passed AC2,,Spreadsheet1,1,Task Instructions,Screen 13,q9vwda,5,continue,,5032.3,5015.6,5032.3,5032.3,5015.6,5032.3,1,5032.3,0,0,NA,Click To Continue,Continue Button,2,object-2989,Task Instructions,NA,SUPPRF52996
7,1.70811E+12,16/02/2024 19:56,1.7081E+12,-5,16/02/2024 09:56,166635,2,task-v7r7,NA,35238274,10410648,NA,complete,NA,65cfbb453bcd2ef77a27c04d,computer,Desktop or Laptop,Mac OS 10.15.7,Chrome 121.0.0.0,1440x900,1440x789,NA,NA,0,Task Introduction and Instructions (re-introduce video and audio) (Clone),3,ABJCIDHEGF,Passed AC2,,Spreadsheet1,1,Task Instructions,Screen 11,oyulb7,6,continue,,2847.7,2834.2,2847.7,2847.7,2834.2,2847.7,1,2847.7,0,0,NA,Click To Continue,Continue Button,2,object-52,Task Instructions,NA,SUPPRF52996
8,1.70811E+12,16/02/2024 19:56,1.7081E+12,-5,16/02/2024 09:56,166635,2,task-v7r7,NA,35238274,10410648,NA,complete,NA,65cfbb453bcd2ef77a27c04d,computer,Desktop or Laptop,Mac OS 10.15.7,Chrome 121.0.0.0,1440x900,1440x789,NA,NA,0,Task Introduction and Instructions (re-introduce video and audio) (Clone),3,ABJCIDHEGF,Passed AC2,,Spreadsheet1,1,Task Instructions,Screen 4,spepx9,7,continue,,4085.8,4082.4,4085.8,4085.8,4082.4,4085.8,1,4085.8,0,0,NA,Click To Continue,Continue Button,2,object-9,Task Instructions,NA,SUPPRF52996
9,1.70811E+12,16/02/2024 19:56,1.7081E+12,-5,16/02/2024 09:56,166635,2,task-v7r7,NA,35238274,10410648,NA,complete,NA,65cfbb453bcd2ef77a27c04d,computer,Desktop or Laptop,Mac OS 10.15.7,Chrome 121.0.0.0,1440x900,1440x789,NA,NA,0,Task Introduction and Instructions (re-introduce video and audio) (Clone),3,ABJCIDHEGF,Passed AC2,,Spreadsheet1,1,Task Instructions,Screen 5,8nvnao,8,continue,,2783.1,2766.5,2783.1,2783.1,2766.5,2783.1,1,2783.1,0,0,NA,Click To Continue,Continue Button,2,object-44,Task Instructions,NA,SUPPRF52996
10,1.70811E+12,16/02/2024 19:56,1.7081E+12,-5,16/02/2024 09:56,166635,2,task-v7r7,NA,35238274,10410648,NA,complete,NA,65cfbb453bcd2ef77a27c04d,computer,Desktop or Laptop,Mac OS 10.15.7,Chrome 121.0.0.0,1440x900,1440x789,NA,NA,0,Task Introduction and Instructions (re-introduce video and audio) (Clone),3,ABJCIDHEGF,Passed AC2,,Spreadsheet1,NA,,,,NA,5,END,NA,NA,NA,NA,NA,NA,0,NA,NA,NA,NA,,,NA,,,NA,SUPPRF52996
1,1.70812E+12,16/02/2024 20:44,1.70812E+12,0,16/02/2024 20:44,166635,2,task-v7r7,NA,35239820,10410854,NA,complete,NA,65cfac1bb0283ebbe7149ea7,computer,Desktop or Laptop,Windows 10,Chrome 121.0.0.0,1366x768,1366x641,NA,NA,0,Task Introduction and Instructions (re-introduce video and audio) (Clone),3,CDBEAFJGIH,Passed AC2,,Spreadsheet1,NA,,,,NA,5,BEGIN,NA,NA,NA,NA,NA,NA,0,NA,NA,NA,NA,,,NA,,,NA,SUPPRF81177
2,1.70812E+12,16/02/2024 20:44,1.70812E+12,0,16/02/2024 20:44,166635,2,task-v7r7,NA,35239820,10410854,NA,complete,NA,65cfac1bb0283ebbe7149ea7,computer,Desktop or Laptop,Windows 10,Chrome 121.0.0.0,1366x768,1366x641,NA,NA,0,Task Introduction and Instructions (re-introduce video and audio) (Clone),3,CDBEAFJGIH,Passed AC2,,Spreadsheet1,1,Task Instructions,Screen 1,anr7sn,1,continue,,7006.1,6989.5,7006.1,7006.1,6989.5,7006.1,1,7006.1,0,0,NA,Click To Continue,Continue Button,3,object-60,Task Instructions,NA,SUPPRF81177
3,1.70812E+12,16/02/2024 20:44,1.70812E+12,0,16/02/2024 20:44,166635,2,task-v7r7,NA,35239820,10410854,NA,complete,NA,65cfac1bb0283ebbe7149ea7,computer,Desktop or Laptop,Windows 10,Chrome 121.0.0.0,1366x768,1366x641,NA,NA,0,Task Introduction and Instructions (re-introduce video and audio) (Clone),3,CDBEAFJGIH,Passed AC2,,Spreadsheet1,1,Task Instructions,Screen 2,ce2tc8,2,continue,,19009.7,19000.9,19009.7,19009.7,19000.9,19009.7,1,19009.7,0,0,NA,Click To Continue,Continue Button,3,object-59,Task Instructions,NA,SUPPRF81177
4,1.70812E+12,16/02/2024 20:44,1.70812E+12,0,16/02/2024 20:44,166635,2,task-v7r7,NA,35239820,10410854,NA,complete,NA,65cfac1bb0283ebbe7149ea7,computer,Desktop or Laptop,Windows 10,Chrome 121.0.0.0,1366x768,1366x641,NA,NA,0,Task Introduction and Instructions (re-introduce video and audio) (Clone),3,CDBEAFJGIH,Passed AC2,,Spreadsheet1,1,Task Instructions,Screen 3,1qtc8v,3,continue,,14038.6,14032.5,14038.6,14038.6,14032.5,14038.6,1,14038.6,0,0,NA,Click To Continue,Continue Button,2,object-2983,Task Instructions,NA,SUPPRF81177
5,1.70812E+12,16/02/2024 20:45,1.70812E+12,0,16/02/2024 20:45,166635,2,task-v7r7,NA,35239820,10410854,NA,complete,NA,65cfac1bb0283ebbe7149ea7,computer,Desktop or Laptop,Windows 10,Chrome 121.0.0.0,1366x768,1366x641,NA,NA,0,Task Introduction and Instructions (re-introduce video and audio) (Clone),3,CDBEAFJGIH,Passed AC2,,Spreadsheet1,1,Task Instructions,Screen 12,1a4vu2,4,continue,,29870.7,29860.1,29870.7,29870.7,29860.1,29870.7,1,29870.7,0,0,NA,Click To Continue,Continue Button,2,object-2466,Task Instructions,NA,SUPPRF81177
6,1.70812E+12,16/02/2024 20:45,1.70812E+12,0,16/02/2024 20:45,166635,2,task-v7r7,NA,35239820,10410854,NA,complete,NA,65cfac1bb0283ebbe7149ea7,computer,Desktop or Laptop,Windows 10,Chrome 121.0.0.0,1366x768,1366x641,NA,NA,0,Task Introduction and Instructions (re-introduce video and audio) (Clone),3,CDBEAFJGIH,Passed AC2,,Spreadsheet1,1,Task Instructions,Screen 13,q9vwda,5,continue,,17576.1,17566.4,17576.1,17576.1,17566.4,17576.1,1,17576.1,0,0,NA,Click To Continue,Continue Button,2,object-2989,Task Instructions,NA,SUPPRF81177
7,1.70812E+12,16/02/2024 20:45,1.70812E+12,0,16/02/2024 20:45,166635,2,task-v7r7,NA,35239820,10410854,NA,complete,NA,65cfac1bb0283ebbe7149ea7,computer,Desktop or Laptop,Windows 10,Chrome 121.0.0.0,1366x768,1366x641,NA,NA,0,Task Introduction and Instructions (re-introduce video and audio) (Clone),3,CDBEAFJGIH,Passed AC2,,Spreadsheet1,1,Task Instructions,Screen 11,oyulb7,6,continue,,6242.6,6226.7,6242.6,6242.6,6226.7,6242.6,1,6242.6,0,0,NA,Click To Continue,Continue Button,2,object-52,Task Instructions,NA,SUPPRF81177
8,1.70812E+12,16/02/2024 20:45,1.70812E+12,0,16/02/2024 20:45,166635,2,task-v7r7,NA,35239820,10410854,NA,complete,NA,65cfac1bb0283ebbe7149ea7,computer,Desktop or Laptop,Windows 10,Chrome 121.0.0.0,1366x768,1366x641,NA,NA,0,Task Introduction and Instructions (re-introduce video and audio) (Clone),3,CDBEAFJGIH,Passed AC2,,Spreadsheet1,1,Task Instructions,Screen 4,spepx9,7,continue,,6672.6,6656.3,6672.6,6672.6,6656.3,6672.6,1,6672.6,0,0,NA,Click To Continue,Continue Button,2,object-9,Task Instructions,NA,SUPPRF81177
9,1.70812E+12,16/02/2024 20:45,1.70812E+12,0,16/02/2024 20:45,166635,2,task-v7r7,NA,35239820,10410854,NA,complete,NA,65cfac1bb0283ebbe7149ea7,computer,Desktop or Laptop,Windows 10,Chrome 121.0.0.0,1366x768,1366x641,NA,NA,0,Task Introduction and Instructions (re-introduce video and audio) (Clone),3,CDBEAFJGIH,Passed AC2,,Spreadsheet1,1,Task Instructions,Screen 5,8nvnao,8,continue,,7381.3,7365.3,7381.3,7381.3,7365.3,7381.3,1,7381.3,0,0,NA,Click To Continue,Continue Button,2,object-44,Task Instructions,NA,SUPPRF81177
10,1.70812E+12,16/02/2024 20:45,1.70812E+12,0,16/02/2024 20:45,166635,2,task-v7r7,NA,35239820,10410854,NA,complete,NA,65cfac1bb0283ebbe7149ea7,computer,Desktop or Laptop,Windows 10,Chrome 121.0.0.0,1366x768,1366x641,NA,NA,0,Task Introduction and Instructions (re-introduce video and audio) (Clone),3,CDBEAFJGIH,Passed AC2,,Spreadsheet1,NA,,,,NA,5,END,NA,NA,NA,NA,NA,NA,0,NA,NA,NA,NA,,,NA,,,NA,SUPPRF81177
1,1.70812E+12,16/02/2024 21:18,1.70809E+12,-8,16/02/2024 05:18,166635,2,task-v7r7,NA,35240593,10411297,NA,complete,NA,65cfcdd84190d5f435c1e579,computer,Desktop or Laptop,Windows 10,Chrome 121.0.0.0,1920x1080,1920x919,NA,NA,0,Task Introduction and Instructions (re-introduce video and audio) (Clone),3,DECFBGAHJI,Passed AC2,,Spreadsheet1,NA,,,,NA,5,BEGIN,NA,NA,NA,NA,NA,NA,0,NA,NA,NA,NA,,,NA,,,NA,SUPPRF57917
2,1.70812E+12,16/02/2024 21:18,1.70809E+12,-8,16/02/2024 05:18,166635,2,task-v7r7,NA,35240593,10411297,NA,complete,NA,65cfcdd84190d5f435c1e579,computer,Desktop or Laptop,Windows 10,Chrome 121.0.0.0,1920x1080,1920x919,NA,NA,0,Task Introduction and Instructions (re-introduce video and audio) (Clone),3,DECFBGAHJI,Passed AC2,,Spreadsheet1,1,Task Instructions,Screen 1,anr7sn,1,continue,,3854.8,3849.4,3854.8,3854.8,3849.4,3854.8,1,3854.8,0,0,NA,Click To Continue,Continue Button,3,object-60,Task Instructions,NA,SUPPRF57917
3,1.70812E+12,16/02/2024 21:18,1.70809E+12,-8,16/02/2024 05:18,166635,2,task-v7r7,NA,35240593,10411297,NA,complete,NA,65cfcdd84190d5f435c1e579,computer,Desktop or Laptop,Windows 10,Chrome 121.0.0.0,1920x1080,1920x919,NA,NA,0,Task Introduction and Instructions (re-introduce video and audio) (Clone),3,DECFBGAHJI,Passed AC2,,Spreadsheet1,1,Task Instructions,Screen 2,ce2tc8,2,continue,,9989.6,9982.2,9989.6,9989.6,9982.2,9989.6,1,9989.6,0,0,NA,Click To Continue,Continue Button,3,object-59,Task Instructions,NA,SUPPRF57917
4,1.70812E+12,16/02/2024 21:18,1.70809E+12,-8,16/02/2024 05:18,166635,2,task-v7r7,NA,35240593,10411297,NA,complete,NA,65cfcdd84190d5f435c1e579,computer,Desktop or Laptop,Windows 10,Chrome 121.0.0.0,1920x1080,1920x919,NA,NA,0,Task Introduction and Instructions (re-introduce video and audio) (Clone),3,DECFBGAHJI,Passed AC2,,Spreadsheet1,1,Task Instructions,Screen 3,1qtc8v,3,continue,,6187.2,6182.7,6187.2,6187.2,6182.7,6187.2,1,6187.2,0,0,NA,Click To Continue,Continue Button,2,object-2983,Task Instructions,NA,SUPPRF57917
5,1.70812E+12,16/02/2024 21:18,1.70809E+12,-8,16/02/2024 05:18,166635,2,task-v7r7,NA,35240593,10411297,NA,complete,NA,65cfcdd84190d5f435c1e579,computer,Desktop or Laptop,Windows 10,Chrome 121.0.0.0,1920x1080,1920x919,NA,NA,0,Task Introduction and Instructions (re-introduce video and audio) (Clone),3,DECFBGAHJI,Passed AC2,,Spreadsheet1,1,Task Instructions,Screen 12,1a4vu2,4,continue,,7888.4,7882.4,7888.4,7888.4,7882.4,7888.4,1,7888.4,0,0,NA,Click To Continue,Continue Button,2,object-2466,Task Instructions,NA,SUPPRF57917
6,1.70812E+12,16/02/2024 21:18,1.70809E+12,-8,16/02/2024 05:18,166635,2,task-v7r7,NA,35240593,10411297,NA,complete,NA,65cfcdd84190d5f435c1e579,computer,Desktop or Laptop,Windows 10,Chrome 121.0.0.0,1920x1080,1920x919,NA,NA,0,Task Introduction and Instructions (re-introduce video and audio) (Clone),3,DECFBGAHJI,Passed AC2,,Spreadsheet1,1,Task Instructions,Screen 13,q9vwda,5,continue,,4720.5,4716.2,4720.5,4720.5,4716.2,4720.5,1,4720.5,0,0,NA,Click To Continue,Continue Button,2,object-2989,Task Instructions,NA,SUPPRF57917
7,1.70812E+12,16/02/2024 21:18,1.70809E+12,-8,16/02/2024 05:18,166635,2,task-v7r7,NA,35240593,10411297,NA,complete,NA,65cfcdd84190d5f435c1e579,computer,Desktop or Laptop,Windows 10,Chrome 121.0.0.0,1920x1080,1920x919,NA,NA,0,Task Introduction and Instructions (re-introduce video and audio) (Clone),3,DECFBGAHJI,Passed AC2,,Spreadsheet1,1,Task Instructions,Screen 11,oyulb7,6,continue,,3031.9,3016.3,3031.9,3031.9,3016.3,3031.9,1,3031.9,0,0,NA,Click To Continue,Continue Button,2,object-52,Task Instructions,NA,SUPPRF57917
8,1.70812E+12,16/02/2024 21:18,1.70809E+12,-8,16/02/2024 05:18,166635,2,task-v7r7,NA,35240593,10411297,NA,complete,NA,65cfcdd84190d5f435c1e579,computer,Desktop or Laptop,Windows 10,Chrome 121.0.0.0,1920x1080,1920x919,NA,NA,0,Task Introduction and Instructions (re-introduce video and audio) (Clone),3,DECFBGAHJI,Passed AC2,,Spreadsheet1,1,Task Instructions,Screen 4,spepx9,7,continue,,2875.3,2866.3,2875.3,2875.3,2866.3,2875.3,1,2875.3,0,0,NA,Click To Continue,Continue Button,2,object-9,Task Instructions,NA,SUPPRF57917
9,1.70812E+12,16/02/2024 21:18,1.70809E+12,-8,16/02/2024 05:18,166635,2,task-v7r7,NA,35240593,10411297,NA,complete,NA,65cfcdd84190d5f435c1e579,computer,Desktop or Laptop,Windows 10,Chrome 121.0.0.0,1920x1080,1920x919,NA,NA,0,Task Introduction and Instructions (re-introduce video and audio) (Clone),3,DECFBGAHJI,Passed AC2,,Spreadsheet1,1,Task Instructions,Screen 5,8nvnao,8,continue,,2853.1,2849.7,2853.1,2853.1,2849.7,2853.1,1,2853.1,0,0,NA,Click To Continue,Continue Button,2,object-44,Task Instructions,NA,SUPPRF57917
10,1.70812E+12,16/02/2024 21:18,1.70809E+12,-8,16/02/2024 05:18,166635,2,task-v7r7,NA,35240593,10411297,NA,complete,NA,65cfcdd84190d5f435c1e579,computer,Desktop or Laptop,Windows 10,Chrome 121.0.0.0,1920x1080,1920x919,NA,NA,0,Task Introduction and Instructions (re-introduce video and audio) (Clone),3,DECFBGAHJI,Passed AC2,,Spreadsheet1,NA,,,,NA,5,END,NA,NA,NA,NA,NA,NA,0,NA,NA,NA,NA,,,NA,,,NA,SUPPRF57917
1,1.70812E+12,16/02/2024 21:52,1.7081E+12,-5,16/02/2024 11:52,166635,2,task-v7r7,NA,35241434,10411493,NA,complete,NA,65cfd5b8649152e751fada89,computer,Desktop or Laptop,Windows 10,Chrome 121.0.0.0,1920x1080,1920x945,NA,NA,0,Task Introduction and Instructions (re-introduce video and audio) (Clone),3,EFDGCHBIAJ,Passed AC2,,Spreadsheet1,NA,,,,NA,5,BEGIN,NA,NA,NA,NA,NA,NA,0,NA,NA,NA,NA,,,NA,,,NA,SUPPRF10603
2,1.70812E+12,16/02/2024 21:52,1.7081E+12,-5,16/02/2024 11:52,166635,2,task-v7r7,NA,35241434,10411493,NA,complete,NA,65cfd5b8649152e751fada89,computer,Desktop or Laptop,Windows 10,Chrome 121.0.0.0,1920x1080,1920x945,NA,NA,0,Task Introduction and Instructions (re-introduce video and audio) (Clone),3,EFDGCHBIAJ,Passed AC2,,Spreadsheet1,1,Task Instructions,Screen 1,anr7sn,1,continue,,3936.9,3933.9,3936.9,3936.9,3933.9,3936.9,1,3936.9,0,0,NA,Click To Continue,Continue Button,3,object-60,Task Instructions,NA,SUPPRF10603
3,1.70812E+12,16/02/2024 21:52,1.7081E+12,-5,16/02/2024 11:52,166635,2,task-v7r7,NA,35241434,10411493,NA,complete,NA,65cfd5b8649152e751fada89,computer,Desktop or Laptop,Windows 10,Chrome 121.0.0.0,1920x1080,1920x945,NA,NA,0,Task Introduction and Instructions (re-introduce video and audio) (Clone),3,EFDGCHBIAJ,Passed AC2,,Spreadsheet1,1,Task Instructions,Screen 2,ce2tc8,2,continue,,7469.8,7465.3,7469.8,7469.8,7465.3,7469.8,1,7469.8,0,0,NA,Click To Continue,Continue Button,3,object-59,Task Instructions,NA,SUPPRF10603
4,1.70812E+12,16/02/2024 21:52,1.7081E+12,-5,16/02/2024 11:52,166635,2,task-v7r7,NA,35241434,10411493,NA,complete,NA,65cfd5b8649152e751fada89,computer,Desktop or Laptop,Windows 10,Chrome 121.0.0.0,1920x1080,1920x945,NA,NA,0,Task Introduction and Instructions (re-introduce video and audio) (Clone),3,EFDGCHBIAJ,Passed AC2,,Spreadsheet1,1,Task Instructions,Screen 3,1qtc8v,3,continue,,7588.1,7582.9,7588.1,7588.1,7582.9,7588.1,1,7588.1,0,0,NA,Click To Continue,Continue Button,2,object-2983,Task Instructions,NA,SUPPRF10603
5,1.70812E+12,16/02/2024 21:52,1.7081E+12,-5,16/02/2024 11:52,166635,2,task-v7r7,NA,35241434,10411493,NA,complete,NA,65cfd5b8649152e751fada89,computer,Desktop or Laptop,Windows 10,Chrome 121.0.0.0,1366x768,1366x633,NA,NA,0,Task Introduction and Instructions (re-introduce video and audio) (Clone),3,EFDGCHBIAJ,Passed AC2,,Spreadsheet1,1,Task Instructions,Screen 12,1a4vu2,4,continue,,8768.7,8766.1,8768.7,8768.7,8766.1,8768.7,1,8768.7,0,0,NA,Click To Continue,Continue Button,2,object-2466,Task Instructions,NA,SUPPRF10603
6,1.70812E+12,16/02/2024 21:52,1.7081E+12,-5,16/02/2024 11:52,166635,2,task-v7r7,NA,35241434,10411493,NA,complete,NA,65cfd5b8649152e751fada89,computer,Desktop or Laptop,Windows 10,Chrome 121.0.0.0,1366x768,1366x633,NA,NA,0,Task Introduction and Instructions (re-introduce video and audio) (Clone),3,EFDGCHBIAJ,Passed AC2,,Spreadsheet1,1,Task Instructions,Screen 13,q9vwda,5,continue,,5246.7,5233,5246.7,5246.7,5233,5246.7,1,5246.7,0,0,NA,Click To Continue,Continue Button,2,object-2989,Task Instructions,NA,SUPPRF10603
7,1.70812E+12,16/02/2024 21:52,1.7081E+12,-5,16/02/2024 11:52,166635,2,task-v7r7,NA,35241434,10411493,NA,complete,NA,65cfd5b8649152e751fada89,computer,Desktop or Laptop,Windows 10,Chrome 121.0.0.0,1366x768,1366x633,NA,NA,0,Task Introduction and Instructions (re-introduce video and audio) (Clone),3,EFDGCHBIAJ,Passed AC2,,Spreadsheet1,1,Task Instructions,Screen 11,oyulb7,6,continue,,3230.1,3216.6,3230.1,3230.1,3216.6,3230.1,1,3230.1,0,0,NA,Click To Continue,Continue Button,2,object-52,Task Instructions,NA,SUPPRF10603
8,1.70812E+12,16/02/2024 21:52,1.7081E+12,-5,16/02/2024 11:52,166635,2,task-v7r7,NA,35241434,10411493,NA,complete,NA,65cfd5b8649152e751fada89,computer,Desktop or Laptop,Windows 10,Chrome 121.0.0.0,1366x768,1366x633,NA,NA,0,Task Introduction and Instructions (re-introduce video and audio) (Clone),3,EFDGCHBIAJ,Passed AC2,,Spreadsheet1,1,Task Instructions,Screen 4,spepx9,7,continue,,4086.4,4083,4086.4,4086.4,4083,4086.4,1,4086.4,0,0,NA,Click To Continue,Continue Button,2,object-9,Task Instructions,NA,SUPPRF10603
9,1.70812E+12,16/02/2024 21:53,1.7081E+12,-5,16/02/2024 11:53,166635,2,task-v7r7,NA,35241434,10411493,NA,complete,NA,65cfd5b8649152e751fada89,computer,Desktop or Laptop,Windows 10,Chrome 121.0.0.0,1366x768,1366x633,NA,NA,0,Task Introduction and Instructions (re-introduce video and audio) (Clone),3,EFDGCHBIAJ,Passed AC2,,Spreadsheet1,1,Task Instructions,Screen 5,8nvnao,8,continue,,2838.5,2833.2,2838.5,2838.5,2833.2,2838.5,1,2838.5,0,0,NA,Click To Continue,Continue Button,2,object-44,Task Instructions,NA,SUPPRF10603
10,1.70812E+12,16/02/2024 21:53,1.7081E+12,-5,16/02/2024 11:53,166635,2,task-v7r7,NA,35241434,10411493,NA,complete,NA,65cfd5b8649152e751fada89,computer,Desktop or Laptop,Windows 10,Chrome 121.0.0.0,1366x768,1366x633,NA,NA,0,Task Introduction and Instructions (re-introduce video and audio) (Clone),3,EFDGCHBIAJ,Passed AC2,,Spreadsheet1,NA,,,,NA,5,END,NA,NA,NA,NA,NA,NA,0,NA,NA,NA,NA,,,NA,,,NA,SUPPRF10603
1,1.70812E+12,16/02/2024 22:21,1.70812E+12,0,16/02/2024 22:21,166635,2,task-v7r7,NA,35242018,10411671,NA,complete,NA,65cfdc826a2da5193f3f0561,computer,Desktop or Laptop,Windows 10,Chrome 121.0.0.0,3440x1440,3440x1313,NA,NA,0,Task Introduction and Instructions (re-introduce video and audio) (Clone),3,FGEHDICJBA,Passed AC2,,Spreadsheet1,NA,,,,NA,5,BEGIN,NA,NA,NA,NA,NA,NA,0,NA,NA,NA,NA,,,NA,,,NA,SUPPRF72701
2,1.70812E+12,16/02/2024 22:21,1.70812E+12,0,16/02/2024 22:21,166635,2,task-v7r7,NA,35242018,10411671,NA,complete,NA,65cfdc826a2da5193f3f0561,computer,Desktop or Laptop,Windows 10,Chrome 121.0.0.0,3440x1440,3440x1313,NA,NA,0,Task Introduction and Instructions (re-introduce video and audio) (Clone),3,FGEHDICJBA,Passed AC2,,Spreadsheet1,1,Task Instructions,Screen 1,anr7sn,1,continue,,5621,5613.8,5621,5621,5613.8,5621,1,5621,0,0,NA,Click To Continue,Continue Button,3,object-60,Task Instructions,NA,SUPPRF72701
3,1.70812E+12,16/02/2024 22:21,1.70812E+12,0,16/02/2024 22:21,166635,2,task-v7r7,NA,35242018,10411671,NA,complete,NA,65cfdc826a2da5193f3f0561,computer,Desktop or Laptop,Windows 10,Chrome 121.0.0.0,3440x1440,3440x1313,NA,NA,0,Task Introduction and Instructions (re-introduce video and audio) (Clone),3,FGEHDICJBA,Passed AC2,,Spreadsheet1,1,Task Instructions,Screen 2,ce2tc8,2,continue,,12788.3,12776.3,12788.3,12788.3,12776.3,12788.3,1,12788.3,0,0,NA,Click To Continue,Continue Button,3,object-59,Task Instructions,NA,SUPPRF72701
4,1.70812E+12,16/02/2024 22:22,1.70812E+12,0,16/02/2024 22:22,166635,2,task-v7r7,NA,35242018,10411671,NA,complete,NA,65cfdc826a2da5193f3f0561,computer,Desktop or Laptop,Windows 10,Chrome 121.0.0.0,3440x1440,3440x1313,NA,NA,0,Task Introduction and Instructions (re-introduce video and audio) (Clone),3,FGEHDICJBA,Passed AC2,,Spreadsheet1,1,Task Instructions,Screen 3,1qtc8v,3,continue,,13578.8,13575.7,13578.8,13578.8,13575.7,13578.8,1,13578.8,0,0,NA,Click To Continue,Continue Button,2,object-2983,Task Instructions,NA,SUPPRF72701
5,1.70812E+12,16/02/2024 22:22,1.70812E+12,0,16/02/2024 22:22,166635,2,task-v7r7,NA,35242018,10411671,NA,complete,NA,65cfdc826a2da5193f3f0561,computer,Desktop or Laptop,Windows 10,Chrome 121.0.0.0,3440x1440,3440x1313,NA,NA,0,Task Introduction and Instructions (re-introduce video and audio) (Clone),3,FGEHDICJBA,Passed AC2,,Spreadsheet1,1,Task Instructions,Screen 12,1a4vu2,4,continue,,6565.6,6563,6565.6,6565.6,6563,6565.6,1,6565.6,0,0,NA,Click To Continue,Continue Button,2,object-2466,Task Instructions,NA,SUPPRF72701
6,1.70812E+12,16/02/2024 22:22,1.70812E+12,0,16/02/2024 22:22,166635,2,task-v7r7,NA,35242018,10411671,NA,complete,NA,65cfdc826a2da5193f3f0561,computer,Desktop or Laptop,Windows 10,Chrome 121.0.0.0,3440x1440,3440x1313,NA,NA,0,Task Introduction and Instructions (re-introduce video and audio) (Clone),3,FGEHDICJBA,Passed AC2,,Spreadsheet1,1,Task Instructions,Screen 13,q9vwda,5,continue,,5823.1,5813.7,5823.1,5823.1,5813.7,5823.1,1,5823.1,0,0,NA,Click To Continue,Continue Button,2,object-2989,Task Instructions,NA,SUPPRF72701
7,1.70812E+12,16/02/2024 22:22,1.70812E+12,0,16/02/2024 22:22,166635,2,task-v7r7,NA,35242018,10411671,NA,complete,NA,65cfdc826a2da5193f3f0561,computer,Desktop or Laptop,Windows 10,Chrome 121.0.0.0,3440x1440,3440x1313,NA,NA,0,Task Introduction and Instructions (re-introduce video and audio) (Clone),3,FGEHDICJBA,Passed AC2,,Spreadsheet1,1,Task Instructions,Screen 11,oyulb7,6,continue,,3016.1,3014.8,3016.1,3016.1,3014.8,3016.1,1,3016.1,0,0,NA,Click To Continue,Continue Button,2,object-52,Task Instructions,NA,SUPPRF72701
8,1.70812E+12,16/02/2024 22:22,1.70812E+12,0,16/02/2024 22:22,166635,2,task-v7r7,NA,35242018,10411671,NA,complete,NA,65cfdc826a2da5193f3f0561,computer,Desktop or Laptop,Windows 10,Chrome 121.0.0.0,3440x1440,3440x1313,NA,NA,0,Task Introduction and Instructions (re-introduce video and audio) (Clone),3,FGEHDICJBA,Passed AC2,,Spreadsheet1,1,Task Instructions,Screen 4,spepx9,7,continue,,2911,2898.5,2911,2911,2898.5,2911,1,2911,0,0,NA,Click To Continue,Continue Button,2,object-9,Task Instructions,NA,SUPPRF72701
9,1.70812E+12,16/02/2024 22:22,1.70812E+12,0,16/02/2024 22:22,166635,2,task-v7r7,NA,35242018,10411671,NA,complete,NA,65cfdc826a2da5193f3f0561,computer,Desktop or Laptop,Windows 10,Chrome 121.0.0.0,3440x1440,3440x1313,NA,NA,0,Task Introduction and Instructions (re-introduce video and audio) (Clone),3,FGEHDICJBA,Passed AC2,,Spreadsheet1,1,Task Instructions,Screen 5,8nvnao,8,continue,,2827.1,2815.1,2827.1,2827.1,2815.1,2827.1,1,2827.1,0,0,NA,Click To Continue,Continue Button,2,object-44,Task Instructions,NA,SUPPRF72701
10,1.70812E+12,16/02/2024 22:22,1.70812E+12,0,16/02/2024 22:22,166635,2,task-v7r7,NA,35242018,10411671,NA,complete,NA,65cfdc826a2da5193f3f0561,computer,Desktop or Laptop,Windows 10,Chrome 121.0.0.0,3440x1440,3440x1313,NA,NA,0,Task Introduction and Instructions (re-introduce video and audio) (Clone),3,FGEHDICJBA,Passed AC2,,Spreadsheet1,NA,,,,NA,5,END,NA,NA,NA,NA,NA,NA,0,NA,NA,NA,NA,,,NA,,,NA,SUPPRF72701
1,1.70812E+12,16/02/2024 22:25,1.70812E+12,0,16/02/2024 22:25,166635,2,task-v7r7,NA,35242067,10411702,NA,complete,NA,65cfdd6a3cb896bff6ca3f27,computer,Desktop or Laptop,Mac OS 10.15.7,Chrome 120.0.0.0,1440x900,1200x685,NA,NA,0,Task Introduction and Instructions (re-introduce video and audio) (Clone),3,GHFIEJDACB,Failed AC2,Passed AC1,Spreadsheet1,NA,,,,NA,5,BEGIN,NA,NA,NA,NA,NA,NA,0,NA,NA,NA,NA,,,NA,,,NA,SUPPRF71252
2,1.70812E+12,16/02/2024 22:25,1.70812E+12,0,16/02/2024 22:25,166635,2,task-v7r7,NA,35242067,10411702,NA,complete,NA,65cfdd6a3cb896bff6ca3f27,computer,Desktop or Laptop,Mac OS 10.15.7,Chrome 120.0.0.0,1440x900,1200x685,NA,NA,0,Task Introduction and Instructions (re-introduce video and audio) (Clone),3,GHFIEJDACB,Failed AC2,Passed AC1,Spreadsheet1,1,Task Instructions,Screen 1,anr7sn,1,continue,,4516.5,4499.8,4516.5,4516.5,4499.8,4516.5,1,4516.5,0,0,NA,Click To Continue,Continue Button,3,object-60,Task Instructions,NA,SUPPRF71252
3,1.70812E+12,16/02/2024 22:25,1.70812E+12,0,16/02/2024 22:25,166635,2,task-v7r7,NA,35242067,10411702,NA,complete,NA,65cfdd6a3cb896bff6ca3f27,computer,Desktop or Laptop,Mac OS 10.15.7,Chrome 120.0.0.0,1440x900,1200x685,NA,NA,0,Task Introduction and Instructions (re-introduce video and audio) (Clone),3,GHFIEJDACB,Failed AC2,Passed AC1,Spreadsheet1,1,Task Instructions,Screen 2,ce2tc8,2,continue,,13605.6,13593.3,13605.6,13605.6,13593.3,13605.6,1,13605.6,0,0,NA,Click To Continue,Continue Button,3,object-59,Task Instructions,NA,SUPPRF71252
4,1.70812E+12,16/02/2024 22:26,1.70812E+12,0,16/02/2024 22:26,166635,2,task-v7r7,NA,35242067,10411702,NA,complete,NA,65cfdd6a3cb896bff6ca3f27,computer,Desktop or Laptop,Mac OS 10.15.7,Chrome 120.0.0.0,1440x900,1200x685,NA,NA,0,Task Introduction and Instructions (re-introduce video and audio) (Clone),3,GHFIEJDACB,Failed AC2,Passed AC1,Spreadsheet1,1,Task Instructions,Screen 3,1qtc8v,3,continue,,9639,9627.7,9639,9639,9627.7,9639,1,9639,0,0,NA,Click To Continue,Continue Button,2,object-2983,Task Instructions,NA,SUPPRF71252
5,1.70812E+12,16/02/2024 22:26,1.70812E+12,0,16/02/2024 22:26,166635,2,task-v7r7,NA,35242067,10411702,NA,complete,NA,65cfdd6a3cb896bff6ca3f27,computer,Desktop or Laptop,Mac OS 10.15.7,Chrome 120.0.0.0,1440x900,1200x685,NA,NA,0,Task Introduction and Instructions (re-introduce video and audio) (Clone),3,GHFIEJDACB,Failed AC2,Passed AC1,Spreadsheet1,1,Task Instructions,Screen 12,1a4vu2,4,continue,,5070,5053.6,5070,5070,5053.6,5070,1,5070,0,0,NA,Click To Continue,Continue Button,2,object-2466,Task Instructions,NA,SUPPRF71252
6,1.70812E+12,16/02/2024 22:26,1.70812E+12,0,16/02/2024 22:26,166635,2,task-v7r7,NA,35242067,10411702,NA,complete,NA,65cfdd6a3cb896bff6ca3f27,computer,Desktop or Laptop,Mac OS 10.15.7,Chrome 120.0.0.0,1440x900,1200x685,NA,NA,0,Task Introduction and Instructions (re-introduce video and audio) (Clone),3,GHFIEJDACB,Failed AC2,Passed AC1,Spreadsheet1,1,Task Instructions,Screen 13,q9vwda,5,continue,,6630.3,6616.4,6630.3,6630.3,6616.4,6630.3,1,6630.3,0,0,NA,Click To Continue,Continue Button,2,object-2989,Task Instructions,NA,SUPPRF71252
