"Event.Index","UTC.Timestamp","UTC.Date.and.Time","Local.Timestamp","Local.Timezone","Local.Date.and.Time","Experiment.ID","Experiment.Version","Tree.Node.Key","Repeat.Key","Schedule.ID","Participant.Private.ID","Participant.Starting.Group","Participant.Status","Participant.Completion.Code","Participant.External.Session.ID","Participant.Device.Type","Participant.Device","Participant.OS","Participant.Browser","Participant.Monitor.Size","Participant.Viewport.Size","Checkpoint","Room.ID","Room.Order","Task.Name","Task.Version","order.ot79","branch.g31k","branch.5gtn","Spreadsheet","Trial.Number","Display","Screen","Screen.ID","Screen.Counter","Response.Type","Response","Onset.Time","Clock.Time","Reaction.Time","Absolute.Onset.Time","Absolute.Clock.Time","Absolute.Reaction.Time","Correct","Response.Onset","Response.Duration","Proportion","Tag","Component.Name","Object.Name","Object.Number","Object.ID","Spreadsheet..display","Manipulation..Spreadsheet","Random_ID"
"1",1695410706600,"22/09/2023 19:25:06",1695396306600,-4,"22/09/2023 11:25:06",142855,8,"task-gjqt",NA,31801396,9405733,NA,"complete",NA,"650db0b48ce42f1ad26b6efe","computer","Desktop or Laptop","Windows 10","Chrome 116.0.0.0","1536x864","1536x755",NA,NA,0,"BIQ (Charlotte)",3,"EFDGCHBIAJ","Passed AC2","","Spreadsheet1",NA,"","","",NA,"5","BEGIN",NA,NA,NA,NA,NA,NA,0,NA,NA,NA,NA,"","",NA,"","",NA,"SUPPRF47329"
"2",1695410730052,"22/09/2023 19:25:30",1695396330052,-4,"22/09/2023 11:25:30",142855,8,"task-gjqt",NA,31801396,9405733,NA,"complete",NA,"650db0b48ce42f1ad26b6efe","computer","Desktop or Laptop","Windows 10","Chrome 116.0.0.0","1536x864","1536x755",NA,NA,0,"BIQ (Charlotte)",3,"EFDGCHBIAJ","Passed AC2","","Spreadsheet1",1,"BIQ","Screen 1","9dh6eq",1,"continue","",23461.0869999523,23458.754,23461.0869999523,23461.0869999523,23458.754,23461.0869999523,1,23461.0869999523,0,0,NA,"Click To Continue","Continue Button",23,"object-48","BIQ",NA,"SUPPRF47329"
"3",1695410730054,"22/09/2023 19:25:30",1695396330054,-4,"22/09/2023 11:25:30",142855,8,"task-gjqt",NA,31801396,9405733,NA,"complete",NA,"650db0b48ce42f1ad26b6efe","computer","Desktop or Laptop","Windows 10","Chrome 116.0.0.0","1536x864","1536x755",NA,NA,0,"BIQ (Charlotte)",3,"EFDGCHBIAJ","Passed AC2","","Spreadsheet1",1,"BIQ","Screen 1","9dh6eq",1,"response","7",17562.802,23458.754,23464.1870000954,17562.802,23458.754,23464.1870000954,1,17562.802,5901.38500009537,0,NA,"Rating Scale","Rating Scale",3,"object-5","BIQ",NA,"SUPPRF47329"
"4",1695410730054,"22/09/2023 19:25:30",1695396330054,-4,"22/09/2023 11:25:30",142855,8,"task-gjqt",NA,31801396,9405733,NA,"complete",NA,"650db0b48ce42f1ad26b6efe","computer","Desktop or Laptop","Windows 10","Chrome 116.0.0.0","1536x864","1536x755",NA,NA,0,"BIQ (Charlotte)",3,"EFDGCHBIAJ","Passed AC2","","Spreadsheet1",1,"BIQ","Screen 1","9dh6eq",1,"response","4",20333.775,23458.754,23464.787,20333.775,23458.754,23464.787,1,20333.775,3131.012,0,NA,"Rating Scale","Rating Scale",10,"object-18","BIQ",NA,"SUPPRF47329"
"5",1695410730055,"22/09/2023 19:25:30",1695396330055,-4,"22/09/2023 11:25:30",142855,8,"task-gjqt",NA,31801396,9405733,NA,"complete",NA,"650db0b48ce42f1ad26b6efe","computer","Desktop or Laptop","Windows 10","Chrome 116.0.0.0","1536x864","1536x755",NA,NA,0,"BIQ (Charlotte)",3,"EFDGCHBIAJ","Passed AC2","","Spreadsheet1",1,"BIQ","Screen 1","9dh6eq",1,"response","2",22646.267,23458.754,23465.3870001431,22646.267,23458.754,23465.3870001431,1,22646.267,819.120000143052,0,NA,"Rating Scale","Rating Scale",17,"object-80","BIQ",NA,"SUPPRF47329"
"6",1695410739706,"22/09/2023 19:25:39",1695396339706,-4,"22/09/2023 11:25:39",142855,8,"task-gjqt",NA,31801396,9405733,NA,"complete",NA,"650db0b48ce42f1ad26b6efe","computer","Desktop or Laptop","Windows 10","Chrome 116.0.0.0","1536x864","1536x755",NA,NA,0,"BIQ (Charlotte)",3,"EFDGCHBIAJ","Passed AC2","","Spreadsheet1",1,"BIQ","Screen 2","o21mwi",2,"continue","",9656.93300009537,9652.964,9656.93300009537,9656.93300009537,9652.964,9656.93300009537,1,9656.93300009537,0,0,NA,"Click To Continue","Continue Button",22,"object-50","BIQ",NA,"SUPPRF47329"
"7",1695410739707,"22/09/2023 19:25:39",1695396339707,-4,"22/09/2023 11:25:39",142855,8,"task-gjqt",NA,31801396,9405733,NA,"complete",NA,"650db0b48ce42f1ad26b6efe","computer","Desktop or Laptop","Windows 10","Chrome 116.0.0.0","1536x864","1536x755",NA,NA,0,"BIQ (Charlotte)",3,"EFDGCHBIAJ","Passed AC2","","Spreadsheet1",1,"BIQ","Screen 2","o21mwi",2,"response","7",4333.577,9652.964,9658.533,4333.577,9652.964,9658.533,1,4333.577,5324.956,0,NA,"Rating Scale","Rating Scale",2,"object-259","BIQ",NA,"SUPPRF47329"
"8",1695410739708,"22/09/2023 19:25:39",1695396339708,-4,"22/09/2023 11:25:39",142855,8,"task-gjqt",NA,31801396,9405733,NA,"complete",NA,"650db0b48ce42f1ad26b6efe","computer","Desktop or Laptop","Windows 10","Chrome 116.0.0.0","1536x864","1536x755",NA,NA,0,"BIQ (Charlotte)",3,"EFDGCHBIAJ","Passed AC2","","Spreadsheet1",1,"BIQ","Screen 2","o21mwi",2,"response","7",6263.947,9652.964,9659.63300014305,6263.947,9652.964,9659.63300014305,1,6263.947,3395.68600014305,0,NA,"Rating Scale","Rating Scale",9,"object-36","BIQ",NA,"SUPPRF47329"
"9",1695410739709,"22/09/2023 19:25:39",1695396339709,-4,"22/09/2023 11:25:39",142855,8,"task-gjqt",NA,31801396,9405733,NA,"complete",NA,"650db0b48ce42f1ad26b6efe","computer","Desktop or Laptop","Windows 10","Chrome 116.0.0.0","1536x864","1536x755",NA,NA,0,"BIQ (Charlotte)",3,"EFDGCHBIAJ","Passed AC2","","Spreadsheet1",1,"BIQ","Screen 2","o21mwi",2,"response","7",8930.619,9652.964,9659.833,8930.619,9652.964,9659.833,1,8930.619,729.213999999993,0,NA,"Rating Scale","Rating Scale",16,"object-86","BIQ",NA,"SUPPRF47329"
"10",1695410751785,"22/09/2023 19:25:51",1695396351785,-4,"22/09/2023 11:25:51",142855,8,"task-gjqt",NA,31801396,9405733,NA,"complete",NA,"650db0b48ce42f1ad26b6efe","computer","Desktop or Laptop","Windows 10","Chrome 116.0.0.0","1536x864","1536x755",NA,NA,0,"BIQ (Charlotte)",3,"EFDGCHBIAJ","Passed AC2","","Spreadsheet1",1,"BIQ","Screen 3","iz3the",3,"continue","",12083.3689999523,12076.618,12083.3689999523,12083.3689999523,12076.618,12083.3689999523,1,12083.3689999523,0,0,NA,"Click To Continue","Continue Button",22,"object-73","BIQ",NA,"SUPPRF47329"
"11",1695410751787,"22/09/2023 19:25:51",1695396351787,-4,"22/09/2023 11:25:51",142855,8,"task-gjqt",NA,31801396,9405733,NA,"complete",NA,"650db0b48ce42f1ad26b6efe","computer","Desktop or Laptop","Windows 10","Chrome 116.0.0.0","1536x864","1536x755",NA,NA,0,"BIQ (Charlotte)",3,"EFDGCHBIAJ","Passed AC2","","Spreadsheet1",1,"BIQ","Screen 3","iz3the",3,"response","0",3527.82900000001,12076.618,12083.54,3527.82900000001,12076.618,12083.54,1,3527.82900000001,8555.711,0,NA,"Rating Scale","Rating Scale",2,"object-53","BIQ",NA,"SUPPRF47329"
"12",1695410751788,"22/09/2023 19:25:51",1695396351788,-4,"22/09/2023 11:25:51",142855,8,"task-gjqt",NA,31801396,9405733,NA,"complete",NA,"650db0b48ce42f1ad26b6efe","computer","Desktop or Laptop","Windows 10","Chrome 116.0.0.0","1536x864","1536x755",NA,NA,0,"BIQ (Charlotte)",3,"EFDGCHBIAJ","Passed AC2","","Spreadsheet1",1,"BIQ","Screen 3","iz3the",3,"response","2",8243.13400000001,12076.618,12083.54,8243.13400000001,12076.618,12083.54,1,8243.13400000001,3840.406,0,NA,"Rating Scale","Rating Scale",9,"object-60","BIQ",NA,"SUPPRF47329"
"13",1695410751788,"22/09/2023 19:25:51",1695396351788,-4,"22/09/2023 11:25:51",142855,8,"task-gjqt",NA,31801396,9405733,NA,"complete",NA,"650db0b48ce42f1ad26b6efe","computer","Desktop or Laptop","Windows 10","Chrome 116.0.0.0","1536x864","1536x755",NA,NA,0,"BIQ (Charlotte)",3,"EFDGCHBIAJ","Passed AC2","","Spreadsheet1",1,"BIQ","Screen 3","iz3the",3,"response","1",10534.931,12076.618,12083.54,10534.931,12076.618,12083.54,1,10534.931,1548.609,0,NA,"Rating Scale","Rating Scale",16,"object-67","BIQ",NA,"SUPPRF47329"
"14",1695410751789,"22/09/2023 19:25:51",1695396351789,-4,"22/09/2023 11:25:51",142855,8,"task-gjqt",NA,31801396,9405733,NA,"complete",NA,"650db0b48ce42f1ad26b6efe","computer","Desktop or Laptop","Windows 10","Chrome 116.0.0.0","1536x864","1536x755",NA,NA,0,"BIQ (Charlotte)",3,"EFDGCHBIAJ","Passed AC2","","Spreadsheet1",NA,"","","",NA,"5","END",NA,NA,NA,NA,NA,NA,0,NA,NA,NA,NA,"","",NA,"","",NA,"SUPPRF47329"
"1",1695410775296,"22/09/2023 19:26:15",1695396375296,-4,"22/09/2023 11:26:15",142855,8,"task-gjqt",NA,31801426,9405725,NA,"rejected - time limit reached",NA,"650db0dd973c11ffa3d5f4a7","computer","Desktop or Laptop","Windows 10","Chrome 116.0.0.0","1280x720","1280x571",NA,NA,0,"BIQ (Charlotte)",3,"DECFBGAHJI","Passed AC2","","Spreadsheet1",NA,"","","",NA,"5","BEGIN",NA,NA,NA,NA,NA,NA,0,NA,NA,NA,NA,"","",NA,"","",NA,"SUPPRF57043"
"2",1695410808161,"22/09/2023 19:26:48",1695396408161,-4,"22/09/2023 11:26:48",142855,8,"task-gjqt",NA,31801426,9405725,NA,"rejected - time limit reached",NA,"650db0dd973c11ffa3d5f4a7","computer","Desktop or Laptop","Windows 10","Chrome 116.0.0.0","1280x720","1280x571",NA,NA,0,"BIQ (Charlotte)",3,"DECFBGAHJI","Passed AC2","","Spreadsheet1",1,"BIQ","Screen 1","9dh6eq",1,"continue","",32912.7859999762,32901.968,32912.7859999762,32912.7859999762,32901.968,32912.7859999762,1,32912.7859999762,0,0,NA,"Click To Continue","Continue Button",23,"object-48","BIQ",NA,"SUPPRF57043"
"3",1695410808172,"22/09/2023 19:26:48",1695396408172,-4,"22/09/2023 11:26:48",142855,8,"task-gjqt",NA,31801426,9405725,NA,"rejected - time limit reached",NA,"650db0dd973c11ffa3d5f4a7","computer","Desktop or Laptop","Windows 10","Chrome 116.0.0.0","1280x720","1280x571",NA,NA,0,"BIQ (Charlotte)",3,"DECFBGAHJI","Passed AC2","","Spreadsheet1",1,"BIQ","Screen 1","9dh6eq",1,"response","4",13819.832,32901.968,32918.428,13819.832,32901.968,32918.428,1,13819.832,19098.596,0,NA,"Rating Scale","Rating Scale",3,"object-5","BIQ",NA,"SUPPRF57043"
"4",1695410808174,"22/09/2023 19:26:48",1695396408174,-4,"22/09/2023 11:26:48",142855,8,"task-gjqt",NA,31801426,9405725,NA,"rejected - time limit reached",NA,"650db0dd973c11ffa3d5f4a7","computer","Desktop or Laptop","Windows 10","Chrome 116.0.0.0","1280x720","1280x571",NA,NA,0,"BIQ (Charlotte)",3,"DECFBGAHJI","Passed AC2","","Spreadsheet1",1,"BIQ","Screen 1","9dh6eq",1,"response","5",22944.825,32901.968,32918.428,22944.825,32901.968,32918.428,1,22944.825,9973.603,0,NA,"Rating Scale","Rating Scale",10,"object-18","BIQ",NA,"SUPPRF57043"
"5",1695410808178,"22/09/2023 19:26:48",1695396408178,-4,"22/09/2023 11:26:48",142855,8,"task-gjqt",NA,31801426,9405725,NA,"rejected - time limit reached",NA,"650db0dd973c11ffa3d5f4a7","computer","Desktop or Laptop","Windows 10","Chrome 116.0.0.0","1280x720","1280x571",NA,NA,0,"BIQ (Charlotte)",3,"DECFBGAHJI","Passed AC2","","Spreadsheet1",1,"BIQ","Screen 1","9dh6eq",1,"response","1",32202.908,32901.968,32918.428,32202.908,32901.968,32918.428,1,32202.908,715.520000000004,0,NA,"Rating Scale","Rating Scale",17,"object-80","BIQ",NA,"SUPPRF57043"
"6",1695410827282,"22/09/2023 19:27:07",1695396427282,-4,"22/09/2023 11:27:07",142855,8,"task-gjqt",NA,31801426,9405725,NA,"rejected - time limit reached",NA,"650db0dd973c11ffa3d5f4a7","computer","Desktop or Laptop","Windows 10","Chrome 116.0.0.0","1280x720","1280x571",NA,NA,0,"BIQ (Charlotte)",3,"DECFBGAHJI","Passed AC2","","Spreadsheet1",1,"BIQ","Screen 2","o21mwi",2,"continue","",19132.56,19115.771,19132.56,19132.56,19115.771,19132.56,1,19132.56,0,0,NA,"Click To Continue","Continue Button",22,"object-50","BIQ",NA,"SUPPRF57043"
"7",1695410827295,"22/09/2023 19:27:07",1695396427295,-4,"22/09/2023 11:27:07",142855,8,"task-gjqt",NA,31801426,9405725,NA,"rejected - time limit reached",NA,"650db0dd973c11ffa3d5f4a7","computer","Desktop or Laptop","Windows 10","Chrome 116.0.0.0","1280x720","1280x571",NA,NA,0,"BIQ (Charlotte)",3,"DECFBGAHJI","Passed AC2","","Spreadsheet1",1,"BIQ","Screen 2","o21mwi",2,"response","8",5045.367,19115.771,19132.56,5045.367,19115.771,19132.56,1,5045.367,14087.193,0,NA,"Rating Scale","Rating Scale",2,"object-259","BIQ",NA,"SUPPRF57043"
"8",1695410827299,"22/09/2023 19:27:07",1695396427299,-4,"22/09/2023 11:27:07",142855,8,"task-gjqt",NA,31801426,9405725,NA,"rejected - time limit reached",NA,"650db0dd973c11ffa3d5f4a7","computer","Desktop or Laptop","Windows 10","Chrome 116.0.0.0","1280x720","1280x571",NA,NA,0,"BIQ (Charlotte)",3,"DECFBGAHJI","Passed AC2","","Spreadsheet1",1,"BIQ","Screen 2","o21mwi",2,"response","1",12305.294,19115.771,19132.56,12305.294,19115.771,19132.56,1,12305.294,6827.26600000001,0,NA,"Rating Scale","Rating Scale",9,"object-36","BIQ",NA,"SUPPRF57043"
"9",1695410827304,"22/09/2023 19:27:07",1695396427304,-4,"22/09/2023 11:27:07",142855,8,"task-gjqt",NA,31801426,9405725,NA,"rejected - time limit reached",NA,"650db0dd973c11ffa3d5f4a7","computer","Desktop or Laptop","Windows 10","Chrome 116.0.0.0","1280x720","1280x571",NA,NA,0,"BIQ (Charlotte)",3,"DECFBGAHJI","Passed AC2","","Spreadsheet1",1,"BIQ","Screen 2","o21mwi",2,"response","1",18565.968,19115.771,19132.56,18565.968,19115.771,19132.56,1,18565.968,566.592000000004,0,NA,"Rating Scale","Rating Scale",16,"object-86","BIQ",NA,"SUPPRF57043"
"10",1695410844725,"22/09/2023 19:27:24",1695396444725,-4,"22/09/2023 11:27:24",142855,8,"task-gjqt",NA,31801426,9405725,NA,"rejected - time limit reached",NA,"650db0dd973c11ffa3d5f4a7","computer","Desktop or Laptop","Windows 10","Chrome 116.0.0.0","1280x720","1280x571",NA,NA,0,"BIQ (Charlotte)",3,"DECFBGAHJI","Passed AC2","","Spreadsheet1",1,"BIQ","Screen 3","iz3the",3,"continue","",17461.647,17450.014,17461.647,17461.647,17450.014,17461.647,1,17461.647,0,0,NA,"Click To Continue","Continue Button",22,"object-73","BIQ",NA,"SUPPRF57043"
"11",1695410844739,"22/09/2023 19:27:24",1695396444739,-4,"22/09/2023 11:27:24",142855,8,"task-gjqt",NA,31801426,9405725,NA,"rejected - time limit reached",NA,"650db0dd973c11ffa3d5f4a7","computer","Desktop or Laptop","Windows 10","Chrome 116.0.0.0","1280x720","1280x571",NA,NA,0,"BIQ (Charlotte)",3,"DECFBGAHJI","Passed AC2","","Spreadsheet1",1,"BIQ","Screen 3","iz3the",3,"response","0",11389.111,17450.014,17466.59,11389.111,17450.014,17466.59,1,11389.111,6077.47899999999,0,NA,"Rating Scale","Rating Scale",2,"object-53","BIQ",NA,"SUPPRF57043"
"12",1695410844745,"22/09/2023 19:27:24",1695396444745,-4,"22/09/2023 11:27:24",142855,8,"task-gjqt",NA,31801426,9405725,NA,"rejected - time limit reached",NA,"650db0dd973c11ffa3d5f4a7","computer","Desktop or Laptop","Windows 10","Chrome 116.0.0.0","1280x720","1280x571",NA,NA,0,"BIQ (Charlotte)",3,"DECFBGAHJI","Passed AC2","","Spreadsheet1",1,"BIQ","Screen 3","iz3the",3,"response","1",13620.807,17450.014,17466.59,13620.807,17450.014,17466.59,1,13620.807,3845.783,0,NA,"Rating Scale","Rating Scale",9,"object-60","BIQ",NA,"SUPPRF57043"
"13",1695410844750,"22/09/2023 19:27:24",1695396444750,-4,"22/09/2023 11:27:24",142855,8,"task-gjqt",NA,31801426,9405725,NA,"rejected - time limit reached",NA,"650db0dd973c11ffa3d5f4a7","computer","Desktop or Laptop","Windows 10","Chrome 116.0.0.0","1280x720","1280x571",NA,NA,0,"BIQ (Charlotte)",3,"DECFBGAHJI","Passed AC2","","Spreadsheet1",1,"BIQ","Screen 3","iz3the",3,"response","1",16484.366,17450.014,17466.59,16484.366,17450.014,17466.59,1,16484.366,982.224000000002,0,NA,"Rating Scale","Rating Scale",16,"object-67","BIQ",NA,"SUPPRF57043"
"14",1695410844758,"22/09/2023 19:27:24",1695396444758,-4,"22/09/2023 11:27:24",142855,8,"task-gjqt",NA,31801426,9405725,NA,"rejected - time limit reached",NA,"650db0dd973c11ffa3d5f4a7","computer","Desktop or Laptop","Windows 10","Chrome 116.0.0.0","1280x720","1280x571",NA,NA,0,"BIQ (Charlotte)",3,"DECFBGAHJI","Passed AC2","","Spreadsheet1",NA,"","","",NA,"5","END",NA,NA,NA,NA,NA,NA,0,NA,NA,NA,NA,"","",NA,"","",NA,"SUPPRF57043"
"1",1695392969451,"22/09/2023 14:29:29",1695396569451,1,"22/09/2023 16:29:29",142855,8,"task-gjqt",NA,31801543,9405723,NA,"complete",NA,"650db0cfaa5afdaaef6db6b6","computer","Desktop or Laptop","Windows 10","Chrome 117.0.0.0","1536x864","1536x715",NA,NA,0,"BIQ (Charlotte)",3,"CDBEAFJGIH","Passed AC2","","Spreadsheet1",NA,"","","",NA,"5","BEGIN",NA,NA,NA,NA,NA,NA,0,NA,NA,NA,NA,"","",NA,"","",NA,"SUPPRF59799"
"2",1695392997169,"22/09/2023 14:29:57",1695396597169,1,"22/09/2023 16:29:57",142855,8,"task-gjqt",NA,31801543,9405723,NA,"complete",NA,"650db0cfaa5afdaaef6db6b6","computer","Desktop or Laptop","Windows 10","Chrome 117.0.0.0","1536x864","1536x715",NA,NA,0,"BIQ (Charlotte)",3,"CDBEAFJGIH","Passed AC2","","Spreadsheet1",1,"BIQ","Screen 1","9dh6eq",1,"continue","",29291.4,29274.71,29291.4,29291.4,29274.71,29291.4,1,29291.4,0,0,NA,"Click To Continue","Continue Button",23,"object-48","BIQ",NA,"SUPPRF59799"
"3",1695392997172,"22/09/2023 14:29:57",1695396597172,1,"22/09/2023 16:29:57",142855,8,"task-gjqt",NA,31801543,9405723,NA,"complete",NA,"650db0cfaa5afdaaef6db6b6","computer","Desktop or Laptop","Windows 10","Chrome 117.0.0.0","1536x864","1536x715",NA,NA,0,"BIQ (Charlotte)",3,"CDBEAFJGIH","Passed AC2","","Spreadsheet1",1,"BIQ","Screen 1","9dh6eq",1,"response","4",17520.374,29274.71,29291.4,17520.374,29274.71,29291.4,1,17520.374,11771.026,0,NA,"Rating Scale","Rating Scale",3,"object-5","BIQ",NA,"SUPPRF59799"
"4",1695392997172,"22/09/2023 14:29:57",1695396597172,1,"22/09/2023 16:29:57",142855,8,"task-gjqt",NA,31801543,9405723,NA,"complete",NA,"650db0cfaa5afdaaef6db6b6","computer","Desktop or Laptop","Windows 10","Chrome 117.0.0.0","1536x864","1536x715",NA,NA,0,"BIQ (Charlotte)",3,"CDBEAFJGIH","Passed AC2","","Spreadsheet1",1,"BIQ","Screen 1","9dh6eq",1,"response","0",22165.521,29274.71,29291.4,22165.521,29274.71,29291.4,1,22165.521,7125.879,0,NA,"Rating Scale","Rating Scale",10,"object-18","BIQ",NA,"SUPPRF59799"
"5",1695392997173,"22/09/2023 14:29:57",1695396597173,1,"22/09/2023 16:29:57",142855,8,"task-gjqt",NA,31801543,9405723,NA,"complete",NA,"650db0cfaa5afdaaef6db6b6","computer","Desktop or Laptop","Windows 10","Chrome 117.0.0.0","1536x864","1536x715",NA,NA,0,"BIQ (Charlotte)",3,"CDBEAFJGIH","Passed AC2","","Spreadsheet1",1,"BIQ","Screen 1","9dh6eq",1,"response","4",26943.747,29274.71,29291.4,26943.747,29274.71,29291.4,1,26943.747,2347.653,0,NA,"Rating Scale","Rating Scale",17,"object-80","BIQ",NA,"SUPPRF59799"
"6",1695393018989,"22/09/2023 14:30:18",1695396618989,1,"22/09/2023 16:30:18",142855,8,"task-gjqt",NA,31801543,9405723,NA,"complete",NA,"650db0cfaa5afdaaef6db6b6","computer","Desktop or Laptop","Windows 10","Chrome 117.0.0.0","1536x864","1536x715",NA,NA,0,"BIQ (Charlotte)",3,"CDBEAFJGIH","Passed AC2","","Spreadsheet1",1,"BIQ","Screen 2","o21mwi",2,"continue","",21851.8900000238,21843.71,21851.8900000238,21851.8900000238,21843.71,21851.8900000238,1,21851.8900000238,0,0,NA,"Click To Continue","Continue Button",22,"object-50","BIQ",NA,"SUPPRF59799"
"7",1695393018998,"22/09/2023 14:30:18",1695396618998,1,"22/09/2023 16:30:18",142855,8,"task-gjqt",NA,31801543,9405723,NA,"complete",NA,"650db0cfaa5afdaaef6db6b6","computer","Desktop or Laptop","Windows 10","Chrome 117.0.0.0","1536x864","1536x715",NA,NA,0,"BIQ (Charlotte)",3,"CDBEAFJGIH","Passed AC2","","Spreadsheet1",1,"BIQ","Screen 2","o21mwi",2,"response","4",3829.313,21843.71,21860.0899999523,3829.313,21843.71,21860.0899999523,1,3829.313,18030.7769999523,0,NA,"Rating Scale","Rating Scale",2,"object-259","BIQ",NA,"SUPPRF59799"
"8",1695393019000,"22/09/2023 14:30:19",1695396619000,1,"22/09/2023 16:30:19",142855,8,"task-gjqt",NA,31801543,9405723,NA,"complete",NA,"650db0cfaa5afdaaef6db6b6","computer","Desktop or Laptop","Windows 10","Chrome 117.0.0.0","1536x864","1536x715",NA,NA,0,"BIQ (Charlotte)",3,"CDBEAFJGIH","Passed AC2","","Spreadsheet1",1,"BIQ","Screen 2","o21mwi",2,"response","2",14368.218,21843.71,21860.443,14368.218,21843.71,21860.443,1,14368.218,7492.225,0,NA,"Rating Scale","Rating Scale",9,"object-36","BIQ",NA,"SUPPRF59799"
"9",1695393019002,"22/09/2023 14:30:19",1695396619002,1,"22/09/2023 16:30:19",142855,8,"task-gjqt",NA,31801543,9405723,NA,"complete",NA,"650db0cfaa5afdaaef6db6b6","computer","Desktop or Laptop","Windows 10","Chrome 117.0.0.0","1536x864","1536x715",NA,NA,0,"BIQ (Charlotte)",3,"CDBEAFJGIH","Passed AC2","","Spreadsheet1",1,"BIQ","Screen 2","o21mwi",2,"response","0",20162.133,21843.71,21860.443,20162.133,21843.71,21860.443,1,20162.133,1698.31,0,NA,"Rating Scale","Rating Scale",16,"object-86","BIQ",NA,"SUPPRF59799"
"10",1695393034050,"22/09/2023 14:30:34",1695396634050,1,"22/09/2023 16:30:34",142855,8,"task-gjqt",NA,31801543,9405723,NA,"complete",NA,"650db0cfaa5afdaaef6db6b6","computer","Desktop or Laptop","Windows 10","Chrome 117.0.0.0","1536x864","1536x715",NA,NA,0,"BIQ (Charlotte)",3,"CDBEAFJGIH","Passed AC2","","Spreadsheet1",1,"BIQ","Screen 3","iz3the",3,"continue","",15069.08,15067.783,15069.08,15069.08,15067.783,15069.08,1,15069.08,0,0,NA,"Click To Continue","Continue Button",22,"object-73","BIQ",NA,"SUPPRF59799"
"11",1695393034053,"22/09/2023 14:30:34",1695396634053,1,"22/09/2023 16:30:34",142855,8,"task-gjqt",NA,31801543,9405723,NA,"complete",NA,"650db0cfaa5afdaaef6db6b6","computer","Desktop or Laptop","Windows 10","Chrome 117.0.0.0","1536x864","1536x715",NA,NA,0,"BIQ (Charlotte)",3,"CDBEAFJGIH","Passed AC2","","Spreadsheet1",1,"BIQ","Screen 3","iz3the",3,"response","3",5610.653,15067.783,15072.1800000238,5610.653,15067.783,15072.1800000238,1,5610.653,9461.52700002385,0,NA,"Rating Scale","Rating Scale",2,"object-53","BIQ",NA,"SUPPRF59799"
"12",1695393034053,"22/09/2023 14:30:34",1695396634053,1,"22/09/2023 16:30:34",142855,8,"task-gjqt",NA,31801543,9405723,NA,"complete",NA,"650db0cfaa5afdaaef6db6b6","computer","Desktop or Laptop","Windows 10","Chrome 117.0.0.0","1536x864","1536x715",NA,NA,0,"BIQ (Charlotte)",3,"CDBEAFJGIH","Passed AC2","","Spreadsheet1",1,"BIQ","Screen 3","iz3the",3,"response","4",11071.751,15067.783,15072.6800000238,11071.751,15067.783,15072.6800000238,1,11071.751,4000.92900002384,0,NA,"Rating Scale","Rating Scale",9,"object-60","BIQ",NA,"SUPPRF59799"
"13",1695393034054,"22/09/2023 14:30:34",1695396634054,1,"22/09/2023 16:30:34",142855,8,"task-gjqt",NA,31801543,9405723,NA,"complete",NA,"650db0cfaa5afdaaef6db6b6","computer","Desktop or Laptop","Windows 10","Chrome 117.0.0.0","1536x864","1536x715",NA,NA,0,"BIQ (Charlotte)",3,"CDBEAFJGIH","Passed AC2","","Spreadsheet1",1,"BIQ","Screen 3","iz3the",3,"response","0",14268.346,15067.783,15073.08,14268.346,15067.783,15073.08,1,14268.346,804.733999999997,0,NA,"Rating Scale","Rating Scale",16,"object-67","BIQ",NA,"SUPPRF59799"
"14",1695393034058,"22/09/2023 14:30:34",1695396634058,1,"22/09/2023 16:30:34",142855,8,"task-gjqt",NA,31801543,9405723,NA,"complete",NA,"650db0cfaa5afdaaef6db6b6","computer","Desktop or Laptop","Windows 10","Chrome 117.0.0.0","1536x864","1536x715",NA,NA,0,"BIQ (Charlotte)",3,"CDBEAFJGIH","Passed AC2","","Spreadsheet1",NA,"","","",NA,"5","END",NA,NA,NA,NA,NA,NA,0,NA,NA,NA,NA,"","",NA,"","",NA,"SUPPRF59799"
"1",1695414582140,"22/09/2023 20:29:42",1695396582140,-5,"22/09/2023 10:29:42",142855,8,"task-gjqt",NA,31801555,9405710,NA,"complete",NA,"650db064e3a0063623832323","computer","Desktop or Laptop","Windows 10","Chrome 116.0.0.0","1280x720","1280x563",NA,NA,0,"BIQ (Charlotte)",3,"ABJCIDHEGF","Passed AC2","","Spreadsheet1",NA,"","","",NA,"5","BEGIN",NA,NA,NA,NA,NA,NA,0,NA,NA,NA,NA,"","",NA,"","",NA,"SUPPRF52836"
"2",1695414664867,"22/09/2023 20:31:04",1695396664867,-5,"22/09/2023 10:31:04",142855,8,"task-gjqt",NA,31801555,9405710,NA,"complete",NA,"650db064e3a0063623832323","computer","Desktop or Laptop","Windows 10","Chrome 116.0.0.0","1280x720","1280x563",NA,NA,0,"BIQ (Charlotte)",3,"ABJCIDHEGF","Passed AC2","","Spreadsheet1",1,"BIQ","Screen 1","9dh6eq",1,"continue","",82740.607,82735.898,82740.607,82740.607,82735.898,82740.607,1,82740.607,0,0,NA,"Click To Continue","Continue Button",23,"object-48","BIQ",NA,"SUPPRF52836"
"3",1695414664868,"22/09/2023 20:31:04",1695396664868,-5,"22/09/2023 10:31:04",142855,8,"task-gjqt",NA,31801555,9405710,NA,"complete",NA,"650db064e3a0063623832323","computer","Desktop or Laptop","Windows 10","Chrome 116.0.0.0","1280x720","1280x563",NA,NA,0,"BIQ (Charlotte)",3,"ABJCIDHEGF","Passed AC2","","Spreadsheet1",1,"BIQ","Screen 1","9dh6eq",1,"response","6",70485.394,82735.898,82748.2070000238,70485.394,82735.898,82748.2070000238,1,70485.394,12262.8130000238,0,NA,"Rating Scale","Rating Scale",3,"object-5","BIQ",NA,"SUPPRF52836"
"4",1695414664868,"22/09/2023 20:31:04",1695396664868,-5,"22/09/2023 10:31:04",142855,8,"task-gjqt",NA,31801555,9405710,NA,"complete",NA,"650db064e3a0063623832323","computer","Desktop or Laptop","Windows 10","Chrome 116.0.0.0","1280x720","1280x563",NA,NA,0,"BIQ (Charlotte)",3,"ABJCIDHEGF","Passed AC2","","Spreadsheet1",1,"BIQ","Screen 1","9dh6eq",1,"response","4",76693.672,82735.898,82748.5069999762,76693.672,82735.898,82748.5069999762,1,76693.672,6054.83499997616,0,NA,"Rating Scale","Rating Scale",10,"object-18","BIQ",NA,"SUPPRF52836"
"5",1695414664869,"22/09/2023 20:31:04",1695396664869,-5,"22/09/2023 10:31:04",142855,8,"task-gjqt",NA,31801555,9405710,NA,"complete",NA,"650db064e3a0063623832323","computer","Desktop or Laptop","Windows 10","Chrome 116.0.0.0","1280x720","1280x563",NA,NA,0,"BIQ (Charlotte)",3,"ABJCIDHEGF","Passed AC2","","Spreadsheet1",1,"BIQ","Screen 1","9dh6eq",1,"response","2",81454.081,82735.898,82748.7070000238,81454.081,82735.898,82748.7070000238,1,81454.081,1294.62600002384,0,NA,"Rating Scale","Rating Scale",17,"object-80","BIQ",NA,"SUPPRF52836"
"6",1695414685081,"22/09/2023 20:31:25",1695396685081,-5,"22/09/2023 10:31:25",142855,8,"task-gjqt",NA,31801555,9405710,NA,"complete",NA,"650db064e3a0063623832323","computer","Desktop or Laptop","Windows 10","Chrome 116.0.0.0","1280x720","1280x563",NA,NA,0,"BIQ (Charlotte)",3,"ABJCIDHEGF","Passed AC2","","Spreadsheet1",1,"BIQ","Screen 2","o21mwi",2,"continue","",20224.8090000238,20222.984,20224.8090000238,20224.8090000238,20222.984,20224.8090000238,1,20224.8090000238,0,0,NA,"Click To Continue","Continue Button",22,"object-50","BIQ",NA,"SUPPRF52836"
"7",1695414685086,"22/09/2023 20:31:25",1695396685086,-5,"22/09/2023 10:31:25",142855,8,"task-gjqt",NA,31801555,9405710,NA,"complete",NA,"650db064e3a0063623832323","computer","Desktop or Laptop","Windows 10","Chrome 116.0.0.0","1280x720","1280x563",NA,NA,0,"BIQ (Charlotte)",3,"ABJCIDHEGF","Passed AC2","","Spreadsheet1",1,"BIQ","Screen 2","o21mwi",2,"response","7",6091.86,20222.984,20230.3090000238,6091.86,20222.984,20230.3090000238,1,6091.86,14138.4490000238,0,NA,"Rating Scale","Rating Scale",2,"object-259","BIQ",NA,"SUPPRF52836"
"8",1695414685088,"22/09/2023 20:31:25",1695396685088,-5,"22/09/2023 10:31:25",142855,8,"task-gjqt",NA,31801555,9405710,NA,"complete",NA,"650db064e3a0063623832323","computer","Desktop or Laptop","Windows 10","Chrome 116.0.0.0","1280x720","1280x563",NA,NA,0,"BIQ (Charlotte)",3,"ABJCIDHEGF","Passed AC2","","Spreadsheet1",1,"BIQ","Screen 2","o21mwi",2,"response","1",13099.268,20222.984,20231.6089999762,13099.268,20222.984,20231.6089999762,1,13099.268,7132.34099997616,0,NA,"Rating Scale","Rating Scale",9,"object-36","BIQ",NA,"SUPPRF52836"
"9",1695414685089,"22/09/2023 20:31:25",1695396685089,-5,"22/09/2023 10:31:25",142855,8,"task-gjqt",NA,31801555,9405710,NA,"complete",NA,"650db064e3a0063623832323","computer","Desktop or Laptop","Windows 10","Chrome 116.0.0.0","1280x720","1280x563",NA,NA,0,"BIQ (Charlotte)",3,"ABJCIDHEGF","Passed AC2","","Spreadsheet1",1,"BIQ","Screen 2","o21mwi",2,"response","0",19257.554,20222.984,20232.709,19257.554,20222.984,20232.709,1,19257.554,975.154999999999,0,NA,"Rating Scale","Rating Scale",16,"object-86","BIQ",NA,"SUPPRF52836"
"10",1695414696384,"22/09/2023 20:31:36",1695396696384,-5,"22/09/2023 10:31:36",142855,8,"task-gjqt",NA,31801555,9405710,NA,"complete",NA,"650db064e3a0063623832323","computer","Desktop or Laptop","Windows 10","Chrome 116.0.0.0","1280x720","1280x563",NA,NA,0,"BIQ (Charlotte)",3,"ABJCIDHEGF","Passed AC2","","Spreadsheet1",1,"BIQ","Screen 3","iz3the",3,"continue","",11304.1249999762,11301.719,11304.1249999762,11304.1249999762,11301.719,11304.1249999762,1,11304.1249999762,0,0,NA,"Click To Continue","Continue Button",22,"object-73","BIQ",NA,"SUPPRF52836"
"11",1695414696390,"22/09/2023 20:31:36",1695396696390,-5,"22/09/2023 10:31:36",142855,8,"task-gjqt",NA,31801555,9405710,NA,"complete",NA,"650db064e3a0063623832323","computer","Desktop or Laptop","Windows 10","Chrome 116.0.0.0","1280x720","1280x563",NA,NA,0,"BIQ (Charlotte)",3,"ABJCIDHEGF","Passed AC2","","Spreadsheet1",1,"BIQ","Screen 3","iz3the",3,"response","0",4644.01700000001,11301.719,11310.6249999762,4644.01700000001,11301.719,11310.6249999762,1,4644.01700000001,6666.60799997616,0,NA,"Rating Scale","Rating Scale",2,"object-53","BIQ",NA,"SUPPRF52836"
"12",1695414696391,"22/09/2023 20:31:36",1695396696391,-5,"22/09/2023 10:31:36",142855,8,"task-gjqt",NA,31801555,9405710,NA,"complete",NA,"650db064e3a0063623832323","computer","Desktop or Laptop","Windows 10","Chrome 116.0.0.0","1280x720","1280x563",NA,NA,0,"BIQ (Charlotte)",3,"ABJCIDHEGF","Passed AC2","","Spreadsheet1",1,"BIQ","Screen 3","iz3the",3,"response","1",6524.83900000001,11301.719,11311.8250000238,6524.83900000001,11301.719,11311.8250000238,1,6524.83900000001,4786.98600002384,0,NA,"Rating Scale","Rating Scale",9,"object-60","BIQ",NA,"SUPPRF52836"
"13",1695414696392,"22/09/2023 20:31:36",1695396696392,-5,"22/09/2023 10:31:36",142855,8,"task-gjqt",NA,31801555,9405710,NA,"complete",NA,"650db064e3a0063623832323","computer","Desktop or Laptop","Windows 10","Chrome 116.0.0.0","1280x720","1280x563",NA,NA,0,"BIQ (Charlotte)",3,"ABJCIDHEGF","Passed AC2","","Spreadsheet1",1,"BIQ","Screen 3","iz3the",3,"response","1",9953.65700000001,11301.719,11312.725,9953.65700000001,11301.719,11312.725,1,9953.65700000001,1359.068,0,NA,"Rating Scale","Rating Scale",16,"object-67","BIQ",NA,"SUPPRF52836"
"14",1695414696395,"22/09/2023 20:31:36",1695396696395,-5,"22/09/2023 10:31:36",142855,8,"task-gjqt",NA,31801555,9405710,NA,"complete",NA,"650db064e3a0063623832323","computer","Desktop or Laptop","Windows 10","Chrome 116.0.0.0","1280x720","1280x563",NA,NA,0,"BIQ (Charlotte)",3,"ABJCIDHEGF","Passed AC2","","Spreadsheet1",NA,"","","",NA,"5","END",NA,NA,NA,NA,NA,NA,0,NA,NA,NA,NA,"","",NA,"","",NA,"SUPPRF52836"
"1",1695393011457,"22/09/2023 14:30:11",1695396611457,1,"22/09/2023 16:30:11",142855,8,"task-gjqt",NA,31801576,9405753,NA,"complete",NA,"650db0373416393925f52839","computer","Desktop or Laptop","Windows 10","Chrome 116.0.0.0","1366x768","1366x689",NA,NA,0,"BIQ (Charlotte)",3,"FGEHDICJBA","Passed AC2","","Spreadsheet1",NA,"","","",NA,"5","BEGIN",NA,NA,NA,NA,NA,NA,0,NA,NA,NA,NA,"","",NA,"","",NA,"SUPPRF86355"
"2",1695393070522,"22/09/2023 14:31:10",1695396670522,1,"22/09/2023 16:31:10",142855,8,"task-gjqt",NA,31801576,9405753,NA,"complete",NA,"650db0373416393925f52839","computer","Desktop or Laptop","Windows 10","Chrome 116.0.0.0","1366x768","1366x689",NA,NA,0,"BIQ (Charlotte)",3,"FGEHDICJBA","Passed AC2","","Spreadsheet1",1,"BIQ","Screen 1","9dh6eq",1,"continue","",59123.982,59107.316,59123.982,59123.982,59107.316,59123.982,1,59123.982,0,0,NA,"Click To Continue","Continue Button",23,"object-48","BIQ",NA,"SUPPRF86355"
"3",1695393070534,"22/09/2023 14:31:10",1695396670534,1,"22/09/2023 16:31:10",142855,8,"task-gjqt",NA,31801576,9405753,NA,"complete",NA,"650db0373416393925f52839","computer","Desktop or Laptop","Windows 10","Chrome 116.0.0.0","1366x768","1366x689",NA,NA,0,"BIQ (Charlotte)",3,"FGEHDICJBA","Passed AC2","","Spreadsheet1",1,"BIQ","Screen 1","9dh6eq",1,"response","7",28820.566,59107.316,59123.982,28820.566,59107.316,59123.982,1,28820.566,30303.416,0,NA,"Rating Scale","Rating Scale",3,"object-5","BIQ",NA,"SUPPRF86355"
"4",1695393070538,"22/09/2023 14:31:10",1695396670538,1,"22/09/2023 16:31:10",142855,8,"task-gjqt",NA,31801576,9405753,NA,"complete",NA,"650db0373416393925f52839","computer","Desktop or Laptop","Windows 10","Chrome 116.0.0.0","1366x768","1366x689",NA,NA,0,"BIQ (Charlotte)",3,"FGEHDICJBA","Passed AC2","","Spreadsheet1",1,"BIQ","Screen 1","9dh6eq",1,"response","7",46663.458,59107.316,59123.982,46663.458,59107.316,59123.982,1,46663.458,12460.524,0,NA,"Rating Scale","Rating Scale",10,"object-18","BIQ",NA,"SUPPRF86355"
"5",1695393070541,"22/09/2023 14:31:10",1695396670541,1,"22/09/2023 16:31:10",142855,8,"task-gjqt",NA,31801576,9405753,NA,"complete",NA,"650db0373416393925f52839","computer","Desktop or Laptop","Windows 10","Chrome 116.0.0.0","1366x768","1366x689",NA,NA,0,"BIQ (Charlotte)",3,"FGEHDICJBA","Passed AC2","","Spreadsheet1",1,"BIQ","Screen 1","9dh6eq",1,"response","2",56309.015,59107.316,59123.982,56309.015,59107.316,59123.982,1,56309.015,2814.967,0,NA,"Rating Scale","Rating Scale",17,"object-80","BIQ",NA,"SUPPRF86355"
"6",1695393100821,"22/09/2023 14:31:40",1695396700821,1,"22/09/2023 16:31:40",142855,8,"task-gjqt",NA,31801576,9405753,NA,"complete",NA,"650db0373416393925f52839","computer","Desktop or Laptop","Windows 10","Chrome 116.0.0.0","1366x768","1366x689",NA,NA,0,"BIQ (Charlotte)",3,"FGEHDICJBA","Passed AC2","","Spreadsheet1",1,"BIQ","Screen 2","o21mwi",2,"continue","",30320.141,30303.475,30320.141,30320.141,30303.475,30320.141,1,30320.141,0,0,NA,"Click To Continue","Continue Button",22,"object-50","BIQ",NA,"SUPPRF86355"
"7",1695393100837,"22/09/2023 14:31:40",1695396700837,1,"22/09/2023 16:31:40",142855,8,"task-gjqt",NA,31801576,9405753,NA,"complete",NA,"650db0373416393925f52839","computer","Desktop or Laptop","Windows 10","Chrome 116.0.0.0","1366x768","1366x689",NA,NA,0,"BIQ (Charlotte)",3,"FGEHDICJBA","Passed AC2","","Spreadsheet1",1,"BIQ","Screen 2","o21mwi",2,"response","7",12094.782,30303.475,30320.141,12094.782,30303.475,30320.141,1,12094.782,18225.359,0,NA,"Rating Scale","Rating Scale",2,"object-259","BIQ",NA,"SUPPRF86355"
"8",1695393100839,"22/09/2023 14:31:40",1695396700839,1,"22/09/2023 16:31:40",142855,8,"task-gjqt",NA,31801576,9405753,NA,"complete",NA,"650db0373416393925f52839","computer","Desktop or Laptop","Windows 10","Chrome 116.0.0.0","1366x768","1366x689",NA,NA,0,"BIQ (Charlotte)",3,"FGEHDICJBA","Passed AC2","","Spreadsheet1",1,"BIQ","Screen 2","o21mwi",2,"response","1",18908.441,30303.475,30320.141,18908.441,30303.475,30320.141,1,18908.441,11411.7,0,NA,"Rating Scale","Rating Scale",9,"object-36","BIQ",NA,"SUPPRF86355"
"9",1695393100845,"22/09/2023 14:31:40",1695396700845,1,"22/09/2023 16:31:40",142855,8,"task-gjqt",NA,31801576,9405753,NA,"complete",NA,"650db0373416393925f52839","computer","Desktop or Laptop","Windows 10","Chrome 116.0.0.0","1366x768","1366x689",NA,NA,0,"BIQ (Charlotte)",3,"FGEHDICJBA","Passed AC2","","Spreadsheet1",1,"BIQ","Screen 2","o21mwi",2,"response","0",25589.036,30303.475,30320.141,25589.036,30303.475,30320.141,1,25589.036,4731.10500000003,0,NA,"Rating Scale","Rating Scale",16,"object-86","BIQ",NA,"SUPPRF86355"
"10",1695393128827,"22/09/2023 14:32:08",1695396728827,1,"22/09/2023 16:32:08",142855,8,"task-gjqt",NA,31801576,9405753,NA,"complete",NA,"650db0373416393925f52839","computer","Desktop or Laptop","Windows 10","Chrome 116.0.0.0","1366x768","1366x689",NA,NA,0,"BIQ (Charlotte)",3,"FGEHDICJBA","Passed AC2","","Spreadsheet1",1,"BIQ","Screen 3","iz3the",3,"continue","",28028.6810000007,28021.318,28028.6810000007,28028.6810000007,28021.318,28028.6810000007,1,28028.6810000007,0,0,NA,"Click To Continue","Continue Button",22,"object-73","BIQ",NA,"SUPPRF86355"
"11",1695393128841,"22/09/2023 14:32:08",1695396728841,1,"22/09/2023 16:32:08",142855,8,"task-gjqt",NA,31801576,9405753,NA,"complete",NA,"650db0373416393925f52839","computer","Desktop or Laptop","Windows 10","Chrome 116.0.0.0","1366x768","1366x689",NA,NA,0,"BIQ (Charlotte)",3,"FGEHDICJBA","Passed AC2","","Spreadsheet1",1,"BIQ","Screen 3","iz3the",3,"response","0",6380.731,28021.318,28037.984,6380.731,28021.318,28037.984,1,6380.731,21657.253,0,NA,"Rating Scale","Rating Scale",2,"object-53","BIQ",NA,"SUPPRF86355"
"12",1695393128846,"22/09/2023 14:32:08",1695396728846,1,"22/09/2023 16:32:08",142855,8,"task-gjqt",NA,31801576,9405753,NA,"complete",NA,"650db0373416393925f52839","computer","Desktop or Laptop","Windows 10","Chrome 116.0.0.0","1366x768","1366x689",NA,NA,0,"BIQ (Charlotte)",3,"FGEHDICJBA","Passed AC2","","Spreadsheet1",1,"BIQ","Screen 3","iz3the",3,"response","4",19674.92,28021.318,28037.984,19674.92,28021.318,28037.984,1,19674.92,8363.06400000001,0,NA,"Rating Scale","Rating Scale",9,"object-60","BIQ",NA,"SUPPRF86355"
"13",1695393128848,"22/09/2023 14:32:08",1695396728848,1,"22/09/2023 16:32:08",142855,8,"task-gjqt",NA,31801576,9405753,NA,"complete",NA,"650db0373416393925f52839","computer","Desktop or Laptop","Windows 10","Chrome 116.0.0.0","1366x768","1366x689",NA,NA,0,"BIQ (Charlotte)",3,"FGEHDICJBA","Passed AC2","","Spreadsheet1",1,"BIQ","Screen 3","iz3the",3,"response","4",26822.133,28021.318,28037.984,26822.133,28021.318,28037.984,1,26822.133,1215.85100000002,0,NA,"Rating Scale","Rating Scale",16,"object-67","BIQ",NA,"SUPPRF86355"
"14",1695393128856,"22/09/2023 14:32:08",1695396728856,1,"22/09/2023 16:32:08",142855,8,"task-gjqt",NA,31801576,9405753,NA,"complete",NA,"650db0373416393925f52839","computer","Desktop or Laptop","Windows 10","Chrome 116.0.0.0","1366x768","1366x689",NA,NA,0,"BIQ (Charlotte)",3,"FGEHDICJBA","Passed AC2","","Spreadsheet1",NA,"","","",NA,"5","END",NA,NA,NA,NA,NA,NA,0,NA,NA,NA,NA,"","",NA,"","",NA,"SUPPRF86355"
"1",1695422069952,"22/09/2023 22:34:29",1695396869952,-7,"22/09/2023 08:34:29",142855,8,"task-gjqt",NA,31801699,9405713,NA,"complete",NA,"650db04556ac975fbca13f16","computer","Desktop or Laptop","Mac OS 10.15.7","Chrome 117.0.0.0","1440x900","1440x800",NA,NA,0,"BIQ (Charlotte)",3,"GHFIEJDACB","Passed AC2","","Spreadsheet1",NA,"","","",NA,"5","BEGIN",NA,NA,NA,NA,NA,NA,0,NA,NA,NA,NA,"","",NA,"","",NA,"SUPPRF74611"
"2",1695422089023,"22/09/2023 22:34:49",1695396889023,-7,"22/09/2023 08:34:49",142855,8,"task-gjqt",NA,31801699,9405713,NA,"complete",NA,"650db04556ac975fbca13f16","computer","Desktop or Laptop","Mac OS 10.15.7","Chrome 117.0.0.0","1440x900","1440x800",NA,NA,0,"BIQ (Charlotte)",3,"GHFIEJDACB","Passed AC2","","Spreadsheet1",1,"BIQ","Screen 1","9dh6eq",1,"continue","",19085,19070,19085,19085,19070,19085,1,19085,0,0,NA,"Click To Continue","Continue Button",23,"object-48","BIQ",NA,"SUPPRF74611"
"3",1695422089025,"22/09/2023 22:34:49",1695396889025,-7,"22/09/2023 08:34:49",142855,8,"task-gjqt",NA,31801699,9405713,NA,"complete",NA,"650db04556ac975fbca13f16","computer","Desktop or Laptop","Mac OS 10.15.7","Chrome 117.0.0.0","1440x900","1440x800",NA,NA,0,"BIQ (Charlotte)",3,"GHFIEJDACB","Passed AC2","","Spreadsheet1",1,"BIQ","Screen 1","9dh6eq",1,"response","3",8735,19070,19087,8735,19070,19087,1,8735,10352,0,NA,"Rating Scale","Rating Scale",3,"object-5","BIQ",NA,"SUPPRF74611"
"4",1695422089025,"22/09/2023 22:34:49",1695396889025,-7,"22/09/2023 08:34:49",142855,8,"task-gjqt",NA,31801699,9405713,NA,"complete",NA,"650db04556ac975fbca13f16","computer","Desktop or Laptop","Mac OS 10.15.7","Chrome 117.0.0.0","1440x900","1440x800",NA,NA,0,"BIQ (Charlotte)",3,"GHFIEJDACB","Passed AC2","","Spreadsheet1",1,"BIQ","Screen 1","9dh6eq",1,"response","6",13452,19070,19087,13452,19070,19087,1,13452,5635,0,NA,"Rating Scale","Rating Scale",10,"object-18","BIQ",NA,"SUPPRF74611"
"5",1695422089026,"22/09/2023 22:34:49",1695396889026,-7,"22/09/2023 08:34:49",142855,8,"task-gjqt",NA,31801699,9405713,NA,"complete",NA,"650db04556ac975fbca13f16","computer","Desktop or Laptop","Mac OS 10.15.7","Chrome 117.0.0.0","1440x900","1440x800",NA,NA,0,"BIQ (Charlotte)",3,"GHFIEJDACB","Passed AC2","","Spreadsheet1",1,"BIQ","Screen 1","9dh6eq",1,"response","2",18336,19070,19087,18336,19070,19087,1,18336,751,0,NA,"Rating Scale","Rating Scale",17,"object-80","BIQ",NA,"SUPPRF74611"
"6",1695422117844,"22/09/2023 22:35:17",1695396917844,-7,"22/09/2023 08:35:17",142855,8,"task-gjqt",NA,31801699,9405713,NA,"complete",NA,"650db04556ac975fbca13f16","computer","Desktop or Laptop","Mac OS 10.15.7","Chrome 117.0.0.0","1440x900","1440x800",NA,NA,0,"BIQ (Charlotte)",3,"GHFIEJDACB","Passed AC2","","Spreadsheet1",1,"BIQ","Screen 2","o21mwi",2,"continue","",28837,28821,28837,28837,28821,28837,1,28837,0,0,NA,"Click To Continue","Continue Button",22,"object-50","BIQ",NA,"SUPPRF74611"
"7",1695422117847,"22/09/2023 22:35:17",1695396917847,-7,"22/09/2023 08:35:17",142855,8,"task-gjqt",NA,31801699,9405713,NA,"complete",NA,"650db04556ac975fbca13f16","computer","Desktop or Laptop","Mac OS 10.15.7","Chrome 117.0.0.0","1440x900","1440x800",NA,NA,0,"BIQ (Charlotte)",3,"GHFIEJDACB","Passed AC2","","Spreadsheet1",1,"BIQ","Screen 2","o21mwi",2,"response","2",6401,28821,28837,6401,28821,28837,1,6401,22436,0,NA,"Rating Scale","Rating Scale",2,"object-259","BIQ",NA,"SUPPRF74611"
"8",1695422117847,"22/09/2023 22:35:17",1695396917847,-7,"22/09/2023 08:35:17",142855,8,"task-gjqt",NA,31801699,9405713,NA,"complete",NA,"650db04556ac975fbca13f16","computer","Desktop or Laptop","Mac OS 10.15.7","Chrome 117.0.0.0","1440x900","1440x800",NA,NA,0,"BIQ (Charlotte)",3,"GHFIEJDACB","Passed AC2","","Spreadsheet1",1,"BIQ","Screen 2","o21mwi",2,"response","2",9485,28821,28837,9485,28821,28837,1,9485,19352,0,NA,"Rating Scale","Rating Scale",9,"object-36","BIQ",NA,"SUPPRF74611"
"9",1695422117848,"22/09/2023 22:35:17",1695396917848,-7,"22/09/2023 08:35:17",142855,8,"task-gjqt",NA,31801699,9405713,NA,"complete",NA,"650db04556ac975fbca13f16","computer","Desktop or Laptop","Mac OS 10.15.7","Chrome 117.0.0.0","1440x900","1440x800",NA,NA,0,"BIQ (Charlotte)",3,"GHFIEJDACB","Passed AC2","","Spreadsheet1",1,"BIQ","Screen 2","o21mwi",2,"response","3",23921,28821,28837,23921,28821,28837,1,23921,4916,0,NA,"Rating Scale","Rating Scale",16,"object-86","BIQ",NA,"SUPPRF74611"
"10",1695422131731,"22/09/2023 22:35:31",1695396931731,-7,"22/09/2023 08:35:31",142855,8,"task-gjqt",NA,31801699,9405713,NA,"complete",NA,"650db04556ac975fbca13f16","computer","Desktop or Laptop","Mac OS 10.15.7","Chrome 117.0.0.0","1440x900","1440x800",NA,NA,0,"BIQ (Charlotte)",3,"GHFIEJDACB","Passed AC2","","Spreadsheet1",1,"BIQ","Screen 3","iz3the",3,"continue","",13903,13886,13903,13903,13886,13903,1,13903,0,0,NA,"Click To Continue","Continue Button",22,"object-73","BIQ",NA,"SUPPRF74611"
"11",1695422131733,"22/09/2023 22:35:31",1695396931733,-7,"22/09/2023 08:35:31",142855,8,"task-gjqt",NA,31801699,9405713,NA,"complete",NA,"650db04556ac975fbca13f16","computer","Desktop or Laptop","Mac OS 10.15.7","Chrome 117.0.0.0","1440x900","1440x800",NA,NA,0,"BIQ (Charlotte)",3,"GHFIEJDACB","Passed AC2","","Spreadsheet1",1,"BIQ","Screen 3","iz3the",3,"response","2",5468,13886,13903,5468,13886,13903,1,5468,8435,0,NA,"Rating Scale","Rating Scale",2,"object-53","BIQ",NA,"SUPPRF74611"
"12",1695422131733,"22/09/2023 22:35:31",1695396931733,-7,"22/09/2023 08:35:31",142855,8,"task-gjqt",NA,31801699,9405713,NA,"complete",NA,"650db04556ac975fbca13f16","computer","Desktop or Laptop","Mac OS 10.15.7","Chrome 117.0.0.0","1440x900","1440x800",NA,NA,0,"BIQ (Charlotte)",3,"GHFIEJDACB","Passed AC2","","Spreadsheet1",1,"BIQ","Screen 3","iz3the",3,"response","3",10502,13886,13903,10502,13886,13903,1,10502,3401,0,NA,"Rating Scale","Rating Scale",9,"object-60","BIQ",NA,"SUPPRF74611"
"13",1695422131734,"22/09/2023 22:35:31",1695396931734,-7,"22/09/2023 08:35:31",142855,8,"task-gjqt",NA,31801699,9405713,NA,"complete",NA,"650db04556ac975fbca13f16","computer","Desktop or Laptop","Mac OS 10.15.7","Chrome 117.0.0.0","1440x900","1440x800",NA,NA,0,"BIQ (Charlotte)",3,"GHFIEJDACB","Passed AC2","","Spreadsheet1",1,"BIQ","Screen 3","iz3the",3,"response","2",12986,13886,13903,12986,13886,13903,1,12986,917,0,NA,"Rating Scale","Rating Scale",16,"object-67","BIQ",NA,"SUPPRF74611"
"14",1695422131738,"22/09/2023 22:35:31",1695396931738,-7,"22/09/2023 08:35:31",142855,8,"task-gjqt",NA,31801699,9405713,NA,"complete",NA,"650db04556ac975fbca13f16","computer","Desktop or Laptop","Mac OS 10.15.7","Chrome 117.0.0.0","1440x900","1440x800",NA,NA,0,"BIQ (Charlotte)",3,"GHFIEJDACB","Passed AC2","","Spreadsheet1",NA,"","","",NA,"5","END",NA,NA,NA,NA,NA,NA,0,NA,NA,NA,NA,"","",NA,"","",NA,"SUPPRF74611"
"1",1695411560944,"22/09/2023 19:39:20",1695397160944,-4,"22/09/2023 11:39:20",142855,8,"task-gjqt",NA,31801771,9405789,NA,"complete",NA,"650db35dc9912255c6d5f470","computer","Desktop or Laptop","Windows 10","Chrome 116.0.0.0","1536x960","766x789",NA,NA,0,"BIQ (Charlotte)",3,"HIGJFAEBDC","Passed AC2","","Spreadsheet1",NA,"","","",NA,"5","BEGIN",NA,NA,NA,NA,NA,NA,0,NA,NA,NA,NA,"","",NA,"","",NA,"SUPPRF70079"
"2",1695411594507,"22/09/2023 19:39:54",1695397194507,-4,"22/09/2023 11:39:54",142855,8,"task-gjqt",NA,31801771,9405789,NA,"complete",NA,"650db35dc9912255c6d5f470","computer","Desktop or Laptop","Windows 10","Chrome 116.0.0.0","1536x960","766x789",NA,NA,0,"BIQ (Charlotte)",3,"HIGJFAEBDC","Passed AC2","","Spreadsheet1",1,"BIQ","Screen 1","9dh6eq",1,"continue","",33584.389,33572.97,33584.389,33584.389,33572.97,33584.389,1,33584.389,0,0,NA,"Click To Continue","Continue Button",23,"object-48","BIQ",NA,"SUPPRF70079"
"3",1695411594510,"22/09/2023 19:39:54",1695397194510,-4,"22/09/2023 11:39:54",142855,8,"task-gjqt",NA,31801771,9405789,NA,"complete",NA,"650db35dc9912255c6d5f470","computer","Desktop or Laptop","Windows 10","Chrome 116.0.0.0","1536x960","766x789",NA,NA,0,"BIQ (Charlotte)",3,"HIGJFAEBDC","Passed AC2","","Spreadsheet1",1,"BIQ","Screen 1","9dh6eq",1,"response","6",22814.058,33572.97,33587.9890000238,22814.058,33572.97,33587.9890000238,1,22814.058,10773.9310000238,0,NA,"Rating Scale","Rating Scale",3,"object-5","BIQ",NA,"SUPPRF70079"
"4",1695411594510,"22/09/2023 19:39:54",1695397194510,-4,"22/09/2023 11:39:54",142855,8,"task-gjqt",NA,31801771,9405789,NA,"complete",NA,"650db35dc9912255c6d5f470","computer","Desktop or Laptop","Windows 10","Chrome 116.0.0.0","1536x960","766x789",NA,NA,0,"BIQ (Charlotte)",3,"HIGJFAEBDC","Passed AC2","","Spreadsheet1",1,"BIQ","Screen 1","9dh6eq",1,"response","2",27486.702,33572.97,33588.5890000477,27486.702,33572.97,33588.5890000477,1,27486.702,6101.88700004769,0,NA,"Rating Scale","Rating Scale",10,"object-18","BIQ",NA,"SUPPRF70079"
"5",1695411594511,"22/09/2023 19:39:54",1695397194511,-4,"22/09/2023 11:39:54",142855,8,"task-gjqt",NA,31801771,9405789,NA,"complete",NA,"650db35dc9912255c6d5f470","computer","Desktop or Laptop","Windows 10","Chrome 116.0.0.0","1536x960","766x789",NA,NA,0,"BIQ (Charlotte)",3,"HIGJFAEBDC","Passed AC2","","Spreadsheet1",1,"BIQ","Screen 1","9dh6eq",1,"response","4",32924.232,33572.97,33588.889,32924.232,33572.97,33588.889,1,32924.232,664.656999999999,0,NA,"Rating Scale","Rating Scale",17,"object-80","BIQ",NA,"SUPPRF70079"
"6",1695411714298,"22/09/2023 19:41:54",1695397314298,-4,"22/09/2023 11:41:54",142855,8,"task-gjqt",NA,31801771,9405789,NA,"complete",NA,"650db35dc9912255c6d5f470","computer","Desktop or Laptop","Windows 10","Chrome 116.0.0.0","1536x960","766x789",NA,NA,0,"BIQ (Charlotte)",3,"HIGJFAEBDC","Passed AC2","","Spreadsheet1",1,"BIQ","Screen 2","o21mwi",2,"continue","",119801.819000036,119791.65,119801.819000036,119801.819000036,119791.65,119801.819000036,1,119801.819000036,0,0,NA,"Click To Continue","Continue Button",22,"object-50","BIQ",NA,"SUPPRF70079"
"7",1695411714303,"22/09/2023 19:41:54",1695397314303,-4,"22/09/2023 11:41:54",142855,8,"task-gjqt",NA,31801771,9405789,NA,"complete",NA,"650db35dc9912255c6d5f470","computer","Desktop or Laptop","Windows 10","Chrome 116.0.0.0","1536x960","766x789",NA,NA,0,"BIQ (Charlotte)",3,"HIGJFAEBDC","Passed AC2","","Spreadsheet1",1,"BIQ","Screen 2","o21mwi",2,"response","2",5803.265,119791.65,119806.519000024,5803.265,119791.65,119806.519000024,1,5803.265,114003.254000024,0,NA,"Rating Scale","Rating Scale",2,"object-259","BIQ",NA,"SUPPRF70079"
"8",1695411714303,"22/09/2023 19:41:54",1695397314303,-4,"22/09/2023 11:41:54",142855,8,"task-gjqt",NA,31801771,9405789,NA,"complete",NA,"650db35dc9912255c6d5f470","computer","Desktop or Laptop","Windows 10","Chrome 116.0.0.0","1536x960","766x789",NA,NA,0,"BIQ (Charlotte)",3,"HIGJFAEBDC","Passed AC2","","Spreadsheet1",1,"BIQ","Screen 2","o21mwi",2,"response","4",110845.339,119791.65,119807.019000024,110845.339,119791.65,119807.019000024,1,110845.339,8961.68000002383,0,NA,"Rating Scale","Rating Scale",9,"object-36","BIQ",NA,"SUPPRF70079"
"9",1695411714304,"22/09/2023 19:41:54",1695397314304,-4,"22/09/2023 11:41:54",142855,8,"task-gjqt",NA,31801771,9405789,NA,"complete",NA,"650db35dc9912255c6d5f470","computer","Desktop or Laptop","Windows 10","Chrome 116.0.0.0","1536x960","766x789",NA,NA,0,"BIQ (Charlotte)",3,"HIGJFAEBDC","Passed AC2","","Spreadsheet1",1,"BIQ","Screen 2","o21mwi",2,"response","4",117529.813,119791.65,119807.319000036,117529.813,119791.65,119807.319000036,1,117529.813,2277.50600003576,0,NA,"Rating Scale","Rating Scale",16,"object-86","BIQ",NA,"SUPPRF70079"
"10",1695411728264,"22/09/2023 19:42:08",1695397328264,-4,"22/09/2023 11:42:08",142855,8,"task-gjqt",NA,31801771,9405789,NA,"complete",NA,"650db35dc9912255c6d5f470","computer","Desktop or Laptop","Windows 10","Chrome 116.0.0.0","1536x960","766x789",NA,NA,0,"BIQ (Charlotte)",3,"HIGJFAEBDC","Passed AC2","","Spreadsheet1",1,"BIQ","Screen 3","iz3the",3,"continue","",13975.6690000358,13967.849,13975.6690000358,13975.6690000358,13967.849,13975.6690000358,1,13975.6690000358,0,0,NA,"Click To Continue","Continue Button",22,"object-73","BIQ",NA,"SUPPRF70079"
"11",1695411728267,"22/09/2023 19:42:08",1695397328267,-4,"22/09/2023 11:42:08",142855,8,"task-gjqt",NA,31801771,9405789,NA,"complete",NA,"650db35dc9912255c6d5f470","computer","Desktop or Laptop","Windows 10","Chrome 116.0.0.0","1536x960","766x789",NA,NA,0,"BIQ (Charlotte)",3,"HIGJFAEBDC","Passed AC2","","Spreadsheet1",1,"BIQ","Screen 3","iz3the",3,"response","4",2444.48000000001,13967.849,13979.4690000477,2444.48000000001,13967.849,13979.4690000477,1,2444.48000000001,11534.9890000477,0,NA,"Rating Scale","Rating Scale",2,"object-53","BIQ",NA,"SUPPRF70079"
"12",1695411728268,"22/09/2023 19:42:08",1695397328268,-4,"22/09/2023 11:42:08",142855,8,"task-gjqt",NA,31801771,9405789,NA,"complete",NA,"650db35dc9912255c6d5f470","computer","Desktop or Laptop","Windows 10","Chrome 116.0.0.0","1536x960","766x789",NA,NA,0,"BIQ (Charlotte)",3,"HIGJFAEBDC","Passed AC2","","Spreadsheet1",1,"BIQ","Screen 3","iz3the",3,"response","4",11656.406,13967.849,13980.269,11656.406,13967.849,13980.269,1,11656.406,2323.86300000001,0,NA,"Rating Scale","Rating Scale",9,"object-60","BIQ",NA,"SUPPRF70079"
"13",1695411728269,"22/09/2023 19:42:08",1695397328269,-4,"22/09/2023 11:42:08",142855,8,"task-gjqt",NA,31801771,9405789,NA,"complete",NA,"650db35dc9912255c6d5f470","computer","Desktop or Laptop","Windows 10","Chrome 116.0.0.0","1536x960","766x789",NA,NA,0,"BIQ (Charlotte)",3,"HIGJFAEBDC","Passed AC2","","Spreadsheet1",1,"BIQ","Screen 3","iz3the",3,"response","4",12704.088,13967.849,13980.8690000238,12704.088,13967.849,13980.8690000238,1,12704.088,1276.78100002385,0,NA,"Rating Scale","Rating Scale",16,"object-67","BIQ",NA,"SUPPRF70079"
"14",1695411728270,"22/09/2023 19:42:08",1695397328270,-4,"22/09/2023 11:42:08",142855,8,"task-gjqt",NA,31801771,9405789,NA,"complete",NA,"650db35dc9912255c6d5f470","computer","Desktop or Laptop","Windows 10","Chrome 116.0.0.0","1536x960","766x789",NA,NA,0,"BIQ (Charlotte)",3,"HIGJFAEBDC","Passed AC2","","Spreadsheet1",NA,"","","",NA,"5","END",NA,NA,NA,NA,NA,NA,0,NA,NA,NA,NA,"","",NA,"","",NA,"SUPPRF70079"
"1",1695394042812,"22/09/2023 14:47:22",1695397642812,1,"22/09/2023 16:47:22",142855,8,"task-gjqt",NA,31801902,9405825,NA,"complete",NA,"650db5b5ae9a4c321ea31e67","computer","Desktop or Laptop","Windows 10","Chrome 116.0.0.0","1536x864","1536x747",NA,NA,0,"BIQ (Charlotte)",3,"IJHAGBFCED","Passed AC2","","Spreadsheet1",NA,"","","",NA,"5","BEGIN",NA,NA,NA,NA,NA,NA,0,NA,NA,NA,NA,"","",NA,"","",NA,"SUPPRF03456"
"2",1695394070235,"22/09/2023 14:47:50",1695397670235,1,"22/09/2023 16:47:50",142855,8,"task-gjqt",NA,31801902,9405825,NA,"complete",NA,"650db5b5ae9a4c321ea31e67","computer","Desktop or Laptop","Windows 10","Chrome 116.0.0.0","1536x864","1536x747",NA,NA,0,"BIQ (Charlotte)",3,"IJHAGBFCED","Passed AC2","","Spreadsheet1",1,"BIQ","Screen 1","9dh6eq",1,"continue","",27460.234,27443.919,27460.234,27460.234,27443.919,27460.234,1,27460.234,0,0,NA,"Click To Continue","Continue Button",23,"object-48","BIQ",NA,"SUPPRF03456"
"3",1695394070242,"22/09/2023 14:47:50",1695397670242,1,"22/09/2023 16:47:50",142855,8,"task-gjqt",NA,31801902,9405825,NA,"complete",NA,"650db5b5ae9a4c321ea31e67","computer","Desktop or Laptop","Windows 10","Chrome 116.0.0.0","1536x864","1536x747",NA,NA,0,"BIQ (Charlotte)",3,"IJHAGBFCED","Passed AC2","","Spreadsheet1",1,"BIQ","Screen 1","9dh6eq",1,"response","6",18478.87,27443.919,27460.234,18478.87,27443.919,27460.234,1,18478.87,8981.364,0,NA,"Rating Scale","Rating Scale",3,"object-5","BIQ",NA,"SUPPRF03456"
"4",1695394070245,"22/09/2023 14:47:50",1695397670245,1,"22/09/2023 16:47:50",142855,8,"task-gjqt",NA,31801902,9405825,NA,"complete",NA,"650db5b5ae9a4c321ea31e67","computer","Desktop or Laptop","Windows 10","Chrome 116.0.0.0","1536x864","1536x747",NA,NA,0,"BIQ (Charlotte)",3,"IJHAGBFCED","Passed AC2","","Spreadsheet1",1,"BIQ","Screen 1","9dh6eq",1,"response","4",22244.729,27443.919,27460.234,22244.729,27443.919,27460.234,1,22244.729,5215.505,0,NA,"Rating Scale","Rating Scale",10,"object-18","BIQ",NA,"SUPPRF03456"
"5",1695394070247,"22/09/2023 14:47:50",1695397670247,1,"22/09/2023 16:47:50",142855,8,"task-gjqt",NA,31801902,9405825,NA,"complete",NA,"650db5b5ae9a4c321ea31e67","computer","Desktop or Laptop","Windows 10","Chrome 116.0.0.0","1536x864","1536x747",NA,NA,0,"BIQ (Charlotte)",3,"IJHAGBFCED","Passed AC2","","Spreadsheet1",1,"BIQ","Screen 1","9dh6eq",1,"response","0",26693.661,27443.919,27460.234,26693.661,27443.919,27460.234,1,26693.661,766.572999999997,0,NA,"Rating Scale","Rating Scale",17,"object-80","BIQ",NA,"SUPPRF03456"
"6",1695394087822,"22/09/2023 14:48:07",1695397687822,1,"22/09/2023 16:48:07",142855,8,"task-gjqt",NA,31801902,9405825,NA,"complete",NA,"650db5b5ae9a4c321ea31e67","computer","Desktop or Laptop","Windows 10","Chrome 116.0.0.0","1536x864","1536x747",NA,NA,0,"BIQ (Charlotte)",3,"IJHAGBFCED","Passed AC2","","Spreadsheet1",1,"BIQ","Screen 2","o21mwi",2,"continue","",17608.9549999285,17595.328,17608.9549999285,17608.9549999285,17595.328,17608.9549999285,1,17608.9549999285,0,0,NA,"Click To Continue","Continue Button",22,"object-50","BIQ",NA,"SUPPRF03456"
"7",1695394087830,"22/09/2023 14:48:07",1695397687830,1,"22/09/2023 16:48:07",142855,8,"task-gjqt",NA,31801902,9405825,NA,"complete",NA,"650db5b5ae9a4c321ea31e67","computer","Desktop or Laptop","Windows 10","Chrome 116.0.0.0","1536x864","1536x747",NA,NA,0,"BIQ (Charlotte)",3,"IJHAGBFCED","Passed AC2","","Spreadsheet1",1,"BIQ","Screen 2","o21mwi",2,"response","7",3415.359,17595.328,17612.028,3415.359,17595.328,17612.028,1,3415.359,14196.669,0,NA,"Rating Scale","Rating Scale",2,"object-259","BIQ",NA,"SUPPRF03456"
"8",1695394087832,"22/09/2023 14:48:07",1695397687832,1,"22/09/2023 16:48:07",142855,8,"task-gjqt",NA,31801902,9405825,NA,"complete",NA,"650db5b5ae9a4c321ea31e67","computer","Desktop or Laptop","Windows 10","Chrome 116.0.0.0","1536x864","1536x747",NA,NA,0,"BIQ (Charlotte)",3,"IJHAGBFCED","Passed AC2","","Spreadsheet1",1,"BIQ","Screen 2","o21mwi",2,"response","1",12163.427,17595.328,17612.028,12163.427,17595.328,17612.028,1,12163.427,5448.601,0,NA,"Rating Scale","Rating Scale",9,"object-36","BIQ",NA,"SUPPRF03456"
"9",1695394087836,"22/09/2023 14:48:07",1695397687836,1,"22/09/2023 16:48:07",142855,8,"task-gjqt",NA,31801902,9405825,NA,"complete",NA,"650db5b5ae9a4c321ea31e67","computer","Desktop or Laptop","Windows 10","Chrome 116.0.0.0","1536x864","1536x747",NA,NA,0,"BIQ (Charlotte)",3,"IJHAGBFCED","Passed AC2","","Spreadsheet1",1,"BIQ","Screen 2","o21mwi",2,"response","1",16395.689,17595.328,17612.028,16395.689,17595.328,17612.028,1,16395.689,1216.33899999999,0,NA,"Rating Scale","Rating Scale",16,"object-86","BIQ",NA,"SUPPRF03456"
"10",1695394096386,"22/09/2023 14:48:16",1695397696386,1,"22/09/2023 16:48:16",142855,8,"task-gjqt",NA,31801902,9405825,NA,"complete",NA,"650db5b5ae9a4c321ea31e67","computer","Desktop or Laptop","Windows 10","Chrome 116.0.0.0","1536x864","1536x747",NA,NA,0,"BIQ (Charlotte)",3,"IJHAGBFCED","Passed AC2","","Spreadsheet1",1,"BIQ","Screen 3","iz3the",3,"continue","",8577.72699995232,8564.649,8577.72699995232,8577.72699995232,8564.649,8577.72699995232,1,8577.72699995232,0,0,NA,"Click To Continue","Continue Button",22,"object-73","BIQ",NA,"SUPPRF03456"
"11",1695394096387,"22/09/2023 14:48:16",1695397696387,1,"22/09/2023 16:48:16",142855,8,"task-gjqt",NA,31801902,9405825,NA,"complete",NA,"650db5b5ae9a4c321ea31e67","computer","Desktop or Laptop","Windows 10","Chrome 116.0.0.0","1536x864","1536x747",NA,NA,0,"BIQ (Charlotte)",3,"IJHAGBFCED","Passed AC2","","Spreadsheet1",1,"BIQ","Screen 3","iz3the",3,"response","0",3665.768,8564.649,8579.22699995232,3665.768,8564.649,8579.22699995232,1,3665.768,4913.45899995232,0,NA,"Rating Scale","Rating Scale",2,"object-53","BIQ",NA,"SUPPRF03456"
"12",1695394096390,"22/09/2023 14:48:16",1695397696390,1,"22/09/2023 16:48:16",142855,8,"task-gjqt",NA,31801902,9405825,NA,"complete",NA,"650db5b5ae9a4c321ea31e67","computer","Desktop or Laptop","Windows 10","Chrome 116.0.0.0","1536x864","1536x747",NA,NA,0,"BIQ (Charlotte)",3,"IJHAGBFCED","Passed AC2","","Spreadsheet1",1,"BIQ","Screen 3","iz3the",3,"response","0",5665.36500000001,8564.649,8581.22699995232,5665.36500000001,8564.649,8581.22699995232,1,5665.36500000001,2915.86199995231,0,NA,"Rating Scale","Rating Scale",9,"object-60","BIQ",NA,"SUPPRF03456"
"13",1695394096391,"22/09/2023 14:48:16",1695397696391,1,"22/09/2023 16:48:16",142855,8,"task-gjqt",NA,31801902,9405825,NA,"complete",NA,"650db5b5ae9a4c321ea31e67","computer","Desktop or Laptop","Windows 10","Chrome 116.0.0.0","1536x864","1536x747",NA,NA,0,"BIQ (Charlotte)",3,"IJHAGBFCED","Passed AC2","","Spreadsheet1",1,"BIQ","Screen 3","iz3the",3,"response","0",6448.519,8564.649,8581.238,6448.519,8564.649,8581.238,1,6448.519,2132.719,0,NA,"Rating Scale","Rating Scale",16,"object-67","BIQ",NA,"SUPPRF03456"
"14",1695394096396,"22/09/2023 14:48:16",1695397696396,1,"22/09/2023 16:48:16",142855,8,"task-gjqt",NA,31801902,9405825,NA,"complete",NA,"650db5b5ae9a4c321ea31e67","computer","Desktop or Laptop","Windows 10","Chrome 116.0.0.0","1536x864","1536x747",NA,NA,0,"BIQ (Charlotte)",3,"IJHAGBFCED","Passed AC2","","Spreadsheet1",NA,"","","",NA,"5","END",NA,NA,NA,NA,NA,NA,0,NA,NA,NA,NA,"","",NA,"","",NA,"SUPPRF03456"
"1",1695394781209,"22/09/2023 14:59:41",1695398381209,1,"22/09/2023 16:59:41",142855,8,"task-gjqt",NA,31802093,9405851,NA,"complete",NA,"650db754be48c9b042bdeb64","computer","Desktop or Laptop","Chromium OS 14541.0.0","Chrome 116.0.0.0","1920x1080","1920x1080",NA,NA,0,"BIQ (Charlotte)",3,"JAIBHCGDFE","Passed AC2","","Spreadsheet1",NA,"","","",NA,"5","BEGIN",NA,NA,NA,NA,NA,NA,0,NA,NA,NA,NA,"","",NA,"","",NA,"SUPPRF52805"
"2",1695394813786,"22/09/2023 15:00:13",1695398413786,1,"22/09/2023 17:00:13",142855,8,"task-gjqt",NA,31802093,9405851,NA,"complete",NA,"650db754be48c9b042bdeb64","computer","Desktop or Laptop","Chromium OS 14541.0.0","Chrome 116.0.0.0","1920x1080","1920x1080",NA,NA,0,"BIQ (Charlotte)",3,"JAIBHCGDFE","Passed AC2","","Spreadsheet1",1,"BIQ","Screen 1","9dh6eq",1,"continue","",32612.479,32595.815,32612.479,32612.479,32595.815,32612.479,1,32612.479,0,0,NA,"Click To Continue","Continue Button",23,"object-48","BIQ",NA,"SUPPRF52805"
"3",1695394813798,"22/09/2023 15:00:13",1695398413798,1,"22/09/2023 17:00:13",142855,8,"task-gjqt",NA,31802093,9405851,NA,"complete",NA,"650db754be48c9b042bdeb64","computer","Desktop or Laptop","Chromium OS 14541.0.0","Chrome 116.0.0.0","1920x1080","1920x1080",NA,NA,0,"BIQ (Charlotte)",3,"JAIBHCGDFE","Passed AC2","","Spreadsheet1",1,"BIQ","Screen 1","9dh6eq",1,"response","7",24746.814,32595.815,32612.479,24746.814,32595.815,32612.479,1,24746.814,7865.665,0,NA,"Rating Scale","Rating Scale",3,"object-5","BIQ",NA,"SUPPRF52805"
"4",1695394813800,"22/09/2023 15:00:13",1695398413800,1,"22/09/2023 17:00:13",142855,8,"task-gjqt",NA,31802093,9405851,NA,"complete",NA,"650db754be48c9b042bdeb64","computer","Desktop or Laptop","Chromium OS 14541.0.0","Chrome 116.0.0.0","1920x1080","1920x1080",NA,NA,0,"BIQ (Charlotte)",3,"JAIBHCGDFE","Passed AC2","","Spreadsheet1",1,"BIQ","Screen 1","9dh6eq",1,"response","6",27563.129,32595.815,32612.479,27563.129,32595.815,32612.479,1,27563.129,5049.35000000001,0,NA,"Rating Scale","Rating Scale",10,"object-18","BIQ",NA,"SUPPRF52805"
"5",1695394813802,"22/09/2023 15:00:13",1695398413802,1,"22/09/2023 17:00:13",142855,8,"task-gjqt",NA,31802093,9405851,NA,"complete",NA,"650db754be48c9b042bdeb64","computer","Desktop or Laptop","Chromium OS 14541.0.0","Chrome 116.0.0.0","1920x1080","1920x1080",NA,NA,0,"BIQ (Charlotte)",3,"JAIBHCGDFE","Passed AC2","","Spreadsheet1",1,"BIQ","Screen 1","9dh6eq",1,"response","2",31662.589,32595.815,32612.479,31662.589,32595.815,32612.479,1,31662.589,949.890000000007,0,NA,"Rating Scale","Rating Scale",17,"object-80","BIQ",NA,"SUPPRF52805"
"6",1695394833827,"22/09/2023 15:00:33",1695398433827,1,"22/09/2023 17:00:33",142855,8,"task-gjqt",NA,31802093,9405851,NA,"complete",NA,"650db754be48c9b042bdeb64","computer","Desktop or Laptop","Chromium OS 14541.0.0","Chrome 116.0.0.0","1920x1080","1920x1080",NA,NA,0,"BIQ (Charlotte)",3,"JAIBHCGDFE","Passed AC2","","Spreadsheet1",1,"BIQ","Screen 2","o21mwi",2,"continue","",20064.111,20047.451,20064.111,20064.111,20047.451,20064.111,1,20064.111,0,0,NA,"Click To Continue","Continue Button",22,"object-50","BIQ",NA,"SUPPRF52805"
"7",1695394833840,"22/09/2023 15:00:33",1695398433840,1,"22/09/2023 17:00:33",142855,8,"task-gjqt",NA,31802093,9405851,NA,"complete",NA,"650db754be48c9b042bdeb64","computer","Desktop or Laptop","Chromium OS 14541.0.0","Chrome 116.0.0.0","1920x1080","1920x1080",NA,NA,0,"BIQ (Charlotte)",3,"JAIBHCGDFE","Passed AC2","","Spreadsheet1",1,"BIQ","Screen 2","o21mwi",2,"response","7",5765.93,20047.451,20064.111,5765.93,20047.451,20064.111,1,5765.93,14298.181,0,NA,"Rating Scale","Rating Scale",2,"object-259","BIQ",NA,"SUPPRF52805"
"8",1695394833842,"22/09/2023 15:00:33",1695398433842,1,"22/09/2023 17:00:33",142855,8,"task-gjqt",NA,31802093,9405851,NA,"complete",NA,"650db754be48c9b042bdeb64","computer","Desktop or Laptop","Chromium OS 14541.0.0","Chrome 116.0.0.0","1920x1080","1920x1080",NA,NA,0,"BIQ (Charlotte)",3,"JAIBHCGDFE","Passed AC2","","Spreadsheet1",1,"BIQ","Screen 2","o21mwi",2,"response","1",9082.17,20047.451,20064.111,9082.17,20047.451,20064.111,1,9082.17,10981.941,0,NA,"Rating Scale","Rating Scale",9,"object-36","BIQ",NA,"SUPPRF52805"
"9",1695394833845,"22/09/2023 15:00:33",1695398433845,1,"22/09/2023 17:00:33",142855,8,"task-gjqt",NA,31802093,9405851,NA,"complete",NA,"650db754be48c9b042bdeb64","computer","Desktop or Laptop","Chromium OS 14541.0.0","Chrome 116.0.0.0","1920x1080","1920x1080",NA,NA,0,"BIQ (Charlotte)",3,"JAIBHCGDFE","Passed AC2","","Spreadsheet1",1,"BIQ","Screen 2","o21mwi",2,"response","0",18247.606,20047.451,20064.111,18247.606,20047.451,20064.111,1,18247.606,1816.505,0,NA,"Rating Scale","Rating Scale",16,"object-86","BIQ",NA,"SUPPRF52805"
"10",1695394856171,"22/09/2023 15:00:56",1695398456171,1,"22/09/2023 17:00:56",142855,8,"task-gjqt",NA,31802093,9405851,NA,"complete",NA,"650db754be48c9b042bdeb64","computer","Desktop or Laptop","Chromium OS 14541.0.0","Chrome 116.0.0.0","1920x1080","1920x1080",NA,NA,0,"BIQ (Charlotte)",3,"JAIBHCGDFE","Passed AC2","","Spreadsheet1",1,"BIQ","Screen 3","iz3the",3,"continue","",22361.7579999993,22347.12,22361.7579999993,22361.7579999993,22347.12,22361.7579999993,1,22361.7579999993,0,0,NA,"Click To Continue","Continue Button",22,"object-73","BIQ",NA,"SUPPRF52805"
"11",1695394856184,"22/09/2023 15:00:56",1695398456184,1,"22/09/2023 17:00:56",142855,8,"task-gjqt",NA,31802093,9405851,NA,"complete",NA,"650db754be48c9b042bdeb64","computer","Desktop or Laptop","Chromium OS 14541.0.0","Chrome 116.0.0.0","1920x1080","1920x1080",NA,NA,0,"BIQ (Charlotte)",3,"JAIBHCGDFE","Passed AC2","","Spreadsheet1",1,"BIQ","Screen 3","iz3the",3,"response","0",11431.853,22347.12,22363.784,11431.853,22347.12,22363.784,1,11431.853,10931.931,0,NA,"Rating Scale","Rating Scale",2,"object-53","BIQ",NA,"SUPPRF52805"
"12",1695394856187,"22/09/2023 15:00:56",1695398456187,1,"22/09/2023 17:00:56",142855,8,"task-gjqt",NA,31802093,9405851,NA,"complete",NA,"650db754be48c9b042bdeb64","computer","Desktop or Laptop","Chromium OS 14541.0.0","Chrome 116.0.0.0","1920x1080","1920x1080",NA,NA,0,"BIQ (Charlotte)",3,"JAIBHCGDFE","Passed AC2","","Spreadsheet1",1,"BIQ","Screen 3","iz3the",3,"response","0",16264.568,22347.12,22363.784,16264.568,22347.12,22363.784,1,16264.568,6099.21600000001,0,NA,"Rating Scale","Rating Scale",9,"object-60","BIQ",NA,"SUPPRF52805"
"13",1695394856189,"22/09/2023 15:00:56",1695398456189,1,"22/09/2023 17:00:56",142855,8,"task-gjqt",NA,31802093,9405851,NA,"complete",NA,"650db754be48c9b042bdeb64","computer","Desktop or Laptop","Chromium OS 14541.0.0","Chrome 116.0.0.0","1920x1080","1920x1080",NA,NA,0,"BIQ (Charlotte)",3,"JAIBHCGDFE","Passed AC2","","Spreadsheet1",1,"BIQ","Screen 3","iz3the",3,"response","4",19497.479,22347.12,22363.784,19497.479,22347.12,22363.784,1,19497.479,2866.30500000001,0,NA,"Rating Scale","Rating Scale",16,"object-67","BIQ",NA,"SUPPRF52805"
"14",1695394856193,"22/09/2023 15:00:56",1695398456193,1,"22/09/2023 17:00:56",142855,8,"task-gjqt",NA,31802093,9405851,NA,"complete",NA,"650db754be48c9b042bdeb64","computer","Desktop or Laptop","Chromium OS 14541.0.0","Chrome 116.0.0.0","1920x1080","1920x1080",NA,NA,0,"BIQ (Charlotte)",3,"JAIBHCGDFE","Passed AC2","","Spreadsheet1",NA,"","","",NA,"5","END",NA,NA,NA,NA,NA,NA,0,NA,NA,NA,NA,"","",NA,"","",NA,"SUPPRF52805"
"1",1695394979783,"22/09/2023 15:02:59",1695398579783,1,"22/09/2023 17:02:59",142855,8,"task-gjqt",NA,31802134,9405872,NA,"complete",NA,"650db8dfbd57e6b103dd2ba7","computer","Desktop or Laptop","Mac OS 10.15.7","Chrome 115.0.0.0","1440x900","1440x815",NA,NA,0,"BIQ (Charlotte)",3,"ABJCIDHEGF","Passed AC2","","Spreadsheet1",NA,"","","",NA,"5","BEGIN",NA,NA,NA,NA,NA,NA,0,NA,NA,NA,NA,"","",NA,"","",NA,"SUPPRF53772"
"2",1695394994342,"22/09/2023 15:03:14",1695398594342,1,"22/09/2023 17:03:14",142855,8,"task-gjqt",NA,31802134,9405872,NA,"complete",NA,"650db8dfbd57e6b103dd2ba7","computer","Desktop or Laptop","Mac OS 10.15.7","Chrome 115.0.0.0","1440x900","1440x815",NA,NA,0,"BIQ (Charlotte)",3,"ABJCIDHEGF","Passed AC2","","Spreadsheet1",1,"BIQ","Screen 1","9dh6eq",1,"continue","",15256.5,15243.408,15256.5,15256.5,15243.408,15256.5,1,15256.5,0,0,NA,"Click To Continue","Continue Button",23,"object-48","BIQ",NA,"SUPPRF53772"
"3",1695394994345,"22/09/2023 15:03:14",1695398594345,1,"22/09/2023 17:03:14",142855,8,"task-gjqt",NA,31802134,9405872,NA,"complete",NA,"650db8dfbd57e6b103dd2ba7","computer","Desktop or Laptop","Mac OS 10.15.7","Chrome 115.0.0.0","1440x900","1440x815",NA,NA,0,"BIQ (Charlotte)",3,"ABJCIDHEGF","Passed AC2","","Spreadsheet1",1,"BIQ","Screen 1","9dh6eq",1,"response","1",4743.089,15243.408,15260.074,4743.089,15243.408,15260.074,1,4743.089,10516.985,0,NA,"Rating Scale","Rating Scale",3,"object-5","BIQ",NA,"SUPPRF53772"
"4",1695394994345,"22/09/2023 15:03:14",1695398594345,1,"22/09/2023 17:03:14",142855,8,"task-gjqt",NA,31802134,9405872,NA,"complete",NA,"650db8dfbd57e6b103dd2ba7","computer","Desktop or Laptop","Mac OS 10.15.7","Chrome 115.0.0.0","1440x900","1440x815",NA,NA,0,"BIQ (Charlotte)",3,"ABJCIDHEGF","Passed AC2","","Spreadsheet1",1,"BIQ","Screen 1","9dh6eq",1,"response","0",10476.932,15243.408,15260.074,10476.932,15243.408,15260.074,1,10476.932,4783.142,0,NA,"Rating Scale","Rating Scale",10,"object-18","BIQ",NA,"SUPPRF53772"
"5",1695394994345,"22/09/2023 15:03:14",1695398594345,1,"22/09/2023 17:03:14",142855,8,"task-gjqt",NA,31802134,9405872,NA,"complete",NA,"650db8dfbd57e6b103dd2ba7","computer","Desktop or Laptop","Mac OS 10.15.7","Chrome 115.0.0.0","1440x900","1440x815",NA,NA,0,"BIQ (Charlotte)",3,"ABJCIDHEGF","Passed AC2","","Spreadsheet1",1,"BIQ","Screen 1","9dh6eq",1,"response","1",14510.104,15243.408,15260.074,14510.104,15243.408,15260.074,1,14510.104,749.969999999999,0,NA,"Rating Scale","Rating Scale",17,"object-80","BIQ",NA,"SUPPRF53772"
"6",1695395007168,"22/09/2023 15:03:27",1695398607168,1,"22/09/2023 17:03:27",142855,8,"task-gjqt",NA,31802134,9405872,NA,"complete",NA,"650db8dfbd57e6b103dd2ba7","computer","Desktop or Laptop","Mac OS 10.15.7","Chrome 115.0.0.0","1440x900","1440x815",NA,NA,0,"BIQ (Charlotte)",3,"ABJCIDHEGF","Passed AC2","","Spreadsheet1",1,"BIQ","Screen 2","o21mwi",2,"continue","",12841.092,12834.319,12841.092,12841.092,12834.319,12841.092,1,12841.092,0,0,NA,"Click To Continue","Continue Button",22,"object-50","BIQ",NA,"SUPPRF53772"
"7",1695395007171,"22/09/2023 15:03:27",1695398607171,1,"22/09/2023 17:03:27",142855,8,"task-gjqt",NA,31802134,9405872,NA,"complete",NA,"650db8dfbd57e6b103dd2ba7","computer","Desktop or Laptop","Mac OS 10.15.7","Chrome 115.0.0.0","1440x900","1440x815",NA,NA,0,"BIQ (Charlotte)",3,"ABJCIDHEGF","Passed AC2","","Spreadsheet1",1,"BIQ","Screen 2","o21mwi",2,"response","2",2767.309,12834.319,12843.992000006,2767.309,12834.319,12843.992000006,1,2767.309,10076.683000006,0,NA,"Rating Scale","Rating Scale",2,"object-259","BIQ",NA,"SUPPRF53772"
"8",1695395007172,"22/09/2023 15:03:27",1695398607172,1,"22/09/2023 17:03:27",142855,8,"task-gjqt",NA,31802134,9405872,NA,"complete",NA,"650db8dfbd57e6b103dd2ba7","computer","Desktop or Laptop","Mac OS 10.15.7","Chrome 115.0.0.0","1440x900","1440x815",NA,NA,0,"BIQ (Charlotte)",3,"ABJCIDHEGF","Passed AC2","","Spreadsheet1",1,"BIQ","Screen 2","o21mwi",2,"response","3",4667.233,12834.319,12844.3920000045,4667.233,12834.319,12844.3920000045,1,4667.233,8177.15900000447,0,NA,"Rating Scale","Rating Scale",9,"object-36","BIQ",NA,"SUPPRF53772"
"9",1695395007172,"22/09/2023 15:03:27",1695398607172,1,"22/09/2023 17:03:27",142855,8,"task-gjqt",NA,31802134,9405872,NA,"complete",NA,"650db8dfbd57e6b103dd2ba7","computer","Desktop or Laptop","Mac OS 10.15.7","Chrome 115.0.0.0","1440x900","1440x815",NA,NA,0,"BIQ (Charlotte)",3,"ABJCIDHEGF","Passed AC2","","Spreadsheet1",1,"BIQ","Screen 2","o21mwi",2,"response","6",12017.685,12834.319,12844.792000003,12017.685,12834.319,12844.792000003,1,12017.685,827.107000002979,0,NA,"Rating Scale","Rating Scale",16,"object-86","BIQ",NA,"SUPPRF53772"
"10",1695395017618,"22/09/2023 15:03:37",1695398617618,1,"22/09/2023 17:03:37",142855,8,"task-gjqt",NA,31802134,9405872,NA,"complete",NA,"650db8dfbd57e6b103dd2ba7","computer","Desktop or Laptop","Mac OS 10.15.7","Chrome 115.0.0.0","1440x900","1440x815",NA,NA,0,"BIQ (Charlotte)",3,"ABJCIDHEGF","Passed AC2","","Spreadsheet1",1,"BIQ","Screen 3","iz3the",3,"continue","",10456.673000006,10450.318,10456.673000006,10456.673000006,10450.318,10456.673000006,1,10456.673000006,0,0,NA,"Click To Continue","Continue Button",22,"object-73","BIQ",NA,"SUPPRF53772"
"11",1695395017622,"22/09/2023 15:03:37",1695398617622,1,"22/09/2023 17:03:37",142855,8,"task-gjqt",NA,31802134,9405872,NA,"complete",NA,"650db8dfbd57e6b103dd2ba7","computer","Desktop or Laptop","Mac OS 10.15.7","Chrome 115.0.0.0","1440x900","1440x815",NA,NA,0,"BIQ (Charlotte)",3,"ABJCIDHEGF","Passed AC2","","Spreadsheet1",1,"BIQ","Screen 3","iz3the",3,"response","6",3783.182,10450.318,10460.473000003,3783.182,10450.318,10460.473000003,1,3783.182,6677.29100000298,0,NA,"Rating Scale","Rating Scale",2,"object-53","BIQ",NA,"SUPPRF53772"
"12",1695395017622,"22/09/2023 15:03:37",1695398617622,1,"22/09/2023 17:03:37",142855,8,"task-gjqt",NA,31802134,9405872,NA,"complete",NA,"650db8dfbd57e6b103dd2ba7","computer","Desktop or Laptop","Mac OS 10.15.7","Chrome 115.0.0.0","1440x900","1440x815",NA,NA,0,"BIQ (Charlotte)",3,"ABJCIDHEGF","Passed AC2","","Spreadsheet1",1,"BIQ","Screen 3","iz3the",3,"response","6",6683.066,10450.318,10461.0730000045,6683.066,10450.318,10461.0730000045,1,6683.066,3778.00700000447,0,NA,"Rating Scale","Rating Scale",9,"object-60","BIQ",NA,"SUPPRF53772"
"13",1695395017622,"22/09/2023 15:03:37",1695398617622,1,"22/09/2023 17:03:37",142855,8,"task-gjqt",NA,31802134,9405872,NA,"complete",NA,"650db8dfbd57e6b103dd2ba7","computer","Desktop or Laptop","Mac OS 10.15.7","Chrome 115.0.0.0","1440x900","1440x815",NA,NA,0,"BIQ (Charlotte)",3,"ABJCIDHEGF","Passed AC2","","Spreadsheet1",1,"BIQ","Screen 3","iz3the",3,"response","8",9717.014,10450.318,10461.3730000015,9717.014,10450.318,10461.3730000015,1,9717.014,744.359000001488,0,NA,"Rating Scale","Rating Scale",16,"object-67","BIQ",NA,"SUPPRF53772"
"14",1695395017629,"22/09/2023 15:03:37",1695398617629,1,"22/09/2023 17:03:37",142855,8,"task-gjqt",NA,31802134,9405872,NA,"complete",NA,"650db8dfbd57e6b103dd2ba7","computer","Desktop or Laptop","Mac OS 10.15.7","Chrome 115.0.0.0","1440x900","1440x815",NA,NA,0,"BIQ (Charlotte)",3,"ABJCIDHEGF","Passed AC2","","Spreadsheet1",NA,"","","",NA,"5","END",NA,NA,NA,NA,NA,NA,0,NA,NA,NA,NA,"","",NA,"","",NA,"SUPPRF53772"
"1",1695395565883,"22/09/2023 15:12:45",1695399165883,1,"22/09/2023 17:12:45",142855,8,"task-gjqt",NA,31802276,9405750,NA,"complete",NA,"650db0cc76373c52cebbedd2","computer","Desktop or Laptop","Windows 10","Chrome 117.0.0.0","1366x768","1366x651",NA,NA,0,"BIQ (Charlotte)",3,"BCADJEIFHG","Passed AC2","","Spreadsheet1",NA,"","","",NA,"5","BEGIN",NA,NA,NA,NA,NA,NA,0,NA,NA,NA,NA,"","",NA,"","",NA,"SUPPRF28732"
"2",1695395603049,"22/09/2023 15:13:23",1695399203049,1,"22/09/2023 17:13:23",142855,8,"task-gjqt",NA,31802276,9405750,NA,"complete",NA,"650db0cc76373c52cebbedd2","computer","Desktop or Laptop","Windows 10","Chrome 117.0.0.0","1366x768","1366x651",NA,NA,0,"BIQ (Charlotte)",3,"BCADJEIFHG","Passed AC2","","Spreadsheet1",1,"BIQ","Screen 1","9dh6eq",1,"continue","",37183.314,37165.932,37183.314,37183.314,37165.932,37183.314,1,37183.314,0,0,NA,"Click To Continue","Continue Button",23,"object-48","BIQ",NA,"SUPPRF28732"
"3",1695395603064,"22/09/2023 15:13:23",1695399203064,1,"22/09/2023 17:13:23",142855,8,"task-gjqt",NA,31802276,9405750,NA,"complete",NA,"650db0cc76373c52cebbedd2","computer","Desktop or Laptop","Windows 10","Chrome 117.0.0.0","1366x768","1366x651",NA,NA,0,"BIQ (Charlotte)",3,"BCADJEIFHG","Passed AC2","","Spreadsheet1",1,"BIQ","Screen 1","9dh6eq",1,"response","7",17249.483,37165.932,37183.314,17249.483,37165.932,37183.314,1,17249.483,19933.831,0,NA,"Rating Scale","Rating Scale",3,"object-5","BIQ",NA,"SUPPRF28732"
"4",1695395603066,"22/09/2023 15:13:23",1695399203066,1,"22/09/2023 17:13:23",142855,8,"task-gjqt",NA,31802276,9405750,NA,"complete",NA,"650db0cc76373c52cebbedd2","computer","Desktop or Laptop","Windows 10","Chrome 117.0.0.0","1366x768","1366x651",NA,NA,0,"BIQ (Charlotte)",3,"BCADJEIFHG","Passed AC2","","Spreadsheet1",1,"BIQ","Screen 1","9dh6eq",1,"response","6",26182.598,37165.932,37183.314,26182.598,37165.932,37183.314,1,26182.598,11000.716,0,NA,"Rating Scale","Rating Scale",10,"object-18","BIQ",NA,"SUPPRF28732"
"5",1695395603073,"22/09/2023 15:13:23",1695399203073,1,"22/09/2023 17:13:23",142855,8,"task-gjqt",NA,31802276,9405750,NA,"complete",NA,"650db0cc76373c52cebbedd2","computer","Desktop or Laptop","Windows 10","Chrome 117.0.0.0","1366x768","1366x651",NA,NA,0,"BIQ (Charlotte)",3,"BCADJEIFHG","Passed AC2","","Spreadsheet1",1,"BIQ","Screen 1","9dh6eq",1,"response","5",35931.947,37165.932,37183.314,35931.947,37165.932,37183.314,1,35931.947,1251.36700000001,0,NA,"Rating Scale","Rating Scale",17,"object-80","BIQ",NA,"SUPPRF28732"
"6",1695395642495,"22/09/2023 15:14:02",1695399242495,1,"22/09/2023 17:14:02",142855,8,"task-gjqt",NA,31802276,9405750,NA,"complete",NA,"650db0cc76373c52cebbedd2","computer","Desktop or Laptop","Windows 10","Chrome 117.0.0.0","1366x768","1366x651",NA,NA,0,"BIQ (Charlotte)",3,"BCADJEIFHG","Passed AC2","","Spreadsheet1",1,"BIQ","Screen 2","o21mwi",2,"continue","",39464.064,39447.454,39464.064,39464.064,39447.454,39464.064,1,39464.064,0,0,NA,"Click To Continue","Continue Button",22,"object-50","BIQ",NA,"SUPPRF28732"
"7",1695395642502,"22/09/2023 15:14:02",1695399242502,1,"22/09/2023 17:14:02",142855,8,"task-gjqt",NA,31802276,9405750,NA,"complete",NA,"650db0cc76373c52cebbedd2","computer","Desktop or Laptop","Windows 10","Chrome 117.0.0.0","1366x768","1366x651",NA,NA,0,"BIQ (Charlotte)",3,"BCADJEIFHG","Passed AC2","","Spreadsheet1",1,"BIQ","Screen 2","o21mwi",2,"response","7",4482.407,39447.454,39464.064,4482.407,39447.454,39464.064,1,4482.407,34981.657,0,NA,"Rating Scale","Rating Scale",2,"object-259","BIQ",NA,"SUPPRF28732"
"8",1695395642505,"22/09/2023 15:14:02",1695399242505,1,"22/09/2023 17:14:02",142855,8,"task-gjqt",NA,31802276,9405750,NA,"complete",NA,"650db0cc76373c52cebbedd2","computer","Desktop or Laptop","Windows 10","Chrome 117.0.0.0","1366x768","1366x651",NA,NA,0,"BIQ (Charlotte)",3,"BCADJEIFHG","Passed AC2","","Spreadsheet1",1,"BIQ","Screen 2","o21mwi",2,"response","0",32964.415,39447.454,39464.064,32964.415,39447.454,39464.064,1,32964.415,6499.649,0,NA,"Rating Scale","Rating Scale",9,"object-36","BIQ",NA,"SUPPRF28732"
"9",1695395642521,"22/09/2023 15:14:02",1695399242521,1,"22/09/2023 17:14:02",142855,8,"task-gjqt",NA,31802276,9405750,NA,"complete",NA,"650db0cc76373c52cebbedd2","computer","Desktop or Laptop","Windows 10","Chrome 117.0.0.0","1366x768","1366x651",NA,NA,0,"BIQ (Charlotte)",3,"BCADJEIFHG","Passed AC2","","Spreadsheet1",1,"BIQ","Screen 2","o21mwi",2,"response","0",38597.286,39447.454,39464.064,38597.286,39447.454,39464.064,1,38597.286,866.778000000006,0,NA,"Rating Scale","Rating Scale",16,"object-86","BIQ",NA,"SUPPRF28732"
"10",1695395657780,"22/09/2023 15:14:17",1695399257780,1,"22/09/2023 17:14:17",142855,8,"task-gjqt",NA,31802276,9405750,NA,"complete",NA,"650db0cc76373c52cebbedd2","computer","Desktop or Laptop","Windows 10","Chrome 117.0.0.0","1366x768","1366x651",NA,NA,0,"BIQ (Charlotte)",3,"BCADJEIFHG","Passed AC2","","Spreadsheet1",1,"BIQ","Screen 3","iz3the",3,"continue","",15304.5269992371,15299.501,15304.5269992371,15304.5269992371,15299.501,15304.5269992371,1,15304.5269992371,0,0,NA,"Click To Continue","Continue Button",22,"object-73","BIQ",NA,"SUPPRF28732"
"11",1695395657788,"22/09/2023 15:14:17",1695399257788,1,"22/09/2023 17:14:17",142855,8,"task-gjqt",NA,31802276,9405750,NA,"complete",NA,"650db0cc76373c52cebbedd2","computer","Desktop or Laptop","Windows 10","Chrome 117.0.0.0","1366x768","1366x651",NA,NA,0,"BIQ (Charlotte)",3,"BCADJEIFHG","Passed AC2","","Spreadsheet1",1,"BIQ","Screen 3","iz3the",3,"response","0",4599.75900000001,15299.501,15312.727,4599.75900000001,15299.501,15312.727,1,4599.75900000001,10712.968,0,NA,"Rating Scale","Rating Scale",2,"object-53","BIQ",NA,"SUPPRF28732"
"12",1695395657796,"22/09/2023 15:14:17",1695399257796,1,"22/09/2023 17:14:17",142855,8,"task-gjqt",NA,31802276,9405750,NA,"complete",NA,"650db0cc76373c52cebbedd2","computer","Desktop or Laptop","Windows 10","Chrome 117.0.0.0","1366x768","1366x651",NA,NA,0,"BIQ (Charlotte)",3,"BCADJEIFHG","Passed AC2","","Spreadsheet1",1,"BIQ","Screen 3","iz3the",3,"response","0",8799.575,15299.501,15316.402,8799.575,15299.501,15316.402,1,8799.575,6516.827,0,NA,"Rating Scale","Rating Scale",9,"object-60","BIQ",NA,"SUPPRF28732"
"13",1695395657799,"22/09/2023 15:14:17",1695399257799,1,"22/09/2023 17:14:17",142855,8,"task-gjqt",NA,31802276,9405750,NA,"complete",NA,"650db0cc76373c52cebbedd2","computer","Desktop or Laptop","Windows 10","Chrome 117.0.0.0","1366x768","1366x651",NA,NA,0,"BIQ (Charlotte)",3,"BCADJEIFHG","Passed AC2","","Spreadsheet1",1,"BIQ","Screen 3","iz3the",3,"response","2",9449.28599999999,15299.501,15316.402,9449.28599999999,15299.501,15316.402,1,9449.28599999999,5867.11600000001,0,NA,"Rating Scale","Rating Scale",16,"object-67","BIQ",NA,"SUPPRF28732"
"14",1695395657820,"22/09/2023 15:14:17",1695399257820,1,"22/09/2023 17:14:17",142855,8,"task-gjqt",NA,31802276,9405750,NA,"complete",NA,"650db0cc76373c52cebbedd2","computer","Desktop or Laptop","Windows 10","Chrome 117.0.0.0","1366x768","1366x651",NA,NA,0,"BIQ (Charlotte)",3,"BCADJEIFHG","Passed AC2","","Spreadsheet1",NA,"","","",NA,"5","END",NA,NA,NA,NA,NA,NA,0,NA,NA,NA,NA,"","",NA,"","",NA,"SUPPRF28732"
"1",1695397855172,"22/09/2023 15:50:55",1695401455172,1,"22/09/2023 17:50:55",142855,8,"task-gjqt",NA,31802784,9406010,NA,"complete",NA,"650dc440bdb936ecb2516b0d","computer","Desktop or Laptop","Windows 10","Chrome 116.0.0.0","1920x1080","1920x931",NA,NA,0,"BIQ (Charlotte)",3,"DECFBGAHJI","Passed AC2","","Spreadsheet1",NA,"","","",NA,"5","BEGIN",NA,NA,NA,NA,NA,NA,0,NA,NA,NA,NA,"","",NA,"","",NA,"SUPPRF73370"
"2",1695397917701,"22/09/2023 15:51:57",1695401517701,1,"22/09/2023 17:51:57",142855,8,"task-gjqt",NA,31802784,9406010,NA,"complete",NA,"650dc440bdb936ecb2516b0d","computer","Desktop or Laptop","Windows 10","Chrome 116.0.0.0","1920x1080","1920x931",NA,NA,0,"BIQ (Charlotte)",3,"DECFBGAHJI","Passed AC2","","Spreadsheet1",1,"BIQ","Screen 1","9dh6eq",1,"continue","",63419.3999999999,63415.424,63419.3999999999,63419.3999999999,63415.424,63419.3999999999,1,63419.3999999999,0,0,NA,"Click To Continue","Continue Button",23,"object-48","BIQ",NA,"SUPPRF73370"
"3",1695397917703,"22/09/2023 15:51:57",1695401517703,1,"22/09/2023 17:51:57",142855,8,"task-gjqt",NA,31802784,9406010,NA,"complete",NA,"650dc440bdb936ecb2516b0d","computer","Desktop or Laptop","Windows 10","Chrome 116.0.0.0","1920x1080","1920x931",NA,NA,0,"BIQ (Charlotte)",3,"DECFBGAHJI","Passed AC2","","Spreadsheet1",1,"BIQ","Screen 1","9dh6eq",1,"response","6",46964.859,63415.424,63421.2000000002,46964.859,63415.424,63421.2000000002,1,46964.859,16456.3410000002,0,NA,"Rating Scale","Rating Scale",3,"object-5","BIQ",NA,"SUPPRF73370"
"4",1695397917703,"22/09/2023 15:51:57",1695401517703,1,"22/09/2023 17:51:57",142855,8,"task-gjqt",NA,31802784,9406010,NA,"complete",NA,"650dc440bdb936ecb2516b0d","computer","Desktop or Laptop","Windows 10","Chrome 116.0.0.0","1920x1080","1920x931",NA,NA,0,"BIQ (Charlotte)",3,"DECFBGAHJI","Passed AC2","","Spreadsheet1",1,"BIQ","Screen 1","9dh6eq",1,"response","5",54888.076,63415.424,63421.3999999999,54888.076,63415.424,63421.3999999999,1,54888.076,8533.32399999991,0,NA,"Rating Scale","Rating Scale",10,"object-18","BIQ",NA,"SUPPRF73370"
"5",1695397917703,"22/09/2023 15:51:57",1695401517703,1,"22/09/2023 17:51:57",142855,8,"task-gjqt",NA,31802784,9406010,NA,"complete",NA,"650dc440bdb936ecb2516b0d","computer","Desktop or Laptop","Windows 10","Chrome 116.0.0.0","1920x1080","1920x931",NA,NA,0,"BIQ (Charlotte)",3,"DECFBGAHJI","Passed AC2","","Spreadsheet1",1,"BIQ","Screen 1","9dh6eq",1,"response","2",59741.993,63415.424,63421.6000000001,59741.993,63415.424,63421.6000000001,1,59741.993,3679.60700000009,0,NA,"Rating Scale","Rating Scale",17,"object-80","BIQ",NA,"SUPPRF73370"
"6",1695397940667,"22/09/2023 15:52:20",1695401540667,1,"22/09/2023 17:52:20",142855,8,"task-gjqt",NA,31802784,9406010,NA,"complete",NA,"650dc440bdb936ecb2516b0d","computer","Desktop or Laptop","Windows 10","Chrome 116.0.0.0","1920x1080","1920x931",NA,NA,0,"BIQ (Charlotte)",3,"DECFBGAHJI","Passed AC2","","Spreadsheet1",1,"BIQ","Screen 2","o21mwi",2,"continue","",22969.576,22964.129,22969.576,22969.576,22964.129,22969.576,1,22969.576,0,0,NA,"Click To Continue","Continue Button",22,"object-50","BIQ",NA,"SUPPRF73370"
"7",1695397940668,"22/09/2023 15:52:20",1695401540668,1,"22/09/2023 17:52:20",142855,8,"task-gjqt",NA,31802784,9406010,NA,"complete",NA,"650dc440bdb936ecb2516b0d","computer","Desktop or Laptop","Windows 10","Chrome 116.0.0.0","1920x1080","1920x931",NA,NA,0,"BIQ (Charlotte)",3,"DECFBGAHJI","Passed AC2","","Spreadsheet1",1,"BIQ","Screen 2","o21mwi",2,"response","8",6499.679,22964.129,22971.063,6499.679,22964.129,22971.063,1,6499.679,16471.384,0,NA,"Rating Scale","Rating Scale",2,"object-259","BIQ",NA,"SUPPRF73370"
"8",1695397940668,"22/09/2023 15:52:20",1695401540668,1,"22/09/2023 17:52:20",142855,8,"task-gjqt",NA,31802784,9406010,NA,"complete",NA,"650dc440bdb936ecb2516b0d","computer","Desktop or Laptop","Windows 10","Chrome 116.0.0.0","1920x1080","1920x931",NA,NA,0,"BIQ (Charlotte)",3,"DECFBGAHJI","Passed AC2","","Spreadsheet1",1,"BIQ","Screen 2","o21mwi",2,"response","1",13034.067,22964.129,22971.063,13034.067,22964.129,22971.063,1,13034.067,9936.996,0,NA,"Rating Scale","Rating Scale",9,"object-36","BIQ",NA,"SUPPRF73370"
"9",1695397940669,"22/09/2023 15:52:20",1695401540669,1,"22/09/2023 17:52:20",142855,8,"task-gjqt",NA,31802784,9406010,NA,"complete",NA,"650dc440bdb936ecb2516b0d","computer","Desktop or Laptop","Windows 10","Chrome 116.0.0.0","1920x1080","1920x931",NA,NA,0,"BIQ (Charlotte)",3,"DECFBGAHJI","Passed AC2","","Spreadsheet1",1,"BIQ","Screen 2","o21mwi",2,"response","2",21985.023,22964.129,22971.063,21985.023,22964.129,22971.063,1,21985.023,986.039999999994,0,NA,"Rating Scale","Rating Scale",16,"object-86","BIQ",NA,"SUPPRF73370"
"10",1695397953393,"22/09/2023 15:52:33",1695401553393,1,"22/09/2023 17:52:33",142855,8,"task-gjqt",NA,31802784,9406010,NA,"complete",NA,"650dc440bdb936ecb2516b0d","computer","Desktop or Laptop","Windows 10","Chrome 116.0.0.0","1920x1080","1920x931",NA,NA,0,"BIQ (Charlotte)",3,"DECFBGAHJI","Passed AC2","","Spreadsheet1",1,"BIQ","Screen 3","iz3the",3,"continue","",12731.3469999999,12728.536,12731.3469999999,12731.3469999999,12728.536,12731.3469999999,1,12731.3469999999,0,0,NA,"Click To Continue","Continue Button",22,"object-73","BIQ",NA,"SUPPRF73370"
"11",1695397953394,"22/09/2023 15:52:33",1695401553394,1,"22/09/2023 17:52:33",142855,8,"task-gjqt",NA,31802784,9406010,NA,"complete",NA,"650dc440bdb936ecb2516b0d","computer","Desktop or Laptop","Windows 10","Chrome 116.0.0.0","1920x1080","1920x931",NA,NA,0,"BIQ (Charlotte)",3,"DECFBGAHJI","Passed AC2","","Spreadsheet1",1,"BIQ","Screen 3","iz3the",3,"response","0",4437.29300000001,12728.536,12733.0470000001,4437.29300000001,12728.536,12733.0470000001,1,4437.29300000001,8295.75400000009,0,NA,"Rating Scale","Rating Scale",2,"object-53","BIQ",NA,"SUPPRF73370"
"12",1695397953394,"22/09/2023 15:52:33",1695401553394,1,"22/09/2023 17:52:33",142855,8,"task-gjqt",NA,31802784,9406010,NA,"complete",NA,"650dc440bdb936ecb2516b0d","computer","Desktop or Laptop","Windows 10","Chrome 116.0.0.0","1920x1080","1920x931",NA,NA,0,"BIQ (Charlotte)",3,"DECFBGAHJI","Passed AC2","","Spreadsheet1",1,"BIQ","Screen 3","iz3the",3,"response","0",7117.70299999999,12728.536,12733.2470000003,7117.70299999999,12728.536,12733.2470000003,1,7117.70299999999,5615.54400000029,0,NA,"Rating Scale","Rating Scale",9,"object-60","BIQ",NA,"SUPPRF73370"
"13",1695397953394,"22/09/2023 15:52:33",1695401553394,1,"22/09/2023 17:52:33",142855,8,"task-gjqt",NA,31802784,9406010,NA,"complete",NA,"650dc440bdb936ecb2516b0d","computer","Desktop or Laptop","Windows 10","Chrome 116.0.0.0","1920x1080","1920x931",NA,NA,0,"BIQ (Charlotte)",3,"DECFBGAHJI","Passed AC2","","Spreadsheet1",1,"BIQ","Screen 3","iz3the",3,"response","0",12152.171,12728.536,12733.447,12152.171,12728.536,12733.447,1,12152.171,581.275999999998,0,NA,"Rating Scale","Rating Scale",16,"object-67","BIQ",NA,"SUPPRF73370"
"14",1695397953395,"22/09/2023 15:52:33",1695401553395,1,"22/09/2023 17:52:33",142855,8,"task-gjqt",NA,31802784,9406010,NA,"complete",NA,"650dc440bdb936ecb2516b0d","computer","Desktop or Laptop","Windows 10","Chrome 116.0.0.0","1920x1080","1920x931",NA,NA,0,"BIQ (Charlotte)",3,"DECFBGAHJI","Passed AC2","","Spreadsheet1",NA,"","","",NA,"5","END",NA,NA,NA,NA,NA,NA,0,NA,NA,NA,NA,"","",NA,"","",NA,"SUPPRF73370"
"1",1695402311606,"22/09/2023 17:05:11",1695405911606,1,"22/09/2023 19:05:11",142855,8,"task-gjqt",NA,31803709,9406210,NA,"complete",NA,"650dd2608717d9d6705b7808","computer","Desktop or Laptop","Mac OS 10.15.7","Chrome 116.0.0.0","1280x800","1280x591",NA,NA,0,"BIQ (Charlotte)",3,"HIGJFAEBDC","Failed AC2","Passed AC1","Spreadsheet1",NA,"","","",NA,"5","BEGIN",NA,NA,NA,NA,NA,NA,0,NA,NA,NA,NA,"","",NA,"","",NA,"SUPPRF90577"
"2",1695402331579,"22/09/2023 17:05:31",1695405931579,1,"22/09/2023 19:05:31",142855,8,"task-gjqt",NA,31803709,9406210,NA,"complete",NA,"650dd2608717d9d6705b7808","computer","Desktop or Laptop","Mac OS 10.15.7","Chrome 116.0.0.0","1280x800","1280x591",NA,NA,0,"BIQ (Charlotte)",3,"HIGJFAEBDC","Failed AC2","Passed AC1","Spreadsheet1",1,"BIQ","Screen 1","9dh6eq",1,"continue","",20008.3059999996,19992.508,20008.3059999996,20008.3059999996,19992.508,20008.3059999996,1,20008.3059999996,0,0,NA,"Click To Continue","Continue Button",23,"object-48","BIQ",NA,"SUPPRF90577"
"3",1695402331584,"22/09/2023 17:05:31",1695405931584,1,"22/09/2023 19:05:31",142855,8,"task-gjqt",NA,31803709,9406210,NA,"complete",NA,"650dd2608717d9d6705b7808","computer","Desktop or Laptop","Mac OS 10.15.7","Chrome 116.0.0.0","1280x800","1280x591",NA,NA,0,"BIQ (Charlotte)",3,"HIGJFAEBDC","Failed AC2","Passed AC1","Spreadsheet1",1,"BIQ","Screen 1","9dh6eq",1,"response","0",12154.773,19992.508,20009.112,12154.773,19992.508,20009.112,1,12154.773,7854.339,0,NA,"Rating Scale","Rating Scale",3,"object-5","BIQ",NA,"SUPPRF90577"
"4",1695402331585,"22/09/2023 17:05:31",1695405931585,1,"22/09/2023 19:05:31",142855,8,"task-gjqt",NA,31803709,9406210,NA,"complete",NA,"650dd2608717d9d6705b7808","computer","Desktop or Laptop","Mac OS 10.15.7","Chrome 116.0.0.0","1280x800","1280x591",NA,NA,0,"BIQ (Charlotte)",3,"HIGJFAEBDC","Failed AC2","Passed AC1","Spreadsheet1",1,"BIQ","Screen 1","9dh6eq",1,"response","1",14031.025,19992.508,20009.112,14031.025,19992.508,20009.112,1,14031.025,5978.087,0,NA,"Rating Scale","Rating Scale",10,"object-18","BIQ",NA,"SUPPRF90577"
"5",1695402331586,"22/09/2023 17:05:31",1695405931586,1,"22/09/2023 19:05:31",142855,8,"task-gjqt",NA,31803709,9406210,NA,"complete",NA,"650dd2608717d9d6705b7808","computer","Desktop or Laptop","Mac OS 10.15.7","Chrome 116.0.0.0","1280x800","1280x591",NA,NA,0,"BIQ (Charlotte)",3,"HIGJFAEBDC","Failed AC2","Passed AC1","Spreadsheet1",1,"BIQ","Screen 1","9dh6eq",1,"response","8",18664.188,19992.508,20009.112,18664.188,19992.508,20009.112,1,18664.188,1344.924,0,NA,"Rating Scale","Rating Scale",17,"object-80","BIQ",NA,"SUPPRF90577"
"6",1695402342336,"22/09/2023 17:05:42",1695405942336,1,"22/09/2023 19:05:42",142855,8,"task-gjqt",NA,31803709,9406210,NA,"complete",NA,"650dd2608717d9d6705b7808","computer","Desktop or Laptop","Mac OS 10.15.7","Chrome 116.0.0.0","1280x800","1280x591",NA,NA,0,"BIQ (Charlotte)",3,"HIGJFAEBDC","Failed AC2","Passed AC1","Spreadsheet1",1,"BIQ","Screen 2","o21mwi",2,"continue","",10773.7979999996,10760.056,10773.7979999996,10773.7979999996,10760.056,10773.7979999996,1,10773.7979999996,0,0,NA,"Click To Continue","Continue Button",22,"object-50","BIQ",NA,"SUPPRF90577"
"7",1695402342342,"22/09/2023 17:05:42",1695405942342,1,"22/09/2023 19:05:42",142855,8,"task-gjqt",NA,31803709,9406210,NA,"complete",NA,"650dd2608717d9d6705b7808","computer","Desktop or Laptop","Mac OS 10.15.7","Chrome 116.0.0.0","1280x800","1280x591",NA,NA,0,"BIQ (Charlotte)",3,"HIGJFAEBDC","Failed AC2","Passed AC1","Spreadsheet1",1,"BIQ","Screen 2","o21mwi",2,"response","2",5081.488,10760.056,10776.66,5081.488,10760.056,10776.66,1,5081.488,5695.172,0,NA,"Rating Scale","Rating Scale",2,"object-259","BIQ",NA,"SUPPRF90577"
"8",1695402342342,"22/09/2023 17:05:42",1695405942342,1,"22/09/2023 19:05:42",142855,8,"task-gjqt",NA,31803709,9406210,NA,"complete",NA,"650dd2608717d9d6705b7808","computer","Desktop or Laptop","Mac OS 10.15.7","Chrome 116.0.0.0","1280x800","1280x591",NA,NA,0,"BIQ (Charlotte)",3,"HIGJFAEBDC","Failed AC2","Passed AC1","Spreadsheet1",1,"BIQ","Screen 2","o21mwi",2,"response","5",7356.236,10760.056,10776.66,7356.236,10760.056,10776.66,1,7356.236,3420.424,0,NA,"Rating Scale","Rating Scale",9,"object-36","BIQ",NA,"SUPPRF90577"
"9",1695402342343,"22/09/2023 17:05:42",1695405942343,1,"22/09/2023 19:05:42",142855,8,"task-gjqt",NA,31803709,9406210,NA,"complete",NA,"650dd2608717d9d6705b7808","computer","Desktop or Laptop","Mac OS 10.15.7","Chrome 116.0.0.0","1280x800","1280x591",NA,NA,0,"BIQ (Charlotte)",3,"HIGJFAEBDC","Failed AC2","Passed AC1","Spreadsheet1",1,"BIQ","Screen 2","o21mwi",2,"response","7",10012.876,10760.056,10776.66,10012.876,10760.056,10776.66,1,10012.876,763.784,0,NA,"Rating Scale","Rating Scale",16,"object-86","BIQ",NA,"SUPPRF90577"
"10",1695402353272,"22/09/2023 17:05:53",1695405953272,1,"22/09/2023 19:05:53",142855,8,"task-gjqt",NA,31803709,9406210,NA,"complete",NA,"650dd2608717d9d6705b7808","computer","Desktop or Laptop","Mac OS 10.15.7","Chrome 116.0.0.0","1280x800","1280x591",NA,NA,0,"BIQ (Charlotte)",3,"HIGJFAEBDC","Failed AC2","Passed AC1","Spreadsheet1",1,"BIQ","Screen 3","iz3the",3,"continue","",10951.142,10942.673,10951.142,10951.142,10942.673,10951.142,1,10951.142,0,0,NA,"Click To Continue","Continue Button",22,"object-73","BIQ",NA,"SUPPRF90577"
"11",1695402353278,"22/09/2023 17:05:53",1695405953278,1,"22/09/2023 19:05:53",142855,8,"task-gjqt",NA,31803709,9406210,NA,"complete",NA,"650dd2608717d9d6705b7808","computer","Desktop or Laptop","Mac OS 10.15.7","Chrome 116.0.0.0","1280x800","1280x591",NA,NA,0,"BIQ (Charlotte)",3,"HIGJFAEBDC","Failed AC2","Passed AC1","Spreadsheet1",1,"BIQ","Screen 3","iz3the",3,"response","6",4782.589,10942.673,10956.2419999996,4782.589,10942.673,10956.2419999996,1,4782.589,6173.65299999963,0,NA,"Rating Scale","Rating Scale",2,"object-53","BIQ",NA,"SUPPRF90577"
"12",1695402353279,"22/09/2023 17:05:53",1695405953279,1,"22/09/2023 19:05:53",142855,8,"task-gjqt",NA,31803709,9406210,NA,"complete",NA,"650dd2608717d9d6705b7808","computer","Desktop or Laptop","Mac OS 10.15.7","Chrome 116.0.0.0","1280x800","1280x591",NA,NA,0,"BIQ (Charlotte)",3,"HIGJFAEBDC","Failed AC2","Passed AC1","Spreadsheet1",1,"BIQ","Screen 3","iz3the",3,"response","5",7937.349,10942.673,10957.5419999994,7937.349,10942.673,10957.5419999994,1,7937.349,3020.19299999944,0,NA,"Rating Scale","Rating Scale",9,"object-60","BIQ",NA,"SUPPRF90577"
"13",1695402353279,"22/09/2023 17:05:53",1695405953279,1,"22/09/2023 19:05:53",142855,8,"task-gjqt",NA,31803709,9406210,NA,"complete",NA,"650dd2608717d9d6705b7808","computer","Desktop or Laptop","Mac OS 10.15.7","Chrome 116.0.0.0","1280x800","1280x591",NA,NA,0,"BIQ (Charlotte)",3,"HIGJFAEBDC","Failed AC2","Passed AC1","Spreadsheet1",1,"BIQ","Screen 3","iz3the",3,"response","7",10444.553,10942.673,10958.4419999998,10444.553,10942.673,10958.4419999998,1,10444.553,513.888999999814,0,NA,"Rating Scale","Rating Scale",16,"object-67","BIQ",NA,"SUPPRF90577"
"14",1695402353283,"22/09/2023 17:05:53",1695405953283,1,"22/09/2023 19:05:53",142855,8,"task-gjqt",NA,31803709,9406210,NA,"complete",NA,"650dd2608717d9d6705b7808","computer","Desktop or Laptop","Mac OS 10.15.7","Chrome 116.0.0.0","1280x800","1280x591",NA,NA,0,"BIQ (Charlotte)",3,"HIGJFAEBDC","Failed AC2","Passed AC1","Spreadsheet1",NA,"","","",NA,"5","END",NA,NA,NA,NA,NA,NA,0,NA,NA,NA,NA,"","",NA,"","",NA,"SUPPRF90577"
"1",1695406687651,"22/09/2023 18:18:07",1695410287651,1,"22/09/2023 20:18:07",142855,8,"task-gjqt",NA,31804522,9406464,NA,"complete",NA,"650de5275bf6e329535b77f9","computer","Desktop or Laptop","Windows 10","Chrome 116.0.0.0","2048x1152","2048x1035",NA,NA,0,"BIQ (Charlotte)",3,"JAIBHCGDFE","Passed AC2","","Spreadsheet1",NA,"","","",NA,"5","BEGIN",NA,NA,NA,NA,NA,NA,0,NA,NA,NA,NA,"","",NA,"","",NA,"SUPPRF45811"
"2",1695406768120,"22/09/2023 18:19:28",1695410368120,1,"22/09/2023 20:19:28",142855,8,"task-gjqt",NA,31804522,9406464,NA,"complete",NA,"650de5275bf6e329535b77f9","computer","Desktop or Laptop","Windows 10","Chrome 116.0.0.0","2048x1152","2048x1035",NA,NA,0,"BIQ (Charlotte)",3,"JAIBHCGDFE","Passed AC2","","Spreadsheet1",1,"BIQ","Screen 1","9dh6eq",1,"continue","",80483.276999994,80480.79,80483.276999994,80483.276999994,80480.79,80483.276999994,1,80483.276999994,0,0,NA,"Click To Continue","Continue Button",23,"object-48","BIQ",NA,"SUPPRF45811"
"3",1695406768122,"22/09/2023 18:19:28",1695410368122,1,"22/09/2023 20:19:28",142855,8,"task-gjqt",NA,31804522,9406464,NA,"complete",NA,"650de5275bf6e329535b77f9","computer","Desktop or Laptop","Windows 10","Chrome 116.0.0.0","2048x1152","2048x1035",NA,NA,0,"BIQ (Charlotte)",3,"JAIBHCGDFE","Passed AC2","","Spreadsheet1",1,"BIQ","Screen 1","9dh6eq",1,"response","4",66114.582,80480.79,80485.077000006,66114.582,80480.79,80485.077000006,1,66114.582,14370.495000006,0,NA,"Rating Scale","Rating Scale",3,"object-5","BIQ",NA,"SUPPRF45811"
"4",1695406768122,"22/09/2023 18:19:28",1695410368122,1,"22/09/2023 20:19:28",142855,8,"task-gjqt",NA,31804522,9406464,NA,"complete",NA,"650de5275bf6e329535b77f9","computer","Desktop or Laptop","Windows 10","Chrome 116.0.0.0","2048x1152","2048x1035",NA,NA,0,"BIQ (Charlotte)",3,"JAIBHCGDFE","Passed AC2","","Spreadsheet1",1,"BIQ","Screen 1","9dh6eq",1,"response","4",73564.34,80480.79,80485.276999994,73564.34,80480.79,80485.276999994,1,73564.34,6920.93699999404,0,NA,"Rating Scale","Rating Scale",10,"object-18","BIQ",NA,"SUPPRF45811"
"5",1695406768122,"22/09/2023 18:19:28",1695410368122,1,"22/09/2023 20:19:28",142855,8,"task-gjqt",NA,31804522,9406464,NA,"complete",NA,"650de5275bf6e329535b77f9","computer","Desktop or Laptop","Windows 10","Chrome 116.0.0.0","2048x1152","2048x1035",NA,NA,0,"BIQ (Charlotte)",3,"JAIBHCGDFE","Passed AC2","","Spreadsheet1",1,"BIQ","Screen 1","9dh6eq",1,"response","4",79630.818,80480.79,80485.3770000179,79630.818,80480.79,80485.3770000179,1,79630.818,854.559000017878,0,NA,"Rating Scale","Rating Scale",17,"object-80","BIQ",NA,"SUPPRF45811"
"6",1695406799957,"22/09/2023 18:19:59",1695410399957,1,"22/09/2023 20:19:59",142855,8,"task-gjqt",NA,31804522,9406464,NA,"complete",NA,"650de5275bf6e329535b77f9","computer","Desktop or Laptop","Windows 10","Chrome 116.0.0.0","2048x1152","2048x1035",NA,NA,0,"BIQ (Charlotte)",3,"JAIBHCGDFE","Passed AC2","","Spreadsheet1",1,"BIQ","Screen 2","o21mwi",2,"continue","",31838.5870000179,31832.327,31838.5870000179,31838.5870000179,31832.327,31838.5870000179,1,31838.5870000179,0,0,NA,"Click To Continue","Continue Button",22,"object-50","BIQ",NA,"SUPPRF45811"
"7",1695406799958,"22/09/2023 18:19:59",1695410399958,1,"22/09/2023 20:19:59",142855,8,"task-gjqt",NA,31804522,9406464,NA,"complete",NA,"650de5275bf6e329535b77f9","computer","Desktop or Laptop","Windows 10","Chrome 116.0.0.0","2048x1152","2048x1035",NA,NA,0,"BIQ (Charlotte)",3,"JAIBHCGDFE","Passed AC2","","Spreadsheet1",1,"BIQ","Screen 2","o21mwi",2,"response","7",8216.397,31832.327,31840.287000006,8216.397,31832.327,31840.287000006,1,8216.397,23623.890000006,0,NA,"Rating Scale","Rating Scale",2,"object-259","BIQ",NA,"SUPPRF45811"
"8",1695406799959,"22/09/2023 18:19:59",1695410399959,1,"22/09/2023 20:19:59",142855,8,"task-gjqt",NA,31804522,9406464,NA,"complete",NA,"650de5275bf6e329535b77f9","computer","Desktop or Laptop","Windows 10","Chrome 116.0.0.0","2048x1152","2048x1035",NA,NA,0,"BIQ (Charlotte)",3,"JAIBHCGDFE","Passed AC2","","Spreadsheet1",1,"BIQ","Screen 2","o21mwi",2,"response","4",12116.281,31832.327,31840.486999994,12116.281,31832.327,31840.486999994,1,12116.281,19724.205999994,0,NA,"Rating Scale","Rating Scale",9,"object-36","BIQ",NA,"SUPPRF45811"
"9",1695406799959,"22/09/2023 18:19:59",1695410399959,1,"22/09/2023 20:19:59",142855,8,"task-gjqt",NA,31804522,9406464,NA,"complete",NA,"650de5275bf6e329535b77f9","computer","Desktop or Laptop","Windows 10","Chrome 116.0.0.0","2048x1152","2048x1035",NA,NA,0,"BIQ (Charlotte)",3,"JAIBHCGDFE","Passed AC2","","Spreadsheet1",1,"BIQ","Screen 2","o21mwi",2,"response","0",30915.694,31832.327,31840.6870000119,30915.694,31832.327,31840.6870000119,1,30915.694,924.99300001192,0,NA,"Rating Scale","Rating Scale",16,"object-86","BIQ",NA,"SUPPRF45811"
