"Event.Index","UTC.Timestamp","UTC.Date.and.Time","Local.Timestamp","Local.Timezone","Local.Date.and.Time","Experiment.ID","Experiment.Version","Tree.Node.Key","Repeat.Key","Schedule.ID","Participant.Private.ID","Participant.Starting.Group","Participant.Status","Participant.Completion.Code","Participant.Device.Type","Participant.Device","Participant.OS","Participant.Browser","Participant.Monitor.Size","Participant.Viewport.Size","Checkpoint","Room.ID","Room.Order","Task.Name","Task.Version","order.ot79","branch.g31k","branch.5gtn","counterbalance.qny1","Spreadsheet","Current.Spreadsheet","Trial.Number","Display","Screen","Screen.ID","Screen.Counter","Response.Type","Response","Onset.Time","Clock.Time","Reaction.Time","Absolute.Onset.Time","Absolute.Clock.Time","Absolute.Reaction.Time","Correct","Response.Onset","Response.Duration","Proportion","Tag","Component.Name","Object.Name","Object.Number","Object.ID","Spreadsheet..display","Manipulation..Spreadsheet","Random_ID_new"
"1",1718631198713,"17/06/2024 13:33:18",1718634798713,1,"17/06/2024 15:33:18",177048,9,"task-vy7n",NA,38331316,11266455,NA,"complete",NA,"computer","Desktop or Laptop","Windows 10","Chrome 126.0.0.0","1280x720","1280x585",NA,NA,0,"BIQ-A",3,"ABHCGDFE","Passed AC2",NA,"spreadsheet_5","Spreadsheet1","Spreadsheet1",NA,"","","",NA,"info","BEGIN",NA,NA,NA,NA,NA,NA,0,NA,NA,NA,NA,"","",NA,"","",NA,"SUPSCO66122"
"2",1718631232951,"17/06/2024 13:33:52",1718634832951,1,"17/06/2024 15:33:52",177048,9,"task-vy7n",NA,38331316,11266455,NA,"complete",NA,"computer","Desktop or Laptop","Windows 10","Chrome 126.0.0.0","1280x720","1280x585",NA,NA,0,"BIQ-A",3,"ABHCGDFE","Passed AC2",NA,"spreadsheet_5","Spreadsheet1","Spreadsheet1",1,"BIQ","Screen 1","9dh6eq",1,"continue","",34257.7500001907,34247.55,34257.7500001907,34257.7500001907,34247.55,34257.7500001907,1,34257.7500001907,0,0,NA,"Click To Continue","Continue Button",23,"object-48","BIQ",NA,"SUPSCO66122"
"3",1718631232952,"17/06/2024 13:33:52",1718634832952,1,"17/06/2024 15:33:52",177048,9,"task-vy7n",NA,38331316,11266455,NA,"complete",NA,"computer","Desktop or Laptop","Windows 10","Chrome 126.0.0.0","1280x720","1280x585",NA,NA,0,"BIQ-A",3,"ABHCGDFE","Passed AC2",NA,"spreadsheet_5","Spreadsheet1","Spreadsheet1",1,"BIQ","Screen 1","9dh6eq",1,"response","3",18948.85,34247.55,34259.7500001907,18948.85,34247.55,34259.7500001907,1,18948.85,15310.9000001907,0,NA,"Rating Scale","Rating Scale",3,"object-5","BIQ",NA,"SUPSCO66122"
"4",1718631232953,"17/06/2024 13:33:52",1718634832953,1,"17/06/2024 15:33:52",177048,9,"task-vy7n",NA,38331316,11266455,NA,"complete",NA,"computer","Desktop or Laptop","Windows 10","Chrome 126.0.0.0","1280x720","1280x585",NA,NA,0,"BIQ-A",3,"ABHCGDFE","Passed AC2",NA,"spreadsheet_5","Spreadsheet1","Spreadsheet1",1,"BIQ","Screen 1","9dh6eq",1,"response","1",25448.15,34247.55,34259.95,25448.15,34247.55,34259.95,1,25448.15,8811.8,0,NA,"Rating Scale","Rating Scale",10,"object-18","BIQ",NA,"SUPSCO66122"
"5",1718631232953,"17/06/2024 13:33:52",1718634832953,1,"17/06/2024 15:33:52",177048,9,"task-vy7n",NA,38331316,11266455,NA,"complete",NA,"computer","Desktop or Laptop","Windows 10","Chrome 126.0.0.0","1280x720","1280x585",NA,NA,0,"BIQ-A",3,"ABHCGDFE","Passed AC2",NA,"spreadsheet_5","Spreadsheet1","Spreadsheet1",1,"BIQ","Screen 1","9dh6eq",1,"response","4",33564.55,34247.55,34260.1500002861,33564.55,34247.55,34260.1500002861,1,33564.55,695.600000286104,0,NA,"Rating Scale","Rating Scale",17,"object-80","BIQ",NA,"SUPSCO66122"
"6",1718631252700,"17/06/2024 13:34:12",1718634852700,1,"17/06/2024 15:34:12",177048,9,"task-vy7n",NA,38331316,11266455,NA,"complete",NA,"computer","Desktop or Laptop","Windows 10","Chrome 126.0.0.0","1280x720","1280x585",NA,NA,0,"BIQ-A",3,"ABHCGDFE","Passed AC2",NA,"spreadsheet_5","Spreadsheet1","Spreadsheet1",1,"BIQ","Screen 2","o21mwi",2,"continue","",19760.2000001907,19748.7,19760.2000001907,19760.2000001907,19748.7,19760.2000001907,1,19760.2000001907,0,0,NA,"Click To Continue","Continue Button",22,"object-50","BIQ",NA,"SUPSCO66122"
"7",1718631252702,"17/06/2024 13:34:12",1718634852702,1,"17/06/2024 15:34:12",177048,9,"task-vy7n",NA,38331316,11266455,NA,"complete",NA,"computer","Desktop or Laptop","Windows 10","Chrome 126.0.0.0","1280x720","1280x585",NA,NA,0,"BIQ-A",3,"ABHCGDFE","Passed AC2",NA,"spreadsheet_5","Spreadsheet1","Spreadsheet1",1,"BIQ","Screen 2","o21mwi",2,"response","5",6899.7,19748.7,19761.8000000954,6899.7,19748.7,19761.8000000954,1,6899.7,12862.1000000954,0,NA,"Rating Scale","Rating Scale",2,"object-259","BIQ",NA,"SUPSCO66122"
"8",1718631252702,"17/06/2024 13:34:12",1718634852702,1,"17/06/2024 15:34:12",177048,9,"task-vy7n",NA,38331316,11266455,NA,"complete",NA,"computer","Desktop or Laptop","Windows 10","Chrome 126.0.0.0","1280x720","1280x585",NA,NA,0,"BIQ-A",3,"ABHCGDFE","Passed AC2",NA,"spreadsheet_5","Spreadsheet1","Spreadsheet1",1,"BIQ","Screen 2","o21mwi",2,"response","6",13166.1,19748.7,19762.1000002861,13166.1,19748.7,19762.1000002861,1,13166.1,6596.00000028611,0,NA,"Rating Scale","Rating Scale",9,"object-36","BIQ",NA,"SUPSCO66122"
"9",1718631252703,"17/06/2024 13:34:12",1718634852703,1,"17/06/2024 15:34:12",177048,9,"task-vy7n",NA,38331316,11266455,NA,"complete",NA,"computer","Desktop or Laptop","Windows 10","Chrome 126.0.0.0","1280x720","1280x585",NA,NA,0,"BIQ-A",3,"ABHCGDFE","Passed AC2",NA,"spreadsheet_5","Spreadsheet1","Spreadsheet1",1,"BIQ","Screen 2","o21mwi",2,"response","6",18682.2,19748.7,19762.4999999046,18682.2,19748.7,19762.4999999046,1,18682.2,1080.29999990463,0,NA,"Rating Scale","Rating Scale",16,"object-86","BIQ",NA,"SUPSCO66122"
"10",1718631277454,"17/06/2024 13:34:37",1718634877454,1,"17/06/2024 15:34:37",177048,9,"task-vy7n",NA,38331316,11266455,NA,"complete",NA,"computer","Desktop or Laptop","Windows 10","Chrome 126.0.0.0","1280x720","1280x585",NA,NA,0,"BIQ-A",3,"ABHCGDFE","Passed AC2",NA,"spreadsheet_5","Spreadsheet1","Spreadsheet1",1,"BIQ","Screen 3","iz3the",3,"continue","",24765.0000001907,24748.7,24765.0000001907,24765.0000001907,24748.7,24765.0000001907,1,24765.0000001907,0,0,NA,"Click To Continue","Continue Button",22,"object-73","BIQ",NA,"SUPSCO66122"
"11",1718631277456,"17/06/2024 13:34:37",1718634877456,1,"17/06/2024 15:34:37",177048,9,"task-vy7n",NA,38331316,11266455,NA,"complete",NA,"computer","Desktop or Laptop","Windows 10","Chrome 126.0.0.0","1280x720","1280x585",NA,NA,0,"BIQ-A",3,"ABHCGDFE","Passed AC2",NA,"spreadsheet_5","Spreadsheet1","Spreadsheet1",1,"BIQ","Screen 3","iz3the",3,"response","5",6849.8,24748.7,24765.6,6849.8,24748.7,24765.6,1,6849.8,17915.8,0,NA,"Rating Scale","Rating Scale",2,"object-53","BIQ",NA,"SUPSCO66122"
"12",1718631277456,"17/06/2024 13:34:37",1718634877456,1,"17/06/2024 15:34:37",177048,9,"task-vy7n",NA,38331316,11266455,NA,"complete",NA,"computer","Desktop or Laptop","Windows 10","Chrome 126.0.0.0","1280x720","1280x585",NA,NA,0,"BIQ-A",3,"ABHCGDFE","Passed AC2",NA,"spreadsheet_5","Spreadsheet1","Spreadsheet1",1,"BIQ","Screen 3","iz3the",3,"response","4",17449.2,24748.7,24765.6,17449.2,24748.7,24765.6,1,17449.2,7316.39999999999,0,NA,"Rating Scale","Rating Scale",9,"object-60","BIQ",NA,"SUPSCO66122"
"13",1718631277456,"17/06/2024 13:34:37",1718634877456,1,"17/06/2024 15:34:37",177048,9,"task-vy7n",NA,38331316,11266455,NA,"complete",NA,"computer","Desktop or Laptop","Windows 10","Chrome 126.0.0.0","1280x720","1280x585",NA,NA,0,"BIQ-A",3,"ABHCGDFE","Passed AC2",NA,"spreadsheet_5","Spreadsheet1","Spreadsheet1",1,"BIQ","Screen 3","iz3the",3,"response","6",21898.8,24748.7,24765.6,21898.8,24748.7,24765.6,1,21898.8,2866.79999999999,0,NA,"Rating Scale","Rating Scale",16,"object-67","BIQ",NA,"SUPSCO66122"
"14",1718631277460,"17/06/2024 13:34:37",1718634877460,1,"17/06/2024 15:34:37",177048,9,"task-vy7n",NA,38331316,11266455,NA,"complete",NA,"computer","Desktop or Laptop","Windows 10","Chrome 126.0.0.0","1280x720","1280x585",NA,NA,0,"BIQ-A",3,"ABHCGDFE","Passed AC2",NA,"spreadsheet_5","Spreadsheet1","Spreadsheet1",NA,"","","",NA,"info","END",NA,NA,NA,NA,NA,NA,0,NA,NA,NA,NA,"","",NA,"","",NA,"SUPSCO66122"
"1",1718714998446,"18/06/2024 12:49:58",1718718598446,1,"18/06/2024 14:49:58",177048,9,"task-vy7n",NA,38353630,11273152,NA,"complete",NA,"computer","Desktop or Laptop","Windows 10","Chrome 125.0.0.0","1366x768","1242x583",NA,NA,0,"BIQ-A",3,"BCADHEGF","Passed AC2",NA,"spreadsheet_2","Spreadsheet1","Spreadsheet1",NA,"","","",NA,"info","BEGIN",NA,NA,NA,NA,NA,NA,0,NA,NA,NA,NA,"","",NA,"","",NA,"SUPSCO18638"
"2",1718715036702,"18/06/2024 12:50:36",1718718636702,1,"18/06/2024 14:50:36",177048,9,"task-vy7n",NA,38353630,11273152,NA,"complete",NA,"computer","Desktop or Laptop","Windows 10","Chrome 125.0.0.0","1366x768","1242x583",NA,NA,0,"BIQ-A",3,"BCADHEGF","Passed AC2",NA,"spreadsheet_2","Spreadsheet1","Spreadsheet1",1,"BIQ","Screen 1","9dh6eq",1,"continue","",39599.4,39574.4,39599.4,39599.4,39574.4,39599.4,1,39599.4,0,0,NA,"Click To Continue","Continue Button",23,"object-48","BIQ",NA,"SUPSCO18638"
"3",1718715036708,"18/06/2024 12:50:36",1718718636708,1,"18/06/2024 14:50:36",177048,9,"task-vy7n",NA,38353630,11273152,NA,"complete",NA,"computer","Desktop or Laptop","Windows 10","Chrome 125.0.0.0","1366x768","1242x583",NA,NA,0,"BIQ-A",3,"BCADHEGF","Passed AC2",NA,"spreadsheet_2","Spreadsheet1","Spreadsheet1",1,"BIQ","Screen 1","9dh6eq",1,"response","4",18630.5,39574.4,39599.4,18630.5,39574.4,39599.4,1,18630.5,20968.9,0,NA,"Rating Scale","Rating Scale",3,"object-5","BIQ",NA,"SUPSCO18638"
"4",1718715036709,"18/06/2024 12:50:36",1718718636709,1,"18/06/2024 14:50:36",177048,9,"task-vy7n",NA,38353630,11273152,NA,"complete",NA,"computer","Desktop or Laptop","Windows 10","Chrome 125.0.0.0","1366x768","1242x583",NA,NA,0,"BIQ-A",3,"BCADHEGF","Passed AC2",NA,"spreadsheet_2","Spreadsheet1","Spreadsheet1",1,"BIQ","Screen 1","9dh6eq",1,"response","5",31639.5,39574.4,39599.4,31639.5,39574.4,39599.4,1,31639.5,7959.9,0,NA,"Rating Scale","Rating Scale",10,"object-18","BIQ",NA,"SUPSCO18638"
"5",1718715036711,"18/06/2024 12:50:36",1718718636711,1,"18/06/2024 14:50:36",177048,9,"task-vy7n",NA,38353630,11273152,NA,"complete",NA,"computer","Desktop or Laptop","Windows 10","Chrome 125.0.0.0","1366x768","1242x583",NA,NA,0,"BIQ-A",3,"BCADHEGF","Passed AC2",NA,"spreadsheet_2","Spreadsheet1","Spreadsheet1",1,"BIQ","Screen 1","9dh6eq",1,"response","1",38569.8,39574.4,39599.4,38569.8,39574.4,39599.4,1,38569.8,1029.6,0,NA,"Rating Scale","Rating Scale",17,"object-80","BIQ",NA,"SUPSCO18638"
"6",1718715055446,"18/06/2024 12:50:55",1718718655446,1,"18/06/2024 14:50:55",177048,9,"task-vy7n",NA,38353630,11273152,NA,"complete",NA,"computer","Desktop or Laptop","Windows 10","Chrome 125.0.0.0","1366x768","1242x583",NA,NA,0,"BIQ-A",3,"BCADHEGF","Passed AC2",NA,"spreadsheet_2","Spreadsheet1","Spreadsheet1",1,"BIQ","Screen 2","o21mwi",2,"continue","",18783.6,18765.6,18783.6,18783.6,18765.6,18783.6,1,18783.6,0,0,NA,"Click To Continue","Continue Button",22,"object-50","BIQ",NA,"SUPSCO18638"
"7",1718715055451,"18/06/2024 12:50:55",1718718655451,1,"18/06/2024 14:50:55",177048,9,"task-vy7n",NA,38353630,11273152,NA,"complete",NA,"computer","Desktop or Laptop","Windows 10","Chrome 125.0.0.0","1366x768","1242x583",NA,NA,0,"BIQ-A",3,"BCADHEGF","Passed AC2",NA,"spreadsheet_2","Spreadsheet1","Spreadsheet1",1,"BIQ","Screen 2","o21mwi",2,"response","8",8279.2,18765.6,18788.8000000477,8279.2,18765.6,18788.8000000477,1,8279.2,10509.6000000477,0,NA,"Rating Scale","Rating Scale",2,"object-259","BIQ",NA,"SUPSCO18638"
"8",1718715055453,"18/06/2024 12:50:55",1718718655453,1,"18/06/2024 14:50:55",177048,9,"task-vy7n",NA,38353630,11273152,NA,"complete",NA,"computer","Desktop or Laptop","Windows 10","Chrome 125.0.0.0","1366x768","1242x583",NA,NA,0,"BIQ-A",3,"BCADHEGF","Passed AC2",NA,"spreadsheet_2","Spreadsheet1","Spreadsheet1",1,"BIQ","Screen 2","o21mwi",2,"response","1",11482.3,18765.6,18790.1,11482.3,18765.6,18790.1,1,11482.3,7307.8,0,NA,"Rating Scale","Rating Scale",9,"object-36","BIQ",NA,"SUPSCO18638"
"9",1718715055455,"18/06/2024 12:50:55",1718718655455,1,"18/06/2024 14:50:55",177048,9,"task-vy7n",NA,38353630,11273152,NA,"complete",NA,"computer","Desktop or Laptop","Windows 10","Chrome 125.0.0.0","1366x768","1242x583",NA,NA,0,"BIQ-A",3,"BCADHEGF","Passed AC2",NA,"spreadsheet_2","Spreadsheet1","Spreadsheet1",1,"BIQ","Screen 2","o21mwi",2,"response","0",17614.7,18765.6,18790.6,17614.7,18765.6,18790.6,1,17614.7,1175.9,0,NA,"Rating Scale","Rating Scale",16,"object-86","BIQ",NA,"SUPSCO18638"
"10",1718715066664,"18/06/2024 12:51:06",1718718666664,1,"18/06/2024 14:51:06",177048,9,"task-vy7n",NA,38353630,11273152,NA,"complete",NA,"computer","Desktop or Laptop","Windows 10","Chrome 125.0.0.0","1366x768","1242x583",NA,NA,0,"BIQ-A",3,"BCADHEGF","Passed AC2",NA,"spreadsheet_2","Spreadsheet1","Spreadsheet1",1,"BIQ","Screen 3","iz3the",3,"continue","",11234.3,11209.4,11234.3,11234.3,11209.4,11234.3,1,11234.3,0,0,NA,"Click To Continue","Continue Button",22,"object-73","BIQ",NA,"SUPSCO18638"
"11",1718715066670,"18/06/2024 12:51:06",1718718666670,1,"18/06/2024 14:51:06",177048,9,"task-vy7n",NA,38353630,11273152,NA,"complete",NA,"computer","Desktop or Laptop","Windows 10","Chrome 125.0.0.0","1366x768","1242x583",NA,NA,0,"BIQ-A",3,"BCADHEGF","Passed AC2",NA,"spreadsheet_2","Spreadsheet1","Spreadsheet1",1,"BIQ","Screen 3","iz3the",3,"response","0",4400.9,11209.4,11234.3,4400.9,11209.4,11234.3,1,4400.9,6833.39999999999,0,NA,"Rating Scale","Rating Scale",2,"object-53","BIQ",NA,"SUPSCO18638"
"12",1718715066671,"18/06/2024 12:51:06",1718718666671,1,"18/06/2024 14:51:06",177048,9,"task-vy7n",NA,38353630,11273152,NA,"complete",NA,"computer","Desktop or Laptop","Windows 10","Chrome 125.0.0.0","1366x768","1242x583",NA,NA,0,"BIQ-A",3,"BCADHEGF","Passed AC2",NA,"spreadsheet_2","Spreadsheet1","Spreadsheet1",1,"BIQ","Screen 3","iz3the",3,"response","1",9756.89999999999,11209.4,11234.3,9756.89999999999,11209.4,11234.3,1,9756.89999999999,1477.39999999999,0,NA,"Rating Scale","Rating Scale",9,"object-60","BIQ",NA,"SUPSCO18638"
"13",1718715066673,"18/06/2024 12:51:06",1718718666673,1,"18/06/2024 14:51:06",177048,9,"task-vy7n",NA,38353630,11273152,NA,"complete",NA,"computer","Desktop or Laptop","Windows 10","Chrome 125.0.0.0","1366x768","1242x583",NA,NA,0,"BIQ-A",3,"BCADHEGF","Passed AC2",NA,"spreadsheet_2","Spreadsheet1","Spreadsheet1",1,"BIQ","Screen 3","iz3the",3,"response","0",10358.5,11209.4,11234.3,10358.5,11209.4,11234.3,1,10358.5,875.799999999988,0,NA,"Rating Scale","Rating Scale",16,"object-67","BIQ",NA,"SUPSCO18638"
"14",1718715066682,"18/06/2024 12:51:06",1718718666682,1,"18/06/2024 14:51:06",177048,9,"task-vy7n",NA,38353630,11273152,NA,"complete",NA,"computer","Desktop or Laptop","Windows 10","Chrome 125.0.0.0","1366x768","1242x583",NA,NA,0,"BIQ-A",3,"BCADHEGF","Passed AC2",NA,"spreadsheet_2","Spreadsheet1","Spreadsheet1",NA,"","","",NA,"info","END",NA,NA,NA,NA,NA,NA,0,NA,NA,NA,NA,"","",NA,"","",NA,"SUPSCO18638"
"1",1719230939613,"24/06/2024 12:08:59",1719234539613,1,"24/06/2024 14:08:59",177048,9,"task-vy7n",NA,38456619,11304199,NA,"complete",NA,"computer","Desktop or Laptop","Windows 10","Chrome 126.0.0.0","1280x720","1280x720",NA,NA,0,"BIQ-A",3,"EFDGCHBA","Passed AC2",NA,"spreadsheet_3","Spreadsheet1","Spreadsheet1",NA,"","","",NA,"info","BEGIN",NA,NA,NA,NA,NA,NA,0,NA,NA,NA,NA,"","",NA,"","",NA,"SUPSCO79155"
"2",1719230983290,"24/06/2024 12:09:43",1719234583290,1,"24/06/2024 14:09:43",177048,9,"task-vy7n",NA,38456619,11304199,NA,"complete",NA,"computer","Desktop or Laptop","Windows 10","Chrome 126.0.0.0","1280x720","1280x720",NA,NA,0,"BIQ-A",3,"EFDGCHBA","Passed AC2",NA,"spreadsheet_3","Spreadsheet1","Spreadsheet1",1,"BIQ","Screen 1","9dh6eq",1,"continue","",43700.3,43683.8,43700.3,43700.3,43683.8,43700.3,1,43700.3,0,0,NA,"Click To Continue","Continue Button",23,"object-48","BIQ",NA,"SUPSCO79155"
"3",1719230983294,"24/06/2024 12:09:43",1719234583294,1,"24/06/2024 14:09:43",177048,9,"task-vy7n",NA,38456619,11304199,NA,"complete",NA,"computer","Desktop or Laptop","Windows 10","Chrome 126.0.0.0","1280x720","1280x720",NA,NA,0,"BIQ-A",3,"EFDGCHBA","Passed AC2",NA,"spreadsheet_3","Spreadsheet1","Spreadsheet1",1,"BIQ","Screen 1","9dh6eq",1,"response","6",28700.2,43683.8,43700.3,28700.2,43683.8,43700.3,1,28700.2,15000.1,0,NA,"Rating Scale","Rating Scale",3,"object-5","BIQ",NA,"SUPSCO79155"
"4",1719230983295,"24/06/2024 12:09:43",1719234583295,1,"24/06/2024 14:09:43",177048,9,"task-vy7n",NA,38456619,11304199,NA,"complete",NA,"computer","Desktop or Laptop","Windows 10","Chrome 126.0.0.0","1280x720","1280x720",NA,NA,0,"BIQ-A",3,"EFDGCHBA","Passed AC2",NA,"spreadsheet_3","Spreadsheet1","Spreadsheet1",1,"BIQ","Screen 1","9dh6eq",1,"response","5",35617,43683.8,43700.3,35617,43683.8,43700.3,1,35617,8083.3,0,NA,"Rating Scale","Rating Scale",10,"object-18","BIQ",NA,"SUPSCO79155"
"5",1719230983296,"24/06/2024 12:09:43",1719234583296,1,"24/06/2024 14:09:43",177048,9,"task-vy7n",NA,38456619,11304199,NA,"complete",NA,"computer","Desktop or Laptop","Windows 10","Chrome 126.0.0.0","1280x720","1280x720",NA,NA,0,"BIQ-A",3,"EFDGCHBA","Passed AC2",NA,"spreadsheet_3","Spreadsheet1","Spreadsheet1",1,"BIQ","Screen 1","9dh6eq",1,"response","4",42633.9,43683.8,43700.3,42633.9,43683.8,43700.3,1,42633.9,1066.39999999999,0,NA,"Rating Scale","Rating Scale",17,"object-80","BIQ",NA,"SUPSCO79155"
"6",1719231006857,"24/06/2024 12:10:06",1719234606857,1,"24/06/2024 14:10:06",177048,9,"task-vy7n",NA,38456619,11304199,NA,"complete",NA,"computer","Desktop or Laptop","Windows 10","Chrome 126.0.0.0","1280x720","1280x720",NA,NA,0,"BIQ-A",3,"EFDGCHBA","Passed AC2",NA,"spreadsheet_3","Spreadsheet1","Spreadsheet1",1,"BIQ","Screen 2","o21mwi",2,"continue","",23588.1000000007,23583.7,23588.1000000007,23588.1000000007,23583.7,23588.1000000007,1,23588.1000000007,0,0,NA,"Click To Continue","Continue Button",22,"object-50","BIQ",NA,"SUPSCO79155"
"7",1719231006863,"24/06/2024 12:10:06",1719234606863,1,"24/06/2024 14:10:06",177048,9,"task-vy7n",NA,38456619,11304199,NA,"complete",NA,"computer","Desktop or Laptop","Windows 10","Chrome 126.0.0.0","1280x720","1280x720",NA,NA,0,"BIQ-A",3,"EFDGCHBA","Passed AC2",NA,"spreadsheet_3","Spreadsheet1","Spreadsheet1",1,"BIQ","Screen 2","o21mwi",2,"response","6",8166.8,23583.7,23594.1000000007,8166.8,23583.7,23594.1000000007,1,8166.8,15427.3000000007,0,NA,"Rating Scale","Rating Scale",2,"object-259","BIQ",NA,"SUPSCO79155"
"8",1719231006864,"24/06/2024 12:10:06",1719234606864,1,"24/06/2024 14:10:06",177048,9,"task-vy7n",NA,38456619,11304199,NA,"complete",NA,"computer","Desktop or Laptop","Windows 10","Chrome 126.0.0.0","1280x720","1280x720",NA,NA,0,"BIQ-A",3,"EFDGCHBA","Passed AC2",NA,"spreadsheet_3","Spreadsheet1","Spreadsheet1",1,"BIQ","Screen 2","o21mwi",2,"response","6",11783.6,23583.7,23595.6000000007,11783.6,23583.7,23595.6000000007,1,11783.6,11812.0000000007,0,NA,"Rating Scale","Rating Scale",9,"object-36","BIQ",NA,"SUPSCO79155"
"9",1719231006866,"24/06/2024 12:10:06",1719234606866,1,"24/06/2024 14:10:06",177048,9,"task-vy7n",NA,38456619,11304199,NA,"complete",NA,"computer","Desktop or Laptop","Windows 10","Chrome 126.0.0.0","1280x720","1280x720",NA,NA,0,"BIQ-A",3,"EFDGCHBA","Passed AC2",NA,"spreadsheet_3","Spreadsheet1","Spreadsheet1",1,"BIQ","Screen 2","o21mwi",2,"response","1",17266.9,23583.7,23596.9999999993,17266.9,23583.7,23596.9999999993,1,17266.9,6330.09999999926,0,NA,"Rating Scale","Rating Scale",16,"object-86","BIQ",NA,"SUPSCO79155"
"10",1719231019232,"24/06/2024 12:10:19",1719234619232,1,"24/06/2024 14:10:19",177048,9,"task-vy7n",NA,38456619,11304199,NA,"complete",NA,"computer","Desktop or Laptop","Windows 10","Chrome 126.0.0.0","1280x720","1280x720",NA,NA,0,"BIQ-A",3,"EFDGCHBA","Passed AC2",NA,"spreadsheet_3","Spreadsheet1","Spreadsheet1",1,"BIQ","Screen 3","iz3the",3,"continue","",12380.0000000004,12367,12380.0000000004,12380.0000000004,12367,12380.0000000004,1,12380.0000000004,0,0,NA,"Click To Continue","Continue Button",22,"object-73","BIQ",NA,"SUPSCO79155"
"11",1719231019234,"24/06/2024 12:10:19",1719234619234,1,"24/06/2024 14:10:19",177048,9,"task-vy7n",NA,38456619,11304199,NA,"complete",NA,"computer","Desktop or Laptop","Windows 10","Chrome 126.0.0.0","1280x720","1280x720",NA,NA,0,"BIQ-A",3,"EFDGCHBA","Passed AC2",NA,"spreadsheet_3","Spreadsheet1","Spreadsheet1",1,"BIQ","Screen 3","iz3the",3,"response","1",6016.70000000001,12367,12382.4000000008,6016.70000000001,12367,12382.4000000008,1,6016.70000000001,6365.70000000074,0,NA,"Rating Scale","Rating Scale",2,"object-53","BIQ",NA,"SUPSCO79155"
"12",1719231019235,"24/06/2024 12:10:19",1719234619235,1,"24/06/2024 14:10:19",177048,9,"task-vy7n",NA,38456619,11304199,NA,"complete",NA,"computer","Desktop or Laptop","Windows 10","Chrome 126.0.0.0","1280x720","1280x720",NA,NA,0,"BIQ-A",3,"EFDGCHBA","Passed AC2",NA,"spreadsheet_3","Spreadsheet1","Spreadsheet1",1,"BIQ","Screen 3","iz3the",3,"response","2",8783.5,12367,12382.9000000008,8783.5,12367,12382.9000000008,1,8783.5,3599.40000000075,0,NA,"Rating Scale","Rating Scale",9,"object-60","BIQ",NA,"SUPSCO79155"
"13",1719231019236,"24/06/2024 12:10:19",1719234619236,1,"24/06/2024 14:10:19",177048,9,"task-vy7n",NA,38456619,11304199,NA,"complete",NA,"computer","Desktop or Laptop","Windows 10","Chrome 126.0.0.0","1280x720","1280x720",NA,NA,0,"BIQ-A",3,"EFDGCHBA","Passed AC2",NA,"spreadsheet_3","Spreadsheet1","Spreadsheet1",1,"BIQ","Screen 3","iz3the",3,"response","4",11416.9,12367,12383.5000000004,11416.9,12367,12383.5000000004,1,11416.9,966.60000000037,0,NA,"Rating Scale","Rating Scale",16,"object-67","BIQ",NA,"SUPSCO79155"
"14",1719231019240,"24/06/2024 12:10:19",1719234619240,1,"24/06/2024 14:10:19",177048,9,"task-vy7n",NA,38456619,11304199,NA,"complete",NA,"computer","Desktop or Laptop","Windows 10","Chrome 126.0.0.0","1280x720","1280x720",NA,NA,0,"BIQ-A",3,"EFDGCHBA","Passed AC2",NA,"spreadsheet_3","Spreadsheet1","Spreadsheet1",NA,"","","",NA,"info","END",NA,NA,NA,NA,NA,NA,0,NA,NA,NA,NA,"","",NA,"","",NA,"SUPSCO79155"
"1",1719328093760,"25/06/2024 15:08:13",1719331693760,1,"25/06/2024 17:08:13",177048,9,"task-vy7n",NA,38487462,11312573,NA,"complete",NA,"computer","Desktop or Laptop","Windows 10","Chrome 126.0.0.0","1920x1080","1920x989",NA,NA,0,"BIQ-A",3,"GHFAEBDC","Passed AC2",NA,"spreadsheet_5","Spreadsheet1","Spreadsheet1",NA,"","","",NA,"info","BEGIN",NA,NA,NA,NA,NA,NA,0,NA,NA,NA,NA,"","",NA,"","",NA,"SUPSCO20104"
"2",1719328116458,"25/06/2024 15:08:36",1719331716458,1,"25/06/2024 17:08:36",177048,9,"task-vy7n",NA,38487462,11312573,NA,"complete",NA,"computer","Desktop or Laptop","Windows 10","Chrome 126.0.0.0","1920x1080","1920x989",NA,NA,0,"BIQ-A",3,"GHFAEBDC","Passed AC2",NA,"spreadsheet_5","Spreadsheet1","Spreadsheet1",1,"BIQ","Screen 1","9dh6eq",1,"continue","",22708.5,22701.8,22708.5,22708.5,22701.8,22708.5,1,22708.5,0,0,NA,"Click To Continue","Continue Button",23,"object-48","BIQ",NA,"SUPSCO20104"
"3",1719328116460,"25/06/2024 15:08:36",1719331716460,1,"25/06/2024 17:08:36",177048,9,"task-vy7n",NA,38487462,11312573,NA,"complete",NA,"computer","Desktop or Laptop","Windows 10","Chrome 126.0.0.0","1920x1080","1920x989",NA,NA,0,"BIQ-A",3,"GHFAEBDC","Passed AC2",NA,"spreadsheet_5","Spreadsheet1","Spreadsheet1",1,"BIQ","Screen 1","9dh6eq",1,"response","7",10163.7,22701.8,22711.099999994,10163.7,22701.8,22711.099999994,1,10163.7,12547.399999994,0,NA,"Rating Scale","Rating Scale",3,"object-5","BIQ",NA,"SUPSCO20104"
"4",1719328116460,"25/06/2024 15:08:36",1719331716460,1,"25/06/2024 17:08:36",177048,9,"task-vy7n",NA,38487462,11312573,NA,"complete",NA,"computer","Desktop or Laptop","Windows 10","Chrome 126.0.0.0","1920x1080","1920x989",NA,NA,0,"BIQ-A",3,"GHFAEBDC","Passed AC2",NA,"spreadsheet_5","Spreadsheet1","Spreadsheet1",1,"BIQ","Screen 1","9dh6eq",1,"response","7",18606.9,22701.8,22711.5,18606.9,22701.8,22711.5,1,18606.9,4104.6,0,NA,"Rating Scale","Rating Scale",10,"object-18","BIQ",NA,"SUPSCO20104"
"5",1719328116461,"25/06/2024 15:08:36",1719331716461,1,"25/06/2024 17:08:36",177048,9,"task-vy7n",NA,38487462,11312573,NA,"complete",NA,"computer","Desktop or Laptop","Windows 10","Chrome 126.0.0.0","1920x1080","1920x989",NA,NA,0,"BIQ-A",3,"GHFAEBDC","Passed AC2",NA,"spreadsheet_5","Spreadsheet1","Spreadsheet1",1,"BIQ","Screen 1","9dh6eq",1,"response","0",21941.4,22701.8,22711.8000000119,21941.4,22701.8,22711.8000000119,1,21941.4,770.400000011919,0,NA,"Rating Scale","Rating Scale",17,"object-80","BIQ",NA,"SUPSCO20104"
"6",1719328133395,"25/06/2024 15:08:53",1719331733395,1,"25/06/2024 17:08:53",177048,9,"task-vy7n",NA,38487462,11312573,NA,"complete",NA,"computer","Desktop or Laptop","Windows 10","Chrome 126.0.0.0","1920x1080","1920x989",NA,NA,0,"BIQ-A",3,"GHFAEBDC","Passed AC2",NA,"spreadsheet_5","Spreadsheet1","Spreadsheet1",1,"BIQ","Screen 2","o21mwi",2,"continue","",16943.799999994,16939.5,16943.799999994,16943.799999994,16939.5,16943.799999994,1,16943.799999994,0,0,NA,"Click To Continue","Continue Button",22,"object-50","BIQ",NA,"SUPSCO20104"
"7",1719328133397,"25/06/2024 15:08:53",1719331733397,1,"25/06/2024 17:08:53",177048,9,"task-vy7n",NA,38487462,11312573,NA,"complete",NA,"computer","Desktop or Laptop","Windows 10","Chrome 126.0.0.0","1920x1080","1920x989",NA,NA,0,"BIQ-A",3,"GHFAEBDC","Passed AC2",NA,"spreadsheet_5","Spreadsheet1","Spreadsheet1",1,"BIQ","Screen 2","o21mwi",2,"response","7",4601.6,16939.5,16946.3999999881,4601.6,16939.5,16946.3999999881,1,4601.6,12344.7999999881,0,NA,"Rating Scale","Rating Scale",2,"object-259","BIQ",NA,"SUPSCO20104"
"8",1719328133398,"25/06/2024 15:08:53",1719331733398,1,"25/06/2024 17:08:53",177048,9,"task-vy7n",NA,38487462,11312573,NA,"complete",NA,"computer","Desktop or Laptop","Windows 10","Chrome 126.0.0.0","1920x1080","1920x989",NA,NA,0,"BIQ-A",3,"GHFAEBDC","Passed AC2",NA,"spreadsheet_5","Spreadsheet1","Spreadsheet1",1,"BIQ","Screen 2","o21mwi",2,"response","0",9243.4,16939.5,16946.799999994,9243.4,16939.5,16946.799999994,1,9243.4,7703.39999999404,0,NA,"Rating Scale","Rating Scale",9,"object-36","BIQ",NA,"SUPSCO20104"
"9",1719328133398,"25/06/2024 15:08:53",1719331733398,1,"25/06/2024 17:08:53",177048,9,"task-vy7n",NA,38487462,11312573,NA,"complete",NA,"computer","Desktop or Laptop","Windows 10","Chrome 126.0.0.0","1920x1080","1920x989",NA,NA,0,"BIQ-A",3,"GHFAEBDC","Passed AC2",NA,"spreadsheet_5","Spreadsheet1","Spreadsheet1",1,"BIQ","Screen 2","o21mwi",2,"response","0",15725.7,16939.5,16947.299999994,15725.7,16939.5,16947.299999994,1,15725.7,1221.59999999404,0,NA,"Rating Scale","Rating Scale",16,"object-86","BIQ",NA,"SUPSCO20104"
"10",1719328144415,"25/06/2024 15:09:04",1719331744415,1,"25/06/2024 17:09:04",177048,9,"task-vy7n",NA,38487462,11312573,NA,"complete",NA,"computer","Desktop or Laptop","Windows 10","Chrome 126.0.0.0","1920x1080","1920x989",NA,NA,0,"BIQ-A",3,"GHFAEBDC","Passed AC2",NA,"spreadsheet_5","Spreadsheet1","Spreadsheet1",1,"BIQ","Screen 3","iz3the",3,"continue","",11024.100000006,11017.4,11024.100000006,11024.100000006,11017.4,11024.100000006,1,11024.100000006,0,0,NA,"Click To Continue","Continue Button",22,"object-73","BIQ",NA,"SUPSCO20104"
"11",1719328144417,"25/06/2024 15:09:04",1719331744417,1,"25/06/2024 17:09:04",177048,9,"task-vy7n",NA,38487462,11312573,NA,"complete",NA,"computer","Desktop or Laptop","Windows 10","Chrome 126.0.0.0","1920x1080","1920x989",NA,NA,0,"BIQ-A",3,"GHFAEBDC","Passed AC2",NA,"spreadsheet_5","Spreadsheet1","Spreadsheet1",1,"BIQ","Screen 3","iz3the",3,"response","0",3067.8,11017.4,11026.5000000119,3067.8,11017.4,11026.5000000119,1,3067.8,7958.70000001192,0,NA,"Rating Scale","Rating Scale",2,"object-53","BIQ",NA,"SUPSCO20104"
"12",1719328144417,"25/06/2024 15:09:04",1719331744417,1,"25/06/2024 17:09:04",177048,9,"task-vy7n",NA,38487462,11312573,NA,"complete",NA,"computer","Desktop or Laptop","Windows 10","Chrome 126.0.0.0","1920x1080","1920x989",NA,NA,0,"BIQ-A",3,"GHFAEBDC","Passed AC2",NA,"spreadsheet_5","Spreadsheet1","Spreadsheet1",1,"BIQ","Screen 3","iz3the",3,"response","0",8109.6,11017.4,11027.0000000119,8109.6,11017.4,11027.0000000119,1,8109.6,2917.40000001192,0,NA,"Rating Scale","Rating Scale",9,"object-60","BIQ",NA,"SUPSCO20104"
"13",1719328144418,"25/06/2024 15:09:04",1719331744418,1,"25/06/2024 17:09:04",177048,9,"task-vy7n",NA,38487462,11312573,NA,"complete",NA,"computer","Desktop or Laptop","Windows 10","Chrome 126.0.0.0","1920x1080","1920x989",NA,NA,0,"BIQ-A",3,"GHFAEBDC","Passed AC2",NA,"spreadsheet_5","Spreadsheet1","Spreadsheet1",1,"BIQ","Screen 3","iz3the",3,"response","0",9763.7,11017.4,11027.3999999881,9763.7,11017.4,11027.3999999881,1,9763.7,1263.69999998808,0,NA,"Rating Scale","Rating Scale",16,"object-67","BIQ",NA,"SUPSCO20104"
"14",1719328144422,"25/06/2024 15:09:04",1719331744422,1,"25/06/2024 17:09:04",177048,9,"task-vy7n",NA,38487462,11312573,NA,"complete",NA,"computer","Desktop or Laptop","Windows 10","Chrome 126.0.0.0","1920x1080","1920x989",NA,NA,0,"BIQ-A",3,"GHFAEBDC","Passed AC2",NA,"spreadsheet_5","Spreadsheet1","Spreadsheet1",NA,"","","",NA,"info","END",NA,NA,NA,NA,NA,NA,0,NA,NA,NA,NA,"","",NA,"","",NA,"SUPSCO20104"
"1",1719570917179,"28/06/2024 10:35:17",1719574517179,1,"28/06/2024 12:35:17",177048,9,"task-vy7n",NA,38562211,11330297,NA,"complete",NA,"computer","Desktop or Laptop","Windows 10","Chrome 126.0.0.0","1366x768","1366x641",NA,NA,0,"BIQ-A",3,"EFDGCHBA","Passed AC2",NA,"spreadsheet","Spreadsheet1","Spreadsheet1",NA,"","","",NA,"info","BEGIN",NA,NA,NA,NA,NA,NA,0,NA,NA,NA,NA,"","",NA,"","",NA,"SUPSCO12782"
"2",1719570953566,"28/06/2024 10:35:53",1719574553566,1,"28/06/2024 12:35:53",177048,9,"task-vy7n",NA,38562211,11330297,NA,"complete",NA,"computer","Desktop or Laptop","Windows 10","Chrome 126.0.0.0","1366x768","1366x641",NA,NA,0,"BIQ-A",3,"EFDGCHBA","Passed AC2",NA,"spreadsheet","Spreadsheet1","Spreadsheet1",1,"BIQ","Screen 1","9dh6eq",1,"continue","",36392.1000000001,36377.6,36392.1000000001,36392.1000000001,36377.6,36392.1000000001,1,36392.1000000001,0,0,NA,"Click To Continue","Continue Button",23,"object-48","BIQ",NA,"SUPSCO12782"
"3",1719570953570,"28/06/2024 10:35:53",1719574553570,1,"28/06/2024 12:35:53",177048,9,"task-vy7n",NA,38562211,11330297,NA,"complete",NA,"computer","Desktop or Laptop","Windows 10","Chrome 126.0.0.0","1366x768","1366x641",NA,NA,0,"BIQ-A",3,"EFDGCHBA","Passed AC2",NA,"spreadsheet","Spreadsheet1","Spreadsheet1",1,"BIQ","Screen 1","9dh6eq",1,"response","3",15014.3,36377.6,36394.4,15014.3,36377.6,36394.4,1,15014.3,21380.1,0,NA,"Rating Scale","Rating Scale",3,"object-5","BIQ",NA,"SUPSCO12782"
"4",1719570953571,"28/06/2024 10:35:53",1719574553571,1,"28/06/2024 12:35:53",177048,9,"task-vy7n",NA,38562211,11330297,NA,"complete",NA,"computer","Desktop or Laptop","Windows 10","Chrome 126.0.0.0","1366x768","1366x641",NA,NA,0,"BIQ-A",3,"EFDGCHBA","Passed AC2",NA,"spreadsheet","Spreadsheet1","Spreadsheet1",1,"BIQ","Screen 1","9dh6eq",1,"response","8",31645.1,36377.6,36394.4,31645.1,36377.6,36394.4,1,31645.1,4749.3,0,NA,"Rating Scale","Rating Scale",10,"object-18","BIQ",NA,"SUPSCO12782"
"5",1719570953572,"28/06/2024 10:35:53",1719574553572,1,"28/06/2024 12:35:53",177048,9,"task-vy7n",NA,38562211,11330297,NA,"complete",NA,"computer","Desktop or Laptop","Windows 10","Chrome 126.0.0.0","1366x768","1366x641",NA,NA,0,"BIQ-A",3,"EFDGCHBA","Passed AC2",NA,"spreadsheet","Spreadsheet1","Spreadsheet1",1,"BIQ","Screen 1","9dh6eq",1,"response","4",35744.3,36377.6,36394.4,35744.3,36377.6,36394.4,1,35744.3,650.099999999991,0,NA,"Rating Scale","Rating Scale",17,"object-80","BIQ",NA,"SUPSCO12782"
"6",1719570975232,"28/06/2024 10:36:15",1719574575232,1,"28/06/2024 12:36:15",177048,9,"task-vy7n",NA,38562211,11330297,NA,"complete",NA,"computer","Desktop or Laptop","Windows 10","Chrome 126.0.0.0","1366x768","1366x641",NA,NA,0,"BIQ-A",3,"EFDGCHBA","Passed AC2",NA,"spreadsheet","Spreadsheet1","Spreadsheet1",1,"BIQ","Screen 2","o21mwi",2,"continue","",21682.0000000001,21679.8,21682.0000000001,21682.0000000001,21679.8,21682.0000000001,1,21682.0000000001,0,0,NA,"Click To Continue","Continue Button",22,"object-50","BIQ",NA,"SUPSCO12782"
"7",1719570975238,"28/06/2024 10:36:15",1719574575238,1,"28/06/2024 12:36:15",177048,9,"task-vy7n",NA,38562211,11330297,NA,"complete",NA,"computer","Desktop or Laptop","Windows 10","Chrome 126.0.0.0","1366x768","1366x641",NA,NA,0,"BIQ-A",3,"EFDGCHBA","Passed AC2",NA,"spreadsheet","Spreadsheet1","Spreadsheet1",1,"BIQ","Screen 2","o21mwi",2,"response","7",7382.1,21679.8,21687.7000000003,7382.1,21679.8,21687.7000000003,1,7382.1,14305.6000000003,0,NA,"Rating Scale","Rating Scale",2,"object-259","BIQ",NA,"SUPSCO12782"
"8",1719570975240,"28/06/2024 10:36:15",1719574575240,1,"28/06/2024 12:36:15",177048,9,"task-vy7n",NA,38562211,11330297,NA,"complete",NA,"computer","Desktop or Laptop","Windows 10","Chrome 126.0.0.0","1366x768","1366x641",NA,NA,0,"BIQ-A",3,"EFDGCHBA","Passed AC2",NA,"spreadsheet","Spreadsheet1","Spreadsheet1",1,"BIQ","Screen 2","o21mwi",2,"response","6",10614.9,21679.8,21689.2999999999,10614.9,21679.8,21689.2999999999,1,10614.9,11074.3999999999,0,NA,"Rating Scale","Rating Scale",9,"object-36","BIQ",NA,"SUPSCO12782"
"9",1719570975242,"28/06/2024 10:36:15",1719574575242,1,"28/06/2024 12:36:15",177048,9,"task-vy7n",NA,38562211,11330297,NA,"complete",NA,"computer","Desktop or Laptop","Windows 10","Chrome 126.0.0.0","1366x768","1366x641",NA,NA,0,"BIQ-A",3,"EFDGCHBA","Passed AC2",NA,"spreadsheet","Spreadsheet1","Spreadsheet1",1,"BIQ","Screen 2","o21mwi",2,"response","4",20913.2,21679.8,21691.5000000001,20913.2,21679.8,21691.5000000001,1,20913.2,778.30000000009,0,NA,"Rating Scale","Rating Scale",16,"object-86","BIQ",NA,"SUPSCO12782"
"10",1719570994097,"28/06/2024 10:36:34",1719574594097,1,"28/06/2024 12:36:34",177048,9,"task-vy7n",NA,38562211,11330297,NA,"complete",NA,"computer","Desktop or Laptop","Windows 10","Chrome 126.0.0.0","1366x768","1366x641",NA,NA,0,"BIQ-A",3,"EFDGCHBA","Passed AC2",NA,"spreadsheet","Spreadsheet1","Spreadsheet1",1,"BIQ","Screen 3","iz3the",3,"continue","",18866.4000000003,18863.6,18866.4000000003,18866.4000000003,18863.6,18866.4000000003,1,18866.4000000003,0,0,NA,"Click To Continue","Continue Button",22,"object-73","BIQ",NA,"SUPSCO12782"
"11",1719570994104,"28/06/2024 10:36:34",1719574594104,1,"28/06/2024 12:36:34",177048,9,"task-vy7n",NA,38562211,11330297,NA,"complete",NA,"computer","Desktop or Laptop","Windows 10","Chrome 126.0.0.0","1366x768","1366x641",NA,NA,0,"BIQ-A",3,"EFDGCHBA","Passed AC2",NA,"spreadsheet","Spreadsheet1","Spreadsheet1",1,"BIQ","Screen 3","iz3the",3,"response","0",5382.4,18863.6,18873.3000000002,5382.4,18863.6,18873.3000000002,1,5382.4,13490.9000000002,0,NA,"Rating Scale","Rating Scale",2,"object-53","BIQ",NA,"SUPSCO12782"
"12",1719570994106,"28/06/2024 10:36:34",1719574594106,1,"28/06/2024 12:36:34",177048,9,"task-vy7n",NA,38562211,11330297,NA,"complete",NA,"computer","Desktop or Laptop","Windows 10","Chrome 126.0.0.0","1366x768","1366x641",NA,NA,0,"BIQ-A",3,"EFDGCHBA","Passed AC2",NA,"spreadsheet","Spreadsheet1","Spreadsheet1",1,"BIQ","Screen 3","iz3the",3,"response","3",15380.7,18863.6,18875.2000000001,15380.7,18863.6,18875.2000000001,1,15380.7,3494.50000000009,0,NA,"Rating Scale","Rating Scale",9,"object-60","BIQ",NA,"SUPSCO12782"
"13",1719570994108,"28/06/2024 10:36:34",1719574594108,1,"28/06/2024 12:36:34",177048,9,"task-vy7n",NA,38562211,11330297,NA,"complete",NA,"computer","Desktop or Laptop","Windows 10","Chrome 126.0.0.0","1366x768","1366x641",NA,NA,0,"BIQ-A",3,"EFDGCHBA","Passed AC2",NA,"spreadsheet","Spreadsheet1","Spreadsheet1",1,"BIQ","Screen 3","iz3the",3,"response","6",18147,18863.6,18877.9000000003,18147,18863.6,18877.9000000003,1,18147,730.900000000285,0,NA,"Rating Scale","Rating Scale",16,"object-67","BIQ",NA,"SUPSCO12782"
"14",1719570994120,"28/06/2024 10:36:34",1719574594120,1,"28/06/2024 12:36:34",177048,9,"task-vy7n",NA,38562211,11330297,NA,"complete",NA,"computer","Desktop or Laptop","Windows 10","Chrome 126.0.0.0","1366x768","1366x641",NA,NA,0,"BIQ-A",3,"EFDGCHBA","Passed AC2",NA,"spreadsheet","Spreadsheet1","Spreadsheet1",NA,"","","",NA,"info","END",NA,NA,NA,NA,NA,NA,0,NA,NA,NA,NA,"","",NA,"","",NA,"SUPSCO12782"
"1",1720098303131,"04/07/2024 13:05:03",1720101903131,1,"04/07/2024 15:05:03",177048,9,"task-vy7n",NA,38752978,11372330,NA,"complete",NA,"computer","Desktop or Laptop","Windows 10","Chrome 126.0.0.0","1536x864","1536x738",NA,NA,0,"BIQ-A",3,"HAGBFCED","Passed AC2",NA,"spreadsheet_5","Spreadsheet1","Spreadsheet1",NA,"","","",NA,"info","BEGIN",NA,NA,NA,NA,NA,NA,0,NA,NA,NA,NA,"","",NA,"","",NA,"SUPSCO05151"
"2",1720098336257,"04/07/2024 13:05:36",1720101936257,1,"04/07/2024 15:05:36",177048,9,"task-vy7n",NA,38752978,11372330,NA,"complete",NA,"computer","Desktop or Laptop","Windows 10","Chrome 126.0.0.0","1536x864","1536x738",NA,NA,0,"BIQ-A",3,"HAGBFCED","Passed AC2",NA,"spreadsheet_5","Spreadsheet1","Spreadsheet1",1,"BIQ","Screen 1","9dh6eq",1,"continue","",33135.399999994,33129.2,33135.399999994,33135.399999994,33129.2,33135.399999994,1,33135.399999994,0,0,NA,"Click To Continue","Continue Button",23,"object-48","BIQ",NA,"SUPSCO05151"
"3",1720098336259,"04/07/2024 13:05:36",1720101936259,1,"04/07/2024 15:05:36",177048,9,"task-vy7n",NA,38752978,11372330,NA,"complete",NA,"computer","Desktop or Laptop","Windows 10","Chrome 126.0.0.0","1536x864","1536x738",NA,NA,0,"BIQ-A",3,"HAGBFCED","Passed AC2",NA,"spreadsheet_5","Spreadsheet1","Spreadsheet1",1,"BIQ","Screen 1","9dh6eq",1,"response","4",16189.5,33129.2,33138.3,16189.5,33129.2,33138.3,1,16189.5,16948.8,0,NA,"Rating Scale","Rating Scale",3,"object-5","BIQ",NA,"SUPSCO05151"
"4",1720098336260,"04/07/2024 13:05:36",1720101936260,1,"04/07/2024 15:05:36",177048,9,"task-vy7n",NA,38752978,11372330,NA,"complete",NA,"computer","Desktop or Laptop","Windows 10","Chrome 126.0.0.0","1536x864","1536x738",NA,NA,0,"BIQ-A",3,"HAGBFCED","Passed AC2",NA,"spreadsheet_5","Spreadsheet1","Spreadsheet1",1,"BIQ","Screen 1","9dh6eq",1,"response","5",27377.1,33129.2,33138.5999999821,27377.1,33129.2,33138.5999999821,1,27377.1,5761.49999998212,0,NA,"Rating Scale","Rating Scale",10,"object-18","BIQ",NA,"SUPSCO05151"
"5",1720098336260,"04/07/2024 13:05:36",1720101936260,1,"04/07/2024 15:05:36",177048,9,"task-vy7n",NA,38752978,11372330,NA,"complete",NA,"computer","Desktop or Laptop","Windows 10","Chrome 126.0.0.0","1536x864","1536x738",NA,NA,0,"BIQ-A",3,"HAGBFCED","Passed AC2",NA,"spreadsheet_5","Spreadsheet1","Spreadsheet1",1,"BIQ","Screen 1","9dh6eq",1,"response","4",32595.7,33129.2,33138.6999999762,32595.7,33129.2,33138.6999999762,1,32595.7,542.99999997616,0,NA,"Rating Scale","Rating Scale",17,"object-80","BIQ",NA,"SUPSCO05151"
"6",1720098358111,"04/07/2024 13:05:58",1720101958111,1,"04/07/2024 15:05:58",177048,9,"task-vy7n",NA,38752978,11372330,NA,"complete",NA,"computer","Desktop or Laptop","Windows 10","Chrome 126.0.0.0","1536x864","1536x738",NA,NA,0,"BIQ-A",3,"HAGBFCED","Passed AC2",NA,"spreadsheet_5","Spreadsheet1","Spreadsheet1",1,"BIQ","Screen 2","o21mwi",2,"continue","",21860.2999999881,21858.3,21860.2999999881,21860.2999999881,21858.3,21860.2999999881,1,21860.2999999881,0,0,NA,"Click To Continue","Continue Button",22,"object-50","BIQ",NA,"SUPSCO05151"
"7",1720098358112,"04/07/2024 13:05:58",1720101958112,1,"04/07/2024 15:05:58",177048,9,"task-vy7n",NA,38752978,11372330,NA,"complete",NA,"computer","Desktop or Laptop","Windows 10","Chrome 126.0.0.0","1536x864","1536x738",NA,NA,0,"BIQ-A",3,"HAGBFCED","Passed AC2",NA,"spreadsheet_5","Spreadsheet1","Spreadsheet1",1,"BIQ","Screen 2","o21mwi",2,"response","7",6219.2,21858.3,21861.8999999821,6219.2,21858.3,21861.8999999821,1,6219.2,15642.6999999821,0,NA,"Rating Scale","Rating Scale",2,"object-259","BIQ",NA,"SUPSCO05151"
"8",1720098358113,"04/07/2024 13:05:58",1720101958113,1,"04/07/2024 15:05:58",177048,9,"task-vy7n",NA,38752978,11372330,NA,"complete",NA,"computer","Desktop or Laptop","Windows 10","Chrome 126.0.0.0","1536x864","1536x738",NA,NA,0,"BIQ-A",3,"HAGBFCED","Passed AC2",NA,"spreadsheet_5","Spreadsheet1","Spreadsheet1",1,"BIQ","Screen 2","o21mwi",2,"response","2",11087.8,21858.3,21862.2999999881,11087.8,21858.3,21862.2999999881,1,11087.8,10774.4999999881,0,NA,"Rating Scale","Rating Scale",9,"object-36","BIQ",NA,"SUPSCO05151"
"9",1720098358113,"04/07/2024 13:05:58",1720101958113,1,"04/07/2024 15:05:58",177048,9,"task-vy7n",NA,38752978,11372330,NA,"complete",NA,"computer","Desktop or Laptop","Windows 10","Chrome 126.0.0.0","1536x864","1536x738",NA,NA,0,"BIQ-A",3,"HAGBFCED","Passed AC2",NA,"spreadsheet_5","Spreadsheet1","Spreadsheet1",1,"BIQ","Screen 2","o21mwi",2,"response","4",21124.9,21858.3,21862.4999999762,21124.9,21858.3,21862.4999999762,1,21124.9,737.599999976155,0,NA,"Rating Scale","Rating Scale",16,"object-86","BIQ",NA,"SUPSCO05151"
"10",1720098382951,"04/07/2024 13:06:22",1720101982951,1,"04/07/2024 15:06:22",177048,9,"task-vy7n",NA,38752978,11372330,NA,"complete",NA,"computer","Desktop or Laptop","Windows 10","Chrome 126.0.0.0","1536x864","1536x738",NA,NA,0,"BIQ-A",3,"HAGBFCED","Passed AC2",NA,"spreadsheet_5","Spreadsheet1","Spreadsheet1",1,"BIQ","Screen 3","iz3the",3,"continue","",24841.9999999881,24826.2,24841.9999999881,24841.9999999881,24826.2,24841.9999999881,1,24841.9999999881,0,0,NA,"Click To Continue","Continue Button",22,"object-73","BIQ",NA,"SUPSCO05151"
"11",1720098382953,"04/07/2024 13:06:22",1720101982953,1,"04/07/2024 15:06:22",177048,9,"task-vy7n",NA,38752978,11372330,NA,"complete",NA,"computer","Desktop or Laptop","Windows 10","Chrome 126.0.0.0","1536x864","1536x738",NA,NA,0,"BIQ-A",3,"HAGBFCED","Passed AC2",NA,"spreadsheet_5","Spreadsheet1","Spreadsheet1",1,"BIQ","Screen 3","iz3the",3,"response","1",7903.10000000001,24826.2,24842.9,7903.10000000001,24826.2,24842.9,1,7903.10000000001,16939.8,0,NA,"Rating Scale","Rating Scale",2,"object-53","BIQ",NA,"SUPSCO05151"
"12",1720098382953,"04/07/2024 13:06:22",1720101982953,1,"04/07/2024 15:06:22",177048,9,"task-vy7n",NA,38752978,11372330,NA,"complete",NA,"computer","Desktop or Laptop","Windows 10","Chrome 126.0.0.0","1536x864","1536x738",NA,NA,0,"BIQ-A",3,"HAGBFCED","Passed AC2",NA,"spreadsheet_5","Spreadsheet1","Spreadsheet1",1,"BIQ","Screen 3","iz3the",3,"response","1",17123.3,24826.2,24842.9,17123.3,24826.2,24842.9,1,17123.3,7719.59999999999,0,NA,"Rating Scale","Rating Scale",9,"object-60","BIQ",NA,"SUPSCO05151"
"13",1720098382953,"04/07/2024 13:06:22",1720101982953,1,"04/07/2024 15:06:22",177048,9,"task-vy7n",NA,38752978,11372330,NA,"complete",NA,"computer","Desktop or Laptop","Windows 10","Chrome 126.0.0.0","1536x864","1536x738",NA,NA,0,"BIQ-A",3,"HAGBFCED","Passed AC2",NA,"spreadsheet_5","Spreadsheet1","Spreadsheet1",1,"BIQ","Screen 3","iz3the",3,"response","6",22375.2,24826.2,24842.9,22375.2,24826.2,24842.9,1,22375.2,2467.7,0,NA,"Rating Scale","Rating Scale",16,"object-67","BIQ",NA,"SUPSCO05151"
"14",1720098382956,"04/07/2024 13:06:22",1720101982956,1,"04/07/2024 15:06:22",177048,9,"task-vy7n",NA,38752978,11372330,NA,"complete",NA,"computer","Desktop or Laptop","Windows 10","Chrome 126.0.0.0","1536x864","1536x738",NA,NA,0,"BIQ-A",3,"HAGBFCED","Passed AC2",NA,"spreadsheet_5","Spreadsheet1","Spreadsheet1",NA,"","","",NA,"info","END",NA,NA,NA,NA,NA,NA,0,NA,NA,NA,NA,"","",NA,"","",NA,"SUPSCO05151"
"1",1721643377239,"22/07/2024 10:16:17",1721646977239,1,"22/07/2024 12:16:17",177048,9,"task-vy7n",NA,39121333,11474933,NA,"complete",NA,"computer","Desktop or Laptop","Mac OS 10.15.7","Chrome 125.0.0.0","2048x1152","2048x1065",NA,NA,0,"BIQ-A",3,"EFDGCHBA","Passed AC2",NA,"spreadsheet_3","Spreadsheet1","Spreadsheet1",NA,"","","",NA,"info","BEGIN",NA,NA,NA,NA,NA,NA,0,NA,NA,NA,NA,"","",NA,"","",NA,"SUPSCO14619"
"2",1721643418476,"22/07/2024 10:16:58",1721647018476,1,"22/07/2024 12:16:58",177048,9,"task-vy7n",NA,39121333,11474933,NA,"complete",NA,"computer","Desktop or Laptop","Mac OS 10.15.7","Chrome 125.0.0.0","2048x1152","2048x1065",NA,NA,0,"BIQ-A",3,"EFDGCHBA","Passed AC2",NA,"spreadsheet_3","Spreadsheet1","Spreadsheet1",1,"BIQ","Screen 1","9dh6eq",1,"continue","",41245,41228.8,41245,41245,41228.8,41245,1,41245,0,0,NA,"Click To Continue","Continue Button",23,"object-48","BIQ",NA,"SUPSCO14619"
"3",1721643418478,"22/07/2024 10:16:58",1721647018478,1,"22/07/2024 12:16:58",177048,9,"task-vy7n",NA,39121333,11474933,NA,"complete",NA,"computer","Desktop or Laptop","Mac OS 10.15.7","Chrome 125.0.0.0","2048x1152","2048x1065",NA,NA,0,"BIQ-A",3,"EFDGCHBA","Passed AC2",NA,"spreadsheet_3","Spreadsheet1","Spreadsheet1",1,"BIQ","Screen 1","9dh6eq",1,"response","1",21931.9,41228.8,41245,21931.9,41228.8,41245,1,21931.9,19313.1,0,NA,"Rating Scale","Rating Scale",3,"object-5","BIQ",NA,"SUPSCO14619"
"4",1721643418478,"22/07/2024 10:16:58",1721647018478,1,"22/07/2024 12:16:58",177048,9,"task-vy7n",NA,39121333,11474933,NA,"complete",NA,"computer","Desktop or Laptop","Mac OS 10.15.7","Chrome 125.0.0.0","2048x1152","2048x1065",NA,NA,0,"BIQ-A",3,"EFDGCHBA","Passed AC2",NA,"spreadsheet_3","Spreadsheet1","Spreadsheet1",1,"BIQ","Screen 1","9dh6eq",1,"response","4",31538.9,41228.8,41245,31538.9,41228.8,41245,1,31538.9,9706.09999999999,0,NA,"Rating Scale","Rating Scale",10,"object-18","BIQ",NA,"SUPSCO14619"
"5",1721643418478,"22/07/2024 10:16:58",1721647018478,1,"22/07/2024 12:16:58",177048,9,"task-vy7n",NA,39121333,11474933,NA,"complete",NA,"computer","Desktop or Laptop","Mac OS 10.15.7","Chrome 125.0.0.0","2048x1152","2048x1065",NA,NA,0,"BIQ-A",3,"EFDGCHBA","Passed AC2",NA,"spreadsheet_3","Spreadsheet1","Spreadsheet1",1,"BIQ","Screen 1","9dh6eq",1,"response","7",37542.8,41228.8,41245,37542.8,41228.8,41245,1,37542.8,3702.2,0,NA,"Rating Scale","Rating Scale",17,"object-80","BIQ",NA,"SUPSCO14619"
"6",1721643439094,"22/07/2024 10:17:19",1721647039094,1,"22/07/2024 12:17:19",177048,9,"task-vy7n",NA,39121333,11474933,NA,"complete",NA,"computer","Desktop or Laptop","Mac OS 10.15.7","Chrome 125.0.0.0","2048x1152","2048x1065",NA,NA,0,"BIQ-A",3,"EFDGCHBA","Passed AC2",NA,"spreadsheet_3","Spreadsheet1","Spreadsheet1",1,"BIQ","Screen 2","o21mwi",2,"continue","",20635.6000000477,20631.9,20635.6000000477,20635.6000000477,20631.9,20635.6000000477,1,20635.6000000477,0,0,NA,"Click To Continue","Continue Button",22,"object-50","BIQ",NA,"SUPSCO14619"
"7",1721643439096,"22/07/2024 10:17:19",1721647039096,1,"22/07/2024 12:17:19",177048,9,"task-vy7n",NA,39121333,11474933,NA,"complete",NA,"computer","Desktop or Laptop","Mac OS 10.15.7","Chrome 125.0.0.0","2048x1152","2048x1065",NA,NA,0,"BIQ-A",3,"EFDGCHBA","Passed AC2",NA,"spreadsheet_3","Spreadsheet1","Spreadsheet1",1,"BIQ","Screen 2","o21mwi",2,"response","5",6806.7,20631.9,20637.7000001907,6806.7,20631.9,20637.7000001907,1,6806.7,13831.0000001907,0,NA,"Rating Scale","Rating Scale",2,"object-259","BIQ",NA,"SUPSCO14619"
"8",1721643439096,"22/07/2024 10:17:19",1721647039096,1,"22/07/2024 12:17:19",177048,9,"task-vy7n",NA,39121333,11474933,NA,"complete",NA,"computer","Desktop or Laptop","Mac OS 10.15.7","Chrome 125.0.0.0","2048x1152","2048x1065",NA,NA,0,"BIQ-A",3,"EFDGCHBA","Passed AC2",NA,"spreadsheet_3","Spreadsheet1","Spreadsheet1",1,"BIQ","Screen 2","o21mwi",2,"response","7",11091.5,20631.9,20638.0000001431,11091.5,20631.9,20638.0000001431,1,11091.5,9546.50000014305,0,NA,"Rating Scale","Rating Scale",9,"object-36","BIQ",NA,"SUPSCO14619"
"9",1721643439096,"22/07/2024 10:17:19",1721647039096,1,"22/07/2024 12:17:19",177048,9,"task-vy7n",NA,39121333,11474933,NA,"complete",NA,"computer","Desktop or Laptop","Mac OS 10.15.7","Chrome 125.0.0.0","2048x1152","2048x1065",NA,NA,0,"BIQ-A",3,"EFDGCHBA","Passed AC2",NA,"spreadsheet_3","Spreadsheet1","Spreadsheet1",1,"BIQ","Screen 2","o21mwi",2,"response","6",19748.3,20631.9,20638.3000000954,19748.3,20631.9,20638.3000000954,1,19748.3,890.000000095366,0,NA,"Rating Scale","Rating Scale",16,"object-86","BIQ",NA,"SUPSCO14619"
"10",1721643465374,"22/07/2024 10:17:45",1721647065374,1,"22/07/2024 12:17:45",177048,9,"task-vy7n",NA,39121333,11474933,NA,"complete",NA,"computer","Desktop or Laptop","Mac OS 10.15.7","Chrome 125.0.0.0","2048x1152","2048x1065",NA,NA,0,"BIQ-A",3,"EFDGCHBA","Passed AC2",NA,"spreadsheet_3","Spreadsheet1","Spreadsheet1",1,"BIQ","Screen 3","iz3the",3,"continue","",26284.2000000477,26270.3,26284.2000000477,26284.2000000477,26270.3,26284.2000000477,1,26284.2000000477,0,0,NA,"Click To Continue","Continue Button",22,"object-73","BIQ",NA,"SUPSCO14619"
"11",1721643465376,"22/07/2024 10:17:45",1721647065376,1,"22/07/2024 12:17:45",177048,9,"task-vy7n",NA,39121333,11474933,NA,"complete",NA,"computer","Desktop or Laptop","Mac OS 10.15.7","Chrome 125.0.0.0","2048x1152","2048x1065",NA,NA,0,"BIQ-A",3,"EFDGCHBA","Passed AC2",NA,"spreadsheet_3","Spreadsheet1","Spreadsheet1",1,"BIQ","Screen 3","iz3the",3,"response","3",8740.10000000001,26270.3,26286.5,8740.10000000001,26270.3,26286.5,1,8740.10000000001,17546.4,0,NA,"Rating Scale","Rating Scale",2,"object-53","BIQ",NA,"SUPSCO14619"
"12",1721643465377,"22/07/2024 10:17:45",1721647065377,1,"22/07/2024 12:17:45",177048,9,"task-vy7n",NA,39121333,11474933,NA,"complete",NA,"computer","Desktop or Laptop","Mac OS 10.15.7","Chrome 125.0.0.0","2048x1152","2048x1065",NA,NA,0,"BIQ-A",3,"EFDGCHBA","Passed AC2",NA,"spreadsheet_3","Spreadsheet1","Spreadsheet1",1,"BIQ","Screen 3","iz3the",3,"response","3",14410.6,26270.3,26286.8,14410.6,26270.3,26286.8,1,14410.6,11876.2,0,NA,"Rating Scale","Rating Scale",9,"object-60","BIQ",NA,"SUPSCO14619"
"13",1721643465377,"22/07/2024 10:17:45",1721647065377,1,"22/07/2024 12:17:45",177048,9,"task-vy7n",NA,39121333,11474933,NA,"complete",NA,"computer","Desktop or Laptop","Mac OS 10.15.7","Chrome 125.0.0.0","2048x1152","2048x1065",NA,NA,0,"BIQ-A",3,"EFDGCHBA","Passed AC2",NA,"spreadsheet_3","Spreadsheet1","Spreadsheet1",1,"BIQ","Screen 3","iz3the",3,"response","2",24734.6,26270.3,26286.8,24734.6,26270.3,26286.8,1,24734.6,1552.2,0,NA,"Rating Scale","Rating Scale",16,"object-67","BIQ",NA,"SUPSCO14619"
"14",1721643465381,"22/07/2024 10:17:45",1721647065381,1,"22/07/2024 12:17:45",177048,9,"task-vy7n",NA,39121333,11474933,NA,"complete",NA,"computer","Desktop or Laptop","Mac OS 10.15.7","Chrome 125.0.0.0","2048x1152","2048x1065",NA,NA,0,"BIQ-A",3,"EFDGCHBA","Passed AC2",NA,"spreadsheet_3","Spreadsheet1","Spreadsheet1",NA,"","","",NA,"info","END",NA,NA,NA,NA,NA,NA,0,NA,NA,NA,NA,"","",NA,"","",NA,"SUPSCO14619"
"1",1721815710722,"24/07/2024 10:08:30",1721819310722,1,"24/07/2024 12:08:30",177048,9,"task-vy7n",NA,39164614,11491771,NA,"complete",NA,"computer","Desktop or Laptop","Windows 10","Chrome 127.0.0.0","1280x720","1280x585",NA,NA,0,"BIQ-A",3,"FGEHDACB","Passed AC2",NA,"spreadsheet_2","Spreadsheet1","Spreadsheet1",NA,"","","",NA,"info","BEGIN",NA,NA,NA,NA,NA,NA,0,NA,NA,NA,NA,"","",NA,"","",NA,"SUPSCO14738"
"2",1721815771093,"24/07/2024 10:09:31",1721819371093,1,"24/07/2024 12:09:31",177048,9,"task-vy7n",NA,39164614,11491771,NA,"complete",NA,"computer","Desktop or Laptop","Windows 10","Chrome 127.0.0.0","1280x720","1280x585",NA,NA,0,"BIQ-A",3,"FGEHDACB","Passed AC2",NA,"spreadsheet_2","Spreadsheet1","Spreadsheet1",1,"BIQ","Screen 1","9dh6eq",1,"continue","",60386.7920000954,60380.692,60386.7920000954,60386.7920000954,60380.692,60386.7920000954,1,60386.7920000954,0,0,NA,"Click To Continue","Continue Button",23,"object-48","BIQ",NA,"SUPSCO14738"
"3",1721815771094,"24/07/2024 10:09:31",1721819371094,1,"24/07/2024 12:09:31",177048,9,"task-vy7n",NA,39164614,11491771,NA,"complete",NA,"computer","Desktop or Laptop","Windows 10","Chrome 127.0.0.0","1280x720","1280x585",NA,NA,0,"BIQ-A",3,"FGEHDACB","Passed AC2",NA,"spreadsheet_2","Spreadsheet1","Spreadsheet1",1,"BIQ","Screen 1","9dh6eq",1,"response","3",30064.792,60380.692,60388.9919999046,30064.792,60380.692,60388.9919999046,1,30064.792,30324.1999999046,0,NA,"Rating Scale","Rating Scale",3,"object-5","BIQ",NA,"SUPSCO14738"
"4",1721815771095,"24/07/2024 10:09:31",1721819371095,1,"24/07/2024 12:09:31",177048,9,"task-vy7n",NA,39164614,11491771,NA,"complete",NA,"computer","Desktop or Laptop","Windows 10","Chrome 127.0.0.0","1280x720","1280x585",NA,NA,0,"BIQ-A",3,"FGEHDACB","Passed AC2",NA,"spreadsheet_2","Spreadsheet1","Spreadsheet1",1,"BIQ","Screen 1","9dh6eq",1,"response","6",45013.992,60380.692,60389.392,45013.992,60380.692,60389.392,1,45013.992,15375.4,0,NA,"Rating Scale","Rating Scale",10,"object-18","BIQ",NA,"SUPSCO14738"
"5",1721815771095,"24/07/2024 10:09:31",1721819371095,1,"24/07/2024 12:09:31",177048,9,"task-vy7n",NA,39164614,11491771,NA,"complete",NA,"computer","Desktop or Laptop","Windows 10","Chrome 127.0.0.0","1280x720","1280x585",NA,NA,0,"BIQ-A",3,"FGEHDACB","Passed AC2",NA,"spreadsheet_2","Spreadsheet1","Spreadsheet1",1,"BIQ","Screen 1","9dh6eq",1,"response","2",54063.592,60380.692,60389.6919997139,54063.592,60380.692,60389.6919997139,1,54063.592,6326.0999997139,0,NA,"Rating Scale","Rating Scale",17,"object-80","BIQ",NA,"SUPSCO14738"
"6",1721815820737,"24/07/2024 10:10:20",1721819420737,1,"24/07/2024 12:10:20",177048,9,"task-vy7n",NA,39164614,11491771,NA,"complete",NA,"computer","Desktop or Laptop","Windows 10","Chrome 127.0.0.0","1280x720","1280x585",NA,NA,0,"BIQ-A",3,"FGEHDACB","Passed AC2",NA,"spreadsheet_2","Spreadsheet1","Spreadsheet1",1,"BIQ","Screen 2","o21mwi",2,"continue","",49651.2999999046,49646.6,49651.2999999046,49651.2999999046,49646.6,49651.2999999046,1,49651.2999999046,0,0,NA,"Click To Continue","Continue Button",22,"object-50","BIQ",NA,"SUPSCO14738"
"7",1721815820740,"24/07/2024 10:10:20",1721819420740,1,"24/07/2024 12:10:20",177048,9,"task-vy7n",NA,39164614,11491771,NA,"complete",NA,"computer","Desktop or Laptop","Windows 10","Chrome 127.0.0.0","1280x720","1280x585",NA,NA,0,"BIQ-A",3,"FGEHDACB","Passed AC2",NA,"spreadsheet_2","Spreadsheet1","Spreadsheet1",1,"BIQ","Screen 2","o21mwi",2,"response","7",19698,49646.6,49654.2999999046,19698,49646.6,49654.2999999046,1,19698,29956.2999999046,0,NA,"Rating Scale","Rating Scale",2,"object-259","BIQ",NA,"SUPSCO14738"
"8",1721815820741,"24/07/2024 10:10:20",1721819420741,1,"24/07/2024 12:10:20",177048,9,"task-vy7n",NA,39164614,11491771,NA,"complete",NA,"computer","Desktop or Laptop","Windows 10","Chrome 127.0.0.0","1280x720","1280x585",NA,NA,0,"BIQ-A",3,"FGEHDACB","Passed AC2",NA,"spreadsheet_2","Spreadsheet1","Spreadsheet1",1,"BIQ","Screen 2","o21mwi",2,"response","3",29330.7,49646.6,49654.7999999046,29330.7,49646.6,49654.7999999046,1,29330.7,20324.0999999046,0,NA,"Rating Scale","Rating Scale",9,"object-36","BIQ",NA,"SUPSCO14738"
"9",1721815820741,"24/07/2024 10:10:20",1721819420741,1,"24/07/2024 12:10:20",177048,9,"task-vy7n",NA,39164614,11491771,NA,"complete",NA,"computer","Desktop or Laptop","Windows 10","Chrome 127.0.0.0","1280x720","1280x585",NA,NA,0,"BIQ-A",3,"FGEHDACB","Passed AC2",NA,"spreadsheet_2","Spreadsheet1","Spreadsheet1",1,"BIQ","Screen 2","o21mwi",2,"response","1",47379.9,49646.6,49655.2,47379.9,49646.6,49655.2,1,47379.9,2275.3,0,NA,"Rating Scale","Rating Scale",16,"object-86","BIQ",NA,"SUPSCO14738"
"10",1721815857320,"24/07/2024 10:10:57",1721819457320,1,"24/07/2024 12:10:57",177048,9,"task-vy7n",NA,39164614,11491771,NA,"complete",NA,"computer","Desktop or Laptop","Windows 10","Chrome 127.0.0.0","1280x720","1280x585",NA,NA,0,"BIQ-A",3,"FGEHDACB","Passed AC2",NA,"spreadsheet_2","Spreadsheet1","Spreadsheet1",1,"BIQ","Screen 3","iz3the",3,"continue","",36587.1,36581.2,36587.1,36587.1,36581.2,36587.1,1,36587.1,0,0,NA,"Click To Continue","Continue Button",22,"object-73","BIQ",NA,"SUPSCO14738"
"11",1721815857325,"24/07/2024 10:10:57",1721819457325,1,"24/07/2024 12:10:57",177048,9,"task-vy7n",NA,39164614,11491771,NA,"complete",NA,"computer","Desktop or Laptop","Windows 10","Chrome 127.0.0.0","1280x720","1280x585",NA,NA,0,"BIQ-A",3,"FGEHDACB","Passed AC2",NA,"spreadsheet_2","Spreadsheet1","Spreadsheet1",1,"BIQ","Screen 3","iz3the",3,"response","1",22848.3,36581.2,36592.2999998093,22848.3,36581.2,36592.2999998093,1,22848.3,13743.9999998093,0,NA,"Rating Scale","Rating Scale",2,"object-53","BIQ",NA,"SUPSCO14738"
"12",1721815857325,"24/07/2024 10:10:57",1721819457325,1,"24/07/2024 12:10:57",177048,9,"task-vy7n",NA,39164614,11491771,NA,"complete",NA,"computer","Desktop or Laptop","Windows 10","Chrome 127.0.0.0","1280x720","1280x585",NA,NA,0,"BIQ-A",3,"FGEHDACB","Passed AC2",NA,"spreadsheet_2","Spreadsheet1","Spreadsheet1",1,"BIQ","Screen 3","iz3the",3,"response","1",28114.8,36581.2,36592.7999998093,28114.8,36581.2,36592.7999998093,1,28114.8,8477.99999980925,0,NA,"Rating Scale","Rating Scale",9,"object-60","BIQ",NA,"SUPSCO14738"
"13",1721815857326,"24/07/2024 10:10:57",1721819457326,1,"24/07/2024 12:10:57",177048,9,"task-vy7n",NA,39164614,11491771,NA,"complete",NA,"computer","Desktop or Laptop","Windows 10","Chrome 127.0.0.0","1280x720","1280x585",NA,NA,0,"BIQ-A",3,"FGEHDACB","Passed AC2",NA,"spreadsheet_2","Spreadsheet1","Spreadsheet1",1,"BIQ","Screen 3","iz3the",3,"response","2",32681.3,36581.2,36593.2999998093,32681.3,36581.2,36593.2999998093,1,32681.3,3911.99999980925,0,NA,"Rating Scale","Rating Scale",16,"object-67","BIQ",NA,"SUPSCO14738"
"14",1721815857332,"24/07/2024 10:10:57",1721819457332,1,"24/07/2024 12:10:57",177048,9,"task-vy7n",NA,39164614,11491771,NA,"complete",NA,"computer","Desktop or Laptop","Windows 10","Chrome 127.0.0.0","1280x720","1280x585",NA,NA,0,"BIQ-A",3,"FGEHDACB","Passed AC2",NA,"spreadsheet_2","Spreadsheet1","Spreadsheet1",NA,"","","",NA,"info","END",NA,NA,NA,NA,NA,NA,0,NA,NA,NA,NA,"","",NA,"","",NA,"SUPSCO14738"
"1",1721911890471,"25/07/2024 12:51:30",1721915490471,1,"25/07/2024 14:51:30",177048,9,"task-vy7n",NA,39199643,11498723,NA,"complete",NA,"computer","Desktop or Laptop","Windows 10","Chrome 126.0.0.0","1536x864","1536x730",NA,NA,0,"BIQ-A",3,"CDBEAFHG","Passed AC2",NA,"spreadsheet_2","Spreadsheet1","Spreadsheet1",NA,"","","",NA,"info","BEGIN",NA,NA,NA,NA,NA,NA,0,NA,NA,NA,NA,"","",NA,"","",NA,"SUPSCO05791"
"2",1721911972465,"25/07/2024 12:52:52",1721915572465,1,"25/07/2024 14:52:52",177048,9,"task-vy7n",NA,39199643,11498723,NA,"complete",NA,"computer","Desktop or Laptop","Windows 10","Chrome 126.0.0.0","1536x864","1536x730",NA,NA,0,"BIQ-A",3,"CDBEAFHG","Passed AC2",NA,"spreadsheet_2","Spreadsheet1","Spreadsheet1",1,"BIQ","Screen 1","9dh6eq",1,"continue","",82004.1,81995.8,82004.1,82004.1,81995.8,82004.1,1,82004.1,0,0,NA,"Click To Continue","Continue Button",23,"object-48","BIQ",NA,"SUPSCO05791"
"3",1721911972468,"25/07/2024 12:52:52",1721915572468,1,"25/07/2024 14:52:52",177048,9,"task-vy7n",NA,39199643,11498723,NA,"complete",NA,"computer","Desktop or Laptop","Windows 10","Chrome 126.0.0.0","1536x864","1536x730",NA,NA,0,"BIQ-A",3,"CDBEAFHG","Passed AC2",NA,"spreadsheet_2","Spreadsheet1","Spreadsheet1",1,"BIQ","Screen 1","9dh6eq",1,"response","5",9556.5,81995.8,82004.1,9556.5,81995.8,82004.1,1,9556.5,72447.6,0,NA,"Rating Scale","Rating Scale",3,"object-5","BIQ",NA,"SUPSCO05791"
"4",1721911972469,"25/07/2024 12:52:52",1721915572469,1,"25/07/2024 14:52:52",177048,9,"task-vy7n",NA,39199643,11498723,NA,"complete",NA,"computer","Desktop or Laptop","Windows 10","Chrome 126.0.0.0","1536x864","1536x730",NA,NA,0,"BIQ-A",3,"CDBEAFHG","Passed AC2",NA,"spreadsheet_2","Spreadsheet1","Spreadsheet1",1,"BIQ","Screen 1","9dh6eq",1,"response","7",36089,81995.8,82004.1,36089,81995.8,82004.1,1,36089,45915.1,0,NA,"Rating Scale","Rating Scale",10,"object-18","BIQ",NA,"SUPSCO05791"
"5",1721911972469,"25/07/2024 12:52:52",1721915572469,1,"25/07/2024 14:52:52",177048,9,"task-vy7n",NA,39199643,11498723,NA,"complete",NA,"computer","Desktop or Laptop","Windows 10","Chrome 126.0.0.0","1536x864","1536x730",NA,NA,0,"BIQ-A",3,"CDBEAFHG","Passed AC2",NA,"spreadsheet_2","Spreadsheet1","Spreadsheet1",1,"BIQ","Screen 1","9dh6eq",1,"response","1",74237.7,81995.8,82004.1,74237.7,81995.8,82004.1,1,74237.7,7766.40000000001,0,NA,"Rating Scale","Rating Scale",17,"object-80","BIQ",NA,"SUPSCO05791"
"6",1721912038138,"25/07/2024 12:53:58",1721915638138,1,"25/07/2024 14:53:58",177048,9,"task-vy7n",NA,39199643,11498723,NA,"complete",NA,"computer","Desktop or Laptop","Windows 10","Chrome 126.0.0.0","1536x864","1536x730",NA,NA,0,"BIQ-A",3,"CDBEAFHG","Passed AC2",NA,"spreadsheet_2","Spreadsheet1","Spreadsheet1",1,"BIQ","Screen 2","o21mwi",2,"continue","",65682,65673.1,65682,65682,65673.1,65682,1,65682,0,0,NA,"Click To Continue","Continue Button",22,"object-50","BIQ",NA,"SUPSCO05791"
"7",1721912038142,"25/07/2024 12:53:58",1721915638142,1,"25/07/2024 14:53:58",177048,9,"task-vy7n",NA,39199643,11498723,NA,"complete",NA,"computer","Desktop or Laptop","Windows 10","Chrome 126.0.0.0","1536x864","1536x730",NA,NA,0,"BIQ-A",3,"CDBEAFHG","Passed AC2",NA,"spreadsheet_2","Spreadsheet1","Spreadsheet1",1,"BIQ","Screen 2","o21mwi",2,"response","8",12141.5,65673.1,65682,12141.5,65673.1,65682,1,12141.5,53540.5,0,NA,"Rating Scale","Rating Scale",2,"object-259","BIQ",NA,"SUPSCO05791"
"8",1721912038143,"25/07/2024 12:53:58",1721915638143,1,"25/07/2024 14:53:58",177048,9,"task-vy7n",NA,39199643,11498723,NA,"complete",NA,"computer","Desktop or Laptop","Windows 10","Chrome 126.0.0.0","1536x864","1536x730",NA,NA,0,"BIQ-A",3,"CDBEAFHG","Passed AC2",NA,"spreadsheet_2","Spreadsheet1","Spreadsheet1",1,"BIQ","Screen 2","o21mwi",2,"response","4",27232.6,65673.1,65682,27232.6,65673.1,65682,1,27232.6,38449.4,0,NA,"Rating Scale","Rating Scale",9,"object-36","BIQ",NA,"SUPSCO05791"
"9",1721912038144,"25/07/2024 12:53:58",1721915638144,1,"25/07/2024 14:53:58",177048,9,"task-vy7n",NA,39199643,11498723,NA,"complete",NA,"computer","Desktop or Laptop","Windows 10","Chrome 126.0.0.0","1536x864","1536x730",NA,NA,0,"BIQ-A",3,"CDBEAFHG","Passed AC2",NA,"spreadsheet_2","Spreadsheet1","Spreadsheet1",1,"BIQ","Screen 2","o21mwi",2,"response","2",46157,65673.1,65682,46157,65673.1,65682,1,46157,19525,0,NA,"Rating Scale","Rating Scale",16,"object-86","BIQ",NA,"SUPSCO05791"
"10",1721912079628,"25/07/2024 12:54:39",1721915679628,1,"25/07/2024 14:54:39",177048,9,"task-vy7n",NA,39199643,11498723,NA,"complete",NA,"computer","Desktop or Laptop","Windows 10","Chrome 126.0.0.0","1536x864","1536x730",NA,NA,0,"BIQ-A",3,"CDBEAFHG","Passed AC2",NA,"spreadsheet_2","Spreadsheet1","Spreadsheet1",1,"BIQ","Screen 3","iz3the",3,"continue","",41506.5,41498.2,41506.5,41506.5,41498.2,41506.5,1,41506.5,0,0,NA,"Click To Continue","Continue Button",22,"object-73","BIQ",NA,"SUPSCO05791"
"11",1721912079631,"25/07/2024 12:54:39",1721915679631,1,"25/07/2024 14:54:39",177048,9,"task-vy7n",NA,39199643,11498723,NA,"complete",NA,"computer","Desktop or Laptop","Windows 10","Chrome 126.0.0.0","1536x864","1536x730",NA,NA,0,"BIQ-A",3,"CDBEAFHG","Passed AC2",NA,"spreadsheet_2","Spreadsheet1","Spreadsheet1",1,"BIQ","Screen 3","iz3the",3,"response","0",6916.5,41498.2,41506.5,6916.5,41498.2,41506.5,1,6916.5,34590,0,NA,"Rating Scale","Rating Scale",2,"object-53","BIQ",NA,"SUPSCO05791"
"12",1721912079632,"25/07/2024 12:54:39",1721915679632,1,"25/07/2024 14:54:39",177048,9,"task-vy7n",NA,39199643,11498723,NA,"complete",NA,"computer","Desktop or Laptop","Windows 10","Chrome 126.0.0.0","1536x864","1536x730",NA,NA,0,"BIQ-A",3,"CDBEAFHG","Passed AC2",NA,"spreadsheet_2","Spreadsheet1","Spreadsheet1",1,"BIQ","Screen 3","iz3the",3,"response","0",22141.3,41498.2,41506.5,22141.3,41498.2,41506.5,1,22141.3,19365.2,0,NA,"Rating Scale","Rating Scale",9,"object-60","BIQ",NA,"SUPSCO05791"
"13",1721912079633,"25/07/2024 12:54:39",1721915679633,1,"25/07/2024 14:54:39",177048,9,"task-vy7n",NA,39199643,11498723,NA,"complete",NA,"computer","Desktop or Laptop","Windows 10","Chrome 126.0.0.0","1536x864","1536x730",NA,NA,0,"BIQ-A",3,"CDBEAFHG","Passed AC2",NA,"spreadsheet_2","Spreadsheet1","Spreadsheet1",1,"BIQ","Screen 3","iz3the",3,"response","2",38440.6,41498.2,41506.5,38440.6,41498.2,41506.5,1,38440.6,3065.89999999997,0,NA,"Rating Scale","Rating Scale",16,"object-67","BIQ",NA,"SUPSCO05791"
"14",1721912079637,"25/07/2024 12:54:39",1721915679637,1,"25/07/2024 14:54:39",177048,9,"task-vy7n",NA,39199643,11498723,NA,"complete",NA,"computer","Desktop or Laptop","Windows 10","Chrome 126.0.0.0","1536x864","1536x730",NA,NA,0,"BIQ-A",3,"CDBEAFHG","Passed AC2",NA,"spreadsheet_2","Spreadsheet1","Spreadsheet1",NA,"","","",NA,"info","END",NA,NA,NA,NA,NA,NA,0,NA,NA,NA,NA,"","",NA,"","",NA,"SUPSCO05791"
"1",1721988921605,"26/07/2024 10:15:21",1721992521605,1,"26/07/2024 12:15:21",177048,9,"task-vy7n",NA,39213810,11503486,NA,"complete",NA,"computer","Desktop or Laptop","Chromium OS 14541.0.0","Chrome 126.0.0.0","1920x1080","1920x945",NA,NA,0,"BIQ-A",3,"DECFBGAH","Passed AC2",NA,"spreadsheet","Spreadsheet1","Spreadsheet1",NA,"","","",NA,"info","BEGIN",NA,NA,NA,NA,NA,NA,0,NA,NA,NA,NA,"","",NA,"","",NA,"SUPSCO15787"
"2",1721988989280,"26/07/2024 10:16:29",1721992589280,1,"26/07/2024 12:16:29",177048,9,"task-vy7n",NA,39213810,11503486,NA,"complete",NA,"computer","Desktop or Laptop","Chromium OS 14541.0.0","Chrome 126.0.0.0","1920x1080","1920x945",NA,NA,0,"BIQ-A",3,"DECFBGAH","Passed AC2",NA,"spreadsheet","Spreadsheet1","Spreadsheet1",1,"BIQ","Screen 1","9dh6eq",1,"continue","",67690.416,67673.816,67690.416,67690.416,67673.816,67690.416,1,67690.416,0,0,NA,"Click To Continue","Continue Button",23,"object-48","BIQ",NA,"SUPSCO15787"
"3",1721988989284,"26/07/2024 10:16:29",1721992589284,1,"26/07/2024 12:16:29",177048,9,"task-vy7n",NA,39213810,11503486,NA,"complete",NA,"computer","Desktop or Laptop","Chromium OS 14541.0.0","Chrome 126.0.0.0","1920x1080","1920x945",NA,NA,0,"BIQ-A",3,"DECFBGAH","Passed AC2",NA,"spreadsheet","Spreadsheet1","Spreadsheet1",1,"BIQ","Screen 1","9dh6eq",1,"response","3",38732.516,67673.816,67690.416,38732.516,67673.816,67690.416,1,38732.516,28957.9,0,NA,"Rating Scale","Rating Scale",3,"object-5","BIQ",NA,"SUPSCO15787"
"4",1721988989285,"26/07/2024 10:16:29",1721992589285,1,"26/07/2024 12:16:29",177048,9,"task-vy7n",NA,39213810,11503486,NA,"complete",NA,"computer","Desktop or Laptop","Chromium OS 14541.0.0","Chrome 126.0.0.0","1920x1080","1920x945",NA,NA,0,"BIQ-A",3,"DECFBGAH","Passed AC2",NA,"spreadsheet","Spreadsheet1","Spreadsheet1",1,"BIQ","Screen 1","9dh6eq",1,"response","3",43628.116,67673.816,67690.416,43628.116,67673.816,67690.416,1,43628.116,24062.3,0,NA,"Rating Scale","Rating Scale",10,"object-18","BIQ",NA,"SUPSCO15787"
"5",1721988989286,"26/07/2024 10:16:29",1721992589286,1,"26/07/2024 12:16:29",177048,9,"task-vy7n",NA,39213810,11503486,NA,"complete",NA,"computer","Desktop or Laptop","Chromium OS 14541.0.0","Chrome 126.0.0.0","1920x1080","1920x945",NA,NA,0,"BIQ-A",3,"DECFBGAH","Passed AC2",NA,"spreadsheet","Spreadsheet1","Spreadsheet1",1,"BIQ","Screen 1","9dh6eq",1,"response","6",54568.616,67673.816,67690.416,54568.616,67673.816,67690.416,1,54568.616,13121.8,0,NA,"Rating Scale","Rating Scale",17,"object-80","BIQ",NA,"SUPSCO15787"
"6",1721989021450,"26/07/2024 10:17:01",1721992621450,1,"26/07/2024 12:17:01",177048,9,"task-vy7n",NA,39213810,11503486,NA,"complete",NA,"computer","Desktop or Laptop","Chromium OS 14541.0.0","Chrome 126.0.0.0","1920x1080","1920x945",NA,NA,0,"BIQ-A",3,"DECFBGAH","Passed AC2",NA,"spreadsheet","Spreadsheet1","Spreadsheet1",1,"BIQ","Screen 2","o21mwi",2,"continue","",32195.7,32188.5,32195.7,32195.7,32188.5,32195.7,1,32195.7,0,0,NA,"Click To Continue","Continue Button",22,"object-50","BIQ",NA,"SUPSCO15787"
"7",1721989045322,"26/07/2024 10:17:25",1721992645322,1,"26/07/2024 12:17:25",177048,9,"task-vy7n",NA,39213810,11503486,NA,"complete",NA,"computer","Desktop or Laptop","Chromium OS 14541.0.0","Chrome 126.0.0.0","1920x1080","1920x945",NA,NA,0,"BIQ-A",3,"DECFBGAH","Passed AC2",NA,"spreadsheet","Spreadsheet1","Spreadsheet1",1,"BIQ","Screen 2","o21mwi",2,"continue","",56066.8999999999,56051,56066.8999999999,56066.8999999999,56051,56066.8999999999,1,56066.8999999999,0,0,NA,"Click To Continue","Continue Button",22,"object-50","BIQ",NA,"SUPSCO15787"
"8",1721989045326,"26/07/2024 10:17:25",1721992645326,1,"26/07/2024 12:17:25",177048,9,"task-vy7n",NA,39213810,11503486,NA,"complete",NA,"computer","Desktop or Laptop","Chromium OS 14541.0.0","Chrome 126.0.0.0","1920x1080","1920x945",NA,NA,0,"BIQ-A",3,"DECFBGAH","Passed AC2",NA,"spreadsheet","Spreadsheet1","Spreadsheet1",1,"BIQ","Screen 2","o21mwi",2,"response","6",9758.10000000001,56051,56067.7,9758.10000000001,56051,56067.7,1,9758.10000000001,46309.6,0,NA,"Rating Scale","Rating Scale",2,"object-259","BIQ",NA,"SUPSCO15787"
"9",1721989045327,"26/07/2024 10:17:25",1721992645327,1,"26/07/2024 12:17:25",177048,9,"task-vy7n",NA,39213810,11503486,NA,"complete",NA,"computer","Desktop or Laptop","Chromium OS 14541.0.0","Chrome 126.0.0.0","1920x1080","1920x945",NA,NA,0,"BIQ-A",3,"DECFBGAH","Passed AC2",NA,"spreadsheet","Spreadsheet1","Spreadsheet1",1,"BIQ","Screen 2","o21mwi",2,"response","6",19899.3,56051,56067.7,19899.3,56051,56067.7,1,19899.3,36168.4,0,NA,"Rating Scale","Rating Scale",9,"object-36","BIQ",NA,"SUPSCO15787"
"10",1721989045328,"26/07/2024 10:17:25",1721992645328,1,"26/07/2024 12:17:25",177048,9,"task-vy7n",NA,39213810,11503486,NA,"complete",NA,"computer","Desktop or Laptop","Chromium OS 14541.0.0","Chrome 126.0.0.0","1920x1080","1920x945",NA,NA,0,"BIQ-A",3,"DECFBGAH","Passed AC2",NA,"spreadsheet","Spreadsheet1","Spreadsheet1",1,"BIQ","Screen 2","o21mwi",2,"response","5",55035.2,56051,56067.7,55035.2,56051,56067.7,1,55035.2,1032.5,0,NA,"Rating Scale","Rating Scale",16,"object-86","BIQ",NA,"SUPSCO15787"
"11",1721989063594,"26/07/2024 10:17:43",1721992663594,1,"26/07/2024 12:17:43",177048,9,"task-vy7n",NA,39213810,11503486,NA,"complete",NA,"computer","Desktop or Laptop","Chromium OS 14541.0.0","Chrome 126.0.0.0","1920x1080","1920x945",NA,NA,0,"BIQ-A",3,"DECFBGAH","Passed AC2",NA,"spreadsheet","Spreadsheet1","Spreadsheet1",1,"BIQ","Screen 3","iz3the",3,"continue","",18288.7,18283.9,18288.7,18288.7,18283.9,18288.7,1,18288.7,0,0,NA,"Click To Continue","Continue Button",22,"object-73","BIQ",NA,"SUPSCO15787"
"12",1721989063600,"26/07/2024 10:17:43",1721992663600,1,"26/07/2024 12:17:43",177048,9,"task-vy7n",NA,39213810,11503486,NA,"complete",NA,"computer","Desktop or Laptop","Chromium OS 14541.0.0","Chrome 126.0.0.0","1920x1080","1920x945",NA,NA,0,"BIQ-A",3,"DECFBGAH","Passed AC2",NA,"spreadsheet","Spreadsheet1","Spreadsheet1",1,"BIQ","Screen 3","iz3the",3,"response","5",7609.89999999999,18283.9,18294.7,7609.89999999999,18283.9,18294.7,1,7609.89999999999,10684.8,0,NA,"Rating Scale","Rating Scale",2,"object-53","BIQ",NA,"SUPSCO15787"
"13",1721989063601,"26/07/2024 10:17:43",1721992663601,1,"26/07/2024 12:17:43",177048,9,"task-vy7n",NA,39213810,11503486,NA,"complete",NA,"computer","Desktop or Laptop","Chromium OS 14541.0.0","Chrome 126.0.0.0","1920x1080","1920x945",NA,NA,0,"BIQ-A",3,"DECFBGAH","Passed AC2",NA,"spreadsheet","Spreadsheet1","Spreadsheet1",1,"BIQ","Screen 3","iz3the",3,"response","3",12605.6,18283.9,18295.7,12605.6,18283.9,18295.7,1,12605.6,5690.09999999995,0,NA,"Rating Scale","Rating Scale",9,"object-60","BIQ",NA,"SUPSCO15787"
"14",1721989063601,"26/07/2024 10:17:43",1721992663601,1,"26/07/2024 12:17:43",177048,9,"task-vy7n",NA,39213810,11503486,NA,"complete",NA,"computer","Desktop or Laptop","Chromium OS 14541.0.0","Chrome 126.0.0.0","1920x1080","1920x945",NA,NA,0,"BIQ-A",3,"DECFBGAH","Passed AC2",NA,"spreadsheet","Spreadsheet1","Spreadsheet1",1,"BIQ","Screen 3","iz3the",3,"response","7",16219.2,18283.9,18296.6000000001,16219.2,18283.9,18296.6000000001,1,16219.2,2077.40000000008,0,NA,"Rating Scale","Rating Scale",16,"object-67","BIQ",NA,"SUPSCO15787"
"15",1721989063609,"26/07/2024 10:17:43",1721992663609,1,"26/07/2024 12:17:43",177048,9,"task-vy7n",NA,39213810,11503486,NA,"complete",NA,"computer","Desktop or Laptop","Chromium OS 14541.0.0","Chrome 126.0.0.0","1920x1080","1920x945",NA,NA,0,"BIQ-A",3,"DECFBGAH","Passed AC2",NA,"spreadsheet","Spreadsheet1","Spreadsheet1",NA,"","","",NA,"info","END",NA,NA,NA,NA,NA,NA,0,NA,NA,NA,NA,"","",NA,"","",NA,"SUPSCO15787"
"1",1722262437810,"29/07/2024 14:13:57",1722266037810,1,"29/07/2024 16:13:57",177048,9,"task-vy7n",NA,39258427,11513960,NA,"complete",NA,"computer","Desktop or Laptop","Windows 10","Chrome 126.0.0.0","1536x864","1536x730",NA,NA,0,"BIQ-A",3,"EFDGCHBA","Passed AC2",NA,"spreadsheet_5","Spreadsheet1","Spreadsheet1",NA,"","","",NA,"info","BEGIN",NA,NA,NA,NA,NA,NA,0,NA,NA,NA,NA,"","",NA,"","",NA,"SUPSCO97532"
"2",1722262466216,"29/07/2024 14:14:26",1722266066216,1,"29/07/2024 16:14:26",177048,9,"task-vy7n",NA,39258427,11513960,NA,"complete",NA,"computer","Desktop or Laptop","Windows 10","Chrome 126.0.0.0","1536x864","1536x730",NA,NA,0,"BIQ-A",3,"EFDGCHBA","Passed AC2",NA,"spreadsheet_5","Spreadsheet1","Spreadsheet1",1,"BIQ","Screen 1","9dh6eq",1,"continue","",28425.326,28408.526,28425.326,28425.326,28408.526,28425.326,1,28425.326,0,0,NA,"Click To Continue","Continue Button",23,"object-48","BIQ",NA,"SUPSCO97532"
"3",1722262466219,"29/07/2024 14:14:26",1722266066219,1,"29/07/2024 16:14:26",177048,9,"task-vy7n",NA,39258427,11513960,NA,"complete",NA,"computer","Desktop or Laptop","Windows 10","Chrome 126.0.0.0","1536x864","1536x730",NA,NA,0,"BIQ-A",3,"EFDGCHBA","Passed AC2",NA,"spreadsheet_5","Spreadsheet1","Spreadsheet1",1,"BIQ","Screen 1","9dh6eq",1,"response","2",11206.726,28408.526,28425.326,11206.726,28408.526,28425.326,1,11206.726,17218.6,0,NA,"Rating Scale","Rating Scale",3,"object-5","BIQ",NA,"SUPSCO97532"
"4",1722262466220,"29/07/2024 14:14:26",1722266066220,1,"29/07/2024 16:14:26",177048,9,"task-vy7n",NA,39258427,11513960,NA,"complete",NA,"computer","Desktop or Laptop","Windows 10","Chrome 126.0.0.0","1536x864","1536x730",NA,NA,0,"BIQ-A",3,"EFDGCHBA","Passed AC2",NA,"spreadsheet_5","Spreadsheet1","Spreadsheet1",1,"BIQ","Screen 1","9dh6eq",1,"response","5",19915.926,28408.526,28425.326,19915.926,28408.526,28425.326,1,19915.926,8509.4,0,NA,"Rating Scale","Rating Scale",10,"object-18","BIQ",NA,"SUPSCO97532"
"5",1722262466220,"29/07/2024 14:14:26",1722266066220,1,"29/07/2024 16:14:26",177048,9,"task-vy7n",NA,39258427,11513960,NA,"complete",NA,"computer","Desktop or Laptop","Windows 10","Chrome 126.0.0.0","1536x864","1536x730",NA,NA,0,"BIQ-A",3,"EFDGCHBA","Passed AC2",NA,"spreadsheet_5","Spreadsheet1","Spreadsheet1",1,"BIQ","Screen 1","9dh6eq",1,"response","3",26743.326,28408.526,28425.326,26743.326,28408.526,28425.326,1,26743.326,1682,0,NA,"Rating Scale","Rating Scale",17,"object-80","BIQ",NA,"SUPSCO97532"
"6",1722262486645,"29/07/2024 14:14:46",1722266086645,1,"29/07/2024 16:14:46",177048,9,"task-vy7n",NA,39258427,11513960,NA,"complete",NA,"computer","Desktop or Laptop","Windows 10","Chrome 126.0.0.0","1536x864","1536x730",NA,NA,0,"BIQ-A",3,"EFDGCHBA","Passed AC2",NA,"spreadsheet_5","Spreadsheet1","Spreadsheet1",1,"BIQ","Screen 2","o21mwi",2,"continue","",20441.3999998569,20432.4,20441.3999998569,20441.3999998569,20432.4,20441.3999998569,1,20441.3999998569,0,0,NA,"Click To Continue","Continue Button",22,"object-50","BIQ",NA,"SUPSCO97532"
"7",1722262486648,"29/07/2024 14:14:46",1722266086648,1,"29/07/2024 16:14:46",177048,9,"task-vy7n",NA,39258427,11513960,NA,"complete",NA,"computer","Desktop or Laptop","Windows 10","Chrome 126.0.0.0","1536x864","1536x730",NA,NA,0,"BIQ-A",3,"EFDGCHBA","Passed AC2",NA,"spreadsheet_5","Spreadsheet1","Spreadsheet1",1,"BIQ","Screen 2","o21mwi",2,"response","8",5845.1,20432.4,20444.3999998569,5845.1,20432.4,20444.3999998569,1,5845.1,14599.299999857,0,NA,"Rating Scale","Rating Scale",2,"object-259","BIQ",NA,"SUPSCO97532"
"8",1722262486649,"29/07/2024 14:14:46",1722266086649,1,"29/07/2024 16:14:46",177048,9,"task-vy7n",NA,39258427,11513960,NA,"complete",NA,"computer","Desktop or Laptop","Windows 10","Chrome 126.0.0.0","1536x864","1536x730",NA,NA,0,"BIQ-A",3,"EFDGCHBA","Passed AC2",NA,"spreadsheet_5","Spreadsheet1","Spreadsheet1",1,"BIQ","Screen 2","o21mwi",2,"response","4",10207.8,20432.4,20445.1999998093,10207.8,20432.4,20445.1999998093,1,10207.8,10237.3999998093,0,NA,"Rating Scale","Rating Scale",9,"object-36","BIQ",NA,"SUPSCO97532"
"9",1722262486649,"29/07/2024 14:14:46",1722266086649,1,"29/07/2024 16:14:46",177048,9,"task-vy7n",NA,39258427,11513960,NA,"complete",NA,"computer","Desktop or Laptop","Windows 10","Chrome 126.0.0.0","1536x864","1536x730",NA,NA,0,"BIQ-A",3,"EFDGCHBA","Passed AC2",NA,"spreadsheet_5","Spreadsheet1","Spreadsheet1",1,"BIQ","Screen 2","o21mwi",2,"response","4",14321,20432.4,20446.0999999046,14321,20432.4,20446.0999999046,1,14321,6125.09999990463,0,NA,"Rating Scale","Rating Scale",16,"object-86","BIQ",NA,"SUPSCO97532"
"10",1722262498790,"29/07/2024 14:14:58",1722266098790,1,"29/07/2024 16:14:58",177048,9,"task-vy7n",NA,39258427,11513960,NA,"complete",NA,"computer","Desktop or Laptop","Windows 10","Chrome 126.0.0.0","1536x864","1536x730",NA,NA,0,"BIQ-A",3,"EFDGCHBA","Passed AC2",NA,"spreadsheet_5","Spreadsheet1","Spreadsheet1",1,"BIQ","Screen 3","iz3the",3,"continue","",12154.6999999046,12139.5,12154.6999999046,12154.6999999046,12139.5,12154.6999999046,1,12154.6999999046,0,0,NA,"Click To Continue","Continue Button",22,"object-73","BIQ",NA,"SUPSCO97532"
"11",1722262498795,"29/07/2024 14:14:58",1722266098795,1,"29/07/2024 16:14:58",177048,9,"task-vy7n",NA,39258427,11513960,NA,"complete",NA,"computer","Desktop or Laptop","Windows 10","Chrome 126.0.0.0","1536x864","1536x730",NA,NA,0,"BIQ-A",3,"EFDGCHBA","Passed AC2",NA,"spreadsheet_5","Spreadsheet1","Spreadsheet1",1,"BIQ","Screen 3","iz3the",3,"response","0",4529.3,12139.5,12156.2,4529.3,12139.5,12156.2,1,4529.3,7626.90000000001,0,NA,"Rating Scale","Rating Scale",2,"object-53","BIQ",NA,"SUPSCO97532"
"12",1722262498796,"29/07/2024 14:14:58",1722266098796,1,"29/07/2024 16:14:58",177048,9,"task-vy7n",NA,39258427,11513960,NA,"complete",NA,"computer","Desktop or Laptop","Windows 10","Chrome 126.0.0.0","1536x864","1536x730",NA,NA,0,"BIQ-A",3,"EFDGCHBA","Passed AC2",NA,"spreadsheet_5","Spreadsheet1","Spreadsheet1",1,"BIQ","Screen 3","iz3the",3,"response","0",8192.8,12139.5,12156.2,8192.8,12139.5,12156.2,1,8192.8,3963.40000000001,0,NA,"Rating Scale","Rating Scale",9,"object-60","BIQ",NA,"SUPSCO97532"
"13",1722262498796,"29/07/2024 14:14:58",1722266098796,1,"29/07/2024 16:14:58",177048,9,"task-vy7n",NA,39258427,11513960,NA,"complete",NA,"computer","Desktop or Laptop","Windows 10","Chrome 126.0.0.0","1536x864","1536x730",NA,NA,0,"BIQ-A",3,"EFDGCHBA","Passed AC2",NA,"spreadsheet_5","Spreadsheet1","Spreadsheet1",1,"BIQ","Screen 3","iz3the",3,"response","4",11206.5,12139.5,12156.2,11206.5,12139.5,12156.2,1,11206.5,949.700000000004,0,NA,"Rating Scale","Rating Scale",16,"object-67","BIQ",NA,"SUPSCO97532"
"14",1722262498805,"29/07/2024 14:14:58",1722266098805,1,"29/07/2024 16:14:58",177048,9,"task-vy7n",NA,39258427,11513960,NA,"complete",NA,"computer","Desktop or Laptop","Windows 10","Chrome 126.0.0.0","1536x864","1536x730",NA,NA,0,"BIQ-A",3,"EFDGCHBA","Passed AC2",NA,"spreadsheet_5","Spreadsheet1","Spreadsheet1",NA,"","","",NA,"info","END",NA,NA,NA,NA,NA,NA,0,NA,NA,NA,NA,"","",NA,"","",NA,"SUPSCO97532"
"1",1721835543244,"24/07/2024 15:39:03",1721839143244,1,"24/07/2024 17:39:03",177048,9,"task-vy7n",NA,39183249,11494997,NA,"complete",NA,"computer","Desktop or Laptop","Windows 10","Chrome 127.0.0.0","3460x1442","3460x1320",NA,NA,0,"BIQ-A",3,"ABHCGDFE","Passed AC2",NA,"spreadsheet_4","Spreadsheet1","Spreadsheet1",NA,"","","",NA,"info","BEGIN",NA,NA,NA,NA,NA,NA,0,NA,NA,NA,NA,"","",NA,"","",NA,"SUPSCO05489"
"2",1721835641636,"24/07/2024 15:40:41",1721839241636,1,"24/07/2024 17:40:41",177048,9,"task-vy7n",NA,39183249,11494997,NA,"complete",NA,"computer","Desktop or Laptop","Windows 10","Chrome 127.0.0.0","3460x1442","3460x1320",NA,NA,0,"BIQ-A",3,"ABHCGDFE","Passed AC2",NA,"spreadsheet_4","Spreadsheet1","Spreadsheet1",1,"BIQ","Screen 1","9dh6eq",1,"continue","",98402,98370,98402,98402,98370,98402,1,98402,0,0,NA,"Click To Continue","Continue Button",23,"object-48","BIQ",NA,"SUPSCO05489"
"3",1721835641638,"24/07/2024 15:40:41",1721839241638,1,"24/07/2024 17:40:41",177048,9,"task-vy7n",NA,39183249,11494997,NA,"complete",NA,"computer","Desktop or Laptop","Windows 10","Chrome 127.0.0.0","3460x1442","3460x1320",NA,NA,0,"BIQ-A",3,"ABHCGDFE","Passed AC2",NA,"spreadsheet_4","Spreadsheet1","Spreadsheet1",1,"BIQ","Screen 1","9dh6eq",1,"response","6",79016.2,98370,98403.4,79016.2,98370,98403.4,1,79016.2,19387.2,0,NA,"Rating Scale","Rating Scale",3,"object-5","BIQ",NA,"SUPSCO05489"
"4",1721835641638,"24/07/2024 15:40:41",1721839241638,1,"24/07/2024 17:40:41",177048,9,"task-vy7n",NA,39183249,11494997,NA,"complete",NA,"computer","Desktop or Laptop","Windows 10","Chrome 127.0.0.0","3460x1442","3460x1320",NA,NA,0,"BIQ-A",3,"ABHCGDFE","Passed AC2",NA,"spreadsheet_4","Spreadsheet1","Spreadsheet1",1,"BIQ","Screen 1","9dh6eq",1,"response","7",89994.4,98370,98403.4,89994.4,98370,98403.4,1,89994.4,8409,0,NA,"Rating Scale","Rating Scale",10,"object-18","BIQ",NA,"SUPSCO05489"
"5",1721835641638,"24/07/2024 15:40:41",1721839241638,1,"24/07/2024 17:40:41",177048,9,"task-vy7n",NA,39183249,11494997,NA,"complete",NA,"computer","Desktop or Laptop","Windows 10","Chrome 127.0.0.0","3460x1442","3460x1320",NA,NA,0,"BIQ-A",3,"ABHCGDFE","Passed AC2",NA,"spreadsheet_4","Spreadsheet1","Spreadsheet1",1,"BIQ","Screen 1","9dh6eq",1,"response","1",97335.6,98370,98403.4,97335.6,98370,98403.4,1,97335.6,1067.79999999999,0,NA,"Rating Scale","Rating Scale",17,"object-80","BIQ",NA,"SUPSCO05489"
"6",1721835666024,"24/07/2024 15:41:06",1721839266024,1,"24/07/2024 17:41:06",177048,9,"task-vy7n",NA,39183249,11494997,NA,"complete",NA,"computer","Desktop or Laptop","Windows 10","Chrome 127.0.0.0","3460x1442","3460x1320",NA,NA,0,"BIQ-A",3,"ABHCGDFE","Passed AC2",NA,"spreadsheet_4","Spreadsheet1","Spreadsheet1",1,"BIQ","Screen 2","o21mwi",2,"continue","",24420.1000001431,24392.2,24420.1000001431,24420.1000001431,24392.2,24420.1000001431,1,24420.1000001431,0,0,NA,"Click To Continue","Continue Button",22,"object-50","BIQ",NA,"SUPSCO05489"
"7",1721835666025,"24/07/2024 15:41:06",1721839266025,1,"24/07/2024 17:41:06",177048,9,"task-vy7n",NA,39183249,11494997,NA,"complete",NA,"computer","Desktop or Laptop","Windows 10","Chrome 127.0.0.0","3460x1442","3460x1320",NA,NA,0,"BIQ-A",3,"ABHCGDFE","Passed AC2",NA,"spreadsheet_4","Spreadsheet1","Spreadsheet1",1,"BIQ","Screen 2","o21mwi",2,"response","7",6139.7,24392.2,24421.3000001907,6139.7,24392.2,24421.3000001907,1,6139.7,18281.6000001907,0,NA,"Rating Scale","Rating Scale",2,"object-259","BIQ",NA,"SUPSCO05489"
"8",1721835666025,"24/07/2024 15:41:06",1721839266025,1,"24/07/2024 17:41:06",177048,9,"task-vy7n",NA,39183249,11494997,NA,"complete",NA,"computer","Desktop or Laptop","Windows 10","Chrome 127.0.0.0","3460x1442","3460x1320",NA,NA,0,"BIQ-A",3,"ABHCGDFE","Passed AC2",NA,"spreadsheet_4","Spreadsheet1","Spreadsheet1",1,"BIQ","Screen 2","o21mwi",2,"response","1",10043.8,24392.2,24421.5,10043.8,24392.2,24421.5,1,10043.8,14377.7,0,NA,"Rating Scale","Rating Scale",9,"object-36","BIQ",NA,"SUPSCO05489"
"9",1721835666026,"24/07/2024 15:41:06",1721839266026,1,"24/07/2024 17:41:06",177048,9,"task-vy7n",NA,39183249,11494997,NA,"complete",NA,"computer","Desktop or Laptop","Windows 10","Chrome 127.0.0.0","3460x1442","3460x1320",NA,NA,0,"BIQ-A",3,"ABHCGDFE","Passed AC2",NA,"spreadsheet_4","Spreadsheet1","Spreadsheet1",1,"BIQ","Screen 2","o21mwi",2,"response","4",23691.5,24392.2,24421.8000001907,23691.5,24392.2,24421.8000001907,1,23691.5,730.300000190735,0,NA,"Rating Scale","Rating Scale",16,"object-86","BIQ",NA,"SUPSCO05489"
"10",1721835684645,"24/07/2024 15:41:24",1721839284645,1,"24/07/2024 17:41:24",177048,9,"task-vy7n",NA,39183249,11494997,NA,"complete",NA,"computer","Desktop or Laptop","Windows 10","Chrome 127.0.0.0","3460x1442","3460x1320",NA,NA,0,"BIQ-A",3,"ABHCGDFE","Passed AC2",NA,"spreadsheet_4","Spreadsheet1","Spreadsheet1",1,"BIQ","Screen 3","iz3the",3,"continue","",18648.9000001431,18619.5,18648.9000001431,18648.9000001431,18619.5,18648.9000001431,1,18648.9000001431,0,0,NA,"Click To Continue","Continue Button",22,"object-73","BIQ",NA,"SUPSCO05489"
"11",1721835684646,"24/07/2024 15:41:24",1721839284646,1,"24/07/2024 17:41:24",177048,9,"task-vy7n",NA,39183249,11494997,NA,"complete",NA,"computer","Desktop or Laptop","Windows 10","Chrome 127.0.0.0","3460x1442","3460x1320",NA,NA,0,"BIQ-A",3,"ABHCGDFE","Passed AC2",NA,"spreadsheet_4","Spreadsheet1","Spreadsheet1",1,"BIQ","Screen 3","iz3the",3,"response","0",8842.59999999999,18619.5,18650.3,8842.59999999999,18619.5,18650.3,1,8842.59999999999,9807.70000000001,0,NA,"Rating Scale","Rating Scale",2,"object-53","BIQ",NA,"SUPSCO05489"
"12",1721835684647,"24/07/2024 15:41:24",1721839284647,1,"24/07/2024 17:41:24",177048,9,"task-vy7n",NA,39183249,11494997,NA,"complete",NA,"computer","Desktop or Laptop","Windows 10","Chrome 127.0.0.0","3460x1442","3460x1320",NA,NA,0,"BIQ-A",3,"ABHCGDFE","Passed AC2",NA,"spreadsheet_4","Spreadsheet1","Spreadsheet1",1,"BIQ","Screen 3","iz3the",3,"response","2",11145.1,18619.5,18650.5000000477,11145.1,18619.5,18650.5000000477,1,11145.1,7505.4000000477,0,NA,"Rating Scale","Rating Scale",9,"object-60","BIQ",NA,"SUPSCO05489"
"13",1721835684647,"24/07/2024 15:41:24",1721839284647,1,"24/07/2024 17:41:24",177048,9,"task-vy7n",NA,39183249,11494997,NA,"complete",NA,"computer","Desktop or Laptop","Windows 10","Chrome 127.0.0.0","3460x1442","3460x1320",NA,NA,0,"BIQ-A",3,"ABHCGDFE","Passed AC2",NA,"spreadsheet_4","Spreadsheet1","Spreadsheet1",1,"BIQ","Screen 3","iz3the",3,"response","3",17585.2,18619.5,18650.8,17585.2,18619.5,18650.8,1,17585.2,1065.60000000001,0,NA,"Rating Scale","Rating Scale",16,"object-67","BIQ",NA,"SUPSCO05489"
"14",1721835684649,"24/07/2024 15:41:24",1721839284649,1,"24/07/2024 17:41:24",177048,9,"task-vy7n",NA,39183249,11494997,NA,"complete",NA,"computer","Desktop or Laptop","Windows 10","Chrome 127.0.0.0","3460x1442","3460x1320",NA,NA,0,"BIQ-A",3,"ABHCGDFE","Passed AC2",NA,"spreadsheet_4","Spreadsheet1","Spreadsheet1",NA,"","","",NA,"info","END",NA,NA,NA,NA,NA,NA,0,NA,NA,NA,NA,"","",NA,"","",NA,"SUPSCO05489"
"1",1721824434373,"24/07/2024 12:33:54",1721828034373,1,"24/07/2024 14:33:54",177048,9,"task-vy7n",NA,39179117,11493943,NA,"complete",NA,"computer","Desktop or Laptop","Mac OS 10.15.7","Chrome 126.0.0.0","1920x1080","1654x1028",NA,NA,0,"BIQ-A",3,"HAGBFCED","Passed AC2",NA,"spreadsheet_5","Spreadsheet1","Spreadsheet1",NA,"","","",NA,"info","BEGIN",NA,NA,NA,NA,NA,NA,0,NA,NA,NA,NA,"","",NA,"","",NA,"SUPSCO84507"
"2",1721824466372,"24/07/2024 12:34:26",1721828066372,1,"24/07/2024 14:34:26",177048,9,"task-vy7n",NA,39179117,11493943,NA,"complete",NA,"computer","Desktop or Laptop","Mac OS 10.15.7","Chrome 126.0.0.0","1920x1080","1654x1028",NA,NA,0,"BIQ-A",3,"HAGBFCED","Passed AC2",NA,"spreadsheet_5","Spreadsheet1","Spreadsheet1",1,"BIQ","Screen 1","9dh6eq",1,"continue","",32011.4360000238,31999.336,32011.4360000238,32011.4360000238,31999.336,32011.4360000238,1,32011.4360000238,0,0,NA,"Click To Continue","Continue Button",23,"object-48","BIQ",NA,"SUPSCO84507"
"3",1721824466374,"24/07/2024 12:34:26",1721828066374,1,"24/07/2024 14:34:26",177048,9,"task-vy7n",NA,39179117,11493943,NA,"complete",NA,"computer","Desktop or Laptop","Mac OS 10.15.7","Chrome 126.0.0.0","1920x1080","1654x1028",NA,NA,0,"BIQ-A",3,"HAGBFCED","Passed AC2",NA,"spreadsheet_5","Spreadsheet1","Spreadsheet1",1,"BIQ","Screen 1","9dh6eq",1,"response","7",18950.136,31999.336,32014.2359999762,18950.136,31999.336,32014.2359999762,1,18950.136,13064.0999999762,0,NA,"Rating Scale","Rating Scale",3,"object-5","BIQ",NA,"SUPSCO84507"
"4",1721824466374,"24/07/2024 12:34:26",1721828066374,1,"24/07/2024 14:34:26",177048,9,"task-vy7n",NA,39179117,11493943,NA,"complete",NA,"computer","Desktop or Laptop","Mac OS 10.15.7","Chrome 126.0.0.0","1920x1080","1654x1028",NA,NA,0,"BIQ-A",3,"HAGBFCED","Passed AC2",NA,"spreadsheet_5","Spreadsheet1","Spreadsheet1",1,"BIQ","Screen 1","9dh6eq",1,"response","7",26666.036,31999.336,32014.5359999881,26666.036,31999.336,32014.5359999881,1,26666.036,5348.49999998808,0,NA,"Rating Scale","Rating Scale",10,"object-18","BIQ",NA,"SUPSCO84507"
"5",1721824466374,"24/07/2024 12:34:26",1721828066374,1,"24/07/2024 14:34:26",177048,9,"task-vy7n",NA,39179117,11493943,NA,"complete",NA,"computer","Desktop or Laptop","Mac OS 10.15.7","Chrome 126.0.0.0","1920x1080","1654x1028",NA,NA,0,"BIQ-A",3,"HAGBFCED","Passed AC2",NA,"spreadsheet_5","Spreadsheet1","Spreadsheet1",1,"BIQ","Screen 1","9dh6eq",1,"response","1",30266.036,31999.336,32014.7359999762,30266.036,31999.336,32014.7359999762,1,30266.036,1748.69999997616,0,NA,"Rating Scale","Rating Scale",17,"object-80","BIQ",NA,"SUPSCO84507"
"6",1721824512153,"24/07/2024 12:35:12",1721828112153,1,"24/07/2024 14:35:12",177048,9,"task-vy7n",NA,39179117,11493943,NA,"complete",NA,"computer","Desktop or Laptop","Mac OS 10.15.7","Chrome 126.0.0.0","1920x1080","1654x1028",NA,NA,0,"BIQ-A",3,"HAGBFCED","Passed AC2",NA,"spreadsheet_5","Spreadsheet1","Spreadsheet1",1,"BIQ","Screen 2","o21mwi",2,"continue","",45793.6000000238,45783.9,45793.6000000238,45793.6000000238,45783.9,45793.6000000238,1,45793.6000000238,0,0,NA,"Click To Continue","Continue Button",22,"object-50","BIQ",NA,"SUPSCO84507"
"7",1721824512156,"24/07/2024 12:35:12",1721828112156,1,"24/07/2024 14:35:12",177048,9,"task-vy7n",NA,39179117,11493943,NA,"complete",NA,"computer","Desktop or Laptop","Mac OS 10.15.7","Chrome 126.0.0.0","1920x1080","1654x1028",NA,NA,0,"BIQ-A",3,"HAGBFCED","Passed AC2",NA,"spreadsheet_5","Spreadsheet1","Spreadsheet1",1,"BIQ","Screen 2","o21mwi",2,"response","8",28717.4,45783.9,45796.8999999762,28717.4,45783.9,45796.8999999762,1,28717.4,17079.4999999762,0,NA,"Rating Scale","Rating Scale",2,"object-259","BIQ",NA,"SUPSCO84507"
"8",1721824512157,"24/07/2024 12:35:12",1721828112157,1,"24/07/2024 14:35:12",177048,9,"task-vy7n",NA,39179117,11493943,NA,"complete",NA,"computer","Desktop or Laptop","Mac OS 10.15.7","Chrome 126.0.0.0","1920x1080","1654x1028",NA,NA,0,"BIQ-A",3,"HAGBFCED","Passed AC2",NA,"spreadsheet_5","Spreadsheet1","Spreadsheet1",1,"BIQ","Screen 2","o21mwi",2,"response","1",31417.4,45783.9,45797.3999999762,31417.4,45783.9,45797.3999999762,1,31417.4,14379.9999999762,0,NA,"Rating Scale","Rating Scale",9,"object-36","BIQ",NA,"SUPSCO84507"
"9",1721824512157,"24/07/2024 12:35:12",1721828112157,1,"24/07/2024 14:35:12",177048,9,"task-vy7n",NA,39179117,11493943,NA,"complete",NA,"computer","Desktop or Laptop","Mac OS 10.15.7","Chrome 126.0.0.0","1920x1080","1654x1028",NA,NA,0,"BIQ-A",3,"HAGBFCED","Passed AC2",NA,"spreadsheet_5","Spreadsheet1","Spreadsheet1",1,"BIQ","Screen 2","o21mwi",2,"response","1",41950.8,45783.9,45797.6999999881,41950.8,45783.9,45797.6999999881,1,41950.8,3846.89999998808,0,NA,"Rating Scale","Rating Scale",16,"object-86","BIQ",NA,"SUPSCO84507"
"10",1721824521766,"24/07/2024 12:35:21",1721828121766,1,"24/07/2024 14:35:21",177048,9,"task-vy7n",NA,39179117,11493943,NA,"complete",NA,"computer","Desktop or Laptop","Mac OS 10.15.7","Chrome 126.0.0.0","1920x1080","1654x1028",NA,NA,0,"BIQ-A",3,"HAGBFCED","Passed AC2",NA,"spreadsheet_5","Spreadsheet1","Spreadsheet1",1,"BIQ","Screen 3","iz3the",3,"continue","",9616.90000000002,9600.20000000001,9616.90000000002,9616.90000000002,9600.20000000001,9616.90000000002,1,9616.90000000002,0,0,NA,"Click To Continue","Continue Button",22,"object-73","BIQ",NA,"SUPSCO84507"
"11",1721824521766,"24/07/2024 12:35:21",1721828121766,1,"24/07/2024 14:35:21",177048,9,"task-vy7n",NA,39179117,11493943,NA,"complete",NA,"computer","Desktop or Laptop","Mac OS 10.15.7","Chrome 126.0.0.0","1920x1080","1654x1028",NA,NA,0,"BIQ-A",3,"HAGBFCED","Passed AC2",NA,"spreadsheet_5","Spreadsheet1","Spreadsheet1",1,"BIQ","Screen 3","iz3the",3,"response","1",4100,9600.20000000001,9616.90000000002,4100,9600.20000000001,9616.90000000002,1,4100,5516.90000000002,0,NA,"Rating Scale","Rating Scale",2,"object-53","BIQ",NA,"SUPSCO84507"
"12",1721824521766,"24/07/2024 12:35:21",1721828121766,1,"24/07/2024 14:35:21",177048,9,"task-vy7n",NA,39179117,11493943,NA,"complete",NA,"computer","Desktop or Laptop","Mac OS 10.15.7","Chrome 126.0.0.0","1920x1080","1654x1028",NA,NA,0,"BIQ-A",3,"HAGBFCED","Passed AC2",NA,"spreadsheet_5","Spreadsheet1","Spreadsheet1",1,"BIQ","Screen 3","iz3the",3,"response","0",5766.70000000001,9600.20000000001,9616.90000000002,5766.70000000001,9600.20000000001,9616.90000000002,1,5766.70000000001,3850.20000000001,0,NA,"Rating Scale","Rating Scale",9,"object-60","BIQ",NA,"SUPSCO84507"
"13",1721824521766,"24/07/2024 12:35:21",1721828121766,1,"24/07/2024 14:35:21",177048,9,"task-vy7n",NA,39179117,11493943,NA,"complete",NA,"computer","Desktop or Laptop","Mac OS 10.15.7","Chrome 126.0.0.0","1920x1080","1654x1028",NA,NA,0,"BIQ-A",3,"HAGBFCED","Passed AC2",NA,"spreadsheet_5","Spreadsheet1","Spreadsheet1",1,"BIQ","Screen 3","iz3the",3,"response","0",8649.3,9600.20000000001,9616.90000000002,8649.3,9600.20000000001,9616.90000000002,1,8649.3,967.60000000002,0,NA,"Rating Scale","Rating Scale",16,"object-67","BIQ",NA,"SUPSCO84507"
"14",1721824521771,"24/07/2024 12:35:21",1721828121771,1,"24/07/2024 14:35:21",177048,9,"task-vy7n",NA,39179117,11493943,NA,"complete",NA,"computer","Desktop or Laptop","Mac OS 10.15.7","Chrome 126.0.0.0","1920x1080","1654x1028",NA,NA,0,"BIQ-A",3,"HAGBFCED","Passed AC2",NA,"spreadsheet_5","Spreadsheet1","Spreadsheet1",NA,"","","",NA,"info","END",NA,NA,NA,NA,NA,NA,0,NA,NA,NA,NA,"","",NA,"","",NA,"SUPSCO84507"
"1",1721817185753,"24/07/2024 10:33:05",1721820785753,1,"24/07/2024 12:33:05",177048,9,"task-vy7n",NA,39165598,11492002,NA,"complete",NA,"computer","Desktop or Laptop","Windows 10","Chrome 126.0.0.0","1920x1080","1920x953",NA,NA,0,"BIQ-A",3,"GHFAEBDC","Passed AC2",NA,"spreadsheet","Spreadsheet1","Spreadsheet1",NA,"","","",NA,"info","BEGIN",NA,NA,NA,NA,NA,NA,0,NA,NA,NA,NA,"","",NA,"","",NA,"SUPSCO45532"
"2",1721817224547,"24/07/2024 10:33:44",1721820824547,1,"24/07/2024 12:33:44",177048,9,"task-vy7n",NA,39165598,11492002,NA,"complete",NA,"computer","Desktop or Laptop","Windows 10","Chrome 126.0.0.0","1920x1080","1920x953",NA,NA,0,"BIQ-A",3,"GHFAEBDC","Passed AC2",NA,"spreadsheet","Spreadsheet1","Spreadsheet1",1,"BIQ","Screen 1","9dh6eq",1,"continue","",38803.838,38786.938,38803.838,38803.838,38786.938,38803.838,1,38803.838,0,0,NA,"Click To Continue","Continue Button",23,"object-48","BIQ",NA,"SUPSCO45532"
"3",1721817224553,"24/07/2024 10:33:44",1721820824553,1,"24/07/2024 12:33:44",177048,9,"task-vy7n",NA,39165598,11492002,NA,"complete",NA,"computer","Desktop or Laptop","Windows 10","Chrome 126.0.0.0","1920x1080","1920x953",NA,NA,0,"BIQ-A",3,"GHFAEBDC","Passed AC2",NA,"spreadsheet","Spreadsheet1","Spreadsheet1",1,"BIQ","Screen 1","9dh6eq",1,"response","5",18776.938,38786.938,38803.838,18776.938,38786.938,38803.838,1,18776.938,20026.9,0,NA,"Rating Scale","Rating Scale",3,"object-5","BIQ",NA,"SUPSCO45532"
"4",1721817224554,"24/07/2024 10:33:44",1721820824554,1,"24/07/2024 12:33:44",177048,9,"task-vy7n",NA,39165598,11492002,NA,"complete",NA,"computer","Desktop or Laptop","Windows 10","Chrome 126.0.0.0","1920x1080","1920x953",NA,NA,0,"BIQ-A",3,"GHFAEBDC","Passed AC2",NA,"spreadsheet","Spreadsheet1","Spreadsheet1",1,"BIQ","Screen 1","9dh6eq",1,"response","6",28040.038,38786.938,38803.838,28040.038,38786.938,38803.838,1,28040.038,10763.8,0,NA,"Rating Scale","Rating Scale",10,"object-18","BIQ",NA,"SUPSCO45532"
"5",1721817224555,"24/07/2024 10:33:44",1721820824555,1,"24/07/2024 12:33:44",177048,9,"task-vy7n",NA,39165598,11492002,NA,"complete",NA,"computer","Desktop or Laptop","Windows 10","Chrome 126.0.0.0","1920x1080","1920x953",NA,NA,0,"BIQ-A",3,"GHFAEBDC","Passed AC2",NA,"spreadsheet","Spreadsheet1","Spreadsheet1",1,"BIQ","Screen 1","9dh6eq",1,"response","1",37686.938,38786.938,38803.838,37686.938,38786.938,38803.838,1,37686.938,1116.9,0,NA,"Rating Scale","Rating Scale",17,"object-80","BIQ",NA,"SUPSCO45532"
"6",1721817242816,"24/07/2024 10:34:02",1721820842816,1,"24/07/2024 12:34:02",177048,9,"task-vy7n",NA,39165598,11492002,NA,"complete",NA,"computer","Desktop or Laptop","Windows 10","Chrome 126.0.0.0","1920x1080","1920x953",NA,NA,0,"BIQ-A",3,"GHFAEBDC","Passed AC2",NA,"spreadsheet","Spreadsheet1","Spreadsheet1",1,"BIQ","Screen 2","o21mwi",2,"continue","",18298.0000000238,18293.5,18298.0000000238,18298.0000000238,18293.5,18298.0000000238,1,18298.0000000238,0,0,NA,"Click To Continue","Continue Button",22,"object-50","BIQ",NA,"SUPSCO45532"
"7",1721817242826,"24/07/2024 10:34:02",1721820842826,1,"24/07/2024 12:34:02",177048,9,"task-vy7n",NA,39165598,11492002,NA,"complete",NA,"computer","Desktop or Laptop","Windows 10","Chrome 126.0.0.0","1920x1080","1920x953",NA,NA,0,"BIQ-A",3,"GHFAEBDC","Passed AC2",NA,"spreadsheet","Spreadsheet1","Spreadsheet1",1,"BIQ","Screen 2","o21mwi",2,"response","8",5614.6,18293.5,18307.0000000238,5614.6,18293.5,18307.0000000238,1,5614.6,12692.4000000238,0,NA,"Rating Scale","Rating Scale",2,"object-259","BIQ",NA,"SUPSCO45532"
"8",1721817242829,"24/07/2024 10:34:02",1721820842829,1,"24/07/2024 12:34:02",177048,9,"task-vy7n",NA,39165598,11492002,NA,"complete",NA,"computer","Desktop or Laptop","Windows 10","Chrome 126.0.0.0","1920x1080","1920x953",NA,NA,0,"BIQ-A",3,"GHFAEBDC","Passed AC2",NA,"spreadsheet","Spreadsheet1","Spreadsheet1",1,"BIQ","Screen 2","o21mwi",2,"response","2",10962.9,18293.5,18309.9,10962.9,18293.5,18309.9,1,10962.9,7347,0,NA,"Rating Scale","Rating Scale",9,"object-36","BIQ",NA,"SUPSCO45532"
"9",1721817242833,"24/07/2024 10:34:02",1721820842833,1,"24/07/2024 12:34:02",177048,9,"task-vy7n",NA,39165598,11492002,NA,"complete",NA,"computer","Desktop or Laptop","Windows 10","Chrome 126.0.0.0","1920x1080","1920x953",NA,NA,0,"BIQ-A",3,"GHFAEBDC","Passed AC2",NA,"spreadsheet","Spreadsheet1","Spreadsheet1",1,"BIQ","Screen 2","o21mwi",2,"response","0",17327.1,18293.5,18309.9,17327.1,18293.5,18309.9,1,17327.1,982.800000000003,0,NA,"Rating Scale","Rating Scale",16,"object-86","BIQ",NA,"SUPSCO45532"
"10",1721817264156,"24/07/2024 10:34:24",1721820864156,1,"24/07/2024 12:34:24",177048,9,"task-vy7n",NA,39165598,11492002,NA,"complete",NA,"computer","Desktop or Laptop","Windows 10","Chrome 126.0.0.0","1920x1080","1920x953",NA,NA,0,"BIQ-A",3,"GHFAEBDC","Passed AC2",NA,"spreadsheet","Spreadsheet1","Spreadsheet1",1,"BIQ","Screen 3","iz3the",3,"continue","",21344.3000000358,21342.6,21344.3000000358,21344.3000000358,21342.6,21344.3000000358,1,21344.3000000358,0,0,NA,"Click To Continue","Continue Button",22,"object-73","BIQ",NA,"SUPSCO45532"
"11",1721817264158,"24/07/2024 10:34:24",1721820864158,1,"24/07/2024 12:34:24",177048,9,"task-vy7n",NA,39165598,11492002,NA,"complete",NA,"computer","Desktop or Laptop","Windows 10","Chrome 126.0.0.0","1920x1080","1920x953",NA,NA,0,"BIQ-A",3,"GHFAEBDC","Passed AC2",NA,"spreadsheet","Spreadsheet1","Spreadsheet1",1,"BIQ","Screen 3","iz3the",3,"response","0",4248.8,21342.6,21347.0000000238,4248.8,21342.6,21347.0000000238,1,4248.8,17098.2000000238,0,NA,"Rating Scale","Rating Scale",2,"object-53","BIQ",NA,"SUPSCO45532"
"12",1721817264159,"24/07/2024 10:34:24",1721820864159,1,"24/07/2024 12:34:24",177048,9,"task-vy7n",NA,39165598,11492002,NA,"complete",NA,"computer","Desktop or Laptop","Windows 10","Chrome 126.0.0.0","1920x1080","1920x953",NA,NA,0,"BIQ-A",3,"GHFAEBDC","Passed AC2",NA,"spreadsheet","Spreadsheet1","Spreadsheet1",1,"BIQ","Screen 3","iz3the",3,"response","0",12395.8,21342.6,21347.7000000119,12395.8,21342.6,21347.7000000119,1,12395.8,8951.90000001193,0,NA,"Rating Scale","Rating Scale",9,"object-60","BIQ",NA,"SUPSCO45532"
"13",1721817264159,"24/07/2024 10:34:24",1721820864159,1,"24/07/2024 12:34:24",177048,9,"task-vy7n",NA,39165598,11492002,NA,"complete",NA,"computer","Desktop or Laptop","Windows 10","Chrome 126.0.0.0","1920x1080","1920x953",NA,NA,0,"BIQ-A",3,"GHFAEBDC","Passed AC2",NA,"spreadsheet","Spreadsheet1","Spreadsheet1",1,"BIQ","Screen 3","iz3the",3,"response","1",20126.8,21342.6,21348.0000000238,20126.8,21342.6,21348.0000000238,1,20126.8,1221.20000002385,0,NA,"Rating Scale","Rating Scale",16,"object-67","BIQ",NA,"SUPSCO45532"
