"","Event.Index","UTC.Timestamp","UTC.Date.and.Time","Local.Timestamp","Local.Timezone","Local.Date.and.Time","Experiment.ID","Experiment.Version","Tree.Node.Key","Repeat.Key","Schedule.ID","Participant.Starting.Group","Participant.Status","Participant.Completion.Code","Participant.External.Session.ID","Participant.Device.Type","Participant.Device","Participant.OS","Participant.Browser","Participant.Monitor.Size","Participant.Viewport.Size","Checkpoint","Room.ID","Room.Order","Task.Name","Task.Version","order.ot79","randomiser.lqqr","randomiser.28m8","randomiser.tf5j","Spreadsheet","Trial.Number","Display","Screen","Screen.ID","Screen.Counter","Response.Type","Response","Onset.Time","Clock.Time","Reaction.Time","Absolute.Onset.Time","Absolute.Clock.Time","Absolute.Reaction.Time","Correct","Response.Onset","Response.Duration","Proportion","Tag","Component.Name","Object.Name","Object.Number","Object.ID","Spreadsheet..display","Manipulation..Spreadsheet","Random_ID"
"1",1,1692005099962,"14/08/2023 09:24:59",1692008699962,1,"14/08/2023 11:24:59",140743,17,"questionnaire-uu2n",NA,31172295,NA,"complete",NA,"64d9ff3c7251de5e68eab8bb","computer","Desktop or Laptop","Windows 10","Chrome 115.0.0.0","1536x864","1536x747",NA,NA,0,"BIQ (Charlotte)",2,"EFDGCHBIAJ","B (Feedback ranking_L1 First)","study_1 (JV and feedback_list_1)","","Spreadsheet1",NA,"","","",NA,"5","BEGIN",NA,NA,NA,NA,NA,NA,0,NA,NA,NA,NA,"","",NA,"","",NA,"SUPPRF73133"
"2",2,1692005135270,"14/08/2023 09:25:35",1692008735270,1,"14/08/2023 11:25:35",140743,17,"questionnaire-uu2n",NA,31172295,NA,"complete",NA,"64d9ff3c7251de5e68eab8bb","computer","Desktop or Laptop","Windows 10","Chrome 115.0.0.0","1536x864","1536x747",NA,NA,0,"BIQ (Charlotte)",2,"EFDGCHBIAJ","B (Feedback ranking_L1 First)","study_1 (JV and feedback_list_1)","","Spreadsheet1",1,"BIQ","Screen 1","9dh6eq",1,"continue","",35343.313999994,35329.536,35343.313999994,35343.313999994,35329.536,35343.313999994,1,35343.313999994,0,0,NA,"Click To Continue","Continue Button",23,"object-48","BIQ",NA,"SUPPRF73133"
"3",3,1692005135272,"14/08/2023 09:25:35",1692008735272,1,"14/08/2023 11:25:35",140743,17,"questionnaire-uu2n",NA,31172295,NA,"complete",NA,"64d9ff3c7251de5e68eab8bb","computer","Desktop or Laptop","Windows 10","Chrome 115.0.0.0","1536x864","1536x747",NA,NA,0,"BIQ (Charlotte)",2,"EFDGCHBIAJ","B (Feedback ranking_L1 First)","study_1 (JV and feedback_list_1)","","Spreadsheet1",1,"BIQ","Screen 1","9dh6eq",1,"response","1",18264.202,35329.536,35345.813999994,18264.202,35329.536,35345.813999994,1,18264.202,17081.611999994,0,NA,"Rating Scale","Rating Scale",3,"object-5","BIQ",NA,"SUPPRF73133"
"4",4,1692005135273,"14/08/2023 09:25:35",1692008735273,1,"14/08/2023 11:25:35",140743,17,"questionnaire-uu2n",NA,31172295,NA,"complete",NA,"64d9ff3c7251de5e68eab8bb","computer","Desktop or Laptop","Windows 10","Chrome 115.0.0.0","1536x864","1536x747",NA,NA,0,"BIQ (Charlotte)",2,"EFDGCHBIAJ","B (Feedback ranking_L1 First)","study_1 (JV and feedback_list_1)","","Spreadsheet1",1,"BIQ","Screen 1","9dh6eq",1,"response","3",24757.243,35329.536,35345.991,24757.243,35329.536,35345.991,1,24757.243,10588.748,0,NA,"Rating Scale","Rating Scale",10,"object-18","BIQ",NA,"SUPPRF73133"
"5",5,1692005135273,"14/08/2023 09:25:35",1692008735273,1,"14/08/2023 11:25:35",140743,17,"questionnaire-uu2n",NA,31172295,NA,"complete",NA,"64d9ff3c7251de5e68eab8bb","computer","Desktop or Laptop","Windows 10","Chrome 115.0.0.0","1536x864","1536x747",NA,NA,0,"BIQ (Charlotte)",2,"EFDGCHBIAJ","B (Feedback ranking_L1 First)","study_1 (JV and feedback_list_1)","","Spreadsheet1",1,"BIQ","Screen 1","9dh6eq",1,"response","6",29036.088,35329.536,35345.991,29036.088,35329.536,35345.991,1,29036.088,6309.903,0,NA,"Rating Scale","Rating Scale",17,"object-80","BIQ",NA,"SUPPRF73133"
"6",6,1692005154704,"14/08/2023 09:25:54",1692008754704,1,"14/08/2023 11:25:54",140743,17,"questionnaire-uu2n",NA,31172295,NA,"complete",NA,"64d9ff3c7251de5e68eab8bb","computer","Desktop or Laptop","Windows 10","Chrome 115.0.0.0","1536x864","1536x747",NA,NA,0,"BIQ (Charlotte)",2,"EFDGCHBIAJ","B (Feedback ranking_L1 First)","study_1 (JV and feedback_list_1)","","Spreadsheet1",1,"BIQ","Screen 2","o21mwi",2,"continue","",19448.3779999881,19446.128,19448.3779999881,19448.3779999881,19446.128,19448.3779999881,1,19448.3779999881,0,0,NA,"Click To Continue","Continue Button",22,"object-50","BIQ",NA,"SUPPRF73133"
"7",7,1692005154710,"14/08/2023 09:25:54",1692008754710,1,"14/08/2023 11:25:54",140743,17,"questionnaire-uu2n",NA,31172295,NA,"complete",NA,"64d9ff3c7251de5e68eab8bb","computer","Desktop or Laptop","Windows 10","Chrome 115.0.0.0","1536x864","1536x747",NA,NA,0,"BIQ (Charlotte)",2,"EFDGCHBIAJ","B (Feedback ranking_L1 First)","study_1 (JV and feedback_list_1)","","Spreadsheet1",1,"BIQ","Screen 2","o21mwi",2,"response","4",6093.658,19446.128,19453.4779999821,6093.658,19446.128,19453.4779999821,1,6093.658,13359.8199999821,0,NA,"Rating Scale","Rating Scale",2,"object-259","BIQ",NA,"SUPPRF73133"
"8",8,1692005154711,"14/08/2023 09:25:54",1692008754711,1,"14/08/2023 11:25:54",140743,17,"questionnaire-uu2n",NA,31172295,NA,"complete",NA,"64d9ff3c7251de5e68eab8bb","computer","Desktop or Laptop","Windows 10","Chrome 115.0.0.0","1536x864","1536x747",NA,NA,0,"BIQ (Charlotte)",2,"EFDGCHBIAJ","B (Feedback ranking_L1 First)","study_1 (JV and feedback_list_1)","","Spreadsheet1",1,"BIQ","Screen 2","o21mwi",2,"response","3",9706.515,19446.128,19454.777999994,9706.515,19446.128,19454.777999994,1,9706.515,9748.26299999404,0,NA,"Rating Scale","Rating Scale",9,"object-36","BIQ",NA,"SUPPRF73133"
"9",9,1692005154714,"14/08/2023 09:25:54",1692008754714,1,"14/08/2023 11:25:54",140743,17,"questionnaire-uu2n",NA,31172295,NA,"complete",NA,"64d9ff3c7251de5e68eab8bb","computer","Desktop or Laptop","Windows 10","Chrome 115.0.0.0","1536x864","1536x747",NA,NA,0,"BIQ (Charlotte)",2,"EFDGCHBIAJ","B (Feedback ranking_L1 First)","study_1 (JV and feedback_list_1)","","Spreadsheet1",1,"BIQ","Screen 2","o21mwi",2,"response","2",17781.212,19446.128,19456.578000006,17781.212,19446.128,19456.578000006,1,17781.212,1675.36600000596,0,NA,"Rating Scale","Rating Scale",16,"object-86","BIQ",NA,"SUPPRF73133"
"10",10,1692005168245,"14/08/2023 09:26:08",1692008768245,1,"14/08/2023 11:26:08",140743,17,"questionnaire-uu2n",NA,31172295,NA,"complete",NA,"64d9ff3c7251de5e68eab8bb","computer","Desktop or Laptop","Windows 10","Chrome 115.0.0.0","1536x864","1536x747",NA,NA,0,"BIQ (Charlotte)",2,"EFDGCHBIAJ","B (Feedback ranking_L1 First)","study_1 (JV and feedback_list_1)","","Spreadsheet1",1,"BIQ","Screen 3","iz3the",3,"continue","",13542.149999994,13535.945,13542.149999994,13542.149999994,13535.945,13542.149999994,1,13542.149999994,0,0,NA,"Click To Continue","Continue Button",22,"object-73","BIQ",NA,"SUPPRF73133"
"11",11,1692005168250,"14/08/2023 09:26:08",1692008768250,1,"14/08/2023 11:26:08",140743,17,"questionnaire-uu2n",NA,31172295,NA,"complete",NA,"64d9ff3c7251de5e68eab8bb","computer","Desktop or Laptop","Windows 10","Chrome 115.0.0.0","1536x864","1536x747",NA,NA,0,"BIQ (Charlotte)",2,"EFDGCHBIAJ","B (Feedback ranking_L1 First)","study_1 (JV and feedback_list_1)","","Spreadsheet1",1,"BIQ","Screen 3","iz3the",3,"response","1",4695.305,13535.945,13547.450000006,4695.305,13535.945,13547.450000006,1,4695.305,8852.14500000596,0,NA,"Rating Scale","Rating Scale",2,"object-53","BIQ",NA,"SUPPRF73133"
"12",12,1692005168251,"14/08/2023 09:26:08",1692008768251,1,"14/08/2023 11:26:08",140743,17,"questionnaire-uu2n",NA,31172295,NA,"complete",NA,"64d9ff3c7251de5e68eab8bb","computer","Desktop or Laptop","Windows 10","Chrome 115.0.0.0","1536x864","1536x747",NA,NA,0,"BIQ (Charlotte)",2,"EFDGCHBIAJ","B (Feedback ranking_L1 First)","study_1 (JV and feedback_list_1)","","Spreadsheet1",1,"BIQ","Screen 3","iz3the",3,"response","4",7225.713,13535.945,13548.950000006,7225.713,13535.945,13548.950000006,1,7225.713,6323.23700000596,0,NA,"Rating Scale","Rating Scale",9,"object-60","BIQ",NA,"SUPPRF73133"
"13",13,1692005168253,"14/08/2023 09:26:08",1692008768253,1,"14/08/2023 11:26:08",140743,17,"questionnaire-uu2n",NA,31172295,NA,"complete",NA,"64d9ff3c7251de5e68eab8bb","computer","Desktop or Laptop","Windows 10","Chrome 115.0.0.0","1536x864","1536x747",NA,NA,0,"BIQ (Charlotte)",2,"EFDGCHBIAJ","B (Feedback ranking_L1 First)","study_1 (JV and feedback_list_1)","","Spreadsheet1",1,"BIQ","Screen 3","iz3the",3,"response","2",12054.049,13535.945,13550.2499999881,12054.049,13535.945,13550.2499999881,1,12054.049,1496.20099998808,0,NA,"Rating Scale","Rating Scale",16,"object-67","BIQ",NA,"SUPPRF73133"
"14",14,1692005168264,"14/08/2023 09:26:08",1692008768264,1,"14/08/2023 11:26:08",140743,17,"questionnaire-uu2n",NA,31172295,NA,"complete",NA,"64d9ff3c7251de5e68eab8bb","computer","Desktop or Laptop","Windows 10","Chrome 115.0.0.0","1536x864","1536x747",NA,NA,0,"BIQ (Charlotte)",2,"EFDGCHBIAJ","B (Feedback ranking_L1 First)","study_1 (JV and feedback_list_1)","","Spreadsheet1",NA,"","","",NA,"5","END",NA,NA,NA,NA,NA,NA,0,NA,NA,NA,NA,"","",NA,"","",NA,"SUPPRF73133"
"15",1,1692005248087,"14/08/2023 09:27:28",1692008848087,1,"14/08/2023 11:27:28",140743,17,"questionnaire-uu2n",NA,31172329,NA,"complete",NA,"64d9ff71624435bf2a23761d","computer","Desktop or Laptop","Windows 10","Chrome 115.0.0.0","1536x864","1536x707",NA,NA,0,"BIQ (Charlotte)",2,"CDBEAFJGIH","","study_2 (video_feedback and feedback_list_2)","Feedback_ranking_L2_first","Spreadsheet1",NA,"","","",NA,"5","BEGIN",NA,NA,NA,NA,NA,NA,0,NA,NA,NA,NA,"","",NA,"","",NA,"SUPPRF16300"
"16",2,1692005287775,"14/08/2023 09:28:07",1692008887775,1,"14/08/2023 11:28:07",140743,17,"questionnaire-uu2n",NA,31172329,NA,"complete",NA,"64d9ff71624435bf2a23761d","computer","Desktop or Laptop","Windows 10","Chrome 115.0.0.0","1536x864","1536x707",NA,NA,0,"BIQ (Charlotte)",2,"CDBEAFJGIH","","study_2 (video_feedback and feedback_list_2)","Feedback_ranking_L2_first","Spreadsheet1",1,"BIQ","Screen 1","9dh6eq",1,"continue","",39694.211,39683.208,39694.211,39694.211,39683.208,39694.211,1,39694.211,0,0,NA,"Click To Continue","Continue Button",23,"object-48","BIQ",NA,"SUPPRF16300"
"17",3,1692005287777,"14/08/2023 09:28:07",1692008887777,1,"14/08/2023 11:28:07",140743,17,"questionnaire-uu2n",NA,31172329,NA,"complete",NA,"64d9ff71624435bf2a23761d","computer","Desktop or Laptop","Windows 10","Chrome 115.0.0.0","1536x864","1536x707",NA,NA,0,"BIQ (Charlotte)",2,"CDBEAFJGIH","","study_2 (video_feedback and feedback_list_2)","Feedback_ranking_L2_first","Spreadsheet1",1,"BIQ","Screen 1","9dh6eq",1,"response","1",22533.188,39683.208,39697.0109999821,22533.188,39683.208,39697.0109999821,1,22533.188,17163.8229999821,0,NA,"Rating Scale","Rating Scale",3,"object-5","BIQ",NA,"SUPPRF16300"
"18",4,1692005287778,"14/08/2023 09:28:07",1692008887778,1,"14/08/2023 11:28:07",140743,17,"questionnaire-uu2n",NA,31172329,NA,"complete",NA,"64d9ff71624435bf2a23761d","computer","Desktop or Laptop","Windows 10","Chrome 115.0.0.0","1536x864","1536x707",NA,NA,0,"BIQ (Charlotte)",2,"CDBEAFJGIH","","study_2 (video_feedback and feedback_list_2)","Feedback_ranking_L2_first","Spreadsheet1",1,"BIQ","Screen 1","9dh6eq",1,"response","2",30966.578,39683.208,39698.211,30966.578,39683.208,39698.211,1,30966.578,8731.63300000001,0,NA,"Rating Scale","Rating Scale",10,"object-18","BIQ",NA,"SUPPRF16300"
"19",5,1692005287779,"14/08/2023 09:28:07",1692008887779,1,"14/08/2023 11:28:07",140743,17,"questionnaire-uu2n",NA,31172329,NA,"complete",NA,"64d9ff71624435bf2a23761d","computer","Desktop or Laptop","Windows 10","Chrome 115.0.0.0","1536x864","1536x707",NA,NA,0,"BIQ (Charlotte)",2,"CDBEAFJGIH","","study_2 (video_feedback and feedback_list_2)","Feedback_ranking_L2_first","Spreadsheet1",1,"BIQ","Screen 1","9dh6eq",1,"response","7",39116.615,39683.208,39698.611000006,39116.615,39683.208,39698.611000006,1,39116.615,581.996000005958,0,NA,"Rating Scale","Rating Scale",17,"object-80","BIQ",NA,"SUPPRF16300"
"20",6,1692005304030,"14/08/2023 09:28:24",1692008904030,1,"14/08/2023 11:28:24",140743,17,"questionnaire-uu2n",NA,31172329,NA,"complete",NA,"64d9ff71624435bf2a23761d","computer","Desktop or Laptop","Windows 10","Chrome 115.0.0.0","1536x864","1536x707",NA,NA,0,"BIQ (Charlotte)",2,"CDBEAFJGIH","","study_2 (video_feedback and feedback_list_2)","Feedback_ranking_L2_first","Spreadsheet1",1,"BIQ","Screen 2","o21mwi",2,"continue","",16266.333,16249.83,16266.333,16266.333,16249.83,16266.333,1,16266.333,0,0,NA,"Click To Continue","Continue Button",22,"object-50","BIQ",NA,"SUPPRF16300"
"21",7,1692005304033,"14/08/2023 09:28:24",1692008904033,1,"14/08/2023 11:28:24",140743,17,"questionnaire-uu2n",NA,31172329,NA,"complete",NA,"64d9ff71624435bf2a23761d","computer","Desktop or Laptop","Windows 10","Chrome 115.0.0.0","1536x864","1536x707",NA,NA,0,"BIQ (Charlotte)",2,"CDBEAFJGIH","","study_2 (video_feedback and feedback_list_2)","Feedback_ranking_L2_first","Spreadsheet1",1,"BIQ","Screen 2","o21mwi",2,"response","2",5766.634,16249.83,16266.333,5766.634,16249.83,16266.333,1,5766.634,10499.699,0,NA,"Rating Scale","Rating Scale",2,"object-259","BIQ",NA,"SUPPRF16300"
"22",8,1692005304034,"14/08/2023 09:28:24",1692008904034,1,"14/08/2023 11:28:24",140743,17,"questionnaire-uu2n",NA,31172329,NA,"complete",NA,"64d9ff71624435bf2a23761d","computer","Desktop or Laptop","Windows 10","Chrome 115.0.0.0","1536x864","1536x707",NA,NA,0,"BIQ (Charlotte)",2,"CDBEAFJGIH","","study_2 (video_feedback and feedback_list_2)","Feedback_ranking_L2_first","Spreadsheet1",1,"BIQ","Screen 2","o21mwi",2,"response","7",11483.527,16249.83,16266.333,11483.527,16249.83,16266.333,1,11483.527,4782.806,0,NA,"Rating Scale","Rating Scale",9,"object-36","BIQ",NA,"SUPPRF16300"
"23",9,1692005304034,"14/08/2023 09:28:24",1692008904034,1,"14/08/2023 11:28:24",140743,17,"questionnaire-uu2n",NA,31172329,NA,"complete",NA,"64d9ff71624435bf2a23761d","computer","Desktop or Laptop","Windows 10","Chrome 115.0.0.0","1536x864","1536x707",NA,NA,0,"BIQ (Charlotte)",2,"CDBEAFJGIH","","study_2 (video_feedback and feedback_list_2)","Feedback_ranking_L2_first","Spreadsheet1",1,"BIQ","Screen 2","o21mwi",2,"response","0",15499.923,16249.83,16266.333,15499.923,16249.83,16266.333,1,15499.923,766.409999999996,0,NA,"Rating Scale","Rating Scale",16,"object-86","BIQ",NA,"SUPPRF16300"
"24",10,1692005458712,"14/08/2023 09:30:58",1692009058712,1,"14/08/2023 11:30:58",140743,17,"questionnaire-uu2n",NA,31172329,NA,"complete",NA,"64d9ff71624435bf2a23761d","computer","Desktop or Laptop","Windows 10","Chrome 115.0.0.0","1536x864","1536x707",NA,NA,0,"BIQ (Charlotte)",2,"CDBEAFJGIH","","study_2 (video_feedback and feedback_list_2)","Feedback_ranking_L2_first","Spreadsheet1",1,"BIQ","Screen 3","iz3the",3,"continue","",154699.531,154682.754,154699.531,154699.531,154682.754,154699.531,1,154699.531,0,0,NA,"Click To Continue","Continue Button",22,"object-73","BIQ",NA,"SUPPRF16300"
"25",11,1692005458716,"14/08/2023 09:30:58",1692009058716,1,"14/08/2023 11:30:58",140743,17,"questionnaire-uu2n",NA,31172329,NA,"complete",NA,"64d9ff71624435bf2a23761d","computer","Desktop or Laptop","Windows 10","Chrome 115.0.0.0","1536x864","1536x707",NA,NA,0,"BIQ (Charlotte)",2,"CDBEAFJGIH","","study_2 (video_feedback and feedback_list_2)","Feedback_ranking_L2_first","Spreadsheet1",1,"BIQ","Screen 3","iz3the",3,"response","3",149216.049,154682.754,154699.531,149216.049,154682.754,154699.531,1,149216.049,5483.48200000002,0,NA,"Rating Scale","Rating Scale",2,"object-53","BIQ",NA,"SUPPRF16300"
"26",12,1692005458716,"14/08/2023 09:30:58",1692009058716,1,"14/08/2023 11:30:58",140743,17,"questionnaire-uu2n",NA,31172329,NA,"complete",NA,"64d9ff71624435bf2a23761d","computer","Desktop or Laptop","Windows 10","Chrome 115.0.0.0","1536x864","1536x707",NA,NA,0,"BIQ (Charlotte)",2,"CDBEAFJGIH","","study_2 (video_feedback and feedback_list_2)","Feedback_ranking_L2_first","Spreadsheet1",1,"BIQ","Screen 3","iz3the",3,"response","7",149949.325,154682.754,154699.531,149949.325,154682.754,154699.531,1,149949.325,4750.20600000001,0,NA,"Rating Scale","Rating Scale",9,"object-60","BIQ",NA,"SUPPRF16300"
"27",13,1692005458716,"14/08/2023 09:30:58",1692009058716,1,"14/08/2023 11:30:58",140743,17,"questionnaire-uu2n",NA,31172329,NA,"complete",NA,"64d9ff71624435bf2a23761d","computer","Desktop or Laptop","Windows 10","Chrome 115.0.0.0","1536x864","1536x707",NA,NA,0,"BIQ (Charlotte)",2,"CDBEAFJGIH","","study_2 (video_feedback and feedback_list_2)","Feedback_ranking_L2_first","Spreadsheet1",1,"BIQ","Screen 3","iz3the",3,"response","7",152516.124,154682.754,154699.531,152516.124,154682.754,154699.531,1,152516.124,2183.40700000001,0,NA,"Rating Scale","Rating Scale",16,"object-67","BIQ",NA,"SUPPRF16300"
"28",14,1692005458720,"14/08/2023 09:30:58",1692009058720,1,"14/08/2023 11:30:58",140743,17,"questionnaire-uu2n",NA,31172329,NA,"complete",NA,"64d9ff71624435bf2a23761d","computer","Desktop or Laptop","Windows 10","Chrome 115.0.0.0","1536x864","1536x707",NA,NA,0,"BIQ (Charlotte)",2,"CDBEAFJGIH","","study_2 (video_feedback and feedback_list_2)","Feedback_ranking_L2_first","Spreadsheet1",NA,"","","",NA,"5","END",NA,NA,NA,NA,NA,NA,0,NA,NA,NA,NA,"","",NA,"","",NA,"SUPPRF16300"
"29",1,1692005350342,"14/08/2023 09:29:10",1692008950342,1,"14/08/2023 11:29:10",140743,17,"questionnaire-uu2n",NA,31172344,NA,"complete",NA,"64da000bb77c30175cda1703","computer","Desktop or Laptop","Mac OS 10.15.7","Safari 16.6","810x1080","1080x707",NA,NA,0,"BIQ (Charlotte)",2,"DECFBGAHJI","","study_2 (video_feedback and feedback_list_2)","VF_1st","Spreadsheet1",NA,"","","",NA,"5","BEGIN",NA,NA,NA,NA,NA,NA,0,NA,NA,NA,NA,"","",NA,"","",NA,"SUPPRF20908"
"30",2,1692005389336,"14/08/2023 09:29:49",1692008989336,1,"14/08/2023 11:29:49",140743,17,"questionnaire-uu2n",NA,31172344,NA,"complete",NA,"64da000bb77c30175cda1703","computer","Desktop or Laptop","Mac OS 10.15.7","Safari 16.6","810x1080","1080x707",NA,NA,0,"BIQ (Charlotte)",2,"DECFBGAHJI","","study_2 (video_feedback and feedback_list_2)","VF_1st","Spreadsheet1",1,"BIQ","Screen 1","9dh6eq",1,"continue","",38993,38976,38993,38993,38976,38993,1,38993,0,0,NA,"Click To Continue","Continue Button",23,"object-48","BIQ",NA,"SUPPRF20908"
"31",3,1692005389343,"14/08/2023 09:29:49",1692008989343,1,"14/08/2023 11:29:49",140743,17,"questionnaire-uu2n",NA,31172344,NA,"complete",NA,"64da000bb77c30175cda1703","computer","Desktop or Laptop","Mac OS 10.15.7","Safari 16.6","810x1080","1080x707",NA,NA,0,"BIQ (Charlotte)",2,"DECFBGAHJI","","study_2 (video_feedback and feedback_list_2)","VF_1st","Spreadsheet1",1,"BIQ","Screen 1","9dh6eq",1,"response","6",15087,38976,38993,15087,38976,38993,1,15087,23906,0,NA,"Rating Scale","Rating Scale",3,"object-5","BIQ",NA,"SUPPRF20908"
"32",4,1692005389344,"14/08/2023 09:29:49",1692008989344,1,"14/08/2023 11:29:49",140743,17,"questionnaire-uu2n",NA,31172344,NA,"complete",NA,"64da000bb77c30175cda1703","computer","Desktop or Laptop","Mac OS 10.15.7","Safari 16.6","810x1080","1080x707",NA,NA,0,"BIQ (Charlotte)",2,"DECFBGAHJI","","study_2 (video_feedback and feedback_list_2)","VF_1st","Spreadsheet1",1,"BIQ","Screen 1","9dh6eq",1,"response","6",32168,38976,38993,32168,38976,38993,1,32168,6825,0,NA,"Rating Scale","Rating Scale",10,"object-18","BIQ",NA,"SUPPRF20908"
"33",5,1692005389346,"14/08/2023 09:29:49",1692008989346,1,"14/08/2023 11:29:49",140743,17,"questionnaire-uu2n",NA,31172344,NA,"complete",NA,"64da000bb77c30175cda1703","computer","Desktop or Laptop","Mac OS 10.15.7","Safari 16.6","810x1080","1080x707",NA,NA,0,"BIQ (Charlotte)",2,"DECFBGAHJI","","study_2 (video_feedback and feedback_list_2)","VF_1st","Spreadsheet1",1,"BIQ","Screen 1","9dh6eq",1,"response","1",37933,38976,38993,37933,38976,38993,1,37933,1060,0,NA,"Rating Scale","Rating Scale",17,"object-80","BIQ",NA,"SUPPRF20908"
"34",6,1692005406107,"14/08/2023 09:30:06",1692009006107,1,"14/08/2023 11:30:06",140743,17,"questionnaire-uu2n",NA,31172344,NA,"complete",NA,"64da000bb77c30175cda1703","computer","Desktop or Laptop","Mac OS 10.15.7","Safari 16.6","810x1080","1080x707",NA,NA,0,"BIQ (Charlotte)",2,"DECFBGAHJI","","study_2 (video_feedback and feedback_list_2)","VF_1st","Spreadsheet1",1,"BIQ","Screen 2","o21mwi",2,"continue","",16796,16779,16796,16796,16779,16796,1,16796,0,0,NA,"Click To Continue","Continue Button",22,"object-50","BIQ",NA,"SUPPRF20908"
"35",7,1692005406116,"14/08/2023 09:30:06",1692009006116,1,"14/08/2023 11:30:06",140743,17,"questionnaire-uu2n",NA,31172344,NA,"complete",NA,"64da000bb77c30175cda1703","computer","Desktop or Laptop","Mac OS 10.15.7","Safari 16.6","810x1080","1080x707",NA,NA,0,"BIQ (Charlotte)",2,"DECFBGAHJI","","study_2 (video_feedback and feedback_list_2)","VF_1st","Spreadsheet1",1,"BIQ","Screen 2","o21mwi",2,"response","8",4988,16779,16796,4988,16779,16796,1,4988,11808,0,NA,"Rating Scale","Rating Scale",2,"object-259","BIQ",NA,"SUPPRF20908"
"36",8,1692005406117,"14/08/2023 09:30:06",1692009006117,1,"14/08/2023 11:30:06",140743,17,"questionnaire-uu2n",NA,31172344,NA,"complete",NA,"64da000bb77c30175cda1703","computer","Desktop or Laptop","Mac OS 10.15.7","Safari 16.6","810x1080","1080x707",NA,NA,0,"BIQ (Charlotte)",2,"DECFBGAHJI","","study_2 (video_feedback and feedback_list_2)","VF_1st","Spreadsheet1",1,"BIQ","Screen 2","o21mwi",2,"response","0",8869,16779,16796,8869,16779,16796,1,8869,7927,0,NA,"Rating Scale","Rating Scale",9,"object-36","BIQ",NA,"SUPPRF20908"
"37",9,1692005406119,"14/08/2023 09:30:06",1692009006119,1,"14/08/2023 11:30:06",140743,17,"questionnaire-uu2n",NA,31172344,NA,"complete",NA,"64da000bb77c30175cda1703","computer","Desktop or Laptop","Mac OS 10.15.7","Safari 16.6","810x1080","1080x707",NA,NA,0,"BIQ (Charlotte)",2,"DECFBGAHJI","","study_2 (video_feedback and feedback_list_2)","VF_1st","Spreadsheet1",1,"BIQ","Screen 2","o21mwi",2,"response","0",16284,16779,16796,16284,16779,16796,1,16284,512,0,NA,"Rating Scale","Rating Scale",16,"object-86","BIQ",NA,"SUPPRF20908"
"38",10,1692005415604,"14/08/2023 09:30:15",1692009015604,1,"14/08/2023 11:30:15",140743,17,"questionnaire-uu2n",NA,31172344,NA,"complete",NA,"64da000bb77c30175cda1703","computer","Desktop or Laptop","Mac OS 10.15.7","Safari 16.6","810x1080","1080x707",NA,NA,0,"BIQ (Charlotte)",2,"DECFBGAHJI","","study_2 (video_feedback and feedback_list_2)","VF_1st","Spreadsheet1",1,"BIQ","Screen 3","iz3the",3,"continue","",9512,9496,9512,9512,9496,9512,1,9512,0,0,NA,"Click To Continue","Continue Button",22,"object-73","BIQ",NA,"SUPPRF20908"
"39",11,1692005415606,"14/08/2023 09:30:15",1692009015606,1,"14/08/2023 11:30:15",140743,17,"questionnaire-uu2n",NA,31172344,NA,"complete",NA,"64da000bb77c30175cda1703","computer","Desktop or Laptop","Mac OS 10.15.7","Safari 16.6","810x1080","1080x707",NA,NA,0,"BIQ (Charlotte)",2,"DECFBGAHJI","","study_2 (video_feedback and feedback_list_2)","VF_1st","Spreadsheet1",1,"BIQ","Screen 3","iz3the",3,"response","0",3702,9496,9512,3702,9496,9512,1,3702,5810,0,NA,"Rating Scale","Rating Scale",2,"object-53","BIQ",NA,"SUPPRF20908"
"40",12,1692005415607,"14/08/2023 09:30:15",1692009015607,1,"14/08/2023 11:30:15",140743,17,"questionnaire-uu2n",NA,31172344,NA,"complete",NA,"64da000bb77c30175cda1703","computer","Desktop or Laptop","Mac OS 10.15.7","Safari 16.6","810x1080","1080x707",NA,NA,0,"BIQ (Charlotte)",2,"DECFBGAHJI","","study_2 (video_feedback and feedback_list_2)","VF_1st","Spreadsheet1",1,"BIQ","Screen 3","iz3the",3,"response","0",5333,9496,9512,5333,9496,9512,1,5333,4179,0,NA,"Rating Scale","Rating Scale",9,"object-60","BIQ",NA,"SUPPRF20908"
"41",13,1692005415609,"14/08/2023 09:30:15",1692009015609,1,"14/08/2023 11:30:15",140743,17,"questionnaire-uu2n",NA,31172344,NA,"complete",NA,"64da000bb77c30175cda1703","computer","Desktop or Laptop","Mac OS 10.15.7","Safari 16.6","810x1080","1080x707",NA,NA,0,"BIQ (Charlotte)",2,"DECFBGAHJI","","study_2 (video_feedback and feedback_list_2)","VF_1st","Spreadsheet1",1,"BIQ","Screen 3","iz3the",3,"response","1",9018,9496,9512,9018,9496,9512,1,9018,494,0,NA,"Rating Scale","Rating Scale",16,"object-67","BIQ",NA,"SUPPRF20908"
"42",14,1692005415614,"14/08/2023 09:30:15",1692009015614,1,"14/08/2023 11:30:15",140743,17,"questionnaire-uu2n",NA,31172344,NA,"complete",NA,"64da000bb77c30175cda1703","computer","Desktop or Laptop","Mac OS 10.15.7","Safari 16.6","810x1080","1080x707",NA,NA,0,"BIQ (Charlotte)",2,"DECFBGAHJI","","study_2 (video_feedback and feedback_list_2)","VF_1st","Spreadsheet1",NA,"","","",NA,"5","END",NA,NA,NA,NA,NA,NA,0,NA,NA,NA,NA,"","",NA,"","",NA,"SUPPRF20908"
"43",1,1692005573616,"14/08/2023 09:32:53",1692009173616,1,"14/08/2023 11:32:53",140743,17,"questionnaire-uu2n",NA,31172418,NA,"complete",NA,"64da02835a5052b70ee79e36","computer","Desktop or Laptop","Mac OS 10.15.7","Chrome 115.0.0.0","1440x900","1440x815",NA,NA,0,"BIQ (Charlotte)",2,"FGEHDICJBA","A (JV first)","study_1 (JV and feedback_list_1)","","Spreadsheet1",NA,"","","",NA,"5","BEGIN",NA,NA,NA,NA,NA,NA,0,NA,NA,NA,NA,"","",NA,"","",NA,"SUPPRF98941"
"44",2,1692005588793,"14/08/2023 09:33:08",1692009188793,1,"14/08/2023 11:33:08",140743,17,"questionnaire-uu2n",NA,31172418,NA,"complete",NA,"64da02835a5052b70ee79e36","computer","Desktop or Laptop","Mac OS 10.15.7","Chrome 115.0.0.0","1440x900","1440x815",NA,NA,0,"BIQ (Charlotte)",2,"FGEHDICJBA","A (JV first)","study_1 (JV and feedback_list_1)","","Spreadsheet1",1,"BIQ","Screen 1","9dh6eq",1,"continue","",15184.091,15167.424,15184.091,15184.091,15167.424,15184.091,1,15184.091,0,0,NA,"Click To Continue","Continue Button",23,"object-48","BIQ",NA,"SUPPRF98941"
"45",3,1692005588797,"14/08/2023 09:33:08",1692009188797,1,"14/08/2023 11:33:08",140743,17,"questionnaire-uu2n",NA,31172418,NA,"complete",NA,"64da02835a5052b70ee79e36","computer","Desktop or Laptop","Mac OS 10.15.7","Chrome 115.0.0.0","1440x900","1440x815",NA,NA,0,"BIQ (Charlotte)",2,"FGEHDICJBA","A (JV first)","study_1 (JV and feedback_list_1)","","Spreadsheet1",1,"BIQ","Screen 1","9dh6eq",1,"response","7",9483.977,15167.424,15184.091,9483.977,15167.424,15184.091,1,9483.977,5700.114,0,NA,"Rating Scale","Rating Scale",3,"object-5","BIQ",NA,"SUPPRF98941"
"46",4,1692005588798,"14/08/2023 09:33:08",1692009188798,1,"14/08/2023 11:33:08",140743,17,"questionnaire-uu2n",NA,31172418,NA,"complete",NA,"64da02835a5052b70ee79e36","computer","Desktop or Laptop","Mac OS 10.15.7","Chrome 115.0.0.0","1440x900","1440x815",NA,NA,0,"BIQ (Charlotte)",2,"FGEHDICJBA","A (JV first)","study_1 (JV and feedback_list_1)","","Spreadsheet1",1,"BIQ","Screen 1","9dh6eq",1,"response","6",12450.703,15167.424,15184.091,12450.703,15167.424,15184.091,1,12450.703,2733.388,0,NA,"Rating Scale","Rating Scale",10,"object-18","BIQ",NA,"SUPPRF98941"
"47",5,1692005588800,"14/08/2023 09:33:08",1692009188800,1,"14/08/2023 11:33:08",140743,17,"questionnaire-uu2n",NA,31172418,NA,"complete",NA,"64da02835a5052b70ee79e36","computer","Desktop or Laptop","Mac OS 10.15.7","Chrome 115.0.0.0","1440x900","1440x815",NA,NA,0,"BIQ (Charlotte)",2,"FGEHDICJBA","A (JV first)","study_1 (JV and feedback_list_1)","","Spreadsheet1",1,"BIQ","Screen 1","9dh6eq",1,"response","5",14634.08,15167.424,15184.091,14634.08,15167.424,15184.091,1,14634.08,550.011000000002,0,NA,"Rating Scale","Rating Scale",17,"object-80","BIQ",NA,"SUPPRF98941"
"48",6,1692005594968,"14/08/2023 09:33:14",1692009194968,1,"14/08/2023 11:33:14",140743,17,"questionnaire-uu2n",NA,31172418,NA,"complete",NA,"64da02835a5052b70ee79e36","computer","Desktop or Laptop","Mac OS 10.15.7","Chrome 115.0.0.0","1440x900","1440x815",NA,NA,0,"BIQ (Charlotte)",2,"FGEHDICJBA","A (JV first)","study_1 (JV and feedback_list_1)","","Spreadsheet1",1,"BIQ","Screen 2","o21mwi",2,"continue","",6200.567,6183.9,6200.567,6200.567,6183.9,6200.567,1,6200.567,0,0,NA,"Click To Continue","Continue Button",22,"object-50","BIQ",NA,"SUPPRF98941"
"49",7,1692005594969,"14/08/2023 09:33:14",1692009194969,1,"14/08/2023 11:33:14",140743,17,"questionnaire-uu2n",NA,31172418,NA,"complete",NA,"64da02835a5052b70ee79e36","computer","Desktop or Laptop","Mac OS 10.15.7","Chrome 115.0.0.0","1440x900","1440x815",NA,NA,0,"BIQ (Charlotte)",2,"FGEHDICJBA","A (JV first)","study_1 (JV and feedback_list_1)","","Spreadsheet1",1,"BIQ","Screen 2","o21mwi",2,"response","4",3466.736,6183.9,6200.567,3466.736,6183.9,6200.567,1,3466.736,2733.83099999999,0,NA,"Rating Scale","Rating Scale",2,"object-259","BIQ",NA,"SUPPRF98941"
"50",8,1692005594970,"14/08/2023 09:33:14",1692009194970,1,"14/08/2023 11:33:14",140743,17,"questionnaire-uu2n",NA,31172418,NA,"complete",NA,"64da02835a5052b70ee79e36","computer","Desktop or Laptop","Mac OS 10.15.7","Chrome 115.0.0.0","1440x900","1440x815",NA,NA,0,"BIQ (Charlotte)",2,"FGEHDICJBA","A (JV first)","study_1 (JV and feedback_list_1)","","Spreadsheet1",1,"BIQ","Screen 2","o21mwi",2,"response","5",4800.539,6183.9,6200.567,4800.539,6183.9,6200.567,1,4800.539,1400.02799999999,0,NA,"Rating Scale","Rating Scale",9,"object-36","BIQ",NA,"SUPPRF98941"
"51",9,1692005594971,"14/08/2023 09:33:14",1692009194971,1,"14/08/2023 11:33:14",140743,17,"questionnaire-uu2n",NA,31172418,NA,"complete",NA,"64da02835a5052b70ee79e36","computer","Desktop or Laptop","Mac OS 10.15.7","Chrome 115.0.0.0","1440x900","1440x815",NA,NA,0,"BIQ (Charlotte)",2,"FGEHDICJBA","A (JV first)","study_1 (JV and feedback_list_1)","","Spreadsheet1",1,"BIQ","Screen 2","o21mwi",2,"response","4",5617.222,6183.9,6200.567,5617.222,6183.9,6200.567,1,5617.222,583.344999999998,0,NA,"Rating Scale","Rating Scale",16,"object-86","BIQ",NA,"SUPPRF98941"
"52",10,1692005598122,"14/08/2023 09:33:18",1692009198122,1,"14/08/2023 11:33:18",140743,17,"questionnaire-uu2n",NA,31172418,NA,"complete",NA,"64da02835a5052b70ee79e36","computer","Desktop or Laptop","Mac OS 10.15.7","Chrome 115.0.0.0","1440x900","1440x815",NA,NA,0,"BIQ (Charlotte)",2,"FGEHDICJBA","A (JV first)","study_1 (JV and feedback_list_1)","","Spreadsheet1",1,"BIQ","Screen 3","iz3the",3,"continue","",3171.96900001192,3166.73,3171.96900001192,3171.96900001192,3166.73,3171.96900001192,1,3171.96900001192,0,0,NA,"Click To Continue","Continue Button",22,"object-73","BIQ",NA,"SUPPRF98941"
"53",11,1692005598123,"14/08/2023 09:33:18",1692009198123,1,"14/08/2023 11:33:18",140743,17,"questionnaire-uu2n",NA,31172418,NA,"complete",NA,"64da02835a5052b70ee79e36","computer","Desktop or Laptop","Mac OS 10.15.7","Chrome 115.0.0.0","1440x900","1440x815",NA,NA,0,"BIQ (Charlotte)",2,"FGEHDICJBA","A (JV first)","study_1 (JV and feedback_list_1)","","Spreadsheet1",1,"BIQ","Screen 3","iz3the",3,"response","5",1016.687,3166.73,3172.86899998808,1016.687,3166.73,3172.86899998808,1,1016.687,2156.18199998808,0,NA,"Rating Scale","Rating Scale",2,"object-53","BIQ",NA,"SUPPRF98941"
"54",12,1692005598124,"14/08/2023 09:33:18",1692009198124,1,"14/08/2023 11:33:18",140743,17,"questionnaire-uu2n",NA,31172418,NA,"complete",NA,"64da02835a5052b70ee79e36","computer","Desktop or Laptop","Mac OS 10.15.7","Chrome 115.0.0.0","1440x900","1440x815",NA,NA,0,"BIQ (Charlotte)",2,"FGEHDICJBA","A (JV first)","study_1 (JV and feedback_list_1)","","Spreadsheet1",1,"BIQ","Screen 3","iz3the",3,"response","4",1583.365,3166.73,3174.06899997616,1583.365,3166.73,3174.06899997616,1,1583.365,1590.70399997616,0,NA,"Rating Scale","Rating Scale",9,"object-60","BIQ",NA,"SUPPRF98941"
"55",13,1692005598125,"14/08/2023 09:33:18",1692009198125,1,"14/08/2023 11:33:18",140743,17,"questionnaire-uu2n",NA,31172418,NA,"complete",NA,"64da02835a5052b70ee79e36","computer","Desktop or Laptop","Mac OS 10.15.7","Chrome 115.0.0.0","1440x900","1440x815",NA,NA,0,"BIQ (Charlotte)",2,"FGEHDICJBA","A (JV first)","study_1 (JV and feedback_list_1)","","Spreadsheet1",1,"BIQ","Screen 3","iz3the",3,"response","5",2050.041,3166.73,3175.06899997616,2050.041,3166.73,3175.06899997616,1,2050.041,1125.02799997616,0,NA,"Rating Scale","Rating Scale",16,"object-67","BIQ",NA,"SUPPRF98941"
"56",14,1692005598128,"14/08/2023 09:33:18",1692009198128,1,"14/08/2023 11:33:18",140743,17,"questionnaire-uu2n",NA,31172418,NA,"complete",NA,"64da02835a5052b70ee79e36","computer","Desktop or Laptop","Mac OS 10.15.7","Chrome 115.0.0.0","1440x900","1440x815",NA,NA,0,"BIQ (Charlotte)",2,"FGEHDICJBA","A (JV first)","study_1 (JV and feedback_list_1)","","Spreadsheet1",NA,"","","",NA,"5","END",NA,NA,NA,NA,NA,NA,0,NA,NA,NA,NA,"","",NA,"","",NA,"SUPPRF98941"
"57",1,1692005839944,"14/08/2023 09:37:19",1692009439944,1,"14/08/2023 11:37:19",140743,17,"questionnaire-uu2n",NA,31172516,NA,"complete",NA,"64d9ff59202825d1e987df74","tablet","Apple iPad","iOS 16.5","Chrome 115.0.5790.160","810x1080","1080x695",NA,NA,0,"BIQ (Charlotte)",2,"ABJCIDHEGF","","study_2 (video_feedback and feedback_list_2)","Feedback_ranking_L2_first","Spreadsheet1",NA,"","","",NA,"5","BEGIN",NA,NA,NA,NA,NA,NA,0,NA,NA,NA,NA,"","",NA,"","",NA,"SUPPRF13097"
"58",2,1692005871409,"14/08/2023 09:37:51",1692009471409,1,"14/08/2023 11:37:51",140743,17,"questionnaire-uu2n",NA,31172516,NA,"complete",NA,"64d9ff59202825d1e987df74","tablet","Apple iPad","iOS 16.5","Chrome 115.0.5790.160","810x1080","1080x695",NA,NA,0,"BIQ (Charlotte)",2,"ABJCIDHEGF","","study_2 (video_feedback and feedback_list_2)","Feedback_ranking_L2_first","Spreadsheet1",1,"BIQ","Screen 1","9dh6eq",1,"continue","",31453,31436,31453,31453,31436,31453,1,31453,0,0,NA,"Click To Continue","Continue Button",23,"object-48","BIQ",NA,"SUPPRF13097"
"59",3,1692005871416,"14/08/2023 09:37:51",1692009471416,1,"14/08/2023 11:37:51",140743,17,"questionnaire-uu2n",NA,31172516,NA,"complete",NA,"64d9ff59202825d1e987df74","tablet","Apple iPad","iOS 16.5","Chrome 115.0.5790.160","810x1080","1080x695",NA,NA,0,"BIQ (Charlotte)",2,"ABJCIDHEGF","","study_2 (video_feedback and feedback_list_2)","Feedback_ranking_L2_first","Spreadsheet1",1,"BIQ","Screen 1","9dh6eq",1,"response","5",9883,31436,31453,9883,31436,31453,1,9883,21570,0,NA,"Rating Scale","Rating Scale",3,"object-5","BIQ",NA,"SUPPRF13097"
"60",4,1692005871417,"14/08/2023 09:37:51",1692009471417,1,"14/08/2023 11:37:51",140743,17,"questionnaire-uu2n",NA,31172516,NA,"complete",NA,"64d9ff59202825d1e987df74","tablet","Apple iPad","iOS 16.5","Chrome 115.0.5790.160","810x1080","1080x695",NA,NA,0,"BIQ (Charlotte)",2,"ABJCIDHEGF","","study_2 (video_feedback and feedback_list_2)","Feedback_ranking_L2_first","Spreadsheet1",1,"BIQ","Screen 1","9dh6eq",1,"response","4",22012,31436,31453,22012,31436,31453,1,22012,9441,0,NA,"Rating Scale","Rating Scale",10,"object-18","BIQ",NA,"SUPPRF13097"
"61",5,1692005871418,"14/08/2023 09:37:51",1692009471418,1,"14/08/2023 11:37:51",140743,17,"questionnaire-uu2n",NA,31172516,NA,"complete",NA,"64d9ff59202825d1e987df74","tablet","Apple iPad","iOS 16.5","Chrome 115.0.5790.160","810x1080","1080x695",NA,NA,0,"BIQ (Charlotte)",2,"ABJCIDHEGF","","study_2 (video_feedback and feedback_list_2)","Feedback_ranking_L2_first","Spreadsheet1",1,"BIQ","Screen 1","9dh6eq",1,"response","5",26740,31436,31453,26740,31436,31453,1,26740,4713,0,NA,"Rating Scale","Rating Scale",17,"object-80","BIQ",NA,"SUPPRF13097"
"62",6,1692005897724,"14/08/2023 09:38:17",1692009497724,1,"14/08/2023 11:38:17",140743,17,"questionnaire-uu2n",NA,31172516,NA,"complete",NA,"64d9ff59202825d1e987df74","tablet","Apple iPad","iOS 16.5","Chrome 115.0.5790.160","810x1080","1080x695",NA,NA,0,"BIQ (Charlotte)",2,"ABJCIDHEGF","","study_2 (video_feedback and feedback_list_2)","Feedback_ranking_L2_first","Spreadsheet1",1,"BIQ","Screen 2","o21mwi",2,"continue","",26342,26325,26342,26342,26325,26342,1,26342,0,0,NA,"Click To Continue","Continue Button",22,"object-50","BIQ",NA,"SUPPRF13097"
"63",7,1692005897734,"14/08/2023 09:38:17",1692009497734,1,"14/08/2023 11:38:17",140743,17,"questionnaire-uu2n",NA,31172516,NA,"complete",NA,"64d9ff59202825d1e987df74","tablet","Apple iPad","iOS 16.5","Chrome 115.0.5790.160","810x1080","1080x695",NA,NA,0,"BIQ (Charlotte)",2,"ABJCIDHEGF","","study_2 (video_feedback and feedback_list_2)","Feedback_ranking_L2_first","Spreadsheet1",1,"BIQ","Screen 2","o21mwi",2,"response","2",9818,26325,26342,9818,26325,26342,1,9818,16524,0,NA,"Rating Scale","Rating Scale",2,"object-259","BIQ",NA,"SUPPRF13097"
"64",8,1692005897735,"14/08/2023 09:38:17",1692009497735,1,"14/08/2023 11:38:17",140743,17,"questionnaire-uu2n",NA,31172516,NA,"complete",NA,"64d9ff59202825d1e987df74","tablet","Apple iPad","iOS 16.5","Chrome 115.0.5790.160","810x1080","1080x695",NA,NA,0,"BIQ (Charlotte)",2,"ABJCIDHEGF","","study_2 (video_feedback and feedback_list_2)","Feedback_ranking_L2_first","Spreadsheet1",1,"BIQ","Screen 2","o21mwi",2,"response","4",14171,26325,26342,14171,26325,26342,1,14171,12171,0,NA,"Rating Scale","Rating Scale",9,"object-36","BIQ",NA,"SUPPRF13097"
"65",9,1692005897736,"14/08/2023 09:38:17",1692009497736,1,"14/08/2023 11:38:17",140743,17,"questionnaire-uu2n",NA,31172516,NA,"complete",NA,"64d9ff59202825d1e987df74","tablet","Apple iPad","iOS 16.5","Chrome 115.0.5790.160","810x1080","1080x695",NA,NA,0,"BIQ (Charlotte)",2,"ABJCIDHEGF","","study_2 (video_feedback and feedback_list_2)","Feedback_ranking_L2_first","Spreadsheet1",1,"BIQ","Screen 2","o21mwi",2,"response","0",23818,26325,26342,23818,26325,26342,1,23818,2524,0,NA,"Rating Scale","Rating Scale",16,"object-86","BIQ",NA,"SUPPRF13097"
"66",10,1692005916718,"14/08/2023 09:38:36",1692009516718,1,"14/08/2023 11:38:36",140743,17,"questionnaire-uu2n",NA,31172516,NA,"complete",NA,"64d9ff59202825d1e987df74","tablet","Apple iPad","iOS 16.5","Chrome 115.0.5790.160","810x1080","1080x695",NA,NA,0,"BIQ (Charlotte)",2,"ABJCIDHEGF","","study_2 (video_feedback and feedback_list_2)","Feedback_ranking_L2_first","Spreadsheet1",1,"BIQ","Screen 3","iz3the",3,"continue","",19011,18994,19011,19011,18994,19011,1,19011,0,0,NA,"Click To Continue","Continue Button",22,"object-73","BIQ",NA,"SUPPRF13097"
"67",11,1692005916730,"14/08/2023 09:38:36",1692009516730,1,"14/08/2023 11:38:36",140743,17,"questionnaire-uu2n",NA,31172516,NA,"complete",NA,"64d9ff59202825d1e987df74","tablet","Apple iPad","iOS 16.5","Chrome 115.0.5790.160","810x1080","1080x695",NA,NA,0,"BIQ (Charlotte)",2,"ABJCIDHEGF","","study_2 (video_feedback and feedback_list_2)","Feedback_ranking_L2_first","Spreadsheet1",1,"BIQ","Screen 3","iz3the",3,"response","3",8270,18994,19011,8270,18994,19011,1,8270,10741,0,NA,"Rating Scale","Rating Scale",2,"object-53","BIQ",NA,"SUPPRF13097"
"68",12,1692005916731,"14/08/2023 09:38:36",1692009516731,1,"14/08/2023 11:38:36",140743,17,"questionnaire-uu2n",NA,31172516,NA,"complete",NA,"64d9ff59202825d1e987df74","tablet","Apple iPad","iOS 16.5","Chrome 115.0.5790.160","810x1080","1080x695",NA,NA,0,"BIQ (Charlotte)",2,"ABJCIDHEGF","","study_2 (video_feedback and feedback_list_2)","Feedback_ranking_L2_first","Spreadsheet1",1,"BIQ","Screen 3","iz3the",3,"response","7",12322,18994,19011,12322,18994,19011,1,12322,6689,0,NA,"Rating Scale","Rating Scale",9,"object-60","BIQ",NA,"SUPPRF13097"
"69",13,1692005916733,"14/08/2023 09:38:36",1692009516733,1,"14/08/2023 11:38:36",140743,17,"questionnaire-uu2n",NA,31172516,NA,"complete",NA,"64d9ff59202825d1e987df74","tablet","Apple iPad","iOS 16.5","Chrome 115.0.5790.160","810x1080","1080x695",NA,NA,0,"BIQ (Charlotte)",2,"ABJCIDHEGF","","study_2 (video_feedback and feedback_list_2)","Feedback_ranking_L2_first","Spreadsheet1",1,"BIQ","Screen 3","iz3the",3,"response","5",18433,18994,19011,18433,18994,19011,1,18433,578,0,NA,"Rating Scale","Rating Scale",16,"object-67","BIQ",NA,"SUPPRF13097"
"70",14,1692005916737,"14/08/2023 09:38:36",1692009516737,1,"14/08/2023 11:38:36",140743,17,"questionnaire-uu2n",NA,31172516,NA,"complete",NA,"64d9ff59202825d1e987df74","tablet","Apple iPad","iOS 16.5","Chrome 115.0.5790.160","810x1080","1080x695",NA,NA,0,"BIQ (Charlotte)",2,"ABJCIDHEGF","","study_2 (video_feedback and feedback_list_2)","Feedback_ranking_L2_first","Spreadsheet1",NA,"","","",NA,"5","END",NA,NA,NA,NA,NA,NA,0,NA,NA,NA,NA,"","",NA,"","",NA,"SUPPRF13097"
"71",1,1692006157972,"14/08/2023 09:42:37",1692009757972,1,"14/08/2023 11:42:37",140743,17,"questionnaire-uu2n",NA,31172610,NA,"complete",NA,"64da041f0e6d392fff657804","computer","Desktop or Laptop","Mac OS 10.15.7","Safari 16.5.1","1440x900","1212x795",NA,NA,0,"BIQ (Charlotte)",2,"HIGJFAEBDC","A (JV first)","study_1 (JV and feedback_list_1)","","Spreadsheet1",NA,"","","",NA,"5","BEGIN",NA,NA,NA,NA,NA,NA,0,NA,NA,NA,NA,"","",NA,"","",NA,"SUPPRF15001"
"72",2,1692006185499,"14/08/2023 09:43:05",1692009785499,1,"14/08/2023 11:43:05",140743,17,"questionnaire-uu2n",NA,31172610,NA,"complete",NA,"64da041f0e6d392fff657804","computer","Desktop or Laptop","Mac OS 10.15.7","Safari 16.5.1","1440x900","1212x795",NA,NA,0,"BIQ (Charlotte)",2,"HIGJFAEBDC","A (JV first)","study_1 (JV and feedback_list_1)","","Spreadsheet1",1,"BIQ","Screen 1","9dh6eq",1,"continue","",28485,28452,28485,28485,28452,28485,1,28485,0,0,NA,"Click To Continue","Continue Button",23,"object-48","BIQ",NA,"SUPPRF15001"
"73",3,1692006185502,"14/08/2023 09:43:05",1692009785502,1,"14/08/2023 11:43:05",140743,17,"questionnaire-uu2n",NA,31172610,NA,"complete",NA,"64da041f0e6d392fff657804","computer","Desktop or Laptop","Mac OS 10.15.7","Safari 16.5.1","1440x900","1212x795",NA,NA,0,"BIQ (Charlotte)",2,"HIGJFAEBDC","A (JV first)","study_1 (JV and feedback_list_1)","","Spreadsheet1",1,"BIQ","Screen 1","9dh6eq",1,"response","6",11985,28452,28485,11985,28452,28485,1,11985,16500,0,NA,"Rating Scale","Rating Scale",3,"object-5","BIQ",NA,"SUPPRF15001"
"74",4,1692006185504,"14/08/2023 09:43:05",1692009785504,1,"14/08/2023 11:43:05",140743,17,"questionnaire-uu2n",NA,31172610,NA,"complete",NA,"64da041f0e6d392fff657804","computer","Desktop or Laptop","Mac OS 10.15.7","Safari 16.5.1","1440x900","1212x795",NA,NA,0,"BIQ (Charlotte)",2,"HIGJFAEBDC","A (JV first)","study_1 (JV and feedback_list_1)","","Spreadsheet1",1,"BIQ","Screen 1","9dh6eq",1,"response","6",21586,28452,28485,21586,28452,28485,1,21586,6899,0,NA,"Rating Scale","Rating Scale",10,"object-18","BIQ",NA,"SUPPRF15001"
"75",5,1692006185505,"14/08/2023 09:43:05",1692009785505,1,"14/08/2023 11:43:05",140743,17,"questionnaire-uu2n",NA,31172610,NA,"complete",NA,"64da041f0e6d392fff657804","computer","Desktop or Laptop","Mac OS 10.15.7","Safari 16.5.1","1440x900","1212x795",NA,NA,0,"BIQ (Charlotte)",2,"HIGJFAEBDC","A (JV first)","study_1 (JV and feedback_list_1)","","Spreadsheet1",1,"BIQ","Screen 1","9dh6eq",1,"response","2",27852,28452,28485,27852,28452,28485,1,27852,633,0,NA,"Rating Scale","Rating Scale",17,"object-80","BIQ",NA,"SUPPRF15001"
"76",6,1692006206386,"14/08/2023 09:43:26",1692009806386,1,"14/08/2023 11:43:26",140743,17,"questionnaire-uu2n",NA,31172610,NA,"complete",NA,"64da041f0e6d392fff657804","computer","Desktop or Laptop","Mac OS 10.15.7","Safari 16.5.1","1440x900","1212x795",NA,NA,0,"BIQ (Charlotte)",2,"HIGJFAEBDC","A (JV first)","study_1 (JV and feedback_list_1)","","Spreadsheet1",1,"BIQ","Screen 2","o21mwi",2,"continue","",20931,20899,20931,20931,20899,20931,1,20931,0,0,NA,"Click To Continue","Continue Button",22,"object-50","BIQ",NA,"SUPPRF15001"
"77",7,1692006206390,"14/08/2023 09:43:26",1692009806390,1,"14/08/2023 11:43:26",140743,17,"questionnaire-uu2n",NA,31172610,NA,"complete",NA,"64da041f0e6d392fff657804","computer","Desktop or Laptop","Mac OS 10.15.7","Safari 16.5.1","1440x900","1212x795",NA,NA,0,"BIQ (Charlotte)",2,"HIGJFAEBDC","A (JV first)","study_1 (JV and feedback_list_1)","","Spreadsheet1",1,"BIQ","Screen 2","o21mwi",2,"response","8",5133,20899,20931,5133,20899,20931,1,5133,15798,0,NA,"Rating Scale","Rating Scale",2,"object-259","BIQ",NA,"SUPPRF15001"
"78",8,1692006206391,"14/08/2023 09:43:26",1692009806391,1,"14/08/2023 11:43:26",140743,17,"questionnaire-uu2n",NA,31172610,NA,"complete",NA,"64da041f0e6d392fff657804","computer","Desktop or Laptop","Mac OS 10.15.7","Safari 16.5.1","1440x900","1212x795",NA,NA,0,"BIQ (Charlotte)",2,"HIGJFAEBDC","A (JV first)","study_1 (JV and feedback_list_1)","","Spreadsheet1",1,"BIQ","Screen 2","o21mwi",2,"response","0",8200,20899,20931,8200,20899,20931,1,8200,12731,0,NA,"Rating Scale","Rating Scale",9,"object-36","BIQ",NA,"SUPPRF15001"
"79",9,1692006206391,"14/08/2023 09:43:26",1692009806391,1,"14/08/2023 11:43:26",140743,17,"questionnaire-uu2n",NA,31172610,NA,"complete",NA,"64da041f0e6d392fff657804","computer","Desktop or Laptop","Mac OS 10.15.7","Safari 16.5.1","1440x900","1212x795",NA,NA,0,"BIQ (Charlotte)",2,"HIGJFAEBDC","A (JV first)","study_1 (JV and feedback_list_1)","","Spreadsheet1",1,"BIQ","Screen 2","o21mwi",2,"response","2",20333,20899,20931,20333,20899,20931,1,20333,598,0,NA,"Rating Scale","Rating Scale",16,"object-86","BIQ",NA,"SUPPRF15001"
"80",10,1692006217603,"14/08/2023 09:43:37",1692009817603,1,"14/08/2023 11:43:37",140743,17,"questionnaire-uu2n",NA,31172610,NA,"complete",NA,"64da041f0e6d392fff657804","computer","Desktop or Laptop","Mac OS 10.15.7","Safari 16.5.1","1440x900","1212x795",NA,NA,0,"BIQ (Charlotte)",2,"HIGJFAEBDC","A (JV first)","study_1 (JV and feedback_list_1)","","Spreadsheet1",1,"BIQ","Screen 3","iz3the",3,"continue","",11261,11234,11261,11261,11234,11261,1,11261,0,0,NA,"Click To Continue","Continue Button",22,"object-73","BIQ",NA,"SUPPRF15001"
"81",11,1692006217607,"14/08/2023 09:43:37",1692009817607,1,"14/08/2023 11:43:37",140743,17,"questionnaire-uu2n",NA,31172610,NA,"complete",NA,"64da041f0e6d392fff657804","computer","Desktop or Laptop","Mac OS 10.15.7","Safari 16.5.1","1440x900","1212x795",NA,NA,0,"BIQ (Charlotte)",2,"HIGJFAEBDC","A (JV first)","study_1 (JV and feedback_list_1)","","Spreadsheet1",1,"BIQ","Screen 3","iz3the",3,"response","0",4368,11234,11264,4368,11234,11264,1,4368,6896,0,NA,"Rating Scale","Rating Scale",2,"object-53","BIQ",NA,"SUPPRF15001"
"82",12,1692006217608,"14/08/2023 09:43:37",1692009817608,1,"14/08/2023 11:43:37",140743,17,"questionnaire-uu2n",NA,31172610,NA,"complete",NA,"64da041f0e6d392fff657804","computer","Desktop or Laptop","Mac OS 10.15.7","Safari 16.5.1","1440x900","1212x795",NA,NA,0,"BIQ (Charlotte)",2,"HIGJFAEBDC","A (JV first)","study_1 (JV and feedback_list_1)","","Spreadsheet1",1,"BIQ","Screen 3","iz3the",3,"response","0",6434,11234,11265,6434,11234,11265,1,6434,4831,0,NA,"Rating Scale","Rating Scale",9,"object-60","BIQ",NA,"SUPPRF15001"
"83",13,1692006217608,"14/08/2023 09:43:37",1692009817608,1,"14/08/2023 11:43:37",140743,17,"questionnaire-uu2n",NA,31172610,NA,"complete",NA,"64da041f0e6d392fff657804","computer","Desktop or Laptop","Mac OS 10.15.7","Safari 16.5.1","1440x900","1212x795",NA,NA,0,"BIQ (Charlotte)",2,"HIGJFAEBDC","A (JV first)","study_1 (JV and feedback_list_1)","","Spreadsheet1",1,"BIQ","Screen 3","iz3the",3,"response","2",9634,11234,11266,9634,11234,11266,1,9634,1632.00000000001,0,NA,"Rating Scale","Rating Scale",16,"object-67","BIQ",NA,"SUPPRF15001"
"84",14,1692006217611,"14/08/2023 09:43:37",1692009817611,1,"14/08/2023 11:43:37",140743,17,"questionnaire-uu2n",NA,31172610,NA,"complete",NA,"64da041f0e6d392fff657804","computer","Desktop or Laptop","Mac OS 10.15.7","Safari 16.5.1","1440x900","1212x795",NA,NA,0,"BIQ (Charlotte)",2,"HIGJFAEBDC","A (JV first)","study_1 (JV and feedback_list_1)","","Spreadsheet1",NA,"","","",NA,"5","END",NA,NA,NA,NA,NA,NA,0,NA,NA,NA,NA,"","",NA,"","",NA,"SUPPRF15001"
"85",1,1692006345991,"14/08/2023 09:45:45",1692009945991,1,"14/08/2023 11:45:45",140743,17,"questionnaire-uu2n",NA,31172680,NA,"complete",NA,"64da04919351a898f9c3ea48","computer","Desktop or Laptop","Windows 10","Chrome 115.0.0.0","1920x1080","500x512",NA,NA,0,"BIQ (Charlotte)",2,"IJHAGBFCED","A (JV first)","study_1 (JV and feedback_list_1)","","Spreadsheet1",NA,"","","",NA,"5","BEGIN",NA,NA,NA,NA,NA,NA,0,NA,NA,NA,NA,"","",NA,"","",NA,"SUPPRF41746"
"86",2,1692006408622,"14/08/2023 09:46:48",1692010008622,1,"14/08/2023 11:46:48",140743,17,"questionnaire-uu2n",NA,31172680,NA,"complete",NA,"64da04919351a898f9c3ea48","computer","Desktop or Laptop","Windows 10","Chrome 115.0.0.0","1920x1080","1920x955",NA,NA,0,"BIQ (Charlotte)",2,"IJHAGBFCED","A (JV first)","study_1 (JV and feedback_list_1)","","Spreadsheet1",1,"BIQ","Screen 1","9dh6eq",1,"continue","",62646.0139999762,62631.362,62646.0139999762,62646.0139999762,62631.362,62646.0139999762,1,62646.0139999762,0,0,NA,"Click To Continue","Continue Button",23,"object-48","BIQ",NA,"SUPPRF41746"
"87",3,1692006408625,"14/08/2023 09:46:48",1692010008625,1,"14/08/2023 11:46:48",140743,17,"questionnaire-uu2n",NA,31172680,NA,"complete",NA,"64da04919351a898f9c3ea48","computer","Desktop or Laptop","Windows 10","Chrome 115.0.0.0","1920x1080","1920x955",NA,NA,0,"BIQ (Charlotte)",2,"IJHAGBFCED","A (JV first)","study_1 (JV and feedback_list_1)","","Spreadsheet1",1,"BIQ","Screen 1","9dh6eq",1,"response","6",42515.229,62631.362,62648.052,42515.229,62631.362,62648.052,1,42515.229,20132.823,0,NA,"Rating Scale","Rating Scale",3,"object-5","BIQ",NA,"SUPPRF41746"
"88",4,1692006408626,"14/08/2023 09:46:48",1692010008626,1,"14/08/2023 11:46:48",140743,17,"questionnaire-uu2n",NA,31172680,NA,"complete",NA,"64da04919351a898f9c3ea48","computer","Desktop or Laptop","Windows 10","Chrome 115.0.0.0","1920x1080","1920x955",NA,NA,0,"BIQ (Charlotte)",2,"IJHAGBFCED","A (JV first)","study_1 (JV and feedback_list_1)","","Spreadsheet1",1,"BIQ","Screen 1","9dh6eq",1,"response","4",51765.071,62631.362,62648.052,51765.071,62631.362,62648.052,1,51765.071,10882.981,0,NA,"Rating Scale","Rating Scale",10,"object-18","BIQ",NA,"SUPPRF41746"
"89",5,1692006408627,"14/08/2023 09:46:48",1692010008627,1,"14/08/2023 11:46:48",140743,17,"questionnaire-uu2n",NA,31172680,NA,"complete",NA,"64da04919351a898f9c3ea48","computer","Desktop or Laptop","Windows 10","Chrome 115.0.0.0","1920x1080","1920x955",NA,NA,0,"BIQ (Charlotte)",2,"IJHAGBFCED","A (JV first)","study_1 (JV and feedback_list_1)","","Spreadsheet1",1,"BIQ","Screen 1","9dh6eq",1,"response","4",57664.88,62631.362,62648.052,57664.88,62631.362,62648.052,1,57664.88,4983.172,0,NA,"Rating Scale","Rating Scale",17,"object-80","BIQ",NA,"SUPPRF41746"
"90",6,1692006426002,"14/08/2023 09:47:06",1692010026002,1,"14/08/2023 11:47:06",140743,17,"questionnaire-uu2n",NA,31172680,NA,"complete",NA,"64da04919351a898f9c3ea48","computer","Desktop or Laptop","Windows 10","Chrome 115.0.0.0","1920x1080","1920x955",NA,NA,0,"BIQ (Charlotte)",2,"IJHAGBFCED","A (JV first)","study_1 (JV and feedback_list_1)","","Spreadsheet1",1,"BIQ","Screen 2","o21mwi",2,"continue","",17396.252,17382.745,17396.252,17396.252,17382.745,17396.252,1,17396.252,0,0,NA,"Click To Continue","Continue Button",22,"object-50","BIQ",NA,"SUPPRF41746"
"91",7,1692006426008,"14/08/2023 09:47:06",1692010026008,1,"14/08/2023 11:47:06",140743,17,"questionnaire-uu2n",NA,31172680,NA,"complete",NA,"64da04919351a898f9c3ea48","computer","Desktop or Laptop","Windows 10","Chrome 115.0.0.0","1920x1080","1920x955",NA,NA,0,"BIQ (Charlotte)",2,"IJHAGBFCED","A (JV first)","study_1 (JV and feedback_list_1)","","Spreadsheet1",1,"BIQ","Screen 2","o21mwi",2,"response","1",3883.21999999999,17382.745,17399.327,3883.21999999999,17382.745,17399.327,1,3883.21999999999,13516.107,0,NA,"Rating Scale","Rating Scale",2,"object-259","BIQ",NA,"SUPPRF41746"
"92",8,1692006426009,"14/08/2023 09:47:06",1692010026009,1,"14/08/2023 11:47:06",140743,17,"questionnaire-uu2n",NA,31172680,NA,"complete",NA,"64da04919351a898f9c3ea48","computer","Desktop or Laptop","Windows 10","Chrome 115.0.0.0","1920x1080","1920x955",NA,NA,0,"BIQ (Charlotte)",2,"IJHAGBFCED","A (JV first)","study_1 (JV and feedback_list_1)","","Spreadsheet1",1,"BIQ","Screen 2","o21mwi",2,"response","4",7266.395,17382.745,17399.327,7266.395,17382.745,17399.327,1,7266.395,10132.932,0,NA,"Rating Scale","Rating Scale",9,"object-36","BIQ",NA,"SUPPRF41746"
"93",9,1692006426010,"14/08/2023 09:47:06",1692010026010,1,"14/08/2023 11:47:06",140743,17,"questionnaire-uu2n",NA,31172680,NA,"complete",NA,"64da04919351a898f9c3ea48","computer","Desktop or Laptop","Windows 10","Chrome 115.0.0.0","1920x1080","1920x955",NA,NA,0,"BIQ (Charlotte)",2,"IJHAGBFCED","A (JV first)","study_1 (JV and feedback_list_1)","","Spreadsheet1",1,"BIQ","Screen 2","o21mwi",2,"response","6",14799.502,17382.745,17399.327,14799.502,17382.745,17399.327,1,14799.502,2599.82500000001,0,NA,"Rating Scale","Rating Scale",16,"object-86","BIQ",NA,"SUPPRF41746"
"94",10,1692006440369,"14/08/2023 09:47:20",1692010040369,1,"14/08/2023 11:47:20",140743,17,"questionnaire-uu2n",NA,31172680,NA,"complete",NA,"64da04919351a898f9c3ea48","computer","Desktop or Laptop","Windows 10","Chrome 115.0.0.0","1920x1080","1920x955",NA,NA,0,"BIQ (Charlotte)",2,"IJHAGBFCED","A (JV first)","study_1 (JV and feedback_list_1)","","Spreadsheet1",1,"BIQ","Screen 3","iz3the",3,"continue","",14379.7069999881,14366.192,14379.7069999881,14379.7069999881,14366.192,14379.7069999881,1,14379.7069999881,0,0,NA,"Click To Continue","Continue Button",22,"object-73","BIQ",NA,"SUPPRF41746"
"95",11,1692006440374,"14/08/2023 09:47:20",1692010040374,1,"14/08/2023 11:47:20",140743,17,"questionnaire-uu2n",NA,31172680,NA,"complete",NA,"64da04919351a898f9c3ea48","computer","Desktop or Laptop","Windows 10","Chrome 115.0.0.0","1920x1080","1920x955",NA,NA,0,"BIQ (Charlotte)",2,"IJHAGBFCED","A (JV first)","study_1 (JV and feedback_list_1)","","Spreadsheet1",1,"BIQ","Screen 3","iz3the",3,"response","1",4449.871,14366.192,14382.841,4449.871,14366.192,14382.841,1,4449.871,9932.97,0,NA,"Rating Scale","Rating Scale",2,"object-53","BIQ",NA,"SUPPRF41746"
"96",12,1692006440375,"14/08/2023 09:47:20",1692010040375,1,"14/08/2023 11:47:20",140743,17,"questionnaire-uu2n",NA,31172680,NA,"complete",NA,"64da04919351a898f9c3ea48","computer","Desktop or Laptop","Windows 10","Chrome 115.0.0.0","1920x1080","1920x955",NA,NA,0,"BIQ (Charlotte)",2,"IJHAGBFCED","A (JV first)","study_1 (JV and feedback_list_1)","","Spreadsheet1",1,"BIQ","Screen 3","iz3the",3,"response","3",10416.399,14366.192,14382.841,10416.399,14366.192,14382.841,1,10416.399,3966.442,0,NA,"Rating Scale","Rating Scale",9,"object-60","BIQ",NA,"SUPPRF41746"
"97",13,1692006440376,"14/08/2023 09:47:20",1692010040376,1,"14/08/2023 11:47:20",140743,17,"questionnaire-uu2n",NA,31172680,NA,"complete",NA,"64da04919351a898f9c3ea48","computer","Desktop or Laptop","Windows 10","Chrome 115.0.0.0","1920x1080","1920x955",NA,NA,0,"BIQ (Charlotte)",2,"IJHAGBFCED","A (JV first)","study_1 (JV and feedback_list_1)","","Spreadsheet1",1,"BIQ","Screen 3","iz3the",3,"response","1",13183.009,14366.192,14382.841,13183.009,14366.192,14382.841,1,13183.009,1199.83200000001,0,NA,"Rating Scale","Rating Scale",16,"object-67","BIQ",NA,"SUPPRF41746"
"98",14,1692006440388,"14/08/2023 09:47:20",1692010040388,1,"14/08/2023 11:47:20",140743,17,"questionnaire-uu2n",NA,31172680,NA,"complete",NA,"64da04919351a898f9c3ea48","computer","Desktop or Laptop","Windows 10","Chrome 115.0.0.0","1920x1080","1920x955",NA,NA,0,"BIQ (Charlotte)",2,"IJHAGBFCED","A (JV first)","study_1 (JV and feedback_list_1)","","Spreadsheet1",NA,"","","",NA,"5","END",NA,NA,NA,NA,NA,NA,0,NA,NA,NA,NA,"","",NA,"","",NA,"SUPPRF41746"
"99",1,1692015009139,"14/08/2023 12:10:09",1692018609139,1,"14/08/2023 14:10:09",140743,17,"questionnaire-uu2n",NA,31175504,NA,"complete",NA,"64da2331d1c99ce54caf7f00","computer","Desktop or Laptop","Windows 10","Chrome 115.0.0.0","1280x720","1280x595",NA,NA,0,"BIQ (Charlotte)",2,"DECFBGAHJI","","study_2 (video_feedback and feedback_list_2)","VF_1st","Spreadsheet1",NA,"","","",NA,"5","BEGIN",NA,NA,NA,NA,NA,NA,0,NA,NA,NA,NA,"","",NA,"","",NA,"SUPPRF01065"
"100",2,1692015040760,"14/08/2023 12:10:40",1692018640760,1,"14/08/2023 14:10:40",140743,17,"questionnaire-uu2n",NA,31175504,NA,"complete",NA,"64da2331d1c99ce54caf7f00","computer","Desktop or Laptop","Windows 10","Chrome 115.0.0.0","1280x720","1280x595",NA,NA,0,"BIQ (Charlotte)",2,"DECFBGAHJI","","study_2 (video_feedback and feedback_list_2)","VF_1st","Spreadsheet1",1,"BIQ","Screen 1","9dh6eq",1,"continue","",31644.553,31627.761,31644.553,31644.553,31627.761,31644.553,1,31644.553,0,0,NA,"Click To Continue","Continue Button",23,"object-48","BIQ",NA,"SUPPRF01065"
"101",3,1692015040762,"14/08/2023 12:10:40",1692018640762,1,"14/08/2023 14:10:40",140743,17,"questionnaire-uu2n",NA,31175504,NA,"complete",NA,"64da2331d1c99ce54caf7f00","computer","Desktop or Laptop","Windows 10","Chrome 115.0.0.0","1280x720","1280x595",NA,NA,0,"BIQ (Charlotte)",2,"DECFBGAHJI","","study_2 (video_feedback and feedback_list_2)","VF_1st","Spreadsheet1",1,"BIQ","Screen 1","9dh6eq",1,"response","7",18795.896,31627.761,31644.553,18795.896,31627.761,31644.553,1,18795.896,12848.657,0,NA,"Rating Scale","Rating Scale",3,"object-5","BIQ",NA,"SUPPRF01065"
"102",4,1692015040763,"14/08/2023 12:10:40",1692018640763,1,"14/08/2023 14:10:40",140743,17,"questionnaire-uu2n",NA,31175504,NA,"complete",NA,"64da2331d1c99ce54caf7f00","computer","Desktop or Laptop","Windows 10","Chrome 115.0.0.0","1280x720","1280x595",NA,NA,0,"BIQ (Charlotte)",2,"DECFBGAHJI","","study_2 (video_feedback and feedback_list_2)","VF_1st","Spreadsheet1",1,"BIQ","Screen 1","9dh6eq",1,"response","2",25428.583,31627.761,31644.553,25428.583,31627.761,31644.553,1,25428.583,6215.97,0,NA,"Rating Scale","Rating Scale",10,"object-18","BIQ",NA,"SUPPRF01065"
"103",5,1692015040763,"14/08/2023 12:10:40",1692018640763,1,"14/08/2023 14:10:40",140743,17,"questionnaire-uu2n",NA,31175504,NA,"complete",NA,"64da2331d1c99ce54caf7f00","computer","Desktop or Laptop","Windows 10","Chrome 115.0.0.0","1280x720","1280x595",NA,NA,0,"BIQ (Charlotte)",2,"DECFBGAHJI","","study_2 (video_feedback and feedback_list_2)","VF_1st","Spreadsheet1",1,"BIQ","Screen 1","9dh6eq",1,"response","3",28411.313,31627.761,31644.553,28411.313,31627.761,31644.553,1,28411.313,3233.24,0,NA,"Rating Scale","Rating Scale",17,"object-80","BIQ",NA,"SUPPRF01065"
"104",6,1692015053948,"14/08/2023 12:10:53",1692018653948,1,"14/08/2023 14:10:53",140743,17,"questionnaire-uu2n",NA,31175504,NA,"complete",NA,"64da2331d1c99ce54caf7f00","computer","Desktop or Laptop","Windows 10","Chrome 115.0.0.0","1280x720","1280x595",NA,NA,0,"BIQ (Charlotte)",2,"DECFBGAHJI","","study_2 (video_feedback and feedback_list_2)","VF_1st","Spreadsheet1",1,"BIQ","Screen 2","o21mwi",2,"continue","",13205.7930000238,13198.16,13205.7930000238,13205.7930000238,13198.16,13205.7930000238,1,13205.7930000238,0,0,NA,"Click To Continue","Continue Button",22,"object-50","BIQ",NA,"SUPPRF01065"
"105",7,1692015053955,"14/08/2023 12:10:53",1692018653955,1,"14/08/2023 14:10:53",140743,17,"questionnaire-uu2n",NA,31175504,NA,"complete",NA,"64da2331d1c99ce54caf7f00","computer","Desktop or Laptop","Windows 10","Chrome 115.0.0.0","1280x720","1280x595",NA,NA,0,"BIQ (Charlotte)",2,"DECFBGAHJI","","study_2 (video_feedback and feedback_list_2)","VF_1st","Spreadsheet1",1,"BIQ","Screen 2","o21mwi",2,"response","4",6332.274,13198.16,13213.193,6332.274,13198.16,13213.193,1,6332.274,6880.919,0,NA,"Rating Scale","Rating Scale",2,"object-259","BIQ",NA,"SUPPRF01065"
"106",8,1692015053957,"14/08/2023 12:10:53",1692018653957,1,"14/08/2023 14:10:53",140743,17,"questionnaire-uu2n",NA,31175504,NA,"complete",NA,"64da2331d1c99ce54caf7f00","computer","Desktop or Laptop","Windows 10","Chrome 115.0.0.0","1280x720","1280x595",NA,NA,0,"BIQ (Charlotte)",2,"DECFBGAHJI","","study_2 (video_feedback and feedback_list_2)","VF_1st","Spreadsheet1",1,"BIQ","Screen 2","o21mwi",2,"response","4",7432.279,13198.16,13214.562,7432.279,13198.16,13214.562,1,7432.279,5782.28299999999,0,NA,"Rating Scale","Rating Scale",9,"object-36","BIQ",NA,"SUPPRF01065"
"107",9,1692015053958,"14/08/2023 12:10:53",1692018653958,1,"14/08/2023 14:10:53",140743,17,"questionnaire-uu2n",NA,31175504,NA,"complete",NA,"64da2331d1c99ce54caf7f00","computer","Desktop or Laptop","Windows 10","Chrome 115.0.0.0","1280x720","1280x595",NA,NA,0,"BIQ (Charlotte)",2,"DECFBGAHJI","","study_2 (video_feedback and feedback_list_2)","VF_1st","Spreadsheet1",1,"BIQ","Screen 2","o21mwi",2,"response","4",8348.88,13198.16,13214.562,8348.88,13198.16,13214.562,1,8348.88,4865.68199999999,0,NA,"Rating Scale","Rating Scale",16,"object-86","BIQ",NA,"SUPPRF01065"
"108",10,1692015059373,"14/08/2023 12:10:59",1692018659373,1,"14/08/2023 14:10:59",140743,17,"questionnaire-uu2n",NA,31175504,NA,"complete",NA,"64da2331d1c99ce54caf7f00","computer","Desktop or Laptop","Windows 10","Chrome 115.0.0.0","1280x720","1280x595",NA,NA,0,"BIQ (Charlotte)",2,"DECFBGAHJI","","study_2 (video_feedback and feedback_list_2)","VF_1st","Spreadsheet1",1,"BIQ","Screen 3","iz3the",3,"continue","",5432.19700000001,5415.772,5432.19700000001,5432.19700000001,5415.772,5432.19700000001,1,5432.19700000001,0,0,NA,"Click To Continue","Continue Button",22,"object-73","BIQ",NA,"SUPPRF01065"
"109",11,1692015059375,"14/08/2023 12:10:59",1692018659375,1,"14/08/2023 14:10:59",140743,17,"questionnaire-uu2n",NA,31175504,NA,"complete",NA,"64da2331d1c99ce54caf7f00","computer","Desktop or Laptop","Windows 10","Chrome 115.0.0.0","1280x720","1280x595",NA,NA,0,"BIQ (Charlotte)",2,"DECFBGAHJI","","study_2 (video_feedback and feedback_list_2)","VF_1st","Spreadsheet1",1,"BIQ","Screen 3","iz3the",3,"response","4",2516.131,5415.772,5432.19700000001,2516.131,5415.772,5432.19700000001,1,2516.131,2916.06600000001,0,NA,"Rating Scale","Rating Scale",2,"object-53","BIQ",NA,"SUPPRF01065"
"110",12,1692015059376,"14/08/2023 12:10:59",1692018659376,1,"14/08/2023 14:10:59",140743,17,"questionnaire-uu2n",NA,31175504,NA,"complete",NA,"64da2331d1c99ce54caf7f00","computer","Desktop or Laptop","Windows 10","Chrome 115.0.0.0","1280x720","1280x595",NA,NA,0,"BIQ (Charlotte)",2,"DECFBGAHJI","","study_2 (video_feedback and feedback_list_2)","VF_1st","Spreadsheet1",1,"BIQ","Screen 3","iz3the",3,"response","4",3216.097,5415.772,5432.19700000001,3216.097,5415.772,5432.19700000001,1,3216.097,2216.10000000001,0,NA,"Rating Scale","Rating Scale",9,"object-60","BIQ",NA,"SUPPRF01065"
"111",13,1692015059377,"14/08/2023 12:10:59",1692018659377,1,"14/08/2023 14:10:59",140743,17,"questionnaire-uu2n",NA,31175504,NA,"complete",NA,"64da2331d1c99ce54caf7f00","computer","Desktop or Laptop","Windows 10","Chrome 115.0.0.0","1280x720","1280x595",NA,NA,0,"BIQ (Charlotte)",2,"DECFBGAHJI","","study_2 (video_feedback and feedback_list_2)","VF_1st","Spreadsheet1",1,"BIQ","Screen 3","iz3the",3,"response","4",3782.72100000001,5415.772,5432.19700000001,3782.72100000001,5415.772,5432.19700000001,1,3782.72100000001,1649.476,0,NA,"Rating Scale","Rating Scale",16,"object-67","BIQ",NA,"SUPPRF01065"
"112",14,1692015059380,"14/08/2023 12:10:59",1692018659380,1,"14/08/2023 14:10:59",140743,17,"questionnaire-uu2n",NA,31175504,NA,"complete",NA,"64da2331d1c99ce54caf7f00","computer","Desktop or Laptop","Windows 10","Chrome 115.0.0.0","1280x720","1280x595",NA,NA,0,"BIQ (Charlotte)",2,"DECFBGAHJI","","study_2 (video_feedback and feedback_list_2)","VF_1st","Spreadsheet1",NA,"","","",NA,"5","END",NA,NA,NA,NA,NA,NA,0,NA,NA,NA,NA,"","",NA,"","",NA,"SUPPRF01065"
"113",1,1692015680866,"14/08/2023 12:21:20",1692019280866,1,"14/08/2023 14:21:20",140743,17,"questionnaire-uu2n",NA,31175722,NA,"complete",NA,"64da2735ae3e62b81bdf7946","computer","Desktop or Laptop","Windows 10","Chrome 115.0.0.0","1280x720","1280x603",NA,NA,0,"BIQ (Charlotte)",2,"HIGJFAEBDC","","study_2 (video_feedback and feedback_list_2)","VF_1st","Spreadsheet1",NA,"","","",NA,"5","BEGIN",NA,NA,NA,NA,NA,NA,0,NA,NA,NA,NA,"","",NA,"","",NA,"SUPPRF05791"
"114",2,1692015711406,"14/08/2023 12:21:51",1692019311406,1,"14/08/2023 14:21:51",140743,17,"questionnaire-uu2n",NA,31175722,NA,"complete",NA,"64da2735ae3e62b81bdf7946","computer","Desktop or Laptop","Windows 10","Chrome 115.0.0.0","1280x720","1280x603",NA,NA,0,"BIQ (Charlotte)",2,"HIGJFAEBDC","","study_2 (video_feedback and feedback_list_2)","VF_1st","Spreadsheet1",1,"BIQ","Screen 1","9dh6eq",1,"continue","",30571.458,30554.71,30571.458,30571.458,30554.71,30571.458,1,30571.458,0,0,NA,"Click To Continue","Continue Button",23,"object-48","BIQ",NA,"SUPPRF05791"
"115",3,1692015711408,"14/08/2023 12:21:51",1692019311408,1,"14/08/2023 14:21:51",140743,17,"questionnaire-uu2n",NA,31175722,NA,"complete",NA,"64da2735ae3e62b81bdf7946","computer","Desktop or Laptop","Windows 10","Chrome 115.0.0.0","1280x720","1280x603",NA,NA,0,"BIQ (Charlotte)",2,"HIGJFAEBDC","","study_2 (video_feedback and feedback_list_2)","VF_1st","Spreadsheet1",1,"BIQ","Screen 1","9dh6eq",1,"response","7",7542.965,30554.71,30571.458,7542.965,30554.71,30571.458,1,7542.965,23028.493,0,NA,"Rating Scale","Rating Scale",3,"object-5","BIQ",NA,"SUPPRF05791"
"116",4,1692015711409,"14/08/2023 12:21:51",1692019311409,1,"14/08/2023 14:21:51",140743,17,"questionnaire-uu2n",NA,31175722,NA,"complete",NA,"64da2735ae3e62b81bdf7946","computer","Desktop or Laptop","Windows 10","Chrome 115.0.0.0","1280x720","1280x603",NA,NA,0,"BIQ (Charlotte)",2,"HIGJFAEBDC","","study_2 (video_feedback and feedback_list_2)","VF_1st","Spreadsheet1",1,"BIQ","Screen 1","9dh6eq",1,"response","5",11139.565,30554.71,30571.458,11139.565,30554.71,30571.458,1,11139.565,19431.893,0,NA,"Rating Scale","Rating Scale",10,"object-18","BIQ",NA,"SUPPRF05791"
"117",5,1692015711410,"14/08/2023 12:21:51",1692019311410,1,"14/08/2023 14:21:51",140743,17,"questionnaire-uu2n",NA,31175722,NA,"complete",NA,"64da2735ae3e62b81bdf7946","computer","Desktop or Laptop","Windows 10","Chrome 115.0.0.0","1280x720","1280x603",NA,NA,0,"BIQ (Charlotte)",2,"HIGJFAEBDC","","study_2 (video_feedback and feedback_list_2)","VF_1st","Spreadsheet1",1,"BIQ","Screen 1","9dh6eq",1,"response","2",29788.666,30554.71,30571.458,29788.666,30554.71,30571.458,1,29788.666,782.791999999998,0,NA,"Rating Scale","Rating Scale",17,"object-80","BIQ",NA,"SUPPRF05791"
"118",6,1692015731304,"14/08/2023 12:22:11",1692019331304,1,"14/08/2023 14:22:11",140743,17,"questionnaire-uu2n",NA,31175722,NA,"complete",NA,"64da2735ae3e62b81bdf7946","computer","Desktop or Laptop","Windows 10","Chrome 115.0.0.0","1280x720","1280x603",NA,NA,0,"BIQ (Charlotte)",2,"HIGJFAEBDC","","study_2 (video_feedback and feedback_list_2)","VF_1st","Spreadsheet1",1,"BIQ","Screen 2","o21mwi",2,"continue","",19914.666,19898.014,19914.666,19914.666,19898.014,19914.666,1,19914.666,0,0,NA,"Click To Continue","Continue Button",22,"object-50","BIQ",NA,"SUPPRF05791"
"119",7,1692015731312,"14/08/2023 12:22:11",1692019331312,1,"14/08/2023 14:22:11",140743,17,"questionnaire-uu2n",NA,31175722,NA,"complete",NA,"64da2735ae3e62b81bdf7946","computer","Desktop or Laptop","Windows 10","Chrome 115.0.0.0","1280x720","1280x603",NA,NA,0,"BIQ (Charlotte)",2,"HIGJFAEBDC","","study_2 (video_feedback and feedback_list_2)","VF_1st","Spreadsheet1",1,"BIQ","Screen 2","o21mwi",2,"response","7",4662.251,19898.014,19914.666,4662.251,19898.014,19914.666,1,4662.251,15252.415,0,NA,"Rating Scale","Rating Scale",2,"object-259","BIQ",NA,"SUPPRF05791"
"120",8,1692015731314,"14/08/2023 12:22:11",1692019331314,1,"14/08/2023 14:22:11",140743,17,"questionnaire-uu2n",NA,31175722,NA,"complete",NA,"64da2735ae3e62b81bdf7946","computer","Desktop or Laptop","Windows 10","Chrome 115.0.0.0","1280x720","1280x603",NA,NA,0,"BIQ (Charlotte)",2,"HIGJFAEBDC","","study_2 (video_feedback and feedback_list_2)","VF_1st","Spreadsheet1",1,"BIQ","Screen 2","o21mwi",2,"response","1",10023.913,19898.014,19914.666,10023.913,19898.014,19914.666,1,10023.913,9890.753,0,NA,"Rating Scale","Rating Scale",9,"object-36","BIQ",NA,"SUPPRF05791"
"121",9,1692015731317,"14/08/2023 12:22:11",1692019331317,1,"14/08/2023 14:22:11",140743,17,"questionnaire-uu2n",NA,31175722,NA,"complete",NA,"64da2735ae3e62b81bdf7946","computer","Desktop or Laptop","Windows 10","Chrome 115.0.0.0","1280x720","1280x603",NA,NA,0,"BIQ (Charlotte)",2,"HIGJFAEBDC","","study_2 (video_feedback and feedback_list_2)","VF_1st","Spreadsheet1",1,"BIQ","Screen 2","o21mwi",2,"response","1",17883.185,19898.014,19914.666,17883.185,19898.014,19914.666,1,17883.185,2031.48100000001,0,NA,"Rating Scale","Rating Scale",16,"object-86","BIQ",NA,"SUPPRF05791"
"122",10,1692015744024,"14/08/2023 12:22:24",1692019344024,1,"14/08/2023 14:22:24",140743,17,"questionnaire-uu2n",NA,31175722,NA,"complete",NA,"64da2735ae3e62b81bdf7946","computer","Desktop or Laptop","Windows 10","Chrome 115.0.0.0","1280x720","1280x603",NA,NA,0,"BIQ (Charlotte)",2,"HIGJFAEBDC","","study_2 (video_feedback and feedback_list_2)","VF_1st","Spreadsheet1",1,"BIQ","Screen 3","iz3the",3,"continue","",12736.653,12721.357,12736.653,12736.653,12721.357,12736.653,1,12736.653,0,0,NA,"Click To Continue","Continue Button",22,"object-73","BIQ",NA,"SUPPRF05791"
"123",11,1692015744031,"14/08/2023 12:22:24",1692019344031,1,"14/08/2023 14:22:24",140743,17,"questionnaire-uu2n",NA,31175722,NA,"complete",NA,"64da2735ae3e62b81bdf7946","computer","Desktop or Laptop","Windows 10","Chrome 115.0.0.0","1280x720","1280x603",NA,NA,0,"BIQ (Charlotte)",2,"HIGJFAEBDC","","study_2 (video_feedback and feedback_list_2)","VF_1st","Spreadsheet1",1,"BIQ","Screen 3","iz3the",3,"response","0",3563.411,12721.357,12738.058,3563.411,12721.357,12738.058,1,3563.411,9174.647,0,NA,"Rating Scale","Rating Scale",2,"object-53","BIQ",NA,"SUPPRF05791"
"124",12,1692015744032,"14/08/2023 12:22:24",1692019344032,1,"14/08/2023 14:22:24",140743,17,"questionnaire-uu2n",NA,31175722,NA,"complete",NA,"64da2735ae3e62b81bdf7946","computer","Desktop or Laptop","Windows 10","Chrome 115.0.0.0","1280x720","1280x603",NA,NA,0,"BIQ (Charlotte)",2,"HIGJFAEBDC","","study_2 (video_feedback and feedback_list_2)","VF_1st","Spreadsheet1",1,"BIQ","Screen 3","iz3the",3,"response","1",9141.256,12721.357,12738.058,9141.256,12721.357,12738.058,1,9141.256,3596.802,0,NA,"Rating Scale","Rating Scale",9,"object-60","BIQ",NA,"SUPPRF05791"
"125",13,1692015744034,"14/08/2023 12:22:24",1692019344034,1,"14/08/2023 14:22:24",140743,17,"questionnaire-uu2n",NA,31175722,NA,"complete",NA,"64da2735ae3e62b81bdf7946","computer","Desktop or Laptop","Windows 10","Chrome 115.0.0.0","1280x720","1280x603",NA,NA,0,"BIQ (Charlotte)",2,"HIGJFAEBDC","","study_2 (video_feedback and feedback_list_2)","VF_1st","Spreadsheet1",1,"BIQ","Screen 3","iz3the",3,"response","2",11539.035,12721.357,12738.058,11539.035,12721.357,12738.058,1,11539.035,1199.023,0,NA,"Rating Scale","Rating Scale",16,"object-67","BIQ",NA,"SUPPRF05791"
"126",14,1692015744048,"14/08/2023 12:22:24",1692019344048,1,"14/08/2023 14:22:24",140743,17,"questionnaire-uu2n",NA,31175722,NA,"complete",NA,"64da2735ae3e62b81bdf7946","computer","Desktop or Laptop","Windows 10","Chrome 115.0.0.0","1280x720","1280x603",NA,NA,0,"BIQ (Charlotte)",2,"HIGJFAEBDC","","study_2 (video_feedback and feedback_list_2)","VF_1st","Spreadsheet1",NA,"","","",NA,"5","END",NA,NA,NA,NA,NA,NA,0,NA,NA,NA,NA,"","",NA,"","",NA,"SUPPRF05791"
"127",1,1692026809861,"14/08/2023 15:26:49",1692030409861,1,"14/08/2023 17:26:49",140743,17,"questionnaire-uu2n",NA,31179946,NA,"complete",NA,"64da54ae60b9358d64ee4f59","computer","Desktop or Laptop","Windows 10","Chrome 115.0.0.0","1707x1067","852x900",NA,NA,0,"BIQ (Charlotte)",2,"BCADJEIFHG","","study_2 (video_feedback and feedback_list_2)","VF_1st","Spreadsheet1",NA,"","","",NA,"5","BEGIN",NA,NA,NA,NA,NA,NA,0,NA,NA,NA,NA,"","",NA,"","",NA,"SUPPRF59606"
"128",2,1692026841437,"14/08/2023 15:27:21",1692030441437,1,"14/08/2023 17:27:21",140743,17,"questionnaire-uu2n",NA,31179946,NA,"complete",NA,"64da54ae60b9358d64ee4f59","computer","Desktop or Laptop","Windows 10","Chrome 115.0.0.0","1707x1067","852x900",NA,NA,0,"BIQ (Charlotte)",2,"BCADJEIFHG","","study_2 (video_feedback and feedback_list_2)","VF_1st","Spreadsheet1",1,"BIQ","Screen 1","9dh6eq",1,"continue","",31584.607,31567.018,31584.607,31584.607,31567.018,31584.607,1,31584.607,0,0,NA,"Click To Continue","Continue Button",23,"object-48","BIQ",NA,"SUPPRF59606"
"129",3,1692026841440,"14/08/2023 15:27:21",1692030441440,1,"14/08/2023 17:27:21",140743,17,"questionnaire-uu2n",NA,31179946,NA,"complete",NA,"64da54ae60b9358d64ee4f59","computer","Desktop or Laptop","Windows 10","Chrome 115.0.0.0","1707x1067","852x900",NA,NA,0,"BIQ (Charlotte)",2,"BCADJEIFHG","","study_2 (video_feedback and feedback_list_2)","VF_1st","Spreadsheet1",1,"BIQ","Screen 1","9dh6eq",1,"response","7",8915.96,31567.018,31584.607,8915.96,31567.018,31584.607,1,8915.96,22668.647,0,NA,"Rating Scale","Rating Scale",3,"object-5","BIQ",NA,"SUPPRF59606"
"130",4,1692026841440,"14/08/2023 15:27:21",1692030441440,1,"14/08/2023 17:27:21",140743,17,"questionnaire-uu2n",NA,31179946,NA,"complete",NA,"64da54ae60b9358d64ee4f59","computer","Desktop or Laptop","Windows 10","Chrome 115.0.0.0","1707x1067","852x900",NA,NA,0,"BIQ (Charlotte)",2,"BCADJEIFHG","","study_2 (video_feedback and feedback_list_2)","VF_1st","Spreadsheet1",1,"BIQ","Screen 1","9dh6eq",1,"response","7",11216.142,31567.018,31584.607,11216.142,31567.018,31584.607,1,11216.142,20368.465,0,NA,"Rating Scale","Rating Scale",10,"object-18","BIQ",NA,"SUPPRF59606"
"131",5,1692026841441,"14/08/2023 15:27:21",1692030441441,1,"14/08/2023 17:27:21",140743,17,"questionnaire-uu2n",NA,31179946,NA,"complete",NA,"64da54ae60b9358d64ee4f59","computer","Desktop or Laptop","Windows 10","Chrome 115.0.0.0","1707x1067","852x900",NA,NA,0,"BIQ (Charlotte)",2,"BCADJEIFHG","","study_2 (video_feedback and feedback_list_2)","VF_1st","Spreadsheet1",1,"BIQ","Screen 1","9dh6eq",1,"response","2",28199.221,31567.018,31584.607,28199.221,31567.018,31584.607,1,28199.221,3385.386,0,NA,"Rating Scale","Rating Scale",17,"object-80","BIQ",NA,"SUPPRF59606"
"132",6,1692026857179,"14/08/2023 15:27:37",1692030457179,1,"14/08/2023 17:27:37",140743,17,"questionnaire-uu2n",NA,31179946,NA,"complete",NA,"64da54ae60b9358d64ee4f59","computer","Desktop or Laptop","Windows 10","Chrome 115.0.0.0","1707x1067","852x900",NA,NA,0,"BIQ (Charlotte)",2,"BCADJEIFHG","","study_2 (video_feedback and feedback_list_2)","VF_1st","Spreadsheet1",1,"BIQ","Screen 2","o21mwi",2,"continue","",15764.8780000238,15749.475,15764.8780000238,15764.8780000238,15749.475,15764.8780000238,1,15764.8780000238,0,0,NA,"Click To Continue","Continue Button",22,"object-50","BIQ",NA,"SUPPRF59606"
"133",7,1692026857182,"14/08/2023 15:27:37",1692030457182,1,"14/08/2023 17:27:37",140743,17,"questionnaire-uu2n",NA,31179946,NA,"complete",NA,"64da54ae60b9358d64ee4f59","computer","Desktop or Laptop","Windows 10","Chrome 115.0.0.0","1707x1067","852x900",NA,NA,0,"BIQ (Charlotte)",2,"BCADJEIFHG","","study_2 (video_feedback and feedback_list_2)","VF_1st","Spreadsheet1",1,"BIQ","Screen 2","o21mwi",2,"response","6",4015.471,15749.475,15766.916,4015.471,15749.475,15766.916,1,4015.471,11751.445,0,NA,"Rating Scale","Rating Scale",2,"object-259","BIQ",NA,"SUPPRF59606"
"134",8,1692026857183,"14/08/2023 15:27:37",1692030457183,1,"14/08/2023 17:27:37",140743,17,"questionnaire-uu2n",NA,31179946,NA,"complete",NA,"64da54ae60b9358d64ee4f59","computer","Desktop or Laptop","Windows 10","Chrome 115.0.0.0","1707x1067","852x900",NA,NA,0,"BIQ (Charlotte)",2,"BCADJEIFHG","","study_2 (video_feedback and feedback_list_2)","VF_1st","Spreadsheet1",1,"BIQ","Screen 2","o21mwi",2,"response","2",8881.932,15749.475,15766.916,8881.932,15749.475,15766.916,1,8881.932,6884.984,0,NA,"Rating Scale","Rating Scale",9,"object-36","BIQ",NA,"SUPPRF59606"
"135",9,1692026857185,"14/08/2023 15:27:37",1692030457185,1,"14/08/2023 17:27:37",140743,17,"questionnaire-uu2n",NA,31179946,NA,"complete",NA,"64da54ae60b9358d64ee4f59","computer","Desktop or Laptop","Windows 10","Chrome 115.0.0.0","1707x1067","852x900",NA,NA,0,"BIQ (Charlotte)",2,"BCADJEIFHG","","study_2 (video_feedback and feedback_list_2)","VF_1st","Spreadsheet1",1,"BIQ","Screen 2","o21mwi",2,"response","2",13198.7,15749.475,15766.916,13198.7,15749.475,15766.916,1,13198.7,2568.216,0,NA,"Rating Scale","Rating Scale",16,"object-86","BIQ",NA,"SUPPRF59606"
"136",10,1692026868634,"14/08/2023 15:27:48",1692030468634,1,"14/08/2023 17:27:48",140743,17,"questionnaire-uu2n",NA,31179946,NA,"complete",NA,"64da54ae60b9358d64ee4f59","computer","Desktop or Laptop","Windows 10","Chrome 115.0.0.0","1707x1067","852x900",NA,NA,0,"BIQ (Charlotte)",2,"BCADJEIFHG","","study_2 (video_feedback and feedback_list_2)","VF_1st","Spreadsheet1",1,"BIQ","Screen 3","iz3the",3,"continue","",11470.4030000238,11466.083,11470.4030000238,11470.4030000238,11466.083,11470.4030000238,1,11470.4030000238,0,0,NA,"Click To Continue","Continue Button",22,"object-73","BIQ",NA,"SUPPRF59606"
"137",11,1692026868637,"14/08/2023 15:27:48",1692030468637,1,"14/08/2023 17:27:48",140743,17,"questionnaire-uu2n",NA,31179946,NA,"complete",NA,"64da54ae60b9358d64ee4f59","computer","Desktop or Laptop","Windows 10","Chrome 115.0.0.0","1707x1067","852x900",NA,NA,0,"BIQ (Charlotte)",2,"BCADJEIFHG","","study_2 (video_feedback and feedback_list_2)","VF_1st","Spreadsheet1",1,"BIQ","Screen 3","iz3the",3,"response","2",4032.599,11466.083,11473.4030000238,4032.599,11466.083,11473.4030000238,1,4032.599,7440.80400002384,0,NA,"Rating Scale","Rating Scale",2,"object-53","BIQ",NA,"SUPPRF59606"
"138",12,1692026868638,"14/08/2023 15:27:48",1692030468638,1,"14/08/2023 17:27:48",140743,17,"questionnaire-uu2n",NA,31179946,NA,"complete",NA,"64da54ae60b9358d64ee4f59","computer","Desktop or Laptop","Windows 10","Chrome 115.0.0.0","1707x1067","852x900",NA,NA,0,"BIQ (Charlotte)",2,"BCADJEIFHG","","study_2 (video_feedback and feedback_list_2)","VF_1st","Spreadsheet1",1,"BIQ","Screen 3","iz3the",3,"response","2",5049.247,11466.083,11473.803,5049.247,11466.083,11473.803,1,5049.247,6424.556,0,NA,"Rating Scale","Rating Scale",9,"object-60","BIQ",NA,"SUPPRF59606"
"139",13,1692026868638,"14/08/2023 15:27:48",1692030468638,1,"14/08/2023 17:27:48",140743,17,"questionnaire-uu2n",NA,31179946,NA,"complete",NA,"64da54ae60b9358d64ee4f59","computer","Desktop or Laptop","Windows 10","Chrome 115.0.0.0","1707x1067","852x900",NA,NA,0,"BIQ (Charlotte)",2,"BCADJEIFHG","","study_2 (video_feedback and feedback_list_2)","VF_1st","Spreadsheet1",1,"BIQ","Screen 3","iz3the",3,"response","4",5699.23,11466.083,11474.4030000238,5699.23,11466.083,11474.4030000238,1,5699.23,5775.17300002384,0,NA,"Rating Scale","Rating Scale",16,"object-67","BIQ",NA,"SUPPRF59606"
"140",14,1692026868644,"14/08/2023 15:27:48",1692030468644,1,"14/08/2023 17:27:48",140743,17,"questionnaire-uu2n",NA,31179946,NA,"complete",NA,"64da54ae60b9358d64ee4f59","computer","Desktop or Laptop","Windows 10","Chrome 115.0.0.0","1707x1067","852x900",NA,NA,0,"BIQ (Charlotte)",2,"BCADJEIFHG","","study_2 (video_feedback and feedback_list_2)","VF_1st","Spreadsheet1",NA,"","","",NA,"5","END",NA,NA,NA,NA,NA,NA,0,NA,NA,NA,NA,"","",NA,"","",NA,"SUPPRF59606"
"141",1,1692034331199,"14/08/2023 17:32:11",1692037931199,1,"14/08/2023 19:32:11",140743,17,"questionnaire-uu2n",NA,31182260,NA,"complete",NA,"64da722cd7dae2d981f16215","computer","Desktop or Laptop","Windows 10","Chrome 115.0.0.0","1536x864","1707x830",NA,NA,0,"BIQ (Charlotte)",2,"FGEHDICJBA","B (Feedback ranking_L1 First)","study_1 (JV and feedback_list_1)","","Spreadsheet1",NA,"","","",NA,"5","BEGIN",NA,NA,NA,NA,NA,NA,0,NA,NA,NA,NA,"","",NA,"","",NA,"SUPPRF02973"
"142",2,1692034358884,"14/08/2023 17:32:38",1692037958884,1,"14/08/2023 19:32:38",140743,17,"questionnaire-uu2n",NA,31182260,NA,"complete",NA,"64da722cd7dae2d981f16215","computer","Desktop or Laptop","Windows 10","Chrome 115.0.0.0","1536x864","1707x830",NA,NA,0,"BIQ (Charlotte)",2,"FGEHDICJBA","B (Feedback ranking_L1 First)","study_1 (JV and feedback_list_1)","","Spreadsheet1",1,"BIQ","Screen 1","9dh6eq",1,"continue","",27708.993999994,27692.575,27708.993999994,27708.993999994,27692.575,27708.993999994,1,27708.993999994,0,0,NA,"Click To Continue","Continue Button",23,"object-48","BIQ",NA,"SUPPRF02973"
"143",3,1692034358886,"14/08/2023 17:32:38",1692037958886,1,"14/08/2023 19:32:38",140743,17,"questionnaire-uu2n",NA,31182260,NA,"complete",NA,"64da722cd7dae2d981f16215","computer","Desktop or Laptop","Windows 10","Chrome 115.0.0.0","1536x864","1707x830",NA,NA,0,"BIQ (Charlotte)",2,"FGEHDICJBA","B (Feedback ranking_L1 First)","study_1 (JV and feedback_list_1)","","Spreadsheet1",1,"BIQ","Screen 1","9dh6eq",1,"response","7",12688.944,27692.575,27709.253,12688.944,27692.575,27709.253,1,12688.944,15020.309,0,NA,"Rating Scale","Rating Scale",3,"object-5","BIQ",NA,"SUPPRF02973"
"144",4,1692034358887,"14/08/2023 17:32:38",1692037958887,1,"14/08/2023 19:32:38",140743,17,"questionnaire-uu2n",NA,31182260,NA,"complete",NA,"64da722cd7dae2d981f16215","computer","Desktop or Laptop","Windows 10","Chrome 115.0.0.0","1536x864","1707x830",NA,NA,0,"BIQ (Charlotte)",2,"FGEHDICJBA","B (Feedback ranking_L1 First)","study_1 (JV and feedback_list_1)","","Spreadsheet1",1,"BIQ","Screen 1","9dh6eq",1,"response","1",17967.707,27692.575,27709.253,17967.707,27692.575,27709.253,1,17967.707,9741.546,0,NA,"Rating Scale","Rating Scale",10,"object-18","BIQ",NA,"SUPPRF02973"
"145",5,1692034358887,"14/08/2023 17:32:38",1692037958887,1,"14/08/2023 19:32:38",140743,17,"questionnaire-uu2n",NA,31182260,NA,"complete",NA,"64da722cd7dae2d981f16215","computer","Desktop or Laptop","Windows 10","Chrome 115.0.0.0","1536x864","1707x830",NA,NA,0,"BIQ (Charlotte)",2,"FGEHDICJBA","B (Feedback ranking_L1 First)","study_1 (JV and feedback_list_1)","","Spreadsheet1",1,"BIQ","Screen 1","9dh6eq",1,"response","5",26876.632,27692.575,27709.253,26876.632,27692.575,27709.253,1,26876.632,832.620999999999,0,NA,"Rating Scale","Rating Scale",17,"object-80","BIQ",NA,"SUPPRF02973"
"146",6,1692034377853,"14/08/2023 17:32:57",1692037977853,1,"14/08/2023 19:32:57",140743,17,"questionnaire-uu2n",NA,31182260,NA,"complete",NA,"64da722cd7dae2d981f16215","computer","Desktop or Laptop","Windows 10","Chrome 115.0.0.0","1536x864","1707x830",NA,NA,0,"BIQ (Charlotte)",2,"FGEHDICJBA","B (Feedback ranking_L1 First)","study_1 (JV and feedback_list_1)","","Spreadsheet1",1,"BIQ","Screen 2","o21mwi",2,"continue","",18986.1189999821,18983.837,18986.1189999821,18986.1189999821,18983.837,18986.1189999821,1,18986.1189999821,0,0,NA,"Click To Continue","Continue Button",22,"object-50","BIQ",NA,"SUPPRF02973"
"147",7,1692034377855,"14/08/2023 17:32:57",1692037977855,1,"14/08/2023 19:32:57",140743,17,"questionnaire-uu2n",NA,31182260,NA,"complete",NA,"64da722cd7dae2d981f16215","computer","Desktop or Laptop","Windows 10","Chrome 115.0.0.0","1536x864","1707x830",NA,NA,0,"BIQ (Charlotte)",2,"FGEHDICJBA","B (Feedback ranking_L1 First)","study_1 (JV and feedback_list_1)","","Spreadsheet1",1,"BIQ","Screen 2","o21mwi",2,"response","4",7093.833,18983.837,18988.319,7093.833,18983.837,18988.319,1,7093.833,11894.486,0,NA,"Rating Scale","Rating Scale",2,"object-259","BIQ",NA,"SUPPRF02973"
"148",8,1692034377856,"14/08/2023 17:32:57",1692037977856,1,"14/08/2023 19:32:57",140743,17,"questionnaire-uu2n",NA,31182260,NA,"complete",NA,"64da722cd7dae2d981f16215","computer","Desktop or Laptop","Windows 10","Chrome 115.0.0.0","1536x864","1707x830",NA,NA,0,"BIQ (Charlotte)",2,"FGEHDICJBA","B (Feedback ranking_L1 First)","study_1 (JV and feedback_list_1)","","Spreadsheet1",1,"BIQ","Screen 2","o21mwi",2,"response","4",11473.323,18983.837,18988.918999994,11473.323,18983.837,18988.918999994,1,11473.323,7515.59599999404,0,NA,"Rating Scale","Rating Scale",9,"object-36","BIQ",NA,"SUPPRF02973"
"149",9,1692034377856,"14/08/2023 17:32:57",1692037977856,1,"14/08/2023 19:32:57",140743,17,"questionnaire-uu2n",NA,31182260,NA,"complete",NA,"64da722cd7dae2d981f16215","computer","Desktop or Laptop","Windows 10","Chrome 115.0.0.0","1536x864","1707x830",NA,NA,0,"BIQ (Charlotte)",2,"FGEHDICJBA","B (Feedback ranking_L1 First)","study_1 (JV and feedback_list_1)","","Spreadsheet1",1,"BIQ","Screen 2","o21mwi",2,"response","8",18084.482,18983.837,18989.6189999821,18084.482,18983.837,18989.6189999821,1,18084.482,905.136999982118,0,NA,"Rating Scale","Rating Scale",16,"object-86","BIQ",NA,"SUPPRF02973"
"150",10,1692034391029,"14/08/2023 17:33:11",1692037991029,1,"14/08/2023 19:33:11",140743,17,"questionnaire-uu2n",NA,31182260,NA,"complete",NA,"64da722cd7dae2d981f16215","computer","Desktop or Laptop","Windows 10","Chrome 115.0.0.0","1536x864","1707x830",NA,NA,0,"BIQ (Charlotte)",2,"FGEHDICJBA","B (Feedback ranking_L1 First)","study_1 (JV and feedback_list_1)","","Spreadsheet1",1,"BIQ","Screen 3","iz3the",3,"continue","",13177.6819999881,13171.478,13177.6819999881,13177.6819999881,13171.478,13177.6819999881,1,13177.6819999881,0,0,NA,"Click To Continue","Continue Button",22,"object-73","BIQ",NA,"SUPPRF02973"
"151",11,1692034391031,"14/08/2023 17:33:11",1692037991031,1,"14/08/2023 19:33:11",140743,17,"questionnaire-uu2n",NA,31182260,NA,"complete",NA,"64da722cd7dae2d981f16215","computer","Desktop or Laptop","Windows 10","Chrome 115.0.0.0","1536x864","1707x830",NA,NA,0,"BIQ (Charlotte)",2,"FGEHDICJBA","B (Feedback ranking_L1 First)","study_1 (JV and feedback_list_1)","","Spreadsheet1",1,"BIQ","Screen 3","iz3the",3,"response","0",3663.411,13171.478,13179.982,3663.411,13171.478,13179.982,1,3663.411,9516.571,0,NA,"Rating Scale","Rating Scale",2,"object-53","BIQ",NA,"SUPPRF02973"
"152",12,1692034391032,"14/08/2023 17:33:11",1692037991032,1,"14/08/2023 19:33:11",140743,17,"questionnaire-uu2n",NA,31182260,NA,"complete",NA,"64da722cd7dae2d981f16215","computer","Desktop or Laptop","Windows 10","Chrome 115.0.0.0","1536x864","1707x830",NA,NA,0,"BIQ (Charlotte)",2,"FGEHDICJBA","B (Feedback ranking_L1 First)","study_1 (JV and feedback_list_1)","","Spreadsheet1",1,"BIQ","Screen 3","iz3the",3,"response","5",9541.51,13171.478,13180.581999994,9541.51,13171.478,13180.581999994,1,9541.51,3639.07199999404,0,NA,"Rating Scale","Rating Scale",9,"object-60","BIQ",NA,"SUPPRF02973"
"153",13,1692034391032,"14/08/2023 17:33:11",1692037991032,1,"14/08/2023 19:33:11",140743,17,"questionnaire-uu2n",NA,31182260,NA,"complete",NA,"64da722cd7dae2d981f16215","computer","Desktop or Laptop","Windows 10","Chrome 115.0.0.0","1536x864","1707x830",NA,NA,0,"BIQ (Charlotte)",2,"FGEHDICJBA","B (Feedback ranking_L1 First)","study_1 (JV and feedback_list_1)","","Spreadsheet1",1,"BIQ","Screen 3","iz3the",3,"response","4",12422.426,13171.478,13180.982,12422.426,13171.478,13180.982,1,12422.426,758.555999999997,0,NA,"Rating Scale","Rating Scale",16,"object-67","BIQ",NA,"SUPPRF02973"
"154",14,1692034391037,"14/08/2023 17:33:11",1692037991037,1,"14/08/2023 19:33:11",140743,17,"questionnaire-uu2n",NA,31182260,NA,"complete",NA,"64da722cd7dae2d981f16215","computer","Desktop or Laptop","Windows 10","Chrome 115.0.0.0","1536x864","1707x830",NA,NA,0,"BIQ (Charlotte)",2,"FGEHDICJBA","B (Feedback ranking_L1 First)","study_1 (JV and feedback_list_1)","","Spreadsheet1",NA,"","","",NA,"5","END",NA,NA,NA,NA,NA,NA,0,NA,NA,NA,NA,"","",NA,"","",NA,"SUPPRF02973"
"155",1,1692083717835,"15/08/2023 07:15:17",1692087317835,1,"15/08/2023 09:15:17",140743,17,"questionnaire-uu2n",NA,31186852,NA,"complete",NA,"64db3028111b0ff40205a905","computer","Desktop or Laptop","Mac OS 10.15.7","Chrome 114.0.0.0","1440x900","1440x690",NA,NA,0,"BIQ (Charlotte)",2,"GHFIEJDACB","","study_2 (video_feedback and feedback_list_2)","VF_1st","Spreadsheet1",NA,"","","",NA,"5","BEGIN",NA,NA,NA,NA,NA,NA,0,NA,NA,NA,NA,"","",NA,"","",NA,"SUPPRF66474"
"156",2,1692083887216,"15/08/2023 07:18:07",1692087487216,1,"15/08/2023 09:18:07",140743,17,"questionnaire-uu2n",NA,31186852,NA,"complete",NA,"64db3028111b0ff40205a905","computer","Desktop or Laptop","Mac OS 10.15.7","Chrome 114.0.0.0","1440x900","1440x690",NA,NA,0,"BIQ (Charlotte)",2,"GHFIEJDACB","","study_2 (video_feedback and feedback_list_2)","VF_1st","Spreadsheet1",1,"BIQ","Screen 1","9dh6eq",1,"continue","",169401.6,169390.359,169401.6,169401.6,169390.359,169401.6,1,169401.6,0,0,NA,"Click To Continue","Continue Button",23,"object-48","BIQ",NA,"SUPPRF66474"
"157",3,1692083887218,"15/08/2023 07:18:07",1692087487218,1,"15/08/2023 09:18:07",140743,17,"questionnaire-uu2n",NA,31186852,NA,"complete",NA,"64db3028111b0ff40205a905","computer","Desktop or Laptop","Mac OS 10.15.7","Chrome 114.0.0.0","1440x900","1440x690",NA,NA,0,"BIQ (Charlotte)",2,"GHFIEJDACB","","study_2 (video_feedback and feedback_list_2)","VF_1st","Spreadsheet1",1,"BIQ","Screen 1","9dh6eq",1,"response","4",157339.979,169390.359,169404.199999905,157339.979,169390.359,169404.199999905,1,157339.979,12064.2209999046,0,NA,"Rating Scale","Rating Scale",3,"object-5","BIQ",NA,"SUPPRF66474"
"158",4,1692083887218,"15/08/2023 07:18:07",1692087487218,1,"15/08/2023 09:18:07",140743,17,"questionnaire-uu2n",NA,31186852,NA,"complete",NA,"64db3028111b0ff40205a905","computer","Desktop or Laptop","Mac OS 10.15.7","Chrome 114.0.0.0","1440x900","1440x690",NA,NA,0,"BIQ (Charlotte)",2,"GHFIEJDACB","","study_2 (video_feedback and feedback_list_2)","VF_1st","Spreadsheet1",1,"BIQ","Screen 1","9dh6eq",1,"response","4",164023.045,169390.359,169404.499999857,164023.045,169390.359,169404.499999857,1,164023.045,5381.45499985694,0,NA,"Rating Scale","Rating Scale",10,"object-18","BIQ",NA,"SUPPRF66474"
"159",5,1692083887218,"15/08/2023 07:18:07",1692087487218,1,"15/08/2023 09:18:07",140743,17,"questionnaire-uu2n",NA,31186852,NA,"complete",NA,"64db3028111b0ff40205a905","computer","Desktop or Laptop","Mac OS 10.15.7","Chrome 114.0.0.0","1440x900","1440x690",NA,NA,0,"BIQ (Charlotte)",2,"GHFIEJDACB","","study_2 (video_feedback and feedback_list_2)","VF_1st","Spreadsheet1",1,"BIQ","Screen 1","9dh6eq",1,"response","2",168890.379,169390.359,169404.699999905,168890.379,169390.359,169404.699999905,1,168890.379,514.320999904623,0,NA,"Rating Scale","Rating Scale",17,"object-80","BIQ",NA,"SUPPRF66474"
"160",6,1692083907730,"15/08/2023 07:18:27",1692087507730,1,"15/08/2023 09:18:27",140743,17,"questionnaire-uu2n",NA,31186852,NA,"complete",NA,"64db3028111b0ff40205a905","computer","Desktop or Laptop","Mac OS 10.15.7","Chrome 114.0.0.0","1440x900","1440x690",NA,NA,0,"BIQ (Charlotte)",2,"GHFIEJDACB","","study_2 (video_feedback and feedback_list_2)","VF_1st","Spreadsheet1",1,"BIQ","Screen 2","o21mwi",2,"continue","",20526.5409999523,20517.508,20526.5409999523,20526.5409999523,20517.508,20526.5409999523,1,20526.5409999523,0,0,NA,"Click To Continue","Continue Button",22,"object-50","BIQ",NA,"SUPPRF66474"
"161",7,1692083907732,"15/08/2023 07:18:27",1692087507732,1,"15/08/2023 09:18:27",140743,17,"questionnaire-uu2n",NA,31186852,NA,"complete",NA,"64db3028111b0ff40205a905","computer","Desktop or Laptop","Mac OS 10.15.7","Chrome 114.0.0.0","1440x900","1440x690",NA,NA,0,"BIQ (Charlotte)",2,"GHFIEJDACB","","study_2 (video_feedback and feedback_list_2)","VF_1st","Spreadsheet1",1,"BIQ","Screen 2","o21mwi",2,"response","7",6866.39200000002,20517.508,20529.5409999523,6866.39200000002,20517.508,20529.5409999523,1,6866.39200000002,13663.1489999523,0,NA,"Rating Scale","Rating Scale",2,"object-259","BIQ",NA,"SUPPRF66474"
"162",8,1692083907733,"15/08/2023 07:18:27",1692087507733,1,"15/08/2023 09:18:27",140743,17,"questionnaire-uu2n",NA,31186852,NA,"complete",NA,"64db3028111b0ff40205a905","computer","Desktop or Laptop","Mac OS 10.15.7","Chrome 114.0.0.0","1440x900","1440x690",NA,NA,0,"BIQ (Charlotte)",2,"GHFIEJDACB","","study_2 (video_feedback and feedback_list_2)","VF_1st","Spreadsheet1",1,"BIQ","Screen 2","o21mwi",2,"response","4",9117.12,20517.508,20529.9409998093,9117.12,20517.508,20529.9409998093,1,9117.12,11412.8209998093,0,NA,"Rating Scale","Rating Scale",9,"object-36","BIQ",NA,"SUPPRF66474"
"163",9,1692083907733,"15/08/2023 07:18:27",1692087507733,1,"15/08/2023 09:18:27",140743,17,"questionnaire-uu2n",NA,31186852,NA,"complete",NA,"64db3028111b0ff40205a905","computer","Desktop or Laptop","Mac OS 10.15.7","Chrome 114.0.0.0","1440x900","1440x690",NA,NA,0,"BIQ (Charlotte)",2,"GHFIEJDACB","","study_2 (video_feedback and feedback_list_2)","VF_1st","Spreadsheet1",1,"BIQ","Screen 2","o21mwi",2,"response","0",19634.21,20517.508,20530.140999857,19634.21,20517.508,20530.140999857,1,19634.21,895.930999856937,0,NA,"Rating Scale","Rating Scale",16,"object-86","BIQ",NA,"SUPPRF66474"
"164",10,1692083920615,"15/08/2023 07:18:40",1692087520615,1,"15/08/2023 09:18:40",140743,17,"questionnaire-uu2n",NA,31186852,NA,"complete",NA,"64db3028111b0ff40205a905","computer","Desktop or Laptop","Mac OS 10.15.7","Chrome 114.0.0.0","1440x900","1440x690",NA,NA,0,"BIQ (Charlotte)",2,"GHFIEJDACB","","study_2 (video_feedback and feedback_list_2)","VF_1st","Spreadsheet1",1,"BIQ","Screen 3","iz3the",3,"continue","",12895.233,12883.629,12895.233,12895.233,12883.629,12895.233,1,12895.233,0,0,NA,"Click To Continue","Continue Button",22,"object-73","BIQ",NA,"SUPPRF66474"
"165",11,1692083920618,"15/08/2023 07:18:40",1692087520618,1,"15/08/2023 09:18:40",140743,17,"questionnaire-uu2n",NA,31186852,NA,"complete",NA,"64db3028111b0ff40205a905","computer","Desktop or Laptop","Mac OS 10.15.7","Chrome 114.0.0.0","1440x900","1440x690",NA,NA,0,"BIQ (Charlotte)",2,"GHFIEJDACB","","study_2 (video_feedback and feedback_list_2)","VF_1st","Spreadsheet1",1,"BIQ","Screen 3","iz3the",3,"response","0",4716.478,12883.629,12897.632999857,4716.478,12883.629,12897.632999857,1,4716.478,8181.15499985695,0,NA,"Rating Scale","Rating Scale",2,"object-53","BIQ",NA,"SUPPRF66474"
"166",12,1692083920618,"15/08/2023 07:18:40",1692087520618,1,"15/08/2023 09:18:40",140743,17,"questionnaire-uu2n",NA,31186852,NA,"complete",NA,"64db3028111b0ff40205a905","computer","Desktop or Laptop","Mac OS 10.15.7","Chrome 114.0.0.0","1440x900","1440x690",NA,NA,0,"BIQ (Charlotte)",2,"GHFIEJDACB","","study_2 (video_feedback and feedback_list_2)","VF_1st","Spreadsheet1",1,"BIQ","Screen 3","iz3the",3,"response","0",8550.46900000001,12883.629,12898.0329999523,8550.46900000001,12883.629,12898.0329999523,1,8550.46900000001,4347.56399995231,0,NA,"Rating Scale","Rating Scale",9,"object-60","BIQ",NA,"SUPPRF66474"
"167",13,1692083920618,"15/08/2023 07:18:40",1692087520618,1,"15/08/2023 09:18:40",140743,17,"questionnaire-uu2n",NA,31186852,NA,"complete",NA,"64db3028111b0ff40205a905","computer","Desktop or Laptop","Mac OS 10.15.7","Chrome 114.0.0.0","1440x900","1440x690",NA,NA,0,"BIQ (Charlotte)",2,"GHFIEJDACB","","study_2 (video_feedback and feedback_list_2)","VF_1st","Spreadsheet1",1,"BIQ","Screen 3","iz3the",3,"response","2",12166.991,12883.629,12898.4329998093,12166.991,12883.629,12898.4329998093,1,12166.991,731.441999809264,0,NA,"Rating Scale","Rating Scale",16,"object-67","BIQ",NA,"SUPPRF66474"
"168",14,1692083920623,"15/08/2023 07:18:40",1692087520623,1,"15/08/2023 09:18:40",140743,17,"questionnaire-uu2n",NA,31186852,NA,"complete",NA,"64db3028111b0ff40205a905","computer","Desktop or Laptop","Mac OS 10.15.7","Chrome 114.0.0.0","1440x900","1440x690",NA,NA,0,"BIQ (Charlotte)",2,"GHFIEJDACB","","study_2 (video_feedback and feedback_list_2)","VF_1st","Spreadsheet1",NA,"","","",NA,"5","END",NA,NA,NA,NA,NA,NA,0,NA,NA,NA,NA,"","",NA,"","",NA,"SUPPRF66474"
"169",1,1692086979168,"15/08/2023 08:09:39",1692090579168,1,"15/08/2023 10:09:39",140743,17,"questionnaire-uu2n",NA,31187457,NA,"complete",NA,"64db3ff30b0051af402a25df","computer","Desktop or Laptop","Mac OS 10.15.7","Chrome 115.0.0.0","1440x900","1440x696",NA,NA,0,"BIQ (Charlotte)",2,"HIGJFAEBDC","A (JV first)","study_1 (JV and feedback_list_1)","","Spreadsheet1",NA,"","","",NA,"5","BEGIN",NA,NA,NA,NA,NA,NA,0,NA,NA,NA,NA,"","",NA,"","",NA,"SUPPRF09311"
"170",2,1692087011486,"15/08/2023 08:10:11",1692090611486,1,"15/08/2023 10:10:11",140743,17,"questionnaire-uu2n",NA,31187457,NA,"complete",NA,"64db3ff30b0051af402a25df","computer","Desktop or Laptop","Mac OS 10.15.7","Chrome 115.0.0.0","1440x900","1440x696",NA,NA,0,"BIQ (Charlotte)",2,"HIGJFAEBDC","A (JV first)","study_1 (JV and feedback_list_1)","","Spreadsheet1",1,"BIQ","Screen 1","9dh6eq",1,"continue","",32330.185000003,32317.328,32330.185000003,32330.185000003,32317.328,32330.185000003,1,32330.185000003,0,0,NA,"Click To Continue","Continue Button",23,"object-48","BIQ",NA,"SUPPRF09311"
"171",3,1692087011488,"15/08/2023 08:10:11",1692090611488,1,"15/08/2023 10:10:11",140743,17,"questionnaire-uu2n",NA,31187457,NA,"complete",NA,"64db3ff30b0051af402a25df","computer","Desktop or Laptop","Mac OS 10.15.7","Chrome 115.0.0.0","1440x900","1440x696",NA,NA,0,"BIQ (Charlotte)",2,"HIGJFAEBDC","A (JV first)","study_1 (JV and feedback_list_1)","","Spreadsheet1",1,"BIQ","Screen 1","9dh6eq",1,"response","5",19883.859,32317.328,32333.284999997,19883.859,32317.328,32333.284999997,1,19883.859,12449.425999997,0,NA,"Rating Scale","Rating Scale",3,"object-5","BIQ",NA,"SUPPRF09311"
"172",4,1692087011489,"15/08/2023 08:10:11",1692090611489,1,"15/08/2023 10:10:11",140743,17,"questionnaire-uu2n",NA,31187457,NA,"complete",NA,"64db3ff30b0051af402a25df","computer","Desktop or Laptop","Mac OS 10.15.7","Chrome 115.0.0.0","1440x900","1440x696",NA,NA,0,"BIQ (Charlotte)",2,"HIGJFAEBDC","A (JV first)","study_1 (JV and feedback_list_1)","","Spreadsheet1",1,"BIQ","Screen 1","9dh6eq",1,"response","2",27867.506,32317.328,32333.685000003,27867.506,32317.328,32333.685000003,1,27867.506,4466.17900000298,0,NA,"Rating Scale","Rating Scale",10,"object-18","BIQ",NA,"SUPPRF09311"
"173",5,1692087011489,"15/08/2023 08:10:11",1692090611489,1,"15/08/2023 10:10:11",140743,17,"questionnaire-uu2n",NA,31187457,NA,"complete",NA,"64db3ff30b0051af402a25df","computer","Desktop or Laptop","Mac OS 10.15.7","Chrome 115.0.0.0","1440x900","1440x696",NA,NA,0,"BIQ (Charlotte)",2,"HIGJFAEBDC","A (JV first)","study_1 (JV and feedback_list_1)","","Spreadsheet1",1,"BIQ","Screen 1","9dh6eq",1,"response","2",30617.396,32317.328,32333.985,30617.396,32317.328,32333.985,1,30617.396,1716.589,0,NA,"Rating Scale","Rating Scale",17,"object-80","BIQ",NA,"SUPPRF09311"
"174",6,1692087037014,"15/08/2023 08:10:37",1692090637014,1,"15/08/2023 10:10:37",140743,17,"questionnaire-uu2n",NA,31187457,NA,"complete",NA,"64db3ff30b0051af402a25df","computer","Desktop or Laptop","Mac OS 10.15.7","Chrome 115.0.0.0","1440x900","1440x696",NA,NA,0,"BIQ (Charlotte)",2,"HIGJFAEBDC","A (JV first)","study_1 (JV and feedback_list_1)","","Spreadsheet1",1,"BIQ","Screen 2","o21mwi",2,"continue","",25542.456999997,25534.215,25542.456999997,25542.456999997,25534.215,25542.456999997,1,25542.456999997,0,0,NA,"Click To Continue","Continue Button",22,"object-50","BIQ",NA,"SUPPRF09311"
"175",7,1692087037018,"15/08/2023 08:10:37",1692090637018,1,"15/08/2023 10:10:37",140743,17,"questionnaire-uu2n",NA,31187457,NA,"complete",NA,"64db3ff30b0051af402a25df","computer","Desktop or Laptop","Mac OS 10.15.7","Chrome 115.0.0.0","1440x900","1440x696",NA,NA,0,"BIQ (Charlotte)",2,"HIGJFAEBDC","A (JV first)","study_1 (JV and feedback_list_1)","","Spreadsheet1",1,"BIQ","Screen 2","o21mwi",2,"response","3",4900.407,25534.215,25546.157,4900.407,25534.215,25546.157,1,4900.407,20645.75,0,NA,"Rating Scale","Rating Scale",2,"object-259","BIQ",NA,"SUPPRF09311"
"176",8,1692087037018,"15/08/2023 08:10:37",1692090637018,1,"15/08/2023 10:10:37",140743,17,"questionnaire-uu2n",NA,31187457,NA,"complete",NA,"64db3ff30b0051af402a25df","computer","Desktop or Laptop","Mac OS 10.15.7","Chrome 115.0.0.0","1440x900","1440x696",NA,NA,0,"BIQ (Charlotte)",2,"HIGJFAEBDC","A (JV first)","study_1 (JV and feedback_list_1)","","Spreadsheet1",1,"BIQ","Screen 2","o21mwi",2,"response","5",9383.561,25534.215,25546.756999994,9383.561,25534.215,25546.756999994,1,9383.561,16163.195999994,0,NA,"Rating Scale","Rating Scale",9,"object-36","BIQ",NA,"SUPPRF09311"
"177",9,1692087037018,"15/08/2023 08:10:37",1692090637018,1,"15/08/2023 10:10:37",140743,17,"questionnaire-uu2n",NA,31187457,NA,"complete",NA,"64db3ff30b0051af402a25df","computer","Desktop or Laptop","Mac OS 10.15.7","Chrome 115.0.0.0","1440x900","1440x696",NA,NA,0,"BIQ (Charlotte)",2,"HIGJFAEBDC","A (JV first)","study_1 (JV and feedback_list_1)","","Spreadsheet1",1,"BIQ","Screen 2","o21mwi",2,"response","6",20183.731,25534.215,25547.157,20183.731,25534.215,25547.157,1,20183.731,5363.426,0,NA,"Rating Scale","Rating Scale",16,"object-86","BIQ",NA,"SUPPRF09311"
"178",10,1692087055114,"15/08/2023 08:10:55",1692090655114,1,"15/08/2023 10:10:55",140743,17,"questionnaire-uu2n",NA,31187457,NA,"complete",NA,"64db3ff30b0051af402a25df","computer","Desktop or Laptop","Mac OS 10.15.7","Chrome 115.0.0.0","1440x900","1440x696",NA,NA,0,"BIQ (Charlotte)",2,"HIGJFAEBDC","A (JV first)","study_1 (JV and feedback_list_1)","","Spreadsheet1",1,"BIQ","Screen 3","iz3the",3,"continue","",18108.8419999911,18100.508,18108.8419999911,18108.8419999911,18100.508,18108.8419999911,1,18108.8419999911,0,0,NA,"Click To Continue","Continue Button",22,"object-73","BIQ",NA,"SUPPRF09311"
