"Event.Index","UTC.Timestamp","UTC.Date.and.Time","Local.Timestamp","Local.Timezone","Local.Date.and.Time","Experiment.ID","Experiment.Version","Tree.Node.Key","Repeat.Key","Schedule.ID","Participant.Private.ID","Participant.Starting.Group","Participant.Status","Participant.Completion.Code","Participant.External.Session.ID","Participant.Device.Type","Participant.Device","Participant.OS","Participant.Browser","Participant.Monitor.Size","Participant.Viewport.Size","Checkpoint","Room.ID","Room.Order","Task.Name","Task.Version","order.ot79","randomiser.lqqr","randomiser.28m8","randomiser.tf5j","Spreadsheet","Trial.Number","Display","Screen","Screen.ID","Screen.Counter","Response.Type","Response","Onset.Time","Clock.Time","Reaction.Time","Absolute.Onset.Time","Absolute.Clock.Time","Absolute.Reaction.Time","Correct","Response.Onset","Response.Duration","Proportion","Tag","Component.Name","Object.Name","Object.Number","Object.ID","Spreadsheet..display","Manipulation..Spreadsheet","Random_ID"
"1",1692005748859,"14/08/2023 09:35:48",1692009348859,1,"14/08/2023 11:35:48",140743,17,"task-oyxw",NA,31172487,9241773,NA,"complete",NA,"64da000bb77c30175cda1703","computer","Desktop or Laptop","Mac OS 10.15.7","Safari 16.6","810x1080","1080x707",NA,NA,0,"Pre-Video Feedback Task (Clone)",6,"DECFBGAHJI",NA,"study_2 (video_feedback and feedback_list_2)","VF_1st","Spreadsheet1",NA,"","","",NA,"5","BEGIN",NA,NA,NA,NA,NA,NA,0,NA,NA,NA,NA,"","",NA,"","",NA,"SUPPRF20908"
"2",1692005754403,"14/08/2023 09:35:54",1692009354403,1,"14/08/2023 11:35:54",140743,17,"task-oyxw",NA,31172487,9241773,NA,"complete",NA,"64da000bb77c30175cda1703","computer","Desktop or Laptop","Mac OS 10.15.7","Safari 16.6","810x1080","1080x707",NA,NA,0,"Pre-Video Feedback Task (Clone)",6,"DECFBGAHJI",NA,"study_2 (video_feedback and feedback_list_2)","VF_1st","Spreadsheet1",1,"Instructions","Screen 1","by7fw4",1,"continue","",5540,5524,5540,5540,5524,5540,1,5540,0,0,NA,"Click To Continue","Continue Button",2,"object-15","Instructions",NA,"SUPPRF20908"
"3",1692005756133,"14/08/2023 09:35:56",1692009356133,1,"14/08/2023 11:35:56",140743,17,"task-oyxw",NA,31172487,9241773,NA,"complete",NA,"64da000bb77c30175cda1703","computer","Desktop or Laptop","Mac OS 10.15.7","Safari 16.6","810x1080","1080x707",NA,NA,0,"Pre-Video Feedback Task (Clone)",6,"DECFBGAHJI",NA,"study_2 (video_feedback and feedback_list_2)","VF_1st","Spreadsheet1",1,"Instructions","Screen 2","32ryug",2,"continue","",1750,1733,1750,1750,1733,1750,1,1750,0,0,NA,"Click To Continue","Continue Button",2,"object-18","Instructions",NA,"SUPPRF20908"
"4",1692005761381,"14/08/2023 09:36:01",1692009361381,1,"14/08/2023 11:36:01",140743,17,"task-oyxw",NA,31172487,9241773,NA,"complete",NA,"64da000bb77c30175cda1703","computer","Desktop or Laptop","Mac OS 10.15.7","Safari 16.6","810x1080","1080x707",NA,NA,0,"Pre-Video Feedback Task (Clone)",6,"DECFBGAHJI",NA,"study_2 (video_feedback and feedback_list_2)","VF_1st","Spreadsheet1",1,"Instructions","Screen 6","qfz25j",3,"continue","",5266,5249,5266,5266,5249,5266,1,5266,0,0,NA,"Click To Continue","Continue Button",2,"object-44","Instructions",NA,"SUPPRF20908"
"5",1692005764796,"14/08/2023 09:36:04",1692009364796,1,"14/08/2023 11:36:04",140743,17,"task-oyxw",NA,31172487,9241773,NA,"complete",NA,"64da000bb77c30175cda1703","computer","Desktop or Laptop","Mac OS 10.15.7","Safari 16.6","810x1080","1080x707",NA,NA,0,"Pre-Video Feedback Task (Clone)",6,"DECFBGAHJI",NA,"study_2 (video_feedback and feedback_list_2)","VF_1st","Spreadsheet1",1,"Instructions","Screen 3","oiajeu",4,"continue","",3432,3415,3432,3432,3415,3432,1,3432,0,0,NA,"Click To Continue","Continue Button",2,"object-21","Instructions",NA,"SUPPRF20908"
"6",1692005772494,"14/08/2023 09:36:12",1692009372494,1,"14/08/2023 11:36:12",140743,17,"task-oyxw",NA,31172487,9241773,NA,"complete",NA,"64da000bb77c30175cda1703","computer","Desktop or Laptop","Mac OS 10.15.7","Safari 16.6","810x1080","1080x707",NA,NA,0,"Pre-Video Feedback Task (Clone)",6,"DECFBGAHJI",NA,"study_2 (video_feedback and feedback_list_2)","VF_1st","Spreadsheet1",1,"Instructions","Screen 4","x6yf73",5,"continue","",7713,7697,7713,7713,7697,7713,1,7713,0,0,NA,"Click To Continue","Continue Button",2,"object-24","Instructions",NA,"SUPPRF20908"
"7",1692005773760,"14/08/2023 09:36:13",1692009373760,1,"14/08/2023 11:36:13",140743,17,"task-oyxw",NA,31172487,9241773,NA,"complete",NA,"64da000bb77c30175cda1703","computer","Desktop or Laptop","Mac OS 10.15.7","Safari 16.6","810x1080","1080x707",NA,NA,0,"Pre-Video Feedback Task (Clone)",6,"DECFBGAHJI",NA,"study_2 (video_feedback and feedback_list_2)","VF_1st","Spreadsheet1",1,"Instructions","Screen 7","rb1b6r",6,"continue","",1284,1267,1284,1284,1267,1284,1,1284,0,0,NA,"Click To Continue","Continue Button",2,"object-49","Instructions",NA,"SUPPRF20908"
"8",1692005855605,"14/08/2023 09:37:35",1692009455605,1,"14/08/2023 11:37:35",140743,17,"task-oyxw",NA,31172487,9241773,NA,"complete",NA,"64da000bb77c30175cda1703","computer","Desktop or Laptop","Mac OS 10.15.7","Safari 16.6","810x1080","1080x707",NA,NA,0,"Pre-Video Feedback Task (Clone)",6,"DECFBGAHJI",NA,"study_2 (video_feedback and feedback_list_2)","VF_1st","Spreadsheet1",1,"Practice run","Screen 1","ncwxmk",1,"continue","",81856,81840,81856,81856,81840,81856,1,81856,0,0,NA,"Click To Continue","Continue Button",2,"object-29","Practice run",NA,"SUPPRF20908"
"9",1692005867462,"14/08/2023 09:37:47",1692009467462,1,"14/08/2023 11:37:47",140743,17,"task-oyxw",NA,31172487,9241773,NA,"complete",NA,"64da000bb77c30175cda1703","computer","Desktop or Laptop","Mac OS 10.15.7","Safari 16.6","810x1080","1080x314",NA,NA,0,"Pre-Video Feedback Task (Clone)",6,"DECFBGAHJI",NA,"study_2 (video_feedback and feedback_list_2)","VF_1st","Spreadsheet1",1,"Practice run","Screen 1","ncwxmk",1,"continue","",93720,93703,93720,93720,93703,93720,1,93720,0,0,NA,"Click To Continue","Continue Button",2,"object-29","Practice run",NA,"SUPPRF20908"
"10",1692005869726,"14/08/2023 09:37:49",1692009469726,1,"14/08/2023 11:37:49",140743,17,"task-oyxw",NA,31172487,9241773,NA,"complete",NA,"64da000bb77c30175cda1703","computer","Desktop or Laptop","Mac OS 10.15.7","Safari 16.6","810x1080","1080x707",NA,NA,0,"Pre-Video Feedback Task (Clone)",6,"DECFBGAHJI",NA,"study_2 (video_feedback and feedback_list_2)","VF_1st","Spreadsheet1",1,"Practice run","Screen 1","ncwxmk",1,"continue","",95986,95969,95986,95986,95969,95986,1,95986,0,0,NA,"Click To Continue","Continue Button",2,"object-29","Practice run",NA,"SUPPRF20908"
"11",1692005869728,"14/08/2023 09:37:49",1692009469728,1,"14/08/2023 11:37:49",140743,17,"task-oyxw",NA,31172487,9241773,NA,"complete",NA,"64da000bb77c30175cda1703","computer","Desktop or Laptop","Mac OS 10.15.7","Safari 16.6","810x1080","1080x707",NA,NA,0,"Pre-Video Feedback Task (Clone)",6,"DECFBGAHJI",NA,"study_2 (video_feedback and feedback_list_2)","VF_1st","Spreadsheet1",1,"Practice run","Screen 1","ncwxmk",1,"response","You did okay when describing what the children were doing.",95052,95969,95986,95052,95969,95986,1,95052,934,0,NA,"Text Entry","Text Entry",5,"object-38","Practice run",NA,"SUPPRF20908"
"12",1692005869729,"14/08/2023 09:37:49",1692009469729,1,"14/08/2023 11:37:49",140743,17,"task-oyxw",NA,31172487,9241773,NA,"complete",NA,"64da000bb77c30175cda1703","computer","Desktop or Laptop","Mac OS 10.15.7","Safari 16.6","810x1080","1080x707",NA,NA,0,"Pre-Video Feedback Task (Clone)",6,"DECFBGAHJI",NA,"study_2 (video_feedback and feedback_list_2)","VF_1st","Spreadsheet1",1,"Practice run","Screen 1","ncwxmk",1,"response","You gave a vague description of what was in the classroom.",26913,95969,95986,26913,95969,95986,1,26913,69073,0,NA,"Text Entry","Text Entry",6,"object-40","Practice run",NA,"SUPPRF20908"
"13",1692005869733,"14/08/2023 09:37:49",1692009469733,1,"14/08/2023 11:37:49",140743,17,"task-oyxw",NA,31172487,9241773,NA,"complete",NA,"64da000bb77c30175cda1703","computer","Desktop or Laptop","Mac OS 10.15.7","Safari 16.6","810x1080","1080x707",NA,NA,0,"Pre-Video Feedback Task (Clone)",6,"DECFBGAHJI",NA,"study_2 (video_feedback and feedback_list_2)","VF_1st","Spreadsheet1",NA,"","","",NA,"5","END",NA,NA,NA,NA,NA,NA,0,NA,NA,NA,NA,"","",NA,"","",NA,"SUPPRF20908"
"1",1692006421059,"14/08/2023 09:47:01",1692010021059,1,"14/08/2023 11:47:01",140743,17,"task-oyxw",NA,31172711,9241820,NA,"complete",NA,"64da01617f4e2f7acbe39dd7","computer","Desktop or Laptop","Windows 10","Chrome 115.0.0.0","1536x864","1536x747",NA,NA,0,"Pre-Video Feedback Task (Clone)",6,"GHFIEJDACB",NA,"study_2 (video_feedback and feedback_list_2)","VF_1st","Spreadsheet1",NA,"","","",NA,"5","BEGIN",NA,NA,NA,NA,NA,NA,0,NA,NA,NA,NA,"","",NA,"","",NA,"SUPPRF56705"
"2",1692006425692,"14/08/2023 09:47:05",1692010025692,1,"14/08/2023 11:47:05",140743,17,"task-oyxw",NA,31172711,9241820,NA,"complete",NA,"64da01617f4e2f7acbe39dd7","computer","Desktop or Laptop","Windows 10","Chrome 115.0.0.0","1536x864","1536x747",NA,NA,0,"Pre-Video Feedback Task (Clone)",6,"GHFIEJDACB",NA,"study_2 (video_feedback and feedback_list_2)","VF_1st","Spreadsheet1",1,"Instructions","Screen 1","by7fw4",1,"continue","",4652.89100002384,4647.835,4652.89100002384,4652.89100002384,4647.835,4652.89100002384,1,4652.89100002384,0,0,NA,"Click To Continue","Continue Button",2,"object-15","Instructions",NA,"SUPPRF56705"
"3",1692006426918,"14/08/2023 09:47:06",1692010026918,1,"14/08/2023 11:47:06",140743,17,"task-oyxw",NA,31172711,9241820,NA,"complete",NA,"64da01617f4e2f7acbe39dd7","computer","Desktop or Laptop","Windows 10","Chrome 115.0.0.0","1536x864","1536x747",NA,NA,0,"Pre-Video Feedback Task (Clone)",6,"GHFIEJDACB",NA,"study_2 (video_feedback and feedback_list_2)","VF_1st","Spreadsheet1",1,"Instructions","Screen 2","32ryug",2,"continue","",1232.15600001788,1216.122,1232.15600001788,1232.15600001788,1216.122,1232.15600001788,1,1232.15600001788,0,0,NA,"Click To Continue","Continue Button",2,"object-18","Instructions",NA,"SUPPRF56705"
"4",1692006430094,"14/08/2023 09:47:10",1692010030094,1,"14/08/2023 11:47:10",140743,17,"task-oyxw",NA,31172711,9241820,NA,"complete",NA,"64da01617f4e2f7acbe39dd7","computer","Desktop or Laptop","Windows 10","Chrome 115.0.0.0","1536x864","1536x747",NA,NA,0,"Pre-Video Feedback Task (Clone)",6,"GHFIEJDACB",NA,"study_2 (video_feedback and feedback_list_2)","VF_1st","Spreadsheet1",1,"Instructions","Screen 6","qfz25j",3,"continue","",3191.334,3182.047,3191.334,3191.334,3182.047,3191.334,1,3191.334,0,0,NA,"Click To Continue","Continue Button",2,"object-44","Instructions",NA,"SUPPRF56705"
"5",1692006432198,"14/08/2023 09:47:12",1692010032198,1,"14/08/2023 11:47:12",140743,17,"task-oyxw",NA,31172711,9241820,NA,"complete",NA,"64da01617f4e2f7acbe39dd7","computer","Desktop or Laptop","Windows 10","Chrome 115.0.0.0","1536x864","1536x747",NA,NA,0,"Pre-Video Feedback Task (Clone)",6,"GHFIEJDACB",NA,"study_2 (video_feedback and feedback_list_2)","VF_1st","Spreadsheet1",1,"Instructions","Screen 3","oiajeu",4,"continue","",2113.18700000596,2098.866,2113.18700000596,2113.18700000596,2098.866,2113.18700000596,1,2113.18700000596,0,0,NA,"Click To Continue","Continue Button",2,"object-21","Instructions",NA,"SUPPRF56705"
"6",1692006438072,"14/08/2023 09:47:18",1692010038072,1,"14/08/2023 11:47:18",140743,17,"task-oyxw",NA,31172711,9241820,NA,"complete",NA,"64da01617f4e2f7acbe39dd7","computer","Desktop or Laptop","Windows 10","Chrome 115.0.0.0","1536x864","1536x747",NA,NA,0,"Pre-Video Feedback Task (Clone)",6,"GHFIEJDACB",NA,"study_2 (video_feedback and feedback_list_2)","VF_1st","Spreadsheet1",1,"Instructions","Screen 4","x6yf73",5,"continue","",5888.32100000596,5880.808,5888.32100000596,5888.32100000596,5880.808,5888.32100000596,1,5888.32100000596,0,0,NA,"Click To Continue","Continue Button",2,"object-24","Instructions",NA,"SUPPRF56705"
"7",1692006439110,"14/08/2023 09:47:19",1692010039110,1,"14/08/2023 11:47:19",140743,17,"task-oyxw",NA,31172711,9241820,NA,"complete",NA,"64da01617f4e2f7acbe39dd7","computer","Desktop or Laptop","Windows 10","Chrome 115.0.0.0","1536x864","1536x747",NA,NA,0,"Pre-Video Feedback Task (Clone)",6,"GHFIEJDACB",NA,"study_2 (video_feedback and feedback_list_2)","VF_1st","Spreadsheet1",1,"Instructions","Screen 7","rb1b6r",6,"continue","",1045.21300002384,1032.834,1045.21300002384,1045.21300002384,1032.834,1045.21300002384,1,1045.21300002384,0,0,NA,"Click To Continue","Continue Button",2,"object-49","Instructions",NA,"SUPPRF56705"
"8",1692006485126,"14/08/2023 09:48:05",1692010085126,1,"14/08/2023 11:48:05",140743,17,"task-oyxw",NA,31172711,9241820,NA,"complete",NA,"64da01617f4e2f7acbe39dd7","computer","Desktop or Laptop","Windows 10","Chrome 115.0.0.0","1536x864","1536x747",NA,NA,0,"Pre-Video Feedback Task (Clone)",6,"GHFIEJDACB",NA,"study_2 (video_feedback and feedback_list_2)","VF_1st","Spreadsheet1",1,"Practice run","Screen 1","ncwxmk",1,"continue","",46025.4790000179,46012.278,46025.4790000179,46025.4790000179,46012.278,46025.4790000179,1,46025.4790000179,0,0,NA,"Click To Continue","Continue Button",2,"object-29","Practice run",NA,"SUPPRF56705"
"9",1692006485129,"14/08/2023 09:48:05",1692010085129,1,"14/08/2023 11:48:05",140743,17,"task-oyxw",NA,31172711,9241820,NA,"complete",NA,"64da01617f4e2f7acbe39dd7","computer","Desktop or Laptop","Windows 10","Chrome 115.0.0.0","1536x864","1536x747",NA,NA,0,"Pre-Video Feedback Task (Clone)",6,"GHFIEJDACB",NA,"study_2 (video_feedback and feedback_list_2)","VF_1st","Spreadsheet1",1,"Practice run","Screen 1","ncwxmk",1,"response","You described the scene",6480.361,46012.278,46028.9,6480.361,46012.278,46028.9,1,6480.361,39548.539,0,NA,"Text Entry","Text Entry",5,"object-38","Practice run",NA,"SUPPRF56705"
"10",1692006485129,"14/08/2023 09:48:05",1692010085129,1,"14/08/2023 11:48:05",140743,17,"task-oyxw",NA,31172711,9241820,NA,"complete",NA,"64da01617f4e2f7acbe39dd7","computer","Desktop or Laptop","Windows 10","Chrome 115.0.0.0","1536x864","1536x747",NA,NA,0,"Pre-Video Feedback Task (Clone)",6,"GHFIEJDACB",NA,"study_2 (video_feedback and feedback_list_2)","VF_1st","Spreadsheet1",1,"Practice run","Screen 1","ncwxmk",1,"response","You did ok",23072.81,46012.278,46028.9,23072.81,46012.278,46028.9,1,23072.81,22956.09,0,NA,"Text Entry","Text Entry",6,"object-40","Practice run",NA,"SUPPRF56705"
"11",1692006485131,"14/08/2023 09:48:05",1692010085131,1,"14/08/2023 11:48:05",140743,17,"task-oyxw",NA,31172711,9241820,NA,"complete",NA,"64da01617f4e2f7acbe39dd7","computer","Desktop or Laptop","Windows 10","Chrome 115.0.0.0","1536x864","1536x747",NA,NA,0,"Pre-Video Feedback Task (Clone)",6,"GHFIEJDACB",NA,"study_2 (video_feedback and feedback_list_2)","VF_1st","Spreadsheet1",NA,"","","",NA,"5","END",NA,NA,NA,NA,NA,NA,0,NA,NA,NA,NA,"","",NA,"","",NA,"SUPPRF56705"
"1",1692015229643,"14/08/2023 12:13:49",1692018829643,1,"14/08/2023 14:13:49",140743,17,"task-oyxw",NA,31175582,9242421,NA,"complete",NA,"64da2331d1c99ce54caf7f00","computer","Desktop or Laptop","Windows 10","Chrome 115.0.0.0","1280x720","1280x595",NA,NA,0,"Pre-Video Feedback Task (Clone)",6,"DECFBGAHJI",NA,"study_2 (video_feedback and feedback_list_2)","VF_1st","Spreadsheet1",NA,"","","",NA,"5","BEGIN",NA,NA,NA,NA,NA,NA,0,NA,NA,NA,NA,"","",NA,"","",NA,"SUPPRF01065"
"2",1692015237942,"14/08/2023 12:13:57",1692018837942,1,"14/08/2023 14:13:57",140743,17,"task-oyxw",NA,31175582,9242421,NA,"complete",NA,"64da2331d1c99ce54caf7f00","computer","Desktop or Laptop","Windows 10","Chrome 115.0.0.0","1280x720","1280x595",NA,NA,0,"Pre-Video Feedback Task (Clone)",6,"DECFBGAHJI",NA,"study_2 (video_feedback and feedback_list_2)","VF_1st","Spreadsheet1",1,"Instructions","Screen 1","by7fw4",1,"continue","",8297.92,8281.586,8297.92,8297.92,8281.586,8297.92,1,8297.92,0,0,NA,"Click To Continue","Continue Button",2,"object-15","Instructions",NA,"SUPPRF01065"
"3",1692015239222,"14/08/2023 12:13:59",1692018839222,1,"14/08/2023 14:13:59",140743,17,"task-oyxw",NA,31175582,9242421,NA,"complete",NA,"64da2331d1c99ce54caf7f00","computer","Desktop or Laptop","Windows 10","Chrome 115.0.0.0","1280x720","1280x595",NA,NA,0,"Pre-Video Feedback Task (Clone)",6,"DECFBGAHJI",NA,"study_2 (video_feedback and feedback_list_2)","VF_1st","Spreadsheet1",1,"Instructions","Screen 2","32ryug",2,"continue","",1306.10199995232,1300.134,1306.10199995232,1306.10199995232,1300.134,1306.10199995232,1,1306.10199995232,0,0,NA,"Click To Continue","Continue Button",2,"object-18","Instructions",NA,"SUPPRF01065"
"4",1692015242835,"14/08/2023 12:14:02",1692018842835,1,"14/08/2023 14:14:02",140743,17,"task-oyxw",NA,31175582,9242421,NA,"complete",NA,"64da2331d1c99ce54caf7f00","computer","Desktop or Laptop","Windows 10","Chrome 115.0.0.0","1280x720","1280x595",NA,NA,0,"Pre-Video Feedback Task (Clone)",6,"DECFBGAHJI",NA,"study_2 (video_feedback and feedback_list_2)","VF_1st","Spreadsheet1",1,"Instructions","Screen 6","qfz25j",3,"continue","",3618.76800002384,3615.923,3618.76800002384,3618.76800002384,3615.923,3618.76800002384,1,3618.76800002384,0,0,NA,"Click To Continue","Continue Button",2,"object-44","Instructions",NA,"SUPPRF01065"
"5",1692015246267,"14/08/2023 12:14:06",1692018846267,1,"14/08/2023 14:14:06",140743,17,"task-oyxw",NA,31175582,9242421,NA,"complete",NA,"64da2331d1c99ce54caf7f00","computer","Desktop or Laptop","Windows 10","Chrome 115.0.0.0","1280x720","1280x595",NA,NA,0,"Pre-Video Feedback Task (Clone)",6,"DECFBGAHJI",NA,"study_2 (video_feedback and feedback_list_2)","VF_1st","Spreadsheet1",1,"Instructions","Screen 3","oiajeu",4,"continue","",3433.643,3416.566,3433.643,3433.643,3416.566,3433.643,1,3433.643,0,0,NA,"Click To Continue","Continue Button",2,"object-21","Instructions",NA,"SUPPRF01065"
"6",1692015251706,"14/08/2023 12:14:11",1692018851706,1,"14/08/2023 14:14:11",140743,17,"task-oyxw",NA,31175582,9242421,NA,"complete",NA,"64da2331d1c99ce54caf7f00","computer","Desktop or Laptop","Windows 10","Chrome 115.0.0.0","1280x720","1280x595",NA,NA,0,"Pre-Video Feedback Task (Clone)",6,"DECFBGAHJI",NA,"study_2 (video_feedback and feedback_list_2)","VF_1st","Spreadsheet1",1,"Instructions","Screen 4","x6yf73",5,"continue","",5457.97899995232,5449.149,5457.97899995232,5457.97899995232,5449.149,5457.97899995232,1,5457.97899995232,0,0,NA,"Click To Continue","Continue Button",2,"object-24","Instructions",NA,"SUPPRF01065"
"7",1692015259961,"14/08/2023 12:14:19",1692018859961,1,"14/08/2023 14:14:19",140743,17,"task-oyxw",NA,31175582,9242421,NA,"complete",NA,"64da2331d1c99ce54caf7f00","computer","Desktop or Laptop","Windows 10","Chrome 115.0.0.0","1280x720","1280x595",NA,NA,0,"Pre-Video Feedback Task (Clone)",6,"DECFBGAHJI",NA,"study_2 (video_feedback and feedback_list_2)","VF_1st","Spreadsheet1",1,"Instructions","Screen 7","rb1b6r",6,"continue","",8263.72999992847,8248.661,8263.72999992847,8263.72999992847,8248.661,8263.72999992847,1,8263.72999992847,0,0,NA,"Click To Continue","Continue Button",2,"object-49","Instructions",NA,"SUPPRF01065"
"8",1692015316609,"14/08/2023 12:15:16",1692018916609,1,"14/08/2023 14:15:16",140743,17,"task-oyxw",NA,31175582,9242421,NA,"complete",NA,"64da2331d1c99ce54caf7f00","computer","Desktop or Laptop","Windows 10","Chrome 115.0.0.0","1280x720","1280x595",NA,NA,0,"Pre-Video Feedback Task (Clone)",6,"DECFBGAHJI",NA,"study_2 (video_feedback and feedback_list_2)","VF_1st","Spreadsheet1",1,"Practice run","Screen 1","ncwxmk",1,"continue","",56653.369,56642.766,56653.369,56653.369,56642.766,56653.369,1,56653.369,0,0,NA,"Click To Continue","Continue Button",2,"object-29","Practice run",NA,"SUPPRF01065"
"9",1692015321223,"14/08/2023 12:15:21",1692018921223,1,"14/08/2023 14:15:21",140743,17,"task-oyxw",NA,31175582,9242421,NA,"complete",NA,"64da2331d1c99ce54caf7f00","computer","Desktop or Laptop","Windows 10","Chrome 115.0.0.0","1280x720","1280x595",NA,NA,0,"Pre-Video Feedback Task (Clone)",6,"DECFBGAHJI",NA,"study_2 (video_feedback and feedback_list_2)","VF_1st","Spreadsheet1",1,"Practice run","Screen 1","ncwxmk",1,"continue","",61275.22,61258.845,61275.22,61275.22,61258.845,61275.22,1,61275.22,0,0,NA,"Click To Continue","Continue Button",2,"object-29","Practice run",NA,"SUPPRF01065"
"10",1692015321224,"14/08/2023 12:15:21",1692018921224,1,"14/08/2023 14:15:21",140743,17,"task-oyxw",NA,31175582,9242421,NA,"complete",NA,"64da2331d1c99ce54caf7f00","computer","Desktop or Laptop","Windows 10","Chrome 115.0.0.0","1280x720","1280x595",NA,NA,0,"Pre-Video Feedback Task (Clone)",6,"DECFBGAHJI",NA,"study_2 (video_feedback and feedback_list_2)","VF_1st","Spreadsheet1",1,"Practice run","Screen 1","ncwxmk",1,"response","you kept calm
",25413.738,61258.845,61275.22,25413.738,61258.845,61275.22,1,25413.738,35861.482,0,NA,"Text Entry","Text Entry",5,"object-38","Practice run",NA,"SUPPRF01065"
"11",1692015321225,"14/08/2023 12:15:21",1692018921225,1,"14/08/2023 14:15:21",140743,17,"task-oyxw",NA,31175582,9242421,NA,"complete",NA,"64da2331d1c99ce54caf7f00","computer","Desktop or Laptop","Windows 10","Chrome 115.0.0.0","1280x720","1280x595",NA,NA,0,"Pre-Video Feedback Task (Clone)",6,"DECFBGAHJI",NA,"study_2 (video_feedback and feedback_list_2)","VF_1st","Spreadsheet1",1,"Practice run","Screen 1","ncwxmk",1,"response","you looked fine",56642.766,61258.845,61275.22,56642.766,61258.845,61275.22,1,56642.766,4632.454,0,NA,"Text Entry","Text Entry",6,"object-40","Practice run",NA,"SUPPRF01065"
"12",1692015321237,"14/08/2023 12:15:21",1692018921237,1,"14/08/2023 14:15:21",140743,17,"task-oyxw",NA,31175582,9242421,NA,"complete",NA,"64da2331d1c99ce54caf7f00","computer","Desktop or Laptop","Windows 10","Chrome 115.0.0.0","1280x720","1280x595",NA,NA,0,"Pre-Video Feedback Task (Clone)",6,"DECFBGAHJI",NA,"study_2 (video_feedback and feedback_list_2)","VF_1st","Spreadsheet1",NA,"","","",NA,"5","END",NA,NA,NA,NA,NA,NA,0,NA,NA,NA,NA,"","",NA,"","",NA,"SUPPRF01065"
"1",1692016019097,"14/08/2023 12:26:59",1692019619097,1,"14/08/2023 14:26:59",140743,17,"task-oyxw",NA,31175839,9242502,NA,"complete",NA,"64da2735ae3e62b81bdf7946","computer","Desktop or Laptop","Windows 10","Chrome 115.0.0.0","1280x720","1280x603",NA,NA,0,"Pre-Video Feedback Task (Clone)",6,"HIGJFAEBDC",NA,"study_2 (video_feedback and feedback_list_2)","VF_1st","Spreadsheet1",NA,"","","",NA,"5","BEGIN",NA,NA,NA,NA,NA,NA,0,NA,NA,NA,NA,"","",NA,"","",NA,"SUPPRF05791"
"2",1692016092721,"14/08/2023 12:28:12",1692019692721,1,"14/08/2023 14:28:12",140743,17,"task-oyxw",NA,31175839,9242502,NA,"complete",NA,"64da2735ae3e62b81bdf7946","computer","Desktop or Laptop","Windows 10","Chrome 115.0.0.0","1280x720","1280x603",NA,NA,0,"Pre-Video Feedback Task (Clone)",6,"HIGJFAEBDC",NA,"study_2 (video_feedback and feedback_list_2)","VF_1st","Spreadsheet1",1,"Instructions","Screen 1","by7fw4",1,"continue","",73637.0730000119,73630.833,73637.0730000119,73637.0730000119,73630.833,73637.0730000119,1,73637.0730000119,0,0,NA,"Click To Continue","Continue Button",2,"object-15","Instructions",NA,"SUPPRF05791"
"3",1692016093704,"14/08/2023 12:28:13",1692019693704,1,"14/08/2023 14:28:13",140743,17,"task-oyxw",NA,31175839,9242502,NA,"complete",NA,"64da2735ae3e62b81bdf7946","computer","Desktop or Laptop","Windows 10","Chrome 115.0.0.0","1280x720","1280x603",NA,NA,0,"Pre-Video Feedback Task (Clone)",6,"HIGJFAEBDC",NA,"study_2 (video_feedback and feedback_list_2)","VF_1st","Spreadsheet1",1,"Instructions","Screen 2","32ryug",2,"continue","",990.139999988081,982.433000000005,990.139999988081,990.139999988081,982.433000000005,990.139999988081,1,990.139999988081,0,0,NA,"Click To Continue","Continue Button",2,"object-18","Instructions",NA,"SUPPRF05791"
"4",1692016099246,"14/08/2023 12:28:19",1692019699246,1,"14/08/2023 14:28:19",140743,17,"task-oyxw",NA,31175839,9242502,NA,"complete",NA,"64da2735ae3e62b81bdf7946","computer","Desktop or Laptop","Windows 10","Chrome 115.0.0.0","1280x720","1280x603",NA,NA,0,"Pre-Video Feedback Task (Clone)",6,"HIGJFAEBDC",NA,"study_2 (video_feedback and feedback_list_2)","VF_1st","Spreadsheet1",1,"Instructions","Screen 6","qfz25j",3,"continue","",5550.20699998808,5544.69499999999,5550.20699998808,5550.20699998808,5544.69499999999,5550.20699998808,1,5550.20699998808,0,0,NA,"Click To Continue","Continue Button",2,"object-44","Instructions",NA,"SUPPRF05791"
"5",1692016102620,"14/08/2023 12:28:22",1692019702620,1,"14/08/2023 14:28:22",140743,17,"task-oyxw",NA,31175839,9242502,NA,"complete",NA,"64da2735ae3e62b81bdf7946","computer","Desktop or Laptop","Windows 10","Chrome 115.0.0.0","1280x720","1280x603",NA,NA,0,"Pre-Video Feedback Task (Clone)",6,"HIGJFAEBDC",NA,"study_2 (video_feedback and feedback_list_2)","VF_1st","Spreadsheet1",1,"Instructions","Screen 3","oiajeu",4,"continue","",3378.91199996424,3363.49100000001,3378.91199996424,3378.91199996424,3363.49100000001,3378.91199996424,1,3378.91199996424,0,0,NA,"Click To Continue","Continue Button",2,"object-21","Instructions",NA,"SUPPRF05791"
"6",1692016107279,"14/08/2023 12:28:27",1692019707279,1,"14/08/2023 14:28:27",140743,17,"task-oyxw",NA,31175839,9242502,NA,"complete",NA,"64da2735ae3e62b81bdf7946","computer","Desktop or Laptop","Windows 10","Chrome 115.0.0.0","1280x720","1280x603",NA,NA,0,"Pre-Video Feedback Task (Clone)",6,"HIGJFAEBDC",NA,"study_2 (video_feedback and feedback_list_2)","VF_1st","Spreadsheet1",1,"Instructions","Screen 4","x6yf73",5,"continue","",4674.92099996423,4662.391,4674.92099996423,4674.92099996423,4662.391,4674.92099996423,1,4674.92099996423,0,0,NA,"Click To Continue","Continue Button",2,"object-24","Instructions",NA,"SUPPRF05791"
"7",1692016108086,"14/08/2023 12:28:28",1692019708086,1,"14/08/2023 14:28:28",140743,17,"task-oyxw",NA,31175839,9242502,NA,"complete",NA,"64da2735ae3e62b81bdf7946","computer","Desktop or Laptop","Windows 10","Chrome 115.0.0.0","1280x720","1280x603",NA,NA,0,"Pre-Video Feedback Task (Clone)",6,"HIGJFAEBDC",NA,"study_2 (video_feedback and feedback_list_2)","VF_1st","Spreadsheet1",1,"Instructions","Screen 7","rb1b6r",6,"continue","",818.52999996423,815.84199999999,818.52999996423,818.52999996423,815.84199999999,818.52999996423,1,818.52999996423,0,0,NA,"Click To Continue","Continue Button",2,"object-49","Instructions",NA,"SUPPRF05791"
"8",1692016172003,"14/08/2023 12:29:32",1692019772003,1,"14/08/2023 14:29:32",140743,17,"task-oyxw",NA,31175839,9242502,NA,"complete",NA,"64da2735ae3e62b81bdf7946","computer","Desktop or Laptop","Windows 10","Chrome 115.0.0.0","1280x720","1280x603",NA,NA,0,"Pre-Video Feedback Task (Clone)",6,"HIGJFAEBDC",NA,"study_2 (video_feedback and feedback_list_2)","VF_1st","Spreadsheet1",1,"Practice run","Screen 1","ncwxmk",1,"continue","",63909.9879999762,63906.722,63909.9879999762,63909.9879999762,63906.722,63909.9879999762,1,63909.9879999762,0,0,NA,"Click To Continue","Continue Button",2,"object-29","Practice run",NA,"SUPPRF05791"
"9",1692016172008,"14/08/2023 12:29:32",1692019772008,1,"14/08/2023 14:29:32",140743,17,"task-oyxw",NA,31175839,9242502,NA,"complete",NA,"64da2735ae3e62b81bdf7946","computer","Desktop or Laptop","Windows 10","Chrome 115.0.0.0","1280x720","1280x603",NA,NA,0,"Pre-Video Feedback Task (Clone)",6,"HIGJFAEBDC",NA,"study_2 (video_feedback and feedback_list_2)","VF_1st","Spreadsheet1",1,"Practice run","Screen 1","ncwxmk",1,"response","The person is fidgeting with their hands.",16101.486,63906.722,63923.444,16101.486,63906.722,63923.444,1,16101.486,47821.958,0,NA,"Text Entry","Text Entry",5,"object-38","Practice run",NA,"SUPPRF05791"
"10",1692016172009,"14/08/2023 12:29:32",1692019772009,1,"14/08/2023 14:29:32",140743,17,"task-oyxw",NA,31175839,9242502,NA,"complete",NA,"64da2735ae3e62b81bdf7946","computer","Desktop or Laptop","Windows 10","Chrome 115.0.0.0","1280x720","1280x603",NA,NA,0,"Pre-Video Feedback Task (Clone)",6,"HIGJFAEBDC",NA,"study_2 (video_feedback and feedback_list_2)","VF_1st","Spreadsheet1",1,"Practice run","Screen 1","ncwxmk",1,"response","The person is focussing on the screen.",30754.449,63906.722,63923.444,30754.449,63906.722,63923.444,1,30754.449,33168.995,0,NA,"Text Entry","Text Entry",6,"object-40","Practice run",NA,"SUPPRF05791"
"11",1692016172012,"14/08/2023 12:29:32",1692019772012,1,"14/08/2023 14:29:32",140743,17,"task-oyxw",NA,31175839,9242502,NA,"complete",NA,"64da2735ae3e62b81bdf7946","computer","Desktop or Laptop","Windows 10","Chrome 115.0.0.0","1280x720","1280x603",NA,NA,0,"Pre-Video Feedback Task (Clone)",6,"HIGJFAEBDC",NA,"study_2 (video_feedback and feedback_list_2)","VF_1st","Spreadsheet1",NA,"","","",NA,"5","END",NA,NA,NA,NA,NA,NA,0,NA,NA,NA,NA,"","",NA,"","",NA,"SUPPRF05791"
"1",1692084671473,"15/08/2023 07:31:11",1692088271473,1,"15/08/2023 09:31:11",140743,17,"task-oyxw",NA,31187025,9247022,NA,"complete",NA,"64db3028111b0ff40205a905","computer","Desktop or Laptop","Mac OS 10.15.7","Chrome 114.0.0.0","1440x900","1440x690",NA,NA,0,"Pre-Video Feedback Task (Clone)",6,"GHFIEJDACB",NA,"study_2 (video_feedback and feedback_list_2)","VF_1st","Spreadsheet1",NA,"","","",NA,"5","BEGIN",NA,NA,NA,NA,NA,NA,0,NA,NA,NA,NA,"","",NA,"","",NA,"SUPPRF66474"
"2",1692084675953,"15/08/2023 07:31:15",1692088275953,1,"15/08/2023 09:31:15",140743,17,"task-oyxw",NA,31187025,9247022,NA,"complete",NA,"64db3028111b0ff40205a905","computer","Desktop or Laptop","Mac OS 10.15.7","Chrome 114.0.0.0","1440x900","1440x690",NA,NA,0,"Pre-Video Feedback Task (Clone)",6,"GHFIEJDACB",NA,"study_2 (video_feedback and feedback_list_2)","VF_1st","Spreadsheet1",1,"Instructions","Screen 1","by7fw4",1,"continue","",4493.224,4483.878,4493.224,4493.224,4483.878,4493.224,1,4493.224,0,0,NA,"Click To Continue","Continue Button",2,"object-15","Instructions",NA,"SUPPRF66474"
"3",1692084678287,"15/08/2023 07:31:18",1692088278287,1,"15/08/2023 09:31:18",140743,17,"task-oyxw",NA,31187025,9247022,NA,"complete",NA,"64db3028111b0ff40205a905","computer","Desktop or Laptop","Mac OS 10.15.7","Chrome 114.0.0.0","1440x900","1440x690",NA,NA,0,"Pre-Video Feedback Task (Clone)",6,"GHFIEJDACB",NA,"study_2 (video_feedback and feedback_list_2)","VF_1st","Spreadsheet1",1,"Instructions","Screen 2","32ryug",2,"continue","",2343.846,2333.24,2343.846,2343.846,2333.24,2343.846,1,2343.846,0,0,NA,"Click To Continue","Continue Button",2,"object-18","Instructions",NA,"SUPPRF66474"
"4",1692084683203,"15/08/2023 07:31:23",1692088283203,1,"15/08/2023 09:31:23",140743,17,"task-oyxw",NA,31187025,9247022,NA,"complete",NA,"64db3028111b0ff40205a905","computer","Desktop or Laptop","Mac OS 10.15.7","Chrome 114.0.0.0","1440x900","1440x690",NA,NA,0,"Pre-Video Feedback Task (Clone)",6,"GHFIEJDACB",NA,"study_2 (video_feedback and feedback_list_2)","VF_1st","Spreadsheet1",1,"Instructions","Screen 6","qfz25j",3,"continue","",4926.70599990463,4916.47,4926.70599990463,4926.70599990463,4916.47,4926.70599990463,1,4926.70599990463,0,0,NA,"Click To Continue","Continue Button",2,"object-44","Instructions",NA,"SUPPRF66474"
"5",1692084688055,"15/08/2023 07:31:28",1692088288055,1,"15/08/2023 09:31:28",140743,17,"task-oyxw",NA,31187025,9247022,NA,"complete",NA,"64db3028111b0ff40205a905","computer","Desktop or Laptop","Mac OS 10.15.7","Chrome 114.0.0.0","1440x900","1440x690",NA,NA,0,"Pre-Video Feedback Task (Clone)",6,"GHFIEJDACB",NA,"study_2 (video_feedback and feedback_list_2)","VF_1st","Spreadsheet1",1,"Instructions","Screen 3","oiajeu",4,"continue","",4862.03600009537,4849.806,4862.03600009537,4862.03600009537,4849.806,4862.03600009537,1,4862.03600009537,0,0,NA,"Click To Continue","Continue Button",2,"object-21","Instructions",NA,"SUPPRF66474"
"6",1692084713567,"15/08/2023 07:31:53",1692088313567,1,"15/08/2023 09:31:53",140743,17,"task-oyxw",NA,31187025,9247022,NA,"complete",NA,"64db3028111b0ff40205a905","computer","Desktop or Laptop","Mac OS 10.15.7","Chrome 114.0.0.0","1440x900","1440x690",NA,NA,0,"Pre-Video Feedback Task (Clone)",6,"GHFIEJDACB",NA,"study_2 (video_feedback and feedback_list_2)","VF_1st","Spreadsheet1",1,"Instructions","Screen 4","x6yf73",5,"continue","",25526.2300000954,25516.932,25526.2300000954,25526.2300000954,25516.932,25526.2300000954,1,25526.2300000954,0,0,NA,"Click To Continue","Continue Button",2,"object-24","Instructions",NA,"SUPPRF66474"
"7",1692084715619,"15/08/2023 07:31:55",1692088315619,1,"15/08/2023 09:31:55",140743,17,"task-oyxw",NA,31187025,9247022,NA,"complete",NA,"64db3028111b0ff40205a905","computer","Desktop or Laptop","Mac OS 10.15.7","Chrome 114.0.0.0","1440x900","1440x690",NA,NA,0,"Pre-Video Feedback Task (Clone)",6,"GHFIEJDACB",NA,"study_2 (video_feedback and feedback_list_2)","VF_1st","Spreadsheet1",1,"Instructions","Screen 7","rb1b6r",6,"continue","",2061.19799995232,2051.907,2061.19799995232,2061.19799995232,2051.907,2061.19799995232,1,2061.19799995232,0,0,NA,"Click To Continue","Continue Button",2,"object-49","Instructions",NA,"SUPPRF66474"
"8",1692084858038,"15/08/2023 07:34:18",1692088458038,1,"15/08/2023 09:34:18",140743,17,"task-oyxw",NA,31187025,9247022,NA,"complete",NA,"64db3028111b0ff40205a905","computer","Desktop or Laptop","Mac OS 10.15.7","Chrome 114.0.0.0","1440x900","1440x690",NA,NA,0,"Pre-Video Feedback Task (Clone)",6,"GHFIEJDACB",NA,"study_2 (video_feedback and feedback_list_2)","VF_1st","Spreadsheet1",1,"Practice run","Screen 1","ncwxmk",1,"continue","",142430.491,142422.122,142430.491,142430.491,142422.122,142430.491,1,142430.491,0,0,NA,"Click To Continue","Continue Button",2,"object-29","Practice run",NA,"SUPPRF66474"
"9",1692084858040,"15/08/2023 07:34:18",1692088458040,1,"15/08/2023 09:34:18",140743,17,"task-oyxw",NA,31187025,9247022,NA,"complete",NA,"64db3028111b0ff40205a905","computer","Desktop or Laptop","Mac OS 10.15.7","Chrome 114.0.0.0","1440x900","1440x690",NA,NA,0,"Pre-Video Feedback Task (Clone)",6,"GHFIEJDACB",NA,"study_2 (video_feedback and feedback_list_2)","VF_1st","Spreadsheet1",1,"Practice run","Screen 1","ncwxmk",1,"response","The person describes the picture in detail concerning people's feelings.",37717.523,142422.122,142435.691000048,37717.523,142422.122,142435.691000048,1,37717.523,104718.168000048,0,NA,"Text Entry","Text Entry",5,"object-38","Practice run",NA,"SUPPRF66474"
"10",1692084858040,"15/08/2023 07:34:18",1692088458040,1,"15/08/2023 09:34:18",140743,17,"task-oyxw",NA,31187025,9247022,NA,"complete",NA,"64db3028111b0ff40205a905","computer","Desktop or Laptop","Mac OS 10.15.7","Chrome 114.0.0.0","1440x900","1440x690",NA,NA,0,"Pre-Video Feedback Task (Clone)",6,"GHFIEJDACB",NA,"study_2 (video_feedback and feedback_list_2)","VF_1st","Spreadsheet1",1,"Practice run","Screen 1","ncwxmk",1,"response","The person looked at the picture constantly.",125504.508,142422.122,142435.991,125504.508,142422.122,142435.991,1,125504.508,16931.483,0,NA,"Text Entry","Text Entry",6,"object-40","Practice run",NA,"SUPPRF66474"
"11",1692084858041,"15/08/2023 07:34:18",1692088458041,1,"15/08/2023 09:34:18",140743,17,"task-oyxw",NA,31187025,9247022,NA,"complete",NA,"64db3028111b0ff40205a905","computer","Desktop or Laptop","Mac OS 10.15.7","Chrome 114.0.0.0","1440x900","1440x690",NA,NA,0,"Pre-Video Feedback Task (Clone)",6,"GHFIEJDACB",NA,"study_2 (video_feedback and feedback_list_2)","VF_1st","Spreadsheet1",NA,"","","",NA,"5","END",NA,NA,NA,NA,NA,NA,0,NA,NA,NA,NA,"","",NA,"","",NA,"SUPPRF66474"
"1",1692278989053,"17/08/2023 13:29:49",1692282589053,1,"17/08/2023 15:29:49",140743,17,"task-oyxw",NA,31236087,9258380,NA,"complete",NA,"64de2cb7ebaf7c001ec7e37a","computer","Desktop or Laptop","Windows 10","Chrome 116.0.0.0","1920x1080","1920x963",NA,NA,0,"Pre-Video Feedback Task (Clone)",6,"JAIBHCGDFE",NA,"study_2 (video_feedback and feedback_list_2)","VF_1st","Spreadsheet1",NA,"","","",NA,"5","BEGIN",NA,NA,NA,NA,NA,NA,0,NA,NA,NA,NA,"","",NA,"","",NA,"SUPPRF73191"
"2",1692279688067,"17/08/2023 13:41:28",1692283288067,1,"17/08/2023 15:41:28",140743,17,"task-oyxw",NA,31236087,9258380,NA,"complete",NA,"64de2cb7ebaf7c001ec7e37a","computer","Desktop or Laptop","Windows 10","Chrome 116.0.0.0","1920x1080","1920x963",NA,NA,0,"Pre-Video Feedback Task (Clone)",6,"JAIBHCGDFE",NA,"study_2 (video_feedback and feedback_list_2)","VF_1st","Spreadsheet1",1,"Instructions","Screen 1","by7fw4",1,"continue","",699022.496999997,699018.697,699022.496999997,699022.496999997,699018.697,699022.496999997,1,699022.496999997,0,0,NA,"Click To Continue","Continue Button",2,"object-15","Instructions",NA,"SUPPRF73191"
"3",1692279691006,"17/08/2023 13:41:31",1692283291006,1,"17/08/2023 15:41:31",140743,17,"task-oyxw",NA,31236087,9258380,NA,"complete",NA,"64de2cb7ebaf7c001ec7e37a","computer","Desktop or Laptop","Windows 10","Chrome 116.0.0.0","1920x1080","1920x963",NA,NA,0,"Pre-Video Feedback Task (Clone)",6,"JAIBHCGDFE",NA,"study_2 (video_feedback and feedback_list_2)","VF_1st","Spreadsheet1",1,"Instructions","Screen 2","32ryug",2,"continue","",2943.19999999925,2937.51199999999,2943.19999999925,2943.19999999925,2937.51199999999,2943.19999999925,1,2943.19999999925,0,0,NA,"Click To Continue","Continue Button",2,"object-18","Instructions",NA,"SUPPRF73191"
"4",1692279694270,"17/08/2023 13:41:34",1692283294270,1,"17/08/2023 15:41:34",140743,17,"task-oyxw",NA,31236087,9258380,NA,"complete",NA,"64de2cb7ebaf7c001ec7e37a","computer","Desktop or Laptop","Windows 10","Chrome 116.0.0.0","1920x1080","1920x963",NA,NA,0,"Pre-Video Feedback Task (Clone)",6,"JAIBHCGDFE",NA,"study_2 (video_feedback and feedback_list_2)","VF_1st","Spreadsheet1",1,"Instructions","Screen 6","qfz25j",3,"continue","",3268.98800000001,3263.88,3268.98800000001,3268.98800000001,3263.88,3268.98800000001,1,3268.98800000001,0,0,NA,"Click To Continue","Continue Button",2,"object-44","Instructions",NA,"SUPPRF73191"
"5",1692279697798,"17/08/2023 13:41:37",1692283297798,1,"17/08/2023 15:41:37",140743,17,"task-oyxw",NA,31236087,9258380,NA,"complete",NA,"64de2cb7ebaf7c001ec7e37a","computer","Desktop or Laptop","Windows 10","Chrome 116.0.0.0","1920x1080","1920x963",NA,NA,0,"Pre-Video Feedback Task (Clone)",6,"JAIBHCGDFE",NA,"study_2 (video_feedback and feedback_list_2)","VF_1st","Spreadsheet1",1,"Instructions","Screen 3","oiajeu",4,"continue","",3533.60800000001,3527.73699999996,3533.60800000001,3533.60800000001,3527.73699999996,3533.60800000001,1,3533.60800000001,0,0,NA,"Click To Continue","Continue Button",2,"object-21","Instructions",NA,"SUPPRF73191"
"6",1692279709661,"17/08/2023 13:41:49",1692283309661,1,"17/08/2023 15:41:49",140743,17,"task-oyxw",NA,31236087,9258380,NA,"complete",NA,"64de2cb7ebaf7c001ec7e37a","computer","Desktop or Laptop","Windows 10","Chrome 116.0.0.0","1920x1080","1920x963",NA,NA,0,"Pre-Video Feedback Task (Clone)",6,"JAIBHCGDFE",NA,"study_2 (video_feedback and feedback_list_2)","VF_1st","Spreadsheet1",1,"Instructions","Screen 4","x6yf73",5,"continue","",11868.9709999978,11868.0240000001,11868.9709999978,11868.9709999978,11868.0240000001,11868.9709999978,1,11868.9709999978,0,0,NA,"Click To Continue","Continue Button",2,"object-24","Instructions",NA,"SUPPRF73191"
"7",1692279711011,"17/08/2023 13:41:51",1692283311011,1,"17/08/2023 15:41:51",140743,17,"task-oyxw",NA,31236087,9258380,NA,"complete",NA,"64de2cb7ebaf7c001ec7e37a","computer","Desktop or Laptop","Windows 10","Chrome 116.0.0.0","1920x1080","1920x963",NA,NA,0,"Pre-Video Feedback Task (Clone)",6,"JAIBHCGDFE",NA,"study_2 (video_feedback and feedback_list_2)","VF_1st","Spreadsheet1",1,"Instructions","Screen 7","rb1b6r",6,"continue","",1350.44699999772,1347.25099999993,1350.44699999772,1350.44699999772,1347.25099999993,1350.44699999772,1,1350.44699999772,0,0,NA,"Click To Continue","Continue Button",2,"object-49","Instructions",NA,"SUPPRF73191"
"8",1692279789540,"17/08/2023 13:43:09",1692283389540,1,"17/08/2023 15:43:09",140743,17,"task-oyxw",NA,31236087,9258380,NA,"complete",NA,"64de2cb7ebaf7c001ec7e37a","computer","Desktop or Laptop","Windows 10","Chrome 116.0.0.0","1920x1080","1920x963",NA,NA,0,"Pre-Video Feedback Task (Clone)",6,"JAIBHCGDFE",NA,"study_2 (video_feedback and feedback_list_2)","VF_1st","Spreadsheet1",1,"Practice run","Screen 1","ncwxmk",1,"continue","",78532.395999997,78527.483,78532.395999997,78532.395999997,78527.483,78532.395999997,1,78532.395999997,0,0,NA,"Click To Continue","Continue Button",2,"object-29","Practice run",NA,"SUPPRF73191"
"9",1692279789541,"17/08/2023 13:43:09",1692283389541,1,"17/08/2023 15:43:09",140743,17,"task-oyxw",NA,31236087,9258380,NA,"complete",NA,"64de2cb7ebaf7c001ec7e37a","computer","Desktop or Laptop","Windows 10","Chrome 116.0.0.0","1920x1080","1920x963",NA,NA,0,"Pre-Video Feedback Task (Clone)",6,"JAIBHCGDFE",NA,"study_2 (video_feedback and feedback_list_2)","VF_1st","Spreadsheet1",1,"Practice run","Screen 1","ncwxmk",1,"response","You explained it pretty well",26312.367,78527.483,78533.895999997,26312.367,78527.483,78533.895999997,1,26312.367,52221.5289999971,0,NA,"Text Entry","Text Entry",5,"object-38","Practice run",NA,"SUPPRF73191"
"10",1692279789542,"17/08/2023 13:43:09",1692283389542,1,"17/08/2023 15:43:09",140743,17,"task-oyxw",NA,31236087,9258380,NA,"complete",NA,"64de2cb7ebaf7c001ec7e37a","computer","Desktop or Laptop","Windows 10","Chrome 116.0.0.0","1920x1080","1920x963",NA,NA,0,"Pre-Video Feedback Task (Clone)",6,"JAIBHCGDFE",NA,"study_2 (video_feedback and feedback_list_2)","VF_1st","Spreadsheet1",1,"Practice run","Screen 1","ncwxmk",1,"response","A few hesitations but pretty ok overall",54284.498,78527.483,78534.096,54284.498,78527.483,78534.096,1,54284.498,24249.598,0,NA,"Text Entry","Text Entry",6,"object-40","Practice run",NA,"SUPPRF73191"
"11",1692279789542,"17/08/2023 13:43:09",1692283389542,1,"17/08/2023 15:43:09",140743,17,"task-oyxw",NA,31236087,9258380,NA,"complete",NA,"64de2cb7ebaf7c001ec7e37a","computer","Desktop or Laptop","Windows 10","Chrome 116.0.0.0","1920x1080","1920x963",NA,NA,0,"Pre-Video Feedback Task (Clone)",6,"JAIBHCGDFE",NA,"study_2 (video_feedback and feedback_list_2)","VF_1st","Spreadsheet1",NA,"","","",NA,"5","END",NA,NA,NA,NA,NA,NA,0,NA,NA,NA,NA,"","",NA,"","",NA,"SUPPRF73191"
"1",1692551589209,"20/08/2023 17:13:09",1692555189209,1,"20/08/2023 19:13:09",140743,17,"task-oyxw",NA,31263439,9267612,NA,"complete",NA,"64e252d5b92f3bcf49791cfd","computer","Desktop or Laptop","Windows 10","Chrome 115.0.0.0","1280x720","1280x595",NA,NA,0,"Pre-Video Feedback Task (Clone)",6,"DECFBGAHJI",NA,"study_2 (video_feedback and feedback_list_2)","VF_1st","Spreadsheet1",NA,"","","",NA,"5","BEGIN",NA,NA,NA,NA,NA,NA,0,NA,NA,NA,NA,"","",NA,"","",NA,"SUPPRF06732"
"2",1692551597440,"20/08/2023 17:13:17",1692555197440,1,"20/08/2023 19:13:17",140743,17,"task-oyxw",NA,31263439,9267612,NA,"complete",NA,"64e252d5b92f3bcf49791cfd","computer","Desktop or Laptop","Windows 10","Chrome 115.0.0.0","1280x720","1280x595",NA,NA,0,"Pre-Video Feedback Task (Clone)",6,"DECFBGAHJI",NA,"study_2 (video_feedback and feedback_list_2)","VF_1st","Spreadsheet1",1,"Instructions","Screen 1","by7fw4",1,"continue","",8255.50400009537,8251.193,8255.50400009537,8255.50400009537,8251.193,8255.50400009537,1,8255.50400009537,0,0,NA,"Click To Continue","Continue Button",2,"object-15","Instructions",NA,"SUPPRF06732"
"3",1692551598772,"20/08/2023 17:13:18",1692555198772,1,"20/08/2023 19:13:18",140743,17,"task-oyxw",NA,31263439,9267612,NA,"complete",NA,"64e252d5b92f3bcf49791cfd","computer","Desktop or Laptop","Windows 10","Chrome 115.0.0.0","1280x720","1280x595",NA,NA,0,"Pre-Video Feedback Task (Clone)",6,"DECFBGAHJI",NA,"study_2 (video_feedback and feedback_list_2)","VF_1st","Spreadsheet1",1,"Instructions","Screen 2","32ryug",2,"continue","",1335.81100009537,1333.204,1335.81100009537,1335.81100009537,1333.204,1335.81100009537,1,1335.81100009537,0,0,NA,"Click To Continue","Continue Button",2,"object-18","Instructions",NA,"SUPPRF06732"
"4",1692551602018,"20/08/2023 17:13:22",1692555202018,1,"20/08/2023 19:13:22",140743,17,"task-oyxw",NA,31263439,9267612,NA,"complete",NA,"64e252d5b92f3bcf49791cfd","computer","Desktop or Laptop","Windows 10","Chrome 115.0.0.0","1280x720","1280x595",NA,NA,0,"Pre-Video Feedback Task (Clone)",6,"DECFBGAHJI",NA,"study_2 (video_feedback and feedback_list_2)","VF_1st","Spreadsheet1",1,"Instructions","Screen 6","qfz25j",3,"continue","",3249,3233.248,3249,3249,3233.248,3249,1,3249,0,0,NA,"Click To Continue","Continue Button",2,"object-44","Instructions",NA,"SUPPRF06732"
"5",1692551604831,"20/08/2023 17:13:24",1692555204831,1,"20/08/2023 19:13:24",140743,17,"task-oyxw",NA,31263439,9267612,NA,"complete",NA,"64e252d5b92f3bcf49791cfd","computer","Desktop or Laptop","Windows 10","Chrome 115.0.0.0","1280x720","1280x595",NA,NA,0,"Pre-Video Feedback Task (Clone)",6,"DECFBGAHJI",NA,"study_2 (video_feedback and feedback_list_2)","VF_1st","Spreadsheet1",1,"Instructions","Screen 3","oiajeu",4,"continue","",2828.55900014305,2817.351,2828.55900014305,2828.55900014305,2817.351,2828.55900014305,1,2828.55900014305,0,0,NA,"Click To Continue","Continue Button",2,"object-21","Instructions",NA,"SUPPRF06732"
"6",1692551610604,"20/08/2023 17:13:30",1692555210604,1,"20/08/2023 19:13:30",140743,17,"task-oyxw",NA,31263439,9267612,NA,"complete",NA,"64e252d5b92f3bcf49791cfd","computer","Desktop or Laptop","Windows 10","Chrome 115.0.0.0","1280x720","1280x595",NA,NA,0,"Pre-Video Feedback Task (Clone)",6,"DECFBGAHJI",NA,"study_2 (video_feedback and feedback_list_2)","VF_1st","Spreadsheet1",1,"Instructions","Screen 4","x6yf73",5,"continue","",5789.50800009537,5782.683,5789.50800009537,5789.50800009537,5782.683,5789.50800009537,1,5789.50800009537,0,0,NA,"Click To Continue","Continue Button",2,"object-24","Instructions",NA,"SUPPRF06732"
"7",1692551611679,"20/08/2023 17:13:31",1692555211679,1,"20/08/2023 19:13:31",140743,17,"task-oyxw",NA,31263439,9267612,NA,"complete",NA,"64e252d5b92f3bcf49791cfd","computer","Desktop or Laptop","Windows 10","Chrome 115.0.0.0","1280x720","1280x595",NA,NA,0,"Pre-Video Feedback Task (Clone)",6,"DECFBGAHJI",NA,"study_2 (video_feedback and feedback_list_2)","VF_1st","Spreadsheet1",1,"Instructions","Screen 7","rb1b6r",6,"continue","",1082.32500009537,1066.595,1082.32500009537,1082.32500009537,1066.595,1082.32500009537,1,1082.32500009537,0,0,NA,"Click To Continue","Continue Button",2,"object-49","Instructions",NA,"SUPPRF06732"
"8",1692551674870,"20/08/2023 17:14:34",1692555274870,1,"20/08/2023 19:14:34",140743,17,"task-oyxw",NA,31263439,9267612,NA,"complete",NA,"64e252d5b92f3bcf49791cfd","computer","Desktop or Laptop","Windows 10","Chrome 115.0.0.0","1280x720","1280x595",NA,NA,0,"Pre-Video Feedback Task (Clone)",6,"DECFBGAHJI",NA,"study_2 (video_feedback and feedback_list_2)","VF_1st","Spreadsheet1",1,"Practice run","Screen 1","ncwxmk",1,"continue","",63199.144,63183.08,63199.144,63199.144,63183.08,63199.144,1,63199.144,0,0,NA,"Click To Continue","Continue Button",2,"object-29","Practice run",NA,"SUPPRF06732"
"9",1692551674878,"20/08/2023 17:14:34",1692555274878,1,"20/08/2023 19:14:34",140743,17,"task-oyxw",NA,31263439,9267612,NA,"complete",NA,"64e252d5b92f3bcf49791cfd","computer","Desktop or Laptop","Windows 10","Chrome 115.0.0.0","1280x720","1280x595",NA,NA,0,"Pre-Video Feedback Task (Clone)",6,"DECFBGAHJI",NA,"study_2 (video_feedback and feedback_list_2)","VF_1st","Spreadsheet1",1,"Practice run","Screen 1","ncwxmk",1,"response","shows signs of uncertainity",25566.771,63183.08,63199.144,25566.771,63183.08,63199.144,1,25566.771,37632.373,0,NA,"Text Entry","Text Entry",5,"object-38","Practice run",NA,"SUPPRF06732"
"10",1692551674878,"20/08/2023 17:14:34",1692555274878,1,"20/08/2023 19:14:34",140743,17,"task-oyxw",NA,31263439,9267612,NA,"complete",NA,"64e252d5b92f3bcf49791cfd","computer","Desktop or Laptop","Windows 10","Chrome 115.0.0.0","1280x720","1280x595",NA,NA,0,"Pre-Video Feedback Task (Clone)",6,"DECFBGAHJI",NA,"study_2 (video_feedback and feedback_list_2)","VF_1st","Spreadsheet1",1,"Practice run","Screen 1","ncwxmk",1,"response","seems unsure of her decision despite her description clearly explaining a classroom",33500.052,63183.08,63199.144,33500.052,63183.08,63199.144,1,33500.052,29699.092,0,NA,"Text Entry","Text Entry",6,"object-40","Practice run",NA,"SUPPRF06732"
"11",1692551674879,"20/08/2023 17:14:34",1692555274879,1,"20/08/2023 19:14:34",140743,17,"task-oyxw",NA,31263439,9267612,NA,"complete",NA,"64e252d5b92f3bcf49791cfd","computer","Desktop or Laptop","Windows 10","Chrome 115.0.0.0","1280x720","1280x595",NA,NA,0,"Pre-Video Feedback Task (Clone)",6,"DECFBGAHJI",NA,"study_2 (video_feedback and feedback_list_2)","VF_1st","Spreadsheet1",NA,"","","",NA,"5","END",NA,NA,NA,NA,NA,NA,0,NA,NA,NA,NA,"","",NA,"","",NA,"SUPPRF06732"
"1",1692725902929,"22/08/2023 17:38:22",1692729502929,1,"22/08/2023 19:38:22",140743,17,"task-oyxw",NA,31297655,9275476,NA,"complete",NA,"64e4fc72a6b2df27331b7045","computer","Desktop or Laptop","Mac OS 10.15.7","Chrome 116.0.0.0","1440x900","1440x815",NA,NA,0,"Pre-Video Feedback Task (Clone)",6,"FGEHDICJBA",NA,"study_2 (video_feedback and feedback_list_2)","VF_1st","Spreadsheet1",NA,"","","",NA,"5","BEGIN",NA,NA,NA,NA,NA,NA,0,NA,NA,NA,NA,"","",NA,"","",NA,"SUPPRF42249"
"2",1692725909621,"22/08/2023 17:38:29",1692729509621,1,"22/08/2023 19:38:29",140743,17,"task-oyxw",NA,31297655,9275476,NA,"complete",NA,"64e4fc72a6b2df27331b7045","computer","Desktop or Laptop","Mac OS 10.15.7","Chrome 116.0.0.0","1440x900","1440x815",NA,NA,0,"Pre-Video Feedback Task (Clone)",6,"FGEHDICJBA",NA,"study_2 (video_feedback and feedback_list_2)","VF_1st","Spreadsheet1",1,"Instructions","Screen 1","by7fw4",1,"continue","",6710.58300000074,6695.686,6710.58300000074,6710.58300000074,6695.686,6710.58300000074,1,6710.58300000074,0,0,NA,"Click To Continue","Continue Button",2,"object-15","Instructions",NA,"SUPPRF42249"
"3",1692725911138,"22/08/2023 17:38:31",1692729511138,1,"22/08/2023 19:38:31",140743,17,"task-oyxw",NA,31297655,9275476,NA,"complete",NA,"64e4fc72a6b2df27331b7045","computer","Desktop or Laptop","Mac OS 10.15.7","Chrome 116.0.0.0","1440x900","1440x815",NA,NA,0,"Pre-Video Feedback Task (Clone)",6,"FGEHDICJBA",NA,"study_2 (video_feedback and feedback_list_2)","VF_1st","Spreadsheet1",1,"Instructions","Screen 2","32ryug",2,"continue","",1531.79700000112,1515.605,1531.79700000112,1531.79700000112,1515.605,1531.79700000112,1,1531.79700000112,0,0,NA,"Click To Continue","Continue Button",2,"object-18","Instructions",NA,"SUPPRF42249"
"4",1692725916599,"22/08/2023 17:38:36",1692729516599,1,"22/08/2023 19:38:36",140743,17,"task-oyxw",NA,31297655,9275476,NA,"complete",NA,"64e4fc72a6b2df27331b7045","computer","Desktop or Laptop","Mac OS 10.15.7","Chrome 116.0.0.0","1440x900","1440x815",NA,NA,0,"Pre-Video Feedback Task (Clone)",6,"FGEHDICJBA",NA,"study_2 (video_feedback and feedback_list_2)","VF_1st","Spreadsheet1",1,"Instructions","Screen 6","qfz25j",3,"continue","",5477.29200000075,5463.216,5477.29200000075,5477.29200000075,5463.216,5477.29200000075,1,5477.29200000075,0,0,NA,"Click To Continue","Continue Button",2,"object-44","Instructions",NA,"SUPPRF42249"
"5",1692725919954,"22/08/2023 17:38:39",1692729519954,1,"22/08/2023 19:38:39",140743,17,"task-oyxw",NA,31297655,9275476,NA,"complete",NA,"64e4fc72a6b2df27331b7045","computer","Desktop or Laptop","Mac OS 10.15.7","Chrome 116.0.0.0","1440x900","1440x815",NA,NA,0,"Pre-Video Feedback Task (Clone)",6,"FGEHDICJBA",NA,"study_2 (video_feedback and feedback_list_2)","VF_1st","Spreadsheet1",1,"Instructions","Screen 3","oiajeu",4,"continue","",3369.276,3364.31,3369.276,3369.276,3364.31,3369.276,1,3369.276,0,0,NA,"Click To Continue","Continue Button",2,"object-21","Instructions",NA,"SUPPRF42249"
"6",1692725930229,"22/08/2023 17:38:50",1692729530229,1,"22/08/2023 19:38:50",140743,17,"task-oyxw",NA,31297655,9275476,NA,"complete",NA,"64e4fc72a6b2df27331b7045","computer","Desktop or Laptop","Mac OS 10.15.7","Chrome 116.0.0.0","1440x900","1440x815",NA,NA,0,"Pre-Video Feedback Task (Clone)",6,"FGEHDICJBA",NA,"study_2 (video_feedback and feedback_list_2)","VF_1st","Spreadsheet1",1,"Instructions","Screen 4","x6yf73",5,"continue","",10280.1660000011,10276.511,10280.1660000011,10280.1660000011,10276.511,10280.1660000011,1,10280.1660000011,0,0,NA,"Click To Continue","Continue Button",2,"object-24","Instructions",NA,"SUPPRF42249"
"7",1692725933035,"22/08/2023 17:38:53",1692729533035,1,"22/08/2023 19:38:53",140743,17,"task-oyxw",NA,31297655,9275476,NA,"complete",NA,"64e4fc72a6b2df27331b7045","computer","Desktop or Laptop","Mac OS 10.15.7","Chrome 116.0.0.0","1440x900","1440x815",NA,NA,0,"Pre-Video Feedback Task (Clone)",6,"FGEHDICJBA",NA,"study_2 (video_feedback and feedback_list_2)","VF_1st","Spreadsheet1",1,"Instructions","Screen 7","rb1b6r",6,"continue","",2809.455,2798.04,2809.455,2809.455,2798.04,2809.455,1,2809.455,0,0,NA,"Click To Continue","Continue Button",2,"object-49","Instructions",NA,"SUPPRF42249"
"8",1692725983177,"22/08/2023 17:39:43",1692729583177,1,"22/08/2023 19:39:43",140743,17,"task-oyxw",NA,31297655,9275476,NA,"complete",NA,"64e4fc72a6b2df27331b7045","computer","Desktop or Laptop","Mac OS 10.15.7","Chrome 116.0.0.0","1440x900","1440x815",NA,NA,0,"Pre-Video Feedback Task (Clone)",6,"FGEHDICJBA",NA,"study_2 (video_feedback and feedback_list_2)","VF_1st","Spreadsheet1",1,"Practice run","Screen 1","ncwxmk",1,"continue","",50150.087,50133.432,50150.087,50150.087,50133.432,50150.087,1,50150.087,0,0,NA,"Click To Continue","Continue Button",2,"object-29","Practice run",NA,"SUPPRF42249"
"9",1692725983180,"22/08/2023 17:39:43",1692729583180,1,"22/08/2023 19:39:43",140743,17,"task-oyxw",NA,31297655,9275476,NA,"complete",NA,"64e4fc72a6b2df27331b7045","computer","Desktop or Laptop","Mac OS 10.15.7","Chrome 116.0.0.0","1440x900","1440x815",NA,NA,0,"Pre-Video Feedback Task (Clone)",6,"FGEHDICJBA",NA,"study_2 (video_feedback and feedback_list_2)","VF_1st","Spreadsheet1",1,"Practice run","Screen 1","ncwxmk",1,"response","got the major points of the picture down",19803.548,50133.432,50150.087,19803.548,50133.432,50150.087,1,19803.548,30346.539,0,NA,"Text Entry","Text Entry",5,"object-38","Practice run",NA,"SUPPRF42249"
"10",1692725983180,"22/08/2023 17:39:43",1692729583180,1,"22/08/2023 19:39:43",140743,17,"task-oyxw",NA,31297655,9275476,NA,"complete",NA,"64e4fc72a6b2df27331b7045","computer","Desktop or Laptop","Mac OS 10.15.7","Chrome 116.0.0.0","1440x900","1440x815",NA,NA,0,"Pre-Video Feedback Task (Clone)",6,"FGEHDICJBA",NA,"study_2 (video_feedback and feedback_list_2)","VF_1st","Spreadsheet1",1,"Practice run","Screen 1","ncwxmk",1,"response","clearly stated",41106.045,50133.432,50150.087,41106.045,50133.432,50150.087,1,41106.045,9044.04200000002,0,NA,"Text Entry","Text Entry",6,"object-40","Practice run",NA,"SUPPRF42249"
"11",1692725983182,"22/08/2023 17:39:43",1692729583182,1,"22/08/2023 19:39:43",140743,17,"task-oyxw",NA,31297655,9275476,NA,"complete",NA,"64e4fc72a6b2df27331b7045","computer","Desktop or Laptop","Mac OS 10.15.7","Chrome 116.0.0.0","1440x900","1440x815",NA,NA,0,"Pre-Video Feedback Task (Clone)",6,"FGEHDICJBA",NA,"study_2 (video_feedback and feedback_list_2)","VF_1st","Spreadsheet1",NA,"","","",NA,"5","END",NA,NA,NA,NA,NA,NA,0,NA,NA,NA,NA,"","",NA,"","",NA,"SUPPRF42249"
"1",1693246143740,"28/08/2023 18:09:03",1693249743740,1,"28/08/2023 20:09:03",140743,17,"task-oyxw",NA,31394092,9297799,NA,"complete",NA,"64eceed14556d1516f0479e9","computer","Desktop or Laptop","Windows 10","Firefox 116.0","1920x1080","1920x919",NA,NA,0,"Pre-Video Feedback Task (Clone)",6,"ABJCIDHEGF",NA,"study_2 (video_feedback and feedback_list_2)","VF_1st","Spreadsheet1",NA,"","","",NA,"5","BEGIN",NA,NA,NA,NA,NA,NA,0,NA,NA,NA,NA,"","",NA,"","",NA,"SUPPRF20104"
"2",1693246147593,"28/08/2023 18:09:07",1693249747593,1,"28/08/2023 20:09:07",140743,17,"task-oyxw",NA,31394092,9297799,NA,"complete",NA,"64eceed14556d1516f0479e9","computer","Desktop or Laptop","Windows 10","Firefox 116.0","1920x1080","1920x919",NA,NA,0,"Pre-Video Feedback Task (Clone)",6,"ABJCIDHEGF",NA,"study_2 (video_feedback and feedback_list_2)","VF_1st","Spreadsheet1",1,"Instructions","Screen 1","by7fw4",1,"continue","",3856.84,3850.92,3856.84,3856.84,3850.92,3856.84,1,3856.84,0,0,NA,"Click To Continue","Continue Button",2,"object-15","Instructions",NA,"SUPPRF20104"
"3",1693246149007,"28/08/2023 18:09:09",1693249749007,1,"28/08/2023 20:09:09",140743,17,"task-oyxw",NA,31394092,9297799,NA,"complete",NA,"64eceed14556d1516f0479e9","computer","Desktop or Laptop","Windows 10","Firefox 116.0","1920x1080","1920x919",NA,NA,0,"Pre-Video Feedback Task (Clone)",6,"ABJCIDHEGF",NA,"study_2 (video_feedback and feedback_list_2)","VF_1st","Spreadsheet1",1,"Instructions","Screen 2","32ryug",2,"continue","",1419.92,1418.02,1419.92,1419.92,1418.02,1419.92,1,1419.92,0,0,NA,"Click To Continue","Continue Button",2,"object-18","Instructions",NA,"SUPPRF20104"
"4",1693246152369,"28/08/2023 18:09:12",1693249752369,1,"28/08/2023 20:09:12",140743,17,"task-oyxw",NA,31394092,9297799,NA,"complete",NA,"64eceed14556d1516f0479e9","computer","Desktop or Laptop","Windows 10","Firefox 116.0","1920x1080","1920x919",NA,NA,0,"Pre-Video Feedback Task (Clone)",6,"ABJCIDHEGF",NA,"study_2 (video_feedback and feedback_list_2)","VF_1st","Spreadsheet1",1,"Instructions","Screen 6","qfz25j",3,"continue","",3363.9,3357.38,3363.9,3363.9,3357.38,3363.9,1,3363.9,0,0,NA,"Click To Continue","Continue Button",2,"object-44","Instructions",NA,"SUPPRF20104"
"5",1693246156102,"28/08/2023 18:09:16",1693249756102,1,"28/08/2023 20:09:16",140743,17,"task-oyxw",NA,31394092,9297799,NA,"complete",NA,"64eceed14556d1516f0479e9","computer","Desktop or Laptop","Windows 10","Firefox 116.0","1920x1080","1920x919",NA,NA,0,"Pre-Video Feedback Task (Clone)",6,"ABJCIDHEGF",NA,"study_2 (video_feedback and feedback_list_2)","VF_1st","Spreadsheet1",1,"Instructions","Screen 3","oiajeu",4,"continue","",3738.52,3732.74,3738.52,3738.52,3732.74,3738.52,1,3738.52,0,0,NA,"Click To Continue","Continue Button",2,"object-21","Instructions",NA,"SUPPRF20104"
"6",1693246162322,"28/08/2023 18:09:22",1693249762322,1,"28/08/2023 20:09:22",140743,17,"task-oyxw",NA,31394092,9297799,NA,"complete",NA,"64eceed14556d1516f0479e9","computer","Desktop or Laptop","Windows 10","Firefox 116.0","1920x1080","1920x919",NA,NA,0,"Pre-Video Feedback Task (Clone)",6,"ABJCIDHEGF",NA,"study_2 (video_feedback and feedback_list_2)","VF_1st","Spreadsheet1",1,"Instructions","Screen 4","x6yf73",5,"continue","",6227.78,6221.24,6227.78,6227.78,6221.24,6227.78,1,6227.78,0,0,NA,"Click To Continue","Continue Button",2,"object-24","Instructions",NA,"SUPPRF20104"
"7",1693246163743,"28/08/2023 18:09:23",1693249763743,1,"28/08/2023 20:09:23",140743,17,"task-oyxw",NA,31394092,9297799,NA,"complete",NA,"64eceed14556d1516f0479e9","computer","Desktop or Laptop","Windows 10","Firefox 116.0","1920x1080","1920x919",NA,NA,0,"Pre-Video Feedback Task (Clone)",6,"ABJCIDHEGF",NA,"study_2 (video_feedback and feedback_list_2)","VF_1st","Spreadsheet1",1,"Instructions","Screen 7","rb1b6r",6,"continue","",1427.54,1424.98,1427.54,1427.54,1424.98,1427.54,1,1427.54,0,0,NA,"Click To Continue","Continue Button",2,"object-49","Instructions",NA,"SUPPRF20104"
"8",1693246216260,"28/08/2023 18:10:16",1693249816260,1,"28/08/2023 20:10:16",140743,17,"task-oyxw",NA,31394092,9297799,NA,"complete",NA,"64eceed14556d1516f0479e9","computer","Desktop or Laptop","Windows 10","Firefox 116.0","1920x1080","1920x919",NA,NA,0,"Pre-Video Feedback Task (Clone)",6,"ABJCIDHEGF",NA,"study_2 (video_feedback and feedback_list_2)","VF_1st","Spreadsheet1",1,"Practice run","Screen 1","ncwxmk",1,"continue","",52517.56,52511.52,52517.56,52517.56,52511.52,52517.56,1,52517.56,0,0,NA,"Click To Continue","Continue Button",2,"object-29","Practice run",NA,"SUPPRF20104"
"9",1693246216261,"28/08/2023 18:10:16",1693249816261,1,"28/08/2023 20:10:16",140743,17,"task-oyxw",NA,31394092,9297799,NA,"complete",NA,"64eceed14556d1516f0479e9","computer","Desktop or Laptop","Windows 10","Firefox 116.0","1920x1080","1920x919",NA,NA,0,"Pre-Video Feedback Task (Clone)",6,"ABJCIDHEGF",NA,"study_2 (video_feedback and feedback_list_2)","VF_1st","Spreadsheet1",1,"Practice run","Screen 1","ncwxmk",1,"response","Explained what was on the screen",20519.64,52511.52,52518.48,20519.64,52511.52,52518.48,1,20519.64,31998.84,0,NA,"Text Entry","Text Entry",5,"object-38","Practice run",NA,"SUPPRF20104"
"10",1693246216261,"28/08/2023 18:10:16",1693249816261,1,"28/08/2023 20:10:16",140743,17,"task-oyxw",NA,31394092,9297799,NA,"complete",NA,"64eceed14556d1516f0479e9","computer","Desktop or Laptop","Windows 10","Firefox 116.0","1920x1080","1920x919",NA,NA,0,"Pre-Video Feedback Task (Clone)",6,"ABJCIDHEGF",NA,"study_2 (video_feedback and feedback_list_2)","VF_1st","Spreadsheet1",1,"Practice run","Screen 1","ncwxmk",1,"response","Did not face the camera",25969.3,52511.52,52518.48,25969.3,52511.52,52518.48,1,25969.3,26549.18,0,NA,"Text Entry","Text Entry",6,"object-40","Practice run",NA,"SUPPRF20104"
"11",1693246216261,"28/08/2023 18:10:16",1693249816261,1,"28/08/2023 20:10:16",140743,17,"task-oyxw",NA,31394092,9297799,NA,"complete",NA,"64eceed14556d1516f0479e9","computer","Desktop or Laptop","Windows 10","Firefox 116.0","1920x1080","1920x919",NA,NA,0,"Pre-Video Feedback Task (Clone)",6,"ABJCIDHEGF",NA,"study_2 (video_feedback and feedback_list_2)","VF_1st","Spreadsheet1",NA,"","","",NA,"5","END",NA,NA,NA,NA,NA,NA,0,NA,NA,NA,NA,"","",NA,"","",NA,"SUPPRF20104"
"1",1692191482722,"16/08/2023 13:11:22",1692195082722,1,"16/08/2023 15:11:22",140743,17,"task-oyxw",NA,31220820,9254288,NA,"complete",NA,"64dcd5b8efb53854496a7580","computer","Desktop or Laptop","Windows 10","Chrome 115.0.0.0","1463x915","1335x753",NA,NA,0,"Pre-Video Feedback Task (Clone)",6,"FGEHDICJBA",NA,"study_2 (video_feedback and feedback_list_2)","VF_1st","Spreadsheet1",NA,"","","",NA,"5","BEGIN",NA,NA,NA,NA,NA,NA,0,NA,NA,NA,NA,"","",NA,"","",NA,"SUPPRF02309"
"2",1692191487469,"16/08/2023 13:11:27",1692195087469,1,"16/08/2023 15:11:27",140743,17,"task-oyxw",NA,31220820,9254288,NA,"complete",NA,"64dcd5b8efb53854496a7580","computer","Desktop or Laptop","Windows 10","Chrome 115.0.0.0","1463x915","1335x753",NA,NA,0,"Pre-Video Feedback Task (Clone)",6,"FGEHDICJBA",NA,"study_2 (video_feedback and feedback_list_2)","VF_1st","Spreadsheet1",1,"Instructions","Screen 1","by7fw4",1,"continue","",4769,4760,4769,4769,4760,4769,1,4769,0,0,NA,"Click To Continue","Continue Button",2,"object-15","Instructions",NA,"SUPPRF02309"
"3",1692191488372,"16/08/2023 13:11:28",1692195088372,1,"16/08/2023 15:11:28",140743,17,"task-oyxw",NA,31220820,9254288,NA,"complete",NA,"64dcd5b8efb53854496a7580","computer","Desktop or Laptop","Windows 10","Chrome 115.0.0.0","1463x915","1335x753",NA,NA,0,"Pre-Video Feedback Task (Clone)",6,"FGEHDICJBA",NA,"study_2 (video_feedback and feedback_list_2)","VF_1st","Spreadsheet1",1,"Instructions","Screen 2","32ryug",2,"continue","",912,902,912,912,902,912,1,912,0,0,NA,"Click To Continue","Continue Button",2,"object-18","Instructions",NA,"SUPPRF02309"
"4",1692191491420,"16/08/2023 13:11:31",1692195091420,1,"16/08/2023 15:11:31",140743,17,"task-oyxw",NA,31220820,9254288,NA,"complete",NA,"64dcd5b8efb53854496a7580","computer","Desktop or Laptop","Windows 10","Chrome 115.0.0.0","1463x915","1335x753",NA,NA,0,"Pre-Video Feedback Task (Clone)",6,"FGEHDICJBA",NA,"study_2 (video_feedback and feedback_list_2)","VF_1st","Spreadsheet1",1,"Instructions","Screen 6","qfz25j",3,"continue","",3056,3039,3056,3056,3039,3056,1,3056,0,0,NA,"Click To Continue","Continue Button",2,"object-44","Instructions",NA,"SUPPRF02309"
"5",1692191495975,"16/08/2023 13:11:35",1692195095975,1,"16/08/2023 15:11:35",140743,17,"task-oyxw",NA,31220820,9254288,NA,"complete",NA,"64dcd5b8efb53854496a7580","computer","Desktop or Laptop","Windows 10","Chrome 115.0.0.0","1463x915","1335x753",NA,NA,0,"Pre-Video Feedback Task (Clone)",6,"FGEHDICJBA",NA,"study_2 (video_feedback and feedback_list_2)","VF_1st","Spreadsheet1",1,"Instructions","Screen 3","oiajeu",4,"continue","",4573,4558,4573,4573,4558,4573,1,4573,0,0,NA,"Click To Continue","Continue Button",2,"object-21","Instructions",NA,"SUPPRF02309"
"6",1692191510055,"16/08/2023 13:11:50",1692195110055,1,"16/08/2023 15:11:50",140743,17,"task-oyxw",NA,31220820,9254288,NA,"complete",NA,"64dcd5b8efb53854496a7580","computer","Desktop or Laptop","Windows 10","Chrome 115.0.0.0","1463x915","1335x753",NA,NA,0,"Pre-Video Feedback Task (Clone)",6,"FGEHDICJBA",NA,"study_2 (video_feedback and feedback_list_2)","VF_1st","Spreadsheet1",1,"Instructions","Screen 4","x6yf73",5,"continue","",14095,14092,14095,14095,14092,14095,1,14095,0,0,NA,"Click To Continue","Continue Button",2,"object-24","Instructions",NA,"SUPPRF02309"
"7",1692191511905,"16/08/2023 13:11:51",1692195111905,1,"16/08/2023 15:11:51",140743,17,"task-oyxw",NA,31220820,9254288,NA,"complete",NA,"64dcd5b8efb53854496a7580","computer","Desktop or Laptop","Windows 10","Chrome 115.0.0.0","1463x915","1335x753",NA,NA,0,"Pre-Video Feedback Task (Clone)",6,"FGEHDICJBA",NA,"study_2 (video_feedback and feedback_list_2)","VF_1st","Spreadsheet1",1,"Instructions","Screen 7","rb1b6r",6,"continue","",1853,1837,1853,1853,1837,1853,1,1853,0,0,NA,"Click To Continue","Continue Button",2,"object-49","Instructions",NA,"SUPPRF02309"
"8",1692191535447,"16/08/2023 13:12:15",1692195135447,1,"16/08/2023 15:12:15",140743,17,"task-oyxw",NA,31220820,9254288,NA,"complete",NA,"64dcd5b8efb53854496a7580","computer","Desktop or Laptop","Windows 10","Chrome 115.0.0.0","1463x915","1335x753",NA,NA,0,"Pre-Video Feedback Task (Clone)",6,"FGEHDICJBA",NA,"study_2 (video_feedback and feedback_list_2)","VF_1st","Spreadsheet1",1,"Practice run","Screen 1","ncwxmk",1,"continue","",23550,23544,23550,23550,23544,23550,1,23550,0,0,NA,"Click To Continue","Continue Button",2,"object-29","Practice run",NA,"SUPPRF02309"
"9",1692191545162,"16/08/2023 13:12:25",1692195145162,1,"16/08/2023 15:12:25",140743,17,"task-oyxw",NA,31220820,9254288,NA,"complete",NA,"64dcd5b8efb53854496a7580","computer","Desktop or Laptop","Windows 10","Chrome 115.0.0.0","1463x915","1335x753",NA,NA,0,"Pre-Video Feedback Task (Clone)",6,"FGEHDICJBA",NA,"study_2 (video_feedback and feedback_list_2)","VF_1st","Spreadsheet1",1,"Practice run","Screen 1","ncwxmk",1,"continue","",33272,33262,33272,33272,33262,33272,1,33272,0,0,NA,"Click To Continue","Continue Button",2,"object-29","Practice run",NA,"SUPPRF02309"
"10",1692191545163,"16/08/2023 13:12:25",1692195145163,1,"16/08/2023 15:12:25",140743,17,"task-oyxw",NA,31220820,9254288,NA,"complete",NA,"64dcd5b8efb53854496a7580","computer","Desktop or Laptop","Windows 10","Chrome 115.0.0.0","1463x915","1335x753",NA,NA,0,"Pre-Video Feedback Task (Clone)",6,"FGEHDICJBA",NA,"study_2 (video_feedback and feedback_list_2)","VF_1st","Spreadsheet1",1,"Practice run","Screen 1","ncwxmk",1,"response","You gave a brief overview",26950,33262,33273,26950,33262,33273,1,26950,6323,0,NA,"Text Entry","Text Entry",5,"object-38","Practice run",NA,"SUPPRF02309"
"11",1692191545163,"16/08/2023 13:12:25",1692195145163,1,"16/08/2023 15:12:25",140743,17,"task-oyxw",NA,31220820,9254288,NA,"complete",NA,"64dcd5b8efb53854496a7580","computer","Desktop or Laptop","Windows 10","Chrome 115.0.0.0","1463x915","1335x753",NA,NA,0,"Pre-Video Feedback Task (Clone)",6,"FGEHDICJBA",NA,"study_2 (video_feedback and feedback_list_2)","VF_1st","Spreadsheet1",1,"Practice run","Screen 1","ncwxmk",1,"response","You did fine",7114,33262,33274,7114,33262,33274,1,7114,26160,0,NA,"Text Entry","Text Entry",6,"object-40","Practice run",NA,"SUPPRF02309"
"12",1692191545166,"16/08/2023 13:12:25",1692195145166,1,"16/08/2023 15:12:25",140743,17,"task-oyxw",NA,31220820,9254288,NA,"complete",NA,"64dcd5b8efb53854496a7580","computer","Desktop or Laptop","Windows 10","Chrome 115.0.0.0","1463x915","1335x753",NA,NA,0,"Pre-Video Feedback Task (Clone)",6,"FGEHDICJBA",NA,"study_2 (video_feedback and feedback_list_2)","VF_1st","Spreadsheet1",NA,"","","",NA,"5","END",NA,NA,NA,NA,NA,NA,0,NA,NA,NA,NA,"","",NA,"","",NA,"SUPPRF02309"
"1",1692026949482,"14/08/2023 15:29:09",1692030549482,1,"14/08/2023 17:29:09",140743,17,"task-oyxw",NA,31180075,9243586,NA,"complete",NA,"64da54ae60b9358d64ee4f59","computer","Desktop or Laptop","Windows 10","Chrome 115.0.0.0","1707x1067","852x900",NA,NA,0,"Pre-Video Feedback Task (Clone)",6,"BCADJEIFHG",NA,"study_2 (video_feedback and feedback_list_2)","VF_1st","Spreadsheet1",NA,"","","",NA,"5","BEGIN",NA,NA,NA,NA,NA,NA,0,NA,NA,NA,NA,"","",NA,"","",NA,"SUPPRF59606"
"2",1692026953318,"14/08/2023 15:29:13",1692030553318,1,"14/08/2023 17:29:13",140743,17,"task-oyxw",NA,31180075,9243586,NA,"complete",NA,"64da54ae60b9358d64ee4f59","computer","Desktop or Laptop","Windows 10","Chrome 115.0.0.0","1707x1067","852x900",NA,NA,0,"Pre-Video Feedback Task (Clone)",6,"BCADJEIFHG",NA,"study_2 (video_feedback and feedback_list_2)","VF_1st","Spreadsheet1",1,"Instructions","Screen 1","by7fw4",1,"continue","",3855.18299995232,3849.927,3855.18299995232,3855.18299995232,3849.927,3855.18299995232,1,3855.18299995232,0,0,NA,"Click To Continue","Continue Button",2,"object-15","Instructions",NA,"SUPPRF59606"
"3",1692026954316,"14/08/2023 15:29:14",1692030554316,1,"14/08/2023 17:29:14",140743,17,"task-oyxw",NA,31180075,9243586,NA,"complete",NA,"64da54ae60b9358d64ee4f59","computer","Desktop or Laptop","Windows 10","Chrome 115.0.0.0","1707x1067","852x900",NA,NA,0,"Pre-Video Feedback Task (Clone)",6,"BCADJEIFHG",NA,"study_2 (video_feedback and feedback_list_2)","VF_1st","Spreadsheet1",1,"Instructions","Screen 2","32ryug",2,"continue","",1003.25599995232,999.984,1003.25599995232,1003.25599995232,999.984,1003.25599995232,1,1003.25599995232,0,0,NA,"Click To Continue","Continue Button",2,"object-18","Instructions",NA,"SUPPRF59606"
"4",1692026955208,"14/08/2023 15:29:15",1692030555208,1,"14/08/2023 17:29:15",140743,17,"task-oyxw",NA,31180075,9243586,NA,"complete",NA,"64da54ae60b9358d64ee4f59","computer","Desktop or Laptop","Windows 10","Chrome 115.0.0.0","1707x1067","852x900",NA,NA,0,"Pre-Video Feedback Task (Clone)",6,"BCADJEIFHG",NA,"study_2 (video_feedback and feedback_list_2)","VF_1st","Spreadsheet1",1,"Instructions","Screen 6","qfz25j",3,"continue","",895.071999964237,883.331,895.071999964237,895.071999964237,883.331,895.071999964237,1,895.071999964237,0,0,NA,"Click To Continue","Continue Button",2,"object-44","Instructions",NA,"SUPPRF59606"
"5",1692026962387,"14/08/2023 15:29:22",1692030562387,1,"14/08/2023 17:29:22",140743,17,"task-oyxw",NA,31180075,9243586,NA,"complete",NA,"64da54ae60b9358d64ee4f59","computer","Desktop or Laptop","Windows 10","Chrome 115.0.0.0","1707x1067","852x900",NA,NA,0,"Pre-Video Feedback Task (Clone)",6,"BCADJEIFHG",NA,"study_2 (video_feedback and feedback_list_2)","VF_1st","Spreadsheet1",1,"Instructions","Screen 3","oiajeu",4,"continue","",7191.74099996424,7183.302,7191.74099996424,7191.74099996424,7183.302,7191.74099996424,1,7191.74099996424,0,0,NA,"Click To Continue","Continue Button",2,"object-21","Instructions",NA,"SUPPRF59606"
"6",1692026970552,"14/08/2023 15:29:30",1692030570552,1,"14/08/2023 17:29:30",140743,17,"task-oyxw",NA,31180075,9243586,NA,"complete",NA,"64da54ae60b9358d64ee4f59","computer","Desktop or Laptop","Windows 10","Chrome 115.0.0.0","1707x1067","852x900",NA,NA,0,"Pre-Video Feedback Task (Clone)",6,"BCADJEIFHG",NA,"study_2 (video_feedback and feedback_list_2)","VF_1st","Spreadsheet1",1,"Instructions","Screen 4","x6yf73",5,"continue","",8173.93899996424,8166.607,8173.93899996424,8173.93899996424,8166.607,8173.93899996424,1,8173.93899996424,0,0,NA,"Click To Continue","Continue Button",2,"object-24","Instructions",NA,"SUPPRF59606"
"7",1692026971393,"14/08/2023 15:29:31",1692030571393,1,"14/08/2023 17:29:31",140743,17,"task-oyxw",NA,31180075,9243586,NA,"complete",NA,"64da54ae60b9358d64ee4f59","computer","Desktop or Laptop","Windows 10","Chrome 115.0.0.0","1707x1067","852x900",NA,NA,0,"Pre-Video Feedback Task (Clone)",6,"BCADJEIFHG",NA,"study_2 (video_feedback and feedback_list_2)","VF_1st","Spreadsheet1",1,"Instructions","Screen 7","rb1b6r",6,"continue","",847.831999964237,833.232,847.831999964237,847.831999964237,833.232,847.831999964237,1,847.831999964237,0,0,NA,"Click To Continue","Continue Button",2,"object-49","Instructions",NA,"SUPPRF59606"
"8",1692027066566,"14/08/2023 15:31:06",1692030666566,1,"14/08/2023 17:31:06",140743,17,"task-oyxw",NA,31180075,9243586,NA,"complete",NA,"64da54ae60b9358d64ee4f59","computer","Desktop or Laptop","Windows 10","Chrome 115.0.0.0","1707x1067","852x900",NA,NA,0,"Pre-Video Feedback Task (Clone)",6,"BCADJEIFHG",NA,"study_2 (video_feedback and feedback_list_2)","VF_1st","Spreadsheet1",1,"Practice run","Screen 1","ncwxmk",1,"continue","",95182.6999999881,95166.104,95182.6999999881,95182.6999999881,95166.104,95182.6999999881,1,95182.6999999881,0,0,NA,"Click To Continue","Continue Button",2,"object-29","Practice run",NA,"SUPPRF59606"
"9",1692027066570,"14/08/2023 15:31:06",1692030666570,1,"14/08/2023 17:31:06",140743,17,"task-oyxw",NA,31180075,9243586,NA,"complete",NA,"64da54ae60b9358d64ee4f59","computer","Desktop or Laptop","Windows 10","Chrome 115.0.0.0","1707x1067","852x900",NA,NA,0,"Pre-Video Feedback Task (Clone)",6,"BCADJEIFHG",NA,"study_2 (video_feedback and feedback_list_2)","VF_1st","Spreadsheet1",1,"Practice run","Screen 1","ncwxmk",1,"response","It was described okay.",22599.78,95166.104,95183.014,22599.78,95166.104,95183.014,1,22599.78,72583.234,0,NA,"Text Entry","Text Entry",5,"object-38","Practice run",NA,"SUPPRF59606"
"10",1692027066570,"14/08/2023 15:31:06",1692030666570,1,"14/08/2023 17:31:06",140743,17,"task-oyxw",NA,31180075,9243586,NA,"complete",NA,"64da54ae60b9358d64ee4f59","computer","Desktop or Laptop","Windows 10","Chrome 115.0.0.0","1707x1067","852x900",NA,NA,0,"Pre-Video Feedback Task (Clone)",6,"BCADJEIFHG",NA,"study_2 (video_feedback and feedback_list_2)","VF_1st","Spreadsheet1",1,"Practice run","Screen 1","ncwxmk",1,"response","There were a lot of features described.",1716.72,95166.104,95183.014,1716.72,95166.104,95183.014,1,1716.72,93466.294,0,NA,"Text Entry","Text Entry",6,"object-40","Practice run",NA,"SUPPRF59606"
"11",1692027066572,"14/08/2023 15:31:06",1692030666572,1,"14/08/2023 17:31:06",140743,17,"task-oyxw",NA,31180075,9243586,NA,"complete",NA,"64da54ae60b9358d64ee4f59","computer","Desktop or Laptop","Windows 10","Chrome 115.0.0.0","1707x1067","852x900",NA,NA,0,"Pre-Video Feedback Task (Clone)",6,"BCADJEIFHG",NA,"study_2 (video_feedback and feedback_list_2)","VF_1st","Spreadsheet1",NA,"","","",NA,"5","END",NA,NA,NA,NA,NA,NA,0,NA,NA,NA,NA,"","",NA,"","",NA,"SUPPRF59606"
"1",1692007145463,"14/08/2023 09:59:05",1692010745463,1,"14/08/2023 11:59:05",140743,17,"task-oyxw",NA,31172931,9241888,NA,"complete",NA,"64da05cb6b98735afb657801","computer","Desktop or Laptop","Windows 10","Chrome 115.0.0.0","1366x768","1366x689",NA,NA,0,"Pre-Video Feedback Task (Clone)",6,"JAIBHCGDFE",NA,"study_2 (video_feedback and feedback_list_2)","VF_1st","Spreadsheet1",NA,"","","",NA,"5","BEGIN",NA,NA,NA,NA,NA,NA,0,NA,NA,NA,NA,"","",NA,"","",NA,"SUPPRF94218"
"2",1692007154121,"14/08/2023 09:59:14",1692010754121,1,"14/08/2023 11:59:14",140743,17,"task-oyxw",NA,31172931,9241888,NA,"complete",NA,"64da05cb6b98735afb657801","computer","Desktop or Laptop","Windows 10","Chrome 115.0.0.0","1366x768","1366x689",NA,NA,0,"Pre-Video Feedback Task (Clone)",6,"JAIBHCGDFE",NA,"study_2 (video_feedback and feedback_list_2)","VF_1st","Spreadsheet1",1,"Instructions","Screen 1","by7fw4",1,"continue","",8671.97000001788,8666.976,8671.97000001788,8671.97000001788,8666.976,8671.97000001788,1,8671.97000001788,0,0,NA,"Click To Continue","Continue Button",2,"object-15","Instructions",NA,"SUPPRF94218"
"3",1692007159296,"14/08/2023 09:59:19",1692010759296,1,"14/08/2023 11:59:19",140743,17,"task-oyxw",NA,31172931,9241888,NA,"complete",NA,"64da05cb6b98735afb657801","computer","Desktop or Laptop","Windows 10","Chrome 115.0.0.0","1366x768","1366x689",NA,NA,0,"Pre-Video Feedback Task (Clone)",6,"JAIBHCGDFE",NA,"study_2 (video_feedback and feedback_list_2)","VF_1st","Spreadsheet1",1,"Instructions","Screen 2","32ryug",2,"continue","",5180.794,5166.851,5180.794,5180.794,5166.851,5180.794,1,5180.794,0,0,NA,"Click To Continue","Continue Button",2,"object-18","Instructions",NA,"SUPPRF94218"
"4",1692007164463,"14/08/2023 09:59:24",1692010764463,1,"14/08/2023 11:59:24",140743,17,"task-oyxw",NA,31172931,9241888,NA,"complete",NA,"64da05cb6b98735afb657801","computer","Desktop or Laptop","Windows 10","Chrome 115.0.0.0","1366x768","1366x689",NA,NA,0,"Pre-Video Feedback Task (Clone)",6,"JAIBHCGDFE",NA,"study_2 (video_feedback and feedback_list_2)","VF_1st","Spreadsheet1",1,"Instructions","Screen 6","qfz25j",3,"continue","",5181.74300001192,5166.786,5181.74300001192,5181.74300001192,5166.786,5181.74300001192,1,5181.74300001192,0,0,NA,"Click To Continue","Continue Button",2,"object-44","Instructions",NA,"SUPPRF94218"
"5",1692007169846,"14/08/2023 09:59:29",1692010769846,1,"14/08/2023 11:59:29",140743,17,"task-oyxw",NA,31172931,9241888,NA,"complete",NA,"64da05cb6b98735afb657801","computer","Desktop or Laptop","Windows 10","Chrome 115.0.0.0","1366x768","1366x689",NA,NA,0,"Pre-Video Feedback Task (Clone)",6,"JAIBHCGDFE",NA,"study_2 (video_feedback and feedback_list_2)","VF_1st","Spreadsheet1",1,"Instructions","Screen 3","oiajeu",4,"continue","",5396.85700001788,5383.566,5396.85700001788,5396.85700001788,5383.566,5396.85700001788,1,5396.85700001788,0,0,NA,"Click To Continue","Continue Button",2,"object-21","Instructions",NA,"SUPPRF94218"
"6",1692007180952,"14/08/2023 09:59:40",1692010780952,1,"14/08/2023 11:59:40",140743,17,"task-oyxw",NA,31172931,9241888,NA,"complete",NA,"64da05cb6b98735afb657801","computer","Desktop or Laptop","Windows 10","Chrome 115.0.0.0","1366x768","1366x689",NA,NA,0,"Pre-Video Feedback Task (Clone)",6,"JAIBHCGDFE",NA,"study_2 (video_feedback and feedback_list_2)","VF_1st","Spreadsheet1",1,"Instructions","Screen 4","x6yf73",5,"continue","",11120.1910000238,11116.922,11120.1910000238,11120.1910000238,11116.922,11120.1910000238,1,11120.1910000238,0,0,NA,"Click To Continue","Continue Button",2,"object-24","Instructions",NA,"SUPPRF94218"
"7",1692007183528,"14/08/2023 09:59:43",1692010783528,1,"14/08/2023 11:59:43",140743,17,"task-oyxw",NA,31172931,9241888,NA,"complete",NA,"64da05cb6b98735afb657801","computer","Desktop or Laptop","Windows 10","Chrome 115.0.0.0","1366x768","1366x689",NA,NA,0,"Pre-Video Feedback Task (Clone)",6,"JAIBHCGDFE",NA,"study_2 (video_feedback and feedback_list_2)","VF_1st","Spreadsheet1",1,"Instructions","Screen 7","rb1b6r",6,"continue","",2579.06900000596,2566.756,2579.06900000596,2579.06900000596,2566.756,2579.06900000596,1,2579.06900000596,0,0,NA,"Click To Continue","Continue Button",2,"object-49","Instructions",NA,"SUPPRF94218"
"8",1692007236864,"14/08/2023 10:00:36",1692010836864,1,"14/08/2023 12:00:36",140743,17,"task-oyxw",NA,31172931,9241888,NA,"complete",NA,"64da05cb6b98735afb657801","computer","Desktop or Laptop","Windows 10","Chrome 115.0.0.0","1366x768","1366x689",NA,NA,0,"Pre-Video Feedback Task (Clone)",6,"JAIBHCGDFE",NA,"study_2 (video_feedback and feedback_list_2)","VF_1st","Spreadsheet1",1,"Practice run","Screen 1","ncwxmk",1,"continue","",53340.913,53334.818,53340.913,53340.913,53334.818,53340.913,1,53340.913,0,0,NA,"Click To Continue","Continue Button",2,"object-29","Practice run",NA,"SUPPRF94218"
"9",1692007256974,"14/08/2023 10:00:56",1692010856974,1,"14/08/2023 12:00:56",140743,17,"task-oyxw",NA,31172931,9241888,NA,"complete",NA,"64da05cb6b98735afb657801","computer","Desktop or Laptop","Windows 10","Chrome 115.0.0.0","1366x768","1366x689",NA,NA,0,"Pre-Video Feedback Task (Clone)",6,"JAIBHCGDFE",NA,"study_2 (video_feedback and feedback_list_2)","VF_1st","Spreadsheet1",1,"Practice run","Screen 1","ncwxmk",1,"continue","",73457.7130000119,73452.052,73457.7130000119,73457.7130000119,73452.052,73457.7130000119,1,73457.7130000119,0,0,NA,"Click To Continue","Continue Button",2,"object-29","Practice run",NA,"SUPPRF94218"
"10",1692007256980,"14/08/2023 10:00:56",1692010856980,1,"14/08/2023 12:00:56",140743,17,"task-oyxw",NA,31172931,9241888,NA,"complete",NA,"64da05cb6b98735afb657801","computer","Desktop or Laptop","Windows 10","Chrome 115.0.0.0","1366x768","1366x689",NA,NA,0,"Pre-Video Feedback Task (Clone)",6,"JAIBHCGDFE",NA,"study_2 (video_feedback and feedback_list_2)","VF_1st","Spreadsheet1",1,"Practice run","Screen 1","ncwxmk",1,"response","They spoke well",19650.523,73452.052,73463.6130000179,19650.523,73452.052,73463.6130000179,1,19650.523,53813.0900000179,0,NA,"Text Entry","Text Entry",5,"object-38","Practice run",NA,"SUPPRF94218"
"11",1692007256983,"14/08/2023 10:00:56",1692010856983,1,"14/08/2023 12:00:56",140743,17,"task-oyxw",NA,31172931,9241888,NA,"complete",NA,"64da05cb6b98735afb657801","computer","Desktop or Laptop","Windows 10","Chrome 115.0.0.0","1366x768","1366x689",NA,NA,0,"Pre-Video Feedback Task (Clone)",6,"JAIBHCGDFE",NA,"study_2 (video_feedback and feedback_list_2)","VF_1st","Spreadsheet1",1,"Practice run","Screen 1","ncwxmk",1,"response","I could imagine the picture",61501.701,73452.052,73466.0130000238,61501.701,73452.052,73466.0130000238,1,61501.701,11964.3120000238,0,NA,"Text Entry","Text Entry",6,"object-40","Practice run",NA,"SUPPRF94218"
"12",1692007256995,"14/08/2023 10:00:56",1692010856995,1,"14/08/2023 12:00:56",140743,17,"task-oyxw",NA,31172931,9241888,NA,"complete",NA,"64da05cb6b98735afb657801","computer","Desktop or Laptop","Windows 10","Chrome 115.0.0.0","1366x768","1366x689",NA,NA,0,"Pre-Video Feedback Task (Clone)",6,"JAIBHCGDFE",NA,"study_2 (video_feedback and feedback_list_2)","VF_1st","Spreadsheet1",NA,"","","",NA,"5","END",NA,NA,NA,NA,NA,NA,0,NA,NA,NA,NA,"","",NA,"","",NA,"SUPPRF94218"
