"Event.Index","UTC.Timestamp","UTC.Date.and.Time","Local.Timestamp","Local.Timezone","Local.Date.and.Time","Experiment.ID","Experiment.Version","Tree.Node.Key","Repeat.Key","Schedule.ID","Participant.Private.ID","Participant.Starting.Group","Participant.Status","Participant.Completion.Code","Participant.External.Session.ID","Participant.Device.Type","Participant.Device","Participant.OS","Participant.Browser","Participant.Monitor.Size","Participant.Viewport.Size","Checkpoint","Room.ID","Room.Order","Task.Name","Task.Version","order.ot79","randomiser.lqqr","randomiser.28m8","randomiser.tf5j","Spreadsheet","Trial.Number","Display","Screen","Screen.ID","Screen.Counter","Response.Type","Response","Onset.Time","Clock.Time","Reaction.Time","Absolute.Onset.Time","Absolute.Clock.Time","Absolute.Reaction.Time","Correct","Response.Onset","Response.Duration","Proportion","Tag","Component.Name","Object.Name","Object.Number","Object.ID","Spreadsheet..display","Manipulation..Spreadsheet","Random_ID"
"1",1692005854503,"14/08/2023 09:37:34",1692009454503,1,"14/08/2023 11:37:34",140743,17,"task-w8vi",NA,31172519,9241769,NA,"complete",NA,"64d9ff71624435bf2a23761d","computer","Desktop or Laptop","Windows 10","Chrome 115.0.0.0","1536x864","1536x707",NA,NA,0,"Pre-Video Feedback Task (Clone)",6,"CDBEAFJGIH",NA,"study_2 (video_feedback and feedback_list_2)","Feedback_ranking_L2_first","Spreadsheet1",NA,"","","",NA,"5","BEGIN",NA,NA,NA,NA,NA,NA,0,NA,NA,NA,NA,"","",NA,"","",NA,"SUPPRF16300"
"2",1692005857827,"14/08/2023 09:37:37",1692009457827,1,"14/08/2023 11:37:37",140743,17,"task-w8vi",NA,31172519,9241769,NA,"complete",NA,"64d9ff71624435bf2a23761d","computer","Desktop or Laptop","Windows 10","Chrome 115.0.0.0","1536x864","1536x707",NA,NA,0,"Pre-Video Feedback Task (Clone)",6,"CDBEAFJGIH",NA,"study_2 (video_feedback and feedback_list_2)","Feedback_ranking_L2_first","Spreadsheet1",1,"Instructions","Screen 1","by7fw4",1,"continue","",3332.56399998212,3316.558,3332.56399998212,3332.56399998212,3316.558,3332.56399998212,1,3332.56399998212,0,0,NA,"Click To Continue","Continue Button",2,"object-15","Instructions",NA,"SUPPRF16300"
"3",1692005858904,"14/08/2023 09:37:38",1692009458904,1,"14/08/2023 11:37:38",140743,17,"task-w8vi",NA,31172519,9241769,NA,"complete",NA,"64d9ff71624435bf2a23761d","computer","Desktop or Laptop","Windows 10","Chrome 115.0.0.0","1536x864","1536x707",NA,NA,0,"Pre-Video Feedback Task (Clone)",6,"CDBEAFJGIH",NA,"study_2 (video_feedback and feedback_list_2)","Feedback_ranking_L2_first","Spreadsheet1",1,"Instructions","Screen 2","32ryug",2,"continue","",1093.50599998212,1083.264,1093.50599998212,1093.50599998212,1083.264,1093.50599998212,1,1093.50599998212,0,0,NA,"Click To Continue","Continue Button",2,"object-18","Instructions",NA,"SUPPRF16300"
"4",1692005862019,"14/08/2023 09:37:42",1692009462019,1,"14/08/2023 11:37:42",140743,17,"task-w8vi",NA,31172519,9241769,NA,"complete",NA,"64d9ff71624435bf2a23761d","computer","Desktop or Laptop","Windows 10","Chrome 115.0.0.0","1536x864","1536x707",NA,NA,0,"Pre-Video Feedback Task (Clone)",6,"CDBEAFJGIH",NA,"study_2 (video_feedback and feedback_list_2)","Feedback_ranking_L2_first","Spreadsheet1",1,"Instructions","Screen 6","qfz25j",3,"continue","",3125.84200000596,3116.738,3125.84200000596,3125.84200000596,3116.738,3125.84200000596,1,3125.84200000596,0,0,NA,"Click To Continue","Continue Button",2,"object-44","Instructions",NA,"SUPPRF16300"
"5",1692005864266,"14/08/2023 09:37:44",1692009464266,1,"14/08/2023 11:37:44",140743,17,"task-w8vi",NA,31172519,9241769,NA,"complete",NA,"64d9ff71624435bf2a23761d","computer","Desktop or Laptop","Windows 10","Chrome 115.0.0.0","1536x864","1536x707",NA,NA,0,"Pre-Video Feedback Task (Clone)",6,"CDBEAFJGIH",NA,"study_2 (video_feedback and feedback_list_2)","Feedback_ranking_L2_first","Spreadsheet1",1,"Instructions","Screen 3","oiajeu",4,"continue","",2255.60400000596,2249.907,2255.60400000596,2255.60400000596,2249.907,2255.60400000596,1,2255.60400000596,0,0,NA,"Click To Continue","Continue Button",2,"object-21","Instructions",NA,"SUPPRF16300"
"6",1692005871580,"14/08/2023 09:37:51",1692009471580,1,"14/08/2023 11:37:51",140743,17,"task-w8vi",NA,31172519,9241769,NA,"complete",NA,"64d9ff71624435bf2a23761d","computer","Desktop or Laptop","Windows 10","Chrome 115.0.0.0","1536x864","1536x707",NA,NA,0,"Pre-Video Feedback Task (Clone)",6,"CDBEAFJGIH",NA,"study_2 (video_feedback and feedback_list_2)","Feedback_ranking_L2_first","Spreadsheet1",1,"Instructions","Screen 4","x6yf73",5,"continue","",7319.49699998808,7316.704,7319.49699998808,7319.49699998808,7316.704,7319.49699998808,1,7319.49699998808,0,0,NA,"Click To Continue","Continue Button",2,"object-24","Instructions",NA,"SUPPRF16300"
"7",1692005872324,"14/08/2023 09:37:52",1692009472324,1,"14/08/2023 11:37:52",140743,17,"task-w8vi",NA,31172519,9241769,NA,"complete",NA,"64d9ff71624435bf2a23761d","computer","Desktop or Laptop","Windows 10","Chrome 115.0.0.0","1536x864","1536x707",NA,NA,0,"Pre-Video Feedback Task (Clone)",6,"CDBEAFJGIH",NA,"study_2 (video_feedback and feedback_list_2)","Feedback_ranking_L2_first","Spreadsheet1",1,"Instructions","Screen 7","rb1b6r",6,"continue","",746.593000000001,733.413,746.593000000001,746.593000000001,733.413,746.593000000001,1,746.593000000001,0,0,NA,"Click To Continue","Continue Button",2,"object-49","Instructions",NA,"SUPPRF16300"
"8",1692005914735,"14/08/2023 09:38:34",1692009514735,1,"14/08/2023 11:38:34",140743,17,"task-w8vi",NA,31172519,9241769,NA,"complete",NA,"64d9ff71624435bf2a23761d","computer","Desktop or Laptop","Windows 10","Chrome 115.0.0.0","1536x864","1536x707",NA,NA,0,"Pre-Video Feedback Task (Clone)",6,"CDBEAFJGIH",NA,"study_2 (video_feedback and feedback_list_2)","Feedback_ranking_L2_first","Spreadsheet1",1,"Practice run","Screen 1","ncwxmk",1,"continue","",42420.779999994,42416.44,42420.779999994,42420.779999994,42416.44,42420.779999994,1,42420.779999994,0,0,NA,"Click To Continue","Continue Button",2,"object-29","Practice run",NA,"SUPPRF16300"
"9",1692005914737,"14/08/2023 09:38:34",1692009514737,1,"14/08/2023 11:38:34",140743,17,"task-w8vi",NA,31172519,9241769,NA,"complete",NA,"64d9ff71624435bf2a23761d","computer","Desktop or Laptop","Windows 10","Chrome 115.0.0.0","1536x864","1536x707",NA,NA,0,"Pre-Video Feedback Task (Clone)",6,"CDBEAFJGIH",NA,"study_2 (video_feedback and feedback_list_2)","Feedback_ranking_L2_first","Spreadsheet1",1,"Practice run","Screen 1","ncwxmk",1,"response","Said everything you saw.",12366.605,42416.44,42426.4799999821,12366.605,42416.44,42426.4799999821,1,12366.605,30059.8749999821,0,NA,"Text Entry","Text Entry",5,"object-38","Practice run",NA,"SUPPRF16300"
"10",1692005914737,"14/08/2023 09:38:34",1692009514737,1,"14/08/2023 11:38:34",140743,17,"task-w8vi",NA,31172519,9241769,NA,"complete",NA,"64d9ff71624435bf2a23761d","computer","Desktop or Laptop","Windows 10","Chrome 115.0.0.0","1536x864","1536x707",NA,NA,0,"Pre-Video Feedback Task (Clone)",6,"CDBEAFJGIH",NA,"study_2 (video_feedback and feedback_list_2)","Feedback_ranking_L2_first","Spreadsheet1",1,"Practice run","Screen 1","ncwxmk",1,"response","Satisfactory explanation ",24366.456,42416.44,42426.8799999881,24366.456,42416.44,42426.8799999881,1,24366.456,18060.4239999881,0,NA,"Text Entry","Text Entry",6,"object-40","Practice run",NA,"SUPPRF16300"
"11",1692005914738,"14/08/2023 09:38:34",1692009514738,1,"14/08/2023 11:38:34",140743,17,"task-w8vi",NA,31172519,9241769,NA,"complete",NA,"64d9ff71624435bf2a23761d","computer","Desktop or Laptop","Windows 10","Chrome 115.0.0.0","1536x864","1536x707",NA,NA,0,"Pre-Video Feedback Task (Clone)",6,"CDBEAFJGIH",NA,"study_2 (video_feedback and feedback_list_2)","Feedback_ranking_L2_first","Spreadsheet1",NA,"","","",NA,"5","END",NA,NA,NA,NA,NA,NA,0,NA,NA,NA,NA,"","",NA,"","",NA,"SUPPRF16300"
"1",1692006955891,"14/08/2023 09:55:55",1692010555891,1,"14/08/2023 11:55:55",140743,17,"task-w8vi",NA,31172875,9241755,NA,"complete",NA,"64d9ff59202825d1e987df74","tablet","Apple iPad","iOS 16.5","Chrome 115.0.5790.160","810x1080","1080x695",NA,NA,0,"Pre-Video Feedback Task (Clone)",6,"ABJCIDHEGF",NA,"study_2 (video_feedback and feedback_list_2)","Feedback_ranking_L2_first","Spreadsheet1",NA,"","","",NA,"5","BEGIN",NA,NA,NA,NA,NA,NA,0,NA,NA,NA,NA,"","",NA,"","",NA,"SUPPRF13097"
"2",1692006963451,"14/08/2023 09:56:03",1692010563451,1,"14/08/2023 11:56:03",140743,17,"task-w8vi",NA,31172875,9241755,NA,"complete",NA,"64d9ff59202825d1e987df74","tablet","Apple iPad","iOS 16.5","Chrome 115.0.5790.160","810x1080","1080x695",NA,NA,0,"Pre-Video Feedback Task (Clone)",6,"ABJCIDHEGF",NA,"study_2 (video_feedback and feedback_list_2)","Feedback_ranking_L2_first","Spreadsheet1",1,"Instructions","Screen 1","by7fw4",1,"continue","",7552,7535,7552,7552,7535,7552,1,7552,0,0,NA,"Click To Continue","Continue Button",2,"object-15","Instructions",NA,"SUPPRF13097"
"3",1692006965632,"14/08/2023 09:56:05",1692010565632,1,"14/08/2023 11:56:05",140743,17,"task-w8vi",NA,31172875,9241755,NA,"complete",NA,"64d9ff59202825d1e987df74","tablet","Apple iPad","iOS 16.5","Chrome 115.0.5790.160","810x1080","1080x695",NA,NA,0,"Pre-Video Feedback Task (Clone)",6,"ABJCIDHEGF",NA,"study_2 (video_feedback and feedback_list_2)","Feedback_ranking_L2_first","Spreadsheet1",1,"Instructions","Screen 2","32ryug",2,"continue","",2198,2182,2198,2198,2182,2198,1,2198,0,0,NA,"Click To Continue","Continue Button",2,"object-18","Instructions",NA,"SUPPRF13097"
"4",1692006972879,"14/08/2023 09:56:12",1692010572879,1,"14/08/2023 11:56:12",140743,17,"task-w8vi",NA,31172875,9241755,NA,"complete",NA,"64d9ff59202825d1e987df74","tablet","Apple iPad","iOS 16.5","Chrome 115.0.5790.160","810x1080","1080x695",NA,NA,0,"Pre-Video Feedback Task (Clone)",6,"ABJCIDHEGF",NA,"study_2 (video_feedback and feedback_list_2)","Feedback_ranking_L2_first","Spreadsheet1",1,"Instructions","Screen 6","qfz25j",3,"continue","",7265,7248,7265,7265,7248,7265,1,7265,0,0,NA,"Click To Continue","Continue Button",2,"object-44","Instructions",NA,"SUPPRF13097"
"5",1692006976345,"14/08/2023 09:56:16",1692010576345,1,"14/08/2023 11:56:16",140743,17,"task-w8vi",NA,31172875,9241755,NA,"complete",NA,"64d9ff59202825d1e987df74","tablet","Apple iPad","iOS 16.5","Chrome 115.0.5790.160","810x1080","1080x695",NA,NA,0,"Pre-Video Feedback Task (Clone)",6,"ABJCIDHEGF",NA,"study_2 (video_feedback and feedback_list_2)","Feedback_ranking_L2_first","Spreadsheet1",1,"Instructions","Screen 3","oiajeu",4,"continue","",3481,3465,3481,3481,3465,3481,1,3481,0,0,NA,"Click To Continue","Continue Button",2,"object-21","Instructions",NA,"SUPPRF13097"
"6",1692006984327,"14/08/2023 09:56:24",1692010584327,1,"14/08/2023 11:56:24",140743,17,"task-w8vi",NA,31172875,9241755,NA,"complete",NA,"64d9ff59202825d1e987df74","tablet","Apple iPad","iOS 16.5","Chrome 115.0.5790.160","810x1080","1080x695",NA,NA,0,"Pre-Video Feedback Task (Clone)",6,"ABJCIDHEGF",NA,"study_2 (video_feedback and feedback_list_2)","Feedback_ranking_L2_first","Spreadsheet1",1,"Instructions","Screen 4","x6yf73",5,"continue","",7999,7982,7999,7999,7982,7999,1,7999,0,0,NA,"Click To Continue","Continue Button",2,"object-24","Instructions",NA,"SUPPRF13097"
"7",1692006987675,"14/08/2023 09:56:27",1692010587675,1,"14/08/2023 11:56:27",140743,17,"task-w8vi",NA,31172875,9241755,NA,"complete",NA,"64d9ff59202825d1e987df74","tablet","Apple iPad","iOS 16.5","Chrome 115.0.5790.160","810x1080","1080x695",NA,NA,0,"Pre-Video Feedback Task (Clone)",6,"ABJCIDHEGF",NA,"study_2 (video_feedback and feedback_list_2)","Feedback_ranking_L2_first","Spreadsheet1",1,"Instructions","Screen 7","rb1b6r",6,"continue","",3364,3348,3364,3364,3348,3364,1,3364,0,0,NA,"Click To Continue","Continue Button",2,"object-49","Instructions",NA,"SUPPRF13097"
"8",1692007066863,"14/08/2023 09:57:46",1692010666863,1,"14/08/2023 11:57:46",140743,17,"task-w8vi",NA,31172875,9241755,NA,"complete",NA,"64d9ff59202825d1e987df74","tablet","Apple iPad","iOS 16.5","Chrome 115.0.5790.160","810x1080","1080x695",NA,NA,0,"Pre-Video Feedback Task (Clone)",6,"ABJCIDHEGF",NA,"study_2 (video_feedback and feedback_list_2)","Feedback_ranking_L2_first","Spreadsheet1",NA,"","","",NA,"5","BEGIN",NA,NA,NA,NA,NA,NA,0,NA,NA,NA,NA,"","",NA,"","",NA,"SUPPRF13097"
"9",1692007095096,"14/08/2023 09:58:15",1692010695096,1,"14/08/2023 11:58:15",140743,17,"task-w8vi",NA,31172875,9241755,NA,"complete",NA,"64d9ff59202825d1e987df74","tablet","Apple iPad","iOS 16.5","Chrome 115.0.5790.160","810x1080","1080x695",NA,NA,0,"Pre-Video Feedback Task (Clone)",6,"ABJCIDHEGF",NA,"study_2 (video_feedback and feedback_list_2)","Feedback_ranking_L2_first","Spreadsheet1",1,"Practice run","Screen 1","ncwxmk",1,"continue","",28222,28205,28222,28222,28205,28222,1,28222,0,0,NA,"Click To Continue","Continue Button",2,"object-29","Practice run",NA,"SUPPRF13097"
"10",1692007095103,"14/08/2023 09:58:15",1692010695103,1,"14/08/2023 11:58:15",140743,17,"task-w8vi",NA,31172875,9241755,NA,"complete",NA,"64d9ff59202825d1e987df74","tablet","Apple iPad","iOS 16.5","Chrome 115.0.5790.160","810x1080","1080x695",NA,NA,0,"Pre-Video Feedback Task (Clone)",6,"ABJCIDHEGF",NA,"study_2 (video_feedback and feedback_list_2)","Feedback_ranking_L2_first","Spreadsheet1",1,"Practice run","Screen 1","ncwxmk",1,"response","the description was adequate",3615,28205,28222,3615,28205,28222,1,3615,24607,0,NA,"Text Entry","Text Entry",5,"object-38","Practice run",NA,"SUPPRF13097"
"11",1692007095104,"14/08/2023 09:58:15",1692010695104,1,"14/08/2023 11:58:15",140743,17,"task-w8vi",NA,31172875,9241755,NA,"complete",NA,"64d9ff59202825d1e987df74","tablet","Apple iPad","iOS 16.5","Chrome 115.0.5790.160","810x1080","1080x695",NA,NA,0,"Pre-Video Feedback Task (Clone)",6,"ABJCIDHEGF",NA,"study_2 (video_feedback and feedback_list_2)","Feedback_ranking_L2_first","Spreadsheet1",1,"Practice run","Screen 1","ncwxmk",1,"response","her peformance is satisfactory ",14260,28205,28222,14260,28205,28222,1,14260,13962,0,NA,"Text Entry","Text Entry",6,"object-40","Practice run",NA,"SUPPRF13097"
"12",1692007095107,"14/08/2023 09:58:15",1692010695107,1,"14/08/2023 11:58:15",140743,17,"task-w8vi",NA,31172875,9241755,NA,"complete",NA,"64d9ff59202825d1e987df74","tablet","Apple iPad","iOS 16.5","Chrome 115.0.5790.160","810x1080","1080x695",NA,NA,0,"Pre-Video Feedback Task (Clone)",6,"ABJCIDHEGF",NA,"study_2 (video_feedback and feedback_list_2)","Feedback_ranking_L2_first","Spreadsheet1",NA,"","","",NA,"5","END",NA,NA,NA,NA,NA,NA,0,NA,NA,NA,NA,"","",NA,"","",NA,"SUPPRF13097"
"1",1692017656021,"14/08/2023 12:54:16",1692021256021,1,"14/08/2023 14:54:16",140743,17,"task-w8vi",NA,31176415,9242534,NA,"complete",NA,"64da2b07dffffeb613275ea3","computer","Desktop or Laptop","Windows 10","Chrome 115.0.0.0","1536x864","1287x741",NA,NA,0,"Pre-Video Feedback Task (Clone)",6,"IJHAGBFCED",NA,"study_2 (video_feedback and feedback_list_2)","Feedback_ranking_L2_first","Spreadsheet1",NA,"","","",NA,"5","BEGIN",NA,NA,NA,NA,NA,NA,0,NA,NA,NA,NA,"","",NA,"","",NA,"SUPPRF44269"
"2",1692017670978,"14/08/2023 12:54:30",1692021270978,1,"14/08/2023 14:54:30",140743,17,"task-w8vi",NA,31176415,9242534,NA,"complete",NA,"64da2b07dffffeb613275ea3","computer","Desktop or Laptop","Windows 10","Chrome 115.0.0.0","1536x864","1287x741",NA,NA,0,"Pre-Video Feedback Task (Clone)",6,"IJHAGBFCED",NA,"study_2 (video_feedback and feedback_list_2)","Feedback_ranking_L2_first","Spreadsheet1",1,"Instructions","Screen 1","by7fw4",1,"continue","",14973.9270000238,14967.206,14973.9270000238,14973.9270000238,14967.206,14973.9270000238,1,14973.9270000238,0,0,NA,"Click To Continue","Continue Button",2,"object-15","Instructions",NA,"SUPPRF44269"
"3",1692017674896,"14/08/2023 12:54:34",1692021274896,1,"14/08/2023 14:54:34",140743,17,"task-w8vi",NA,31176415,9242534,NA,"complete",NA,"64da2b07dffffeb613275ea3","computer","Desktop or Laptop","Windows 10","Chrome 115.0.0.0","1536x864","1287x741",NA,NA,0,"Pre-Video Feedback Task (Clone)",6,"IJHAGBFCED",NA,"study_2 (video_feedback and feedback_list_2)","Feedback_ranking_L2_first","Spreadsheet1",1,"Instructions","Screen 2","32ryug",2,"continue","",3924.52099997616,3916.775,3924.52099997616,3924.52099997616,3916.775,3924.52099997616,1,3924.52099997616,0,0,NA,"Click To Continue","Continue Button",2,"object-18","Instructions",NA,"SUPPRF44269"
"4",1692017683659,"14/08/2023 12:54:43",1692021283659,1,"14/08/2023 14:54:43",140743,17,"task-w8vi",NA,31176415,9242534,NA,"complete",NA,"64da2b07dffffeb613275ea3","computer","Desktop or Laptop","Windows 10","Chrome 115.0.0.0","1536x864","1287x741",NA,NA,0,"Pre-Video Feedback Task (Clone)",6,"IJHAGBFCED",NA,"study_2 (video_feedback and feedback_list_2)","Feedback_ranking_L2_first","Spreadsheet1",1,"Instructions","Screen 6","qfz25j",3,"continue","",8770.54599998808,8766.965,8770.54599998808,8770.54599998808,8766.965,8770.54599998808,1,8770.54599998808,0,0,NA,"Click To Continue","Continue Button",2,"object-44","Instructions",NA,"SUPPRF44269"
"5",1692017692842,"14/08/2023 12:54:52",1692021292842,1,"14/08/2023 14:54:52",140743,17,"task-w8vi",NA,31176415,9242534,NA,"complete",NA,"64da2b07dffffeb613275ea3","computer","Desktop or Laptop","Windows 10","Chrome 115.0.0.0","1536x864","1287x741",NA,NA,0,"Pre-Video Feedback Task (Clone)",6,"IJHAGBFCED",NA,"study_2 (video_feedback and feedback_list_2)","Feedback_ranking_L2_first","Spreadsheet1",1,"Instructions","Screen 3","oiajeu",4,"continue","",9186.48100002384,9183.23,9186.48100002384,9186.48100002384,9183.23,9186.48100002384,1,9186.48100002384,0,0,NA,"Click To Continue","Continue Button",2,"object-21","Instructions",NA,"SUPPRF44269"
"6",1692017710257,"14/08/2023 12:55:10",1692021310257,1,"14/08/2023 14:55:10",140743,17,"task-w8vi",NA,31176415,9242534,NA,"complete",NA,"64da2b07dffffeb613275ea3","computer","Desktop or Laptop","Windows 10","Chrome 115.0.0.0","1536x864","1287x741",NA,NA,0,"Pre-Video Feedback Task (Clone)",6,"IJHAGBFCED",NA,"study_2 (video_feedback and feedback_list_2)","Feedback_ranking_L2_first","Spreadsheet1",1,"Instructions","Screen 4","x6yf73",5,"continue","",17416.75,17400.166,17416.75,17416.75,17400.166,17416.75,1,17416.75,0,0,NA,"Click To Continue","Continue Button",2,"object-24","Instructions",NA,"SUPPRF44269"
"7",1692017711817,"14/08/2023 12:55:11",1692021311817,1,"14/08/2023 14:55:11",140743,17,"task-w8vi",NA,31176415,9242534,NA,"complete",NA,"64da2b07dffffeb613275ea3","computer","Desktop or Laptop","Windows 10","Chrome 115.0.0.0","1536x864","1287x741",NA,NA,0,"Pre-Video Feedback Task (Clone)",6,"IJHAGBFCED",NA,"study_2 (video_feedback and feedback_list_2)","Feedback_ranking_L2_first","Spreadsheet1",1,"Instructions","Screen 7","rb1b6r",6,"continue","",1578.18499998808,1566.788,1578.18499998808,1578.18499998808,1566.788,1578.18499998808,1,1578.18499998808,0,0,NA,"Click To Continue","Continue Button",2,"object-49","Instructions",NA,"SUPPRF44269"
"8",1692017813047,"14/08/2023 12:56:53",1692021413047,1,"14/08/2023 14:56:53",140743,17,"task-w8vi",NA,31176415,9242534,NA,"complete",NA,"64da2b07dffffeb613275ea3","computer","Desktop or Laptop","Windows 10","Chrome 115.0.0.0","1536x864","1287x741",NA,NA,0,"Pre-Video Feedback Task (Clone)",6,"IJHAGBFCED",NA,"study_2 (video_feedback and feedback_list_2)","Feedback_ranking_L2_first","Spreadsheet1",1,"Practice run","Screen 1","ncwxmk",1,"continue","",101234.291,101217.585,101234.291,101234.291,101217.585,101234.291,1,101234.291,0,0,NA,"Click To Continue","Continue Button",2,"object-29","Practice run",NA,"SUPPRF44269"
"9",1692017813049,"14/08/2023 12:56:53",1692021413049,1,"14/08/2023 14:56:53",140743,17,"task-w8vi",NA,31176415,9242534,NA,"complete",NA,"64da2b07dffffeb613275ea3","computer","Desktop or Laptop","Windows 10","Chrome 115.0.0.0","1536x864","1287x741",NA,NA,0,"Pre-Video Feedback Task (Clone)",6,"IJHAGBFCED",NA,"study_2 (video_feedback and feedback_list_2)","Feedback_ranking_L2_first","Spreadsheet1",1,"Practice run","Screen 1","ncwxmk",1,"response","You described what was asked",67950.612,101217.585,101234.291,67950.612,101217.585,101234.291,1,67950.612,33283.679,0,NA,"Text Entry","Text Entry",5,"object-38","Practice run",NA,"SUPPRF44269"
"10",1692017813049,"14/08/2023 12:56:53",1692021413049,1,"14/08/2023 14:56:53",140743,17,"task-w8vi",NA,31176415,9242534,NA,"complete",NA,"64da2b07dffffeb613275ea3","computer","Desktop or Laptop","Windows 10","Chrome 115.0.0.0","1536x864","1287x741",NA,NA,0,"Pre-Video Feedback Task (Clone)",6,"IJHAGBFCED",NA,"study_2 (video_feedback and feedback_list_2)","Feedback_ranking_L2_first","Spreadsheet1",1,"Practice run","Screen 1","ncwxmk",1,"response","The description of the classroom was okay",73600.736,101217.585,101234.291,73600.736,101217.585,101234.291,1,73600.736,27633.555,0,NA,"Text Entry","Text Entry",6,"object-40","Practice run",NA,"SUPPRF44269"
"11",1692017813050,"14/08/2023 12:56:53",1692021413050,1,"14/08/2023 14:56:53",140743,17,"task-w8vi",NA,31176415,9242534,NA,"complete",NA,"64da2b07dffffeb613275ea3","computer","Desktop or Laptop","Windows 10","Chrome 115.0.0.0","1536x864","1287x741",NA,NA,0,"Pre-Video Feedback Task (Clone)",6,"IJHAGBFCED",NA,"study_2 (video_feedback and feedback_list_2)","Feedback_ranking_L2_first","Spreadsheet1",NA,"","","",NA,"5","END",NA,NA,NA,NA,NA,NA,0,NA,NA,NA,NA,"","",NA,"","",NA,"SUPPRF44269"
"1",1692031152597,"14/08/2023 16:39:12",1692034752597,1,"14/08/2023 18:39:12",140743,17,"task-w8vi",NA,31181272,9244017,NA,"complete",NA,"64da50a5b280d5d8e5e9eb1f","computer","Desktop or Laptop","Windows 10","Chrome 114.0.0.0","1280x720","1280x609",NA,NA,0,"Pre-Video Feedback Task (Clone)",6,"DECFBGAHJI",NA,"study_2 (video_feedback and feedback_list_2)","Feedback_ranking_L2_first","Spreadsheet1",NA,"","","",NA,"5","BEGIN",NA,NA,NA,NA,NA,NA,0,NA,NA,NA,NA,"","",NA,"","",NA,"SUPPRF53772"
"2",1692031156152,"14/08/2023 16:39:16",1692034756152,1,"14/08/2023 18:39:16",140743,17,"task-w8vi",NA,31181272,9244017,NA,"complete",NA,"64da50a5b280d5d8e5e9eb1f","computer","Desktop or Laptop","Windows 10","Chrome 114.0.0.0","1280x720","1280x609",NA,NA,0,"Pre-Video Feedback Task (Clone)",6,"DECFBGAHJI",NA,"study_2 (video_feedback and feedback_list_2)","Feedback_ranking_L2_first","Spreadsheet1",1,"Instructions","Screen 1","by7fw4",1,"continue","",3599.714,3582.974,3599.714,3599.714,3582.974,3599.714,1,3599.714,0,0,NA,"Click To Continue","Continue Button",2,"object-15","Instructions",NA,"SUPPRF53772"
"3",1692031157477,"14/08/2023 16:39:17",1692034757477,1,"14/08/2023 18:39:17",140743,17,"task-w8vi",NA,31181272,9244017,NA,"complete",NA,"64da50a5b280d5d8e5e9eb1f","computer","Desktop or Laptop","Windows 10","Chrome 114.0.0.0","1280x720","1280x609",NA,NA,0,"Pre-Video Feedback Task (Clone)",6,"DECFBGAHJI",NA,"study_2 (video_feedback and feedback_list_2)","Feedback_ranking_L2_first","Spreadsheet1",1,"Instructions","Screen 2","32ryug",2,"continue","",1347.51699961853,1332.613,1347.51699961853,1347.51699961853,1332.613,1347.51699961853,1,1347.51699961853,0,0,NA,"Click To Continue","Continue Button",2,"object-18","Instructions",NA,"SUPPRF53772"
"4",1692031160405,"14/08/2023 16:39:20",1692034760405,1,"14/08/2023 18:39:20",140743,17,"task-w8vi",NA,31181272,9244017,NA,"complete",NA,"64da50a5b280d5d8e5e9eb1f","computer","Desktop or Laptop","Windows 10","Chrome 114.0.0.0","1280x720","1280x609",NA,NA,0,"Pre-Video Feedback Task (Clone)",6,"DECFBGAHJI",NA,"study_2 (video_feedback and feedback_list_2)","Feedback_ranking_L2_first","Spreadsheet1",1,"Instructions","Screen 6","qfz25j",3,"continue","",2943.90399961853,2933.268,2943.90399961853,2943.90399961853,2933.268,2943.90399961853,1,2943.90399961853,0,0,NA,"Click To Continue","Continue Button",2,"object-44","Instructions",NA,"SUPPRF53772"
"5",1692031162091,"14/08/2023 16:39:22",1692034762091,1,"14/08/2023 18:39:22",140743,17,"task-w8vi",NA,31181272,9244017,NA,"complete",NA,"64da50a5b280d5d8e5e9eb1f","computer","Desktop or Laptop","Windows 10","Chrome 114.0.0.0","1280x720","1280x609",NA,NA,0,"Pre-Video Feedback Task (Clone)",6,"DECFBGAHJI",NA,"study_2 (video_feedback and feedback_list_2)","Feedback_ranking_L2_first","Spreadsheet1",1,"Instructions","Screen 3","oiajeu",4,"continue","",1696.13599961853,1683.137,1696.13599961853,1696.13599961853,1683.137,1696.13599961853,1,1696.13599961853,0,0,NA,"Click To Continue","Continue Button",2,"object-21","Instructions",NA,"SUPPRF53772"
"6",1692031167332,"14/08/2023 16:39:27",1692034767332,1,"14/08/2023 18:39:27",140743,17,"task-w8vi",NA,31181272,9244017,NA,"complete",NA,"64da50a5b280d5d8e5e9eb1f","computer","Desktop or Laptop","Windows 10","Chrome 114.0.0.0","1280x720","1280x609",NA,NA,0,"Pre-Video Feedback Task (Clone)",6,"DECFBGAHJI",NA,"study_2 (video_feedback and feedback_list_2)","Feedback_ranking_L2_first","Spreadsheet1",1,"Instructions","Screen 4","x6yf73",5,"continue","",5254.49899961853,5248.948,5254.49899961853,5254.49899961853,5248.948,5254.49899961853,1,5254.49899961853,0,0,NA,"Click To Continue","Continue Button",2,"object-24","Instructions",NA,"SUPPRF53772"
"7",1692031168375,"14/08/2023 16:39:28",1692034768375,1,"14/08/2023 18:39:28",140743,17,"task-w8vi",NA,31181272,9244017,NA,"complete",NA,"64da50a5b280d5d8e5e9eb1f","computer","Desktop or Laptop","Windows 10","Chrome 114.0.0.0","1280x720","1280x609",NA,NA,0,"Pre-Video Feedback Task (Clone)",6,"DECFBGAHJI",NA,"study_2 (video_feedback and feedback_list_2)","Feedback_ranking_L2_first","Spreadsheet1",1,"Instructions","Screen 7","rb1b6r",6,"continue","",1047.95100019073,1033.665,1047.95100019073,1047.95100019073,1033.665,1047.95100019073,1,1047.95100019073,0,0,NA,"Click To Continue","Continue Button",2,"object-49","Instructions",NA,"SUPPRF53772"
"8",1692031191450,"14/08/2023 16:39:51",1692034791450,1,"14/08/2023 18:39:51",140743,17,"task-w8vi",NA,31181272,9244017,NA,"complete",NA,"64da50a5b280d5d8e5e9eb1f","computer","Desktop or Laptop","Windows 10","Chrome 114.0.0.0","1280x720","1280x609",NA,NA,0,"Pre-Video Feedback Task (Clone)",6,"DECFBGAHJI",NA,"study_2 (video_feedback and feedback_list_2)","Feedback_ranking_L2_first","Spreadsheet1",1,"Practice run","Screen 1","ncwxmk",1,"continue","",23063.254,23046.601,23063.254,23063.254,23046.601,23063.254,1,23063.254,0,0,NA,"Click To Continue","Continue Button",2,"object-29","Practice run",NA,"SUPPRF53772"
"9",1692031191462,"14/08/2023 16:39:51",1692034791462,1,"14/08/2023 18:39:51",140743,17,"task-w8vi",NA,31181272,9244017,NA,"complete",NA,"64da50a5b280d5d8e5e9eb1f","computer","Desktop or Laptop","Windows 10","Chrome 114.0.0.0","1280x720","1280x609",NA,NA,0,"Pre-Video Feedback Task (Clone)",6,"DECFBGAHJI",NA,"study_2 (video_feedback and feedback_list_2)","Feedback_ranking_L2_first","Spreadsheet1",1,"Practice run","Screen 1","ncwxmk",1,"response","This gave a vague idea",6615.609,23046.601,23063.254,6615.609,23046.601,23063.254,1,6615.609,16447.645,0,NA,"Text Entry","Text Entry",5,"object-38","Practice run",NA,"SUPPRF53772"
"10",1692031191464,"14/08/2023 16:39:51",1692034791464,1,"14/08/2023 18:39:51",140743,17,"task-w8vi",NA,31181272,9244017,NA,"complete",NA,"64da50a5b280d5d8e5e9eb1f","computer","Desktop or Laptop","Windows 10","Chrome 114.0.0.0","1280x720","1280x609",NA,NA,0,"Pre-Video Feedback Task (Clone)",6,"DECFBGAHJI",NA,"study_2 (video_feedback and feedback_list_2)","Feedback_ranking_L2_first","Spreadsheet1",1,"Practice run","Screen 1","ncwxmk",1,"response","The descirption was okay",12497.945,23046.601,23063.254,12497.945,23046.601,23063.254,1,12497.945,10565.309,0,NA,"Text Entry","Text Entry",6,"object-40","Practice run",NA,"SUPPRF53772"
"11",1692031191475,"14/08/2023 16:39:51",1692034791475,1,"14/08/2023 18:39:51",140743,17,"task-w8vi",NA,31181272,9244017,NA,"complete",NA,"64da50a5b280d5d8e5e9eb1f","computer","Desktop or Laptop","Windows 10","Chrome 114.0.0.0","1280x720","1280x609",NA,NA,0,"Pre-Video Feedback Task (Clone)",6,"DECFBGAHJI",NA,"study_2 (video_feedback and feedback_list_2)","Feedback_ranking_L2_first","Spreadsheet1",NA,"","","",NA,"5","END",NA,NA,NA,NA,NA,NA,0,NA,NA,NA,NA,"","",NA,"","",NA,"SUPPRF53772"
"1",1692447827500,"19/08/2023 12:23:47",1692451427500,1,"19/08/2023 14:23:47",140743,17,"task-w8vi",NA,31255481,9265347,NA,"complete",NA,"64e0bcd5bf3ef3ff724048a9","computer","Desktop or Laptop","Windows 10","Edge 114.0.1823.82","1366x768","1311x649",NA,NA,0,"Pre-Video Feedback Task (Clone)",6,"BCADJEIFHG",NA,"study_2 (video_feedback and feedback_list_2)","Feedback_ranking_L2_first","Spreadsheet1",NA,"","","",NA,"5","BEGIN",NA,NA,NA,NA,NA,NA,0,NA,NA,NA,NA,"","",NA,"","",NA,"SUPPRF88097"
"2",1692447832926,"19/08/2023 12:23:52",1692451432926,1,"19/08/2023 14:23:52",140743,17,"task-w8vi",NA,31255481,9265347,NA,"complete",NA,"64e0bcd5bf3ef3ff724048a9","computer","Desktop or Laptop","Windows 10","Edge 114.0.1823.82","1366x768","1311x649",NA,NA,0,"Pre-Video Feedback Task (Clone)",6,"BCADJEIFHG",NA,"study_2 (video_feedback and feedback_list_2)","Feedback_ranking_L2_first","Spreadsheet1",1,"Instructions","Screen 1","by7fw4",1,"continue","",5436.34499990463,5422.249,5436.34499990463,5436.34499990463,5422.249,5436.34499990463,1,5436.34499990463,0,0,NA,"Click To Continue","Continue Button",2,"object-15","Instructions",NA,"SUPPRF88097"
"3",1692447834517,"19/08/2023 12:23:54",1692451434517,1,"19/08/2023 14:23:54",140743,17,"task-w8vi",NA,31255481,9265347,NA,"complete",NA,"64e0bcd5bf3ef3ff724048a9","computer","Desktop or Laptop","Windows 10","Edge 114.0.1823.82","1366x768","1311x649",NA,NA,0,"Pre-Video Feedback Task (Clone)",6,"BCADJEIFHG",NA,"study_2 (video_feedback and feedback_list_2)","Feedback_ranking_L2_first","Spreadsheet1",1,"Instructions","Screen 2","32ryug",2,"continue","",1604.89599961853,1601.486,1604.89599961853,1604.89599961853,1601.486,1604.89599961853,1,1604.89599961853,0,0,NA,"Click To Continue","Continue Button",2,"object-18","Instructions",NA,"SUPPRF88097"
"4",1692447840651,"19/08/2023 12:24:00",1692451440651,1,"19/08/2023 14:24:00",140743,17,"task-w8vi",NA,31255481,9265347,NA,"complete",NA,"64e0bcd5bf3ef3ff724048a9","computer","Desktop or Laptop","Windows 10","Edge 114.0.1823.82","1366x768","1311x649",NA,NA,0,"Pre-Video Feedback Task (Clone)",6,"BCADJEIFHG",NA,"study_2 (video_feedback and feedback_list_2)","Feedback_ranking_L2_first","Spreadsheet1",1,"Instructions","Screen 6","qfz25j",3,"continue","",6137.40999961853,6122.073,6137.40999961853,6137.40999961853,6122.073,6137.40999961853,1,6137.40999961853,0,0,NA,"Click To Continue","Continue Button",2,"object-44","Instructions",NA,"SUPPRF88097"
"5",1692447845650,"19/08/2023 12:24:05",1692451445650,1,"19/08/2023 14:24:05",140743,17,"task-w8vi",NA,31255481,9265347,NA,"complete",NA,"64e0bcd5bf3ef3ff724048a9","computer","Desktop or Laptop","Windows 10","Edge 114.0.1823.82","1366x768","1311x649",NA,NA,0,"Pre-Video Feedback Task (Clone)",6,"BCADJEIFHG",NA,"study_2 (video_feedback and feedback_list_2)","Feedback_ranking_L2_first","Spreadsheet1",1,"Instructions","Screen 3","oiajeu",4,"continue","",5014.7369997139,5004.416,5014.7369997139,5014.7369997139,5004.416,5014.7369997139,1,5014.7369997139,0,0,NA,"Click To Continue","Continue Button",2,"object-21","Instructions",NA,"SUPPRF88097"
"6",1692447854047,"19/08/2023 12:24:14",1692451454047,1,"19/08/2023 14:24:14",140743,17,"task-w8vi",NA,31255481,9265347,NA,"complete",NA,"64e0bcd5bf3ef3ff724048a9","computer","Desktop or Laptop","Windows 10","Edge 114.0.1823.82","1366x768","1311x649",NA,NA,0,"Pre-Video Feedback Task (Clone)",6,"BCADJEIFHG",NA,"study_2 (video_feedback and feedback_list_2)","Feedback_ranking_L2_first","Spreadsheet1",1,"Instructions","Screen 4","x6yf73",5,"continue","",8407.021,8390.849,8407.021,8407.021,8390.849,8407.021,1,8407.021,0,0,NA,"Click To Continue","Continue Button",2,"object-24","Instructions",NA,"SUPPRF88097"
"7",1692447855746,"19/08/2023 12:24:15",1692451455746,1,"19/08/2023 14:24:15",140743,17,"task-w8vi",NA,31255481,9265347,NA,"complete",NA,"64e0bcd5bf3ef3ff724048a9","computer","Desktop or Laptop","Windows 10","Edge 114.0.1823.82","1366x768","1311x649",NA,NA,0,"Pre-Video Feedback Task (Clone)",6,"BCADJEIFHG",NA,"study_2 (video_feedback and feedback_list_2)","Feedback_ranking_L2_first","Spreadsheet1",1,"Instructions","Screen 7","rb1b6r",6,"continue","",1715.672,1701.475,1715.672,1715.672,1701.475,1715.672,1,1715.672,0,0,NA,"Click To Continue","Continue Button",2,"object-49","Instructions",NA,"SUPPRF88097"
"8",1692447894962,"19/08/2023 12:24:54",1692451494962,1,"19/08/2023 14:24:54",140743,17,"task-w8vi",NA,31255481,9265347,NA,"complete",NA,"64e0bcd5bf3ef3ff724048a9","computer","Desktop or Laptop","Windows 10","Edge 114.0.1823.82","1366x768","1311x649",NA,NA,0,"Pre-Video Feedback Task (Clone)",6,"BCADJEIFHG",NA,"study_2 (video_feedback and feedback_list_2)","Feedback_ranking_L2_first","Spreadsheet1",1,"Practice run","Screen 1","ncwxmk",1,"continue","",39218.096,39201.448,39218.096,39218.096,39201.448,39218.096,1,39218.096,0,0,NA,"Click To Continue","Continue Button",2,"object-29","Practice run",NA,"SUPPRF88097"
"9",1692447905537,"19/08/2023 12:25:05",1692451505537,1,"19/08/2023 14:25:05",140743,17,"task-w8vi",NA,31255481,9265347,NA,"complete",NA,"64e0bcd5bf3ef3ff724048a9","computer","Desktop or Laptop","Windows 10","Edge 114.0.1823.82","1366x768","1311x649",NA,NA,0,"Pre-Video Feedback Task (Clone)",6,"BCADJEIFHG",NA,"study_2 (video_feedback and feedback_list_2)","Feedback_ranking_L2_first","Spreadsheet1",1,"Practice run","Screen 1","ncwxmk",1,"continue","",49797.197,49794.309,49797.197,49797.197,49794.309,49797.197,1,49797.197,0,0,NA,"Click To Continue","Continue Button",2,"object-29","Practice run",NA,"SUPPRF88097"
"10",1692447905543,"19/08/2023 12:25:05",1692451505543,1,"19/08/2023 14:25:05",140743,17,"task-w8vi",NA,31255481,9265347,NA,"complete",NA,"64e0bcd5bf3ef3ff724048a9","computer","Desktop or Laptop","Windows 10","Edge 114.0.1823.82","1366x768","1311x649",NA,NA,0,"Pre-Video Feedback Task (Clone)",6,"BCADJEIFHG",NA,"study_2 (video_feedback and feedback_list_2)","Feedback_ranking_L2_first","Spreadsheet1",1,"Practice run","Screen 1","ncwxmk",1,"response","you did okay
",21669.199,49794.309,49802.7969999046,21669.199,49794.309,49802.7969999046,1,21669.199,28133.5979999046,0,NA,"Text Entry","Text Entry",5,"object-38","Practice run",NA,"SUPPRF88097"
"11",1692447905543,"19/08/2023 12:25:05",1692451505543,1,"19/08/2023 14:25:05",140743,17,"task-w8vi",NA,31255481,9265347,NA,"complete",NA,"64e0bcd5bf3ef3ff724048a9","computer","Desktop or Laptop","Windows 10","Edge 114.0.1823.82","1366x768","1311x649",NA,NA,0,"Pre-Video Feedback Task (Clone)",6,"BCADJEIFHG",NA,"study_2 (video_feedback and feedback_list_2)","Feedback_ranking_L2_first","Spreadsheet1",1,"Practice run","Screen 1","ncwxmk",1,"response","you spoke well",46041.122,49794.309,49803.4969997139,46041.122,49794.309,49803.4969997139,1,46041.122,3762.37499971389,0,NA,"Text Entry","Text Entry",6,"object-40","Practice run",NA,"SUPPRF88097"
"12",1692447905544,"19/08/2023 12:25:05",1692451505544,1,"19/08/2023 14:25:05",140743,17,"task-w8vi",NA,31255481,9265347,NA,"complete",NA,"64e0bcd5bf3ef3ff724048a9","computer","Desktop or Laptop","Windows 10","Edge 114.0.1823.82","1366x768","1311x649",NA,NA,0,"Pre-Video Feedback Task (Clone)",6,"BCADJEIFHG",NA,"study_2 (video_feedback and feedback_list_2)","Feedback_ranking_L2_first","Spreadsheet1",NA,"","","",NA,"5","END",NA,NA,NA,NA,NA,NA,0,NA,NA,NA,NA,"","",NA,"","",NA,"SUPPRF88097"
"1",1693057090079,"26/08/2023 13:38:10",1693060690079,1,"26/08/2023 15:38:10",140743,17,"task-w8vi",NA,31376743,9292133,NA,"complete",NA,"64ea0abb4fcce2d50f284df2","computer","Desktop or Laptop","Mac OS 10.15.7","Safari 16.0","820x1180","820x1073",NA,NA,0,"Pre-Video Feedback Task (Clone)",6,"HIGJFAEBDC",NA,"study_2 (video_feedback and feedback_list_2)","Feedback_ranking_L2_first","Spreadsheet1",NA,"","","",NA,"5","BEGIN",NA,NA,NA,NA,NA,NA,0,NA,NA,NA,NA,"","",NA,"","",NA,"SUPPRF79831"
"2",1693057117562,"26/08/2023 13:38:37",1693060717562,1,"26/08/2023 15:38:37",140743,17,"task-w8vi",NA,31376743,9292133,NA,"complete",NA,"64ea0abb4fcce2d50f284df2","computer","Desktop or Laptop","Mac OS 10.15.7","Safari 16.0","820x1180","820x1073",NA,NA,0,"Pre-Video Feedback Task (Clone)",6,"HIGJFAEBDC",NA,"study_2 (video_feedback and feedback_list_2)","Feedback_ranking_L2_first","Spreadsheet1",1,"Instructions","Screen 1","by7fw4",1,"continue","",27480,27464,27480,27480,27464,27480,1,27480,0,0,NA,"Click To Continue","Continue Button",2,"object-15","Instructions",NA,"SUPPRF79831"
"3",1693057119065,"26/08/2023 13:38:39",1693060719065,1,"26/08/2023 15:38:39",140743,17,"task-w8vi",NA,31376743,9292133,NA,"complete",NA,"64ea0abb4fcce2d50f284df2","computer","Desktop or Laptop","Mac OS 10.15.7","Safari 16.0","820x1180","820x1073",NA,NA,0,"Pre-Video Feedback Task (Clone)",6,"HIGJFAEBDC",NA,"study_2 (video_feedback and feedback_list_2)","Feedback_ranking_L2_first","Spreadsheet1",1,"Instructions","Screen 2","32ryug",2,"continue","",1529,1522,1529,1529,1522,1529,1,1529,0,0,NA,"Click To Continue","Continue Button",2,"object-18","Instructions",NA,"SUPPRF79831"
"4",1693057122808,"26/08/2023 13:38:42",1693060722808,1,"26/08/2023 15:38:42",140743,17,"task-w8vi",NA,31376743,9292133,NA,"complete",NA,"64ea0abb4fcce2d50f284df2","computer","Desktop or Laptop","Mac OS 10.15.7","Safari 16.0","820x1180","820x1073",NA,NA,0,"Pre-Video Feedback Task (Clone)",6,"HIGJFAEBDC",NA,"study_2 (video_feedback and feedback_list_2)","Feedback_ranking_L2_first","Spreadsheet1",1,"Instructions","Screen 6","qfz25j",3,"continue","",3744,3728,3744,3744,3728,3744,1,3744,0,0,NA,"Click To Continue","Continue Button",2,"object-44","Instructions",NA,"SUPPRF79831"
"5",1693057126925,"26/08/2023 13:38:46",1693060726925,1,"26/08/2023 15:38:46",140743,17,"task-w8vi",NA,31376743,9292133,NA,"complete",NA,"64ea0abb4fcce2d50f284df2","computer","Desktop or Laptop","Mac OS 10.15.7","Safari 16.0","820x1180","820x1073",NA,NA,0,"Pre-Video Feedback Task (Clone)",6,"HIGJFAEBDC",NA,"study_2 (video_feedback and feedback_list_2)","Feedback_ranking_L2_first","Spreadsheet1",1,"Instructions","Screen 3","oiajeu",4,"continue","",4132,4116,4132,4132,4116,4132,1,4132,0,0,NA,"Click To Continue","Continue Button",2,"object-21","Instructions",NA,"SUPPRF79831"
"6",1693057135543,"26/08/2023 13:38:55",1693060735543,1,"26/08/2023 15:38:55",140743,17,"task-w8vi",NA,31376743,9292133,NA,"complete",NA,"64ea0abb4fcce2d50f284df2","computer","Desktop or Laptop","Mac OS 10.15.7","Safari 16.0","820x1180","820x1073",NA,NA,0,"Pre-Video Feedback Task (Clone)",6,"HIGJFAEBDC",NA,"study_2 (video_feedback and feedback_list_2)","Feedback_ranking_L2_first","Spreadsheet1",1,"Instructions","Screen 4","x6yf73",5,"continue","",8634,8617,8634,8634,8617,8634,1,8634,0,0,NA,"Click To Continue","Continue Button",2,"object-24","Instructions",NA,"SUPPRF79831"
"7",1693057137708,"26/08/2023 13:38:57",1693060737708,1,"26/08/2023 15:38:57",140743,17,"task-w8vi",NA,31376743,9292133,NA,"complete",NA,"64ea0abb4fcce2d50f284df2","computer","Desktop or Laptop","Mac OS 10.15.7","Safari 16.0","820x1180","820x1073",NA,NA,0,"Pre-Video Feedback Task (Clone)",6,"HIGJFAEBDC",NA,"study_2 (video_feedback and feedback_list_2)","Feedback_ranking_L2_first","Spreadsheet1",1,"Instructions","Screen 7","rb1b6r",6,"continue","",2182,2166,2182,2182,2166,2182,1,2182,0,0,NA,"Click To Continue","Continue Button",2,"object-49","Instructions",NA,"SUPPRF79831"
"8",1693057271638,"26/08/2023 13:41:11",1693060871638,1,"26/08/2023 15:41:11",140743,17,"task-w8vi",NA,31376743,9292133,NA,"complete",NA,"64ea0abb4fcce2d50f284df2","computer","Desktop or Laptop","Mac OS 10.15.7","Safari 16.0","820x1180","820x736",NA,NA,0,"Pre-Video Feedback Task (Clone)",6,"HIGJFAEBDC",NA,"study_2 (video_feedback and feedback_list_2)","Feedback_ranking_L2_first","Spreadsheet1",1,"Practice run","Screen 1","ncwxmk",1,"continue","",133942,133925,133942,133942,133925,133942,1,133942,0,0,NA,"Click To Continue","Continue Button",2,"object-29","Practice run",NA,"SUPPRF79831"
"9",1693057271644,"26/08/2023 13:41:11",1693060871644,1,"26/08/2023 15:41:11",140743,17,"task-w8vi",NA,31376743,9292133,NA,"complete",NA,"64ea0abb4fcce2d50f284df2","computer","Desktop or Laptop","Mac OS 10.15.7","Safari 16.0","820x1180","820x736",NA,NA,0,"Pre-Video Feedback Task (Clone)",6,"HIGJFAEBDC",NA,"study_2 (video_feedback and feedback_list_2)","Feedback_ranking_L2_first","Spreadsheet1",1,"Practice run","Screen 1","ncwxmk",1,"response","you spoke fairly accurately",97061,133925,133942,97061,133925,133942,1,97061,36881,0,NA,"Text Entry","Text Entry",5,"object-38","Practice run",NA,"SUPPRF79831"
"10",1693057271645,"26/08/2023 13:41:11",1693060871645,1,"26/08/2023 15:41:11",140743,17,"task-w8vi",NA,31376743,9292133,NA,"complete",NA,"64ea0abb4fcce2d50f284df2","computer","Desktop or Laptop","Mac OS 10.15.7","Safari 16.0","820x1180","820x736",NA,NA,0,"Pre-Video Feedback Task (Clone)",6,"HIGJFAEBDC",NA,"study_2 (video_feedback and feedback_list_2)","Feedback_ranking_L2_first","Spreadsheet1",1,"Practice run","Screen 1","ncwxmk",1,"response","you gave good descriptions",124404,133925,133942,124404,133925,133942,1,124404,9538,0,NA,"Text Entry","Text Entry",6,"object-40","Practice run",NA,"SUPPRF79831"
"11",1693057271647,"26/08/2023 13:41:11",1693060871647,1,"26/08/2023 15:41:11",140743,17,"task-w8vi",NA,31376743,9292133,NA,"complete",NA,"64ea0abb4fcce2d50f284df2","computer","Desktop or Laptop","Mac OS 10.15.7","Safari 16.0","820x1180","820x736",NA,NA,0,"Pre-Video Feedback Task (Clone)",6,"HIGJFAEBDC",NA,"study_2 (video_feedback and feedback_list_2)","Feedback_ranking_L2_first","Spreadsheet1",NA,"","","",NA,"5","END",NA,NA,NA,NA,NA,NA,0,NA,NA,NA,NA,"","",NA,"","",NA,"SUPPRF79831"
"1",1692198707270,"16/08/2023 15:11:47",1692202307270,1,"16/08/2023 17:11:47",140743,17,"task-w8vi",NA,31222450,9254717,NA,"complete",NA,"64dcecf2571803aaf952ef5f","computer","Desktop or Laptop","Windows 10","Chrome 115.0.0.0","1366x768","1366x657",NA,NA,0,"Pre-Video Feedback Task (Clone)",6,"HIGJFAEBDC",NA,"study_2 (video_feedback and feedback_list_2)","Feedback_ranking_L2_first","Spreadsheet1",NA,"","","",NA,"5","BEGIN",NA,NA,NA,NA,NA,NA,0,NA,NA,NA,NA,"","",NA,"","",NA,"SUPPRF01588"
"2",1692198720654,"16/08/2023 15:12:00",1692202320654,1,"16/08/2023 17:12:00",140743,17,"task-w8vi",NA,31222450,9254717,NA,"complete",NA,"64dcecf2571803aaf952ef5f","computer","Desktop or Laptop","Windows 10","Chrome 115.0.0.0","1366x768","1366x657",NA,NA,0,"Pre-Video Feedback Task (Clone)",6,"HIGJFAEBDC",NA,"study_2 (video_feedback and feedback_list_2)","Feedback_ranking_L2_first","Spreadsheet1",1,"Instructions","Screen 1","by7fw4",1,"continue","",13423.5269998093,13415.511,13423.5269998093,13423.5269998093,13415.511,13423.5269998093,1,13423.5269998093,0,0,NA,"Click To Continue","Continue Button",2,"object-15","Instructions",NA,"SUPPRF01588"
"3",1692198723136,"16/08/2023 15:12:03",1692202323136,1,"16/08/2023 17:12:03",140743,17,"task-w8vi",NA,31222450,9254717,NA,"complete",NA,"64dcecf2571803aaf952ef5f","computer","Desktop or Laptop","Windows 10","Chrome 115.0.0.0","1366x768","1366x657",NA,NA,0,"Pre-Video Feedback Task (Clone)",6,"HIGJFAEBDC",NA,"study_2 (video_feedback and feedback_list_2)","Feedback_ranking_L2_first","Spreadsheet1",1,"Instructions","Screen 2","32ryug",2,"continue","",2491.61599995232,2482.822,2491.61599995232,2491.61599995232,2482.822,2491.61599995232,1,2491.61599995232,0,0,NA,"Click To Continue","Continue Button",2,"object-18","Instructions",NA,"SUPPRF01588"
"4",1692198736114,"16/08/2023 15:12:16",1692202336114,1,"16/08/2023 17:12:16",140743,17,"task-w8vi",NA,31222450,9254717,NA,"complete",NA,"64dcecf2571803aaf952ef5f","computer","Desktop or Laptop","Windows 10","Chrome 115.0.0.0","1366x768","1366x657",NA,NA,0,"Pre-Video Feedback Task (Clone)",6,"HIGJFAEBDC",NA,"study_2 (video_feedback and feedback_list_2)","Feedback_ranking_L2_first","Spreadsheet1",1,"Instructions","Screen 6","qfz25j",3,"continue","",12981.5939999046,12965.313,12981.5939999046,12981.5939999046,12965.313,12981.5939999046,1,12981.5939999046,0,0,NA,"Click To Continue","Continue Button",2,"object-44","Instructions",NA,"SUPPRF01588"
"5",1692198740394,"16/08/2023 15:12:20",1692202340394,1,"16/08/2023 17:12:20",140743,17,"task-w8vi",NA,31222450,9254717,NA,"complete",NA,"64dcecf2571803aaf952ef5f","computer","Desktop or Laptop","Windows 10","Chrome 115.0.0.0","1366x768","1366x657",NA,NA,0,"Pre-Video Feedback Task (Clone)",6,"HIGJFAEBDC",NA,"study_2 (video_feedback and feedback_list_2)","Feedback_ranking_L2_first","Spreadsheet1",1,"Instructions","Screen 3","oiajeu",4,"continue","",4296.48099995232,4282.881,4296.48099995232,4296.48099995232,4282.881,4296.48099995232,1,4296.48099995232,0,0,NA,"Click To Continue","Continue Button",2,"object-21","Instructions",NA,"SUPPRF01588"
"6",1692198750781,"16/08/2023 15:12:30",1692202350781,1,"16/08/2023 17:12:30",140743,17,"task-w8vi",NA,31222450,9254717,NA,"complete",NA,"64dcecf2571803aaf952ef5f","computer","Desktop or Laptop","Windows 10","Chrome 115.0.0.0","1366x768","1366x657",NA,NA,0,"Pre-Video Feedback Task (Clone)",6,"HIGJFAEBDC",NA,"study_2 (video_feedback and feedback_list_2)","Feedback_ranking_L2_first","Spreadsheet1",1,"Instructions","Screen 4","x6yf73",5,"continue","",10398.737,10382.157,10398.737,10398.737,10382.157,10398.737,1,10398.737,0,0,NA,"Click To Continue","Continue Button",2,"object-24","Instructions",NA,"SUPPRF01588"
"7",1692198754152,"16/08/2023 15:12:34",1692202354152,1,"16/08/2023 17:12:34",140743,17,"task-w8vi",NA,31222450,9254717,NA,"complete",NA,"64dcecf2571803aaf952ef5f","computer","Desktop or Laptop","Windows 10","Chrome 115.0.0.0","1366x768","1366x657",NA,NA,0,"Pre-Video Feedback Task (Clone)",6,"HIGJFAEBDC",NA,"study_2 (video_feedback and feedback_list_2)","Feedback_ranking_L2_first","Spreadsheet1",1,"Instructions","Screen 7","rb1b6r",6,"continue","",3389.94299995231,3383.07,3389.94299995231,3389.94299995231,3383.07,3389.94299995231,1,3389.94299995231,0,0,NA,"Click To Continue","Continue Button",2,"object-49","Instructions",NA,"SUPPRF01588"
"8",1692198839763,"16/08/2023 15:13:59",1692202439763,1,"16/08/2023 17:13:59",140743,17,"task-w8vi",NA,31222450,9254717,NA,"complete",NA,"64dcecf2571803aaf952ef5f","computer","Desktop or Laptop","Windows 10","Chrome 115.0.0.0","1366x768","1366x657",NA,NA,0,"Pre-Video Feedback Task (Clone)",6,"HIGJFAEBDC",NA,"study_2 (video_feedback and feedback_list_2)","Feedback_ranking_L2_first","Spreadsheet1",1,"Practice run","Screen 1","ncwxmk",1,"continue","",85603.8729999523,85591.025,85603.8729999523,85603.8729999523,85591.025,85603.8729999523,1,85603.8729999523,0,0,NA,"Click To Continue","Continue Button",2,"object-29","Practice run",NA,"SUPPRF01588"
"9",1692198839772,"16/08/2023 15:13:59",1692202439772,1,"16/08/2023 17:13:59",140743,17,"task-w8vi",NA,31222450,9254717,NA,"complete",NA,"64dcecf2571803aaf952ef5f","computer","Desktop or Laptop","Windows 10","Chrome 115.0.0.0","1366x768","1366x657",NA,NA,0,"Pre-Video Feedback Task (Clone)",6,"HIGJFAEBDC",NA,"study_2 (video_feedback and feedback_list_2)","Feedback_ranking_L2_first","Spreadsheet1",1,"Practice run","Screen 1","ncwxmk",1,"response","not too bad",52727.804,85591.025,85607.7,52727.804,85591.025,85607.7,1,52727.804,32879.896,0,NA,"Text Entry","Text Entry",5,"object-38","Practice run",NA,"SUPPRF01588"
"10",1692198839774,"16/08/2023 15:13:59",1692202439774,1,"16/08/2023 17:13:59",140743,17,"task-w8vi",NA,31222450,9254717,NA,"complete",NA,"64dcecf2571803aaf952ef5f","computer","Desktop or Laptop","Windows 10","Chrome 115.0.0.0","1366x768","1366x657",NA,NA,0,"Pre-Video Feedback Task (Clone)",6,"HIGJFAEBDC",NA,"study_2 (video_feedback and feedback_list_2)","Feedback_ranking_L2_first","Spreadsheet1",1,"Practice run","Screen 1","ncwxmk",1,"response","could be a little more fluent",68392.821,85591.025,85607.7,68392.821,85591.025,85607.7,1,68392.821,17214.879,0,NA,"Text Entry","Text Entry",6,"object-40","Practice run",NA,"SUPPRF01588"
"11",1692198839778,"16/08/2023 15:13:59",1692202439778,1,"16/08/2023 17:13:59",140743,17,"task-w8vi",NA,31222450,9254717,NA,"complete",NA,"64dcecf2571803aaf952ef5f","computer","Desktop or Laptop","Windows 10","Chrome 115.0.0.0","1366x768","1366x657",NA,NA,0,"Pre-Video Feedback Task (Clone)",6,"HIGJFAEBDC",NA,"study_2 (video_feedback and feedback_list_2)","Feedback_ranking_L2_first","Spreadsheet1",NA,"","","",NA,"5","END",NA,NA,NA,NA,NA,NA,0,NA,NA,NA,NA,"","",NA,"","",NA,"SUPPRF01588"
"1",1692134521800,"15/08/2023 21:22:01",1692138121800,1,"15/08/2023 23:22:01",140743,17,"task-w8vi",NA,31213393,9252290,NA,"complete",NA,"64dbf4ff504719270ed3ce00","computer","Desktop or Laptop","Windows 10","Edge 115.0.1901.188","1536x864","1536x746",NA,NA,0,"Pre-Video Feedback Task (Clone)",6,"CDBEAFJGIH",NA,"study_2 (video_feedback and feedback_list_2)","Feedback_ranking_L2_first","Spreadsheet1",NA,"","","",NA,"5","BEGIN",NA,NA,NA,NA,NA,NA,0,NA,NA,NA,NA,"","",NA,"","",NA,"SUPPRF08258"
"2",1692134525572,"15/08/2023 21:22:05",1692138125572,1,"15/08/2023 23:22:05",140743,17,"task-w8vi",NA,31213393,9252290,NA,"complete",NA,"64dbf4ff504719270ed3ce00","computer","Desktop or Laptop","Windows 10","Edge 115.0.1901.188","1536x864","1536x746",NA,NA,0,"Pre-Video Feedback Task (Clone)",6,"CDBEAFJGIH",NA,"study_2 (video_feedback and feedback_list_2)","Feedback_ranking_L2_first","Spreadsheet1",1,"Instructions","Screen 1","by7fw4",1,"continue","",3781.93500019074,3766.638,3781.93500019074,3781.93500019074,3766.638,3781.93500019074,1,3781.93500019074,0,0,NA,"Click To Continue","Continue Button",2,"object-15","Instructions",NA,"SUPPRF08258"
"3",1692134527804,"15/08/2023 21:22:07",1692138127804,1,"15/08/2023 23:22:07",140743,17,"task-w8vi",NA,31213393,9252290,NA,"complete",NA,"64dbf4ff504719270ed3ce00","computer","Desktop or Laptop","Windows 10","Edge 115.0.1901.188","1536x864","1536x746",NA,NA,0,"Pre-Video Feedback Task (Clone)",6,"CDBEAFJGIH",NA,"study_2 (video_feedback and feedback_list_2)","Feedback_ranking_L2_first","Spreadsheet1",1,"Instructions","Screen 2","32ryug",2,"continue","",2247.09699990463,2233.252,2247.09699990463,2247.09699990463,2233.252,2247.09699990463,1,2247.09699990463,0,0,NA,"Click To Continue","Continue Button",2,"object-18","Instructions",NA,"SUPPRF08258"
"4",1692134535193,"15/08/2023 21:22:15",1692138135193,1,"15/08/2023 23:22:15",140743,17,"task-w8vi",NA,31213393,9252290,NA,"complete",NA,"64dbf4ff504719270ed3ce00","computer","Desktop or Laptop","Windows 10","Edge 115.0.1901.188","1536x864","1536x746",NA,NA,0,"Pre-Video Feedback Task (Clone)",6,"CDBEAFJGIH",NA,"study_2 (video_feedback and feedback_list_2)","Feedback_ranking_L2_first","Spreadsheet1",1,"Instructions","Screen 6","qfz25j",3,"continue","",7402.64500009537,7399.143,7402.64500009537,7402.64500009537,7399.143,7402.64500009537,1,7402.64500009537,0,0,NA,"Click To Continue","Continue Button",2,"object-44","Instructions",NA,"SUPPRF08258"
"5",1692134539436,"15/08/2023 21:22:19",1692138139436,1,"15/08/2023 23:22:19",140743,17,"task-w8vi",NA,31213393,9252290,NA,"complete",NA,"64dbf4ff504719270ed3ce00","computer","Desktop or Laptop","Windows 10","Edge 115.0.1901.188","1536x864","1536x746",NA,NA,0,"Pre-Video Feedback Task (Clone)",6,"CDBEAFJGIH",NA,"study_2 (video_feedback and feedback_list_2)","Feedback_ranking_L2_first","Spreadsheet1",1,"Instructions","Screen 3","oiajeu",4,"continue","",4246.602,4233.513,4246.602,4246.602,4233.513,4246.602,1,4246.602,0,0,NA,"Click To Continue","Continue Button",2,"object-21","Instructions",NA,"SUPPRF08258"
"6",1692134717543,"15/08/2023 21:25:17",1692138317543,1,"15/08/2023 23:25:17",140743,17,"task-w8vi",NA,31213393,9252290,NA,"complete",NA,"64dbf4ff504719270ed3ce00","computer","Desktop or Laptop","Windows 10","Edge 115.0.1901.188","1536x864","1536x746",NA,NA,0,"Pre-Video Feedback Task (Clone)",6,"CDBEAFJGIH",NA,"study_2 (video_feedback and feedback_list_2)","Feedback_ranking_L2_first","Spreadsheet1",1,"Instructions","Screen 4","x6yf73",5,"continue","",178119.789000286,178105.021,178119.789000286,178119.789000286,178105.021,178119.789000286,1,178119.789000286,0,0,NA,"Click To Continue","Continue Button",2,"object-24","Instructions",NA,"SUPPRF08258"
"7",1692134719021,"15/08/2023 21:25:19",1692138319021,1,"15/08/2023 23:25:19",140743,17,"task-w8vi",NA,31213393,9252290,NA,"complete",NA,"64dbf4ff504719270ed3ce00","computer","Desktop or Laptop","Windows 10","Edge 115.0.1901.188","1536x864","1536x746",NA,NA,0,"Pre-Video Feedback Task (Clone)",6,"CDBEAFJGIH",NA,"study_2 (video_feedback and feedback_list_2)","Feedback_ranking_L2_first","Spreadsheet1",1,"Instructions","Screen 7","rb1b6r",6,"continue","",1492.96800009537,1483.20600000001,1492.96800009537,1492.96800009537,1483.20600000001,1492.96800009537,1,1492.96800009537,0,0,NA,"Click To Continue","Continue Button",2,"object-49","Instructions",NA,"SUPPRF08258"
"8",1692134766033,"15/08/2023 21:26:06",1692138366033,1,"15/08/2023 23:26:06",140743,17,"task-w8vi",NA,31213393,9252290,NA,"complete",NA,"64dbf4ff504719270ed3ce00","computer","Desktop or Laptop","Windows 10","Edge 115.0.1901.188","1536x864","1536x746",NA,NA,0,"Pre-Video Feedback Task (Clone)",6,"CDBEAFJGIH",NA,"study_2 (video_feedback and feedback_list_2)","Feedback_ranking_L2_first","Spreadsheet1",1,"Practice run","Screen 1","ncwxmk",1,"continue","",47022.362,47013.27,47022.362,47022.362,47013.27,47022.362,1,47022.362,0,0,NA,"Click To Continue","Continue Button",2,"object-29","Practice run",NA,"SUPPRF08258"
"9",1692134766035,"15/08/2023 21:26:06",1692138366035,1,"15/08/2023 23:26:06",140743,17,"task-w8vi",NA,31213393,9252290,NA,"complete",NA,"64dbf4ff504719270ed3ce00","computer","Desktop or Laptop","Windows 10","Edge 115.0.1901.188","1536x864","1536x746",NA,NA,0,"Pre-Video Feedback Task (Clone)",6,"CDBEAFJGIH",NA,"study_2 (video_feedback and feedback_list_2)","Feedback_ranking_L2_first","Spreadsheet1",1,"Practice run","Screen 1","ncwxmk",1,"response","this is ok explanation",28198.001,47013.27,47024.6620001907,28198.001,47013.27,47024.6620001907,1,28198.001,18826.6610001907,0,NA,"Text Entry","Text Entry",5,"object-38","Practice run",NA,"SUPPRF08258"
"10",1692134766035,"15/08/2023 21:26:06",1692138366035,1,"15/08/2023 23:26:06",140743,17,"task-w8vi",NA,31213393,9252290,NA,"complete",NA,"64dbf4ff504719270ed3ce00","computer","Desktop or Laptop","Windows 10","Edge 115.0.1901.188","1536x864","1536x746",NA,NA,0,"Pre-Video Feedback Task (Clone)",6,"CDBEAFJGIH",NA,"study_2 (video_feedback and feedback_list_2)","Feedback_ranking_L2_first","Spreadsheet1",1,"Practice run","Screen 1","ncwxmk",1,"response","you described the scene",36097.265,47013.27,47024.862,36097.265,47013.27,47024.862,1,36097.265,10927.597,0,NA,"Text Entry","Text Entry",6,"object-40","Practice run",NA,"SUPPRF08258"
"11",1692134766036,"15/08/2023 21:26:06",1692138366036,1,"15/08/2023 23:26:06",140743,17,"task-w8vi",NA,31213393,9252290,NA,"complete",NA,"64dbf4ff504719270ed3ce00","computer","Desktop or Laptop","Windows 10","Edge 115.0.1901.188","1536x864","1536x746",NA,NA,0,"Pre-Video Feedback Task (Clone)",6,"CDBEAFJGIH",NA,"study_2 (video_feedback and feedback_list_2)","Feedback_ranking_L2_first","Spreadsheet1",NA,"","","",NA,"5","END",NA,NA,NA,NA,NA,NA,0,NA,NA,NA,NA,"","",NA,"","",NA,"SUPPRF08258"
"1",1692092569502,"15/08/2023 09:42:49",1692096169502,1,"15/08/2023 11:42:49",140743,17,"task-w8vi",NA,31188740,9247457,NA,"complete",NA,"64db50e8d7831bdd4833328b","computer","Desktop or Laptop","Windows 10","Chrome 115.0.0.0","1920x1080","1920x941",NA,NA,0,"Pre-Video Feedback Task (Clone)",6,"IJHAGBFCED",NA,"study_2 (video_feedback and feedback_list_2)","Feedback_ranking_L2_first","Spreadsheet1",NA,"","","",NA,"5","BEGIN",NA,NA,NA,NA,NA,NA,0,NA,NA,NA,NA,"","",NA,"","",NA,"SUPPRF42960"
"2",1692092573921,"15/08/2023 09:42:53",1692096173921,1,"15/08/2023 11:42:53",140743,17,"task-w8vi",NA,31188740,9247457,NA,"complete",NA,"64db50e8d7831bdd4833328b","computer","Desktop or Laptop","Windows 10","Chrome 115.0.0.0","1920x1080","1920x941",NA,NA,0,"Pre-Video Feedback Task (Clone)",6,"IJHAGBFCED",NA,"study_2 (video_feedback and feedback_list_2)","Feedback_ranking_L2_first","Spreadsheet1",1,"Instructions","Screen 1","by7fw4",1,"continue","",4428.09,4416.648,4428.09,4428.09,4416.648,4428.09,1,4428.09,0,0,NA,"Click To Continue","Continue Button",2,"object-15","Instructions",NA,"SUPPRF42960"
"3",1692092574743,"15/08/2023 09:42:54",1692096174743,1,"15/08/2023 11:42:54",140743,17,"task-w8vi",NA,31188740,9247457,NA,"complete",NA,"64db50e8d7831bdd4833328b","computer","Desktop or Laptop","Windows 10","Chrome 115.0.0.0","1920x1080","1920x941",NA,NA,0,"Pre-Video Feedback Task (Clone)",6,"IJHAGBFCED",NA,"study_2 (video_feedback and feedback_list_2)","Feedback_ranking_L2_first","Spreadsheet1",1,"Instructions","Screen 2","32ryug",2,"continue","",833.346,816.703,833.346,833.346,816.703,833.346,1,833.346,0,0,NA,"Click To Continue","Continue Button",2,"object-18","Instructions",NA,"SUPPRF42960"
"4",1692092577127,"15/08/2023 09:42:57",1692096177127,1,"15/08/2023 11:42:57",140743,17,"task-w8vi",NA,31188740,9247457,NA,"complete",NA,"64db50e8d7831bdd4833328b","computer","Desktop or Laptop","Windows 10","Chrome 115.0.0.0","1920x1080","1920x941",NA,NA,0,"Pre-Video Feedback Task (Clone)",6,"IJHAGBFCED",NA,"study_2 (video_feedback and feedback_list_2)","Feedback_ranking_L2_first","Spreadsheet1",1,"Instructions","Screen 6","qfz25j",3,"continue","",2401.13899999851,2399.958,2401.13899999851,2401.13899999851,2399.958,2401.13899999851,1,2401.13899999851,0,0,NA,"Click To Continue","Continue Button",2,"object-44","Instructions",NA,"SUPPRF42960"
"5",1692092579296,"15/08/2023 09:42:59",1692096179296,1,"15/08/2023 11:42:59",140743,17,"task-w8vi",NA,31188740,9247457,NA,"complete",NA,"64db50e8d7831bdd4833328b","computer","Desktop or Laptop","Windows 10","Chrome 115.0.0.0","1920x1080","1920x941",NA,NA,0,"Pre-Video Feedback Task (Clone)",6,"IJHAGBFCED",NA,"study_2 (video_feedback and feedback_list_2)","Feedback_ranking_L2_first","Spreadsheet1",1,"Instructions","Screen 3","oiajeu",4,"continue","",2169.98099999926,2166.655,2169.98099999926,2169.98099999926,2166.655,2169.98099999926,1,2169.98099999926,0,0,NA,"Click To Continue","Continue Button",2,"object-21","Instructions",NA,"SUPPRF42960"
"6",1692092582679,"15/08/2023 09:43:02",1692096182679,1,"15/08/2023 11:43:02",140743,17,"task-w8vi",NA,31188740,9247457,NA,"complete",NA,"64db50e8d7831bdd4833328b","computer","Desktop or Laptop","Windows 10","Chrome 115.0.0.0","1920x1080","1920x941",NA,NA,0,"Pre-Video Feedback Task (Clone)",6,"IJHAGBFCED",NA,"study_2 (video_feedback and feedback_list_2)","Feedback_ranking_L2_first","Spreadsheet1",1,"Instructions","Screen 4","x6yf73",5,"continue","",3386.32599999926,3383.324,3386.32599999926,3386.32599999926,3383.324,3386.32599999926,1,3386.32599999926,0,0,NA,"Click To Continue","Continue Button",2,"object-24","Instructions",NA,"SUPPRF42960"
"7",1692092583647,"15/08/2023 09:43:03",1692096183647,1,"15/08/2023 11:43:03",140743,17,"task-w8vi",NA,31188740,9247457,NA,"complete",NA,"64db50e8d7831bdd4833328b","computer","Desktop or Laptop","Windows 10","Chrome 115.0.0.0","1920x1080","1920x941",NA,NA,0,"Pre-Video Feedback Task (Clone)",6,"IJHAGBFCED",NA,"study_2 (video_feedback and feedback_list_2)","Feedback_ranking_L2_first","Spreadsheet1",1,"Instructions","Screen 7","rb1b6r",6,"continue","",971.101999998882,966.904999999999,971.101999998882,971.101999998882,966.904999999999,971.101999998882,1,971.101999998882,0,0,NA,"Click To Continue","Continue Button",2,"object-49","Instructions",NA,"SUPPRF42960"
"8",1692092612931,"15/08/2023 09:43:32",1692096212931,1,"15/08/2023 11:43:32",140743,17,"task-w8vi",NA,31188740,9247457,NA,"complete",NA,"64db50e8d7831bdd4833328b","computer","Desktop or Laptop","Windows 10","Chrome 115.0.0.0","1920x1080","1920x941",NA,NA,0,"Pre-Video Feedback Task (Clone)",6,"IJHAGBFCED",NA,"study_2 (video_feedback and feedback_list_2)","Feedback_ranking_L2_first","Spreadsheet1",1,"Practice run","Screen 1","ncwxmk",1,"continue","",29285.897,29283.05,29285.897,29285.897,29283.05,29285.897,1,29285.897,0,0,NA,"Click To Continue","Continue Button",2,"object-29","Practice run",NA,"SUPPRF42960"
"9",1692092612932,"15/08/2023 09:43:32",1692096212932,1,"15/08/2023 11:43:32",140743,17,"task-w8vi",NA,31188740,9247457,NA,"complete",NA,"64db50e8d7831bdd4833328b","computer","Desktop or Laptop","Windows 10","Chrome 115.0.0.0","1920x1080","1920x941",NA,NA,0,"Pre-Video Feedback Task (Clone)",6,"IJHAGBFCED",NA,"study_2 (video_feedback and feedback_list_2)","Feedback_ranking_L2_first","Spreadsheet1",1,"Practice run","Screen 1","ncwxmk",1,"response","They present well and look smart",17349.743,29283.05,29289.5969999993,17349.743,29283.05,29289.5969999993,1,17349.743,11939.8539999993,0,NA,"Text Entry","Text Entry",5,"object-38","Practice run",NA,"SUPPRF42960"
"10",1692092612933,"15/08/2023 09:43:32",1692096212933,1,"15/08/2023 11:43:32",140743,17,"task-w8vi",NA,31188740,9247457,NA,"complete",NA,"64db50e8d7831bdd4833328b","computer","Desktop or Laptop","Windows 10","Chrome 115.0.0.0","1920x1080","1920x941",NA,NA,0,"Pre-Video Feedback Task (Clone)",6,"IJHAGBFCED",NA,"study_2 (video_feedback and feedback_list_2)","Feedback_ranking_L2_first","Spreadsheet1",1,"Practice run","Screen 1","ncwxmk",1,"response","They speak well",26183.087,29283.05,29289.9969999996,26183.087,29283.05,29289.9969999996,1,26183.087,3106.90999999963,0,NA,"Text Entry","Text Entry",6,"object-40","Practice run",NA,"SUPPRF42960"
"11",1692092612934,"15/08/2023 09:43:32",1692096212934,1,"15/08/2023 11:43:32",140743,17,"task-w8vi",NA,31188740,9247457,NA,"complete",NA,"64db50e8d7831bdd4833328b","computer","Desktop or Laptop","Windows 10","Chrome 115.0.0.0","1920x1080","1920x941",NA,NA,0,"Pre-Video Feedback Task (Clone)",6,"IJHAGBFCED",NA,"study_2 (video_feedback and feedback_list_2)","Feedback_ranking_L2_first","Spreadsheet1",NA,"","","",NA,"5","END",NA,NA,NA,NA,NA,NA,0,NA,NA,NA,NA,"","",NA,"","",NA,"SUPPRF42960"
"1",1692034312938,"14/08/2023 17:31:52",1692037912938,1,"14/08/2023 19:31:52",140743,17,"task-w8vi",NA,31182229,9244263,NA,"complete",NA,"64da6f1a5aac95015e309356","computer","Desktop or Laptop","Windows 10","Edge 115.0.1901.200","1366x768","1311x657",NA,NA,0,"Pre-Video Feedback Task (Clone)",6,"EFDGCHBIAJ",NA,"study_2 (video_feedback and feedback_list_2)","Feedback_ranking_L2_first","Spreadsheet1",NA,"","","",NA,"5","BEGIN",NA,NA,NA,NA,NA,NA,0,NA,NA,NA,NA,"","",NA,"","",NA,"SUPPRF13522"
"2",1692034317641,"14/08/2023 17:31:57",1692037917641,1,"14/08/2023 19:31:57",140743,17,"task-w8vi",NA,31182229,9244263,NA,"complete",NA,"64da6f1a5aac95015e309356","computer","Desktop or Laptop","Windows 10","Edge 115.0.1901.200","1366x768","1311x657",NA,NA,0,"Pre-Video Feedback Task (Clone)",6,"EFDGCHBIAJ",NA,"study_2 (video_feedback and feedback_list_2)","Feedback_ranking_L2_first","Spreadsheet1",1,"Instructions","Screen 1","by7fw4",1,"continue","",4757.44000001192,4750.063,4757.44000001192,4757.44000001192,4750.063,4757.44000001192,1,4757.44000001192,0,0,NA,"Click To Continue","Continue Button",2,"object-15","Instructions",NA,"SUPPRF13522"
"3",1692034319153,"14/08/2023 17:31:59",1692037919153,1,"14/08/2023 19:31:59",140743,17,"task-w8vi",NA,31182229,9244263,NA,"complete",NA,"64da6f1a5aac95015e309356","computer","Desktop or Laptop","Windows 10","Edge 115.0.1901.200","1366x768","1311x657",NA,NA,0,"Pre-Video Feedback Task (Clone)",6,"EFDGCHBIAJ",NA,"study_2 (video_feedback and feedback_list_2)","Feedback_ranking_L2_first","Spreadsheet1",1,"Instructions","Screen 2","32ryug",2,"continue","",1516.488,1499.827,1516.488,1516.488,1499.827,1516.488,1,1516.488,0,0,NA,"Click To Continue","Continue Button",2,"object-18","Instructions",NA,"SUPPRF13522"
"4",1692034323071,"14/08/2023 17:32:03",1692037923071,1,"14/08/2023 19:32:03",140743,17,"task-w8vi",NA,31182229,9244263,NA,"complete",NA,"64da6f1a5aac95015e309356","computer","Desktop or Laptop","Windows 10","Edge 115.0.1901.200","1366x768","1311x657",NA,NA,0,"Pre-Video Feedback Task (Clone)",6,"EFDGCHBIAJ",NA,"study_2 (video_feedback and feedback_list_2)","Feedback_ranking_L2_first","Spreadsheet1",1,"Instructions","Screen 6","qfz25j",3,"continue","",3933.139,3916.476,3933.139,3933.139,3916.476,3933.139,1,3933.139,0,0,NA,"Click To Continue","Continue Button",2,"object-44","Instructions",NA,"SUPPRF13522"
"5",1692034326376,"14/08/2023 17:32:06",1692037926376,1,"14/08/2023 19:32:06",140743,17,"task-w8vi",NA,31182229,9244263,NA,"complete",NA,"64da6f1a5aac95015e309356","computer","Desktop or Laptop","Windows 10","Edge 115.0.1901.200","1366x768","1311x657",NA,NA,0,"Pre-Video Feedback Task (Clone)",6,"EFDGCHBIAJ",NA,"study_2 (video_feedback and feedback_list_2)","Feedback_ranking_L2_first","Spreadsheet1",1,"Instructions","Screen 3","oiajeu",4,"continue","",3327.774,3316.377,3327.774,3327.774,3316.377,3327.774,1,3327.774,0,0,NA,"Click To Continue","Continue Button",2,"object-21","Instructions",NA,"SUPPRF13522"
"6",1692034331053,"14/08/2023 17:32:11",1692037931053,1,"14/08/2023 19:32:11",140743,17,"task-w8vi",NA,31182229,9244263,NA,"complete",NA,"64da6f1a5aac95015e309356","computer","Desktop or Laptop","Windows 10","Edge 115.0.1901.200","1366x768","1311x657",NA,NA,0,"Pre-Video Feedback Task (Clone)",6,"EFDGCHBIAJ",NA,"study_2 (video_feedback and feedback_list_2)","Feedback_ranking_L2_first","Spreadsheet1",1,"Instructions","Screen 4","x6yf73",5,"continue","",4688.19700001192,4683.056,4688.19700001192,4688.19700001192,4683.056,4688.19700001192,1,4688.19700001192,0,0,NA,"Click To Continue","Continue Button",2,"object-24","Instructions",NA,"SUPPRF13522"
"7",1692034332171,"14/08/2023 17:32:12",1692037932171,1,"14/08/2023 19:32:12",140743,17,"task-w8vi",NA,31182229,9244263,NA,"complete",NA,"64da6f1a5aac95015e309356","computer","Desktop or Laptop","Windows 10","Edge 115.0.1901.200","1366x768","1311x657",NA,NA,0,"Pre-Video Feedback Task (Clone)",6,"EFDGCHBIAJ",NA,"study_2 (video_feedback and feedback_list_2)","Feedback_ranking_L2_first","Spreadsheet1",1,"Instructions","Screen 7","rb1b6r",6,"continue","",1123.54099998808,1116.675,1123.54099998808,1123.54099998808,1116.675,1123.54099998808,1,1123.54099998808,0,0,NA,"Click To Continue","Continue Button",2,"object-49","Instructions",NA,"SUPPRF13522"
"8",1692034364707,"14/08/2023 17:32:44",1692037964707,1,"14/08/2023 19:32:44",140743,17,"task-w8vi",NA,31182229,9244263,NA,"complete",NA,"64da6f1a5aac95015e309356","computer","Desktop or Laptop","Windows 10","Edge 115.0.1901.200","1366x768","1311x657",NA,NA,0,"Pre-Video Feedback Task (Clone)",6,"EFDGCHBIAJ",NA,"study_2 (video_feedback and feedback_list_2)","Feedback_ranking_L2_first","Spreadsheet1",1,"Practice run","Screen 1","ncwxmk",1,"continue","",32524.166,32515.321,32524.166,32524.166,32515.321,32524.166,1,32524.166,0,0,NA,"Click To Continue","Continue Button",2,"object-29","Practice run",NA,"SUPPRF13522"
"9",1692034364723,"14/08/2023 17:32:44",1692037964723,1,"14/08/2023 19:32:44",140743,17,"task-w8vi",NA,31182229,9244263,NA,"complete",NA,"64da6f1a5aac95015e309356","computer","Desktop or Laptop","Windows 10","Edge 115.0.1901.200","1366x768","1311x657",NA,NA,0,"Pre-Video Feedback Task (Clone)",6,"EFDGCHBIAJ",NA,"study_2 (video_feedback and feedback_list_2)","Feedback_ranking_L2_first","Spreadsheet1",1,"Practice run","Screen 1","ncwxmk",1,"response","the description was okay",14500.814,32515.321,32532.127,14500.814,32515.321,32532.127,1,14500.814,18031.313,0,NA,"Text Entry","Text Entry",5,"object-38","Practice run",NA,"SUPPRF13522"
"10",1692034364725,"14/08/2023 17:32:44",1692037964725,1,"14/08/2023 19:32:44",140743,17,"task-w8vi",NA,31182229,9244263,NA,"complete",NA,"64da6f1a5aac95015e309356","computer","Desktop or Laptop","Windows 10","Edge 115.0.1901.200","1366x768","1311x657",NA,NA,0,"Pre-Video Feedback Task (Clone)",6,"EFDGCHBIAJ",NA,"study_2 (video_feedback and feedback_list_2)","Feedback_ranking_L2_first","Spreadsheet1",1,"Practice run","Screen 1","ncwxmk",1,"response","you seemed calm",21249.293,32515.321,32532.127,21249.293,32515.321,32532.127,1,21249.293,11282.834,0,NA,"Text Entry","Text Entry",6,"object-40","Practice run",NA,"SUPPRF13522"
"11",1692034364727,"14/08/2023 17:32:44",1692037964727,1,"14/08/2023 19:32:44",140743,17,"task-w8vi",NA,31182229,9244263,NA,"complete",NA,"64da6f1a5aac95015e309356","computer","Desktop or Laptop","Windows 10","Edge 115.0.1901.200","1366x768","1311x657",NA,NA,0,"Pre-Video Feedback Task (Clone)",6,"EFDGCHBIAJ",NA,"study_2 (video_feedback and feedback_list_2)","Feedback_ranking_L2_first","Spreadsheet1",NA,"","","",NA,"5","END",NA,NA,NA,NA,NA,NA,0,NA,NA,NA,NA,"","",NA,"","",NA,"SUPPRF13522"
"1",1692016097181,"14/08/2023 12:28:17",1692019697181,1,"14/08/2023 14:28:17",140743,17,"task-w8vi",NA,31175876,9242399,NA,"complete",NA,"64da217fbeca8340a86d1818","computer","Desktop or Laptop","Windows 10","Chrome 115.0.0.0","1920x1080","1920x963",NA,NA,0,"Pre-Video Feedback Task (Clone)",6,"CDBEAFJGIH",NA,"study_2 (video_feedback and feedback_list_2)","Feedback_ranking_L2_first","Spreadsheet1",NA,"","","",NA,"5","BEGIN",NA,NA,NA,NA,NA,NA,0,NA,NA,NA,NA,"","",NA,"","",NA,"SUPPRF27407"
"2",1692016101709,"14/08/2023 12:28:21",1692019701709,1,"14/08/2023 14:28:21",140743,17,"task-w8vi",NA,31175876,9242399,NA,"complete",NA,"64da217fbeca8340a86d1818","computer","Desktop or Laptop","Windows 10","Chrome 115.0.0.0","1920x1080","1920x963",NA,NA,0,"Pre-Video Feedback Task (Clone)",6,"CDBEAFJGIH",NA,"study_2 (video_feedback and feedback_list_2)","Feedback_ranking_L2_first","Spreadsheet1",1,"Instructions","Screen 1","by7fw4",1,"continue","",4565.53800000019,4554.541,4565.53800000019,4565.53800000019,4554.541,4565.53800000019,1,4565.53800000019,0,0,NA,"Click To Continue","Continue Button",2,"object-15","Instructions",NA,"SUPPRF27407"
"3",1692016103167,"14/08/2023 12:28:23",1692019703167,1,"14/08/2023 14:28:23",140743,17,"task-w8vi",NA,31175876,9242399,NA,"complete",NA,"64da217fbeca8340a86d1818","computer","Desktop or Laptop","Windows 10","Chrome 115.0.0.0","1920x1080","1920x963",NA,NA,0,"Pre-Video Feedback Task (Clone)",6,"CDBEAFJGIH",NA,"study_2 (video_feedback and feedback_list_2)","Feedback_ranking_L2_first","Spreadsheet1",1,"Instructions","Screen 2","32ryug",2,"continue","",1468.286,1451.603,1468.286,1468.286,1451.603,1468.286,1,1468.286,0,0,NA,"Click To Continue","Continue Button",2,"object-18","Instructions",NA,"SUPPRF27407"
"4",1692016109730,"14/08/2023 12:28:29",1692019709730,1,"14/08/2023 14:28:29",140743,17,"task-w8vi",NA,31175876,9242399,NA,"complete",NA,"64da217fbeca8340a86d1818","computer","Desktop or Laptop","Windows 10","Chrome 115.0.0.0","1920x1080","1920x963",NA,NA,0,"Pre-Video Feedback Task (Clone)",6,"CDBEAFJGIH",NA,"study_2 (video_feedback and feedback_list_2)","Feedback_ranking_L2_first","Spreadsheet1",1,"Instructions","Screen 6","qfz25j",3,"continue","",6581.39400000019,6572.924,6581.39400000019,6581.39400000019,6572.924,6581.39400000019,1,6581.39400000019,0,0,NA,"Click To Continue","Continue Button",2,"object-44","Instructions",NA,"SUPPRF27407"
"5",1692016113897,"14/08/2023 12:28:33",1692019713897,1,"14/08/2023 14:28:33",140743,17,"task-w8vi",NA,31175876,9242399,NA,"complete",NA,"64da217fbeca8340a86d1818","computer","Desktop or Laptop","Windows 10","Chrome 115.0.0.0","1920x1080","1920x963",NA,NA,0,"Pre-Video Feedback Task (Clone)",6,"CDBEAFJGIH",NA,"study_2 (video_feedback and feedback_list_2)","Feedback_ranking_L2_first","Spreadsheet1",1,"Instructions","Screen 3","oiajeu",4,"continue","",4175.37000000056,4171.013,4175.37000000056,4175.37000000056,4171.013,4175.37000000056,1,4175.37000000056,0,0,NA,"Click To Continue","Continue Button",2,"object-21","Instructions",NA,"SUPPRF27407"
"6",1692016123354,"14/08/2023 12:28:43",1692019723354,1,"14/08/2023 14:28:43",140743,17,"task-w8vi",NA,31175876,9242399,NA,"complete",NA,"64da217fbeca8340a86d1818","computer","Desktop or Laptop","Windows 10","Chrome 115.0.0.0","1920x1080","1920x963",NA,NA,0,"Pre-Video Feedback Task (Clone)",6,"CDBEAFJGIH",NA,"study_2 (video_feedback and feedback_list_2)","Feedback_ranking_L2_first","Spreadsheet1",1,"Instructions","Screen 4","x6yf73",5,"continue","",9459.284,9442.601,9459.284,9459.284,9442.601,9459.284,1,9459.284,0,0,NA,"Click To Continue","Continue Button",2,"object-24","Instructions",NA,"SUPPRF27407"
"7",1692016124623,"14/08/2023 12:28:44",1692019724623,1,"14/08/2023 14:28:44",140743,17,"task-w8vi",NA,31175876,9242399,NA,"complete",NA,"64da217fbeca8340a86d1818","computer","Desktop or Laptop","Windows 10","Chrome 115.0.0.0","1920x1080","1920x963",NA,NA,0,"Pre-Video Feedback Task (Clone)",6,"CDBEAFJGIH",NA,"study_2 (video_feedback and feedback_list_2)","Feedback_ranking_L2_first","Spreadsheet1",1,"Instructions","Screen 7","rb1b6r",6,"continue","",1288.45600000074,1284.778,1288.45600000074,1288.45600000074,1284.778,1288.45600000074,1,1288.45600000074,0,0,NA,"Click To Continue","Continue Button",2,"object-49","Instructions",NA,"SUPPRF27407"
"8",1692016157744,"14/08/2023 12:29:17",1692019757744,1,"14/08/2023 14:29:17",140743,17,"task-w8vi",NA,31175876,9242399,NA,"complete",NA,"64da217fbeca8340a86d1818","computer","Desktop or Laptop","Windows 10","Chrome 115.0.0.0","1920x1080","1920x963",NA,NA,0,"Pre-Video Feedback Task (Clone)",6,"CDBEAFJGIH",NA,"study_2 (video_feedback and feedback_list_2)","Feedback_ranking_L2_first","Spreadsheet1",1,"Practice run","Screen 1","ncwxmk",1,"continue","",33100.457,33083.774,33100.457,33100.457,33083.774,33100.457,1,33100.457,0,0,NA,"Click To Continue","Continue Button",2,"object-29","Practice run",NA,"SUPPRF27407"
"9",1692016157752,"14/08/2023 12:29:17",1692019757752,1,"14/08/2023 14:29:17",140743,17,"task-w8vi",NA,31175876,9242399,NA,"complete",NA,"64da217fbeca8340a86d1818","computer","Desktop or Laptop","Windows 10","Chrome 115.0.0.0","1920x1080","1920x963",NA,NA,0,"Pre-Video Feedback Task (Clone)",6,"CDBEAFJGIH",NA,"study_2 (video_feedback and feedback_list_2)","Feedback_ranking_L2_first","Spreadsheet1",1,"Practice run","Screen 1","ncwxmk",1,"response","Came across very clear.",15081.695,33083.774,33100.457,15081.695,33083.774,33100.457,1,15081.695,18018.762,0,NA,"Text Entry","Text Entry",5,"object-38","Practice run",NA,"SUPPRF27407"
"10",1692016157753,"14/08/2023 12:29:17",1692019757753,1,"14/08/2023 14:29:17",140743,17,"task-w8vi",NA,31175876,9242399,NA,"complete",NA,"64da217fbeca8340a86d1818","computer","Desktop or Laptop","Windows 10","Chrome 115.0.0.0","1920x1080","1920x963",NA,NA,0,"Pre-Video Feedback Task (Clone)",6,"CDBEAFJGIH",NA,"study_2 (video_feedback and feedback_list_2)","Feedback_ranking_L2_first","Spreadsheet1",1,"Practice run","Screen 1","ncwxmk",1,"response","was very easy to understand",27877.806,33083.774,33100.457,27877.806,33083.774,33100.457,1,27877.806,5222.651,0,NA,"Text Entry","Text Entry",6,"object-40","Practice run",NA,"SUPPRF27407"
"11",1692016157754,"14/08/2023 12:29:17",1692019757754,1,"14/08/2023 14:29:17",140743,17,"task-w8vi",NA,31175876,9242399,NA,"complete",NA,"64da217fbeca8340a86d1818","computer","Desktop or Laptop","Windows 10","Chrome 115.0.0.0","1920x1080","1920x963",NA,NA,0,"Pre-Video Feedback Task (Clone)",6,"CDBEAFJGIH",NA,"study_2 (video_feedback and feedback_list_2)","Feedback_ranking_L2_first","Spreadsheet1",NA,"","","",NA,"5","END",NA,NA,NA,NA,NA,NA,0,NA,NA,NA,NA,"","",NA,"","",NA,"SUPPRF27407"
"1",1692014715615,"14/08/2023 12:05:15",1692018315615,1,"14/08/2023 14:05:15",140743,17,"task-w8vi",NA,31175371,9242371,NA,"complete",NA,"64da21b55d753010d019b257","computer","Desktop or Laptop","Mac OS 10.15.7","Chrome 115.0.0.0","1440x900","1440x789",NA,NA,0,"Pre-Video Feedback Task (Clone)",6,"ABJCIDHEGF",NA,"study_2 (video_feedback and feedback_list_2)","Feedback_ranking_L2_first","Spreadsheet1",NA,"","","",NA,"5","BEGIN",NA,NA,NA,NA,NA,NA,0,NA,NA,NA,NA,"","",NA,"","",NA,"SUPPRF71024"
"2",1692014719576,"14/08/2023 12:05:19",1692018319576,1,"14/08/2023 14:05:19",140743,17,"task-w8vi",NA,31175371,9242371,NA,"complete",NA,"64da21b55d753010d019b257","computer","Desktop or Laptop","Mac OS 10.15.7","Chrome 115.0.0.0","1440x900","1440x789",NA,NA,0,"Pre-Video Feedback Task (Clone)",6,"ABJCIDHEGF",NA,"study_2 (video_feedback and feedback_list_2)","Feedback_ranking_L2_first","Spreadsheet1",1,"Instructions","Screen 1","by7fw4",1,"continue","",3979.68300000028,3966.508,3979.68300000028,3979.68300000028,3966.508,3979.68300000028,1,3979.68300000028,0,0,NA,"Click To Continue","Continue Button",2,"object-15","Instructions",NA,"SUPPRF71024"
"3",1692014721207,"14/08/2023 12:05:21",1692018321207,1,"14/08/2023 14:05:21",140743,17,"task-w8vi",NA,31175371,9242371,NA,"complete",NA,"64da21b55d753010d019b257","computer","Desktop or Laptop","Mac OS 10.15.7","Chrome 115.0.0.0","1440x900","1440x789",NA,NA,0,"Pre-Video Feedback Task (Clone)",6,"ABJCIDHEGF",NA,"study_2 (video_feedback and feedback_list_2)","Feedback_ranking_L2_first","Spreadsheet1",1,"Instructions","Screen 2","32ryug",2,"continue","",1644.875,1633.268,1644.875,1644.875,1633.268,1644.875,1,1644.875,0,0,NA,"Click To Continue","Continue Button",2,"object-18","Instructions",NA,"SUPPRF71024"
"4",1692014725779,"14/08/2023 12:05:25",1692018325779,1,"14/08/2023 14:05:25",140743,17,"task-w8vi",NA,31175371,9242371,NA,"complete",NA,"64da21b55d753010d019b257","computer","Desktop or Laptop","Mac OS 10.15.7","Chrome 115.0.0.0","1440x900","1440x789",NA,NA,0,"Pre-Video Feedback Task (Clone)",6,"ABJCIDHEGF",NA,"study_2 (video_feedback and feedback_list_2)","Feedback_ranking_L2_first","Spreadsheet1",1,"Instructions","Screen 6","qfz25j",3,"continue","",4583.50699999991,4571.934,4583.50699999991,4583.50699999991,4571.934,4583.50699999991,1,4583.50699999991,0,0,NA,"Click To Continue","Continue Button",2,"object-44","Instructions",NA,"SUPPRF71024"
"5",1692014729496,"14/08/2023 12:05:29",1692018329496,1,"14/08/2023 14:05:29",140743,17,"task-w8vi",NA,31175371,9242371,NA,"complete",NA,"64da21b55d753010d019b257","computer","Desktop or Laptop","Mac OS 10.15.7","Chrome 115.0.0.0","1440x900","1440x789",NA,NA,0,"Pre-Video Feedback Task (Clone)",6,"ABJCIDHEGF",NA,"study_2 (video_feedback and feedback_list_2)","Feedback_ranking_L2_first","Spreadsheet1",1,"Instructions","Screen 3","oiajeu",4,"continue","",3728.87300000019,3716.518,3728.87300000019,3728.87300000019,3716.518,3728.87300000019,1,3728.87300000019,0,0,NA,"Click To Continue","Continue Button",2,"object-21","Instructions",NA,"SUPPRF71024"
"6",1692014736458,"14/08/2023 12:05:36",1692018336458,1,"14/08/2023 14:05:36",140743,17,"task-w8vi",NA,31175371,9242371,NA,"complete",NA,"64da21b55d753010d019b257","computer","Desktop or Laptop","Mac OS 10.15.7","Chrome 115.0.0.0","1440x900","1440x789",NA,NA,0,"Pre-Video Feedback Task (Clone)",6,"ABJCIDHEGF",NA,"study_2 (video_feedback and feedback_list_2)","Feedback_ranking_L2_first","Spreadsheet1",1,"Instructions","Screen 4","x6yf73",5,"continue","",6973.95500000028,6963.533,6973.95500000028,6973.95500000028,6963.533,6973.95500000028,1,6973.95500000028,0,0,NA,"Click To Continue","Continue Button",2,"object-24","Instructions",NA,"SUPPRF71024"
"7",1692014737464,"14/08/2023 12:05:37",1692018337464,1,"14/08/2023 14:05:37",140743,17,"task-w8vi",NA,31175371,9242371,NA,"complete",NA,"64da21b55d753010d019b257","computer","Desktop or Laptop","Mac OS 10.15.7","Chrome 115.0.0.0","1440x900","1440x789",NA,NA,0,"Pre-Video Feedback Task (Clone)",6,"ABJCIDHEGF",NA,"study_2 (video_feedback and feedback_list_2)","Feedback_ranking_L2_first","Spreadsheet1",1,"Instructions","Screen 7","rb1b6r",6,"continue","",1016.42200000028,999.959999999999,1016.42200000028,1016.42200000028,999.959999999999,1016.42200000028,1,1016.42200000028,0,0,NA,"Click To Continue","Continue Button",2,"object-49","Instructions",NA,"SUPPRF71024"
"8",1692014782746,"14/08/2023 12:06:22",1692018382746,1,"14/08/2023 14:06:22",140743,17,"task-w8vi",NA,31175371,9242371,NA,"complete",NA,"64da21b55d753010d019b257","computer","Desktop or Laptop","Mac OS 10.15.7","Chrome 115.0.0.0","1440x900","1440x789",NA,NA,0,"Pre-Video Feedback Task (Clone)",6,"ABJCIDHEGF",NA,"study_2 (video_feedback and feedback_list_2)","Feedback_ranking_L2_first","Spreadsheet1",1,"Practice run","Screen 1","ncwxmk",1,"continue","",45290.3620000002,45279.842,45290.3620000002,45290.3620000002,45279.842,45290.3620000002,1,45290.3620000002,0,0,NA,"Click To Continue","Continue Button",2,"object-29","Practice run",NA,"SUPPRF71024"
"9",1692014782749,"14/08/2023 12:06:22",1692018382749,1,"14/08/2023 14:06:22",140743,17,"task-w8vi",NA,31175371,9242371,NA,"complete",NA,"64da21b55d753010d019b257","computer","Desktop or Laptop","Mac OS 10.15.7","Chrome 115.0.0.0","1440x900","1440x789",NA,NA,0,"Pre-Video Feedback Task (Clone)",6,"ABJCIDHEGF",NA,"study_2 (video_feedback and feedback_list_2)","Feedback_ranking_L2_first","Spreadsheet1",1,"Practice run","Screen 1","ncwxmk",1,"response","Set out what was in the room",26143.653,45279.842,45296.508,26143.653,45279.842,45296.508,1,26143.653,19152.855,0,NA,"Text Entry","Text Entry",5,"object-38","Practice run",NA,"SUPPRF71024"
"10",1692014782749,"14/08/2023 12:06:22",1692018382749,1,"14/08/2023 14:06:22",140743,17,"task-w8vi",NA,31175371,9242371,NA,"complete",NA,"64da21b55d753010d019b257","computer","Desktop or Laptop","Mac OS 10.15.7","Chrome 115.0.0.0","1440x900","1440x789",NA,NA,0,"Pre-Video Feedback Task (Clone)",6,"ABJCIDHEGF",NA,"study_2 (video_feedback and feedback_list_2)","Feedback_ranking_L2_first","Spreadsheet1",1,"Practice run","Screen 1","ncwxmk",1,"response","Told us who was there in a basic manner",38139.568,45279.842,45296.508,38139.568,45279.842,45296.508,1,38139.568,7156.93999999999,0,NA,"Text Entry","Text Entry",6,"object-40","Practice run",NA,"SUPPRF71024"
"11",1692014782750,"14/08/2023 12:06:22",1692018382750,1,"14/08/2023 14:06:22",140743,17,"task-w8vi",NA,31175371,9242371,NA,"complete",NA,"64da21b55d753010d019b257","computer","Desktop or Laptop","Mac OS 10.15.7","Chrome 115.0.0.0","1440x900","1440x789",NA,NA,0,"Pre-Video Feedback Task (Clone)",6,"ABJCIDHEGF",NA,"study_2 (video_feedback and feedback_list_2)","Feedback_ranking_L2_first","Spreadsheet1",NA,"","","",NA,"5","END",NA,NA,NA,NA,NA,NA,0,NA,NA,NA,NA,"","",NA,"","",NA,"SUPPRF71024"
