"","Event.Index","UTC.Timestamp","UTC.Date.and.Time","Local.Timestamp","Local.Timezone","Local.Date.and.Time","Experiment.ID","Experiment.Version","Tree.Node.Key","Repeat.Key","Schedule.ID","Participant.Starting.Group","Participant.Status","Participant.Completion.Code","Participant.External.Session.ID","Participant.Device.Type","Participant.Device","Participant.OS","Participant.Browser","Participant.Monitor.Size","Participant.Viewport.Size","Checkpoint","Room.ID","Room.Order","Task.Name","Task.Version","order.ot79","randomiser.lqqr","randomiser.28m8","randomiser.tf5j","Spreadsheet","Trial.Number","Display","Screen","Screen.ID","Screen.Counter","Response.Type","Response","Onset.Time","Clock.Time","Reaction.Time","Absolute.Onset.Time","Absolute.Clock.Time","Absolute.Reaction.Time","Correct","Response.Onset","Response.Duration","Proportion","Tag","Component.Name","Object.Name","Object.Number","Object.ID","Spreadsheet..display","Spreadsheet..Index","Spreadsheet..X1","Spreadsheet..X2","Spreadsheet..Display","Manipulation..Spreadsheet","Random_ID"
"1",1,1692008198861,"14/08/2023 10:16:38",1692011798861,1,"14/08/2023 12:16:38",140743,17,"task-3dhf",NA,31173262,NA,"complete",NA,"64da04919351a898f9c3ea48","computer","Desktop or Laptop","Windows 10","Chrome 115.0.0.0","1920x1080","1465x945",NA,NA,0,"Feedback Phrases Task - List 1 (study_2) (Clone with new randomisation)",2,"IJHAGBFCED","A (JV first)","study_1 (JV and feedback_list_1)",NA,"Feedback List 1",NA,"","","",NA,"5","BEGIN",NA,NA,NA,NA,NA,NA,0,NA,NA,NA,NA,"","",NA,"",NA,NA,"","","",NA,"SUPPRF41746"
"2",2,1692008213995,"14/08/2023 10:16:53",1692011813995,1,"14/08/2023 12:16:53",140743,17,"task-3dhf",NA,31173262,NA,"complete",NA,"64da04919351a898f9c3ea48","computer","Desktop or Laptop","Windows 10","Chrome 115.0.0.0","1920x1080","1465x945",NA,NA,0,"Feedback Phrases Task - List 1 (study_2) (Clone with new randomisation)",2,"IJHAGBFCED","A (JV first)","study_1 (JV and feedback_list_1)",NA,"Feedback List 1",1,"Instructions","Screen 3","6w7c99",1,"continue","",15163.1020000119,15149.496,15163.1020000119,15163.1020000119,15149.496,15163.1020000119,1,15163.1020000119,0,0,NA,"Click To Continue","Continue Button",2,"object-29",NA,NA,"","","Instructions",NA,"SUPPRF41746"
"3",3,1692008219377,"14/08/2023 10:16:59",1692011819377,1,"14/08/2023 12:16:59",140743,17,"task-3dhf",NA,31173262,NA,"complete",NA,"64da04919351a898f9c3ea48","computer","Desktop or Laptop","Windows 10","Chrome 115.0.0.0","1920x1080","1465x945",NA,NA,0,"Feedback Phrases Task - List 1 (study_2) (Clone with new randomisation)",2,"IJHAGBFCED","A (JV first)","study_1 (JV and feedback_list_1)",NA,"Feedback List 1",1,"Instructions","Screen 4","4vof69",2,"continue","",5396.70599997616,5383.184,5396.70599997616,5396.70599997616,5383.184,5396.70599997616,1,5396.70599997616,0,0,NA,"Click To Continue","Continue Button",2,"object-41",NA,NA,"","","Instructions",NA,"SUPPRF41746"
"4",4,1692008221313,"14/08/2023 10:17:01",1692011821313,1,"14/08/2023 12:17:01",140743,17,"task-3dhf",NA,31173262,NA,"complete",NA,"64da04919351a898f9c3ea48","computer","Desktop or Laptop","Windows 10","Chrome 115.0.0.0","1920x1080","1465x945",NA,NA,0,"Feedback Phrases Task - List 1 (study_2) (Clone with new randomisation)",2,"IJHAGBFCED","A (JV first)","study_1 (JV and feedback_list_1)",NA,"Feedback List 1",1,"Task","Screen 1","113qg5",1,"response","Good work!",1949.02199997616,1933.275,1949.02199997616,1949.02199997616,1933.275,1949.02199997616,1,1949.02199997616,0,0,NA,"Click Response","Text_right_X2",3,"object-19",NA,1,"You completed the task.","Good work!","Task",NA,"SUPPRF41746"
"5",5,1692008221313,"14/08/2023 10:17:01",1692011821313,1,"14/08/2023 12:17:01",140743,17,"task-3dhf",NA,31173262,NA,"complete",NA,"64da04919351a898f9c3ea48","computer","Desktop or Laptop","Windows 10","Chrome 115.0.0.0","1920x1080","1465x945",NA,NA,0,"Feedback Phrases Task - List 1 (study_2) (Clone with new randomisation)",2,"IJHAGBFCED","A (JV first)","study_1 (JV and feedback_list_1)",NA,"Feedback List 1",1,"Task","Screen 1","113qg5",1,"action","Text",1949.821,1933.275,1949.821,1949.821,1933.275,1949.821,1,1949.821,0,0,NA,"Mousetracking","screen",0,"screen",NA,1,"You completed the task.","Good work!","Task",NA,"SUPPRF41746"
"6",6,1692008221314,"14/08/2023 10:17:01",1692011821314,1,"14/08/2023 12:17:01",140743,17,"task-3dhf",NA,31173262,NA,"complete",NA,"64da04919351a898f9c3ea48","computer","Desktop or Laptop","Windows 10","Chrome 115.0.0.0","1920x1080","1465x945",NA,NA,0,"Feedback Phrases Task - List 1 (study_2) (Clone with new randomisation)",2,"IJHAGBFCED","A (JV first)","study_1 (JV and feedback_list_1)",NA,"Feedback List 1",1,"Task","Screen 1","113qg5",1,"action","Text_left_X1",1949.821,1933.275,1949.821,1949.821,1933.275,1949.821,1,1949.821,0,0,NA,"Mousetracking","screen",0,"screen",NA,1,"You completed the task.","Good work!","Task",NA,"SUPPRF41746"
"7",7,1692008221315,"14/08/2023 10:17:01",1692011821315,1,"14/08/2023 12:17:01",140743,17,"task-3dhf",NA,31173262,NA,"complete",NA,"64da04919351a898f9c3ea48","computer","Desktop or Laptop","Windows 10","Chrome 115.0.0.0","1920x1080","1465x945",NA,NA,0,"Feedback Phrases Task - List 1 (study_2) (Clone with new randomisation)",2,"IJHAGBFCED","A (JV first)","study_1 (JV and feedback_list_1)",NA,"Feedback List 1",1,"Task","Screen 1","113qg5",1,"action","Text_right_X2",1949.821,1933.275,1949.821,1949.821,1933.275,1949.821,1,1949.821,116.664000000001,0.0603452690382904,NA,"Mousetracking","screen",0,"screen",NA,1,"You completed the task.","Good work!","Task",NA,"SUPPRF41746"
"8",8,1692008223064,"14/08/2023 10:17:03",1692011823064,1,"14/08/2023 12:17:03",140743,17,"task-3dhf",NA,31173262,NA,"complete",NA,"64da04919351a898f9c3ea48","computer","Desktop or Laptop","Windows 10","Chrome 115.0.0.0","1920x1080","1465x945",NA,NA,0,"Feedback Phrases Task - List 1 (study_2) (Clone with new randomisation)",2,"IJHAGBFCED","A (JV first)","study_1 (JV and feedback_list_1)",NA,"Feedback List 1",1,"Task","Screen 3","izqege",2,"continue","",1766.604,1766.604,1766.604,1766.604,1766.604,1766.604,1,1766.604,0,0,NA,"Fixation Timing","Fixation Cross",1,"object-48",NA,1,"You completed the task.","Good work!","Task",NA,"SUPPRF41746"
"9",9,1692008226193,"14/08/2023 10:17:06",1692011826193,1,"14/08/2023 12:17:06",140743,17,"task-3dhf",NA,31173262,NA,"complete",NA,"64da04919351a898f9c3ea48","computer","Desktop or Laptop","Windows 10","Chrome 115.0.0.0","1920x1080","1465x945",NA,NA,0,"Feedback Phrases Task - List 1 (study_2) (Clone with new randomisation)",2,"IJHAGBFCED","A (JV first)","study_1 (JV and feedback_list_1)",NA,"Feedback List 1",2,"Task","Screen 1","113qg5",1,"response","That was great!",3129.44299998808,3116.628,3129.44299998808,3129.44299998808,3116.628,3129.44299998808,1,3129.44299998808,0,0,NA,"Click Response","Text_right_X2",3,"object-19",NA,1,"Your description was very clear and concise.","That was great!","Task",NA,"SUPPRF41746"
"10",10,1692008226199,"14/08/2023 10:17:06",1692011826199,1,"14/08/2023 12:17:06",140743,17,"task-3dhf",NA,31173262,NA,"complete",NA,"64da04919351a898f9c3ea48","computer","Desktop or Laptop","Windows 10","Chrome 115.0.0.0","1920x1080","1465x945",NA,NA,0,"Feedback Phrases Task - List 1 (study_2) (Clone with new randomisation)",2,"IJHAGBFCED","A (JV first)","study_1 (JV and feedback_list_1)",NA,"Feedback List 1",2,"Task","Screen 1","113qg5",1,"action","Text",3133.286,3116.628,3133.286,3133.286,3116.628,3133.286,1,3133.286,0,0,NA,"Mousetracking","screen",0,"screen",NA,1,"Your description was very clear and concise.","That was great!","Task",NA,"SUPPRF41746"
"11",11,1692008226200,"14/08/2023 10:17:06",1692011826200,1,"14/08/2023 12:17:06",140743,17,"task-3dhf",NA,31173262,NA,"complete",NA,"64da04919351a898f9c3ea48","computer","Desktop or Laptop","Windows 10","Chrome 115.0.0.0","1920x1080","1465x945",NA,NA,0,"Feedback Phrases Task - List 1 (study_2) (Clone with new randomisation)",2,"IJHAGBFCED","A (JV first)","study_1 (JV and feedback_list_1)",NA,"Feedback List 1",2,"Task","Screen 1","113qg5",1,"action","Text_left_X1",3133.286,3116.628,3133.286,3133.286,3116.628,3133.286,1,3133.286,0,0,NA,"Mousetracking","screen",0,"screen",NA,1,"Your description was very clear and concise.","That was great!","Task",NA,"SUPPRF41746"
"12",12,1692008226201,"14/08/2023 10:17:06",1692011826201,1,"14/08/2023 12:17:06",140743,17,"task-3dhf",NA,31173262,NA,"complete",NA,"64da04919351a898f9c3ea48","computer","Desktop or Laptop","Windows 10","Chrome 115.0.0.0","1920x1080","1465x945",NA,NA,0,"Feedback Phrases Task - List 1 (study_2) (Clone with new randomisation)",2,"IJHAGBFCED","A (JV first)","study_1 (JV and feedback_list_1)",NA,"Feedback List 1",2,"Task","Screen 1","113qg5",1,"action","Text_right_X2",3133.286,3116.628,3133.286,3133.286,3116.628,3133.286,1,3133.286,0,0,NA,"Mousetracking","screen",0,"screen",NA,1,"Your description was very clear and concise.","That was great!","Task",NA,"SUPPRF41746"
"13",13,1692008227947,"14/08/2023 10:17:07",1692011827947,1,"14/08/2023 12:17:07",140743,17,"task-3dhf",NA,31173262,NA,"complete",NA,"64da04919351a898f9c3ea48","computer","Desktop or Laptop","Windows 10","Chrome 115.0.0.0","1920x1080","1465x945",NA,NA,0,"Feedback Phrases Task - List 1 (study_2) (Clone with new randomisation)",2,"IJHAGBFCED","A (JV first)","study_1 (JV and feedback_list_1)",NA,"Feedback List 1",2,"Task","Screen 3","izqege",2,"continue","",1766.657,1766.657,1766.657,1766.657,1766.657,1766.657,1,1766.657,0,0,NA,"Fixation Timing","Fixation Cross",1,"object-48",NA,1,"Your description was very clear and concise.","That was great!","Task",NA,"SUPPRF41746"
"14",14,1692008234244,"14/08/2023 10:17:14",1692011834244,1,"14/08/2023 12:17:14",140743,17,"task-3dhf",NA,31173262,NA,"complete",NA,"64da04919351a898f9c3ea48","computer","Desktop or Laptop","Windows 10","Chrome 115.0.0.0","1920x1080","1465x945",NA,NA,0,"Feedback Phrases Task - List 1 (study_2) (Clone with new randomisation)",2,"IJHAGBFCED","A (JV first)","study_1 (JV and feedback_list_1)",NA,"Feedback List 1",3,"Task","Screen 1","113qg5",1,"response","Your description was very clear and concise.",6297.65799998808,6283.185,6297.65799998808,6297.65799998808,6283.185,6297.65799998808,1,6297.65799998808,0,0,NA,"Click Response","Text_right_X2",3,"object-19",NA,1,"You made a great impression.","Your description was very clear and concise.","Task",NA,"SUPPRF41746"
"15",15,1692008234245,"14/08/2023 10:17:14",1692011834245,1,"14/08/2023 12:17:14",140743,17,"task-3dhf",NA,31173262,NA,"complete",NA,"64da04919351a898f9c3ea48","computer","Desktop or Laptop","Windows 10","Chrome 115.0.0.0","1920x1080","1465x945",NA,NA,0,"Feedback Phrases Task - List 1 (study_2) (Clone with new randomisation)",2,"IJHAGBFCED","A (JV first)","study_1 (JV and feedback_list_1)",NA,"Feedback List 1",3,"Task","Screen 1","113qg5",1,"action","Text",6298.458,6283.185,6298.458,6298.458,6283.185,6298.458,1,6298.458,0,0,NA,"Mousetracking","screen",0,"screen",NA,1,"You made a great impression.","Your description was very clear and concise.","Task",NA,"SUPPRF41746"
"16",16,1692008234246,"14/08/2023 10:17:14",1692011834246,1,"14/08/2023 12:17:14",140743,17,"task-3dhf",NA,31173262,NA,"complete",NA,"64da04919351a898f9c3ea48","computer","Desktop or Laptop","Windows 10","Chrome 115.0.0.0","1920x1080","1465x945",NA,NA,0,"Feedback Phrases Task - List 1 (study_2) (Clone with new randomisation)",2,"IJHAGBFCED","A (JV first)","study_1 (JV and feedback_list_1)",NA,"Feedback List 1",3,"Task","Screen 1","113qg5",1,"action","Text_left_X1",6298.958,6283.185,6298.958,6298.958,6283.185,6298.958,1,6298.958,2149.996,0.342182507756814,NA,"Mousetracking","screen",0,"screen",NA,1,"You made a great impression.","Your description was very clear and concise.","Task",NA,"SUPPRF41746"
"17",17,1692008234246,"14/08/2023 10:17:14",1692011834246,1,"14/08/2023 12:17:14",140743,17,"task-3dhf",NA,31173262,NA,"complete",NA,"64da04919351a898f9c3ea48","computer","Desktop or Laptop","Windows 10","Chrome 115.0.0.0","1920x1080","1465x945",NA,NA,0,"Feedback Phrases Task - List 1 (study_2) (Clone with new randomisation)",2,"IJHAGBFCED","A (JV first)","study_1 (JV and feedback_list_1)",NA,"Feedback List 1",3,"Task","Screen 1","113qg5",1,"action","Text_right_X2",6299.55800002384,6283.185,6299.55800002384,6299.55800002384,6283.185,6299.55800002384,1,6299.55800002384,33361.273,5.30961176537059,NA,"Mousetracking","screen",0,"screen",NA,1,"You made a great impression.","Your description was very clear and concise.","Task",NA,"SUPPRF41746"
"18",18,1692008235997,"14/08/2023 10:17:15",1692011835997,1,"14/08/2023 12:17:15",140743,17,"task-3dhf",NA,31173262,NA,"complete",NA,"64da04919351a898f9c3ea48","computer","Desktop or Laptop","Windows 10","Chrome 115.0.0.0","1920x1080","1465x945",NA,NA,0,"Feedback Phrases Task - List 1 (study_2) (Clone with new randomisation)",2,"IJHAGBFCED","A (JV first)","study_1 (JV and feedback_list_1)",NA,"Feedback List 1",3,"Task","Screen 3","izqege",2,"continue","",1766.611,1766.611,1766.611,1766.611,1766.611,1766.611,1,1766.611,0,0,NA,"Fixation Timing","Fixation Cross",1,"object-48",NA,1,"You made a great impression.","Your description was very clear and concise.","Task",NA,"SUPPRF41746"
"19",19,1692008238031,"14/08/2023 10:17:18",1692011838031,1,"14/08/2023 12:17:18",140743,17,"task-3dhf",NA,31173262,NA,"complete",NA,"64da04919351a898f9c3ea48","computer","Desktop or Laptop","Windows 10","Chrome 115.0.0.0","1920x1080","1465x945",NA,NA,0,"Feedback Phrases Task - List 1 (study_2) (Clone with new randomisation)",2,"IJHAGBFCED","A (JV first)","study_1 (JV and feedback_list_1)",NA,"Feedback List 1",4,"Task","Screen 1","113qg5",1,"response","Everything you said was correct.",2034.86199998808,2033.20099999999,2034.86199998808,2034.86199998808,2033.20099999999,2034.86199998808,1,2034.86199998808,0,0,NA,"Click Response","Text_right_X2",3,"object-19",NA,1,"I didn't notice any mistakes.","Everything you said was correct.","Task",NA,"SUPPRF41746"
"20",20,1692008238045,"14/08/2023 10:17:18",1692011838045,1,"14/08/2023 12:17:18",140743,17,"task-3dhf",NA,31173262,NA,"complete",NA,"64da04919351a898f9c3ea48","computer","Desktop or Laptop","Windows 10","Chrome 115.0.0.0","1920x1080","1465x945",NA,NA,0,"Feedback Phrases Task - List 1 (study_2) (Clone with new randomisation)",2,"IJHAGBFCED","A (JV first)","study_1 (JV and feedback_list_1)",NA,"Feedback List 1",4,"Task","Screen 1","113qg5",1,"action","Text",2048.06199997615,2033.20099999999,2048.06199997615,2048.06199997615,2033.20099999999,2048.06199997615,1,2048.06199997615,0,0,NA,"Mousetracking","screen",0,"screen",NA,1,"I didn't notice any mistakes.","Everything you said was correct.","Task",NA,"SUPPRF41746"
"21",21,1692008238046,"14/08/2023 10:17:18",1692011838046,1,"14/08/2023 12:17:18",140743,17,"task-3dhf",NA,31173262,NA,"complete",NA,"64da04919351a898f9c3ea48","computer","Desktop or Laptop","Windows 10","Chrome 115.0.0.0","1920x1080","1465x945",NA,NA,0,"Feedback Phrases Task - List 1 (study_2) (Clone with new randomisation)",2,"IJHAGBFCED","A (JV first)","study_1 (JV and feedback_list_1)",NA,"Feedback List 1",4,"Task","Screen 1","113qg5",1,"action","Text_left_X1",2049.36199998808,2033.20099999999,2049.36199998808,2049.36199998808,2033.20099999999,2049.36199998808,1,2049.36199998808,0,0,NA,"Mousetracking","screen",0,"screen",NA,1,"I didn't notice any mistakes.","Everything you said was correct.","Task",NA,"SUPPRF41746"
"22",22,1692008238047,"14/08/2023 10:17:18",1692011838047,1,"14/08/2023 12:17:18",140743,17,"task-3dhf",NA,31173262,NA,"complete",NA,"64da04919351a898f9c3ea48","computer","Desktop or Laptop","Windows 10","Chrome 115.0.0.0","1920x1080","1465x945",NA,NA,0,"Feedback Phrases Task - List 1 (study_2) (Clone with new randomisation)",2,"IJHAGBFCED","A (JV first)","study_1 (JV and feedback_list_1)",NA,"Feedback List 1",4,"Task","Screen 1","113qg5",1,"action","Text_right_X2",2049.86999999999,2033.20099999999,2049.86999999999,2049.86999999999,2033.20099999999,2049.86999999999,1,2049.86999999999,83.3329999999987,0.0409861100796227,NA,"Mousetracking","screen",0,"screen",NA,1,"I didn't notice any mistakes.","Everything you said was correct.","Task",NA,"SUPPRF41746"
"23",23,1692008239798,"14/08/2023 10:17:19",1692011839798,1,"14/08/2023 12:17:19",140743,17,"task-3dhf",NA,31173262,NA,"complete",NA,"64da04919351a898f9c3ea48","computer","Desktop or Laptop","Windows 10","Chrome 115.0.0.0","1920x1080","1465x945",NA,NA,0,"Feedback Phrases Task - List 1 (study_2) (Clone with new randomisation)",2,"IJHAGBFCED","A (JV first)","study_1 (JV and feedback_list_1)",NA,"Feedback List 1",4,"Task","Screen 3","izqege",2,"continue","",1766.616,1766.616,1766.616,1766.616,1766.616,1766.616,1,1766.616,0,0,NA,"Fixation Timing","Fixation Cross",1,"object-48",NA,1,"I didn't notice any mistakes.","Everything you said was correct.","Task",NA,"SUPPRF41746"
"24",24,1692008241819,"14/08/2023 10:17:21",1692011841819,1,"14/08/2023 12:17:21",140743,17,"task-3dhf",NA,31173262,NA,"complete",NA,"64da04919351a898f9c3ea48","computer","Desktop or Laptop","Windows 10","Chrome 115.0.0.0","1920x1080","1465x945",NA,NA,0,"Feedback Phrases Task - List 1 (study_2) (Clone with new randomisation)",2,"IJHAGBFCED","A (JV first)","study_1 (JV and feedback_list_1)",NA,"Feedback List 1",5,"Task","Screen 1","113qg5",1,"response","You came across as very calm and collected.",2022.845,2016.582,2022.845,2022.845,2016.582,2022.845,1,2022.845,0,0,NA,"Click Response","Text_right_X2",3,"object-19",NA,1,"I didn't notice any mistakes.","You came across as very calm and collected.","Task",NA,"SUPPRF41746"
"25",25,1692008241820,"14/08/2023 10:17:21",1692011841820,1,"14/08/2023 12:17:21",140743,17,"task-3dhf",NA,31173262,NA,"complete",NA,"64da04919351a898f9c3ea48","computer","Desktop or Laptop","Windows 10","Chrome 115.0.0.0","1920x1080","1465x945",NA,NA,0,"Feedback Phrases Task - List 1 (study_2) (Clone with new randomisation)",2,"IJHAGBFCED","A (JV first)","study_1 (JV and feedback_list_1)",NA,"Feedback List 1",5,"Task","Screen 1","113qg5",1,"action","Text",2023.345,2016.582,2023.345,2023.345,2016.582,2023.345,1,2023.345,0,0,NA,"Mousetracking","screen",0,"screen",NA,1,"I didn't notice any mistakes.","You came across as very calm and collected.","Task",NA,"SUPPRF41746"
"26",26,1692008241820,"14/08/2023 10:17:21",1692011841820,1,"14/08/2023 12:17:21",140743,17,"task-3dhf",NA,31173262,NA,"complete",NA,"64da04919351a898f9c3ea48","computer","Desktop or Laptop","Windows 10","Chrome 115.0.0.0","1920x1080","1465x945",NA,NA,0,"Feedback Phrases Task - List 1 (study_2) (Clone with new randomisation)",2,"IJHAGBFCED","A (JV first)","study_1 (JV and feedback_list_1)",NA,"Feedback List 1",5,"Task","Screen 1","113qg5",1,"action","Text_left_X1",2023.74499997616,2016.582,2023.74499997616,2023.74499997616,2016.582,2023.74499997616,1,2023.74499997616,0,0,NA,"Mousetracking","screen",0,"screen",NA,1,"I didn't notice any mistakes.","You came across as very calm and collected.","Task",NA,"SUPPRF41746"
"27",27,1692008241820,"14/08/2023 10:17:21",1692011841820,1,"14/08/2023 12:17:21",140743,17,"task-3dhf",NA,31173262,NA,"complete",NA,"64da04919351a898f9c3ea48","computer","Desktop or Laptop","Windows 10","Chrome 115.0.0.0","1920x1080","1465x945",NA,NA,0,"Feedback Phrases Task - List 1 (study_2) (Clone with new randomisation)",2,"IJHAGBFCED","A (JV first)","study_1 (JV and feedback_list_1)",NA,"Feedback List 1",5,"Task","Screen 1","113qg5",1,"action","Text_right_X2",2024.14500001192,2016.582,2024.14500001192,2024.14500001192,2016.582,2024.14500001192,1,2024.14500001192,216.644999999997,0.107431783086429,NA,"Mousetracking","screen",0,"screen",NA,1,"I didn't notice any mistakes.","You came across as very calm and collected.","Task",NA,"SUPPRF41746"
"28",28,1692008243580,"14/08/2023 10:17:23",1692011843580,1,"14/08/2023 12:17:23",140743,17,"task-3dhf",NA,31173262,NA,"complete",NA,"64da04919351a898f9c3ea48","computer","Desktop or Laptop","Windows 10","Chrome 115.0.0.0","1920x1080","1465x945",NA,NA,0,"Feedback Phrases Task - List 1 (study_2) (Clone with new randomisation)",2,"IJHAGBFCED","A (JV first)","study_1 (JV and feedback_list_1)",NA,"Feedback List 1",5,"Task","Screen 3","izqege",2,"continue","",1766.595,1766.595,1766.595,1766.595,1766.595,1766.595,1,1766.595,0,0,NA,"Fixation Timing","Fixation Cross",1,"object-48",NA,1,"I didn't notice any mistakes.","You came across as very calm and collected.","Task",NA,"SUPPRF41746"
"29",29,1692008246251,"14/08/2023 10:17:26",1692011846251,1,"14/08/2023 12:17:26",140743,17,"task-3dhf",NA,31173262,NA,"complete",NA,"64da04919351a898f9c3ea48","computer","Desktop or Laptop","Windows 10","Chrome 115.0.0.0","1920x1080","1465x945",NA,NA,0,"Feedback Phrases Task - List 1 (study_2) (Clone with new randomisation)",2,"IJHAGBFCED","A (JV first)","study_1 (JV and feedback_list_1)",NA,"Feedback List 1",6,"Task","Screen 1","113qg5",1,"response","Your description was very clear and concise.",2671.06799997616,2666.613,2671.06799997616,2671.06799997616,2666.613,2671.06799997616,1,2671.06799997616,0,0,NA,"Click Response","Text_left_X1",2,"object-18",NA,1,"Your description was very clear and concise.","I didn't notice any mistakes.","Task",NA,"SUPPRF41746"
"30",30,1692008246253,"14/08/2023 10:17:26",1692011846253,1,"14/08/2023 12:17:26",140743,17,"task-3dhf",NA,31173262,NA,"complete",NA,"64da04919351a898f9c3ea48","computer","Desktop or Laptop","Windows 10","Chrome 115.0.0.0","1920x1080","1465x945",NA,NA,0,"Feedback Phrases Task - List 1 (study_2) (Clone with new randomisation)",2,"IJHAGBFCED","A (JV first)","study_1 (JV and feedback_list_1)",NA,"Feedback List 1",6,"Task","Screen 1","113qg5",1,"action","Text",2673.56799997616,2666.613,2673.56799997616,2673.56799997616,2666.613,2673.56799997616,1,2673.56799997616,0,0,NA,"Mousetracking","screen",0,"screen",NA,1,"Your description was very clear and concise.","I didn't notice any mistakes.","Task",NA,"SUPPRF41746"
"31",31,1692008246254,"14/08/2023 10:17:26",1692011846254,1,"14/08/2023 12:17:26",140743,17,"task-3dhf",NA,31173262,NA,"complete",NA,"64da04919351a898f9c3ea48","computer","Desktop or Laptop","Windows 10","Chrome 115.0.0.0","1920x1080","1465x945",NA,NA,0,"Feedback Phrases Task - List 1 (study_2) (Clone with new randomisation)",2,"IJHAGBFCED","A (JV first)","study_1 (JV and feedback_list_1)",NA,"Feedback List 1",6,"Task","Screen 1","113qg5",1,"action","Text_left_X1",2674.36799998808,2666.613,2674.36799998808,2674.36799998808,2666.613,2674.36799998808,1,2674.36799998808,66.6779999999999,0.0250047532206585,NA,"Mousetracking","screen",0,"screen",NA,1,"Your description was very clear and concise.","I didn't notice any mistakes.","Task",NA,"SUPPRF41746"
"32",32,1692008246255,"14/08/2023 10:17:26",1692011846255,1,"14/08/2023 12:17:26",140743,17,"task-3dhf",NA,31173262,NA,"complete",NA,"64da04919351a898f9c3ea48","computer","Desktop or Laptop","Windows 10","Chrome 115.0.0.0","1920x1080","1465x945",NA,NA,0,"Feedback Phrases Task - List 1 (study_2) (Clone with new randomisation)",2,"IJHAGBFCED","A (JV first)","study_1 (JV and feedback_list_1)",NA,"Feedback List 1",6,"Task","Screen 1","113qg5",1,"action","Text_right_X2",2675.26800002384,2666.613,2675.26800002384,2675.26800002384,2666.613,2675.26800002384,1,2675.26800002384,47927.425,17.973146084565,NA,"Mousetracking","screen",0,"screen",NA,1,"Your description was very clear and concise.","I didn't notice any mistakes.","Task",NA,"SUPPRF41746"
"33",33,1692008248013,"14/08/2023 10:17:28",1692011848013,1,"14/08/2023 12:17:28",140743,17,"task-3dhf",NA,31173262,NA,"complete",NA,"64da04919351a898f9c3ea48","computer","Desktop or Laptop","Windows 10","Chrome 115.0.0.0","1920x1080","1465x945",NA,NA,0,"Feedback Phrases Task - List 1 (study_2) (Clone with new randomisation)",2,"IJHAGBFCED","A (JV first)","study_1 (JV and feedback_list_1)",NA,"Feedback List 1",6,"Task","Screen 3","izqege",2,"continue","",1766.606,1766.606,1766.606,1766.606,1766.606,1766.606,1,1766.606,0,0,NA,"Fixation Timing","Fixation Cross",1,"object-48",NA,1,"Your description was very clear and concise.","I didn't notice any mistakes.","Task",NA,"SUPPRF41746"
"34",34,1692008253805,"14/08/2023 10:17:33",1692011853805,1,"14/08/2023 12:17:33",140743,17,"task-3dhf",NA,31173262,NA,"complete",NA,"64da04919351a898f9c3ea48","computer","Desktop or Laptop","Windows 10","Chrome 115.0.0.0","1920x1080","1465x945",NA,NA,0,"Feedback Phrases Task - List 1 (study_2) (Clone with new randomisation)",2,"IJHAGBFCED","A (JV first)","study_1 (JV and feedback_list_1)",NA,"Feedback List 1",7,"Task","Screen 1","113qg5",1,"response","You did a great job of capturing the details.",5792.24900001192,5783.094,5792.24900001192,5792.24900001192,5783.094,5792.24900001192,1,5792.24900001192,0,0,NA,"Click Response","Text_left_X1",2,"object-18",NA,1,"You did a great job of capturing the details.","That was great!","Task",NA,"SUPPRF41746"
"35",35,1692008253819,"14/08/2023 10:17:33",1692011853819,1,"14/08/2023 12:17:33",140743,17,"task-3dhf",NA,31173262,NA,"complete",NA,"64da04919351a898f9c3ea48","computer","Desktop or Laptop","Windows 10","Chrome 115.0.0.0","1920x1080","1465x945",NA,NA,0,"Feedback Phrases Task - List 1 (study_2) (Clone with new randomisation)",2,"IJHAGBFCED","A (JV first)","study_1 (JV and feedback_list_1)",NA,"Feedback List 1",7,"Task","Screen 1","113qg5",1,"action","Text",5799.73699999999,5783.094,5799.73699999999,5799.73699999999,5783.094,5799.73699999999,1,5799.73699999999,0,0,NA,"Mousetracking","screen",0,"screen",NA,1,"You did a great job of capturing the details.","That was great!","Task",NA,"SUPPRF41746"
"36",36,1692008253820,"14/08/2023 10:17:33",1692011853820,1,"14/08/2023 12:17:33",140743,17,"task-3dhf",NA,31173262,NA,"complete",NA,"64da04919351a898f9c3ea48","computer","Desktop or Laptop","Windows 10","Chrome 115.0.0.0","1920x1080","1465x945",NA,NA,0,"Feedback Phrases Task - List 1 (study_2) (Clone with new randomisation)",2,"IJHAGBFCED","A (JV first)","study_1 (JV and feedback_list_1)",NA,"Feedback List 1",7,"Task","Screen 1","113qg5",1,"action","Text_left_X1",5799.73699999999,5783.094,5799.73699999999,5799.73699999999,5783.094,5799.73699999999,1,5799.73699999999,52577.28,9.09154857244237,NA,"Mousetracking","screen",0,"screen",NA,1,"You did a great job of capturing the details.","That was great!","Task",NA,"SUPPRF41746"
"37",37,1692008253821,"14/08/2023 10:17:33",1692011853821,1,"14/08/2023 12:17:33",140743,17,"task-3dhf",NA,31173262,NA,"complete",NA,"64da04919351a898f9c3ea48","computer","Desktop or Laptop","Windows 10","Chrome 115.0.0.0","1920x1080","1465x945",NA,NA,0,"Feedback Phrases Task - List 1 (study_2) (Clone with new randomisation)",2,"IJHAGBFCED","A (JV first)","study_1 (JV and feedback_list_1)",NA,"Feedback List 1",7,"Task","Screen 1","113qg5",1,"action","Text_right_X2",5799.73699999999,5783.094,5799.73699999999,5799.73699999999,5783.094,5799.73699999999,1,5799.73699999999,2666.514,0.461087784497365,NA,"Mousetracking","screen",0,"screen",NA,1,"You did a great job of capturing the details.","That was great!","Task",NA,"SUPPRF41746"
"38",38,1692008255563,"14/08/2023 10:17:35",1692011855563,1,"14/08/2023 12:17:35",140743,17,"task-3dhf",NA,31173262,NA,"complete",NA,"64da04919351a898f9c3ea48","computer","Desktop or Laptop","Windows 10","Chrome 115.0.0.0","1920x1080","1465x945",NA,NA,0,"Feedback Phrases Task - List 1 (study_2) (Clone with new randomisation)",2,"IJHAGBFCED","A (JV first)","study_1 (JV and feedback_list_1)",NA,"Feedback List 1",7,"Task","Screen 3","izqege",2,"continue","",1766.627,1766.627,1766.627,1766.627,1766.627,1766.627,1,1766.627,0,0,NA,"Fixation Timing","Fixation Cross",1,"object-48",NA,1,"You did a great job of capturing the details.","That was great!","Task",NA,"SUPPRF41746"
"39",39,1692008257997,"14/08/2023 10:17:37",1692011857997,1,"14/08/2023 12:17:37",140743,17,"task-3dhf",NA,31173262,NA,"complete",NA,"64da04919351a898f9c3ea48","computer","Desktop or Laptop","Windows 10","Chrome 115.0.0.0","1920x1080","1465x945",NA,NA,0,"Feedback Phrases Task - List 1 (study_2) (Clone with new randomisation)",2,"IJHAGBFCED","A (JV first)","study_1 (JV and feedback_list_1)",NA,"Feedback List 1",8,"Task","Screen 1","113qg5",1,"response","You were very interesting to listen to.",2433.255,2416.61500000001,2433.255,2433.255,2416.61500000001,2433.255,1,2433.255,0,0,NA,"Click Response","Text_left_X1",2,"object-18",NA,1,"You were very interesting to listen to.","That was great!","Task",NA,"SUPPRF41746"
"40",40,1692008257999,"14/08/2023 10:17:37",1692011857999,1,"14/08/2023 12:17:37",140743,17,"task-3dhf",NA,31173262,NA,"complete",NA,"64da04919351a898f9c3ea48","computer","Desktop or Laptop","Windows 10","Chrome 115.0.0.0","1920x1080","1465x945",NA,NA,0,"Feedback Phrases Task - List 1 (study_2) (Clone with new randomisation)",2,"IJHAGBFCED","A (JV first)","study_1 (JV and feedback_list_1)",NA,"Feedback List 1",8,"Task","Screen 1","113qg5",1,"action","Text",2433.255,2416.61500000001,2433.255,2433.255,2416.61500000001,2433.255,1,2433.255,0,0,NA,"Mousetracking","screen",0,"screen",NA,1,"You were very interesting to listen to.","That was great!","Task",NA,"SUPPRF41746"
"41",41,1692008258000,"14/08/2023 10:17:38",1692011858000,1,"14/08/2023 12:17:38",140743,17,"task-3dhf",NA,31173262,NA,"complete",NA,"64da04919351a898f9c3ea48","computer","Desktop or Laptop","Windows 10","Chrome 115.0.0.0","1920x1080","1465x945",NA,NA,0,"Feedback Phrases Task - List 1 (study_2) (Clone with new randomisation)",2,"IJHAGBFCED","A (JV first)","study_1 (JV and feedback_list_1)",NA,"Feedback List 1",8,"Task","Screen 1","113qg5",1,"action","Text_left_X1",2433.255,2416.61500000001,2433.255,2433.255,2416.61500000001,2433.255,1,2433.255,749.982000000004,0.31034401425134,NA,"Mousetracking","screen",0,"screen",NA,1,"You were very interesting to listen to.","That was great!","Task",NA,"SUPPRF41746"
"42",42,1692008258001,"14/08/2023 10:17:38",1692011858001,1,"14/08/2023 12:17:38",140743,17,"task-3dhf",NA,31173262,NA,"complete",NA,"64da04919351a898f9c3ea48","computer","Desktop or Laptop","Windows 10","Chrome 115.0.0.0","1920x1080","1465x945",NA,NA,0,"Feedback Phrases Task - List 1 (study_2) (Clone with new randomisation)",2,"IJHAGBFCED","A (JV first)","study_1 (JV and feedback_list_1)",NA,"Feedback List 1",8,"Task","Screen 1","113qg5",1,"action","Text_right_X2",2433.255,2416.61500000001,2433.255,2433.255,2416.61500000001,2433.255,1,2433.255,0,0,NA,"Mousetracking","screen",0,"screen",NA,1,"You were very interesting to listen to.","That was great!","Task",NA,"SUPPRF41746"
"43",43,1692008259746,"14/08/2023 10:17:39",1692011859746,1,"14/08/2023 12:17:39",140743,17,"task-3dhf",NA,31173262,NA,"complete",NA,"64da04919351a898f9c3ea48","computer","Desktop or Laptop","Windows 10","Chrome 115.0.0.0","1920x1080","1465x945",NA,NA,0,"Feedback Phrases Task - List 1 (study_2) (Clone with new randomisation)",2,"IJHAGBFCED","A (JV first)","study_1 (JV and feedback_list_1)",NA,"Feedback List 1",8,"Task","Screen 3","izqege",2,"continue","",1766.624,1766.624,1766.624,1766.624,1766.624,1766.624,1,1766.624,0,0,NA,"Fixation Timing","Fixation Cross",1,"object-48",NA,1,"You were very interesting to listen to.","That was great!","Task",NA,"SUPPRF41746"
"44",44,1692008263224,"14/08/2023 10:17:43",1692011863224,1,"14/08/2023 12:17:43",140743,17,"task-3dhf",NA,31173262,NA,"complete",NA,"64da04919351a898f9c3ea48","computer","Desktop or Laptop","Windows 10","Chrome 115.0.0.0","1920x1080","1465x945",NA,NA,0,"Feedback Phrases Task - List 1 (study_2) (Clone with new randomisation)",2,"IJHAGBFCED","A (JV first)","study_1 (JV and feedback_list_1)",NA,"Feedback List 1",9,"Task","Screen 1","113qg5",1,"response","That was great!",3478.38899997616,3466.432,3478.38899997616,3478.38899997616,3466.432,3478.38899997616,1,3478.38899997616,0,0,NA,"Click Response","Text_right_X2",3,"object-19",NA,1,"You completed the task.","That was great!","Task",NA,"SUPPRF41746"
"45",45,1692008263225,"14/08/2023 10:17:43",1692011863225,1,"14/08/2023 12:17:43",140743,17,"task-3dhf",NA,31173262,NA,"complete",NA,"64da04919351a898f9c3ea48","computer","Desktop or Laptop","Windows 10","Chrome 115.0.0.0","1920x1080","1465x945",NA,NA,0,"Feedback Phrases Task - List 1 (study_2) (Clone with new randomisation)",2,"IJHAGBFCED","A (JV first)","study_1 (JV and feedback_list_1)",NA,"Feedback List 1",9,"Task","Screen 1","113qg5",1,"action","Text",3479.08900002384,3466.432,3479.08900002384,3479.08900002384,3466.432,3479.08900002384,1,3479.08900002384,0,0,NA,"Mousetracking","screen",0,"screen",NA,1,"You completed the task.","That was great!","Task",NA,"SUPPRF41746"
"46",46,1692008263225,"14/08/2023 10:17:43",1692011863225,1,"14/08/2023 12:17:43",140743,17,"task-3dhf",NA,31173262,NA,"complete",NA,"64da04919351a898f9c3ea48","computer","Desktop or Laptop","Windows 10","Chrome 115.0.0.0","1920x1080","1465x945",NA,NA,0,"Feedback Phrases Task - List 1 (study_2) (Clone with new randomisation)",2,"IJHAGBFCED","A (JV first)","study_1 (JV and feedback_list_1)",NA,"Feedback List 1",9,"Task","Screen 1","113qg5",1,"action","Text_left_X1",3479.489,3466.432,3479.489,3479.489,3466.432,3479.489,1,3479.489,64026.907,18.4705504103355,NA,"Mousetracking","screen",0,"screen",NA,1,"You completed the task.","That was great!","Task",NA,"SUPPRF41746"
"47",47,1692008263226,"14/08/2023 10:17:43",1692011863226,1,"14/08/2023 12:17:43",140743,17,"task-3dhf",NA,31173262,NA,"complete",NA,"64da04919351a898f9c3ea48","computer","Desktop or Laptop","Windows 10","Chrome 115.0.0.0","1920x1080","1465x945",NA,NA,0,"Feedback Phrases Task - List 1 (study_2) (Clone with new randomisation)",2,"IJHAGBFCED","A (JV first)","study_1 (JV and feedback_list_1)",NA,"Feedback List 1",9,"Task","Screen 1","113qg5",1,"action","Text_right_X2",3480.08900002384,3466.432,3480.08900002384,3480.08900002384,3466.432,3480.08900002384,1,3480.08900002384,866.644,0.250010385318391,NA,"Mousetracking","screen",0,"screen",NA,1,"You completed the task.","That was great!","Task",NA,"SUPPRF41746"
"48",48,1692008264979,"14/08/2023 10:17:44",1692011864979,1,"14/08/2023 12:17:44",140743,17,"task-3dhf",NA,31173262,NA,"complete",NA,"64da04919351a898f9c3ea48","computer","Desktop or Laptop","Windows 10","Chrome 115.0.0.0","1920x1080","1465x945",NA,NA,0,"Feedback Phrases Task - List 1 (study_2) (Clone with new randomisation)",2,"IJHAGBFCED","A (JV first)","study_1 (JV and feedback_list_1)",NA,"Feedback List 1",9,"Task","Screen 3","izqege",2,"continue","",1766.70299999999,1766.70299999999,1766.70299999999,1766.70299999999,1766.70299999999,1766.70299999999,1,1766.70299999999,0,0,NA,"Fixation Timing","Fixation Cross",1,"object-48",NA,1,"You completed the task.","That was great!","Task",NA,"SUPPRF41746"
"49",49,1692008272567,"14/08/2023 10:17:52",1692011872567,1,"14/08/2023 12:17:52",140743,17,"task-3dhf",NA,31173262,NA,"complete",NA,"64da04919351a898f9c3ea48","computer","Desktop or Laptop","Windows 10","Chrome 115.0.0.0","1920x1080","1465x945",NA,NA,0,"Feedback Phrases Task - List 1 (study_2) (Clone with new randomisation)",2,"IJHAGBFCED","A (JV first)","study_1 (JV and feedback_list_1)",NA,"Feedback List 1",10,"Task","Screen 1","113qg5",1,"response","You were very interesting to listen to.",7588.05399998809,7583.12100000001,7588.05399998809,7588.05399998809,7583.12100000001,7588.05399998809,1,7588.05399998809,0,0,NA,"Click Response","Text_right_X2",3,"object-19",NA,1,"You spoke very well.","You were very interesting to listen to.","Task",NA,"SUPPRF41746"
"50",50,1692008272568,"14/08/2023 10:17:52",1692011872568,1,"14/08/2023 12:17:52",140743,17,"task-3dhf",NA,31173262,NA,"complete",NA,"64da04919351a898f9c3ea48","computer","Desktop or Laptop","Windows 10","Chrome 115.0.0.0","1920x1080","1465x945",NA,NA,0,"Feedback Phrases Task - List 1 (study_2) (Clone with new randomisation)",2,"IJHAGBFCED","A (JV first)","study_1 (JV and feedback_list_1)",NA,"Feedback List 1",10,"Task","Screen 1","113qg5",1,"action","Text",7588.45400002385,7583.12100000001,7588.45400002385,7588.45400002385,7583.12100000001,7588.45400002385,1,7588.45400002385,0,0,NA,"Mousetracking","screen",0,"screen",NA,1,"You spoke very well.","You were very interesting to listen to.","Task",NA,"SUPPRF41746"
"51",51,1692008272568,"14/08/2023 10:17:52",1692011872568,1,"14/08/2023 12:17:52",140743,17,"task-3dhf",NA,31173262,NA,"complete",NA,"64da04919351a898f9c3ea48","computer","Desktop or Laptop","Windows 10","Chrome 115.0.0.0","1920x1080","1465x945",NA,NA,0,"Feedback Phrases Task - List 1 (study_2) (Clone with new randomisation)",2,"IJHAGBFCED","A (JV first)","study_1 (JV and feedback_list_1)",NA,"Feedback List 1",10,"Task","Screen 1","113qg5",1,"action","Text_left_X1",7588.75399997616,7583.12100000001,7588.75399997616,7588.75399997616,7583.12100000001,7588.75399997616,1,7588.75399997616,4050.052,0.534087745665668,NA,"Mousetracking","screen",0,"screen",NA,1,"You spoke very well.","You were very interesting to listen to.","Task",NA,"SUPPRF41746"
"52",52,1692008272568,"14/08/2023 10:17:52",1692011872568,1,"14/08/2023 12:17:52",140743,17,"task-3dhf",NA,31173262,NA,"complete",NA,"64da04919351a898f9c3ea48","computer","Desktop or Laptop","Windows 10","Chrome 115.0.0.0","1920x1080","1465x945",NA,NA,0,"Feedback Phrases Task - List 1 (study_2) (Clone with new randomisation)",2,"IJHAGBFCED","A (JV first)","study_1 (JV and feedback_list_1)",NA,"Feedback List 1",10,"Task","Screen 1","113qg5",1,"action","Text_right_X2",7589.05399998809,7583.12100000001,7589.05399998809,7589.05399998809,7583.12100000001,7589.05399998809,1,7589.05399998809,133.31700000001,0.017580755997433,NA,"Mousetracking","screen",0,"screen",NA,1,"You spoke very well.","You were very interesting to listen to.","Task",NA,"SUPPRF41746"
"53",53,1692008274330,"14/08/2023 10:17:54",1692011874330,1,"14/08/2023 12:17:54",140743,17,"task-3dhf",NA,31173262,NA,"complete",NA,"64da04919351a898f9c3ea48","computer","Desktop or Laptop","Windows 10","Chrome 115.0.0.0","1920x1080","1465x945",NA,NA,0,"Feedback Phrases Task - List 1 (study_2) (Clone with new randomisation)",2,"IJHAGBFCED","A (JV first)","study_1 (JV and feedback_list_1)",NA,"Feedback List 1",10,"Task","Screen 3","izqege",2,"continue","",1766.681,1766.681,1766.681,1766.681,1766.681,1766.681,1,1766.681,0,0,NA,"Fixation Timing","Fixation Cross",1,"object-48",NA,1,"You spoke very well.","You were very interesting to listen to.","Task",NA,"SUPPRF41746"
"54",54,1692008281271,"14/08/2023 10:18:01",1692011881271,1,"14/08/2023 12:18:01",140743,17,"task-3dhf",NA,31173262,NA,"complete",NA,"64da04919351a898f9c3ea48","computer","Desktop or Laptop","Windows 10","Chrome 115.0.0.0","1920x1080","1465x945",NA,NA,0,"Feedback Phrases Task - List 1 (study_2) (Clone with new randomisation)",2,"IJHAGBFCED","A (JV first)","study_1 (JV and feedback_list_1)",NA,"Feedback List 1",11,"Task","Screen 1","113qg5",1,"response","You came across as very calm and collected.",6942.15200002384,6932.985,6942.15200002384,6942.15200002384,6932.985,6942.15200002384,1,6942.15200002384,0,0,NA,"Click Response","Text_left_X1",2,"object-18",NA,1,"You came across as very calm and collected.","Everything you said was correct.","Task",NA,"SUPPRF41746"
"55",55,1692008281277,"14/08/2023 10:18:01",1692011881277,1,"14/08/2023 12:18:01",140743,17,"task-3dhf",NA,31173262,NA,"complete",NA,"64da04919351a898f9c3ea48","computer","Desktop or Laptop","Windows 10","Chrome 115.0.0.0","1920x1080","1465x945",NA,NA,0,"Feedback Phrases Task - List 1 (study_2) (Clone with new randomisation)",2,"IJHAGBFCED","A (JV first)","study_1 (JV and feedback_list_1)",NA,"Feedback List 1",11,"Task","Screen 1","113qg5",1,"action","Text",6948.25199998808,6932.985,6948.25199998808,6948.25199998808,6932.985,6948.25199998808,1,6948.25199998808,0,0,NA,"Mousetracking","screen",0,"screen",NA,1,"You came across as very calm and collected.","Everything you said was correct.","Task",NA,"SUPPRF41746"
"56",56,1692008281278,"14/08/2023 10:18:01",1692011881278,1,"14/08/2023 12:18:01",140743,17,"task-3dhf",NA,31173262,NA,"complete",NA,"64da04919351a898f9c3ea48","computer","Desktop or Laptop","Windows 10","Chrome 115.0.0.0","1920x1080","1465x945",NA,NA,0,"Feedback Phrases Task - List 1 (study_2) (Clone with new randomisation)",2,"IJHAGBFCED","A (JV first)","study_1 (JV and feedback_list_1)",NA,"Feedback List 1",11,"Task","Screen 1","113qg5",1,"action","Text_left_X1",6948.85200001192,6932.985,6948.85200001192,6948.85200001192,6932.985,6948.85200001192,1,6948.85200001192,200.015000000014,0.028849766731071,NA,"Mousetracking","screen",0,"screen",NA,1,"You came across as very calm and collected.","Everything you said was correct.","Task",NA,"SUPPRF41746"
"57",57,1692008281279,"14/08/2023 10:18:01",1692011881279,1,"14/08/2023 12:18:01",140743,17,"task-3dhf",NA,31173262,NA,"complete",NA,"64da04919351a898f9c3ea48","computer","Desktop or Laptop","Windows 10","Chrome 115.0.0.0","1920x1080","1465x945",NA,NA,0,"Feedback Phrases Task - List 1 (study_2) (Clone with new randomisation)",2,"IJHAGBFCED","A (JV first)","study_1 (JV and feedback_list_1)",NA,"Feedback List 1",11,"Task","Screen 1","113qg5",1,"action","Text_right_X2",6949.63,6932.985,6949.63,6949.63,6932.985,6949.63,1,6949.63,0,0,NA,"Mousetracking","screen",0,"screen",NA,1,"You came across as very calm and collected.","Everything you said was correct.","Task",NA,"SUPPRF41746"
"58",58,1692008283029,"14/08/2023 10:18:03",1692011883029,1,"14/08/2023 12:18:03",140743,17,"task-3dhf",NA,31173262,NA,"complete",NA,"64da04919351a898f9c3ea48","computer","Desktop or Laptop","Windows 10","Chrome 115.0.0.0","1920x1080","1465x945",NA,NA,0,"Feedback Phrases Task - List 1 (study_2) (Clone with new randomisation)",2,"IJHAGBFCED","A (JV first)","study_1 (JV and feedback_list_1)",NA,"Feedback List 1",11,"Task","Screen 3","izqege",2,"continue","",1766.58499999999,1766.58499999999,1766.58499999999,1766.58499999999,1766.58499999999,1766.58499999999,1,1766.58499999999,0,0,NA,"Fixation Timing","Fixation Cross",1,"object-48",NA,1,"You came across as very calm and collected.","Everything you said was correct.","Task",NA,"SUPPRF41746"
"59",59,1692008286030,"14/08/2023 10:18:06",1692011886030,1,"14/08/2023 12:18:06",140743,17,"task-3dhf",NA,31173262,NA,"complete",NA,"64da04919351a898f9c3ea48","computer","Desktop or Laptop","Windows 10","Chrome 115.0.0.0","1920x1080","1465x945",NA,NA,0,"Feedback Phrases Task - List 1 (study_2) (Clone with new randomisation)",2,"IJHAGBFCED","A (JV first)","study_1 (JV and feedback_list_1)",NA,"Feedback List 1",12,"Task","Screen 1","113qg5",1,"response","You did a great job of capturing the details.",3001.68199998808,3000.01700000001,3001.68199998808,3001.68199998808,3000.01700000001,3001.68199998808,1,3001.68199998808,0,0,NA,"Click Response","Text_right_X2",3,"object-19",NA,1,"I didn't notice any mistakes.","You did a great job of capturing the details.","Task",NA,"SUPPRF41746"
"60",60,1692008286031,"14/08/2023 10:18:06",1692011886031,1,"14/08/2023 12:18:06",140743,17,"task-3dhf",NA,31173262,NA,"complete",NA,"64da04919351a898f9c3ea48","computer","Desktop or Laptop","Windows 10","Chrome 115.0.0.0","1920x1080","1465x945",NA,NA,0,"Feedback Phrases Task - List 1 (study_2) (Clone with new randomisation)",2,"IJHAGBFCED","A (JV first)","study_1 (JV and feedback_list_1)",NA,"Feedback List 1",12,"Task","Screen 1","113qg5",1,"action","Text",3002.18199998808,3000.01700000001,3002.18199998808,3002.18199998808,3000.01700000001,3002.18199998808,1,3002.18199998808,0,0,NA,"Mousetracking","screen",0,"screen",NA,1,"I didn't notice any mistakes.","You did a great job of capturing the details.","Task",NA,"SUPPRF41746"
"61",61,1692008286031,"14/08/2023 10:18:06",1692011886031,1,"14/08/2023 12:18:06",140743,17,"task-3dhf",NA,31173262,NA,"complete",NA,"64da04919351a898f9c3ea48","computer","Desktop or Laptop","Windows 10","Chrome 115.0.0.0","1920x1080","1465x945",NA,NA,0,"Feedback Phrases Task - List 1 (study_2) (Clone with new randomisation)",2,"IJHAGBFCED","A (JV first)","study_1 (JV and feedback_list_1)",NA,"Feedback List 1",12,"Task","Screen 1","113qg5",1,"action","Text_left_X1",3002.68199998808,3000.01700000001,3002.68199998808,3002.68199998808,3000.01700000001,3002.68199998808,1,3002.68199998808,0,0,NA,"Mousetracking","screen",0,"screen",NA,1,"I didn't notice any mistakes.","You did a great job of capturing the details.","Task",NA,"SUPPRF41746"
"62",62,1692008286032,"14/08/2023 10:18:06",1692011886032,1,"14/08/2023 12:18:06",140743,17,"task-3dhf",NA,31173262,NA,"complete",NA,"64da04919351a898f9c3ea48","computer","Desktop or Laptop","Windows 10","Chrome 115.0.0.0","1920x1080","1465x945",NA,NA,0,"Feedback Phrases Task - List 1 (study_2) (Clone with new randomisation)",2,"IJHAGBFCED","A (JV first)","study_1 (JV and feedback_list_1)",NA,"Feedback List 1",12,"Task","Screen 1","113qg5",1,"action","Text_right_X2",3002.982,3000.01700000001,3002.982,3002.982,3000.01700000001,3002.982,1,3002.982,149.99500000001,0.0499980500110531,NA,"Mousetracking","screen",0,"screen",NA,1,"I didn't notice any mistakes.","You did a great job of capturing the details.","Task",NA,"SUPPRF41746"
"63",63,1692008287796,"14/08/2023 10:18:07",1692011887796,1,"14/08/2023 12:18:07",140743,17,"task-3dhf",NA,31173262,NA,"complete",NA,"64da04919351a898f9c3ea48","computer","Desktop or Laptop","Windows 10","Chrome 115.0.0.0","1920x1080","1465x945",NA,NA,0,"Feedback Phrases Task - List 1 (study_2) (Clone with new randomisation)",2,"IJHAGBFCED","A (JV first)","study_1 (JV and feedback_list_1)",NA,"Feedback List 1",12,"Task","Screen 3","izqege",2,"continue","",1766.58499999999,1766.58499999999,1766.58499999999,1766.58499999999,1766.58499999999,1766.58499999999,1,1766.58499999999,0,0,NA,"Fixation Timing","Fixation Cross",1,"object-48",NA,1,"I didn't notice any mistakes.","You did a great job of capturing the details.","Task",NA,"SUPPRF41746"
"64",64,1692008289258,"14/08/2023 10:18:09",1692011889258,1,"14/08/2023 12:18:09",140743,17,"task-3dhf",NA,31173262,NA,"complete",NA,"64da04919351a898f9c3ea48","computer","Desktop or Laptop","Windows 10","Chrome 115.0.0.0","1920x1080","1465x945",NA,NA,0,"Feedback Phrases Task - List 1 (study_2) (Clone with new randomisation)",2,"IJHAGBFCED","A (JV first)","study_1 (JV and feedback_list_1)",NA,"Feedback List 1",13,"Task","Screen 1","113qg5",1,"response","You seem very clever.",1462.27999997616,1449.933,1462.27999997616,1462.27999997616,1449.933,1462.27999997616,1,1462.27999997616,0,0,NA,"Click Response","Text_left_X1",2,"object-18",NA,1,"You seem very clever.","Everything you said was correct.","Task",NA,"SUPPRF41746"
"65",65,1692008289260,"14/08/2023 10:18:09",1692011889260,1,"14/08/2023 12:18:09",140743,17,"task-3dhf",NA,31173262,NA,"complete",NA,"64da04919351a898f9c3ea48","computer","Desktop or Laptop","Windows 10","Chrome 115.0.0.0","1920x1080","1465x945",NA,NA,0,"Feedback Phrases Task - List 1 (study_2) (Clone with new randomisation)",2,"IJHAGBFCED","A (JV first)","study_1 (JV and feedback_list_1)",NA,"Feedback List 1",13,"Task","Screen 1","113qg5",1,"action","Text",1464.48000002385,1449.933,1464.48000002385,1464.48000002385,1449.933,1464.48000002385,1,1464.48000002385,0,0,NA,"Mousetracking","screen",0,"screen",NA,1,"You seem very clever.","Everything you said was correct.","Task",NA,"SUPPRF41746"
"66",66,1692008289260,"14/08/2023 10:18:09",1692011889260,1,"14/08/2023 12:18:09",140743,17,"task-3dhf",NA,31173262,NA,"complete",NA,"64da04919351a898f9c3ea48","computer","Desktop or Laptop","Windows 10","Chrome 115.0.0.0","1920x1080","1465x945",NA,NA,0,"Feedback Phrases Task - List 1 (study_2) (Clone with new randomisation)",2,"IJHAGBFCED","A (JV first)","study_1 (JV and feedback_list_1)",NA,"Feedback List 1",13,"Task","Screen 1","113qg5",1,"action","Text_left_X1",1465.18000001193,1449.933,1465.18000001193,1465.18000001193,1449.933,1465.18000001193,1,1465.18000001193,50.0280000000057,0.0345036632727206,NA,"Mousetracking","screen",0,"screen",NA,1,"You seem very clever.","Everything you said was correct.","Task",NA,"SUPPRF41746"
"67",67,1692008289261,"14/08/2023 10:18:09",1692011889261,1,"14/08/2023 12:18:09",140743,17,"task-3dhf",NA,31173262,NA,"complete",NA,"64da04919351a898f9c3ea48","computer","Desktop or Laptop","Windows 10","Chrome 115.0.0.0","1920x1080","1465x945",NA,NA,0,"Feedback Phrases Task - List 1 (study_2) (Clone with new randomisation)",2,"IJHAGBFCED","A (JV first)","study_1 (JV and feedback_list_1)",NA,"Feedback List 1",13,"Task","Screen 1","113qg5",1,"action","Text_right_X2",1465.88,1449.933,1465.88,1465.88,1449.933,1465.88,1,1465.88,90992.735,62.7565101283988,NA,"Mousetracking","screen",0,"screen",NA,1,"You seem very clever.","Everything you said was correct.","Task",NA,"SUPPRF41746"
"68",68,1692008291012,"14/08/2023 10:18:11",1692011891012,1,"14/08/2023 12:18:11",140743,17,"task-3dhf",NA,31173262,NA,"complete",NA,"64da04919351a898f9c3ea48","computer","Desktop or Laptop","Windows 10","Chrome 115.0.0.0","1920x1080","1465x945",NA,NA,0,"Feedback Phrases Task - List 1 (study_2) (Clone with new randomisation)",2,"IJHAGBFCED","A (JV first)","study_1 (JV and feedback_list_1)",NA,"Feedback List 1",13,"Task","Screen 3","izqege",2,"continue","",1766.602,1766.602,1766.602,1766.602,1766.602,1766.602,1,1766.602,0,0,NA,"Fixation Timing","Fixation Cross",1,"object-48",NA,1,"You seem very clever.","Everything you said was correct.","Task",NA,"SUPPRF41746"
"69",69,1692008294543,"14/08/2023 10:18:14",1692011894543,1,"14/08/2023 12:18:14",140743,17,"task-3dhf",NA,31173262,NA,"complete",NA,"64da04919351a898f9c3ea48","computer","Desktop or Laptop","Windows 10","Chrome 115.0.0.0","1920x1080","1465x945",NA,NA,0,"Feedback Phrases Task - List 1 (study_2) (Clone with new randomisation)",2,"IJHAGBFCED","A (JV first)","study_1 (JV and feedback_list_1)",NA,"Feedback List 1",14,"Task","Screen 1","113qg5",1,"response","Everything you said was correct.",3531.24499997616,3516.523,3531.24499997616,3531.24499997616,3516.523,3531.24499997616,1,3531.24499997616,0,0,NA,"Click Response","Text_left_X1",2,"object-18",NA,1,"Everything you said was correct.","That was acceptable.","Task",NA,"SUPPRF41746"
"70",70,1692008294556,"14/08/2023 10:18:14",1692011894556,1,"14/08/2023 12:18:14",140743,17,"task-3dhf",NA,31173262,NA,"complete",NA,"64da04919351a898f9c3ea48","computer","Desktop or Laptop","Windows 10","Chrome 115.0.0.0","1920x1080","1465x945",NA,NA,0,"Feedback Phrases Task - List 1 (study_2) (Clone with new randomisation)",2,"IJHAGBFCED","A (JV first)","study_1 (JV and feedback_list_1)",NA,"Feedback List 1",14,"Task","Screen 1","113qg5",1,"action","Text",3533.178,3516.523,3533.178,3533.178,3516.523,3533.178,1,3533.178,0,0,NA,"Mousetracking","screen",0,"screen",NA,1,"Everything you said was correct.","That was acceptable.","Task",NA,"SUPPRF41746"
"71",71,1692008294557,"14/08/2023 10:18:14",1692011894557,1,"14/08/2023 12:18:14",140743,17,"task-3dhf",NA,31173262,NA,"complete",NA,"64da04919351a898f9c3ea48","computer","Desktop or Laptop","Windows 10","Chrome 115.0.0.0","1920x1080","1465x945",NA,NA,0,"Feedback Phrases Task - List 1 (study_2) (Clone with new randomisation)",2,"IJHAGBFCED","A (JV first)","study_1 (JV and feedback_list_1)",NA,"Feedback List 1",14,"Task","Screen 1","113qg5",1,"action","Text_left_X1",3533.178,3516.523,3533.178,3533.178,3516.523,3533.178,1,3533.178,166.665999999997,0.0473951115917619,NA,"Mousetracking","screen",0,"screen",NA,1,"Everything you said was correct.","That was acceptable.","Task",NA,"SUPPRF41746"
"72",72,1692008294558,"14/08/2023 10:18:14",1692011894558,1,"14/08/2023 12:18:14",140743,17,"task-3dhf",NA,31173262,NA,"complete",NA,"64da04919351a898f9c3ea48","computer","Desktop or Laptop","Windows 10","Chrome 115.0.0.0","1920x1080","1465x945",NA,NA,0,"Feedback Phrases Task - List 1 (study_2) (Clone with new randomisation)",2,"IJHAGBFCED","A (JV first)","study_1 (JV and feedback_list_1)",NA,"Feedback List 1",14,"Task","Screen 1","113qg5",1,"action","Text_right_X2",3533.178,3516.523,3533.178,3533.178,3516.523,3533.178,1,3533.178,0,0,NA,"Mousetracking","screen",0,"screen",NA,1,"Everything you said was correct.","That was acceptable.","Task",NA,"SUPPRF41746"
"73",73,1692008296296,"14/08/2023 10:18:16",1692011896296,1,"14/08/2023 12:18:16",140743,17,"task-3dhf",NA,31173262,NA,"complete",NA,"64da04919351a898f9c3ea48","computer","Desktop or Laptop","Windows 10","Chrome 115.0.0.0","1920x1080","1465x945",NA,NA,0,"Feedback Phrases Task - List 1 (study_2) (Clone with new randomisation)",2,"IJHAGBFCED","A (JV first)","study_1 (JV and feedback_list_1)",NA,"Feedback List 1",14,"Task","Screen 3","izqege",2,"continue","",1766.599,1766.599,1766.599,1766.599,1766.599,1766.599,1,1766.599,0,0,NA,"Fixation Timing","Fixation Cross",1,"object-48",NA,1,"Everything you said was correct.","That was acceptable.","Task",NA,"SUPPRF41746"
"74",74,1692008300232,"14/08/2023 10:18:20",1692011900232,1,"14/08/2023 12:18:20",140743,17,"task-3dhf",NA,31173262,NA,"complete",NA,"64da04919351a898f9c3ea48","computer","Desktop or Laptop","Windows 10","Chrome 115.0.0.0","1920x1080","1465x945",NA,NA,0,"Feedback Phrases Task - List 1 (study_2) (Clone with new randomisation)",2,"IJHAGBFCED","A (JV first)","study_1 (JV and feedback_list_1)",NA,"Feedback List 1",15,"Task","Screen 1","113qg5",1,"response","You did a great job of capturing the details.",3936.82300002384,3933.25999999999,3936.82300002384,3936.82300002384,3933.25999999999,3936.82300002384,1,3936.82300002384,0,0,NA,"Click Response","Text_left_X1",2,"object-18",NA,1,"You did a great job of capturing the details.","You were very interesting to listen to.","Task",NA,"SUPPRF41746"
"75",75,1692008300232,"14/08/2023 10:18:20",1692011900232,1,"14/08/2023 12:18:20",140743,17,"task-3dhf",NA,31173262,NA,"complete",NA,"64da04919351a898f9c3ea48","computer","Desktop or Laptop","Windows 10","Chrome 115.0.0.0","1920x1080","1465x945",NA,NA,0,"Feedback Phrases Task - List 1 (study_2) (Clone with new randomisation)",2,"IJHAGBFCED","A (JV first)","study_1 (JV and feedback_list_1)",NA,"Feedback List 1",15,"Task","Screen 1","113qg5",1,"action","Text",3937.52300001192,3933.25999999999,3937.52300001192,3937.52300001192,3933.25999999999,3937.52300001192,1,3937.52300001192,0,0,NA,"Mousetracking","screen",0,"screen",NA,1,"You did a great job of capturing the details.","You were very interesting to listen to.","Task",NA,"SUPPRF41746"
"76",76,1692008300233,"14/08/2023 10:18:20",1692011900233,1,"14/08/2023 12:18:20",140743,17,"task-3dhf",NA,31173262,NA,"complete",NA,"64da04919351a898f9c3ea48","computer","Desktop or Laptop","Windows 10","Chrome 115.0.0.0","1920x1080","1465x945",NA,NA,0,"Feedback Phrases Task - List 1 (study_2) (Clone with new randomisation)",2,"IJHAGBFCED","A (JV first)","study_1 (JV and feedback_list_1)",NA,"Feedback List 1",15,"Task","Screen 1","113qg5",1,"action","Text_left_X1",3938.02300001192,3933.25999999999,3938.02300001192,3938.02300001192,3933.25999999999,3938.02300001192,1,3938.02300001192,99.9609999999957,0.025414287385018,NA,"Mousetracking","screen",0,"screen",NA,1,"You did a great job of capturing the details.","You were very interesting to listen to.","Task",NA,"SUPPRF41746"
"77",77,1692008300233,"14/08/2023 10:18:20",1692011900233,1,"14/08/2023 12:18:20",140743,17,"task-3dhf",NA,31173262,NA,"complete",NA,"64da04919351a898f9c3ea48","computer","Desktop or Laptop","Windows 10","Chrome 115.0.0.0","1920x1080","1465x945",NA,NA,0,"Feedback Phrases Task - List 1 (study_2) (Clone with new randomisation)",2,"IJHAGBFCED","A (JV first)","study_1 (JV and feedback_list_1)",NA,"Feedback List 1",15,"Task","Screen 1","113qg5",1,"action","Text_right_X2",3938.42299998808,3933.25999999999,3938.42299998808,3938.42299998808,3933.25999999999,3938.42299998808,1,3938.42299998808,0,0,NA,"Mousetracking","screen",0,"screen",NA,1,"You did a great job of capturing the details.","You were very interesting to listen to.","Task",NA,"SUPPRF41746"
"78",78,1692008301995,"14/08/2023 10:18:21",1692011901995,1,"14/08/2023 12:18:21",140743,17,"task-3dhf",NA,31173262,NA,"complete",NA,"64da04919351a898f9c3ea48","computer","Desktop or Laptop","Windows 10","Chrome 115.0.0.0","1920x1080","1465x945",NA,NA,0,"Feedback Phrases Task - List 1 (study_2) (Clone with new randomisation)",2,"IJHAGBFCED","A (JV first)","study_1 (JV and feedback_list_1)",NA,"Feedback List 1",15,"Task","Screen 3","izqege",2,"continue","",1766.568,1766.568,1766.568,1766.568,1766.568,1766.568,1,1766.568,0,0,NA,"Fixation Timing","Fixation Cross",1,"object-48",NA,1,"You did a great job of capturing the details.","You were very interesting to listen to.","Task",NA,"SUPPRF41746"
"79",79,1692008305302,"14/08/2023 10:18:25",1692011905302,1,"14/08/2023 12:18:25",140743,17,"task-3dhf",NA,31173262,NA,"complete",NA,"64da04919351a898f9c3ea48","computer","Desktop or Laptop","Windows 10","Chrome 115.0.0.0","1920x1080","1465x945",NA,NA,0,"Feedback Phrases Task - List 1 (study_2) (Clone with new randomisation)",2,"IJHAGBFCED","A (JV first)","study_1 (JV and feedback_list_1)",NA,"Feedback List 1",16,"Task","Screen 1","113qg5",1,"response","Good work!",3307.59499998808,3299.89,3307.59499998808,3307.59499998808,3299.89,3307.59499998808,1,3307.59499998808,0,0,NA,"Click Response","Text_left_X1",2,"object-18",NA,1,"Good work!","Your description was very clear and concise.","Task",NA,"SUPPRF41746"
"80",80,1692008305311,"14/08/2023 10:18:25",1692011905311,1,"14/08/2023 12:18:25",140743,17,"task-3dhf",NA,31173262,NA,"complete",NA,"64da04919351a898f9c3ea48","computer","Desktop or Laptop","Windows 10","Chrome 115.0.0.0","1920x1080","1465x945",NA,NA,0,"Feedback Phrases Task - List 1 (study_2) (Clone with new randomisation)",2,"IJHAGBFCED","A (JV first)","study_1 (JV and feedback_list_1)",NA,"Feedback List 1",16,"Task","Screen 1","113qg5",1,"action","Text",3315.79499997616,3299.89,3315.79499997616,3315.79499997616,3299.89,3315.79499997616,1,3315.79499997616,0,0,NA,"Mousetracking","screen",0,"screen",NA,1,"Good work!","Your description was very clear and concise.","Task",NA,"SUPPRF41746"
"81",81,1692008305311,"14/08/2023 10:18:25",1692011905311,1,"14/08/2023 12:18:25",140743,17,"task-3dhf",NA,31173262,NA,"complete",NA,"64da04919351a898f9c3ea48","computer","Desktop or Laptop","Windows 10","Chrome 115.0.0.0","1920x1080","1465x945",NA,NA,0,"Feedback Phrases Task - List 1 (study_2) (Clone with new randomisation)",2,"IJHAGBFCED","A (JV first)","study_1 (JV and feedback_list_1)",NA,"Feedback List 1",16,"Task","Screen 1","113qg5",1,"action","Text_left_X1",3316.49500002385,3299.89,3316.49500002385,3316.49500002385,3299.89,3316.49500002385,1,3316.49500002385,349.966,0.106053838158242,NA,"Mousetracking","screen",0,"screen",NA,1,"Good work!","Your description was very clear and concise.","Task",NA,"SUPPRF41746"
"82",82,1692008305313,"14/08/2023 10:18:25",1692011905313,1,"14/08/2023 12:18:25",140743,17,"task-3dhf",NA,31173262,NA,"complete",NA,"64da04919351a898f9c3ea48","computer","Desktop or Laptop","Windows 10","Chrome 115.0.0.0","1920x1080","1465x945",NA,NA,0,"Feedback Phrases Task - List 1 (study_2) (Clone with new randomisation)",2,"IJHAGBFCED","A (JV first)","study_1 (JV and feedback_list_1)",NA,"Feedback List 1",16,"Task","Screen 1","113qg5",1,"action","Text_right_X2",3316.545,3299.89,3316.545,3316.545,3299.89,3316.545,1,3316.545,0,0,NA,"Mousetracking","screen",0,"screen",NA,1,"Good work!","Your description was very clear and concise.","Task",NA,"SUPPRF41746"
"83",83,1692008307062,"14/08/2023 10:18:27",1692011907062,1,"14/08/2023 12:18:27",140743,17,"task-3dhf",NA,31173262,NA,"complete",NA,"64da04919351a898f9c3ea48","computer","Desktop or Laptop","Windows 10","Chrome 115.0.0.0","1920x1080","1465x945",NA,NA,0,"Feedback Phrases Task - List 1 (study_2) (Clone with new randomisation)",2,"IJHAGBFCED","A (JV first)","study_1 (JV and feedback_list_1)",NA,"Feedback List 1",16,"Task","Screen 3","izqege",2,"continue","",1766.644,1766.644,1766.644,1766.644,1766.644,1766.644,1,1766.644,0,0,NA,"Fixation Timing","Fixation Cross",1,"object-48",NA,1,"Good work!","Your description was very clear and concise.","Task",NA,"SUPPRF41746"
"84",84,1692008310186,"14/08/2023 10:18:30",1692011910186,1,"14/08/2023 12:18:30",140743,17,"task-3dhf",NA,31173262,NA,"complete",NA,"64da04919351a898f9c3ea48","computer","Desktop or Laptop","Windows 10","Chrome 115.0.0.0","1920x1080","1465x945",NA,NA,0,"Feedback Phrases Task - List 1 (study_2) (Clone with new randomisation)",2,"IJHAGBFCED","A (JV first)","study_1 (JV and feedback_list_1)",NA,"Feedback List 1",17,"Task","Screen 1","113qg5",1,"response","You did a great job of capturing the details.",3124.56099998808,3116.60900000001,3124.56099998808,3124.56099998808,3116.60900000001,3124.56099998808,1,3124.56099998808,0,0,NA,"Click Response","Text_right_X2",3,"object-19",NA,1,"Everything you said was correct.","You did a great job of capturing the details.","Task",NA,"SUPPRF41746"
"85",85,1692008310187,"14/08/2023 10:18:30",1692011910187,1,"14/08/2023 12:18:30",140743,17,"task-3dhf",NA,31173262,NA,"complete",NA,"64da04919351a898f9c3ea48","computer","Desktop or Laptop","Windows 10","Chrome 115.0.0.0","1920x1080","1465x945",NA,NA,0,"Feedback Phrases Task - List 1 (study_2) (Clone with new randomisation)",2,"IJHAGBFCED","A (JV first)","study_1 (JV and feedback_list_1)",NA,"Feedback List 1",17,"Task","Screen 1","113qg5",1,"action","Text",3125.16100001193,3116.60900000001,3125.16100001193,3125.16100001193,3116.60900000001,3125.16100001193,1,3125.16100001193,0,0,NA,"Mousetracking","screen",0,"screen",NA,1,"Everything you said was correct.","You did a great job of capturing the details.","Task",NA,"SUPPRF41746"
"86",86,1692008310188,"14/08/2023 10:18:30",1692011910188,1,"14/08/2023 12:18:30",140743,17,"task-3dhf",NA,31173262,NA,"complete",NA,"64da04919351a898f9c3ea48","computer","Desktop or Laptop","Windows 10","Chrome 115.0.0.0","1920x1080","1465x945",NA,NA,0,"Feedback Phrases Task - List 1 (study_2) (Clone with new randomisation)",2,"IJHAGBFCED","A (JV first)","study_1 (JV and feedback_list_1)",NA,"Feedback List 1",17,"Task","Screen 1","113qg5",1,"action","Text_left_X1",3126.26099997616,3116.60900000001,3126.26099997616,3126.26099997616,3116.60900000001,3126.26099997616,1,3126.26099997616,0,0,NA,"Mousetracking","screen",0,"screen",NA,1,"Everything you said was correct.","You did a great job of capturing the details.","Task",NA,"SUPPRF41746"
"87",87,1692008310189,"14/08/2023 10:18:30",1692011910189,1,"14/08/2023 12:18:30",140743,17,"task-3dhf",NA,31173262,NA,"complete",NA,"64da04919351a898f9c3ea48","computer","Desktop or Laptop","Windows 10","Chrome 115.0.0.0","1920x1080","1465x945",NA,NA,0,"Feedback Phrases Task - List 1 (study_2) (Clone with new randomisation)",2,"IJHAGBFCED","A (JV first)","study_1 (JV and feedback_list_1)",NA,"Feedback List 1",17,"Task","Screen 1","113qg5",1,"action","Text_right_X2",3127.66100001193,3116.60900000001,3127.66100001193,3127.66100001193,3116.60900000001,3127.66100001193,1,3127.66100001193,666.675999999992,0.213910695887739,NA,"Mousetracking","screen",0,"screen",NA,1,"Everything you said was correct.","You did a great job of capturing the details.","Task",NA,"SUPPRF41746"
"88",88,1692008311945,"14/08/2023 10:18:31",1692011911945,1,"14/08/2023 12:18:31",140743,17,"task-3dhf",NA,31173262,NA,"complete",NA,"64da04919351a898f9c3ea48","computer","Desktop or Laptop","Windows 10","Chrome 115.0.0.0","1920x1080","1465x945",NA,NA,0,"Feedback Phrases Task - List 1 (study_2) (Clone with new randomisation)",2,"IJHAGBFCED","A (JV first)","study_1 (JV and feedback_list_1)",NA,"Feedback List 1",17,"Task","Screen 3","izqege",2,"continue","",1766.56199999999,1766.56199999999,1766.56199999999,1766.56199999999,1766.56199999999,1766.56199999999,1,1766.56199999999,0,0,NA,"Fixation Timing","Fixation Cross",1,"object-48",NA,1,"Everything you said was correct.","You did a great job of capturing the details.","Task",NA,"SUPPRF41746"
"89",89,1692008316302,"14/08/2023 10:18:36",1692011916302,1,"14/08/2023 12:18:36",140743,17,"task-3dhf",NA,31173262,NA,"complete",NA,"64da04919351a898f9c3ea48","computer","Desktop or Laptop","Windows 10","Chrome 115.0.0.0","1920x1080","1465x945",NA,NA,0,"Feedback Phrases Task - List 1 (study_2) (Clone with new randomisation)",2,"IJHAGBFCED","A (JV first)","study_1 (JV and feedback_list_1)",NA,"Feedback List 1",18,"Task","Screen 1","113qg5",1,"response","You made a great impression.",4357.19,4349.90000000001,4357.19,4357.19,4349.90000000001,4357.19,1,4357.19,0,0,NA,"Click Response","Text_right_X2",3,"object-19",NA,1,"You appeared very composed.","You made a great impression.","Task",NA,"SUPPRF41746"
"90",90,1692008316311,"14/08/2023 10:18:36",1692011916311,1,"14/08/2023 12:18:36",140743,17,"task-3dhf",NA,31173262,NA,"complete",NA,"64da04919351a898f9c3ea48","computer","Desktop or Laptop","Windows 10","Chrome 115.0.0.0","1920x1080","1465x945",NA,NA,0,"Feedback Phrases Task - List 1 (study_2) (Clone with new randomisation)",2,"IJHAGBFCED","A (JV first)","study_1 (JV and feedback_list_1)",NA,"Feedback List 1",18,"Task","Screen 1","113qg5",1,"action","Text",4365.99000001192,4349.90000000001,4365.99000001192,4365.99000001192,4349.90000000001,4365.99000001192,1,4365.99000001192,0,0,NA,"Mousetracking","screen",0,"screen",NA,1,"You appeared very composed.","You made a great impression.","Task",NA,"SUPPRF41746"
"91",91,1692008316311,"14/08/2023 10:18:36",1692011916311,1,"14/08/2023 12:18:36",140743,17,"task-3dhf",NA,31173262,NA,"complete",NA,"64da04919351a898f9c3ea48","computer","Desktop or Laptop","Windows 10","Chrome 115.0.0.0","1920x1080","1465x945",NA,NA,0,"Feedback Phrases Task - List 1 (study_2) (Clone with new randomisation)",2,"IJHAGBFCED","A (JV first)","study_1 (JV and feedback_list_1)",NA,"Feedback List 1",18,"Task","Screen 1","113qg5",1,"action","Text_left_X1",4366.58000000002,4349.90000000001,4366.58000000002,4366.58000000002,4349.90000000001,4366.58000000002,1,4366.58000000002,216.710999999996,0.0498197659716304,NA,"Mousetracking","screen",0,"screen",NA,1,"You appeared very composed.","You made a great impression.","Task",NA,"SUPPRF41746"
"92",92,1692008316313,"14/08/2023 10:18:36",1692011916313,1,"14/08/2023 12:18:36",140743,17,"task-3dhf",NA,31173262,NA,"complete",NA,"64da04919351a898f9c3ea48","computer","Desktop or Laptop","Windows 10","Chrome 115.0.0.0","1920x1080","1465x945",NA,NA,0,"Feedback Phrases Task - List 1 (study_2) (Clone with new randomisation)",2,"IJHAGBFCED","A (JV first)","study_1 (JV and feedback_list_1)",NA,"Feedback List 1",18,"Task","Screen 1","113qg5",1,"action","Text_right_X2",4366.58000000002,4349.90000000001,4366.58000000002,4366.58000000002,4349.90000000001,4366.58000000002,1,4366.58000000002,1199.99299999999,0.275866801535664,NA,"Mousetracking","screen",0,"screen",NA,1,"You appeared very composed.","You made a great impression.","Task",NA,"SUPPRF41746"
"93",93,1692008318062,"14/08/2023 10:18:38",1692011918062,1,"14/08/2023 12:18:38",140743,17,"task-3dhf",NA,31173262,NA,"complete",NA,"64da04919351a898f9c3ea48","computer","Desktop or Laptop","Windows 10","Chrome 115.0.0.0","1920x1080","1465x945",NA,NA,0,"Feedback Phrases Task - List 1 (study_2) (Clone with new randomisation)",2,"IJHAGBFCED","A (JV first)","study_1 (JV and feedback_list_1)",NA,"Feedback List 1",18,"Task","Screen 3","izqege",2,"continue","",1766.58499999999,1766.58499999999,1766.58499999999,1766.58499999999,1766.58499999999,1766.58499999999,1,1766.58499999999,0,0,NA,"Fixation Timing","Fixation Cross",1,"object-48",NA,1,"You appeared very composed.","You made a great impression.","Task",NA,"SUPPRF41746"
"94",94,1692008321557,"14/08/2023 10:18:41",1692011921557,1,"14/08/2023 12:18:41",140743,17,"task-3dhf",NA,31173262,NA,"complete",NA,"64da04919351a898f9c3ea48","computer","Desktop or Laptop","Windows 10","Chrome 115.0.0.0","1920x1080","1465x945",NA,NA,0,"Feedback Phrases Task - List 1 (study_2) (Clone with new randomisation)",2,"IJHAGBFCED","A (JV first)","study_1 (JV and feedback_list_1)",NA,"Feedback List 1",19,"Task","Screen 1","113qg5",1,"response","You came across as very calm and collected.",3496.00500001192,3483.19500000001,3496.00500001192,3496.00500001192,3483.19500000001,3496.00500001192,1,3496.00500001192,0,0,NA,"Click Response","Text_right_X2",3,"object-19",NA,1,"You appeared very composed.","You came across as very calm and collected.","Task",NA,"SUPPRF41746"
"95",95,1692008321557,"14/08/2023 10:18:41",1692011921557,1,"14/08/2023 12:18:41",140743,17,"task-3dhf",NA,31173262,NA,"complete",NA,"64da04919351a898f9c3ea48","computer","Desktop or Laptop","Windows 10","Chrome 115.0.0.0","1920x1080","1465x945",NA,NA,0,"Feedback Phrases Task - List 1 (study_2) (Clone with new randomisation)",2,"IJHAGBFCED","A (JV first)","study_1 (JV and feedback_list_1)",NA,"Feedback List 1",19,"Task","Screen 1","113qg5",1,"action","Text",3496.50500001192,3483.19500000001,3496.50500001192,3496.50500001192,3483.19500000001,3496.50500001192,1,3496.50500001192,0,0,NA,"Mousetracking","screen",0,"screen",NA,1,"You appeared very composed.","You came across as very calm and collected.","Task",NA,"SUPPRF41746"
"96",96,1692008321558,"14/08/2023 10:18:41",1692011921558,1,"14/08/2023 12:18:41",140743,17,"task-3dhf",NA,31173262,NA,"complete",NA,"64da04919351a898f9c3ea48","computer","Desktop or Laptop","Windows 10","Chrome 115.0.0.0","1920x1080","1465x945",NA,NA,0,"Feedback Phrases Task - List 1 (study_2) (Clone with new randomisation)",2,"IJHAGBFCED","A (JV first)","study_1 (JV and feedback_list_1)",NA,"Feedback List 1",19,"Task","Screen 1","113qg5",1,"action","Text_left_X1",3496.90499998808,3483.19500000001,3496.90499998808,3496.90499998808,3483.19500000001,3496.90499998808,1,3496.90499998808,0,0,NA,"Mousetracking","screen",0,"screen",NA,1,"You appeared very composed.","You came across as very calm and collected.","Task",NA,"SUPPRF41746"
"97",97,1692008321558,"14/08/2023 10:18:41",1692011921558,1,"14/08/2023 12:18:41",140743,17,"task-3dhf",NA,31173262,NA,"complete",NA,"64da04919351a898f9c3ea48","computer","Desktop or Laptop","Windows 10","Chrome 115.0.0.0","1920x1080","1465x945",NA,NA,0,"Feedback Phrases Task - List 1 (study_2) (Clone with new randomisation)",2,"IJHAGBFCED","A (JV first)","study_1 (JV and feedback_list_1)",NA,"Feedback List 1",19,"Task","Screen 1","113qg5",1,"action","Text_right_X2",3497.30500002384,3483.19500000001,3497.30500002384,3497.30500002384,3483.19500000001,3497.30500002384,1,3497.30500002384,16.6350000000093,0.00477578774659739,NA,"Mousetracking","screen",0,"screen",NA,1,"You appeared very composed.","You came across as very calm and collected.","Task",NA,"SUPPRF41746"
"98",98,1692008323311,"14/08/2023 10:18:43",1692011923311,1,"14/08/2023 12:18:43",140743,17,"task-3dhf",NA,31173262,NA,"complete",NA,"64da04919351a898f9c3ea48","computer","Desktop or Laptop","Windows 10","Chrome 115.0.0.0","1920x1080","1465x945",NA,NA,0,"Feedback Phrases Task - List 1 (study_2) (Clone with new randomisation)",2,"IJHAGBFCED","A (JV first)","study_1 (JV and feedback_list_1)",NA,"Feedback List 1",19,"Task","Screen 3","izqege",2,"continue","",1766.605,1766.605,1766.605,1766.605,1766.605,1766.605,1,1766.605,0,0,NA,"Fixation Timing","Fixation Cross",1,"object-48",NA,1,"You appeared very composed.","You came across as very calm and collected.","Task",NA,"SUPPRF41746"
"99",99,1692008328209,"14/08/2023 10:18:48",1692011928209,1,"14/08/2023 12:18:48",140743,17,"task-3dhf",NA,31173262,NA,"complete",NA,"64da04919351a898f9c3ea48","computer","Desktop or Laptop","Windows 10","Chrome 115.0.0.0","1920x1080","1465x945",NA,NA,0,"Feedback Phrases Task - List 1 (study_2) (Clone with new randomisation)",2,"IJHAGBFCED","A (JV first)","study_1 (JV and feedback_list_1)",NA,"Feedback List 1",20,"Task","Screen 1","113qg5",1,"response","You spoke very well.",4898.60499998808,4883.22100000001,4898.60499998808,4898.60499998808,4883.22100000001,4898.60499998808,1,4898.60499998808,0,0,NA,"Click Response","Text_right_X2",3,"object-19",NA,1,"That was acceptable.","You spoke very well.","Task",NA,"SUPPRF41746"
"100",100,1692008328219,"14/08/2023 10:18:48",1692011928219,1,"14/08/2023 12:18:48",140743,17,"task-3dhf",NA,31173262,NA,"complete",NA,"64da04919351a898f9c3ea48","computer","Desktop or Laptop","Windows 10","Chrome 115.0.0.0","1920x1080","1465x945",NA,NA,0,"Feedback Phrases Task - List 1 (study_2) (Clone with new randomisation)",2,"IJHAGBFCED","A (JV first)","study_1 (JV and feedback_list_1)",NA,"Feedback List 1",20,"Task","Screen 1","113qg5",1,"action","Text",4899.92900000002,4883.22100000001,4899.92900000002,4899.92900000002,4883.22100000001,4899.92900000002,1,4899.92900000002,0,0,NA,"Mousetracking","screen",0,"screen",NA,1,"That was acceptable.","You spoke very well.","Task",NA,"SUPPRF41746"
"101",101,1692008328220,"14/08/2023 10:18:48",1692011928220,1,"14/08/2023 12:18:48",140743,17,"task-3dhf",NA,31173262,NA,"complete",NA,"64da04919351a898f9c3ea48","computer","Desktop or Laptop","Windows 10","Chrome 115.0.0.0","1920x1080","1465x945",NA,NA,0,"Feedback Phrases Task - List 1 (study_2) (Clone with new randomisation)",2,"IJHAGBFCED","A (JV first)","study_1 (JV and feedback_list_1)",NA,"Feedback List 1",20,"Task","Screen 1","113qg5",1,"action","Text_left_X1",4899.92900000002,4883.22100000001,4899.92900000002,4899.92900000002,4883.22100000001,4899.92900000002,1,4899.92900000002,0,0,NA,"Mousetracking","screen",0,"screen",NA,1,"That was acceptable.","You spoke very well.","Task",NA,"SUPPRF41746"
"102",102,1692008328221,"14/08/2023 10:18:48",1692011928221,1,"14/08/2023 12:18:48",140743,17,"task-3dhf",NA,31173262,NA,"complete",NA,"64da04919351a898f9c3ea48","computer","Desktop or Laptop","Windows 10","Chrome 115.0.0.0","1920x1080","1465x945",NA,NA,0,"Feedback Phrases Task - List 1 (study_2) (Clone with new randomisation)",2,"IJHAGBFCED","A (JV first)","study_1 (JV and feedback_list_1)",NA,"Feedback List 1",20,"Task","Screen 1","113qg5",1,"action","Text_right_X2",4899.92900000002,4883.22100000001,4899.92900000002,4899.92900000002,4883.22100000001,4899.92900000002,1,4899.92900000002,49.9989999999962,0.0102389386022046,NA,"Mousetracking","screen",0,"screen",NA,1,"That was acceptable.","You spoke very well.","Task",NA,"SUPPRF41746"
"103",103,1692008329961,"14/08/2023 10:18:49",1692011929961,1,"14/08/2023 12:18:49",140743,17,"task-3dhf",NA,31173262,NA,"complete",NA,"64da04919351a898f9c3ea48","computer","Desktop or Laptop","Windows 10","Chrome 115.0.0.0","1920x1080","1465x945",NA,NA,0,"Feedback Phrases Task - List 1 (study_2) (Clone with new randomisation)",2,"IJHAGBFCED","A (JV first)","study_1 (JV and feedback_list_1)",NA,"Feedback List 1",20,"Task","Screen 3","izqege",2,"continue","",1766.58,1766.58,1766.58,1766.58,1766.58,1766.58,1,1766.58,0,0,NA,"Fixation Timing","Fixation Cross",1,"object-48",NA,1,"That was acceptable.","You spoke very well.","Task",NA,"SUPPRF41746"
"104",104,1692008332753,"14/08/2023 10:18:52",1692011932753,1,"14/08/2023 12:18:52",140743,17,"task-3dhf",NA,31173262,NA,"complete",NA,"64da04919351a898f9c3ea48","computer","Desktop or Laptop","Windows 10","Chrome 115.0.0.0","1920x1080","1465x945",NA,NA,0,"Feedback Phrases Task - List 1 (study_2) (Clone with new randomisation)",2,"IJHAGBFCED","A (JV first)","study_1 (JV and feedback_list_1)",NA,"Feedback List 1",21,"Task","Screen 1","113qg5",1,"response","You spoke very well.",2792.40400001191,2783.228,2792.40400001191,2792.40400001191,2783.228,2792.40400001191,1,2792.40400001191,0,0,NA,"Click Response","Text_right_X2",3,"object-19",NA,1,"You seem very clever.","You spoke very well.","Task",NA,"SUPPRF41746"
"105",105,1692008332753,"14/08/2023 10:18:52",1692011932753,1,"14/08/2023 12:18:52",140743,17,"task-3dhf",NA,31173262,NA,"complete",NA,"64da04919351a898f9c3ea48","computer","Desktop or Laptop","Windows 10","Chrome 115.0.0.0","1920x1080","1465x945",NA,NA,0,"Feedback Phrases Task - List 1 (study_2) (Clone with new randomisation)",2,"IJHAGBFCED","A (JV first)","study_1 (JV and feedback_list_1)",NA,"Feedback List 1",21,"Task","Screen 1","113qg5",1,"action","Text",2793.00399997615,2783.228,2793.00399997615,2793.00399997615,2783.228,2793.00399997615,1,2793.00399997615,0,0,NA,"Mousetracking","screen",0,"screen",NA,1,"You seem very clever.","You spoke very well.","Task",NA,"SUPPRF41746"
"106",106,1692008332754,"14/08/2023 10:18:52",1692011932754,1,"14/08/2023 12:18:52",140743,17,"task-3dhf",NA,31173262,NA,"complete",NA,"64da04919351a898f9c3ea48","computer","Desktop or Laptop","Windows 10","Chrome 115.0.0.0","1920x1080","1465x945",NA,NA,0,"Feedback Phrases Task - List 1 (study_2) (Clone with new randomisation)",2,"IJHAGBFCED","A (JV first)","study_1 (JV and feedback_list_1)",NA,"Feedback List 1",21,"Task","Screen 1","113qg5",1,"action","Text_left_X1",2793.30399998807,2783.228,2793.30399998807,2793.30399998807,2783.228,2793.30399998807,1,2793.30399998807,0,0,NA,"Mousetracking","screen",0,"screen",NA,1,"You seem very clever.","You spoke very well.","Task",NA,"SUPPRF41746"
"107",107,1692008332754,"14/08/2023 10:18:52",1692011932754,1,"14/08/2023 12:18:52",140743,17,"task-3dhf",NA,31173262,NA,"complete",NA,"64da04919351a898f9c3ea48","computer","Desktop or Laptop","Windows 10","Chrome 115.0.0.0","1920x1080","1465x945",NA,NA,0,"Feedback Phrases Task - List 1 (study_2) (Clone with new randomisation)",2,"IJHAGBFCED","A (JV first)","study_1 (JV and feedback_list_1)",NA,"Feedback List 1",21,"Task","Screen 1","113qg5",1,"action","Text_right_X2",2793.70400002383,2783.228,2793.70400002383,2793.70400002383,2783.228,2793.70400002383,1,2793.70400002383,116.652000000002,0.0419124843527019,NA,"Mousetracking","screen",0,"screen",NA,1,"You seem very clever.","You spoke very well.","Task",NA,"SUPPRF41746"
"108",108,1692008334511,"14/08/2023 10:18:54",1692011934511,1,"14/08/2023 12:18:54",140743,17,"task-3dhf",NA,31173262,NA,"complete",NA,"64da04919351a898f9c3ea48","computer","Desktop or Laptop","Windows 10","Chrome 115.0.0.0","1920x1080","1465x945",NA,NA,0,"Feedback Phrases Task - List 1 (study_2) (Clone with new randomisation)",2,"IJHAGBFCED","A (JV first)","study_1 (JV and feedback_list_1)",NA,"Feedback List 1",21,"Task","Screen 3","izqege",2,"continue","",1766.61299999998,1766.61299999998,1766.61299999998,1766.61299999998,1766.61299999998,1766.61299999998,1,1766.61299999998,0,0,NA,"Fixation Timing","Fixation Cross",1,"object-48",NA,1,"You seem very clever.","You spoke very well.","Task",NA,"SUPPRF41746"
"109",109,1692008339748,"14/08/2023 10:18:59",1692011939748,1,"14/08/2023 12:18:59",140743,17,"task-3dhf",NA,31173262,NA,"complete",NA,"64da04919351a898f9c3ea48","computer","Desktop or Laptop","Windows 10","Chrome 115.0.0.0","1920x1080","1465x945",NA,NA,0,"Feedback Phrases Task - List 1 (study_2) (Clone with new randomisation)",2,"IJHAGBFCED","A (JV first)","study_1 (JV and feedback_list_1)",NA,"Feedback List 1",22,"Task","Screen 1","113qg5",1,"response","You spoke very well.",5237.56300001193,5233.18700000001,5237.56300001193,5237.56300001193,5233.18700000001,5237.56300001193,1,5237.56300001193,0,0,NA,"Click Response","Text_left_X1",2,"object-18",NA,1,"You spoke very well.","You met expectations.","Task",NA,"SUPPRF41746"
"110",110,1692008339757,"14/08/2023 10:18:59",1692011939757,1,"14/08/2023 12:18:59",140743,17,"task-3dhf",NA,31173262,NA,"complete",NA,"64da04919351a898f9c3ea48","computer","Desktop or Laptop","Windows 10","Chrome 115.0.0.0","1920x1080","1465x945",NA,NA,0,"Feedback Phrases Task - List 1 (study_2) (Clone with new randomisation)",2,"IJHAGBFCED","A (JV first)","study_1 (JV and feedback_list_1)",NA,"Feedback List 1",22,"Task","Screen 1","113qg5",1,"action","Text",5246.36300002385,5233.18700000001,5246.36300002385,5246.36300002385,5233.18700000001,5246.36300002385,1,5246.36300002385,0,0,NA,"Mousetracking","screen",0,"screen",NA,1,"You spoke very well.","You met expectations.","Task",NA,"SUPPRF41746"
"111",111,1692008339757,"14/08/2023 10:18:59",1692011939757,1,"14/08/2023 12:18:59",140743,17,"task-3dhf",NA,31173262,NA,"complete",NA,"64da04919351a898f9c3ea48","computer","Desktop or Laptop","Windows 10","Chrome 115.0.0.0","1920x1080","1465x945",NA,NA,0,"Feedback Phrases Task - List 1 (study_2) (Clone with new randomisation)",2,"IJHAGBFCED","A (JV first)","study_1 (JV and feedback_list_1)",NA,"Feedback List 1",22,"Task","Screen 1","113qg5",1,"action","Text_left_X1",5246.96299998809,5233.18700000001,5246.96299998809,5246.96299998809,5233.18700000001,5246.96299998809,1,5246.96299998809,200.008999999991,0.0382193489359334,NA,"Mousetracking","screen",0,"screen",NA,1,"You spoke very well.","You met expectations.","Task",NA,"SUPPRF41746"
"112",112,1692008339758,"14/08/2023 10:18:59",1692011939758,1,"14/08/2023 12:18:59",140743,17,"task-3dhf",NA,31173262,NA,"complete",NA,"64da04919351a898f9c3ea48","computer","Desktop or Laptop","Windows 10","Chrome 115.0.0.0","1920x1080","1465x945",NA,NA,0,"Feedback Phrases Task - List 1 (study_2) (Clone with new randomisation)",2,"IJHAGBFCED","A (JV first)","study_1 (JV and feedback_list_1)",NA,"Feedback List 1",22,"Task","Screen 1","113qg5",1,"action","Text_right_X2",5247.76300000001,5233.18700000001,5247.76300000001,5247.76300000001,5233.18700000001,5247.76300000001,1,5247.76300000001,0,0,NA,"Mousetracking","screen",0,"screen",NA,1,"You spoke very well.","You met expectations.","Task",NA,"SUPPRF41746"
"113",113,1692008341511,"14/08/2023 10:19:01",1692011941511,1,"14/08/2023 12:19:01",140743,17,"task-3dhf",NA,31173262,NA,"complete",NA,"64da04919351a898f9c3ea48","computer","Desktop or Laptop","Windows 10","Chrome 115.0.0.0","1920x1080","1465x945",NA,NA,0,"Feedback Phrases Task - List 1 (study_2) (Clone with new randomisation)",2,"IJHAGBFCED","A (JV first)","study_1 (JV and feedback_list_1)",NA,"Feedback List 1",22,"Task","Screen 3","izqege",2,"continue","",1766.61499999999,1766.61499999999,1766.61499999999,1766.61499999999,1766.61499999999,1766.61499999999,1,1766.61499999999,0,0,NA,"Fixation Timing","Fixation Cross",1,"object-48",NA,1,"You spoke very well.","You met expectations.","Task",NA,"SUPPRF41746"
"114",114,1692008343467,"14/08/2023 10:19:03",1692011943467,1,"14/08/2023 12:19:03",140743,17,"task-3dhf",NA,31173262,NA,"complete",NA,"64da04919351a898f9c3ea48","computer","Desktop or Laptop","Windows 10","Chrome 115.0.0.0","1920x1080","1465x945",NA,NA,0,"Feedback Phrases Task - List 1 (study_2) (Clone with new randomisation)",2,"IJHAGBFCED","A (JV first)","study_1 (JV and feedback_list_1)",NA,"Feedback List 1",23,"Task","Screen 1","113qg5",1,"response","You spoke very well.",1957.16099998809,1949.913,1957.16099998809,1957.16099998809,1949.913,1957.16099998809,1,1957.16099998809,0,0,NA,"Click Response","Text_left_X1",2,"object-18",NA,1,"You spoke very well.","You completed the task.","Task",NA,"SUPPRF41746"
"115",115,1692008343468,"14/08/2023 10:19:03",1692011943468,1,"14/08/2023 12:19:03",140743,17,"task-3dhf",NA,31173262,NA,"complete",NA,"64da04919351a898f9c3ea48","computer","Desktop or Laptop","Windows 10","Chrome 115.0.0.0","1920x1080","1465x945",NA,NA,0,"Feedback Phrases Task - List 1 (study_2) (Clone with new randomisation)",2,"IJHAGBFCED","A (JV first)","study_1 (JV and feedback_list_1)",NA,"Feedback List 1",23,"Task","Screen 1","113qg5",1,"action","Text",1957.66099998809,1949.913,1957.66099998809,1957.66099998809,1949.913,1957.66099998809,1,1957.66099998809,0,0,NA,"Mousetracking","screen",0,"screen",NA,1,"You spoke very well.","You completed the task.","Task",NA,"SUPPRF41746"
"116",116,1692008343468,"14/08/2023 10:19:03",1692011943468,1,"14/08/2023 12:19:03",140743,17,"task-3dhf",NA,31173262,NA,"complete",NA,"64da04919351a898f9c3ea48","computer","Desktop or Laptop","Windows 10","Chrome 115.0.0.0","1920x1080","1465x945",NA,NA,0,"Feedback Phrases Task - List 1 (study_2) (Clone with new randomisation)",2,"IJHAGBFCED","A (JV first)","study_1 (JV and feedback_list_1)",NA,"Feedback List 1",23,"Task","Screen 1","113qg5",1,"action","Text_left_X1",1958.16099998809,1949.913,1958.16099998809,1958.16099998809,1949.913,1958.16099998809,1,1958.16099998809,66.6309999999939,0.034171268154012,NA,"Mousetracking","screen",0,"screen",NA,1,"You spoke very well.","You completed the task.","Task",NA,"SUPPRF41746"
"117",117,1692008343468,"14/08/2023 10:19:03",1692011943468,1,"14/08/2023 12:19:03",140743,17,"task-3dhf",NA,31173262,NA,"complete",NA,"64da04919351a898f9c3ea48","computer","Desktop or Laptop","Windows 10","Chrome 115.0.0.0","1920x1080","1465x945",NA,NA,0,"Feedback Phrases Task - List 1 (study_2) (Clone with new randomisation)",2,"IJHAGBFCED","A (JV first)","study_1 (JV and feedback_list_1)",NA,"Feedback List 1",23,"Task","Screen 1","113qg5",1,"action","Text_right_X2",1958.46100000001,1949.913,1958.46100000001,1958.46100000001,1949.913,1958.46100000001,1,1958.46100000001,0,0,NA,"Mousetracking","screen",0,"screen",NA,1,"You spoke very well.","You completed the task.","Task",NA,"SUPPRF41746"
"118",118,1692008345227,"14/08/2023 10:19:05",1692011945227,1,"14/08/2023 12:19:05",140743,17,"task-3dhf",NA,31173262,NA,"complete",NA,"64da04919351a898f9c3ea48","computer","Desktop or Laptop","Windows 10","Chrome 115.0.0.0","1920x1080","1465x945",NA,NA,0,"Feedback Phrases Task - List 1 (study_2) (Clone with new randomisation)",2,"IJHAGBFCED","A (JV first)","study_1 (JV and feedback_list_1)",NA,"Feedback List 1",23,"Task","Screen 3","izqege",2,"continue","",1766.59900000002,1766.59900000002,1766.59900000002,1766.59900000002,1766.59900000002,1766.59900000002,1,1766.59900000002,0,0,NA,"Fixation Timing","Fixation Cross",1,"object-48",NA,1,"You spoke very well.","You completed the task.","Task",NA,"SUPPRF41746"
"119",119,1692008351239,"14/08/2023 10:19:11",1692011951239,1,"14/08/2023 12:19:11",140743,17,"task-3dhf",NA,31173262,NA,"complete",NA,"64da04919351a898f9c3ea48","computer","Desktop or Laptop","Windows 10","Chrome 115.0.0.0","1920x1080","1465x945",NA,NA,0,"Feedback Phrases Task - List 1 (study_2) (Clone with new randomisation)",2,"IJHAGBFCED","A (JV first)","study_1 (JV and feedback_list_1)",NA,"Feedback List 1",24,"Task","Screen 1","113qg5",1,"response","You met expectations.",6012.04900002384,5999.796,6012.04900002384,6012.04900002384,5999.796,6012.04900002384,1,6012.04900002384,0,0,NA,"Click Response","Text_left_X1",2,"object-18",NA,1,"You met expectations.","You completed the task.","Task",NA,"SUPPRF41746"
"120",120,1692008351252,"14/08/2023 10:19:11",1692011951252,1,"14/08/2023 12:19:11",140743,17,"task-3dhf",NA,31173262,NA,"complete",NA,"64da04919351a898f9c3ea48","computer","Desktop or Laptop","Windows 10","Chrome 115.0.0.0","1920x1080","1465x945",NA,NA,0,"Feedback Phrases Task - List 1 (study_2) (Clone with new randomisation)",2,"IJHAGBFCED","A (JV first)","study_1 (JV and feedback_list_1)",NA,"Feedback List 1",24,"Task","Screen 1","113qg5",1,"action","Text",6016.49500000002,5999.796,6016.49500000002,6016.49500000002,5999.796,6016.49500000002,1,6016.49500000002,0,0,NA,"Mousetracking","screen",0,"screen",NA,1,"You met expectations.","You completed the task.","Task",NA,"SUPPRF41746"
"121",121,1692008351253,"14/08/2023 10:19:11",1692011951253,1,"14/08/2023 12:19:11",140743,17,"task-3dhf",NA,31173262,NA,"complete",NA,"64da04919351a898f9c3ea48","computer","Desktop or Laptop","Windows 10","Chrome 115.0.0.0","1920x1080","1465x945",NA,NA,0,"Feedback Phrases Task - List 1 (study_2) (Clone with new randomisation)",2,"IJHAGBFCED","A (JV first)","study_1 (JV and feedback_list_1)",NA,"Feedback List 1",24,"Task","Screen 1","113qg5",1,"action","Text_left_X1",6016.49500000002,5999.796,6016.49500000002,6016.49500000002,5999.796,6016.49500000002,1,6016.49500000002,433.385999999999,0.0722334559375016,NA,"Mousetracking","screen",0,"screen",NA,1,"You met expectations.","You completed the task.","Task",NA,"SUPPRF41746"
"122",122,1692008351255,"14/08/2023 10:19:11",1692011951255,1,"14/08/2023 12:19:11",140743,17,"task-3dhf",NA,31173262,NA,"complete",NA,"64da04919351a898f9c3ea48","computer","Desktop or Laptop","Windows 10","Chrome 115.0.0.0","1920x1080","1465x945",NA,NA,0,"Feedback Phrases Task - List 1 (study_2) (Clone with new randomisation)",2,"IJHAGBFCED","A (JV first)","study_1 (JV and feedback_list_1)",NA,"Feedback List 1",24,"Task","Screen 1","113qg5",1,"action","Text_right_X2",6016.49500000002,5999.796,6016.49500000002,6016.49500000002,5999.796,6016.49500000002,1,6016.49500000002,0,0,NA,"Mousetracking","screen",0,"screen",NA,1,"You met expectations.","You completed the task.","Task",NA,"SUPPRF41746"
"123",123,1692008352994,"14/08/2023 10:19:12",1692011952994,1,"14/08/2023 12:19:12",140743,17,"task-3dhf",NA,31173262,NA,"complete",NA,"64da04919351a898f9c3ea48","computer","Desktop or Laptop","Windows 10","Chrome 115.0.0.0","1920x1080","1465x945",NA,NA,0,"Feedback Phrases Task - List 1 (study_2) (Clone with new randomisation)",2,"IJHAGBFCED","A (JV first)","study_1 (JV and feedback_list_1)",NA,"Feedback List 1",24,"Task","Screen 3","izqege",2,"continue","",1766.53099999999,1766.53099999999,1766.53099999999,1766.53099999999,1766.53099999999,1766.53099999999,1,1766.53099999999,0,0,NA,"Fixation Timing","Fixation Cross",1,"object-48",NA,1,"You met expectations.","You completed the task.","Task",NA,"SUPPRF41746"
"124",124,1692008355579,"14/08/2023 10:19:15",1692011955579,1,"14/08/2023 12:19:15",140743,17,"task-3dhf",NA,31173262,NA,"complete",NA,"64da04919351a898f9c3ea48","computer","Desktop or Laptop","Windows 10","Chrome 115.0.0.0","1920x1080","1465x945",NA,NA,0,"Feedback Phrases Task - List 1 (study_2) (Clone with new randomisation)",2,"IJHAGBFCED","A (JV first)","study_1 (JV and feedback_list_1)",NA,"Feedback List 1",25,"Task","Screen 1","113qg5",1,"response","You did a great job of capturing the details.",2586.122,2583.454,2586.122,2586.122,2583.454,2586.122,1,2586.122,0,0,NA,"Click Response","Text_right_X2",3,"object-19",NA,1,"Your description was very clear and concise.","You did a great job of capturing the details.","Task",NA,"SUPPRF41746"
"125",125,1692008355580,"14/08/2023 10:19:15",1692011955580,1,"14/08/2023 12:19:15",140743,17,"task-3dhf",NA,31173262,NA,"complete",NA,"64da04919351a898f9c3ea48","computer","Desktop or Laptop","Windows 10","Chrome 115.0.0.0","1920x1080","1465x945",NA,NA,0,"Feedback Phrases Task - List 1 (study_2) (Clone with new randomisation)",2,"IJHAGBFCED","A (JV first)","study_1 (JV and feedback_list_1)",NA,"Feedback List 1",25,"Task","Screen 1","113qg5",1,"action","Text",2586.82199998808,2583.454,2586.82199998808,2586.82199998808,2583.454,2586.82199998808,1,2586.82199998808,0,0,NA,"Mousetracking","screen",0,"screen",NA,1,"Your description was very clear and concise.","You did a great job of capturing the details.","Task",NA,"SUPPRF41746"
"126",126,1692008355580,"14/08/2023 10:19:15",1692011955580,1,"14/08/2023 12:19:15",140743,17,"task-3dhf",NA,31173262,NA,"complete",NA,"64da04919351a898f9c3ea48","computer","Desktop or Laptop","Windows 10","Chrome 115.0.0.0","1920x1080","1465x945",NA,NA,0,"Feedback Phrases Task - List 1 (study_2) (Clone with new randomisation)",2,"IJHAGBFCED","A (JV first)","study_1 (JV and feedback_list_1)",NA,"Feedback List 1",25,"Task","Screen 1","113qg5",1,"action","Text_left_X1",2587.42200001192,2583.454,2587.42200001192,2587.42200001192,2583.454,2587.42200001192,1,2587.42200001192,157107.299,60.8128880947755,NA,"Mousetracking","screen",0,"screen",NA,1,"Your description was very clear and concise.","You did a great job of capturing the details.","Task",NA,"SUPPRF41746"
"127",127,1692008355581,"14/08/2023 10:19:15",1692011955581,1,"14/08/2023 12:19:15",140743,17,"task-3dhf",NA,31173262,NA,"complete",NA,"64da04919351a898f9c3ea48","computer","Desktop or Laptop","Windows 10","Chrome 115.0.0.0","1920x1080","1465x945",NA,NA,0,"Feedback Phrases Task - List 1 (study_2) (Clone with new randomisation)",2,"IJHAGBFCED","A (JV first)","study_1 (JV and feedback_list_1)",NA,"Feedback List 1",25,"Task","Screen 1","113qg5",1,"action","Text_right_X2",2587.92200001192,2583.454,2587.92200001192,2587.92200001192,2583.454,2587.92200001192,1,2587.92200001192,166.664999999979,0.0645124705142724,NA,"Mousetracking","screen",0,"screen",NA,1,"Your description was very clear and concise.","You did a great job of capturing the details.","Task",NA,"SUPPRF41746"
"128",128,1692008357344,"14/08/2023 10:19:17",1692011957344,1,"14/08/2023 12:19:17",140743,17,"task-3dhf",NA,31173262,NA,"complete",NA,"64da04919351a898f9c3ea48","computer","Desktop or Laptop","Windows 10","Chrome 115.0.0.0","1920x1080","1465x945",NA,NA,0,"Feedback Phrases Task - List 1 (study_2) (Clone with new randomisation)",2,"IJHAGBFCED","A (JV first)","study_1 (JV and feedback_list_1)",NA,"Feedback List 1",25,"Task","Screen 3","izqege",2,"continue","",1766.54699999999,1766.54699999999,1766.54699999999,1766.54699999999,1766.54699999999,1766.54699999999,1,1766.54699999999,0,0,NA,"Fixation Timing","Fixation Cross",1,"object-48",NA,1,"Your description was very clear and concise.","You did a great job of capturing the details.","Task",NA,"SUPPRF41746"
"129",129,1692008359083,"14/08/2023 10:19:19",1692011959083,1,"14/08/2023 12:19:19",140743,17,"task-3dhf",NA,31173262,NA,"complete",NA,"64da04919351a898f9c3ea48","computer","Desktop or Laptop","Windows 10","Chrome 115.0.0.0","1920x1080","1465x945",NA,NA,0,"Feedback Phrases Task - List 1 (study_2) (Clone with new randomisation)",2,"IJHAGBFCED","A (JV first)","study_1 (JV and feedback_list_1)",NA,"Feedback List 1",26,"Task","Screen 1","113qg5",1,"response","Your description was very clear and concise.",1740.32099998809,1733.15900000001,1740.32099998809,1740.32099998809,1733.15900000001,1740.32099998809,1,1740.32099998809,0,0,NA,"Click Response","Text_right_X2",3,"object-19",NA,1,"Everything you said was correct.","Your description was very clear and concise.","Task",NA,"SUPPRF41746"
"130",130,1692008359085,"14/08/2023 10:19:19",1692011959085,1,"14/08/2023 12:19:19",140743,17,"task-3dhf",NA,31173262,NA,"complete",NA,"64da04919351a898f9c3ea48","computer","Desktop or Laptop","Windows 10","Chrome 115.0.0.0","1920x1080","1465x945",NA,NA,0,"Feedback Phrases Task - List 1 (study_2) (Clone with new randomisation)",2,"IJHAGBFCED","A (JV first)","study_1 (JV and feedback_list_1)",NA,"Feedback List 1",26,"Task","Screen 1","113qg5",1,"action","Text",1742.02099997617,1733.15900000001,1742.02099997617,1742.02099997617,1733.15900000001,1742.02099997617,1,1742.02099997617,0,0,NA,"Mousetracking","screen",0,"screen",NA,1,"Everything you said was correct.","Your description was very clear and concise.","Task",NA,"SUPPRF41746"
"131",131,1692008359086,"14/08/2023 10:19:19",1692011959086,1,"14/08/2023 12:19:19",140743,17,"task-3dhf",NA,31173262,NA,"complete",NA,"64da04919351a898f9c3ea48","computer","Desktop or Laptop","Windows 10","Chrome 115.0.0.0","1920x1080","1465x945",NA,NA,0,"Feedback Phrases Task - List 1 (study_2) (Clone with new randomisation)",2,"IJHAGBFCED","A (JV first)","study_1 (JV and feedback_list_1)",NA,"Feedback List 1",26,"Task","Screen 1","113qg5",1,"action","Text_left_X1",1743.32099998809,1733.15900000001,1743.32099998809,1743.32099998809,1733.15900000001,1743.32099998809,1,1743.32099998809,0,0,NA,"Mousetracking","screen",0,"screen",NA,1,"Everything you said was correct.","Your description was very clear and concise.","Task",NA,"SUPPRF41746"
"132",132,1692008359089,"14/08/2023 10:19:19",1692011959089,1,"14/08/2023 12:19:19",140743,17,"task-3dhf",NA,31173262,NA,"complete",NA,"64da04919351a898f9c3ea48","computer","Desktop or Laptop","Windows 10","Chrome 115.0.0.0","1920x1080","1465x945",NA,NA,0,"Feedback Phrases Task - List 1 (study_2) (Clone with new randomisation)",2,"IJHAGBFCED","A (JV first)","study_1 (JV and feedback_list_1)",NA,"Feedback List 1",26,"Task","Screen 1","113qg5",1,"action","Text_right_X2",1746.12100000001,1733.15900000001,1746.12100000001,1746.12100000001,1733.15900000001,1746.12100000001,1,1746.12100000001,0,0,NA,"Mousetracking","screen",0,"screen",NA,1,"Everything you said was correct.","Your description was very clear and concise.","Task",NA,"SUPPRF41746"
"133",133,1692008360843,"14/08/2023 10:19:20",1692011960843,1,"14/08/2023 12:19:20",140743,17,"task-3dhf",NA,31173262,NA,"complete",NA,"64da04919351a898f9c3ea48","computer","Desktop or Laptop","Windows 10","Chrome 115.0.0.0","1920x1080","1465x945",NA,NA,0,"Feedback Phrases Task - List 1 (study_2) (Clone with new randomisation)",2,"IJHAGBFCED","A (JV first)","study_1 (JV and feedback_list_1)",NA,"Feedback List 1",26,"Task","Screen 3","izqege",2,"continue","",1766.61499999999,1766.61499999999,1766.61499999999,1766.61499999999,1766.61499999999,1766.61499999999,1,1766.61499999999,0,0,NA,"Fixation Timing","Fixation Cross",1,"object-48",NA,1,"Everything you said was correct.","Your description was very clear and concise.","Task",NA,"SUPPRF41746"
"134",134,1692008362788,"14/08/2023 10:19:22",1692011962788,1,"14/08/2023 12:19:22",140743,17,"task-3dhf",NA,31173262,NA,"complete",NA,"64da04919351a898f9c3ea48","computer","Desktop or Laptop","Windows 10","Chrome 115.0.0.0","1920x1080","1465x945",NA,NA,0,"Feedback Phrases Task - List 1 (study_2) (Clone with new randomisation)",2,"IJHAGBFCED","A (JV first)","study_1 (JV and feedback_list_1)",NA,"Feedback List 1",27,"Task","Screen 1","113qg5",1,"response","You seem very clever.",1945.34700000001,1933.28,1945.34700000001,1945.34700000001,1933.28,1945.34700000001,1,1945.34700000001,0,0,NA,"Click Response","Text_left_X1",2,"object-18",NA,1,"You seem very clever.","That was acceptable.","Task",NA,"SUPPRF41746"
"135",135,1692008362802,"14/08/2023 10:19:22",1692011962802,1,"14/08/2023 12:19:22",140743,17,"task-3dhf",NA,31173262,NA,"complete",NA,"64da04919351a898f9c3ea48","computer","Desktop or Laptop","Windows 10","Chrome 115.0.0.0","1920x1080","1465x945",NA,NA,0,"Feedback Phrases Task - List 1 (study_2) (Clone with new randomisation)",2,"IJHAGBFCED","A (JV first)","study_1 (JV and feedback_list_1)",NA,"Feedback List 1",27,"Task","Screen 1","113qg5",1,"action","Text",1949.91799999998,1933.28,1949.91799999998,1949.91799999998,1933.28,1949.91799999998,1,1949.91799999998,0,0,NA,"Mousetracking","screen",0,"screen",NA,1,"You seem very clever.","That was acceptable.","Task",NA,"SUPPRF41746"
"136",136,1692008362803,"14/08/2023 10:19:22",1692011962803,1,"14/08/2023 12:19:22",140743,17,"task-3dhf",NA,31173262,NA,"complete",NA,"64da04919351a898f9c3ea48","computer","Desktop or Laptop","Windows 10","Chrome 115.0.0.0","1920x1080","1465x945",NA,NA,0,"Feedback Phrases Task - List 1 (study_2) (Clone with new randomisation)",2,"IJHAGBFCED","A (JV first)","study_1 (JV and feedback_list_1)",NA,"Feedback List 1",27,"Task","Screen 1","113qg5",1,"action","Text_left_X1",1949.91799999998,1933.28,1949.91799999998,1949.91799999998,1933.28,1949.91799999998,1,1949.91799999998,116.539000000019,0.0602804560125894,NA,"Mousetracking","screen",0,"screen",NA,1,"You seem very clever.","That was acceptable.","Task",NA,"SUPPRF41746"
"137",137,1692008362804,"14/08/2023 10:19:22",1692011962804,1,"14/08/2023 12:19:22",140743,17,"task-3dhf",NA,31173262,NA,"complete",NA,"64da04919351a898f9c3ea48","computer","Desktop or Laptop","Windows 10","Chrome 115.0.0.0","1920x1080","1465x945",NA,NA,0,"Feedback Phrases Task - List 1 (study_2) (Clone with new randomisation)",2,"IJHAGBFCED","A (JV first)","study_1 (JV and feedback_list_1)",NA,"Feedback List 1",27,"Task","Screen 1","113qg5",1,"action","Text_right_X2",1949.91799999998,1933.28,1949.91799999998,1949.91799999998,1933.28,1949.91799999998,1,1949.91799999998,164523.617,85.1007701936606,NA,"Mousetracking","screen",0,"screen",NA,1,"You seem very clever.","That was acceptable.","Task",NA,"SUPPRF41746"
