"Event.Index","UTC.Timestamp","UTC.Date.and.Time","Local.Timestamp","Local.Timezone","Local.Date.and.Time","Experiment.ID","Experiment.Version","Tree.Node.Key","Repeat.Key","Schedule.ID","Participant.Private.ID","Participant.Starting.Group","Participant.Status","Participant.Completion.Code","Participant.External.Session.ID","Participant.Device.Type","Participant.Device","Participant.OS","Participant.Browser","Participant.Monitor.Size","Participant.Viewport.Size","Checkpoint","Room.ID","Room.Order","Task.Name","Task.Version","order.ot79","branch.g31k","branch.5gtn","Spreadsheet","Trial.Number","Display","Screen","Screen.ID","Screen.Counter","Response.Type","Response","Onset.Time","Clock.Time","Reaction.Time","Absolute.Onset.Time","Absolute.Clock.Time","Absolute.Reaction.Time","Correct","Response.Onset","Response.Duration","Proportion","Tag","Component.Name","Object.Name","Object.Number","Object.ID","Spreadsheet..display","Manipulation..Spreadsheet","Random_ID"
"1",1695411074286,"22/09/2023 19:31:14",1695396674286,-4,"22/09/2023 11:31:14",142855,8,"task-hbx7",NA,31801615,9405725,NA,"rejected - time limit reached",NA,"650db0dd973c11ffa3d5f4a7","computer","Desktop or Laptop","Windows 10","Chrome 116.0.0.0","1280x720","1280x571",NA,NA,0,"Task Introduction and Instructions (Clone)",9,"DECFBGAHJI","Passed AC2","","Spreadsheet1",NA,"","","",NA,"5","BEGIN",NA,NA,NA,NA,NA,NA,0,NA,NA,NA,NA,"","",NA,"","",NA,"SUPPRF57043"
"2",1695411088753,"22/09/2023 19:31:28",1695396688753,-4,"22/09/2023 11:31:28",142855,8,"task-hbx7",NA,31801615,9405725,NA,"rejected - time limit reached",NA,"650db0dd973c11ffa3d5f4a7","computer","Desktop or Laptop","Windows 10","Chrome 116.0.0.0","1280x720","1280x571",NA,NA,0,"Task Introduction and Instructions (Clone)",9,"DECFBGAHJI","Passed AC2","","Spreadsheet1",1,"Task Instructions","Screen 1","anr7sn",1,"continue","",13637.228,13620.578,13637.228,13637.228,13620.578,13637.228,1,13637.228,0,0,NA,"Click To Continue","Continue Button",2,"object-1944","Task Instructions",NA,"SUPPRF57043"
"3",1695411093699,"22/09/2023 19:31:33",1695396693699,-4,"22/09/2023 11:31:33",142855,8,"task-hbx7",NA,31801615,9405725,NA,"rejected - time limit reached",NA,"650db0dd973c11ffa3d5f4a7","computer","Desktop or Laptop","Windows 10","Chrome 116.0.0.0","1280x720","1280x571",NA,NA,0,"Task Introduction and Instructions (Clone)",9,"DECFBGAHJI","Passed AC2","","Spreadsheet1",1,"Task Instructions","Screen 2","ce2tc8",2,"continue","",4995.328,4978.676,4995.328,4995.328,4978.676,4995.328,1,4995.328,0,0,NA,"Click To Continue","Continue Button",2,"object-7","Task Instructions",NA,"SUPPRF57043"
"4",1695411978904,"22/09/2023 19:46:18",1695397578904,-4,"22/09/2023 11:46:18",142855,8,"task-hbx7",NA,31801615,9405725,NA,"rejected - time limit reached",NA,"650db0dd973c11ffa3d5f4a7","computer","Desktop or Laptop","Windows 10","Chrome 116.0.0.0","1280x720","1280x571",NA,NA,0,"Task Introduction and Instructions (Clone)",9,"DECFBGAHJI","Passed AC2","","Spreadsheet1",1,"Task Instructions","Screen 5","spepx9",3,"continue","",885218.995,885201.971,885218.995,885218.995,885201.971,885218.995,1,885218.995,0,0,NA,"Click To Continue","Continue Button",2,"object-9","Task Instructions",NA,"SUPPRF57043"
"5",1695411981507,"22/09/2023 19:46:21",1695397581507,-4,"22/09/2023 11:46:21",142855,8,"task-hbx7",NA,31801615,9405725,NA,"rejected - time limit reached",NA,"650db0dd973c11ffa3d5f4a7","computer","Desktop or Laptop","Windows 10","Chrome 116.0.0.0","1280x720","1280x571",NA,NA,0,"Task Introduction and Instructions (Clone)",9,"DECFBGAHJI","Passed AC2","","Spreadsheet1",1,"Task Instructions","Screen 9","8nvnao",4,"continue","",2624.84500001196,2613.83100000001,2624.84500001196,2624.84500001196,2613.83100000001,2624.84500001196,1,2624.84500001196,0,0,NA,"Click To Continue","Continue Button",2,"object-44","Task Instructions",NA,"SUPPRF57043"
"6",1695411981515,"22/09/2023 19:46:21",1695397581515,-4,"22/09/2023 11:46:21",142855,8,"task-hbx7",NA,31801615,9405725,NA,"rejected - time limit reached",NA,"650db0dd973c11ffa3d5f4a7","computer","Desktop or Laptop","Windows 10","Chrome 116.0.0.0","1280x720","1280x571",NA,NA,0,"Task Introduction and Instructions (Clone)",9,"DECFBGAHJI","Passed AC2","","Spreadsheet1",NA,"","","",NA,"5","END",NA,NA,NA,NA,NA,NA,0,NA,NA,NA,NA,"","",NA,"","",NA,"SUPPRF57043"
"1",1695411110380,"22/09/2023 19:31:50",1695396710380,-4,"22/09/2023 11:31:50",142855,8,"task-hbx7",NA,31801627,9405733,NA,"complete",NA,"650db0b48ce42f1ad26b6efe","computer","Desktop or Laptop","Windows 10","Chrome 116.0.0.0","1536x864","1536x755",NA,NA,0,"Task Introduction and Instructions (Clone)",9,"EFDGCHBIAJ","Passed AC2","","Spreadsheet1",NA,"","","",NA,"5","BEGIN",NA,NA,NA,NA,NA,NA,0,NA,NA,NA,NA,"","",NA,"","",NA,"SUPPRF47329"
"2",1695411114375,"22/09/2023 19:31:54",1695396714375,-4,"22/09/2023 11:31:54",142855,8,"task-hbx7",NA,31801627,9405733,NA,"complete",NA,"650db0b48ce42f1ad26b6efe","computer","Desktop or Laptop","Windows 10","Chrome 116.0.0.0","1536x864","1536x755",NA,NA,0,"Task Introduction and Instructions (Clone)",9,"EFDGCHBIAJ","Passed AC2","","Spreadsheet1",1,"Task Instructions","Screen 1","anr7sn",1,"continue","",3765.62899995232,3763.877,3765.62899995232,3765.62899995232,3763.877,3765.62899995232,1,3765.62899995232,0,0,NA,"Click To Continue","Continue Button",2,"object-1944","Task Instructions",NA,"SUPPRF47329"
"3",1695411124507,"22/09/2023 19:32:04",1695396724507,-4,"22/09/2023 11:32:04",142855,8,"task-hbx7",NA,31801627,9405733,NA,"complete",NA,"650db0b48ce42f1ad26b6efe","computer","Desktop or Laptop","Windows 10","Chrome 116.0.0.0","1536x864","1536x755",NA,NA,0,"Task Introduction and Instructions (Clone)",9,"EFDGCHBIAJ","Passed AC2","","Spreadsheet1",1,"Task Instructions","Screen 2","ce2tc8",2,"continue","",10132.134,10125.223,10132.134,10132.134,10125.223,10132.134,1,10132.134,0,0,NA,"Click To Continue","Continue Button",2,"object-7","Task Instructions",NA,"SUPPRF47329"
"4",1695411130148,"22/09/2023 19:32:10",1695396730148,-4,"22/09/2023 11:32:10",142855,8,"task-hbx7",NA,31801627,9405733,NA,"complete",NA,"650db0b48ce42f1ad26b6efe","computer","Desktop or Laptop","Windows 10","Chrome 116.0.0.0","1536x864","1536x755",NA,NA,0,"Task Introduction and Instructions (Clone)",9,"EFDGCHBIAJ","Passed AC2","","Spreadsheet1",1,"Task Instructions","Screen 5","spepx9",3,"continue","",5649.229,5645.903,5649.229,5649.229,5645.903,5649.229,1,5649.229,0,0,NA,"Click To Continue","Continue Button",2,"object-9","Task Instructions",NA,"SUPPRF47329"
"5",1695411132937,"22/09/2023 19:32:12",1695396732937,-4,"22/09/2023 11:32:12",142855,8,"task-hbx7",NA,31801627,9405733,NA,"complete",NA,"650db0b48ce42f1ad26b6efe","computer","Desktop or Laptop","Windows 10","Chrome 116.0.0.0","1536x864","1536x755",NA,NA,0,"Task Introduction and Instructions (Clone)",9,"EFDGCHBIAJ","Passed AC2","","Spreadsheet1",1,"Task Instructions","Screen 9","8nvnao",4,"continue","",2791.518,2784.706,2791.518,2791.518,2784.706,2791.518,1,2791.518,0,0,NA,"Click To Continue","Continue Button",2,"object-44","Task Instructions",NA,"SUPPRF47329"
"6",1695411132938,"22/09/2023 19:32:12",1695396732938,-4,"22/09/2023 11:32:12",142855,8,"task-hbx7",NA,31801627,9405733,NA,"complete",NA,"650db0b48ce42f1ad26b6efe","computer","Desktop or Laptop","Windows 10","Chrome 116.0.0.0","1536x864","1536x755",NA,NA,0,"Task Introduction and Instructions (Clone)",9,"EFDGCHBIAJ","Passed AC2","","Spreadsheet1",NA,"","","",NA,"5","END",NA,NA,NA,NA,NA,NA,0,NA,NA,NA,NA,"","",NA,"","",NA,"SUPPRF47329"
"1",1695414723810,"22/09/2023 20:32:03",1695396723810,-5,"22/09/2023 10:32:03",142855,8,"task-hbx7",NA,31801631,9405710,NA,"complete",NA,"650db064e3a0063623832323","computer","Desktop or Laptop","Windows 10","Chrome 116.0.0.0","1280x720","1280x563",NA,NA,0,"Task Introduction and Instructions (Clone)",9,"ABJCIDHEGF","Passed AC2","","Spreadsheet1",NA,"","","",NA,"5","BEGIN",NA,NA,NA,NA,NA,NA,0,NA,NA,NA,NA,"","",NA,"","",NA,"SUPPRF52836"
"2",1695414728615,"22/09/2023 20:32:08",1695396728615,-5,"22/09/2023 10:32:08",142855,8,"task-hbx7",NA,31801631,9405710,NA,"complete",NA,"650db064e3a0063623832323","computer","Desktop or Laptop","Windows 10","Chrome 116.0.0.0","1280x720","1280x563",NA,NA,0,"Task Introduction and Instructions (Clone)",9,"ABJCIDHEGF","Passed AC2","","Spreadsheet1",1,"Task Instructions","Screen 1","anr7sn",1,"continue","",4058.13200007153,4044.519,4058.13200007153,4058.13200007153,4044.519,4058.13200007153,1,4058.13200007153,0,0,NA,"Click To Continue","Continue Button",2,"object-1944","Task Instructions",NA,"SUPPRF52836"
"3",1695414767558,"22/09/2023 20:32:47",1695396767558,-5,"22/09/2023 10:32:47",142855,8,"task-hbx7",NA,31801631,9405710,NA,"complete",NA,"650db064e3a0063623832323","computer","Desktop or Laptop","Windows 10","Chrome 116.0.0.0","1280x720","1280x563",NA,NA,0,"Task Introduction and Instructions (Clone)",9,"ABJCIDHEGF","Passed AC2","","Spreadsheet1",1,"Task Instructions","Screen 2","ce2tc8",2,"continue","",38957.7129999762,38948.457,38957.7129999762,38957.7129999762,38948.457,38957.7129999762,1,38957.7129999762,0,0,NA,"Click To Continue","Continue Button",2,"object-7","Task Instructions",NA,"SUPPRF52836"
"4",1695414770375,"22/09/2023 20:32:50",1695396770375,-5,"22/09/2023 10:32:50",142855,8,"task-hbx7",NA,31801631,9405710,NA,"complete",NA,"650db064e3a0063623832323","computer","Desktop or Laptop","Windows 10","Chrome 116.0.0.0","1280x720","1280x563",NA,NA,0,"Task Introduction and Instructions (Clone)",9,"ABJCIDHEGF","Passed AC2","","Spreadsheet1",1,"Task Instructions","Screen 5","spepx9",3,"continue","",2825.856,2812.943,2825.856,2825.856,2812.943,2825.856,1,2825.856,0,0,NA,"Click To Continue","Continue Button",2,"object-9","Task Instructions",NA,"SUPPRF52836"
"5",1695414773242,"22/09/2023 20:32:53",1695396773242,-5,"22/09/2023 10:32:53",142855,8,"task-hbx7",NA,31801631,9405710,NA,"complete",NA,"650db064e3a0063623832323","computer","Desktop or Laptop","Windows 10","Chrome 116.0.0.0","1280x720","1280x563",NA,NA,0,"Task Introduction and Instructions (Clone)",9,"ABJCIDHEGF","Passed AC2","","Spreadsheet1",1,"Task Instructions","Screen 9","8nvnao",4,"continue","",2879.541,2862.91,2879.541,2879.541,2862.91,2879.541,1,2879.541,0,0,NA,"Click To Continue","Continue Button",2,"object-44","Task Instructions",NA,"SUPPRF52836"
"6",1695414773246,"22/09/2023 20:32:53",1695396773246,-5,"22/09/2023 10:32:53",142855,8,"task-hbx7",NA,31801631,9405710,NA,"complete",NA,"650db064e3a0063623832323","computer","Desktop or Laptop","Windows 10","Chrome 116.0.0.0","1280x720","1280x563",NA,NA,0,"Task Introduction and Instructions (Clone)",9,"ABJCIDHEGF","Passed AC2","","Spreadsheet1",NA,"","","",NA,"5","END",NA,NA,NA,NA,NA,NA,0,NA,NA,NA,NA,"","",NA,"","",NA,"SUPPRF52836"
"1",1695393231413,"22/09/2023 14:33:51",1695396831413,1,"22/09/2023 16:33:51",142855,8,"task-hbx7",NA,31801683,9405723,NA,"complete",NA,"650db0cfaa5afdaaef6db6b6","computer","Desktop or Laptop","Windows 10","Chrome 117.0.0.0","1536x864","1536x715",NA,NA,0,"Task Introduction and Instructions (Clone)",9,"CDBEAFJGIH","Passed AC2","","Spreadsheet1",NA,"","","",NA,"5","BEGIN",NA,NA,NA,NA,NA,NA,0,NA,NA,NA,NA,"","",NA,"","",NA,"SUPPRF59799"
"2",1695393235018,"22/09/2023 14:33:55",1695396835018,1,"22/09/2023 16:33:55",142855,8,"task-hbx7",NA,31801683,9405723,NA,"complete",NA,"650db0cfaa5afdaaef6db6b6","computer","Desktop or Laptop","Windows 10","Chrome 117.0.0.0","1536x864","1536x715",NA,NA,0,"Task Introduction and Instructions (Clone)",9,"CDBEAFJGIH","Passed AC2","","Spreadsheet1",1,"Task Instructions","Screen 1","anr7sn",1,"continue","",3477.069,3463.033,3477.069,3477.069,3463.033,3477.069,1,3477.069,0,0,NA,"Click To Continue","Continue Button",2,"object-1944","Task Instructions",NA,"SUPPRF59799"
"3",1695393241912,"22/09/2023 14:34:01",1695396841912,1,"22/09/2023 16:34:01",142855,8,"task-hbx7",NA,31801683,9405723,NA,"complete",NA,"650db0cfaa5afdaaef6db6b6","computer","Desktop or Laptop","Windows 10","Chrome 117.0.0.0","1536x864","1536x715",NA,NA,0,"Task Introduction and Instructions (Clone)",9,"CDBEAFJGIH","Passed AC2","","Spreadsheet1",1,"Task Instructions","Screen 2","ce2tc8",2,"continue","",6908.23600004768,6892.735,6908.23600004768,6908.23600004768,6892.735,6908.23600004768,1,6908.23600004768,0,0,NA,"Click To Continue","Continue Button",2,"object-7","Task Instructions",NA,"SUPPRF59799"
"4",1695393289883,"22/09/2023 14:34:49",1695396889883,1,"22/09/2023 16:34:49",142855,8,"task-hbx7",NA,31801683,9405723,NA,"complete",NA,"650db0cfaa5afdaaef6db6b6","computer","Desktop or Laptop","Windows 10","Chrome 117.0.0.0","1536x864","1536x715",NA,NA,0,"Task Introduction and Instructions (Clone)",9,"CDBEAFJGIH","Passed AC2","","Spreadsheet1",1,"Task Instructions","Screen 5","spepx9",3,"continue","",47987.5010000477,47982.835,47987.5010000477,47987.5010000477,47982.835,47987.5010000477,1,47987.5010000477,0,0,NA,"Click To Continue","Continue Button",2,"object-9","Task Instructions",NA,"SUPPRF59799"
"5",1695393292769,"22/09/2023 14:34:52",1695396892769,1,"22/09/2023 16:34:52",142855,8,"task-hbx7",NA,31801683,9405723,NA,"complete",NA,"650db0cfaa5afdaaef6db6b6","computer","Desktop or Laptop","Windows 10","Chrome 117.0.0.0","1536x864","1536x715",NA,NA,0,"Task Introduction and Instructions (Clone)",9,"CDBEAFJGIH","Passed AC2","","Spreadsheet1",1,"Task Instructions","Screen 9","8nvnao",4,"continue","",2890.16600004768,2880.336,2890.16600004768,2890.16600004768,2880.336,2890.16600004768,1,2890.16600004768,0,0,NA,"Click To Continue","Continue Button",2,"object-44","Task Instructions",NA,"SUPPRF59799"
"6",1695393292776,"22/09/2023 14:34:52",1695396892776,1,"22/09/2023 16:34:52",142855,8,"task-hbx7",NA,31801683,9405723,NA,"complete",NA,"650db0cfaa5afdaaef6db6b6","computer","Desktop or Laptop","Windows 10","Chrome 117.0.0.0","1536x864","1536x715",NA,NA,0,"Task Introduction and Instructions (Clone)",9,"CDBEAFJGIH","Passed AC2","","Spreadsheet1",NA,"","","",NA,"5","END",NA,NA,NA,NA,NA,NA,0,NA,NA,NA,NA,"","",NA,"","",NA,"SUPPRF59799"
"1",1695394005702,"22/09/2023 14:46:45",1695397605702,1,"22/09/2023 16:46:45",142855,8,"task-hbx7",NA,31801894,9405753,NA,"complete",NA,"650db0373416393925f52839","computer","Desktop or Laptop","Windows 10","Chrome 116.0.0.0","1366x768","1366x689",NA,NA,0,"Task Introduction and Instructions (Clone)",9,"FGEHDICJBA","Passed AC2","","Spreadsheet1",NA,"","","",NA,"5","BEGIN",NA,NA,NA,NA,NA,NA,0,NA,NA,NA,NA,"","",NA,"","",NA,"SUPPRF86355"
"2",1695394011806,"22/09/2023 14:46:51",1695397611806,1,"22/09/2023 16:46:51",142855,8,"task-hbx7",NA,31801894,9405753,NA,"complete",NA,"650db0373416393925f52839","computer","Desktop or Laptop","Windows 10","Chrome 116.0.0.0","1366x768","1366x689",NA,NA,0,"Task Introduction and Instructions (Clone)",9,"FGEHDICJBA","Passed AC2","","Spreadsheet1",1,"Task Instructions","Screen 1","anr7sn",1,"continue","",5479.26399999851,5464.218,5479.26399999851,5479.26399999851,5464.218,5479.26399999851,1,5479.26399999851,0,0,NA,"Click To Continue","Continue Button",2,"object-1944","Task Instructions",NA,"SUPPRF86355"
"3",1695394026227,"22/09/2023 14:47:06",1695397626227,1,"22/09/2023 16:47:06",142855,8,"task-hbx7",NA,31801894,9405753,NA,"complete",NA,"650db0373416393925f52839","computer","Desktop or Laptop","Windows 10","Chrome 116.0.0.0","1366x768","1366x689",NA,NA,0,"Task Introduction and Instructions (Clone)",9,"FGEHDICJBA","Passed AC2","","Spreadsheet1",1,"Task Instructions","Screen 2","ce2tc8",2,"continue","",14438.4460000007,14427.772,14438.4460000007,14438.4460000007,14427.772,14438.4460000007,1,14438.4460000007,0,0,NA,"Click To Continue","Continue Button",2,"object-7","Task Instructions",NA,"SUPPRF86355"
"4",1695394073994,"22/09/2023 14:47:53",1695397673994,1,"22/09/2023 16:47:53",142855,8,"task-hbx7",NA,31801894,9405753,NA,"complete",NA,"650db0373416393925f52839","computer","Desktop or Laptop","Windows 10","Chrome 116.0.0.0","1366x768","1366x689",NA,NA,0,"Task Introduction and Instructions (Clone)",9,"FGEHDICJBA","Passed AC2","","Spreadsheet1",1,"Task Instructions","Screen 5","spepx9",3,"continue","",47777.9739999978,47762.096,47777.9739999978,47777.9739999978,47762.096,47777.9739999978,1,47777.9739999978,0,0,NA,"Click To Continue","Continue Button",2,"object-9","Task Instructions",NA,"SUPPRF86355"
"5",1695394077267,"22/09/2023 14:47:57",1695397677267,1,"22/09/2023 16:47:57",142855,8,"task-hbx7",NA,31801894,9405753,NA,"complete",NA,"650db0373416393925f52839","computer","Desktop or Laptop","Windows 10","Chrome 116.0.0.0","1366x768","1366x689",NA,NA,0,"Task Introduction and Instructions (Clone)",9,"FGEHDICJBA","Passed AC2","","Spreadsheet1",1,"Task Instructions","Screen 9","8nvnao",4,"continue","",3289.07800000075,3282.01000000001,3289.07800000075,3289.07800000075,3282.01000000001,3289.07800000075,1,3289.07800000075,0,0,NA,"Click To Continue","Continue Button",2,"object-44","Task Instructions",NA,"SUPPRF86355"
"6",1695394077276,"22/09/2023 14:47:57",1695397677276,1,"22/09/2023 16:47:57",142855,8,"task-hbx7",NA,31801894,9405753,NA,"complete",NA,"650db0373416393925f52839","computer","Desktop or Laptop","Windows 10","Chrome 116.0.0.0","1366x768","1366x689",NA,NA,0,"Task Introduction and Instructions (Clone)",9,"FGEHDICJBA","Passed AC2","","Spreadsheet1",NA,"","","",NA,"5","END",NA,NA,NA,NA,NA,NA,0,NA,NA,NA,NA,"","",NA,"","",NA,"SUPPRF86355"
"1",1695423030057,"22/09/2023 22:50:30",1695397830057,-7,"22/09/2023 08:50:30",142855,8,"task-hbx7",NA,31801957,9405713,NA,"complete",NA,"650db04556ac975fbca13f16","computer","Desktop or Laptop","Mac OS 10.15.7","Chrome 117.0.0.0","1440x900","1113x800",NA,NA,0,"Task Introduction and Instructions (Clone)",9,"GHFIEJDACB","Passed AC2","","Spreadsheet1",NA,"","","",NA,"5","BEGIN",NA,NA,NA,NA,NA,NA,0,NA,NA,NA,NA,"","",NA,"","",NA,"SUPPRF74611"
"2",1695423041815,"22/09/2023 22:50:41",1695397841815,-7,"22/09/2023 08:50:41",142855,8,"task-hbx7",NA,31801957,9405713,NA,"complete",NA,"650db04556ac975fbca13f16","computer","Desktop or Laptop","Mac OS 10.15.7","Chrome 117.0.0.0","1440x900","1113x800",NA,NA,0,"Task Introduction and Instructions (Clone)",9,"GHFIEJDACB","Passed AC2","","Spreadsheet1",1,"Task Instructions","Screen 1","anr7sn",1,"continue","",10742,10735,10742,10742,10735,10742,1,10742,0,0,NA,"Click To Continue","Continue Button",2,"object-1944","Task Instructions",NA,"SUPPRF74611"
"3",1695423046818,"22/09/2023 22:50:46",1695397846818,-7,"22/09/2023 08:50:46",142855,8,"task-hbx7",NA,31801957,9405713,NA,"complete",NA,"650db04556ac975fbca13f16","computer","Desktop or Laptop","Mac OS 10.15.7","Chrome 117.0.0.0","1440x900","1113x800",NA,NA,0,"Task Introduction and Instructions (Clone)",9,"GHFIEJDACB","Passed AC2","","Spreadsheet1",1,"Task Instructions","Screen 2","ce2tc8",2,"continue","",5010,5001,5010,5010,5001,5010,1,5010,0,0,NA,"Click To Continue","Continue Button",2,"object-7","Task Instructions",NA,"SUPPRF74611"
"4",1695423050181,"22/09/2023 22:50:50",1695397850181,-7,"22/09/2023 08:50:50",142855,8,"task-hbx7",NA,31801957,9405713,NA,"complete",NA,"650db04556ac975fbca13f16","computer","Desktop or Laptop","Mac OS 10.15.7","Chrome 117.0.0.0","1440x900","1113x800",NA,NA,0,"Task Introduction and Instructions (Clone)",9,"GHFIEJDACB","Passed AC2","","Spreadsheet1",1,"Task Instructions","Screen 5","spepx9",3,"continue","",3372,3367,3372,3372,3367,3372,1,3372,0,0,NA,"Click To Continue","Continue Button",2,"object-9","Task Instructions",NA,"SUPPRF74611"
"5",1695423056632,"22/09/2023 22:50:56",1695397856632,-7,"22/09/2023 08:50:56",142855,8,"task-hbx7",NA,31801957,9405713,NA,"complete",NA,"650db04556ac975fbca13f16","computer","Desktop or Laptop","Mac OS 10.15.7","Chrome 117.0.0.0","1440x900","1113x800",NA,NA,0,"Task Introduction and Instructions (Clone)",9,"GHFIEJDACB","Passed AC2","","Spreadsheet1",1,"Task Instructions","Screen 9","8nvnao",4,"continue","",6457,6451,6457,6457,6451,6457,1,6457,0,0,NA,"Click To Continue","Continue Button",2,"object-44","Task Instructions",NA,"SUPPRF74611"
"6",1695423056638,"22/09/2023 22:50:56",1695397856638,-7,"22/09/2023 08:50:56",142855,8,"task-hbx7",NA,31801957,9405713,NA,"complete",NA,"650db04556ac975fbca13f16","computer","Desktop or Laptop","Mac OS 10.15.7","Chrome 117.0.0.0","1440x900","1113x800",NA,NA,0,"Task Introduction and Instructions (Clone)",9,"GHFIEJDACB","Passed AC2","","Spreadsheet1",NA,"","","",NA,"5","END",NA,NA,NA,NA,NA,NA,0,NA,NA,NA,NA,"","",NA,"","",NA,"SUPPRF74611"
"1",1695394309158,"22/09/2023 14:51:49",1695397909158,1,"22/09/2023 16:51:49",142855,8,"task-hbx7",NA,31801979,9405825,NA,"complete",NA,"650db5b5ae9a4c321ea31e67","computer","Desktop or Laptop","Windows 10","Chrome 116.0.0.0","1536x864","1536x747",NA,NA,0,"Task Introduction and Instructions (Clone)",9,"IJHAGBFCED","Passed AC2","","Spreadsheet1",NA,"","","",NA,"5","BEGIN",NA,NA,NA,NA,NA,NA,0,NA,NA,NA,NA,"","",NA,"","",NA,"SUPPRF03456"
"2",1695394312760,"22/09/2023 14:51:52",1695397912760,1,"22/09/2023 16:51:52",142855,8,"task-hbx7",NA,31801979,9405825,NA,"complete",NA,"650db5b5ae9a4c321ea31e67","computer","Desktop or Laptop","Windows 10","Chrome 116.0.0.0","1536x864","1536x747",NA,NA,0,"Task Introduction and Instructions (Clone)",9,"IJHAGBFCED","Passed AC2","","Spreadsheet1",1,"Task Instructions","Screen 1","anr7sn",1,"continue","",3388.24600007153,3382.495,3388.24600007153,3388.24600007153,3382.495,3388.24600007153,1,3388.24600007153,0,0,NA,"Click To Continue","Continue Button",2,"object-1944","Task Instructions",NA,"SUPPRF03456"
"3",1695394319156,"22/09/2023 14:51:59",1695397919156,1,"22/09/2023 16:51:59",142855,8,"task-hbx7",NA,31801979,9405825,NA,"complete",NA,"650db5b5ae9a4c321ea31e67","computer","Desktop or Laptop","Windows 10","Chrome 116.0.0.0","1536x864","1536x747",NA,NA,0,"Task Introduction and Instructions (Clone)",9,"IJHAGBFCED","Passed AC2","","Spreadsheet1",1,"Task Instructions","Screen 2","ce2tc8",2,"continue","",6401.85100009537,6398.459,6401.85100009537,6401.85100009537,6398.459,6401.85100009537,1,6401.85100009537,0,0,NA,"Click To Continue","Continue Button",2,"object-7","Task Instructions",NA,"SUPPRF03456"
"4",1695394322654,"22/09/2023 14:52:02",1695397922654,1,"22/09/2023 16:52:02",142855,8,"task-hbx7",NA,31801979,9405825,NA,"complete",NA,"650db5b5ae9a4c321ea31e67","computer","Desktop or Laptop","Windows 10","Chrome 116.0.0.0","1536x864","1536x747",NA,NA,0,"Task Introduction and Instructions (Clone)",9,"IJHAGBFCED","Passed AC2","","Spreadsheet1",1,"Task Instructions","Screen 5","spepx9",3,"continue","",3501.59200002384,3499.211,3501.59200002384,3501.59200002384,3499.211,3501.59200002384,1,3501.59200002384,0,0,NA,"Click To Continue","Continue Button",2,"object-9","Task Instructions",NA,"SUPPRF03456"
"5",1695394325636,"22/09/2023 14:52:05",1695397925636,1,"22/09/2023 16:52:05",142855,8,"task-hbx7",NA,31801979,9405825,NA,"complete",NA,"650db5b5ae9a4c321ea31e67","computer","Desktop or Laptop","Windows 10","Chrome 116.0.0.0","1536x864","1536x747",NA,NA,0,"Task Introduction and Instructions (Clone)",9,"IJHAGBFCED","Passed AC2","","Spreadsheet1",1,"Task Instructions","Screen 9","8nvnao",4,"continue","",2982.556,2965.912,2982.556,2982.556,2965.912,2982.556,1,2982.556,0,0,NA,"Click To Continue","Continue Button",2,"object-44","Task Instructions",NA,"SUPPRF03456"
"6",1695394325642,"22/09/2023 14:52:05",1695397925642,1,"22/09/2023 16:52:05",142855,8,"task-hbx7",NA,31801979,9405825,NA,"complete",NA,"650db5b5ae9a4c321ea31e67","computer","Desktop or Laptop","Windows 10","Chrome 116.0.0.0","1536x864","1536x747",NA,NA,0,"Task Introduction and Instructions (Clone)",9,"IJHAGBFCED","Passed AC2","","Spreadsheet1",NA,"","","",NA,"5","END",NA,NA,NA,NA,NA,NA,0,NA,NA,NA,NA,"","",NA,"","",NA,"SUPPRF03456"
"1",1695412473020,"22/09/2023 19:54:33",1695398073020,-4,"22/09/2023 11:54:33",142855,8,"task-hbx7",NA,31802022,9405789,NA,"complete",NA,"650db35dc9912255c6d5f470","computer","Desktop or Laptop","Windows 10","Chrome 116.0.0.0","1536x960","766x789",NA,NA,0,"Task Introduction and Instructions (Clone)",9,"HIGJFAEBDC","Passed AC2","","Spreadsheet1",NA,"","","",NA,"5","BEGIN",NA,NA,NA,NA,NA,NA,0,NA,NA,NA,NA,"","",NA,"","",NA,"SUPPRF70079"
"2",1695412483012,"22/09/2023 19:54:43",1695398083012,-4,"22/09/2023 11:54:43",142855,8,"task-hbx7",NA,31802022,9405789,NA,"complete",NA,"650db35dc9912255c6d5f470","computer","Desktop or Laptop","Windows 10","Chrome 116.0.0.0","1536x960","766x789",NA,NA,0,"Task Introduction and Instructions (Clone)",9,"HIGJFAEBDC","Passed AC2","","Spreadsheet1",1,"Task Instructions","Screen 1","anr7sn",1,"continue","",9522.81399998808,9511.447,9522.81399998808,9522.81399998808,9511.447,9522.81399998808,1,9522.81399998808,0,0,NA,"Click To Continue","Continue Button",2,"object-1944","Task Instructions",NA,"SUPPRF70079"
"3",1695412490713,"22/09/2023 19:54:50",1695398090713,-4,"22/09/2023 11:54:50",142855,8,"task-hbx7",NA,31802022,9405789,NA,"complete",NA,"650db35dc9912255c6d5f470","computer","Desktop or Laptop","Windows 10","Chrome 116.0.0.0","1536x960","766x789",NA,NA,0,"Task Introduction and Instructions (Clone)",9,"HIGJFAEBDC","Passed AC2","","Spreadsheet1",1,"Task Instructions","Screen 2","ce2tc8",2,"continue","",7712.96700001192,7699.024,7712.96700001192,7712.96700001192,7699.024,7712.96700001192,1,7712.96700001192,0,0,NA,"Click To Continue","Continue Button",2,"object-7","Task Instructions",NA,"SUPPRF70079"
"4",1695412493736,"22/09/2023 19:54:53",1695398093736,-4,"22/09/2023 11:54:53",142855,8,"task-hbx7",NA,31802022,9405789,NA,"complete",NA,"650db35dc9912255c6d5f470","computer","Desktop or Laptop","Windows 10","Chrome 116.0.0.0","1536x960","766x789",NA,NA,0,"Task Introduction and Instructions (Clone)",9,"HIGJFAEBDC","Passed AC2","","Spreadsheet1",1,"Task Instructions","Screen 5","spepx9",3,"continue","",3036.24299996424,3026.231,3036.24299996424,3036.24299996424,3026.231,3036.24299996424,1,3036.24299996424,0,0,NA,"Click To Continue","Continue Button",2,"object-9","Task Instructions",NA,"SUPPRF70079"
"5",1695412496601,"22/09/2023 19:54:56",1695398096601,-4,"22/09/2023 11:54:56",142855,8,"task-hbx7",NA,31802022,9405789,NA,"complete",NA,"650db35dc9912255c6d5f470","computer","Desktop or Laptop","Windows 10","Chrome 116.0.0.0","1536x960","766x789",NA,NA,0,"Task Introduction and Instructions (Clone)",9,"HIGJFAEBDC","Passed AC2","","Spreadsheet1",1,"Task Instructions","Screen 9","8nvnao",4,"continue","",2874.81199997616,2860.182,2874.81199997616,2874.81199997616,2860.182,2874.81199997616,1,2874.81199997616,0,0,NA,"Click To Continue","Continue Button",2,"object-44","Task Instructions",NA,"SUPPRF70079"
"6",1695412496603,"22/09/2023 19:54:56",1695398096603,-4,"22/09/2023 11:54:56",142855,8,"task-hbx7",NA,31802022,9405789,NA,"complete",NA,"650db35dc9912255c6d5f470","computer","Desktop or Laptop","Windows 10","Chrome 116.0.0.0","1536x960","766x789",NA,NA,0,"Task Introduction and Instructions (Clone)",9,"HIGJFAEBDC","Passed AC2","","Spreadsheet1",NA,"","","",NA,"5","END",NA,NA,NA,NA,NA,NA,0,NA,NA,NA,NA,"","",NA,"","",NA,"SUPPRF70079"
"1",1695394912213,"22/09/2023 15:01:52",1695398512213,1,"22/09/2023 17:01:52",142855,8,"task-hbx7",NA,31802117,9405851,NA,"complete",NA,"650db754be48c9b042bdeb64","computer","Desktop or Laptop","Chromium OS 14541.0.0","Chrome 116.0.0.0","1920x1080","1920x1080",NA,NA,0,"Task Introduction and Instructions (Clone)",9,"JAIBHCGDFE","Passed AC2","","Spreadsheet1",NA,"","","",NA,"5","BEGIN",NA,NA,NA,NA,NA,NA,0,NA,NA,NA,NA,"","",NA,"","",NA,"SUPPRF52805"
"2",1695394916119,"22/09/2023 15:01:56",1695398516119,1,"22/09/2023 17:01:56",142855,8,"task-hbx7",NA,31802117,9405851,NA,"complete",NA,"650db754be48c9b042bdeb64","computer","Desktop or Laptop","Chromium OS 14541.0.0","Chrome 116.0.0.0","1920x1080","1920x1080",NA,NA,0,"Task Introduction and Instructions (Clone)",9,"JAIBHCGDFE","Passed AC2","","Spreadsheet1",1,"Task Instructions","Screen 1","anr7sn",1,"continue","",3732.846,3716.182,3732.846,3732.846,3716.182,3732.846,1,3732.846,0,0,NA,"Click To Continue","Continue Button",2,"object-1944","Task Instructions",NA,"SUPPRF52805"
"3",1695394921124,"22/09/2023 15:02:01",1695398521124,1,"22/09/2023 17:02:01",142855,8,"task-hbx7",NA,31802117,9405851,NA,"complete",NA,"650db754be48c9b042bdeb64","computer","Desktop or Laptop","Chromium OS 14541.0.0","Chrome 116.0.0.0","1920x1080","1920x1080",NA,NA,0,"Task Introduction and Instructions (Clone)",9,"JAIBHCGDFE","Passed AC2","","Spreadsheet1",1,"Task Instructions","Screen 2","ce2tc8",2,"continue","",5025.66699999925,5015.937,5025.66699999925,5025.66699999925,5015.937,5025.66699999925,1,5025.66699999925,0,0,NA,"Click To Continue","Continue Button",2,"object-7","Task Instructions",NA,"SUPPRF52805"
"4",1695394923738,"22/09/2023 15:02:03",1695398523738,1,"22/09/2023 17:02:03",142855,8,"task-hbx7",NA,31802117,9405851,NA,"complete",NA,"650db754be48c9b042bdeb64","computer","Desktop or Laptop","Chromium OS 14541.0.0","Chrome 116.0.0.0","1920x1080","1920x1080",NA,NA,0,"Task Introduction and Instructions (Clone)",9,"JAIBHCGDFE","Passed AC2","","Spreadsheet1",1,"Task Instructions","Screen 5","spepx9",3,"continue","",2624.53,2616.408,2624.53,2624.53,2616.408,2624.53,1,2624.53,0,0,NA,"Click To Continue","Continue Button",2,"object-9","Task Instructions",NA,"SUPPRF52805"
"5",1695394927024,"22/09/2023 15:02:07",1695398527024,1,"22/09/2023 17:02:07",142855,8,"task-hbx7",NA,31802117,9405851,NA,"complete",NA,"650db754be48c9b042bdeb64","computer","Desktop or Laptop","Chromium OS 14541.0.0","Chrome 116.0.0.0","1920x1080","1920x1080",NA,NA,0,"Task Introduction and Instructions (Clone)",9,"JAIBHCGDFE","Passed AC2","","Spreadsheet1",1,"Task Instructions","Screen 9","8nvnao",4,"continue","",3293.92199999888,3282.892,3293.92199999888,3293.92199999888,3282.892,3293.92199999888,1,3293.92199999888,0,0,NA,"Click To Continue","Continue Button",2,"object-44","Task Instructions",NA,"SUPPRF52805"
"6",1695394927034,"22/09/2023 15:02:07",1695398527034,1,"22/09/2023 17:02:07",142855,8,"task-hbx7",NA,31802117,9405851,NA,"complete",NA,"650db754be48c9b042bdeb64","computer","Desktop or Laptop","Chromium OS 14541.0.0","Chrome 116.0.0.0","1920x1080","1920x1080",NA,NA,0,"Task Introduction and Instructions (Clone)",9,"JAIBHCGDFE","Passed AC2","","Spreadsheet1",NA,"","","",NA,"5","END",NA,NA,NA,NA,NA,NA,0,NA,NA,NA,NA,"","",NA,"","",NA,"SUPPRF52805"
"1",1695395026334,"22/09/2023 15:03:46",1695398626334,1,"22/09/2023 17:03:46",142855,8,"task-hbx7",NA,31802140,9405872,NA,"complete",NA,"650db8dfbd57e6b103dd2ba7","computer","Desktop or Laptop","Mac OS 10.15.7","Chrome 115.0.0.0","1440x900","1440x815",NA,NA,0,"Task Introduction and Instructions (Clone)",9,"ABJCIDHEGF","Passed AC2","","Spreadsheet1",NA,"","","",NA,"5","BEGIN",NA,NA,NA,NA,NA,NA,0,NA,NA,NA,NA,"","",NA,"","",NA,"SUPPRF53772"
"2",1695395029337,"22/09/2023 15:03:49",1695398629337,1,"22/09/2023 17:03:49",142855,8,"task-hbx7",NA,31802140,9405872,NA,"complete",NA,"650db8dfbd57e6b103dd2ba7","computer","Desktop or Laptop","Mac OS 10.15.7","Chrome 115.0.0.0","1440x900","1440x815",NA,NA,0,"Task Introduction and Instructions (Clone)",9,"ABJCIDHEGF","Passed AC2","","Spreadsheet1",1,"Task Instructions","Screen 1","anr7sn",1,"continue","",2975.09299999702,2966.548,2975.09299999702,2975.09299999702,2966.548,2975.09299999702,1,2975.09299999702,0,0,NA,"Click To Continue","Continue Button",2,"object-1944","Task Instructions",NA,"SUPPRF53772"
"3",1695395032452,"22/09/2023 15:03:52",1695398632452,1,"22/09/2023 17:03:52",142855,8,"task-hbx7",NA,31802140,9405872,NA,"complete",NA,"650db8dfbd57e6b103dd2ba7","computer","Desktop or Laptop","Mac OS 10.15.7","Chrome 115.0.0.0","1440x900","1440x815",NA,NA,0,"Task Introduction and Instructions (Clone)",9,"ABJCIDHEGF","Passed AC2","","Spreadsheet1",1,"Task Instructions","Screen 2","ce2tc8",2,"continue","",3123.84500000149,3116.542,3123.84500000149,3123.84500000149,3116.542,3123.84500000149,1,3123.84500000149,0,0,NA,"Click To Continue","Continue Button",2,"object-7","Task Instructions",NA,"SUPPRF53772"
"4",1695395035369,"22/09/2023 15:03:55",1695398635369,1,"22/09/2023 17:03:55",142855,8,"task-hbx7",NA,31802140,9405872,NA,"complete",NA,"650db8dfbd57e6b103dd2ba7","computer","Desktop or Laptop","Mac OS 10.15.7","Chrome 115.0.0.0","1440x900","1440x815",NA,NA,0,"Task Introduction and Instructions (Clone)",9,"ABJCIDHEGF","Passed AC2","","Spreadsheet1",1,"Task Instructions","Screen 5","spepx9",3,"continue","",2924.50299999702,2916.55,2924.50299999702,2924.50299999702,2916.55,2924.50299999702,1,2924.50299999702,0,0,NA,"Click To Continue","Continue Button",2,"object-9","Task Instructions",NA,"SUPPRF53772"
"5",1695395037919,"22/09/2023 15:03:57",1695398637919,1,"22/09/2023 17:03:57",142855,8,"task-hbx7",NA,31802140,9405872,NA,"complete",NA,"650db8dfbd57e6b103dd2ba7","computer","Desktop or Laptop","Mac OS 10.15.7","Chrome 115.0.0.0","1440x900","1440x815",NA,NA,0,"Task Introduction and Instructions (Clone)",9,"ABJCIDHEGF","Passed AC2","","Spreadsheet1",1,"Task Instructions","Screen 9","8nvnao",4,"continue","",2558.153,2550.611,2558.153,2558.153,2550.611,2558.153,1,2558.153,0,0,NA,"Click To Continue","Continue Button",2,"object-44","Task Instructions",NA,"SUPPRF53772"
"6",1695395037927,"22/09/2023 15:03:57",1695398637927,1,"22/09/2023 17:03:57",142855,8,"task-hbx7",NA,31802140,9405872,NA,"complete",NA,"650db8dfbd57e6b103dd2ba7","computer","Desktop or Laptop","Mac OS 10.15.7","Chrome 115.0.0.0","1440x900","1440x815",NA,NA,0,"Task Introduction and Instructions (Clone)",9,"ABJCIDHEGF","Passed AC2","","Spreadsheet1",NA,"","","",NA,"5","END",NA,NA,NA,NA,NA,NA,0,NA,NA,NA,NA,"","",NA,"","",NA,"SUPPRF53772"
"1",1695395770095,"22/09/2023 15:16:10",1695399370095,1,"22/09/2023 17:16:10",142855,8,"task-hbx7",NA,31802314,9405750,NA,"complete",NA,"650db0cc76373c52cebbedd2","computer","Desktop or Laptop","Windows 10","Chrome 117.0.0.0","1366x768","1366x651",NA,NA,0,"Task Introduction and Instructions (Clone)",9,"BCADJEIFHG","Passed AC2","","Spreadsheet1",NA,"","","",NA,"5","BEGIN",NA,NA,NA,NA,NA,NA,0,NA,NA,NA,NA,"","",NA,"","",NA,"SUPPRF28732"
"2",1695395778276,"22/09/2023 15:16:18",1695399378276,1,"22/09/2023 17:16:18",142855,8,"task-hbx7",NA,31802314,9405750,NA,"complete",NA,"650db0cc76373c52cebbedd2","computer","Desktop or Laptop","Windows 10","Chrome 117.0.0.0","1366x768","1366x651",NA,NA,0,"Task Introduction and Instructions (Clone)",9,"BCADJEIFHG","Passed AC2","","Spreadsheet1",1,"Task Instructions","Screen 1","anr7sn",1,"continue","",8073.02800019073,8067.337,8073.02800019073,8073.02800019073,8067.337,8073.02800019073,1,8073.02800019073,0,0,NA,"Click To Continue","Continue Button",2,"object-1944","Task Instructions",NA,"SUPPRF28732"
"3",1695395786285,"22/09/2023 15:16:26",1695399386285,1,"22/09/2023 17:16:26",142855,8,"task-hbx7",NA,31802314,9405750,NA,"complete",NA,"650db0cc76373c52cebbedd2","computer","Desktop or Laptop","Windows 10","Chrome 117.0.0.0","1366x768","1366x651",NA,NA,0,"Task Introduction and Instructions (Clone)",9,"BCADJEIFHG","Passed AC2","","Spreadsheet1",1,"Task Instructions","Screen 2","ce2tc8",2,"continue","",8015.539,7998.875,8015.539,8015.539,7998.875,8015.539,1,8015.539,0,0,NA,"Click To Continue","Continue Button",2,"object-7","Task Instructions",NA,"SUPPRF28732"
"4",1695395790835,"22/09/2023 15:16:30",1695399390835,1,"22/09/2023 17:16:30",142855,8,"task-hbx7",NA,31802314,9405750,NA,"complete",NA,"650db0cc76373c52cebbedd2","computer","Desktop or Laptop","Windows 10","Chrome 117.0.0.0","1366x768","1366x651",NA,NA,0,"Task Introduction and Instructions (Clone)",9,"BCADJEIFHG","Passed AC2","","Spreadsheet1",1,"Task Instructions","Screen 5","spepx9",3,"continue","",4565.971,4549.532,4565.971,4565.971,4549.532,4565.971,1,4565.971,0,0,NA,"Click To Continue","Continue Button",2,"object-9","Task Instructions",NA,"SUPPRF28732"
"5",1695395895389,"22/09/2023 15:18:15",1695399495389,1,"22/09/2023 17:18:15",142855,8,"task-hbx7",NA,31802314,9405750,NA,"complete",NA,"650db0cc76373c52cebbedd2","computer","Desktop or Laptop","Windows 10","Chrome 117.0.0.0","1366x768","1366x651",NA,NA,0,"Task Introduction and Instructions (Clone)",9,"BCADJEIFHG","Passed AC2","","Spreadsheet1",1,"Task Instructions","Screen 9","8nvnao",4,"continue","",104571.183999809,104561.96,104571.183999809,104571.183999809,104561.96,104571.183999809,1,104571.183999809,0,0,NA,"Click To Continue","Continue Button",2,"object-44","Task Instructions",NA,"SUPPRF28732"
"6",1695395895417,"22/09/2023 15:18:15",1695399495417,1,"22/09/2023 17:18:15",142855,8,"task-hbx7",NA,31802314,9405750,NA,"complete",NA,"650db0cc76373c52cebbedd2","computer","Desktop or Laptop","Windows 10","Chrome 117.0.0.0","1366x768","1366x651",NA,NA,0,"Task Introduction and Instructions (Clone)",9,"BCADJEIFHG","Passed AC2","","Spreadsheet1",NA,"","","",NA,"5","END",NA,NA,NA,NA,NA,NA,0,NA,NA,NA,NA,"","",NA,"","",NA,"SUPPRF28732"
"1",1695398189645,"22/09/2023 15:56:29",1695401789645,1,"22/09/2023 17:56:29",142855,8,"task-hbx7",NA,31802875,9406010,NA,"complete",NA,"650dc440bdb936ecb2516b0d","computer","Desktop or Laptop","Windows 10","Chrome 116.0.0.0","1920x1080","1920x931",NA,NA,0,"Task Introduction and Instructions (Clone)",9,"DECFBGAHJI","Passed AC2","","Spreadsheet1",NA,"","","",NA,"5","BEGIN",NA,NA,NA,NA,NA,NA,0,NA,NA,NA,NA,"","",NA,"","",NA,"SUPPRF73370"
"2",1695398192679,"22/09/2023 15:56:32",1695401792679,1,"22/09/2023 17:56:32",142855,8,"task-hbx7",NA,31802875,9406010,NA,"complete",NA,"650dc440bdb936ecb2516b0d","computer","Desktop or Laptop","Windows 10","Chrome 116.0.0.0","1920x1080","1920x931",NA,NA,0,"Task Introduction and Instructions (Clone)",9,"DECFBGAHJI","Passed AC2","","Spreadsheet1",1,"Task Instructions","Screen 1","anr7sn",1,"continue","",2939.77899999981,2937.356,2939.77899999981,2939.77899999981,2937.356,2939.77899999981,1,2939.77899999981,0,0,NA,"Click To Continue","Continue Button",2,"object-1944","Task Instructions",NA,"SUPPRF73370"
"3",1695398201270,"22/09/2023 15:56:41",1695401801270,1,"22/09/2023 17:56:41",142855,8,"task-hbx7",NA,31802875,9406010,NA,"complete",NA,"650dc440bdb936ecb2516b0d","computer","Desktop or Laptop","Windows 10","Chrome 116.0.0.0","1920x1080","1920x931",NA,NA,0,"Task Introduction and Instructions (Clone)",9,"DECFBGAHJI","Passed AC2","","Spreadsheet1",1,"Task Instructions","Screen 2","ce2tc8",2,"continue","",8593.52299999991,8589.85,8593.52299999991,8593.52299999991,8589.85,8593.52299999991,1,8593.52299999991,0,0,NA,"Click To Continue","Continue Button",2,"object-7","Task Instructions",NA,"SUPPRF73370"
"4",1695398204527,"22/09/2023 15:56:44",1695401804527,1,"22/09/2023 17:56:44",142855,8,"task-hbx7",NA,31802875,9406010,NA,"complete",NA,"650dc440bdb936ecb2516b0d","computer","Desktop or Laptop","Windows 10","Chrome 116.0.0.0","1920x1080","1920x931",NA,NA,0,"Task Introduction and Instructions (Clone)",9,"DECFBGAHJI","Passed AC2","","Spreadsheet1",1,"Task Instructions","Screen 5","spepx9",3,"continue","",3260.47299999972,3256.778,3260.47299999972,3260.47299999972,3256.778,3260.47299999972,1,3260.47299999972,0,0,NA,"Click To Continue","Continue Button",2,"object-9","Task Instructions",NA,"SUPPRF73370"
"5",1695398207714,"22/09/2023 15:56:47",1695401807714,1,"22/09/2023 17:56:47",142855,8,"task-hbx7",NA,31802875,9406010,NA,"complete",NA,"650dc440bdb936ecb2516b0d","computer","Desktop or Laptop","Windows 10","Chrome 116.0.0.0","1920x1080","1920x931",NA,NA,0,"Task Introduction and Instructions (Clone)",9,"DECFBGAHJI","Passed AC2","","Spreadsheet1",1,"Task Instructions","Screen 9","8nvnao",4,"continue","",3191.39499999991,3187.341,3191.39499999991,3191.39499999991,3187.341,3191.39499999991,1,3191.39499999991,0,0,NA,"Click To Continue","Continue Button",2,"object-44","Task Instructions",NA,"SUPPRF73370"
"6",1695398207715,"22/09/2023 15:56:47",1695401807715,1,"22/09/2023 17:56:47",142855,8,"task-hbx7",NA,31802875,9406010,NA,"complete",NA,"650dc440bdb936ecb2516b0d","computer","Desktop or Laptop","Windows 10","Chrome 116.0.0.0","1920x1080","1920x931",NA,NA,0,"Task Introduction and Instructions (Clone)",9,"DECFBGAHJI","Passed AC2","","Spreadsheet1",NA,"","","",NA,"5","END",NA,NA,NA,NA,NA,NA,0,NA,NA,NA,NA,"","",NA,"","",NA,"SUPPRF73370"
"1",1695417943176,"22/09/2023 21:25:43",1695403543176,-4,"22/09/2023 13:25:43",142855,8,"task-hbx7",NA,31803222,9406082,NA,"complete",NA,"650dcb5ad1890541d46f3f47","computer","Desktop or Laptop","Windows 10","Chrome 115.0.0.0","1920x1080","1920x923",NA,NA,0,"Task Introduction and Instructions (Clone)",9,"FGEHDICJBA","Passed AC2","","Spreadsheet1",NA,"","","",NA,"5","BEGIN",NA,NA,NA,NA,NA,NA,0,NA,NA,NA,NA,"","",NA,"","",NA,"SUPPRF52689"
"2",1695417946472,"22/09/2023 21:25:46",1695403546472,-4,"22/09/2023 13:25:46",142855,8,"task-hbx7",NA,31803222,9406082,NA,"complete",NA,"650dcb5ad1890541d46f3f47","computer","Desktop or Laptop","Windows 10","Chrome 115.0.0.0","1920x1080","1920x923",NA,NA,0,"Task Introduction and Instructions (Clone)",9,"FGEHDICJBA","Passed AC2","","Spreadsheet1",1,"Task Instructions","Screen 1","anr7sn",1,"continue","",2973.65899980926,2969.496,2973.65899980926,2973.65899980926,2969.496,2973.65899980926,1,2973.65899980926,0,0,NA,"Click To Continue","Continue Button",2,"object-1944","Task Instructions",NA,"SUPPRF52689"
"3",1695417952308,"22/09/2023 21:25:52",1695403552308,-4,"22/09/2023 13:25:52",142855,8,"task-hbx7",NA,31803222,9406082,NA,"complete",NA,"650dcb5ad1890541d46f3f47","computer","Desktop or Laptop","Windows 10","Chrome 115.0.0.0","1920x1080","1920x923",NA,NA,0,"Task Introduction and Instructions (Clone)",9,"FGEHDICJBA","Passed AC2","","Spreadsheet1",1,"Task Instructions","Screen 2","ce2tc8",2,"continue","",5839.131,5822.448,5839.131,5839.131,5822.448,5839.131,1,5839.131,0,0,NA,"Click To Continue","Continue Button",2,"object-7","Task Instructions",NA,"SUPPRF52689"
"4",1695417955660,"22/09/2023 21:25:55",1695403555660,-4,"22/09/2023 13:25:55",142855,8,"task-hbx7",NA,31803222,9406082,NA,"complete",NA,"650dcb5ad1890541d46f3f47","computer","Desktop or Laptop","Windows 10","Chrome 115.0.0.0","1920x1080","1920x923",NA,NA,0,"Task Introduction and Instructions (Clone)",9,"FGEHDICJBA","Passed AC2","","Spreadsheet1",1,"Task Instructions","Screen 5","spepx9",3,"continue","",3370.097,3353.41,3370.097,3370.097,3353.41,3370.097,1,3370.097,0,0,NA,"Click To Continue","Continue Button",2,"object-9","Task Instructions",NA,"SUPPRF52689"
"5",1695417995260,"22/09/2023 21:26:35",1695403595260,-4,"22/09/2023 13:26:35",142855,8,"task-hbx7",NA,31803222,9406082,NA,"complete",NA,"650dcb5ad1890541d46f3f47","computer","Desktop or Laptop","Windows 10","Chrome 115.0.0.0","1920x1080","1920x923",NA,NA,0,"Task Introduction and Instructions (Clone)",9,"FGEHDICJBA","Passed AC2","","Spreadsheet1",1,"Task Instructions","Screen 9","8nvnao",4,"continue","",39615.8049998093,39606.337,39615.8049998093,39615.8049998093,39606.337,39615.8049998093,1,39615.8049998093,0,0,NA,"Click To Continue","Continue Button",2,"object-44","Task Instructions",NA,"SUPPRF52689"
"6",1695417995263,"22/09/2023 21:26:35",1695403595263,-4,"22/09/2023 13:26:35",142855,8,"task-hbx7",NA,31803222,9406082,NA,"complete",NA,"650dcb5ad1890541d46f3f47","computer","Desktop or Laptop","Windows 10","Chrome 115.0.0.0","1920x1080","1920x923",NA,NA,0,"Task Introduction and Instructions (Clone)",9,"FGEHDICJBA","Passed AC2","","Spreadsheet1",NA,"","","",NA,"5","END",NA,NA,NA,NA,NA,NA,0,NA,NA,NA,NA,"","",NA,"","",NA,"SUPPRF52689"
"1",1695404068614,"22/09/2023 17:34:28",1695407668614,1,"22/09/2023 19:34:28",142855,8,"task-hbx7",NA,31804072,9406210,NA,"complete",NA,"650dd2608717d9d6705b7808","computer","Desktop or Laptop","Mac OS 10.15.7","Chrome 116.0.0.0","1280x800","1280x591",NA,NA,0,"Task Introduction and Instructions (Clone)",9,"HIGJFAEBDC","Failed AC2","Passed AC1","Spreadsheet1",NA,"","","",NA,"5","BEGIN",NA,NA,NA,NA,NA,NA,0,NA,NA,NA,NA,"","",NA,"","",NA,"SUPPRF90577"
"2",1695404074044,"22/09/2023 17:34:34",1695407674044,1,"22/09/2023 19:34:34",142855,8,"task-hbx7",NA,31804072,9406210,NA,"complete",NA,"650dd2608717d9d6705b7808","computer","Desktop or Laptop","Mac OS 10.15.7","Chrome 116.0.0.0","1280x800","1280x591",NA,NA,0,"Task Introduction and Instructions (Clone)",9,"HIGJFAEBDC","Failed AC2","Passed AC1","Spreadsheet1",1,"Task Instructions","Screen 1","anr7sn",1,"continue","",5337.652,5330.621,5337.652,5337.652,5330.621,5337.652,1,5337.652,0,0,NA,"Click To Continue","Continue Button",2,"object-1944","Task Instructions",NA,"SUPPRF90577"
"3",1695404346512,"22/09/2023 17:39:06",1695407946512,1,"22/09/2023 19:39:06",142855,8,"task-hbx7",NA,31804072,9406210,NA,"complete",NA,"650dd2608717d9d6705b7808","computer","Desktop or Laptop","Mac OS 10.15.7","Chrome 116.0.0.0","1280x800","1280x591",NA,NA,0,"Task Introduction and Instructions (Clone)",9,"HIGJFAEBDC","Failed AC2","Passed AC1","Spreadsheet1",1,"Task Instructions","Screen 2","ce2tc8",2,"continue","",272482.531,272472.621,272482.531,272482.531,272472.621,272482.531,1,272482.531,0,0,NA,"Click To Continue","Continue Button",2,"object-7","Task Instructions",NA,"SUPPRF90577"
"4",1695404350596,"22/09/2023 17:39:10",1695407950596,1,"22/09/2023 19:39:10",142855,8,"task-hbx7",NA,31804072,9406210,NA,"complete",NA,"650dd2608717d9d6705b7808","computer","Desktop or Laptop","Mac OS 10.15.7","Chrome 116.0.0.0","1280x800","1280x591",NA,NA,0,"Task Introduction and Instructions (Clone)",9,"HIGJFAEBDC","Failed AC2","Passed AC1","Spreadsheet1",1,"Task Instructions","Screen 5","spepx9",3,"continue","",4094.81000000035,4084.58399999997,4094.81000000035,4094.81000000035,4084.58399999997,4094.81000000035,1,4094.81000000035,0,0,NA,"Click To Continue","Continue Button",2,"object-9","Task Instructions",NA,"SUPPRF90577"
"5",1695404353930,"22/09/2023 17:39:13",1695407953930,1,"22/09/2023 19:39:13",142855,8,"task-hbx7",NA,31804072,9406210,NA,"complete",NA,"650dd2608717d9d6705b7808","computer","Desktop or Laptop","Mac OS 10.15.7","Chrome 116.0.0.0","1280x800","1280x591",NA,NA,0,"Task Introduction and Instructions (Clone)",9,"HIGJFAEBDC","Failed AC2","Passed AC1","Spreadsheet1",1,"Task Instructions","Screen 9","8nvnao",4,"continue","",3344.42600000056,3338.03700000001,3344.42600000056,3344.42600000056,3338.03700000001,3344.42600000056,1,3344.42600000056,0,0,NA,"Click To Continue","Continue Button",2,"object-44","Task Instructions",NA,"SUPPRF90577"
"6",1695404353933,"22/09/2023 17:39:13",1695407953933,1,"22/09/2023 19:39:13",142855,8,"task-hbx7",NA,31804072,9406210,NA,"complete",NA,"650dd2608717d9d6705b7808","computer","Desktop or Laptop","Mac OS 10.15.7","Chrome 116.0.0.0","1280x800","1280x591",NA,NA,0,"Task Introduction and Instructions (Clone)",9,"HIGJFAEBDC","Failed AC2","Passed AC1","Spreadsheet1",NA,"","","",NA,"5","END",NA,NA,NA,NA,NA,NA,0,NA,NA,NA,NA,"","",NA,"","",NA,"SUPPRF90577"
"1",1695423735109,"22/09/2023 23:02:15",1695409335109,-4,"22/09/2023 15:02:15",142855,8,"task-hbx7",NA,31804364,9406139,NA,"rejected - time limit reached",NA,"650dcd885cb569ea73e89580","computer","Desktop or Laptop","Windows 10","Chrome 116.0.0.0","1920x1080","1920x969",NA,NA,0,"Task Introduction and Instructions (Clone)",9,"IJHAGBFCED","Passed AC2","","Spreadsheet1",NA,"","","",NA,"5","BEGIN",NA,NA,NA,NA,NA,NA,0,NA,NA,NA,NA,"","",NA,"","",NA,"SUPPRF84235"
"2",1695423738038,"22/09/2023 23:02:18",1695409338038,-4,"22/09/2023 15:02:18",142855,8,"task-hbx7",NA,31804364,9406139,NA,"rejected - time limit reached",NA,"650dcd885cb569ea73e89580","computer","Desktop or Laptop","Windows 10","Chrome 116.0.0.0","1920x1080","1920x969",NA,NA,0,"Task Introduction and Instructions (Clone)",9,"IJHAGBFCED","Passed AC2","","Spreadsheet1",1,"Task Instructions","Screen 1","anr7sn",1,"continue","",2755.50599998808,2750.089,2755.50599998808,2755.50599998808,2750.089,2755.50599998808,1,2755.50599998808,0,0,NA,"Click To Continue","Continue Button",2,"object-1944","Task Instructions",NA,"SUPPRF84235"
"3",1695423740851,"22/09/2023 23:02:20",1695409340851,-4,"22/09/2023 15:02:20",142855,8,"task-hbx7",NA,31804364,9406139,NA,"rejected - time limit reached",NA,"650dcd885cb569ea73e89580","computer","Desktop or Laptop","Windows 10","Chrome 116.0.0.0","1920x1080","1920x969",NA,NA,0,"Task Introduction and Instructions (Clone)",9,"IJHAGBFCED","Passed AC2","","Spreadsheet1",1,"Task Instructions","Screen 2","ce2tc8",2,"continue","",2817.717,2812.439,2817.717,2817.717,2812.439,2817.717,1,2817.717,0,0,NA,"Click To Continue","Continue Button",2,"object-7","Task Instructions",NA,"SUPPRF84235"
"4",1695423768913,"22/09/2023 23:02:48",1695409368913,-4,"22/09/2023 15:02:48",142855,8,"task-hbx7",NA,31804364,9406139,NA,"rejected - time limit reached",NA,"650dcd885cb569ea73e89580","computer","Desktop or Laptop","Windows 10","Chrome 116.0.0.0","1920x1080","1920x969",NA,NA,0,"Task Introduction and Instructions (Clone)",9,"IJHAGBFCED","Passed AC2","","Spreadsheet1",1,"Task Instructions","Screen 5","spepx9",3,"continue","",28067.278,28062.534,28067.278,28067.278,28062.534,28067.278,1,28067.278,0,0,NA,"Click To Continue","Continue Button",2,"object-9","Task Instructions",NA,"SUPPRF84235"
"5",1695423771787,"22/09/2023 23:02:51",1695409371787,-4,"22/09/2023 15:02:51",142855,8,"task-hbx7",NA,31804364,9406139,NA,"rejected - time limit reached",NA,"650dcd885cb569ea73e89580","computer","Desktop or Laptop","Windows 10","Chrome 116.0.0.0","1920x1080","1920x969",NA,NA,0,"Task Introduction and Instructions (Clone)",9,"IJHAGBFCED","Passed AC2","","Spreadsheet1",1,"Task Instructions","Screen 9","8nvnao",4,"continue","",2878.94399998808,2875.06,2878.94399998808,2878.94399998808,2875.06,2878.94399998808,1,2878.94399998808,0,0,NA,"Click To Continue","Continue Button",2,"object-44","Task Instructions",NA,"SUPPRF84235"
"6",1695423771790,"22/09/2023 23:02:51",1695409371790,-4,"22/09/2023 15:02:51",142855,8,"task-hbx7",NA,31804364,9406139,NA,"rejected - time limit reached",NA,"650dcd885cb569ea73e89580","computer","Desktop or Laptop","Windows 10","Chrome 116.0.0.0","1920x1080","1920x969",NA,NA,0,"Task Introduction and Instructions (Clone)",9,"IJHAGBFCED","Passed AC2","","Spreadsheet1",NA,"","","",NA,"5","END",NA,NA,NA,NA,NA,NA,0,NA,NA,NA,NA,"","",NA,"","",NA,"SUPPRF84235"
"1",1695406877846,"22/09/2023 18:21:17",1695410477846,1,"22/09/2023 20:21:17",142855,8,"task-hbx7",NA,31804562,9406464,NA,"complete",NA,"650de5275bf6e329535b77f9","computer","Desktop or Laptop","Windows 10","Chrome 116.0.0.0","2048x1152","2048x1035",NA,NA,0,"Task Introduction and Instructions (Clone)",9,"JAIBHCGDFE","Passed AC2","","Spreadsheet1",NA,"","","",NA,"5","BEGIN",NA,NA,NA,NA,NA,NA,0,NA,NA,NA,NA,"","",NA,"","",NA,"SUPPRF45811"
"2",1695406892765,"22/09/2023 18:21:32",1695410492765,1,"22/09/2023 20:21:32",142855,8,"task-hbx7",NA,31804562,9406464,NA,"complete",NA,"650de5275bf6e329535b77f9","computer","Desktop or Laptop","Windows 10","Chrome 116.0.0.0","2048x1152","2048x1035",NA,NA,0,"Task Introduction and Instructions (Clone)",9,"JAIBHCGDFE","Passed AC2","","Spreadsheet1",1,"Task Instructions","Screen 1","anr7sn",1,"continue","",14866.488,14849.683,14866.488,14866.488,14849.683,14866.488,1,14866.488,0,0,NA,"Click To Continue","Continue Button",2,"object-1944","Task Instructions",NA,"SUPPRF45811"
"3",1695406896747,"22/09/2023 18:21:36",1695410496747,1,"22/09/2023 20:21:36",142855,8,"task-hbx7",NA,31804562,9406464,NA,"complete",NA,"650de5275bf6e329535b77f9","computer","Desktop or Laptop","Windows 10","Chrome 116.0.0.0","2048x1152","2048x1035",NA,NA,0,"Task Introduction and Instructions (Clone)",9,"JAIBHCGDFE","Passed AC2","","Spreadsheet1",1,"Task Instructions","Screen 2","ce2tc8",2,"continue","",3999.778,3983.09,3999.778,3999.778,3983.09,3999.778,1,3999.778,0,0,NA,"Click To Continue","Continue Button",2,"object-7","Task Instructions",NA,"SUPPRF45811"
"4",1695406899499,"22/09/2023 18:21:39",1695410499499,1,"22/09/2023 20:21:39",142855,8,"task-hbx7",NA,31804562,9406464,NA,"complete",NA,"650de5275bf6e329535b77f9","computer","Desktop or Laptop","Windows 10","Chrome 116.0.0.0","2048x1152","2048x1035",NA,NA,0,"Task Introduction and Instructions (Clone)",9,"JAIBHCGDFE","Passed AC2","","Spreadsheet1",1,"Task Instructions","Screen 5","spepx9",3,"continue","",2768.62199999404,2766.546,2768.62199999404,2768.62199999404,2766.546,2768.62199999404,1,2768.62199999404,0,0,NA,"Click To Continue","Continue Button",2,"object-9","Task Instructions",NA,"SUPPRF45811"
"5",1695406902399,"22/09/2023 18:21:42",1695410502399,1,"22/09/2023 20:21:42",142855,8,"task-hbx7",NA,31804562,9406464,NA,"complete",NA,"650de5275bf6e329535b77f9","computer","Desktop or Laptop","Windows 10","Chrome 116.0.0.0","2048x1152","2048x1035",NA,NA,0,"Task Introduction and Instructions (Clone)",9,"JAIBHCGDFE","Passed AC2","","Spreadsheet1",1,"Task Instructions","Screen 9","8nvnao",4,"continue","",2901.57599999404,2899.915,2901.57599999404,2901.57599999404,2899.915,2901.57599999404,1,2901.57599999404,0,0,NA,"Click To Continue","Continue Button",2,"object-44","Task Instructions",NA,"SUPPRF45811"
"6",1695406902400,"22/09/2023 18:21:42",1695410502400,1,"22/09/2023 20:21:42",142855,8,"task-hbx7",NA,31804562,9406464,NA,"complete",NA,"650de5275bf6e329535b77f9","computer","Desktop or Laptop","Windows 10","Chrome 116.0.0.0","2048x1152","2048x1035",NA,NA,0,"Task Introduction and Instructions (Clone)",9,"JAIBHCGDFE","Passed AC2","","Spreadsheet1",NA,"","","",NA,"5","END",NA,NA,NA,NA,NA,NA,0,NA,NA,NA,NA,"","",NA,"","",NA,"SUPPRF45811"
"1",1695431901946,"23/09/2023 01:18:21",1695417501946,-4,"22/09/2023 17:18:21",142855,8,"task-hbx7",NA,31805618,9406799,NA,"complete",NA,"650df4473a94976e3ea62f56","computer","Desktop or Laptop","Windows 10","Chrome 116.0.0.0","1707x960","1707x882",NA,NA,0,"Task Introduction and Instructions (Clone)",9,"BCADJEIFHG","Passed AC2","","Spreadsheet1",NA,"","","",NA,"5","BEGIN",NA,NA,NA,NA,NA,NA,0,NA,NA,NA,NA,"","",NA,"","",NA,"SUPPRF91520"
"2",1695431904850,"23/09/2023 01:18:24",1695417504850,-4,"22/09/2023 17:18:24",142855,8,"task-hbx7",NA,31805618,9406799,NA,"complete",NA,"650df4473a94976e3ea62f56","computer","Desktop or Laptop","Windows 10","Chrome 116.0.0.0","1707x960","1707x882",NA,NA,0,"Task Introduction and Instructions (Clone)",9,"BCADJEIFHG","Passed AC2","","Spreadsheet1",1,"Task Instructions","Screen 1","anr7sn",1,"continue","",2876.75,2870.682,2876.75,2876.75,2870.682,2876.75,1,2876.75,0,0,NA,"Click To Continue","Continue Button",2,"object-1944","Task Instructions",NA,"SUPPRF91520"
"3",1695431909315,"23/09/2023 01:18:29",1695417509315,-4,"22/09/2023 17:18:29",142855,8,"task-hbx7",NA,31805618,9406799,NA,"complete",NA,"650df4473a94976e3ea62f56","computer","Desktop or Laptop","Windows 10","Chrome 116.0.0.0","1707x960","1707x882",NA,NA,0,"Task Introduction and Instructions (Clone)",9,"BCADJEIFHG","Passed AC2","","Spreadsheet1",1,"Task Instructions","Screen 2","ce2tc8",2,"continue","",4471.11500002384,4467.115,4471.11500002384,4471.11500002384,4467.115,4471.11500002384,1,4471.11500002384,0,0,NA,"Click To Continue","Continue Button",2,"object-7","Task Instructions",NA,"SUPPRF91520"
"4",1695431912035,"23/09/2023 01:18:32",1695417512035,-4,"22/09/2023 17:18:32",142855,8,"task-hbx7",NA,31805618,9406799,NA,"complete",NA,"650df4473a94976e3ea62f56","computer","Desktop or Laptop","Windows 10","Chrome 116.0.0.0","1707x960","1707x882",NA,NA,0,"Task Introduction and Instructions (Clone)",9,"BCADJEIFHG","Passed AC2","","Spreadsheet1",1,"Task Instructions","Screen 5","spepx9",3,"continue","",2724.30000009537,2718.859,2724.30000009537,2724.30000009537,2718.859,2724.30000009537,1,2724.30000009537,0,0,NA,"Click To Continue","Continue Button",2,"object-9","Task Instructions",NA,"SUPPRF91520"
"5",1695431914675,"23/09/2023 01:18:34",1695417514675,-4,"22/09/2023 17:18:34",142855,8,"task-hbx7",NA,31805618,9406799,NA,"complete",NA,"650df4473a94976e3ea62f56","computer","Desktop or Laptop","Windows 10","Chrome 116.0.0.0","1707x960","1707x882",NA,NA,0,"Task Introduction and Instructions (Clone)",9,"BCADJEIFHG","Passed AC2","","Spreadsheet1",1,"Task Instructions","Screen 9","8nvnao",4,"continue","",2645.34100007152,2639.969,2645.34100007152,2645.34100007152,2639.969,2645.34100007152,1,2645.34100007152,0,0,NA,"Click To Continue","Continue Button",2,"object-44","Task Instructions",NA,"SUPPRF91520"
"6",1695431914676,"23/09/2023 01:18:34",1695417514676,-4,"22/09/2023 17:18:34",142855,8,"task-hbx7",NA,31805618,9406799,NA,"complete",NA,"650df4473a94976e3ea62f56","computer","Desktop or Laptop","Windows 10","Chrome 116.0.0.0","1707x960","1707x882",NA,NA,0,"Task Introduction and Instructions (Clone)",9,"BCADJEIFHG","Passed AC2","","Spreadsheet1",NA,"","","",NA,"5","END",NA,NA,NA,NA,NA,NA,0,NA,NA,NA,NA,"","",NA,"","",NA,"SUPPRF91520"
"1",1695414674868,"22/09/2023 20:31:14",1695418274868,1,"22/09/2023 22:31:14",142855,8,"task-hbx7",NA,31805706,9406941,NA,"complete",NA,"650e03f0847da1be83e1cc50","computer","Desktop or Laptop","Chromium OS 14541.0.0","Chrome 116.0.0.0","1536x864","1536x740",NA,NA,0,"Task Introduction and Instructions (Clone)",9,"CDBEAFJGIH","Passed AC2","","Spreadsheet1",NA,"","","",NA,"5","BEGIN",NA,NA,NA,NA,NA,NA,0,NA,NA,NA,NA,"","",NA,"","",NA,"SUPPRF73277"
"2",1695414678471,"22/09/2023 20:31:18",1695418278471,1,"22/09/2023 22:31:18",142855,8,"task-hbx7",NA,31805706,9406941,NA,"complete",NA,"650e03f0847da1be83e1cc50","computer","Desktop or Laptop","Chromium OS 14541.0.0","Chrome 116.0.0.0","1536x864","1536x740",NA,NA,0,"Task Introduction and Instructions (Clone)",9,"CDBEAFJGIH","Passed AC2","","Spreadsheet1",1,"Task Instructions","Screen 1","anr7sn",1,"continue","",3504.52099999702,3497.097,3504.52099999702,3504.52099999702,3497.097,3504.52099999702,1,3504.52099999702,0,0,NA,"Click To Continue","Continue Button",2,"object-1944","Task Instructions",NA,"SUPPRF73277"
"3",1695414682037,"22/09/2023 20:31:22",1695418282037,1,"22/09/2023 22:31:22",142855,8,"task-hbx7",NA,31805706,9406941,NA,"complete",NA,"650e03f0847da1be83e1cc50","computer","Desktop or Laptop","Chromium OS 14541.0.0","Chrome 116.0.0.0","1536x864","1536x740",NA,NA,0,"Task Introduction and Instructions (Clone)",9,"CDBEAFJGIH","Passed AC2","","Spreadsheet1",1,"Task Instructions","Screen 2","ce2tc8",2,"continue","",3574.02399999851,3563.73,3574.02399999851,3574.02399999851,3563.73,3574.02399999851,1,3574.02399999851,0,0,NA,"Click To Continue","Continue Button",2,"object-7","Task Instructions",NA,"SUPPRF73277"
"4",1695414685093,"22/09/2023 20:31:25",1695418285093,1,"22/09/2023 22:31:25",142855,8,"task-hbx7",NA,31805706,9406941,NA,"complete",NA,"650e03f0847da1be83e1cc50","computer","Desktop or Laptop","Chromium OS 14541.0.0","Chrome 116.0.0.0","1536x864","1536x740",NA,NA,0,"Task Introduction and Instructions (Clone)",9,"CDBEAFJGIH","Passed AC2","","Spreadsheet1",1,"Task Instructions","Screen 5","spepx9",3,"continue","",3064.155,3047.503,3064.155,3064.155,3047.503,3064.155,1,3064.155,0,0,NA,"Click To Continue","Continue Button",2,"object-9","Task Instructions",NA,"SUPPRF73277"
"5",1695414688830,"22/09/2023 20:31:28",1695418288830,1,"22/09/2023 22:31:28",142855,8,"task-hbx7",NA,31805706,9406941,NA,"complete",NA,"650e03f0847da1be83e1cc50","computer","Desktop or Laptop","Chromium OS 14541.0.0","Chrome 116.0.0.0","1536x864","1536x740",NA,NA,0,"Task Introduction and Instructions (Clone)",9,"CDBEAFJGIH","Passed AC2","","Spreadsheet1",1,"Task Instructions","Screen 9","8nvnao",4,"continue","",3756.29099999851,3746.923,3756.29099999851,3756.29099999851,3746.923,3756.29099999851,1,3756.29099999851,0,0,NA,"Click To Continue","Continue Button",2,"object-44","Task Instructions",NA,"SUPPRF73277"
"6",1695414688834,"22/09/2023 20:31:28",1695418288834,1,"22/09/2023 22:31:28",142855,8,"task-hbx7",NA,31805706,9406941,NA,"complete",NA,"650e03f0847da1be83e1cc50","computer","Desktop or Laptop","Chromium OS 14541.0.0","Chrome 116.0.0.0","1536x864","1536x740",NA,NA,0,"Task Introduction and Instructions (Clone)",9,"CDBEAFJGIH","Passed AC2","","Spreadsheet1",NA,"","","",NA,"5","END",NA,NA,NA,NA,NA,NA,0,NA,NA,NA,NA,"","",NA,"","",NA,"SUPPRF73277"
"1",1695420571888,"22/09/2023 22:09:31",1695424171888,1,"23/09/2023 00:09:31",142855,8,"task-hbx7",NA,31806253,9407189,NA,"complete",NA,"650e18a1ab48a505321b07f2","computer","Desktop or Laptop","Windows 10","Chrome 116.0.0.0","1536x864","1522x739",NA,NA,0,"Task Introduction and Instructions (Clone)",9,"DECFBGAHJI","Passed AC2","","Spreadsheet1",NA,"","","",NA,"5","BEGIN",NA,NA,NA,NA,NA,NA,0,NA,NA,NA,NA,"","",NA,"","",NA,"SUPPRF96315"
"2",1695420576770,"22/09/2023 22:09:36",1695424176770,1,"23/09/2023 00:09:36",142855,8,"task-hbx7",NA,31806253,9407189,NA,"complete",NA,"650e18a1ab48a505321b07f2","computer","Desktop or Laptop","Windows 10","Chrome 116.0.0.0","1536x864","1522x739",NA,NA,0,"Task Introduction and Instructions (Clone)",9,"DECFBGAHJI","Passed AC2","","Spreadsheet1",1,"Task Instructions","Screen 1","anr7sn",1,"continue","",4771.779,4763.87,4771.779,4771.779,4763.87,4771.779,1,4771.779,0,0,NA,"Click To Continue","Continue Button",2,"object-1944","Task Instructions",NA,"SUPPRF96315"
"3",1695420586327,"22/09/2023 22:09:46",1695424186327,1,"23/09/2023 00:09:46",142855,8,"task-hbx7",NA,31806253,9407189,NA,"complete",NA,"650e18a1ab48a505321b07f2","computer","Desktop or Laptop","Windows 10","Chrome 116.0.0.0","1536x864","1522x739",NA,NA,0,"Task Introduction and Instructions (Clone)",9,"DECFBGAHJI","Passed AC2","","Spreadsheet1",1,"Task Instructions","Screen 2","ce2tc8",2,"continue","",9565.80899997616,9560.877,9565.80899997616,9565.80899997616,9560.877,9565.80899997616,1,9565.80899997616,0,0,NA,"Click To Continue","Continue Button",2,"object-7","Task Instructions",NA,"SUPPRF96315"
"4",1695420607580,"22/09/2023 22:10:07",1695424207580,1,"23/09/2023 00:10:07",142855,8,"task-hbx7",NA,31806253,9407189,NA,"complete",NA,"650e18a1ab48a505321b07f2","computer","Desktop or Laptop","Windows 10","Chrome 116.0.0.0","1536x864","1522x739",NA,NA,0,"Task Introduction and Instructions (Clone)",9,"DECFBGAHJI","Passed AC2","","Spreadsheet1",1,"Task Instructions","Screen 5","spepx9",3,"continue","",21258.032,21253.445,21258.032,21258.032,21253.445,21258.032,1,21258.032,0,0,NA,"Click To Continue","Continue Button",2,"object-9","Task Instructions",NA,"SUPPRF96315"
"5",1695420610581,"22/09/2023 22:10:10",1695424210581,1,"23/09/2023 00:10:10",142855,8,"task-hbx7",NA,31806253,9407189,NA,"complete",NA,"650e18a1ab48a505321b07f2","computer","Desktop or Laptop","Windows 10","Chrome 116.0.0.0","1536x864","1522x739",NA,NA,0,"Task Introduction and Instructions (Clone)",9,"DECFBGAHJI","Passed AC2","","Spreadsheet1",1,"Task Instructions","Screen 9","8nvnao",4,"continue","",3005.28700004768,2998.437,3005.28700004768,3005.28700004768,2998.437,3005.28700004768,1,3005.28700004768,0,0,NA,"Click To Continue","Continue Button",2,"object-44","Task Instructions",NA,"SUPPRF96315"
"6",1695420610586,"22/09/2023 22:10:10",1695424210586,1,"23/09/2023 00:10:10",142855,8,"task-hbx7",NA,31806253,9407189,NA,"complete",NA,"650e18a1ab48a505321b07f2","computer","Desktop or Laptop","Windows 10","Chrome 116.0.0.0","1536x864","1522x739",NA,NA,0,"Task Introduction and Instructions (Clone)",9,"DECFBGAHJI","Passed AC2","","Spreadsheet1",NA,"","","",NA,"5","END",NA,NA,NA,NA,NA,NA,0,NA,NA,NA,NA,"","",NA,"","",NA,"SUPPRF96315"
"1",1695426791989,"22/09/2023 23:53:11",1695430391989,1,"23/09/2023 01:53:11",142855,8,"task-hbx7",NA,31806534,9407261,NA,"complete",NA,"650e352abc32008f9b9b35e6","computer","Desktop or Laptop","Windows 10","Chrome 116.0.0.0","1536x864","1536x747",NA,NA,0,"Task Introduction and Instructions (Clone)",9,"EFDGCHBIAJ","Passed AC2","","Spreadsheet1",NA,"","","",NA,"5","BEGIN",NA,NA,NA,NA,NA,NA,0,NA,NA,NA,NA,"","",NA,"","",NA,"SUPPRF52248"
"2",1695426795484,"22/09/2023 23:53:15",1695430395484,1,"23/09/2023 01:53:15",142855,8,"task-hbx7",NA,31806534,9407261,NA,"complete",NA,"650e352abc32008f9b9b35e6","computer","Desktop or Laptop","Windows 10","Chrome 116.0.0.0","1536x864","1536x747",NA,NA,0,"Task Introduction and Instructions (Clone)",9,"EFDGCHBIAJ","Passed AC2","","Spreadsheet1",1,"Task Instructions","Screen 1","anr7sn",1,"continue","",3425.44699997616,3413.736,3425.44699997616,3425.44699997616,3413.736,3425.44699997616,1,3425.44699997616,0,0,NA,"Click To Continue","Continue Button",2,"object-1944","Task Instructions",NA,"SUPPRF52248"
"3",1695426799625,"22/09/2023 23:53:19",1695430399625,1,"23/09/2023 01:53:19",142855,8,"task-hbx7",NA,31806534,9407261,NA,"complete",NA,"650e352abc32008f9b9b35e6","computer","Desktop or Laptop","Windows 10","Chrome 116.0.0.0","1536x864","1536x747",NA,NA,0,"Task Introduction and Instructions (Clone)",9,"EFDGCHBIAJ","Passed AC2","","Spreadsheet1",1,"Task Instructions","Screen 2","ce2tc8",2,"continue","",4153.11100007153,4146.289,4153.11100007153,4153.11100007153,4146.289,4153.11100007153,1,4153.11100007153,0,0,NA,"Click To Continue","Continue Button",2,"object-7","Task Instructions",NA,"SUPPRF52248"
"4",1695426802280,"22/09/2023 23:53:22",1695430402280,1,"23/09/2023 01:53:22",142855,8,"task-hbx7",NA,31806534,9407261,NA,"complete",NA,"650e352abc32008f9b9b35e6","computer","Desktop or Laptop","Windows 10","Chrome 116.0.0.0","1536x864","1536x747",NA,NA,0,"Task Introduction and Instructions (Clone)",9,"EFDGCHBIAJ","Passed AC2","","Spreadsheet1",1,"Task Instructions","Screen 5","spepx9",3,"continue","",2661.92199997616,2648.085,2661.92199997616,2661.92199997616,2648.085,2661.92199997616,1,2661.92199997616,0,0,NA,"Click To Continue","Continue Button",2,"object-9","Task Instructions",NA,"SUPPRF52248"
"5",1695426805932,"22/09/2023 23:53:25",1695430405932,1,"23/09/2023 01:53:25",142855,8,"task-hbx7",NA,31806534,9407261,NA,"complete",NA,"650e352abc32008f9b9b35e6","computer","Desktop or Laptop","Windows 10","Chrome 116.0.0.0","1536x864","1536x747",NA,NA,0,"Task Introduction and Instructions (Clone)",9,"EFDGCHBIAJ","Passed AC2","","Spreadsheet1",1,"Task Instructions","Screen 9","8nvnao",4,"continue","",3665.83699997616,3663.144,3665.83699997616,3665.83699997616,3663.144,3665.83699997616,1,3665.83699997616,0,0,NA,"Click To Continue","Continue Button",2,"object-44","Task Instructions",NA,"SUPPRF52248"
"6",1695426805937,"22/09/2023 23:53:25",1695430405937,1,"23/09/2023 01:53:25",142855,8,"task-hbx7",NA,31806534,9407261,NA,"complete",NA,"650e352abc32008f9b9b35e6","computer","Desktop or Laptop","Windows 10","Chrome 116.0.0.0","1536x864","1536x747",NA,NA,0,"Task Introduction and Instructions (Clone)",9,"EFDGCHBIAJ","Passed AC2","","Spreadsheet1",NA,"","","",NA,"5","END",NA,NA,NA,NA,NA,NA,0,NA,NA,NA,NA,"","",NA,"","",NA,"SUPPRF52248"
"1",1695431619800,"23/09/2023 01:13:39",1695435219800,1,"23/09/2023 03:13:39",142855,8,"task-hbx7",NA,31807129,9407255,NA,"rejected - time limit reached",NA,"650e32d8c9150b2b339c878d","computer","Desktop or Laptop","Windows 10","Chrome 117.0.0.0","1280x720","1280x595",NA,NA,0,"Task Introduction and Instructions (Clone)",9,"FGEHDICJBA","Passed AC2","","Spreadsheet1",NA,"","","",NA,"5","BEGIN",NA,NA,NA,NA,NA,NA,0,NA,NA,NA,NA,"","",NA,"","",NA,"SUPPRF46039"
"2",1695431623325,"23/09/2023 01:13:43",1695435223325,1,"23/09/2023 03:13:43",142855,8,"task-hbx7",NA,31807129,9407255,NA,"rejected - time limit reached",NA,"650e32d8c9150b2b339c878d","computer","Desktop or Laptop","Windows 10","Chrome 117.0.0.0","1280x720","1280x595",NA,NA,0,"Task Introduction and Instructions (Clone)",9,"FGEHDICJBA","Passed AC2","","Spreadsheet1",1,"Task Instructions","Screen 1","anr7sn",1,"continue","",3467.401,3450.381,3467.401,3467.401,3450.381,3467.401,1,3467.401,0,0,NA,"Click To Continue","Continue Button",2,"object-1944","Task Instructions",NA,"SUPPRF46039"
"3",1695431626722,"23/09/2023 01:13:46",1695435226722,1,"23/09/2023 03:13:46",142855,8,"task-hbx7",NA,31807129,9407255,NA,"rejected - time limit reached",NA,"650e32d8c9150b2b339c878d","computer","Desktop or Laptop","Windows 10","Chrome 117.0.0.0","1280x720","1280x595",NA,NA,0,"Task Introduction and Instructions (Clone)",9,"FGEHDICJBA","Passed AC2","","Spreadsheet1",1,"Task Instructions","Screen 2","ce2tc8",2,"continue","",3416.343,3399.707,3416.343,3416.343,3399.707,3416.343,1,3416.343,0,0,NA,"Click To Continue","Continue Button",2,"object-7","Task Instructions",NA,"SUPPRF46039"
"4",1695431629482,"23/09/2023 01:13:49",1695435229482,1,"23/09/2023 03:13:49",142855,8,"task-hbx7",NA,31807129,9407255,NA,"rejected - time limit reached",NA,"650e32d8c9150b2b339c878d","computer","Desktop or Laptop","Windows 10","Chrome 117.0.0.0","1280x720","1280x595",NA,NA,0,"Task Introduction and Instructions (Clone)",9,"FGEHDICJBA","Passed AC2","","Spreadsheet1",1,"Task Instructions","Screen 5","spepx9",3,"continue","",2777.47,2766.949,2777.47,2777.47,2766.949,2777.47,1,2777.47,0,0,NA,"Click To Continue","Continue Button",2,"object-9","Task Instructions",NA,"SUPPRF46039"
"5",1695431685766,"23/09/2023 01:14:45",1695435285766,1,"23/09/2023 03:14:45",142855,8,"task-hbx7",NA,31807129,9407255,NA,"rejected - time limit reached",NA,"650e32d8c9150b2b339c878d","computer","Desktop or Laptop","Windows 10","Chrome 117.0.0.0","1280x720","1280x595",NA,NA,0,"Task Introduction and Instructions (Clone)",9,"FGEHDICJBA","Passed AC2","","Spreadsheet1",1,"Task Instructions","Screen 9","8nvnao",4,"continue","",56293.7209999881,56283.882,56293.7209999881,56293.7209999881,56283.882,56293.7209999881,1,56293.7209999881,0,0,NA,"Click To Continue","Continue Button",2,"object-44","Task Instructions",NA,"SUPPRF46039"
"6",1695431685790,"23/09/2023 01:14:45",1695435285790,1,"23/09/2023 03:14:45",142855,8,"task-hbx7",NA,31807129,9407255,NA,"rejected - time limit reached",NA,"650e32d8c9150b2b339c878d","computer","Desktop or Laptop","Windows 10","Chrome 117.0.0.0","1280x720","1280x595",NA,NA,0,"Task Introduction and Instructions (Clone)",9,"FGEHDICJBA","Passed AC2","","Spreadsheet1",NA,"","","",NA,"5","END",NA,NA,NA,NA,NA,NA,0,NA,NA,NA,NA,"","",NA,"","",NA,"SUPPRF46039"
"1",1695457268600,"23/09/2023 08:21:08",1695460868600,1,"23/09/2023 10:21:08",142855,8,"task-hbx7",NA,31808217,9407623,NA,"complete",NA,"650eaba24114642d1d820012","computer","Desktop or Laptop","Mac OS 10.15.7","Chrome 116.0.0.0","1920x1200","1710x954",NA,NA,0,"Task Introduction and Instructions (Clone)",9,"GHFIEJDACB","Passed AC2","","Spreadsheet1",NA,"","","",NA,"5","BEGIN",NA,NA,NA,NA,NA,NA,0,NA,NA,NA,NA,"","",NA,"","",NA,"SUPPRF97544"
"2",1695457272152,"23/09/2023 08:21:12",1695460872152,1,"23/09/2023 10:21:12",142855,8,"task-hbx7",NA,31808217,9407623,NA,"complete",NA,"650eaba24114642d1d820012","computer","Desktop or Laptop","Mac OS 10.15.7","Chrome 116.0.0.0","1920x1200","1710x954",NA,NA,0,"Task Introduction and Instructions (Clone)",9,"GHFIEJDACB","Passed AC2","","Spreadsheet1",1,"Task Instructions","Screen 1","anr7sn",1,"continue","",3500.38899999404,3486.12,3500.38899999404,3500.38899999404,3486.12,3500.38899999404,1,3500.38899999404,0,0,NA,"Click To Continue","Continue Button",2,"object-1944","Task Instructions",NA,"SUPPRF97544"
"3",1695458157870,"23/09/2023 08:35:57",1695461757870,1,"23/09/2023 10:35:57",142855,8,"task-hbx7",NA,31808217,9407623,NA,"complete",NA,"650eaba24114642d1d820012","computer","Desktop or Laptop","Mac OS 10.15.7","Chrome 116.0.0.0","1920x1200","1710x954",NA,NA,0,"Task Introduction and Instructions (Clone)",9,"GHFIEJDACB","Passed AC2","","Spreadsheet1",1,"Task Instructions","Screen 2","ce2tc8",2,"continue","",885694.669,885682.046,885694.669,885694.669,885682.046,885694.669,1,885694.669,0,0,NA,"Click To Continue","Continue Button",2,"object-7","Task Instructions",NA,"SUPPRF97544"
"4",1695458161005,"23/09/2023 08:36:01",1695461761005,1,"23/09/2023 10:36:01",142855,8,"task-hbx7",NA,31808217,9407623,NA,"complete",NA,"650eaba24114642d1d820012","computer","Desktop or Laptop","Mac OS 10.15.7","Chrome 116.0.0.0","1920x1200","1710x954",NA,NA,0,"Task Introduction and Instructions (Clone)",9,"GHFIEJDACB","Passed AC2","","Spreadsheet1",1,"Task Instructions","Screen 5","spepx9",3,"continue","",3147.52299999108,3135.83999999997,3147.52299999108,3147.52299999108,3135.83999999997,3147.52299999108,1,3147.52299999108,0,0,NA,"Click To Continue","Continue Button",2,"object-9","Task Instructions",NA,"SUPPRF97544"
"5",1695458163693,"23/09/2023 08:36:03",1695461763693,1,"23/09/2023 10:36:03",142855,8,"task-hbx7",NA,31808217,9407623,NA,"complete",NA,"650eaba24114642d1d820012","computer","Desktop or Laptop","Mac OS 10.15.7","Chrome 116.0.0.0","1920x1200","1710x954",NA,NA,0,"Task Introduction and Instructions (Clone)",9,"GHFIEJDACB","Passed AC2","","Spreadsheet1",1,"Task Instructions","Screen 9","8nvnao",4,"response","bot",2699.68299999111,2685.4800000001,2699.68299999111,2699.68299999111,2685.4800000001,2699.68299999111,1,2699.68299999111,0,0,NA,"Click Response","Response",5,"object-47","Task Instructions",NA,"SUPPRF97544"
"6",1695458163695,"23/09/2023 08:36:03",1695461763695,1,"23/09/2023 10:36:03",142855,8,"task-hbx7",NA,31808217,9407623,NA,"complete",NA,"650eaba24114642d1d820012","computer","Desktop or Laptop","Mac OS 10.15.7","Chrome 116.0.0.0","1920x1200","1710x954",NA,NA,0,"Task Introduction and Instructions (Clone)",9,"GHFIEJDACB","Passed AC2","","Spreadsheet1",NA,"","","",NA,"5","END",NA,NA,NA,NA,NA,NA,0,NA,NA,NA,NA,"","",NA,"","",NA,"SUPPRF97544"
"1",1695462341102,"23/09/2023 09:45:41",1695465941102,1,"23/09/2023 11:45:41",142855,8,"task-hbx7",NA,31809058,9407741,NA,"complete",NA,"650ebe2f89cd446b0e9b35ce","computer","Desktop or Laptop","Windows 10","Chrome 116.0.0.0","1280x720","1920x905",NA,NA,0,"Task Introduction and Instructions (Clone)",9,"HIGJFAEBDC","Passed AC2","","Spreadsheet1",NA,"","","",NA,"5","BEGIN",NA,NA,NA,NA,NA,NA,0,NA,NA,NA,NA,"","",NA,"","",NA,"SUPPRF28714"
"2",1695462400550,"23/09/2023 09:46:40",1695466000550,1,"23/09/2023 11:46:40",142855,8,"task-hbx7",NA,31809058,9407741,NA,"complete",NA,"650ebe2f89cd446b0e9b35ce","computer","Desktop or Laptop","Windows 10","Chrome 116.0.0.0","1280x720","1920x905",NA,NA,0,"Task Introduction and Instructions (Clone)",9,"HIGJFAEBDC","Passed AC2","","Spreadsheet1",1,"Task Instructions","Screen 1","anr7sn",1,"continue","",59391.7790000954,59375.483,59391.7790000954,59391.7790000954,59375.483,59391.7790000954,1,59391.7790000954,0,0,NA,"Click To Continue","Continue Button",2,"object-1944","Task Instructions",NA,"SUPPRF28714"
"3",1695462416893,"23/09/2023 09:46:56",1695466016893,1,"23/09/2023 11:46:56",142855,8,"task-hbx7",NA,31809058,9407741,NA,"complete",NA,"650ebe2f89cd446b0e9b35ce","computer","Desktop or Laptop","Windows 10","Chrome 116.0.0.0","1280x720","1920x905",NA,NA,0,"Task Introduction and Instructions (Clone)",9,"HIGJFAEBDC","Passed AC2","","Spreadsheet1",1,"Task Instructions","Screen 2","ce2tc8",2,"continue","",16359.2960000954,16348.037,16359.2960000954,16359.2960000954,16348.037,16359.2960000954,1,16359.2960000954,0,0,NA,"Click To Continue","Continue Button",2,"object-7","Task Instructions",NA,"SUPPRF28714"
"4",1695462421612,"23/09/2023 09:47:01",1695466021612,1,"23/09/2023 11:47:01",142855,8,"task-hbx7",NA,31809058,9407741,NA,"complete",NA,"650ebe2f89cd446b0e9b35ce","computer","Desktop or Laptop","Windows 10","Chrome 116.0.0.0","1280x720","1920x905",NA,NA,0,"Task Introduction and Instructions (Clone)",9,"HIGJFAEBDC","Passed AC2","","Spreadsheet1",1,"Task Instructions","Screen 5","spepx9",3,"continue","",4730.859,4716.05,4730.859,4730.859,4716.05,4730.859,1,4730.859,0,0,NA,"Click To Continue","Continue Button",2,"object-9","Task Instructions",NA,"SUPPRF28714"
"5",1695462423663,"23/09/2023 09:47:03",1695466023663,1,"23/09/2023 11:47:03",142855,8,"task-hbx7",NA,31809058,9407741,NA,"complete",NA,"650ebe2f89cd446b0e9b35ce","computer","Desktop or Laptop","Windows 10","Chrome 116.0.0.0","1280x720","1920x905",NA,NA,0,"Task Introduction and Instructions (Clone)",9,"HIGJFAEBDC","Passed AC2","","Spreadsheet1",1,"Task Instructions","Screen 9","8nvnao",4,"continue","",2065.60900007152,2049.57699999999,2065.60900007152,2065.60900007152,2049.57699999999,2065.60900007152,1,2065.60900007152,0,0,NA,"Click To Continue","Continue Button",2,"object-44","Task Instructions",NA,"SUPPRF28714"
"6",1695462423671,"23/09/2023 09:47:03",1695466023671,1,"23/09/2023 11:47:03",142855,8,"task-hbx7",NA,31809058,9407741,NA,"complete",NA,"650ebe2f89cd446b0e9b35ce","computer","Desktop or Laptop","Windows 10","Chrome 116.0.0.0","1280x720","1920x905",NA,NA,0,"Task Introduction and Instructions (Clone)",9,"HIGJFAEBDC","Passed AC2","","Spreadsheet1",NA,"","","",NA,"5","END",NA,NA,NA,NA,NA,NA,0,NA,NA,NA,NA,"","",NA,"","",NA,"SUPPRF28714"
"1",1695476711875,"23/09/2023 13:45:11",1695480311875,1,"23/09/2023 15:45:11",142855,8,"task-hbx7",NA,31813342,9408686,NA,"complete",NA,"650ef7d4ee250373370e6550","computer","Desktop or Laptop","Windows 10","Chrome 117.0.0.0","1920x1080","1920x931",NA,NA,0,"Task Introduction and Instructions (Clone)",9,"JAIBHCGDFE","Passed AC2","","Spreadsheet1",NA,"","","",NA,"5","BEGIN",NA,NA,NA,NA,NA,NA,0,NA,NA,NA,NA,"","",NA,"","",NA,"SUPPRF08060"
"2",1695476714620,"23/09/2023 13:45:14",1695480314620,1,"23/09/2023 15:45:14",142855,8,"task-hbx7",NA,31813342,9408686,NA,"complete",NA,"650ef7d4ee250373370e6550","computer","Desktop or Laptop","Windows 10","Chrome 117.0.0.0","1920x1080","1920x931",NA,NA,0,"Task Introduction and Instructions (Clone)",9,"JAIBHCGDFE","Passed AC2","","Spreadsheet1",1,"Task Instructions","Screen 1","anr7sn",1,"continue","",2720.89899999986,2716.078,2720.89899999986,2720.89899999986,2716.078,2720.89899999986,1,2720.89899999986,0,0,NA,"Click To Continue","Continue Button",2,"object-1944","Task Instructions",NA,"SUPPRF08060"
"3",1695476719864,"23/09/2023 13:45:19",1695480319864,1,"23/09/2023 15:45:19",142855,8,"task-hbx7",NA,31813342,9408686,NA,"complete",NA,"650ef7d4ee250373370e6550","computer","Desktop or Laptop","Windows 10","Chrome 117.0.0.0","1920x1080","1920x931",NA,NA,0,"Task Introduction and Instructions (Clone)",9,"JAIBHCGDFE","Passed AC2","","Spreadsheet1",1,"Task Instructions","Screen 2","ce2tc8",2,"continue","",5248.721,5243.962,5248.721,5248.721,5243.962,5248.721,1,5248.721,0,0,NA,"Click To Continue","Continue Button",2,"object-7","Task Instructions",NA,"SUPPRF08060"
"4",1695476722853,"23/09/2023 13:45:22",1695480322853,1,"23/09/2023 15:45:22",142855,8,"task-hbx7",NA,31813342,9408686,NA,"complete",NA,"650ef7d4ee250373370e6550","computer","Desktop or Laptop","Windows 10","Chrome 117.0.0.0","1920x1080","1920x931",NA,NA,0,"Task Introduction and Instructions (Clone)",9,"JAIBHCGDFE","Passed AC2","","Spreadsheet1",1,"Task Instructions","Screen 5","spepx9",3,"continue","",2993.65899999991,2988.843,2993.65899999991,2993.65899999991,2988.843,2993.65899999991,1,2993.65899999991,0,0,NA,"Click To Continue","Continue Button",2,"object-9","Task Instructions",NA,"SUPPRF08060"
"5",1695476725583,"23/09/2023 13:45:25",1695480325583,1,"23/09/2023 15:45:25",142855,8,"task-hbx7",NA,31813342,9408686,NA,"complete",NA,"650ef7d4ee250373370e6550","computer","Desktop or Laptop","Windows 10","Chrome 117.0.0.0","1920x1080","1920x931",NA,NA,0,"Task Introduction and Instructions (Clone)",9,"JAIBHCGDFE","Passed AC2","","Spreadsheet1",1,"Task Instructions","Screen 9","8nvnao",4,"response","bot",2734.61599999995,2734.087,2734.61599999995,2734.61599999995,2734.087,2734.61599999995,1,2734.61599999995,0,0,NA,"Click Response","Response",5,"object-47","Task Instructions",NA,"SUPPRF08060"
"6",1695476725584,"23/09/2023 13:45:25",1695480325584,1,"23/09/2023 15:45:25",142855,8,"task-hbx7",NA,31813342,9408686,NA,"complete",NA,"650ef7d4ee250373370e6550","computer","Desktop or Laptop","Windows 10","Chrome 117.0.0.0","1920x1080","1920x931",NA,NA,0,"Task Introduction and Instructions (Clone)",9,"JAIBHCGDFE","Passed AC2","","Spreadsheet1",NA,"","","",NA,"5","END",NA,NA,NA,NA,NA,NA,0,NA,NA,NA,NA,"","",NA,"","",NA,"SUPPRF08060"
"1",1695482676641,"23/09/2023 15:24:36",1695486276641,1,"23/09/2023 17:24:36",142855,8,"task-hbx7",NA,31817786,9409385,NA,"complete",NA,"650f0ec7c6800b612afb1838","computer","Desktop or Laptop","Mac OS 10.15.7","Chrome 116.0.0.0","1440x900","1440x815",NA,NA,0,"Task Introduction and Instructions (Clone)",9,"ABJCIDHEGF","Passed AC2","","Spreadsheet1",NA,"","","",NA,"5","BEGIN",NA,NA,NA,NA,NA,NA,0,NA,NA,NA,NA,"","",NA,"","",NA,"SUPPRF78887"
"2",1695482680479,"23/09/2023 15:24:40",1695486280479,1,"23/09/2023 17:24:40",142855,8,"task-hbx7",NA,31817786,9409385,NA,"complete",NA,"650f0ec7c6800b612afb1838","computer","Desktop or Laptop","Mac OS 10.15.7","Chrome 116.0.0.0","1440x900","1440x815",NA,NA,0,"Task Introduction and Instructions (Clone)",9,"ABJCIDHEGF","Passed AC2","","Spreadsheet1",1,"Task Instructions","Screen 1","anr7sn",1,"continue","",3794.489,3777.823,3794.489,3794.489,3777.823,3794.489,1,3794.489,0,0,NA,"Click To Continue","Continue Button",2,"object-1944","Task Instructions",NA,"SUPPRF78887"
"3",1695482692005,"23/09/2023 15:24:52",1695486292005,1,"23/09/2023 17:24:52",142855,8,"task-hbx7",NA,31817786,9409385,NA,"complete",NA,"650f0ec7c6800b612afb1838","computer","Desktop or Laptop","Mac OS 10.15.7","Chrome 116.0.0.0","1440x900","1440x815",NA,NA,0,"Task Introduction and Instructions (Clone)",9,"ABJCIDHEGF","Passed AC2","","Spreadsheet1",1,"Task Instructions","Screen 2","ce2tc8",2,"continue","",11549.227,11532.561,11549.227,11549.227,11532.561,11549.227,1,11549.227,0,0,NA,"Click To Continue","Continue Button",2,"object-7","Task Instructions",NA,"SUPPRF78887"
"4",1695482712436,"23/09/2023 15:25:12",1695486312436,1,"23/09/2023 17:25:12",142855,8,"task-hbx7",NA,31817786,9409385,NA,"complete",NA,"650f0ec7c6800b612afb1838","computer","Desktop or Laptop","Mac OS 10.15.7","Chrome 116.0.0.0","1440x900","1440x815",NA,NA,0,"Task Introduction and Instructions (Clone)",9,"ABJCIDHEGF","Passed AC2","","Spreadsheet1",1,"Task Instructions","Screen 5","spepx9",3,"continue","",20448.0070000477,20438.299,20448.0070000477,20448.0070000477,20438.299,20448.0070000477,1,20448.0070000477,0,0,NA,"Click To Continue","Continue Button",2,"object-9","Task Instructions",NA,"SUPPRF78887"
"5",1695482715241,"23/09/2023 15:25:15",1695486315241,1,"23/09/2023 17:25:15",142855,8,"task-hbx7",NA,31817786,9409385,NA,"complete",NA,"650f0ec7c6800b612afb1838","computer","Desktop or Laptop","Mac OS 10.15.7","Chrome 116.0.0.0","1440x900","1440x815",NA,NA,0,"Task Introduction and Instructions (Clone)",9,"ABJCIDHEGF","Passed AC2","","Spreadsheet1",1,"Task Instructions","Screen 9","8nvnao",4,"continue","",2814.70800004769,2799.888,2814.70800004769,2814.70800004769,2799.888,2814.70800004769,1,2814.70800004769,0,0,NA,"Click To Continue","Continue Button",2,"object-44","Task Instructions",NA,"SUPPRF78887"
"6",1695482715243,"23/09/2023 15:25:15",1695486315243,1,"23/09/2023 17:25:15",142855,8,"task-hbx7",NA,31817786,9409385,NA,"complete",NA,"650f0ec7c6800b612afb1838","computer","Desktop or Laptop","Mac OS 10.15.7","Chrome 116.0.0.0","1440x900","1440x815",NA,NA,0,"Task Introduction and Instructions (Clone)",9,"ABJCIDHEGF","Passed AC2","","Spreadsheet1",NA,"","","",NA,"5","END",NA,NA,NA,NA,NA,NA,0,NA,NA,NA,NA,"","",NA,"","",NA,"SUPPRF78887"
"1",1695526807412,"24/09/2023 03:40:07",1695508807412,-5,"23/09/2023 17:40:07",142855,8,"task-hbx7",NA,31820716,9409958,NA,"complete",NA,"650f66c04ede5e4211c83d98","computer","Desktop or Laptop","Windows 10","Chrome 116.0.0.0","1536x864","1536x747",NA,NA,0,"Task Introduction and Instructions (Clone)",9,"BCADJEIFHG","Passed AC2","","Spreadsheet1",NA,"","","",NA,"5","BEGIN",NA,NA,NA,NA,NA,NA,0,NA,NA,NA,NA,"","",NA,"","",NA,"SUPPRF98352"
"2",1695526811416,"24/09/2023 03:40:11",1695508811416,-5,"23/09/2023 17:40:11",142855,8,"task-hbx7",NA,31820716,9409958,NA,"complete",NA,"650f66c04ede5e4211c83d98","computer","Desktop or Laptop","Windows 10","Chrome 116.0.0.0","1536x864","1536x747",NA,NA,0,"Task Introduction and Instructions (Clone)",9,"BCADJEIFHG","Passed AC2","","Spreadsheet1",1,"Task Instructions","Screen 1","anr7sn",1,"continue","",3548.84400000014,3546.584,3548.84400000014,3548.84400000014,3546.584,3548.84400000014,1,3548.84400000014,0,0,NA,"Click To Continue","Continue Button",2,"object-1944","Task Instructions",NA,"SUPPRF98352"
"3",1695526817767,"24/09/2023 03:40:17",1695508817767,-5,"23/09/2023 17:40:17",142855,8,"task-hbx7",NA,31820716,9409958,NA,"complete",NA,"650f66c04ede5e4211c83d98","computer","Desktop or Laptop","Windows 10","Chrome 116.0.0.0","1536x864","1536x747",NA,NA,0,"Task Introduction and Instructions (Clone)",9,"BCADJEIFHG","Passed AC2","","Spreadsheet1",1,"Task Instructions","Screen 2","ce2tc8",2,"continue","",6353.05999999995,6344.505,6353.05999999995,6353.05999999995,6344.505,6353.05999999995,1,6353.05999999995,0,0,NA,"Click To Continue","Continue Button",2,"object-7","Task Instructions",NA,"SUPPRF98352"
"4",1695526863870,"24/09/2023 03:41:03",1695508863870,-5,"23/09/2023 17:41:03",142855,8,"task-hbx7",NA,31820716,9409958,NA,"complete",NA,"650f66c04ede5e4211c83d98","computer","Desktop or Laptop","Windows 10","Chrome 116.0.0.0","1536x864","1536x747",NA,NA,0,"Task Introduction and Instructions (Clone)",9,"BCADJEIFHG","Passed AC2","","Spreadsheet1",1,"Task Instructions","Screen 5","spepx9",3,"continue","",46112.355,46109.847,46112.355,46112.355,46109.847,46112.355,1,46112.355,0,0,NA,"Click To Continue","Continue Button",2,"object-9","Task Instructions",NA,"SUPPRF98352"
"5",1695526867209,"24/09/2023 03:41:07",1695508867209,-5,"23/09/2023 17:41:07",142855,8,"task-hbx7",NA,31820716,9409958,NA,"complete",NA,"650f66c04ede5e4211c83d98","computer","Desktop or Laptop","Windows 10","Chrome 116.0.0.0","1536x864","1536x747",NA,NA,0,"Task Introduction and Instructions (Clone)",9,"BCADJEIFHG","Passed AC2","","Spreadsheet1",1,"Task Instructions","Screen 9","8nvnao",4,"continue","",3341.20799999996,3330.453,3341.20799999996,3341.20799999996,3330.453,3341.20799999996,1,3341.20799999996,0,0,NA,"Click To Continue","Continue Button",2,"object-44","Task Instructions",NA,"SUPPRF98352"
"6",1695526867214,"24/09/2023 03:41:07",1695508867214,-5,"23/09/2023 17:41:07",142855,8,"task-hbx7",NA,31820716,9409958,NA,"complete",NA,"650f66c04ede5e4211c83d98","computer","Desktop or Laptop","Windows 10","Chrome 116.0.0.0","1536x864","1536x747",NA,NA,0,"Task Introduction and Instructions (Clone)",9,"BCADJEIFHG","Passed AC2","","Spreadsheet1",NA,"","","",NA,"5","END",NA,NA,NA,NA,NA,NA,0,NA,NA,NA,NA,"","",NA,"","",NA,"SUPPRF98352"
"1",1695536546219,"24/09/2023 06:22:26",1695511346219,-7,"23/09/2023 16:22:26",142855,8,"task-hbx7",NA,31820944,9409977,NA,"complete",NA,"650f710e3ce25c3666fb1800","computer","Desktop or Laptop","Mac OS 10.15.7","Chrome 116.0.0.0","1440x900","1440x700",NA,NA,0,"Task Introduction and Instructions (Clone)",9,"CDBEAFJGIH","Passed AC2","","Spreadsheet1",NA,"","","",NA,"5","BEGIN",NA,NA,NA,NA,NA,NA,0,NA,NA,NA,NA,"","",NA,"","",NA,"SUPPRF78876"
"2",1695536549167,"24/09/2023 06:22:29",1695511349167,-7,"23/09/2023 16:22:29",142855,8,"task-hbx7",NA,31820944,9409977,NA,"complete",NA,"650f710e3ce25c3666fb1800","computer","Desktop or Laptop","Mac OS 10.15.7","Chrome 116.0.0.0","1440x900","1440x700",NA,NA,0,"Task Introduction and Instructions (Clone)",9,"CDBEAFJGIH","Passed AC2","","Spreadsheet1",1,"Task Instructions","Screen 1","anr7sn",1,"continue","",2878.34699998808,2874.482,2878.34699998808,2878.34699998808,2874.482,2878.34699998808,1,2878.34699998808,0,0,NA,"Click To Continue","Continue Button",2,"object-1944","Task Instructions",NA,"SUPPRF78876"
"3",1695536553311,"24/09/2023 06:22:33",1695511353311,-7,"23/09/2023 16:22:33",142855,8,"task-hbx7",NA,31820944,9409977,NA,"complete",NA,"650f710e3ce25c3666fb1800","computer","Desktop or Laptop","Mac OS 10.15.7","Chrome 116.0.0.0","1440x900","1440x700",NA,NA,0,"Task Introduction and Instructions (Clone)",9,"CDBEAFJGIH","Passed AC2","","Spreadsheet1",1,"Task Instructions","Screen 2","ce2tc8",2,"continue","",4147.96500001192,4144.328,4147.96500001192,4147.96500001192,4144.328,4147.96500001192,1,4147.96500001192,0,0,NA,"Click To Continue","Continue Button",2,"object-7","Task Instructions",NA,"SUPPRF78876"
"4",1695536556479,"24/09/2023 06:22:36",1695511356479,-7,"23/09/2023 16:22:36",142855,8,"task-hbx7",NA,31820944,9409977,NA,"complete",NA,"650f710e3ce25c3666fb1800","computer","Desktop or Laptop","Mac OS 10.15.7","Chrome 116.0.0.0","1440x900","1440x700",NA,NA,0,"Task Introduction and Instructions (Clone)",9,"CDBEAFJGIH","Passed AC2","","Spreadsheet1",1,"Task Instructions","Screen 5","spepx9",3,"continue","",3171.63700001192,3158.379,3171.63700001192,3171.63700001192,3158.379,3171.63700001192,1,3171.63700001192,0,0,NA,"Click To Continue","Continue Button",2,"object-9","Task Instructions",NA,"SUPPRF78876"
"5",1695536559599,"24/09/2023 06:22:39",1695511359599,-7,"23/09/2023 16:22:39",142855,8,"task-hbx7",NA,31820944,9409977,NA,"complete",NA,"650f710e3ce25c3666fb1800","computer","Desktop or Laptop","Mac OS 10.15.7","Chrome 116.0.0.0","1440x900","1440x700",NA,NA,0,"Task Introduction and Instructions (Clone)",9,"CDBEAFJGIH","Passed AC2","","Spreadsheet1",1,"Task Instructions","Screen 9","8nvnao",4,"continue","",3132.65799998808,3125.126,3132.65799998808,3132.65799998808,3125.126,3132.65799998808,1,3132.65799998808,0,0,NA,"Click To Continue","Continue Button",2,"object-44","Task Instructions",NA,"SUPPRF78876"
"6",1695536559602,"24/09/2023 06:22:39",1695511359602,-7,"23/09/2023 16:22:39",142855,8,"task-hbx7",NA,31820944,9409977,NA,"complete",NA,"650f710e3ce25c3666fb1800","computer","Desktop or Laptop","Mac OS 10.15.7","Chrome 116.0.0.0","1440x900","1440x700",NA,NA,0,"Task Introduction and Instructions (Clone)",9,"CDBEAFJGIH","Passed AC2","","Spreadsheet1",NA,"","","",NA,"5","END",NA,NA,NA,NA,NA,NA,0,NA,NA,NA,NA,"","",NA,"","",NA,"SUPPRF78876"
"1",1695544538927,"24/09/2023 08:35:38",1695548138927,1,"24/09/2023 10:35:38",142855,8,"task-hbx7",NA,31824212,9410532,NA,"complete",NA,"6510001be2788d2059f61f6d","computer","Desktop or Laptop","Mac OS 10.15.7","Chrome 116.0.0.0","1440x900","1440x705",NA,NA,0,"Task Introduction and Instructions (Clone)",9,"DECFBGAHJI","Passed AC2","","Spreadsheet1",NA,"","","",NA,"5","BEGIN",NA,NA,NA,NA,NA,NA,0,NA,NA,NA,NA,"","",NA,"","",NA,"SUPPRF06078"
"2",1695544542155,"24/09/2023 08:35:42",1695548142155,1,"24/09/2023 10:35:42",142855,8,"task-hbx7",NA,31824212,9410532,NA,"complete",NA,"6510001be2788d2059f61f6d","computer","Desktop or Laptop","Mac OS 10.15.7","Chrome 116.0.0.0","1440x900","1440x705",NA,NA,0,"Task Introduction and Instructions (Clone)",9,"DECFBGAHJI","Passed AC2","","Spreadsheet1",1,"Task Instructions","Screen 1","anr7sn",1,"continue","",3059.871,3049.878,3059.871,3059.871,3049.878,3059.871,1,3059.871,0,0,NA,"Click To Continue","Continue Button",2,"object-1944","Task Instructions",NA,"SUPPRF06078"
"3",1695544551621,"24/09/2023 08:35:51",1695548151621,1,"24/09/2023 10:35:51",142855,8,"task-hbx7",NA,31824212,9410532,NA,"complete",NA,"6510001be2788d2059f61f6d","computer","Desktop or Laptop","Mac OS 10.15.7","Chrome 116.0.0.0","1440x900","1440x705",NA,NA,0,"Task Introduction and Instructions (Clone)",9,"DECFBGAHJI","Passed AC2","","Spreadsheet1",1,"Task Instructions","Screen 2","ce2tc8",2,"continue","",9476.89300009537,9467.131,9476.89300009537,9476.89300009537,9467.131,9476.89300009537,1,9476.89300009537,0,0,NA,"Click To Continue","Continue Button",2,"object-7","Task Instructions",NA,"SUPPRF06078"
"4",1695544554684,"24/09/2023 08:35:54",1695548154684,1,"24/09/2023 10:35:54",142855,8,"task-hbx7",NA,31824212,9410532,NA,"complete",NA,"6510001be2788d2059f61f6d","computer","Desktop or Laptop","Mac OS 10.15.7","Chrome 116.0.0.0","1440x900","1440x705",NA,NA,0,"Task Introduction and Instructions (Clone)",9,"DECFBGAHJI","Passed AC2","","Spreadsheet1",1,"Task Instructions","Screen 5","spepx9",3,"continue","",3072.66200019073,3067.167,3072.66200019073,3072.66200019073,3067.167,3072.66200019073,1,3072.66200019073,0,0,NA,"Click To Continue","Continue Button",2,"object-9","Task Instructions",NA,"SUPPRF06078"
"5",1695544557255,"24/09/2023 08:35:57",1695548157255,1,"24/09/2023 10:35:57",142855,8,"task-hbx7",NA,31824212,9410532,NA,"complete",NA,"6510001be2788d2059f61f6d","computer","Desktop or Laptop","Mac OS 10.15.7","Chrome 116.0.0.0","1440x900","1440x705",NA,NA,0,"Task Introduction and Instructions (Clone)",9,"DECFBGAHJI","Passed AC2","","Spreadsheet1",1,"Task Instructions","Screen 9","8nvnao",4,"continue","",2576.8950002861,2566.564,2576.8950002861,2576.8950002861,2566.564,2576.8950002861,1,2576.8950002861,0,0,NA,"Click To Continue","Continue Button",2,"object-44","Task Instructions",NA,"SUPPRF06078"
"6",1695544557259,"24/09/2023 08:35:57",1695548157259,1,"24/09/2023 10:35:57",142855,8,"task-hbx7",NA,31824212,9410532,NA,"complete",NA,"6510001be2788d2059f61f6d","computer","Desktop or Laptop","Mac OS 10.15.7","Chrome 116.0.0.0","1440x900","1440x705",NA,NA,0,"Task Introduction and Instructions (Clone)",9,"DECFBGAHJI","Passed AC2","","Spreadsheet1",NA,"","","",NA,"5","END",NA,NA,NA,NA,NA,NA,0,NA,NA,NA,NA,"","",NA,"","",NA,"SUPPRF06078"
"1",1695551192875,"24/09/2023 10:26:32",1695554792875,1,"24/09/2023 12:26:32",142855,8,"task-hbx7",NA,31824796,9410649,NA,"complete",NA,"651018d75c7a625657c5af8d","computer","Desktop or Laptop","Mac OS 10.15.7","Chrome 116.0.0.0","1440x900","1440x815",NA,NA,0,"Task Introduction and Instructions (Clone)",9,"EFDGCHBIAJ","Passed AC2","","Spreadsheet1",NA,"","","",NA,"5","BEGIN",NA,NA,NA,NA,NA,NA,0,NA,NA,NA,NA,"","",NA,"","",NA,"SUPPRF83190"
"2",1695551197851,"24/09/2023 10:26:37",1695554797851,1,"24/09/2023 12:26:37",142855,8,"task-hbx7",NA,31824796,9410649,NA,"complete",NA,"651018d75c7a625657c5af8d","computer","Desktop or Laptop","Mac OS 10.15.7","Chrome 116.0.0.0","1440x900","1440x815",NA,NA,0,"Task Introduction and Instructions (Clone)",9,"EFDGCHBIAJ","Passed AC2","","Spreadsheet1",1,"Task Instructions","Screen 1","anr7sn",1,"continue","",4913.22599997616,4899.804,4913.22599997616,4913.22599997616,4899.804,4913.22599997616,1,4913.22599997616,0,0,NA,"Click To Continue","Continue Button",2,"object-1944","Task Instructions",NA,"SUPPRF83190"
"3",1695551201191,"24/09/2023 10:26:41",1695554801191,1,"24/09/2023 12:26:41",142855,8,"task-hbx7",NA,31824796,9410649,NA,"complete",NA,"651018d75c7a625657c5af8d","computer","Desktop or Laptop","Mac OS 10.15.7","Chrome 116.0.0.0","1440x900","1440x815",NA,NA,0,"Task Introduction and Instructions (Clone)",9,"EFDGCHBIAJ","Passed AC2","","Spreadsheet1",1,"Task Instructions","Screen 2","ce2tc8",2,"continue","",3351.487,3334.821,3351.487,3351.487,3334.821,3351.487,1,3351.487,0,0,NA,"Click To Continue","Continue Button",2,"object-7","Task Instructions",NA,"SUPPRF83190"
"4",1695551203734,"24/09/2023 10:26:43",1695554803734,1,"24/09/2023 12:26:43",142855,8,"task-hbx7",NA,31824796,9410649,NA,"complete",NA,"651018d75c7a625657c5af8d","computer","Desktop or Laptop","Mac OS 10.15.7","Chrome 116.0.0.0","1440x900","1440x815",NA,NA,0,"Task Introduction and Instructions (Clone)",9,"EFDGCHBIAJ","Passed AC2","","Spreadsheet1",1,"Task Instructions","Screen 5","spepx9",3,"continue","",2562.30099999404,2549.898,2562.30099999404,2562.30099999404,2549.898,2562.30099999404,1,2562.30099999404,0,0,NA,"Click To Continue","Continue Button",2,"object-9","Task Instructions",NA,"SUPPRF83190"
"5",1695551206230,"24/09/2023 10:26:46",1695554806230,1,"24/09/2023 12:26:46",142855,8,"task-hbx7",NA,31824796,9410649,NA,"complete",NA,"651018d75c7a625657c5af8d","computer","Desktop or Laptop","Mac OS 10.15.7","Chrome 116.0.0.0","1440x900","1440x815",NA,NA,0,"Task Introduction and Instructions (Clone)",9,"EFDGCHBIAJ","Passed AC2","","Spreadsheet1",1,"Task Instructions","Screen 9","8nvnao",4,"continue","",2508.10299998212,2499.9,2508.10299998212,2508.10299998212,2499.9,2508.10299998212,1,2508.10299998212,0,0,NA,"Click To Continue","Continue Button",2,"object-44","Task Instructions",NA,"SUPPRF83190"
"6",1695551206232,"24/09/2023 10:26:46",1695554806232,1,"24/09/2023 12:26:46",142855,8,"task-hbx7",NA,31824796,9410649,NA,"complete",NA,"651018d75c7a625657c5af8d","computer","Desktop or Laptop","Mac OS 10.15.7","Chrome 116.0.0.0","1440x900","1440x815",NA,NA,0,"Task Introduction and Instructions (Clone)",9,"EFDGCHBIAJ","Passed AC2","","Spreadsheet1",NA,"","","",NA,"5","END",NA,NA,NA,NA,NA,NA,0,NA,NA,NA,NA,"","",NA,"","",NA,"SUPPRF83190"
"1",1695555596479,"24/09/2023 11:39:56",1695559196479,1,"24/09/2023 13:39:56",142855,8,"task-hbx7",NA,31825140,9410707,NA,"complete",NA,"6510292cd8e6d659c7c24284","computer","Desktop or Laptop","Windows 10","Chrome 116.0.0.0","1260x840","1261x724",NA,NA,0,"Task Introduction and Instructions (Clone)",9,"FGEHDICJBA","Passed AC2","","Spreadsheet1",NA,"","","",NA,"5","BEGIN",NA,NA,NA,NA,NA,NA,0,NA,NA,NA,NA,"","",NA,"","",NA,"SUPPRF52256"
"2",1695555600502,"24/09/2023 11:40:00",1695559200502,1,"24/09/2023 13:40:00",142855,8,"task-hbx7",NA,31825140,9410707,NA,"complete",NA,"6510292cd8e6d659c7c24284","computer","Desktop or Laptop","Windows 10","Chrome 116.0.0.0","1260x840","1261x724",NA,NA,0,"Task Introduction and Instructions (Clone)",9,"FGEHDICJBA","Passed AC2","","Spreadsheet1",1,"Task Instructions","Screen 1","anr7sn",1,"continue","",3995.95300009537,3983.695,3995.95300009537,3995.95300009537,3983.695,3995.95300009537,1,3995.95300009537,0,0,NA,"Click To Continue","Continue Button",2,"object-1944","Task Instructions",NA,"SUPPRF52256"
"3",1695555609487,"24/09/2023 11:40:09",1695559209487,1,"24/09/2023 13:40:09",142855,8,"task-hbx7",NA,31825140,9410707,NA,"complete",NA,"6510292cd8e6d659c7c24284","computer","Desktop or Laptop","Windows 10","Chrome 116.0.0.0","1260x840","1261x724",NA,NA,0,"Task Introduction and Instructions (Clone)",9,"FGEHDICJBA","Passed AC2","","Spreadsheet1",1,"Task Instructions","Screen 2","ce2tc8",2,"continue","",8997.55799980927,8983.897,8997.55799980927,8997.55799980927,8983.897,8997.55799980927,1,8997.55799980927,0,0,NA,"Click To Continue","Continue Button",2,"object-7","Task Instructions",NA,"SUPPRF52256"
"4",1695555612692,"24/09/2023 11:40:12",1695559212692,1,"24/09/2023 13:40:12",142855,8,"task-hbx7",NA,31825140,9410707,NA,"complete",NA,"6510292cd8e6d659c7c24284","computer","Desktop or Laptop","Windows 10","Chrome 116.0.0.0","1260x840","1261x724",NA,NA,0,"Task Introduction and Instructions (Clone)",9,"FGEHDICJBA","Passed AC2","","Spreadsheet1",1,"Task Instructions","Screen 5","spepx9",3,"continue","",3219.2609997139,3216.573,3219.2609997139,3219.2609997139,3216.573,3219.2609997139,1,3219.2609997139,0,0,NA,"Click To Continue","Continue Button",2,"object-9","Task Instructions",NA,"SUPPRF52256"
"5",1695555616178,"24/09/2023 11:40:16",1695559216178,1,"24/09/2023 13:40:16",142855,8,"task-hbx7",NA,31825140,9410707,NA,"complete",NA,"6510292cd8e6d659c7c24284","computer","Desktop or Laptop","Windows 10","Chrome 116.0.0.0","1260x840","1261x724",NA,NA,0,"Task Introduction and Instructions (Clone)",9,"FGEHDICJBA","Passed AC2","","Spreadsheet1",1,"Task Instructions","Screen 9","8nvnao",4,"continue","",3488.48799990463,3483.639,3488.48799990463,3488.48799990463,3483.639,3488.48799990463,1,3488.48799990463,0,0,NA,"Click To Continue","Continue Button",2,"object-44","Task Instructions",NA,"SUPPRF52256"
"6",1695555616180,"24/09/2023 11:40:16",1695559216180,1,"24/09/2023 13:40:16",142855,8,"task-hbx7",NA,31825140,9410707,NA,"complete",NA,"6510292cd8e6d659c7c24284","computer","Desktop or Laptop","Windows 10","Chrome 116.0.0.0","1260x840","1261x724",NA,NA,0,"Task Introduction and Instructions (Clone)",9,"FGEHDICJBA","Passed AC2","","Spreadsheet1",NA,"","","",NA,"5","END",NA,NA,NA,NA,NA,NA,0,NA,NA,NA,NA,"","",NA,"","",NA,"SUPPRF52256"
"1",1695561907787,"24/09/2023 13:25:07",1695565507787,1,"24/09/2023 15:25:07",142855,8,"task-hbx7",NA,31825874,9410868,NA,"complete",NA,"65104354b93e88ef30f78cb8","computer","Desktop or Laptop","Mac OS 10.15.7","Chrome 112.0.0.0","1440x900","1440x821",NA,NA,0,"Task Introduction and Instructions (Clone)",9,"GHFIEJDACB","Failed AC2","Passed AC1","Spreadsheet1",NA,"","","",NA,"5","BEGIN",NA,NA,NA,NA,NA,NA,0,NA,NA,NA,NA,"","",NA,"","",NA,"SUPPRF15820"
