"Event.Index","UTC.Timestamp","UTC.Date.and.Time","Local.Timestamp","Local.Timezone","Local.Date.and.Time","Experiment.ID","Experiment.Version","Tree.Node.Key","Repeat.Key","Schedule.ID","Participant.Private.ID","Participant.Starting.Group","Participant.Status","Participant.Completion.Code","Participant.External.Session.ID","Participant.Device.Type","Participant.Device","Participant.OS","Participant.Browser","Participant.Monitor.Size","Participant.Viewport.Size","Checkpoint","Room.ID","Room.Order","Task.Name","Task.Version","order.ot79","branch.g31k","branch.5gtn","Spreadsheet","Trial.Number","Display","Screen","Screen.ID","Screen.Counter","Response.Type","Response","Onset.Time","Clock.Time","Reaction.Time","Absolute.Onset.Time","Absolute.Clock.Time","Absolute.Reaction.Time","Correct","Response.Onset","Response.Duration","Proportion","Tag","Component.Name","Object.Name","Object.Number","Object.ID","Spreadsheet..display","Manipulation..Spreadsheet","Random_ID"
"1",1701279470581,"29/11/2023 17:37:50",1701279470581,0,"29/11/2023 17:37:50",154366,3,"task-psw4",NA,33302805,9860482,NA,"complete",NA,"656773d7099cebee231fd9fb","computer","Desktop or Laptop","Mac OS 10.15.7","Chrome 119.0.0.0","1440x900","1092x681",NA,NA,0,"Task",1,"ABJCIDHEGF","Passed AC2",NA,"Spreadsheet1",NA,"","","",NA,"5","BEGIN",NA,NA,NA,NA,NA,NA,0,NA,NA,NA,NA,"","",NA,"","",NA,"SUPPRF08618"
"2",1701279474446,"29/11/2023 17:37:54",1701279474446,0,"29/11/2023 17:37:54",154366,3,"task-psw4",NA,33302805,9860482,NA,"complete",NA,"656773d7099cebee231fd9fb","computer","Desktop or Laptop","Mac OS 10.15.7","Chrome 119.0.0.0","1440x900","1092x681",NA,NA,0,"Task",1,"ABJCIDHEGF","Passed AC2",NA,"Spreadsheet1",1,"Task Instructions","Screen 1","anr7sn",1,"continue","",3475.19399998808,3466.528,3475.19399998808,3475.19399998808,3466.528,3475.19399998808,1,3475.19399998808,0,0,NA,"Click To Continue","Continue Button",2,"object-1944","Task Instructions",NA,"SUPPRF08618"
"3",1701279477695,"29/11/2023 17:37:57",1701279477695,0,"29/11/2023 17:37:57",154366,3,"task-psw4",NA,33302805,9860482,NA,"complete",NA,"656773d7099cebee231fd9fb","computer","Desktop or Laptop","Mac OS 10.15.7","Chrome 119.0.0.0","1440x900","1092x681",NA,NA,0,"Task",1,"ABJCIDHEGF","Passed AC2",NA,"Spreadsheet1",1,"Task Instructions","Screen 2","ce2tc8",2,"continue","",3258.26600001192,3249.87,3258.26600001192,3258.26600001192,3249.87,3258.26600001192,1,3258.26600001192,0,0,NA,"Click To Continue","Continue Button",2,"object-7","Task Instructions",NA,"SUPPRF08618"
"4",1701279480598,"29/11/2023 17:38:00",1701279480598,0,"29/11/2023 17:38:00",154366,3,"task-psw4",NA,33302805,9860482,NA,"complete",NA,"656773d7099cebee231fd9fb","computer","Desktop or Laptop","Mac OS 10.15.7","Chrome 119.0.0.0","1440x900","1092x681",NA,NA,0,"Task",1,"ABJCIDHEGF","Passed AC2",NA,"Spreadsheet1",1,"Task Instructions","Screen 3","1qtc8v",3,"continue","",2910.99600000596,2900.641,2910.99600000596,2910.99600000596,2900.641,2910.99600000596,1,2910.99600000596,0,0,NA,"Click To Continue","Continue Button",2,"object-52","Task Instructions",NA,"SUPPRF08618"
"5",1701279483112,"29/11/2023 17:38:03",1701279483112,0,"29/11/2023 17:38:03",154366,3,"task-psw4",NA,33302805,9860482,NA,"complete",NA,"656773d7099cebee231fd9fb","computer","Desktop or Laptop","Mac OS 10.15.7","Chrome 119.0.0.0","1440x900","1092x681",NA,NA,0,"Task",1,"ABJCIDHEGF","Passed AC2",NA,"Spreadsheet1",1,"Task Instructions","Screen 4","spepx9",4,"continue","",2524.55499999404,2516.566,2524.55499999404,2524.55499999404,2516.566,2524.55499999404,1,2524.55499999404,0,0,NA,"Click To Continue","Continue Button",2,"object-9","Task Instructions",NA,"SUPPRF08618"
"6",1701279486162,"29/11/2023 17:38:06",1701279486162,0,"29/11/2023 17:38:06",154366,3,"task-psw4",NA,33302805,9860482,NA,"complete",NA,"656773d7099cebee231fd9fb","computer","Desktop or Laptop","Mac OS 10.15.7","Chrome 119.0.0.0","1440x900","1092x681",NA,NA,0,"Task",1,"ABJCIDHEGF","Passed AC2",NA,"Spreadsheet1",1,"Task Instructions","Screen 5","8nvnao",5,"continue","",3058.48899999404,3049.878,3058.48899999404,3058.48899999404,3049.878,3058.48899999404,1,3058.48899999404,0,0,NA,"Click To Continue","Continue Button",2,"object-44","Task Instructions",NA,"SUPPRF08618"
"7",1701279486168,"29/11/2023 17:38:06",1701279486168,0,"29/11/2023 17:38:06",154366,3,"task-psw4",NA,33302805,9860482,NA,"complete",NA,"656773d7099cebee231fd9fb","computer","Desktop or Laptop","Mac OS 10.15.7","Chrome 119.0.0.0","1440x900","1092x681",NA,NA,0,"Task",1,"ABJCIDHEGF","Passed AC2",NA,"Spreadsheet1",NA,"","","",NA,"5","END",NA,NA,NA,NA,NA,NA,0,NA,NA,NA,NA,"","",NA,"","",NA,"SUPPRF08618"
"1",1701281557629,"29/11/2023 18:12:37",1701281557629,0,"29/11/2023 18:12:37",154366,3,"task-psw4",NA,33303632,9860753,NA,"complete",NA,"65677c149b3b22c39c0b7b43","computer","Desktop or Laptop","Mac OS 10.15.7","Chrome 119.0.0.0","1512x982","1512x824",NA,NA,0,"Task",1,"DECFBGAHJI","Passed AC2",NA,"Spreadsheet1",NA,"","","",NA,"5","BEGIN",NA,NA,NA,NA,NA,NA,0,NA,NA,NA,NA,"","",NA,"","",NA,"SUPPRF47263"
"2",1701281561796,"29/11/2023 18:12:41",1701281561796,0,"29/11/2023 18:12:41",154366,3,"task-psw4",NA,33303632,9860753,NA,"complete",NA,"65677c149b3b22c39c0b7b43","computer","Desktop or Laptop","Mac OS 10.15.7","Chrome 119.0.0.0","1512x982","1512x824",NA,NA,0,"Task",1,"DECFBGAHJI","Passed AC2",NA,"Spreadsheet1",1,"Task Instructions","Screen 1","anr7sn",1,"continue","",4131.91400000074,4124.835,4131.91400000074,4131.91400000074,4124.835,4131.91400000074,1,4131.91400000074,0,0,NA,"Click To Continue","Continue Button",2,"object-1944","Task Instructions",NA,"SUPPRF47263"
"3",1701281578478,"29/11/2023 18:12:58",1701281578478,0,"29/11/2023 18:12:58",154366,3,"task-psw4",NA,33303632,9860753,NA,"complete",NA,"65677c149b3b22c39c0b7b43","computer","Desktop or Laptop","Mac OS 10.15.7","Chrome 119.0.0.0","1512x982","1512x824",NA,NA,0,"Task",1,"DECFBGAHJI","Passed AC2",NA,"Spreadsheet1",1,"Task Instructions","Screen 2","ce2tc8",2,"continue","",16687.566,16679.233,16687.566,16687.566,16679.233,16687.566,1,16687.566,0,0,NA,"Click To Continue","Continue Button",2,"object-7","Task Instructions",NA,"SUPPRF47263"
"4",1701281581541,"29/11/2023 18:13:01",1701281581541,0,"29/11/2023 18:13:01",154366,3,"task-psw4",NA,33303632,9860753,NA,"complete",NA,"65677c149b3b22c39c0b7b43","computer","Desktop or Laptop","Mac OS 10.15.7","Chrome 119.0.0.0","1512x982","1512x824",NA,NA,0,"Task",1,"DECFBGAHJI","Passed AC2",NA,"Spreadsheet1",1,"Task Instructions","Screen 3","1qtc8v",3,"continue","",3074.046,3066.544,3074.046,3074.046,3066.544,3074.046,1,3074.046,0,0,NA,"Click To Continue","Continue Button",2,"object-52","Task Instructions",NA,"SUPPRF47263"
"5",1701281584466,"29/11/2023 18:13:04",1701281584466,0,"29/11/2023 18:13:04",154366,3,"task-psw4",NA,33303632,9860753,NA,"complete",NA,"65677c149b3b22c39c0b7b43","computer","Desktop or Laptop","Mac OS 10.15.7","Chrome 119.0.0.0","1512x982","1512x824",NA,NA,0,"Task",1,"DECFBGAHJI","Passed AC2",NA,"Spreadsheet1",1,"Task Instructions","Screen 4","spepx9",4,"continue","",2931.90199999851,2924.883,2931.90199999851,2931.90199999851,2924.883,2931.90199999851,1,2931.90199999851,0,0,NA,"Click To Continue","Continue Button",2,"object-9","Task Instructions",NA,"SUPPRF47263"
"6",1701281587600,"29/11/2023 18:13:07",1701281587600,0,"29/11/2023 18:13:07",154366,3,"task-psw4",NA,33303632,9860753,NA,"complete",NA,"65677c149b3b22c39c0b7b43","computer","Desktop or Laptop","Mac OS 10.15.7","Chrome 119.0.0.0","1512x982","1512x824",NA,NA,0,"Task",1,"DECFBGAHJI","Passed AC2",NA,"Spreadsheet1",1,"Task Instructions","Screen 5","8nvnao",5,"continue","",3137.707,3129.374,3137.707,3137.707,3129.374,3137.707,1,3137.707,0,0,NA,"Click To Continue","Continue Button",2,"object-44","Task Instructions",NA,"SUPPRF47263"
"7",1701281587603,"29/11/2023 18:13:07",1701281587603,0,"29/11/2023 18:13:07",154366,3,"task-psw4",NA,33303632,9860753,NA,"complete",NA,"65677c149b3b22c39c0b7b43","computer","Desktop or Laptop","Mac OS 10.15.7","Chrome 119.0.0.0","1512x982","1512x824",NA,NA,0,"Task",1,"DECFBGAHJI","Passed AC2",NA,"Spreadsheet1",NA,"","","",NA,"5","END",NA,NA,NA,NA,NA,NA,0,NA,NA,NA,NA,"","",NA,"","",NA,"SUPPRF47263"
"1",1701282769901,"29/11/2023 18:32:49",1701282769901,0,"29/11/2023 18:32:49",154366,3,"task-psw4",NA,33304123,9860848,NA,"complete",NA,"65677f11e0560086db012bb5","computer","Desktop or Laptop","Windows 10","Chrome 119.0.0.0","1920x1080","1920x923",NA,NA,0,"Task",1,"FGEHDICJBA","Passed AC2",NA,"Spreadsheet1",NA,"","","",NA,"5","BEGIN",NA,NA,NA,NA,NA,NA,0,NA,NA,NA,NA,"","",NA,"","",NA,"SUPPRF80291"
"2",1701282774646,"29/11/2023 18:32:54",1701282774646,0,"29/11/2023 18:32:54",154366,3,"task-psw4",NA,33304123,9860848,NA,"complete",NA,"65677f11e0560086db012bb5","computer","Desktop or Laptop","Windows 10","Chrome 119.0.0.0","1920x1080","1920x923",NA,NA,0,"Task",1,"FGEHDICJBA","Passed AC2",NA,"Spreadsheet1",1,"Task Instructions","Screen 1","anr7sn",1,"continue","",4661.727,4654.508,4661.727,4661.727,4654.508,4661.727,1,4661.727,0,0,NA,"Click To Continue","Continue Button",2,"object-1944","Task Instructions",NA,"SUPPRF80291"
"3",1701282802184,"29/11/2023 18:33:22",1701282802184,0,"29/11/2023 18:33:22",154366,3,"task-psw4",NA,33304123,9860848,NA,"complete",NA,"65677f11e0560086db012bb5","computer","Desktop or Laptop","Windows 10","Chrome 119.0.0.0","1920x1080","1920x923",NA,NA,0,"Task",1,"FGEHDICJBA","Passed AC2",NA,"Spreadsheet1",1,"Task Instructions","Screen 2","ce2tc8",2,"continue","",27545.3190000238,27536.607,27545.3190000238,27545.3190000238,27536.607,27545.3190000238,1,27545.3190000238,0,0,NA,"Click To Continue","Continue Button",2,"object-7","Task Instructions",NA,"SUPPRF80291"
"4",1701282824870,"29/11/2023 18:33:44",1701282824870,0,"29/11/2023 18:33:44",154366,3,"task-psw4",NA,33304123,9860848,NA,"complete",NA,"65677f11e0560086db012bb5","computer","Desktop or Laptop","Windows 10","Chrome 119.0.0.0","1920x1080","1920x923",NA,NA,0,"Task",1,"FGEHDICJBA","Passed AC2",NA,"Spreadsheet1",1,"Task Instructions","Screen 3","1qtc8v",3,"continue","",22694.8120000477,22686.528,22694.8120000477,22694.8120000477,22686.528,22694.8120000477,1,22694.8120000477,0,0,NA,"Click To Continue","Continue Button",2,"object-52","Task Instructions",NA,"SUPPRF80291"
"5",1701282975481,"29/11/2023 18:36:15",1701282975481,0,"29/11/2023 18:36:15",154366,3,"task-psw4",NA,33304123,9860848,NA,"complete",NA,"65677f11e0560086db012bb5","computer","Desktop or Laptop","Windows 10","Chrome 119.0.0.0","1920x1080","1920x923",NA,NA,0,"Task",1,"FGEHDICJBA","Passed AC2",NA,"Spreadsheet1",1,"Task Instructions","Screen 4","spepx9",4,"continue","",150619.072,150610.727,150619.072,150619.072,150610.727,150619.072,1,150619.072,0,0,NA,"Click To Continue","Continue Button",2,"object-9","Task Instructions",NA,"SUPPRF80291"
"6",1701282982610,"29/11/2023 18:36:22",1701282982610,0,"29/11/2023 18:36:22",154366,3,"task-psw4",NA,33304123,9860848,NA,"complete",NA,"65677f11e0560086db012bb5","computer","Desktop or Laptop","Windows 10","Chrome 119.0.0.0","1920x1080","1920x923",NA,NA,0,"Task",1,"FGEHDICJBA","Passed AC2",NA,"Spreadsheet1",1,"Task Instructions","Screen 5","8nvnao",5,"continue","",7137.65700007151,7131.85499999998,7137.65700007151,7137.65700007151,7131.85499999998,7137.65700007151,1,7137.65700007151,0,0,NA,"Click To Continue","Continue Button",2,"object-44","Task Instructions",NA,"SUPPRF80291"
"7",1701282982614,"29/11/2023 18:36:22",1701282982614,0,"29/11/2023 18:36:22",154366,3,"task-psw4",NA,33304123,9860848,NA,"complete",NA,"65677f11e0560086db012bb5","computer","Desktop or Laptop","Windows 10","Chrome 119.0.0.0","1920x1080","1920x923",NA,NA,0,"Task",1,"FGEHDICJBA","Passed AC2",NA,"Spreadsheet1",NA,"","","",NA,"5","END",NA,NA,NA,NA,NA,NA,0,NA,NA,NA,NA,"","",NA,"","",NA,"SUPPRF80291"
"1",1701283068835,"29/11/2023 18:37:48",1701283068835,0,"29/11/2023 18:37:48",154366,3,"task-psw4",NA,33304303,9860857,NA,"complete",NA,"65677eb013b2b84a4b31ef67","computer","Desktop or Laptop","Windows 10","Chrome 119.0.0.0","2560x1440","2560x1361",NA,NA,0,"Task",1,"HIGJFAEBDC","Passed AC2",NA,"Spreadsheet1",NA,"","","",NA,"5","BEGIN",NA,NA,NA,NA,NA,NA,0,NA,NA,NA,NA,"","",NA,"","",NA,"SUPPRF42417"
"2",1701283071874,"29/11/2023 18:37:51",1701283071874,0,"29/11/2023 18:37:51",154366,3,"task-psw4",NA,33304303,9860857,NA,"complete",NA,"65677eb013b2b84a4b31ef67","computer","Desktop or Laptop","Windows 10","Chrome 119.0.0.0","2560x1440","2560x1361",NA,NA,0,"Task",1,"HIGJFAEBDC","Passed AC2",NA,"Spreadsheet1",1,"Task Instructions","Screen 1","anr7sn",1,"continue","",2989.59900004768,2987.503,2989.59900004768,2989.59900004768,2987.503,2989.59900004768,1,2989.59900004768,0,0,NA,"Click To Continue","Continue Button",2,"object-1944","Task Instructions",NA,"SUPPRF42417"
"3",1701283082943,"29/11/2023 18:38:02",1701283082943,0,"29/11/2023 18:38:02",154366,3,"task-psw4",NA,33304303,9860857,NA,"complete",NA,"65677eb013b2b84a4b31ef67","computer","Desktop or Laptop","Windows 10","Chrome 119.0.0.0","2560x1440","2560x1361",NA,NA,0,"Task",1,"HIGJFAEBDC","Passed AC2",NA,"Spreadsheet1",1,"Task Instructions","Screen 2","ce2tc8",2,"continue","",11070.7960000358,11066.693,11070.7960000358,11070.7960000358,11066.693,11070.7960000358,1,11070.7960000358,0,0,NA,"Click To Continue","Continue Button",2,"object-7","Task Instructions",NA,"SUPPRF42417"
"4",1701283085881,"29/11/2023 18:38:05",1701283085881,0,"29/11/2023 18:38:05",154366,3,"task-psw4",NA,33304303,9860857,NA,"complete",NA,"65677eb013b2b84a4b31ef67","computer","Desktop or Laptop","Windows 10","Chrome 119.0.0.0","2560x1440","2560x1361",NA,NA,0,"Task",1,"HIGJFAEBDC","Passed AC2",NA,"Spreadsheet1",1,"Task Instructions","Screen 3","1qtc8v",3,"continue","",2942.10300003576,2941.674,2942.10300003576,2942.10300003576,2941.674,2942.10300003576,1,2942.10300003576,0,0,NA,"Click To Continue","Continue Button",2,"object-52","Task Instructions",NA,"SUPPRF42417"
"5",1701283089231,"29/11/2023 18:38:09",1701283089231,0,"29/11/2023 18:38:09",154366,3,"task-psw4",NA,33304303,9860857,NA,"complete",NA,"65677eb013b2b84a4b31ef67","computer","Desktop or Laptop","Windows 10","Chrome 119.0.0.0","2560x1440","2560x1361",NA,NA,0,"Task",1,"HIGJFAEBDC","Passed AC2",NA,"Spreadsheet1",1,"Task Instructions","Screen 4","spepx9",4,"continue","",3350.42900003576,3350.01,3350.42900003576,3350.42900003576,3350.01,3350.42900003576,1,3350.42900003576,0,0,NA,"Click To Continue","Continue Button",2,"object-9","Task Instructions",NA,"SUPPRF42417"
"6",1701283098174,"29/11/2023 18:38:18",1701283098174,0,"29/11/2023 18:38:18",154366,3,"task-psw4",NA,33304303,9860857,NA,"complete",NA,"65677eb013b2b84a4b31ef67","computer","Desktop or Laptop","Windows 10","Chrome 119.0.0.0","2560x1440","2560x1361",NA,NA,0,"Task",1,"HIGJFAEBDC","Passed AC2",NA,"Spreadsheet1",1,"Task Instructions","Screen 5","8nvnao",5,"continue","",8943.41900003576,8941.714,8943.41900003576,8943.41900003576,8941.714,8943.41900003576,1,8943.41900003576,0,0,NA,"Click To Continue","Continue Button",2,"object-44","Task Instructions",NA,"SUPPRF42417"
"7",1701283098175,"29/11/2023 18:38:18",1701283098175,0,"29/11/2023 18:38:18",154366,3,"task-psw4",NA,33304303,9860857,NA,"complete",NA,"65677eb013b2b84a4b31ef67","computer","Desktop or Laptop","Windows 10","Chrome 119.0.0.0","2560x1440","2560x1361",NA,NA,0,"Task",1,"HIGJFAEBDC","Passed AC2",NA,"Spreadsheet1",NA,"","","",NA,"5","END",NA,NA,NA,NA,NA,NA,0,NA,NA,NA,NA,"","",NA,"","",NA,"SUPPRF42417"
"1",1701283344833,"29/11/2023 18:42:24",1701283344833,0,"29/11/2023 18:42:24",154366,3,"task-psw4",NA,33304441,9861027,NA,"complete",NA,"6567847a53d73d303b831be3","computer","Desktop or Laptop","Mac OS 10.15.7","Chrome 117.0.0.0","1440x900","1440x783",NA,NA,0,"Task",1,"JAIBHCGDFE","Passed AC2",NA,"Spreadsheet1",NA,"","","",NA,"5","BEGIN",NA,NA,NA,NA,NA,NA,0,NA,NA,NA,NA,"","",NA,"","",NA,"SUPPRF79567"
"2",1701283347875,"29/11/2023 18:42:27",1701283347875,0,"29/11/2023 18:42:27",154366,3,"task-psw4",NA,33304441,9861027,NA,"complete",NA,"6567847a53d73d303b831be3","computer","Desktop or Laptop","Mac OS 10.15.7","Chrome 117.0.0.0","1440x900","1440x783",NA,NA,0,"Task",1,"JAIBHCGDFE","Passed AC2",NA,"Spreadsheet1",1,"Task Instructions","Screen 1","anr7sn",1,"continue","",2989.748,2983.214,2989.748,2989.748,2983.214,2989.748,1,2989.748,0,0,NA,"Click To Continue","Continue Button",2,"object-1944","Task Instructions",NA,"SUPPRF79567"
"3",1701283352942,"29/11/2023 18:42:32",1701283352942,0,"29/11/2023 18:42:32",154366,3,"task-psw4",NA,33304441,9861027,NA,"complete",NA,"6567847a53d73d303b831be3","computer","Desktop or Laptop","Mac OS 10.15.7","Chrome 117.0.0.0","1440x900","1440x783",NA,NA,0,"Task",1,"JAIBHCGDFE","Passed AC2",NA,"Spreadsheet1",1,"Task Instructions","Screen 2","ce2tc8",2,"continue","",5073.23400004768,5067.24,5073.23400004768,5073.23400004768,5067.24,5073.23400004768,1,5073.23400004768,0,0,NA,"Click To Continue","Continue Button",2,"object-7","Task Instructions",NA,"SUPPRF79567"
"4",1701283355808,"29/11/2023 18:42:35",1701283355808,0,"29/11/2023 18:42:35",154366,3,"task-psw4",NA,33304441,9861027,NA,"complete",NA,"6567847a53d73d303b831be3","computer","Desktop or Laptop","Mac OS 10.15.7","Chrome 117.0.0.0","1440x900","1440x783",NA,NA,0,"Task",1,"JAIBHCGDFE","Passed AC2",NA,"Spreadsheet1",1,"Task Instructions","Screen 3","1qtc8v",3,"continue","",2872.89400014305,2866.552,2872.89400014305,2872.89400014305,2866.552,2872.89400014305,1,2872.89400014305,0,0,NA,"Click To Continue","Continue Button",2,"object-52","Task Instructions",NA,"SUPPRF79567"
"5",1701283358725,"29/11/2023 18:42:38",1701283358725,0,"29/11/2023 18:42:38",154366,3,"task-psw4",NA,33304441,9861027,NA,"complete",NA,"6567847a53d73d303b831be3","computer","Desktop or Laptop","Mac OS 10.15.7","Chrome 117.0.0.0","1440x900","1440x783",NA,NA,0,"Task",1,"JAIBHCGDFE","Passed AC2",NA,"Spreadsheet1",1,"Task Instructions","Screen 4","spepx9",4,"continue","",2923.242,2916.55,2923.242,2923.242,2916.55,2923.242,1,2923.242,0,0,NA,"Click To Continue","Continue Button",2,"object-9","Task Instructions",NA,"SUPPRF79567"
"6",1701283361758,"29/11/2023 18:42:41",1701283361758,0,"29/11/2023 18:42:41",154366,3,"task-psw4",NA,33304441,9861027,NA,"complete",NA,"6567847a53d73d303b831be3","computer","Desktop or Laptop","Mac OS 10.15.7","Chrome 117.0.0.0","1440x900","1440x783",NA,NA,0,"Task",1,"JAIBHCGDFE","Passed AC2",NA,"Spreadsheet1",1,"Task Instructions","Screen 5","8nvnao",5,"continue","",3039.79200014305,3034.138,3039.79200014305,3039.79200014305,3034.138,3039.79200014305,1,3039.79200014305,0,0,NA,"Click To Continue","Continue Button",2,"object-44","Task Instructions",NA,"SUPPRF79567"
"7",1701283361759,"29/11/2023 18:42:41",1701283361759,0,"29/11/2023 18:42:41",154366,3,"task-psw4",NA,33304441,9861027,NA,"complete",NA,"6567847a53d73d303b831be3","computer","Desktop or Laptop","Mac OS 10.15.7","Chrome 117.0.0.0","1440x900","1440x783",NA,NA,0,"Task",1,"JAIBHCGDFE","Passed AC2",NA,"Spreadsheet1",NA,"","","",NA,"5","END",NA,NA,NA,NA,NA,NA,0,NA,NA,NA,NA,"","",NA,"","",NA,"SUPPRF79567"
"1",1701284456175,"29/11/2023 19:00:56",1701262856175,-6,"29/11/2023 07:00:56",154366,3,"task-psw4",NA,33305120,9861115,NA,"complete",NA,"6567879ce5d47bbeacb317a6","computer","Desktop or Laptop","Mac OS 10.15.7","Chrome 119.0.0.0","1440x900","1416x677",NA,NA,0,"Task",1,"BCADJEIFHG","Passed AC2",NA,"Spreadsheet1",NA,"","","",NA,"5","BEGIN",NA,NA,NA,NA,NA,NA,0,NA,NA,NA,NA,"","",NA,"","",NA,"SUPPRF79528"
"2",1701284460589,"29/11/2023 19:01:00",1701262860589,-6,"29/11/2023 07:01:00",154366,3,"task-psw4",NA,33305120,9861115,NA,"complete",NA,"6567879ce5d47bbeacb317a6","computer","Desktop or Laptop","Mac OS 10.15.7","Chrome 119.0.0.0","1440x900","1416x677",NA,NA,0,"Task",1,"BCADJEIFHG","Passed AC2",NA,"Spreadsheet1",1,"Task Instructions","Screen 1","anr7sn",1,"continue","",3766.516,3749.85,3766.516,3766.516,3749.85,3766.516,1,3766.516,0,0,NA,"Click To Continue","Continue Button",2,"object-1944","Task Instructions",NA,"SUPPRF79528"
"3",1701284470220,"29/11/2023 19:01:10",1701262870220,-6,"29/11/2023 07:01:10",154366,3,"task-psw4",NA,33305120,9861115,NA,"complete",NA,"6567879ce5d47bbeacb317a6","computer","Desktop or Laptop","Mac OS 10.15.7","Chrome 119.0.0.0","1440x900","1416x677",NA,NA,0,"Task",1,"BCADJEIFHG","Passed AC2",NA,"Spreadsheet1",1,"Task Instructions","Screen 2","ce2tc8",2,"continue","",9649.23599998808,9633.211,9649.23599998808,9649.23599998808,9633.211,9649.23599998808,1,9649.23599998808,0,0,NA,"Click To Continue","Continue Button",2,"object-7","Task Instructions",NA,"SUPPRF79528"
"4",1701284473388,"29/11/2023 19:01:13",1701262873388,-6,"29/11/2023 07:01:13",154366,3,"task-psw4",NA,33305120,9861115,NA,"complete",NA,"6567879ce5d47bbeacb317a6","computer","Desktop or Laptop","Mac OS 10.15.7","Chrome 119.0.0.0","1440x900","1416x677",NA,NA,0,"Task",1,"BCADJEIFHG","Passed AC2",NA,"Spreadsheet1",1,"Task Instructions","Screen 3","1qtc8v",3,"continue","",3183.206,3166.54,3183.206,3183.206,3166.54,3183.206,1,3183.206,0,0,NA,"Click To Continue","Continue Button",2,"object-52","Task Instructions",NA,"SUPPRF79528"
"5",1701284482727,"29/11/2023 19:01:22",1701262882727,-6,"29/11/2023 07:01:22",154366,3,"task-psw4",NA,33305120,9861115,NA,"complete",NA,"6567879ce5d47bbeacb317a6","computer","Desktop or Laptop","Mac OS 10.15.7","Chrome 119.0.0.0","1440x900","1416x677",NA,NA,0,"Task",1,"BCADJEIFHG","Passed AC2",NA,"Spreadsheet1",1,"Task Instructions","Screen 4","spepx9",4,"continue","",9356.48499998808,9349.888,9356.48499998808,9356.48499998808,9349.888,9356.48499998808,1,9356.48499998808,0,0,NA,"Click To Continue","Continue Button",2,"object-9","Task Instructions",NA,"SUPPRF79528"
"6",1701284486079,"29/11/2023 19:01:26",1701262886079,-6,"29/11/2023 07:01:26",154366,3,"task-psw4",NA,33305120,9861115,NA,"complete",NA,"6567879ce5d47bbeacb317a6","computer","Desktop or Laptop","Mac OS 10.15.7","Chrome 119.0.0.0","1440x900","1416x677",NA,NA,0,"Task",1,"BCADJEIFHG","Passed AC2",NA,"Spreadsheet1",1,"Task Instructions","Screen 5","8nvnao",5,"continue","",3358.19700001192,3350.129,3358.19700001192,3358.19700001192,3350.129,3358.19700001192,1,3358.19700001192,0,0,NA,"Click To Continue","Continue Button",2,"object-44","Task Instructions",NA,"SUPPRF79528"
"7",1701284486081,"29/11/2023 19:01:26",1701262886081,-6,"29/11/2023 07:01:26",154366,3,"task-psw4",NA,33305120,9861115,NA,"complete",NA,"6567879ce5d47bbeacb317a6","computer","Desktop or Laptop","Mac OS 10.15.7","Chrome 119.0.0.0","1440x900","1416x677",NA,NA,0,"Task",1,"BCADJEIFHG","Passed AC2",NA,"Spreadsheet1",NA,"","","",NA,"5","END",NA,NA,NA,NA,NA,NA,0,NA,NA,NA,NA,"","",NA,"","",NA,"SUPPRF79528"
"1",1701285463903,"29/11/2023 19:17:43",1701285463903,0,"29/11/2023 19:17:43",154366,3,"task-psw4",NA,33305937,9861336,NA,"complete",NA,"65678c1c21dd37d57dd05676","computer","Desktop or Laptop","Mac OS 10.15.7","Chrome 119.0.0.0","1440x900","1440x779",NA,NA,0,"Task",1,"DECFBGAHJI","Passed AC2",NA,"Spreadsheet1",NA,"","","",NA,"5","BEGIN",NA,NA,NA,NA,NA,NA,0,NA,NA,NA,NA,"","",NA,"","",NA,"SUPPRF39307"
"2",1701285468332,"29/11/2023 19:17:48",1701285468332,0,"29/11/2023 19:17:48",154366,3,"task-psw4",NA,33305937,9861336,NA,"complete",NA,"65678c1c21dd37d57dd05676","computer","Desktop or Laptop","Mac OS 10.15.7","Chrome 119.0.0.0","1440x900","1440x779",NA,NA,0,"Task",1,"DECFBGAHJI","Passed AC2",NA,"Spreadsheet1",1,"Task Instructions","Screen 1","anr7sn",1,"continue","",4124.8699994278,4116.502,4124.8699994278,4124.8699994278,4116.502,4124.8699994278,1,4124.8699994278,0,0,NA,"Click To Continue","Continue Button",2,"object-1944","Task Instructions",NA,"SUPPRF39307"
"3",1701285486865,"29/11/2023 19:18:06",1701285486865,0,"29/11/2023 19:18:06",154366,3,"task-psw4",NA,33305937,9861336,NA,"complete",NA,"65678c1c21dd37d57dd05676","computer","Desktop or Laptop","Mac OS 10.15.7","Chrome 119.0.0.0","1440x900","1440x779",NA,NA,0,"Task",1,"DECFBGAHJI","Passed AC2",NA,"Spreadsheet1",1,"Task Instructions","Screen 2","ce2tc8",2,"continue","",18541.9679998093,18533.524,18541.9679998093,18541.9679998093,18533.524,18541.9679998093,1,18541.9679998093,0,0,NA,"Click To Continue","Continue Button",2,"object-7","Task Instructions",NA,"SUPPRF39307"
"4",1701285493047,"29/11/2023 19:18:13",1701285493047,0,"29/11/2023 19:18:13",154366,3,"task-psw4",NA,33305937,9861336,NA,"complete",NA,"65678c1c21dd37d57dd05676","computer","Desktop or Laptop","Mac OS 10.15.7","Chrome 119.0.0.0","1440x900","1440x779",NA,NA,0,"Task",1,"DECFBGAHJI","Passed AC2",NA,"Spreadsheet1",1,"Task Instructions","Screen 3","1qtc8v",3,"continue","",6190.64399961853,6183.438,6190.64399961853,6190.64399961853,6183.438,6190.64399961853,1,6190.64399961853,0,0,NA,"Click To Continue","Continue Button",2,"object-52","Task Instructions",NA,"SUPPRF39307"
"5",1701285496180,"29/11/2023 19:18:16",1701285496180,0,"29/11/2023 19:18:16",154366,3,"task-psw4",NA,33305937,9861336,NA,"complete",NA,"65678c1c21dd37d57dd05676","computer","Desktop or Laptop","Mac OS 10.15.7","Chrome 119.0.0.0","1440x900","1440x779",NA,NA,0,"Task",1,"DECFBGAHJI","Passed AC2",NA,"Spreadsheet1",1,"Task Instructions","Screen 4","spepx9",4,"continue","",3140.4059994278,3133.208,3140.4059994278,3140.4059994278,3133.208,3140.4059994278,1,3140.4059994278,0,0,NA,"Click To Continue","Continue Button",2,"object-9","Task Instructions",NA,"SUPPRF39307"
"6",1701285499681,"29/11/2023 19:18:19",1701285499681,0,"29/11/2023 19:18:19",154366,3,"task-psw4",NA,33305937,9861336,NA,"complete",NA,"65678c1c21dd37d57dd05676","computer","Desktop or Laptop","Mac OS 10.15.7","Chrome 119.0.0.0","1440x900","1440x779",NA,NA,0,"Task",1,"DECFBGAHJI","Passed AC2",NA,"Spreadsheet1",1,"Task Instructions","Screen 5","8nvnao",5,"continue","",3507.598,3499.86,3507.598,3507.598,3499.86,3507.598,1,3507.598,0,0,NA,"Click To Continue","Continue Button",2,"object-44","Task Instructions",NA,"SUPPRF39307"
"7",1701285499685,"29/11/2023 19:18:19",1701285499685,0,"29/11/2023 19:18:19",154366,3,"task-psw4",NA,33305937,9861336,NA,"complete",NA,"65678c1c21dd37d57dd05676","computer","Desktop or Laptop","Mac OS 10.15.7","Chrome 119.0.0.0","1440x900","1440x779",NA,NA,0,"Task",1,"DECFBGAHJI","Passed AC2",NA,"Spreadsheet1",NA,"","","",NA,"5","END",NA,NA,NA,NA,NA,NA,0,NA,NA,NA,NA,"","",NA,"","",NA,"SUPPRF39307"
"1",1701285933693,"29/11/2023 19:25:33",1701264333693,-6,"29/11/2023 07:25:33",154366,3,"task-psw4",NA,33306262,9861333,NA,"complete",NA,"65678bbcbfc497603a098e9f","computer","Desktop or Laptop","Windows 10","Chrome 119.0.0.0","1442x757","1440x753",NA,NA,0,"Task",1,"CDBEAFJGIH","Passed AC2",NA,"Spreadsheet1",NA,"","","",NA,"5","BEGIN",NA,NA,NA,NA,NA,NA,0,NA,NA,NA,NA,"","",NA,"","",NA,"SUPPRF16774"
"2",1701285936874,"29/11/2023 19:25:36",1701264336874,-6,"29/11/2023 07:25:36",154366,3,"task-psw4",NA,33306262,9861333,NA,"complete",NA,"65678bbcbfc497603a098e9f","computer","Desktop or Laptop","Windows 10","Chrome 119.0.0.0","1442x757","1440x753",NA,NA,0,"Task",1,"CDBEAFJGIH","Passed AC2",NA,"Spreadsheet1",1,"Task Instructions","Screen 1","anr7sn",1,"continue","",3007,3000,3007,3007,3000,3007,1,3007,0,0,NA,"Click To Continue","Continue Button",2,"object-1944","Task Instructions",NA,"SUPPRF16774"
"3",1701285941315,"29/11/2023 19:25:41",1701264341315,-6,"29/11/2023 07:25:41",154366,3,"task-psw4",NA,33306262,9861333,NA,"complete",NA,"65678bbcbfc497603a098e9f","computer","Desktop or Laptop","Windows 10","Chrome 119.0.0.0","1442x757","1440x753",NA,NA,0,"Task",1,"CDBEAFJGIH","Passed AC2",NA,"Spreadsheet1",1,"Task Instructions","Screen 2","ce2tc8",2,"continue","",4447,4433,4447,4447,4433,4447,1,4447,0,0,NA,"Click To Continue","Continue Button",2,"object-7","Task Instructions",NA,"SUPPRF16774"
"4",1701285945320,"29/11/2023 19:25:45",1701264345320,-6,"29/11/2023 07:25:45",154366,3,"task-psw4",NA,33306262,9861333,NA,"complete",NA,"65678bbcbfc497603a098e9f","computer","Desktop or Laptop","Windows 10","Chrome 119.0.0.0","1442x757","1440x753",NA,NA,0,"Task",1,"CDBEAFJGIH","Passed AC2",NA,"Spreadsheet1",1,"Task Instructions","Screen 3","1qtc8v",3,"continue","",4019,4017,4019,4019,4017,4019,1,4019,0,0,NA,"Click To Continue","Continue Button",2,"object-52","Task Instructions",NA,"SUPPRF16774"
"5",1701285948056,"29/11/2023 19:25:48",1701264348056,-6,"29/11/2023 07:25:48",154366,3,"task-psw4",NA,33306262,9861333,NA,"complete",NA,"65678bbcbfc497603a098e9f","computer","Desktop or Laptop","Windows 10","Chrome 119.0.0.0","1442x757","1440x753",NA,NA,0,"Task",1,"CDBEAFJGIH","Passed AC2",NA,"Spreadsheet1",1,"Task Instructions","Screen 4","spepx9",4,"continue","",2739,2733,2739,2739,2733,2739,1,2739,0,0,NA,"Click To Continue","Continue Button",2,"object-9","Task Instructions",NA,"SUPPRF16774"
"6",1701285950848,"29/11/2023 19:25:50",1701264350848,-6,"29/11/2023 07:25:50",154366,3,"task-psw4",NA,33306262,9861333,NA,"complete",NA,"65678bbcbfc497603a098e9f","computer","Desktop or Laptop","Windows 10","Chrome 119.0.0.0","1442x757","1440x753",NA,NA,0,"Task",1,"CDBEAFJGIH","Passed AC2",NA,"Spreadsheet1",1,"Task Instructions","Screen 5","8nvnao",5,"continue","",2798,2783,2798,2798,2783,2798,1,2798,0,0,NA,"Click To Continue","Continue Button",2,"object-44","Task Instructions",NA,"SUPPRF16774"
"7",1701285950852,"29/11/2023 19:25:50",1701264350852,-6,"29/11/2023 07:25:50",154366,3,"task-psw4",NA,33306262,9861333,NA,"complete",NA,"65678bbcbfc497603a098e9f","computer","Desktop or Laptop","Windows 10","Chrome 119.0.0.0","1442x757","1440x753",NA,NA,0,"Task",1,"CDBEAFJGIH","Passed AC2",NA,"Spreadsheet1",NA,"","","",NA,"5","END",NA,NA,NA,NA,NA,NA,0,NA,NA,NA,NA,"","",NA,"","",NA,"SUPPRF16774"
"1",1701286569351,"29/11/2023 19:36:09",1701257769351,-8,"29/11/2023 03:36:09",154366,3,"task-psw4",NA,33306571,9861419,NA,"complete",NA,"65678e9eab63379c5388dfa4","computer","Desktop or Laptop","Windows 10","Chrome 119.0.0.0","1927x943","1920x941",NA,NA,0,"Task",1,"EFDGCHBIAJ","Passed AC2",NA,"Spreadsheet1",NA,"","","",NA,"5","BEGIN",NA,NA,NA,NA,NA,NA,0,NA,NA,NA,NA,"","",NA,"","",NA,"SUPPRF50800"
"2",1701286572747,"29/11/2023 19:36:12",1701257772747,-8,"29/11/2023 03:36:12",154366,3,"task-psw4",NA,33306571,9861419,NA,"complete",NA,"65678e9eab63379c5388dfa4","computer","Desktop or Laptop","Windows 10","Chrome 119.0.0.0","1927x943","1920x941",NA,NA,0,"Task",1,"EFDGCHBIAJ","Passed AC2",NA,"Spreadsheet1",1,"Task Instructions","Screen 1","anr7sn",1,"continue","",3044,3034,3044,3044,3034,3044,1,3044,0,0,NA,"Click To Continue","Continue Button",2,"object-1944","Task Instructions",NA,"SUPPRF50800"
"3",1701286585520,"29/11/2023 19:36:25",1701257785520,-8,"29/11/2023 03:36:25",154366,3,"task-psw4",NA,33306571,9861419,NA,"complete",NA,"65678e9eab63379c5388dfa4","computer","Desktop or Laptop","Windows 10","Chrome 119.0.0.0","1927x943","1920x941",NA,NA,0,"Task",1,"EFDGCHBIAJ","Passed AC2",NA,"Spreadsheet1",1,"Task Instructions","Screen 2","ce2tc8",2,"continue","",12783,12766,12783,12783,12766,12783,1,12783,0,0,NA,"Click To Continue","Continue Button",2,"object-7","Task Instructions",NA,"SUPPRF50800"
"4",1701286589019,"29/11/2023 19:36:29",1701257789019,-8,"29/11/2023 03:36:29",154366,3,"task-psw4",NA,33306571,9861419,NA,"complete",NA,"65678e9eab63379c5388dfa4","computer","Desktop or Laptop","Windows 10","Chrome 119.0.0.0","1927x943","1920x941",NA,NA,0,"Task",1,"EFDGCHBIAJ","Passed AC2",NA,"Spreadsheet1",1,"Task Instructions","Screen 3","1qtc8v",3,"continue","",3515,3499,3515,3515,3499,3515,1,3515,0,0,NA,"Click To Continue","Continue Button",2,"object-52","Task Instructions",NA,"SUPPRF50800"
"5",1701286595029,"29/11/2023 19:36:35",1701257795029,-8,"29/11/2023 03:36:35",154366,3,"task-psw4",NA,33306571,9861419,NA,"complete",NA,"65678e9eab63379c5388dfa4","computer","Desktop or Laptop","Windows 10","Chrome 119.0.0.0","1927x943","1920x941",NA,NA,0,"Task",1,"EFDGCHBIAJ","Passed AC2",NA,"Spreadsheet1",1,"Task Instructions","Screen 4","spepx9",4,"continue","",6027,6017,6027,6027,6017,6027,1,6027,0,0,NA,"Click To Continue","Continue Button",2,"object-9","Task Instructions",NA,"SUPPRF50800"
"6",1701286597778,"29/11/2023 19:36:37",1701257797778,-8,"29/11/2023 03:36:37",154366,3,"task-psw4",NA,33306571,9861419,NA,"complete",NA,"65678e9eab63379c5388dfa4","computer","Desktop or Laptop","Windows 10","Chrome 119.0.0.0","1927x943","1920x941",NA,NA,0,"Task",1,"EFDGCHBIAJ","Passed AC2",NA,"Spreadsheet1",1,"Task Instructions","Screen 5","8nvnao",5,"continue","",2759,2750,2759,2759,2750,2759,1,2759,0,0,NA,"Click To Continue","Continue Button",2,"object-44","Task Instructions",NA,"SUPPRF50800"
"7",1701286597781,"29/11/2023 19:36:37",1701257797781,-8,"29/11/2023 03:36:37",154366,3,"task-psw4",NA,33306571,9861419,NA,"complete",NA,"65678e9eab63379c5388dfa4","computer","Desktop or Laptop","Windows 10","Chrome 119.0.0.0","1927x943","1920x941",NA,NA,0,"Task",1,"EFDGCHBIAJ","Passed AC2",NA,"Spreadsheet1",NA,"","","",NA,"5","END",NA,NA,NA,NA,NA,NA,0,NA,NA,NA,NA,"","",NA,"","",NA,"SUPPRF50800"
"1",1701287234699,"29/11/2023 19:47:14",1701269234699,-5,"29/11/2023 09:47:14",154366,3,"task-psw4",NA,33307122,9861535,NA,"complete",NA,"656791bfcfaa2c35b71a697e","computer","Desktop or Laptop","Mac OS 10.15.7","Chrome 118.0.0.0","1440x900","1440x815",NA,NA,0,"Task",1,"GHFIEJDACB","Passed AC2",NA,"Spreadsheet1",NA,"","","",NA,"5","BEGIN",NA,NA,NA,NA,NA,NA,0,NA,NA,NA,NA,"","",NA,"","",NA,"SUPPRF59946"
"2",1701287239242,"29/11/2023 19:47:19",1701269239242,-5,"29/11/2023 09:47:19",154366,3,"task-psw4",NA,33307122,9861535,NA,"complete",NA,"656791bfcfaa2c35b71a697e","computer","Desktop or Laptop","Mac OS 10.15.7","Chrome 118.0.0.0","1440x900","1440x815",NA,NA,0,"Task",1,"GHFIEJDACB","Passed AC2",NA,"Spreadsheet1",1,"Task Instructions","Screen 1","anr7sn",1,"continue","",3913.639,3899.844,3913.639,3913.639,3899.844,3913.639,1,3913.639,0,0,NA,"Click To Continue","Continue Button",2,"object-1944","Task Instructions",NA,"SUPPRF59946"
"3",1701287254773,"29/11/2023 19:47:34",1701269254773,-5,"29/11/2023 09:47:34",154366,3,"task-psw4",NA,33307122,9861535,NA,"complete",NA,"656791bfcfaa2c35b71a697e","computer","Desktop or Laptop","Mac OS 10.15.7","Chrome 118.0.0.0","1440x900","1440x815",NA,NA,0,"Task",1,"GHFIEJDACB","Passed AC2",NA,"Spreadsheet1",1,"Task Instructions","Screen 2","ce2tc8",2,"continue","",15545.295,15531.37,15545.295,15545.295,15531.37,15545.295,1,15545.295,0,0,NA,"Click To Continue","Continue Button",2,"object-7","Task Instructions",NA,"SUPPRF59946"
"4",1701287258510,"29/11/2023 19:47:38",1701269258510,-5,"29/11/2023 09:47:38",154366,3,"task-psw4",NA,33307122,9861535,NA,"complete",NA,"656791bfcfaa2c35b71a697e","computer","Desktop or Laptop","Mac OS 10.15.7","Chrome 118.0.0.0","1440x900","1440x815",NA,NA,0,"Task",1,"GHFIEJDACB","Passed AC2",NA,"Spreadsheet1",1,"Task Instructions","Screen 3","1qtc8v",3,"continue","",3749.84999999999,3733.184,3749.84999999999,3749.84999999999,3733.184,3749.84999999999,1,3749.84999999999,0,0,NA,"Click To Continue","Continue Button",2,"object-52","Task Instructions",NA,"SUPPRF59946"
"5",1701287262834,"29/11/2023 19:47:42",1701269262834,-5,"29/11/2023 09:47:42",154366,3,"task-psw4",NA,33307122,9861535,NA,"complete",NA,"656791bfcfaa2c35b71a697e","computer","Desktop or Laptop","Mac OS 10.15.7","Chrome 118.0.0.0","1440x900","1440x815",NA,NA,0,"Task",1,"GHFIEJDACB","Passed AC2",NA,"Spreadsheet1",1,"Task Instructions","Screen 4","spepx9",4,"continue","",4342.34099990463,4334.527,4342.34099990463,4342.34099990463,4334.527,4342.34099990463,1,4342.34099990463,0,0,NA,"Click To Continue","Continue Button",2,"object-9","Task Instructions",NA,"SUPPRF59946"
"6",1701287287750,"29/11/2023 19:48:07",1701269287750,-5,"29/11/2023 09:48:07",154366,3,"task-psw4",NA,33307122,9861535,NA,"complete",NA,"656791bfcfaa2c35b71a697e","computer","Desktop or Laptop","Mac OS 10.15.7","Chrome 118.0.0.0","1440x900","1440x815",NA,NA,0,"Task",1,"GHFIEJDACB","Passed AC2",NA,"Spreadsheet1",1,"Task Instructions","Screen 5","8nvnao",5,"continue","",24922.8139999046,24913.344,24922.8139999046,24922.8139999046,24913.344,24922.8139999046,1,24922.8139999046,0,0,NA,"Click To Continue","Continue Button",2,"object-44","Task Instructions",NA,"SUPPRF59946"
"7",1701287287757,"29/11/2023 19:48:07",1701269287757,-5,"29/11/2023 09:48:07",154366,3,"task-psw4",NA,33307122,9861535,NA,"complete",NA,"656791bfcfaa2c35b71a697e","computer","Desktop or Laptop","Mac OS 10.15.7","Chrome 118.0.0.0","1440x900","1440x815",NA,NA,0,"Task",1,"GHFIEJDACB","Passed AC2",NA,"Spreadsheet1",NA,"","","",NA,"5","END",NA,NA,NA,NA,NA,NA,0,NA,NA,NA,NA,"","",NA,"","",NA,"SUPPRF59946"
"1",1701287295947,"29/11/2023 19:48:15",1701287295947,0,"29/11/2023 19:48:15",154366,3,"task-psw4",NA,33307178,9861596,NA,"complete",NA,"65679361965e6ca688f5576f","computer","Desktop or Laptop","Linux x86_64","Chrome 119.0.0.0","432x984","852x1691",NA,NA,0,"Task",1,"HIGJFAEBDC","Passed AC2",NA,"Spreadsheet1",NA,"","","",NA,"5","BEGIN",NA,NA,NA,NA,NA,NA,0,NA,NA,NA,NA,"","",NA,"","",NA,"SUPPRF47480"
"2",1701287298816,"29/11/2023 19:48:18",1701287298816,0,"29/11/2023 19:48:18",154366,3,"task-psw4",NA,33307178,9861596,NA,"complete",NA,"65679361965e6ca688f5576f","computer","Desktop or Laptop","Linux x86_64","Chrome 119.0.0.0","432x984","852x1691",NA,NA,0,"Task",1,"HIGJFAEBDC","Passed AC2",NA,"Spreadsheet1",1,"Task Instructions","Screen 1","anr7sn",1,"continue","",2792.57599997616,2781.694,2792.57599997616,2792.57599997616,2781.694,2792.57599997616,1,2792.57599997616,0,0,NA,"Click To Continue","Continue Button",2,"object-1944","Task Instructions",NA,"SUPPRF47480"
"3",1701287308538,"29/11/2023 19:48:28",1701287308538,0,"29/11/2023 19:48:28",154366,3,"task-psw4",NA,33307178,9861596,NA,"complete",NA,"65679361965e6ca688f5576f","computer","Desktop or Laptop","Linux x86_64","Chrome 119.0.0.0","432x984","852x1691",NA,NA,0,"Task",1,"HIGJFAEBDC","Passed AC2",NA,"Spreadsheet1",1,"Task Instructions","Screen 2","ce2tc8",2,"continue","",9733.88199997616,9727.725,9733.88199997616,9733.88199997616,9727.725,9733.88199997616,1,9733.88199997616,0,0,NA,"Click To Continue","Continue Button",2,"object-7","Task Instructions",NA,"SUPPRF47480"
"4",1701287322543,"29/11/2023 19:48:42",1701287322543,0,"29/11/2023 19:48:42",154366,3,"task-psw4",NA,33307178,9861596,NA,"complete",NA,"65679361965e6ca688f5576f","computer","Desktop or Laptop","Linux x86_64","Chrome 119.0.0.0","432x984","852x1691",NA,NA,0,"Task",1,"HIGJFAEBDC","Passed AC2",NA,"Spreadsheet1",1,"Task Instructions","Screen 3","1qtc8v",3,"continue","",14009.145,13992.476,14009.145,14009.145,13992.476,14009.145,1,14009.145,0,0,NA,"Click To Continue","Continue Button",2,"object-52","Task Instructions",NA,"SUPPRF47480"
"5",1701287533514,"29/11/2023 19:52:13",1701287533514,0,"29/11/2023 19:52:13",154366,3,"task-psw4",NA,33307178,9861596,NA,"complete",NA,"65679361965e6ca688f5576f","computer","Desktop or Laptop","Linux x86_64","Chrome 119.0.0.0","432x984","852x1691",NA,NA,0,"Task",1,"HIGJFAEBDC","Passed AC2",NA,"Spreadsheet1",1,"Task Instructions","Screen 4","spepx9",4,"continue","",210989.180999976,210976.607,210989.180999976,210989.180999976,210976.607,210989.180999976,1,210989.180999976,0,0,NA,"Click To Continue","Continue Button",2,"object-9","Task Instructions",NA,"SUPPRF47480"
"6",1701287628749,"29/11/2023 19:53:48",1701287628749,0,"29/11/2023 19:53:48",154366,3,"task-psw4",NA,33307178,9861596,NA,"complete",NA,"65679361965e6ca688f5576f","computer","Desktop or Laptop","Linux x86_64","Chrome 119.0.0.0","984x432","852x298",NA,NA,0,"Task",1,"HIGJFAEBDC","Passed AC2",NA,"Spreadsheet1",1,"Task Instructions","Screen 5","8nvnao",5,"continue","",95245.658,95228.974,95245.658,95245.658,95228.974,95245.658,1,95245.658,0,0,NA,"Click To Continue","Continue Button",2,"object-44","Task Instructions",NA,"SUPPRF47480"
"7",1701287628769,"29/11/2023 19:53:48",1701287628769,0,"29/11/2023 19:53:48",154366,3,"task-psw4",NA,33307178,9861596,NA,"complete",NA,"65679361965e6ca688f5576f","computer","Desktop or Laptop","Linux x86_64","Chrome 119.0.0.0","984x432","852x298",NA,NA,0,"Task",1,"HIGJFAEBDC","Passed AC2",NA,"Spreadsheet1",NA,"","","",NA,"5","END",NA,NA,NA,NA,NA,NA,0,NA,NA,NA,NA,"","",NA,"","",NA,"SUPPRF47480"
"1",1701287677139,"29/11/2023 19:54:37",1701291277139,1,"29/11/2023 21:54:37",154366,3,"task-psw4",NA,33307491,9861681,NA,"complete",NA,"6567932ae5d47bbeacb31a17","computer","Desktop or Laptop","Mac OS 10.15.4","Chrome 88.0.4324.96","1440x900","1209x713",NA,NA,0,"Task",1,"IJHAGBFCED","Passed AC2",NA,"Spreadsheet1",NA,"","","",NA,"5","BEGIN",NA,NA,NA,NA,NA,NA,0,NA,NA,NA,NA,"","",NA,"","",NA,"SUPPRF13830"
"2",1701287703439,"29/11/2023 19:55:03",1701291303439,1,"29/11/2023 21:55:03",154366,3,"task-psw4",NA,33307491,9861681,NA,"complete",NA,"6567932ae5d47bbeacb31a17","computer","Desktop or Laptop","Mac OS 10.15.4","Chrome 88.0.4324.96","1440x900","1209x713",NA,NA,0,"Task",1,"IJHAGBFCED","Passed AC2",NA,"Spreadsheet1",1,"Task Instructions","Screen 1","anr7sn",1,"continue","",26168.25,26153.297,26168.25,26168.25,26153.297,26168.25,1,26168.25,0,0,NA,"Click To Continue","Continue Button",2,"object-1944","Task Instructions",NA,"SUPPRF13830"
"3",1701287712495,"29/11/2023 19:55:12",1701291312495,1,"29/11/2023 21:55:12",154366,3,"task-psw4",NA,33307491,9861681,NA,"complete",NA,"6567932ae5d47bbeacb31a17","computer","Desktop or Laptop","Mac OS 10.15.4","Chrome 88.0.4324.96","1440x900","1209x713",NA,NA,0,"Task",1,"IJHAGBFCED","Passed AC2",NA,"Spreadsheet1",1,"Task Instructions","Screen 2","ce2tc8",2,"continue","",9071.61800000003,9057.362,9071.61800000003,9071.61800000003,9057.362,9071.61800000003,1,9071.61800000003,0,0,NA,"Click To Continue","Continue Button",2,"object-7","Task Instructions",NA,"SUPPRF13830"
"4",1701287715729,"29/11/2023 19:55:15",1701291315729,1,"29/11/2023 21:55:15",154366,3,"task-psw4",NA,33307491,9861681,NA,"complete",NA,"6567932ae5d47bbeacb31a17","computer","Desktop or Laptop","Mac OS 10.15.4","Chrome 88.0.4324.96","1440x900","1209x713",NA,NA,0,"Task",1,"IJHAGBFCED","Passed AC2",NA,"Spreadsheet1",1,"Task Instructions","Screen 3","1qtc8v",3,"continue","",3248.06599999998,3241.934,3248.06599999998,3248.06599999998,3241.934,3248.06599999998,1,3248.06599999998,0,0,NA,"Click To Continue","Continue Button",2,"object-52","Task Instructions",NA,"SUPPRF13830"
"5",1701287718416,"29/11/2023 19:55:18",1701291318416,1,"29/11/2023 21:55:18",154366,3,"task-psw4",NA,33307491,9861681,NA,"complete",NA,"6567932ae5d47bbeacb31a17","computer","Desktop or Laptop","Mac OS 10.15.4","Chrome 88.0.4324.96","1440x900","1209x713",NA,NA,0,"Task",1,"IJHAGBFCED","Passed AC2",NA,"Spreadsheet1",1,"Task Instructions","Screen 4","spepx9",4,"continue","",2692.87200000008,2690.677,2692.87200000008,2692.87200000008,2690.677,2692.87200000008,1,2692.87200000008,0,0,NA,"Click To Continue","Continue Button",2,"object-9","Task Instructions",NA,"SUPPRF13830"
"6",1701287721645,"29/11/2023 19:55:21",1701291321645,1,"29/11/2023 21:55:21",154366,3,"task-psw4",NA,33307491,9861681,NA,"complete",NA,"6567932ae5d47bbeacb31a17","computer","Desktop or Laptop","Mac OS 10.15.4","Chrome 88.0.4324.96","1440x900","1209x713",NA,NA,0,"Task",1,"IJHAGBFCED","Passed AC2",NA,"Spreadsheet1",1,"Task Instructions","Screen 5","8nvnao",5,"continue","",3231.14500000003,3225.223,3231.14500000003,3231.14500000003,3225.223,3231.14500000003,1,3231.14500000003,0,0,NA,"Click To Continue","Continue Button",2,"object-44","Task Instructions",NA,"SUPPRF13830"
"7",1701287721653,"29/11/2023 19:55:21",1701291321653,1,"29/11/2023 21:55:21",154366,3,"task-psw4",NA,33307491,9861681,NA,"complete",NA,"6567932ae5d47bbeacb31a17","computer","Desktop or Laptop","Mac OS 10.15.4","Chrome 88.0.4324.96","1440x900","1209x713",NA,NA,0,"Task",1,"IJHAGBFCED","Passed AC2",NA,"Spreadsheet1",NA,"","","",NA,"5","END",NA,NA,NA,NA,NA,NA,0,NA,NA,NA,NA,"","",NA,"","",NA,"SUPPRF13830"
"1",1701287950951,"29/11/2023 19:59:10",1701269950951,-5,"29/11/2023 09:59:10",154366,3,"task-psw4",NA,33307756,9861729,NA,"complete",NA,"656794a49c446679ee5a9458","computer","Desktop or Laptop","Windows 10","Chrome 119.0.0.0","1366x768","1366x641",NA,NA,0,"Task",1,"ABJCIDHEGF","Passed AC2",NA,"Spreadsheet1",NA,"","","",NA,"5","BEGIN",NA,NA,NA,NA,NA,NA,0,NA,NA,NA,NA,"","",NA,"","",NA,"SUPPRF78219"
"2",1701287954195,"29/11/2023 19:59:14",1701269954195,-5,"29/11/2023 09:59:14",154366,3,"task-psw4",NA,33307756,9861729,NA,"complete",NA,"656794a49c446679ee5a9458","computer","Desktop or Laptop","Windows 10","Chrome 119.0.0.0","1366x768","1366x641",NA,NA,0,"Task",1,"ABJCIDHEGF","Passed AC2",NA,"Spreadsheet1",1,"Task Instructions","Screen 1","anr7sn",1,"continue","",3185.078,3181.949,3185.078,3185.078,3181.949,3185.078,1,3185.078,0,0,NA,"Click To Continue","Continue Button",2,"object-1944","Task Instructions",NA,"SUPPRF78219"
"3",1701287956659,"29/11/2023 19:59:16",1701269956659,-5,"29/11/2023 09:59:16",154366,3,"task-psw4",NA,33307756,9861729,NA,"complete",NA,"656794a49c446679ee5a9458","computer","Desktop or Laptop","Windows 10","Chrome 119.0.0.0","1366x768","1366x641",NA,NA,0,"Task",1,"ABJCIDHEGF","Passed AC2",NA,"Spreadsheet1",1,"Task Instructions","Screen 2","ce2tc8",2,"continue","",2467.92899995232,2465.609,2467.92899995232,2467.92899995232,2465.609,2467.92899995232,1,2467.92899995232,0,0,NA,"Click To Continue","Continue Button",2,"object-7","Task Instructions",NA,"SUPPRF78219"
"4",1701287959411,"29/11/2023 19:59:19",1701269959411,-5,"29/11/2023 09:59:19",154366,3,"task-psw4",NA,33307756,9861729,NA,"complete",NA,"656794a49c446679ee5a9458","computer","Desktop or Laptop","Windows 10","Chrome 119.0.0.0","1366x768","1366x641",NA,NA,0,"Task",1,"ABJCIDHEGF","Passed AC2",NA,"Spreadsheet1",1,"Task Instructions","Screen 3","1qtc8v",3,"continue","",2753.91999985695,2748.746,2753.91999985695,2753.91999985695,2748.746,2753.91999985695,1,2753.91999985695,0,0,NA,"Click To Continue","Continue Button",2,"object-52","Task Instructions",NA,"SUPPRF78219"
"5",1701287962780,"29/11/2023 19:59:22",1701269962780,-5,"29/11/2023 09:59:22",154366,3,"task-psw4",NA,33307756,9861729,NA,"complete",NA,"656794a49c446679ee5a9458","computer","Desktop or Laptop","Windows 10","Chrome 119.0.0.0","1366x768","1366x641",NA,NA,0,"Task",1,"ABJCIDHEGF","Passed AC2",NA,"Spreadsheet1",1,"Task Instructions","Screen 4","spepx9",4,"continue","",3374.774,3365.103,3374.774,3374.774,3365.103,3374.774,1,3374.774,0,0,NA,"Click To Continue","Continue Button",2,"object-9","Task Instructions",NA,"SUPPRF78219"
"6",1701287965599,"29/11/2023 19:59:25",1701269965599,-5,"29/11/2023 09:59:25",154366,3,"task-psw4",NA,33307756,9861729,NA,"complete",NA,"656794a49c446679ee5a9458","computer","Desktop or Laptop","Windows 10","Chrome 119.0.0.0","1366x768","1366x641",NA,NA,0,"Task",1,"ABJCIDHEGF","Passed AC2",NA,"Spreadsheet1",1,"Task Instructions","Screen 5","8nvnao",5,"continue","",2828.07099985695,2815.336,2828.07099985695,2828.07099985695,2815.336,2828.07099985695,1,2828.07099985695,0,0,NA,"Click To Continue","Continue Button",2,"object-44","Task Instructions",NA,"SUPPRF78219"
"7",1701287965612,"29/11/2023 19:59:25",1701269965612,-5,"29/11/2023 09:59:25",154366,3,"task-psw4",NA,33307756,9861729,NA,"complete",NA,"656794a49c446679ee5a9458","computer","Desktop or Laptop","Windows 10","Chrome 119.0.0.0","1366x768","1366x641",NA,NA,0,"Task",1,"ABJCIDHEGF","Passed AC2",NA,"Spreadsheet1",NA,"","","",NA,"5","END",NA,NA,NA,NA,NA,NA,0,NA,NA,NA,NA,"","",NA,"","",NA,"SUPPRF78219"
"1",1701288438667,"29/11/2023 20:07:18",1701288438667,0,"29/11/2023 20:07:18",154366,3,"task-psw4",NA,33308511,9861808,NA,"complete",NA,"6567933aaafb8a076c42c718","computer","Desktop or Laptop","Windows 10","Chrome 119.0.0.0","1920x1080","1920x945",NA,NA,0,"Task",1,"BCADJEIFHG","Passed AC2",NA,"Spreadsheet1",NA,"","","",NA,"5","BEGIN",NA,NA,NA,NA,NA,NA,0,NA,NA,NA,NA,"","",NA,"","",NA,"SUPPRF39662"
"2",1701288442256,"29/11/2023 20:07:22",1701288442256,0,"29/11/2023 20:07:22",154366,3,"task-psw4",NA,33308511,9861808,NA,"complete",NA,"6567933aaafb8a076c42c718","computer","Desktop or Laptop","Windows 10","Chrome 119.0.0.0","1920x1080","1920x945",NA,NA,0,"Task",1,"BCADJEIFHG","Passed AC2",NA,"Spreadsheet1",1,"Task Instructions","Screen 1","anr7sn",1,"continue","",3519.15899999404,3517.23,3519.15899999404,3519.15899999404,3517.23,3519.15899999404,1,3519.15899999404,0,0,NA,"Click To Continue","Continue Button",2,"object-1944","Task Instructions",NA,"SUPPRF39662"
"3",1701288448191,"29/11/2023 20:07:28",1701288448191,0,"29/11/2023 20:07:28",154366,3,"task-psw4",NA,33308511,9861808,NA,"complete",NA,"6567933aaafb8a076c42c718","computer","Desktop or Laptop","Windows 10","Chrome 119.0.0.0","1920x1080","1920x945",NA,NA,0,"Task",1,"BCADJEIFHG","Passed AC2",NA,"Spreadsheet1",1,"Task Instructions","Screen 2","ce2tc8",2,"continue","",5936.92899999404,5932.562,5936.92899999404,5936.92899999404,5932.562,5936.92899999404,1,5936.92899999404,0,0,NA,"Click To Continue","Continue Button",2,"object-7","Task Instructions",NA,"SUPPRF39662"
"4",1701288451650,"29/11/2023 20:07:31",1701288451650,0,"29/11/2023 20:07:31",154366,3,"task-psw4",NA,33308511,9861808,NA,"complete",NA,"6567933aaafb8a076c42c718","computer","Desktop or Laptop","Windows 10","Chrome 119.0.0.0","1920x1080","1920x945",NA,NA,0,"Task",1,"BCADJEIFHG","Passed AC2",NA,"Spreadsheet1",1,"Task Instructions","Screen 3","1qtc8v",3,"continue","",3463.66699999106,3449.854,3463.66699999106,3463.66699999106,3449.854,3463.66699999106,1,3463.66699999106,0,0,NA,"Click To Continue","Continue Button",2,"object-52","Task Instructions",NA,"SUPPRF39662"
"5",1701288454247,"29/11/2023 20:07:34",1701288454247,0,"29/11/2023 20:07:34",154366,3,"task-psw4",NA,33308511,9861808,NA,"complete",NA,"6567933aaafb8a076c42c718","computer","Desktop or Laptop","Windows 10","Chrome 119.0.0.0","1920x1080","1920x945",NA,NA,0,"Task",1,"BCADJEIFHG","Passed AC2",NA,"Spreadsheet1",1,"Task Instructions","Screen 4","spepx9",4,"continue","",2611.11300000298,2600.028,2611.11300000298,2611.11300000298,2600.028,2611.11300000298,1,2611.11300000298,0,0,NA,"Click To Continue","Continue Button",2,"object-9","Task Instructions",NA,"SUPPRF39662"
"6",1701288457176,"29/11/2023 20:07:37",1701288457176,0,"29/11/2023 20:07:37",154366,3,"task-psw4",NA,33308511,9861808,NA,"complete",NA,"6567933aaafb8a076c42c718","computer","Desktop or Laptop","Windows 10","Chrome 119.0.0.0","1920x1080","1920x945",NA,NA,0,"Task",1,"BCADJEIFHG","Passed AC2",NA,"Spreadsheet1",1,"Task Instructions","Screen 5","8nvnao",5,"continue","",2939.98499999404,2933.191,2939.98499999404,2939.98499999404,2933.191,2939.98499999404,1,2939.98499999404,0,0,NA,"Click To Continue","Continue Button",2,"object-44","Task Instructions",NA,"SUPPRF39662"
"7",1701288457180,"29/11/2023 20:07:37",1701288457180,0,"29/11/2023 20:07:37",154366,3,"task-psw4",NA,33308511,9861808,NA,"complete",NA,"6567933aaafb8a076c42c718","computer","Desktop or Laptop","Windows 10","Chrome 119.0.0.0","1920x1080","1920x945",NA,NA,0,"Task",1,"BCADJEIFHG","Passed AC2",NA,"Spreadsheet1",NA,"","","",NA,"5","END",NA,NA,NA,NA,NA,NA,0,NA,NA,NA,NA,"","",NA,"","",NA,"SUPPRF39662"
"1",1701288562665,"29/11/2023 20:09:22",1701292162665,1,"29/11/2023 22:09:22",154366,3,"task-psw4",NA,33308649,9861784,NA,"rejected - time limit reached",NA,"656795b3f2b91aefa2713f07","computer","Desktop or Laptop","Windows 10","Chrome 119.0.0.0","1280x720","1280x563",NA,NA,0,"Task",1,"CDBEAFJGIH","Passed AC2",NA,"Spreadsheet1",NA,"","","",NA,"5","BEGIN",NA,NA,NA,NA,NA,NA,0,NA,NA,NA,NA,"","",NA,"","",NA,"SUPPRF54499"
"2",1701288581546,"29/11/2023 20:09:41",1701292181546,1,"29/11/2023 22:09:41",154366,3,"task-psw4",NA,33308649,9861784,NA,"rejected - time limit reached",NA,"656795b3f2b91aefa2713f07","computer","Desktop or Laptop","Windows 10","Chrome 119.0.0.0","1280x720","1280x563",NA,NA,0,"Task",1,"CDBEAFJGIH","Passed AC2",NA,"Spreadsheet1",1,"Task Instructions","Screen 1","anr7sn",1,"continue","",14915.4310000001,14900.593,14915.4310000001,14915.4310000001,14900.593,14915.4310000001,1,14915.4310000001,0,0,NA,"Click To Continue","Continue Button",2,"object-1944","Task Instructions",NA,"SUPPRF54499"
"3",1701288594819,"29/11/2023 20:09:54",1701292194819,1,"29/11/2023 22:09:54",154366,3,"task-psw4",NA,33308649,9861784,NA,"rejected - time limit reached",NA,"656795b3f2b91aefa2713f07","computer","Desktop or Laptop","Windows 10","Chrome 119.0.0.0","1280x720","1280x563",NA,NA,0,"Task",1,"CDBEAFJGIH","Passed AC2",NA,"Spreadsheet1",1,"Task Instructions","Screen 2","ce2tc8",2,"continue","",13288.0380000003,13283.22,13288.0380000003,13288.0380000003,13283.22,13288.0380000003,1,13288.0380000003,0,0,NA,"Click To Continue","Continue Button",2,"object-7","Task Instructions",NA,"SUPPRF54499"
"4",1701288599182,"29/11/2023 20:09:59",1701292199182,1,"29/11/2023 22:09:59",154366,3,"task-psw4",NA,33308649,9861784,NA,"rejected - time limit reached",NA,"656795b3f2b91aefa2713f07","computer","Desktop or Laptop","Windows 10","Chrome 119.0.0.0","1280x720","1280x563",NA,NA,0,"Task",1,"CDBEAFJGIH","Passed AC2",NA,"Spreadsheet1",1,"Task Instructions","Screen 3","1qtc8v",3,"continue","",4366.48499999999,4349.95499999999,4366.48499999999,4366.48499999999,4349.95499999999,4366.48499999999,1,4366.48499999999,0,0,NA,"Click To Continue","Continue Button",2,"object-52","Task Instructions",NA,"SUPPRF54499"
"5",1701288603143,"29/11/2023 20:10:03",1701292203143,1,"29/11/2023 22:10:03",154366,3,"task-psw4",NA,33308649,9861784,NA,"rejected - time limit reached",NA,"656795b3f2b91aefa2713f07","computer","Desktop or Laptop","Windows 10","Chrome 119.0.0.0","1280x720","1280x563",NA,NA,0,"Task",1,"CDBEAFJGIH","Passed AC2",NA,"Spreadsheet1",1,"Task Instructions","Screen 4","spepx9",4,"continue","",3978.96299999991,3966.851,3978.96299999991,3978.96299999991,3966.851,3978.96299999991,1,3978.96299999991,0,0,NA,"Click To Continue","Continue Button",2,"object-9","Task Instructions",NA,"SUPPRF54499"
"6",1701288607778,"29/11/2023 20:10:07",1701292207778,1,"29/11/2023 22:10:07",154366,3,"task-psw4",NA,33308649,9861784,NA,"rejected - time limit reached",NA,"656795b3f2b91aefa2713f07","computer","Desktop or Laptop","Windows 10","Chrome 119.0.0.0","1280x720","1280x563",NA,NA,0,"Task",1,"CDBEAFJGIH","Passed AC2",NA,"Spreadsheet1",1,"Task Instructions","Screen 5","8nvnao",5,"continue","",4646.91200000019,4633.175,4646.91200000019,4646.91200000019,4633.175,4646.91200000019,1,4646.91200000019,0,0,NA,"Click To Continue","Continue Button",2,"object-44","Task Instructions",NA,"SUPPRF54499"
"7",1701288607795,"29/11/2023 20:10:07",1701292207795,1,"29/11/2023 22:10:07",154366,3,"task-psw4",NA,33308649,9861784,NA,"rejected - time limit reached",NA,"656795b3f2b91aefa2713f07","computer","Desktop or Laptop","Windows 10","Chrome 119.0.0.0","1280x720","1280x563",NA,NA,0,"Task",1,"CDBEAFJGIH","Passed AC2",NA,"Spreadsheet1",NA,"","","",NA,"5","END",NA,NA,NA,NA,NA,NA,0,NA,NA,NA,NA,"","",NA,"","",NA,"SUPPRF54499"
"1",1701288578164,"29/11/2023 20:09:38",1701288578164,0,"29/11/2023 20:09:38",154366,3,"task-psw4",NA,33308688,9861865,NA,"complete",NA,"6567973364bb74c3a8fb36a5","computer","Desktop or Laptop","Mac OS 10.15.7","Chrome 119.0.0.0","1280x800","1280x713",NA,NA,0,"Task",1,"DECFBGAHJI","Passed AC2",NA,"Spreadsheet1",NA,"","","",NA,"5","BEGIN",NA,NA,NA,NA,NA,NA,0,NA,NA,NA,NA,"","",NA,"","",NA,"SUPPRF11368"
"2",1701288581380,"29/11/2023 20:09:41",1701288581380,0,"29/11/2023 20:09:41",154366,3,"task-psw4",NA,33308688,9861865,NA,"complete",NA,"6567973364bb74c3a8fb36a5","computer","Desktop or Laptop","Mac OS 10.15.7","Chrome 119.0.0.0","1280x800","1280x713",NA,NA,0,"Task",1,"DECFBGAHJI","Passed AC2",NA,"Spreadsheet1",1,"Task Instructions","Screen 1","anr7sn",1,"continue","",3145.85900000596,3133.47,3145.85900000596,3145.85900000596,3133.47,3145.85900000596,1,3145.85900000596,0,0,NA,"Click To Continue","Continue Button",2,"object-1944","Task Instructions",NA,"SUPPRF11368"
"3",1701288585226,"29/11/2023 20:09:45",1701288585226,0,"29/11/2023 20:09:45",154366,3,"task-psw4",NA,33308688,9861865,NA,"complete",NA,"6567973364bb74c3a8fb36a5","computer","Desktop or Laptop","Mac OS 10.15.7","Chrome 119.0.0.0","1280x800","1280x713",NA,NA,0,"Task",1,"DECFBGAHJI","Passed AC2",NA,"Spreadsheet1",1,"Task Instructions","Screen 2","ce2tc8",2,"continue","",3859.18899998808,3849.846,3859.18899998808,3859.18899998808,3849.846,3859.18899998808,1,3859.18899998808,0,0,NA,"Click To Continue","Continue Button",2,"object-7","Task Instructions",NA,"SUPPRF11368"
"4",1701288588203,"29/11/2023 20:09:48",1701288588203,0,"29/11/2023 20:09:48",154366,3,"task-psw4",NA,33308688,9861865,NA,"complete",NA,"6567973364bb74c3a8fb36a5","computer","Desktop or Laptop","Mac OS 10.15.7","Chrome 119.0.0.0","1280x800","1280x713",NA,NA,0,"Task",1,"DECFBGAHJI","Passed AC2",NA,"Spreadsheet1",1,"Task Instructions","Screen 3","1qtc8v",3,"continue","",2983.214,2966.548,2983.214,2983.214,2966.548,2983.214,1,2983.214,0,0,NA,"Click To Continue","Continue Button",2,"object-52","Task Instructions",NA,"SUPPRF11368"
"5",1701288591019,"29/11/2023 20:09:51",1701288591019,0,"29/11/2023 20:09:51",154366,3,"task-psw4",NA,33308688,9861865,NA,"complete",NA,"6567973364bb74c3a8fb36a5","computer","Desktop or Laptop","Mac OS 10.15.7","Chrome 119.0.0.0","1280x800","1280x713",NA,NA,0,"Task",1,"DECFBGAHJI","Passed AC2",NA,"Spreadsheet1",1,"Task Instructions","Screen 4","spepx9",4,"continue","",2833.483,2816.817,2833.483,2833.483,2816.817,2833.483,1,2833.483,0,0,NA,"Click To Continue","Continue Button",2,"object-9","Task Instructions",NA,"SUPPRF11368"
"6",1701288594554,"29/11/2023 20:09:54",1701288594554,0,"29/11/2023 20:09:54",154366,3,"task-psw4",NA,33308688,9861865,NA,"complete",NA,"6567973364bb74c3a8fb36a5","computer","Desktop or Laptop","Mac OS 10.15.7","Chrome 119.0.0.0","1280x800","1280x713",NA,NA,0,"Task",1,"DECFBGAHJI","Passed AC2",NA,"Spreadsheet1",1,"Task Instructions","Screen 5","8nvnao",5,"continue","",3549.858,3533.192,3549.858,3549.858,3533.192,3549.858,1,3549.858,0,0,NA,"Click To Continue","Continue Button",2,"object-44","Task Instructions",NA,"SUPPRF11368"
"7",1701288594557,"29/11/2023 20:09:54",1701288594557,0,"29/11/2023 20:09:54",154366,3,"task-psw4",NA,33308688,9861865,NA,"complete",NA,"6567973364bb74c3a8fb36a5","computer","Desktop or Laptop","Mac OS 10.15.7","Chrome 119.0.0.0","1280x800","1280x713",NA,NA,0,"Task",1,"DECFBGAHJI","Passed AC2",NA,"Spreadsheet1",NA,"","","",NA,"5","END",NA,NA,NA,NA,NA,NA,0,NA,NA,NA,NA,"","",NA,"","",NA,"SUPPRF11368"
"1",1701289394939,"29/11/2023 20:23:14",1701260594939,-8,"29/11/2023 04:23:14",154366,3,"task-psw4",NA,33309409,9862053,NA,"rejected - time limit reached",NA,"65679b501ed3bfba1f8b076a","computer","Desktop or Laptop","Mac OS 10.15.7","Chrome 119.0.0.0","1728x1117","1728x972",NA,NA,0,"Task",1,"FGEHDICJBA","Passed AC2",NA,"Spreadsheet1",NA,"","","",NA,"5","BEGIN",NA,NA,NA,NA,NA,NA,0,NA,NA,NA,NA,"","",NA,"","",NA,"SUPPRF17915"
"2",1701289412925,"29/11/2023 20:23:32",1701260612925,-8,"29/11/2023 04:23:32",154366,3,"task-psw4",NA,33309409,9862053,NA,"rejected - time limit reached",NA,"65679b501ed3bfba1f8b076a","computer","Desktop or Laptop","Mac OS 10.15.7","Chrome 119.0.0.0","1728x1117","1728x972",NA,NA,0,"Task",1,"FGEHDICJBA","Passed AC2",NA,"Spreadsheet1",1,"Task Instructions","Screen 1","anr7sn",1,"continue","",20736,20730,20736,20736,20730,20736,1,20736,0,0,NA,"Click To Continue","Continue Button",2,"object-1944","Task Instructions",NA,"SUPPRF17915"
"3",1701289417442,"29/11/2023 20:23:37",1701260617442,-8,"29/11/2023 04:23:37",154366,3,"task-psw4",NA,33309409,9862053,NA,"rejected - time limit reached",NA,"65679b501ed3bfba1f8b076a","computer","Desktop or Laptop","Mac OS 10.15.7","Chrome 119.0.0.0","1728x1117","1728x972",NA,NA,0,"Task",1,"FGEHDICJBA","Passed AC2",NA,"Spreadsheet1",1,"Task Instructions","Screen 2","ce2tc8",2,"continue","",4524,4516,4524,4524,4516,4524,1,4524,0,0,NA,"Click To Continue","Continue Button",2,"object-7","Task Instructions",NA,"SUPPRF17915"
"4",1701289420118,"29/11/2023 20:23:40",1701260620118,-8,"29/11/2023 04:23:40",154366,3,"task-psw4",NA,33309409,9862053,NA,"rejected - time limit reached",NA,"65679b501ed3bfba1f8b076a","computer","Desktop or Laptop","Mac OS 10.15.7","Chrome 119.0.0.0","1728x1117","1728x972",NA,NA,0,"Task",1,"FGEHDICJBA","Passed AC2",NA,"Spreadsheet1",1,"Task Instructions","Screen 3","1qtc8v",3,"continue","",2683,2675,2683,2683,2675,2683,1,2683,0,0,NA,"Click To Continue","Continue Button",2,"object-52","Task Instructions",NA,"SUPPRF17915"
"5",1701289422492,"29/11/2023 20:23:42",1701260622492,-8,"29/11/2023 04:23:42",154366,3,"task-psw4",NA,33309409,9862053,NA,"rejected - time limit reached",NA,"65679b501ed3bfba1f8b076a","computer","Desktop or Laptop","Mac OS 10.15.7","Chrome 119.0.0.0","1728x1117","1728x972",NA,NA,0,"Task",1,"FGEHDICJBA","Passed AC2",NA,"Spreadsheet1",1,"Task Instructions","Screen 4","spepx9",4,"continue","",2375,2367,2375,2375,2367,2375,1,2375,0,0,NA,"Click To Continue","Continue Button",2,"object-9","Task Instructions",NA,"SUPPRF17915"
"6",1701289424545,"29/11/2023 20:23:44",1701260624545,-8,"29/11/2023 04:23:44",154366,3,"task-psw4",NA,33309409,9862053,NA,"rejected - time limit reached",NA,"65679b501ed3bfba1f8b076a","computer","Desktop or Laptop","Mac OS 10.15.7","Chrome 119.0.0.0","1728x1117","1728x972",NA,NA,0,"Task",1,"FGEHDICJBA","Passed AC2",NA,"Spreadsheet1",1,"Task Instructions","Screen 5","8nvnao",5,"continue","",2066,2058,2066,2066,2058,2066,1,2066,0,0,NA,"Click To Continue","Continue Button",2,"object-44","Task Instructions",NA,"SUPPRF17915"
"7",1701289424551,"29/11/2023 20:23:44",1701260624551,-8,"29/11/2023 04:23:44",154366,3,"task-psw4",NA,33309409,9862053,NA,"rejected - time limit reached",NA,"65679b501ed3bfba1f8b076a","computer","Desktop or Laptop","Mac OS 10.15.7","Chrome 119.0.0.0","1728x1117","1728x972",NA,NA,0,"Task",1,"FGEHDICJBA","Passed AC2",NA,"Spreadsheet1",NA,"","","",NA,"5","END",NA,NA,NA,NA,NA,NA,0,NA,NA,NA,NA,"","",NA,"","",NA,"SUPPRF17915"
"1",1701290463112,"29/11/2023 20:41:03",1701294063112,1,"29/11/2023 22:41:03",154366,3,"task-psw4",NA,33309636,9861527,NA,"rejected - time limit reached",NA,"6567879deeb351263aa57beb","computer","Desktop or Laptop","Windows 10","Chrome 119.0.0.0","1280x720","1280x610",NA,NA,0,"Task",1,"JAIBHCGDFE","Passed AC2",NA,"Spreadsheet1",NA,"","","",NA,"5","BEGIN",NA,NA,NA,NA,NA,NA,0,NA,NA,NA,NA,"","",NA,"","",NA,"SUPPRF09833"
"2",1701290489276,"29/11/2023 20:41:29",1701294089276,1,"29/11/2023 22:41:29",154366,3,"task-psw4",NA,33309636,9861527,NA,"rejected - time limit reached",NA,"6567879deeb351263aa57beb","computer","Desktop or Laptop","Windows 10","Chrome 119.0.0.0","1280x720","1280x610",NA,NA,0,"Task",1,"JAIBHCGDFE","Passed AC2",NA,"Spreadsheet1",1,"Task Instructions","Screen 1","anr7sn",1,"continue","",7193.652,7183.395,7193.652,7193.652,7183.395,7193.652,1,7193.652,0,0,NA,"Click To Continue","Continue Button",2,"object-1944","Task Instructions",NA,"SUPPRF09833"
"3",1701290513174,"29/11/2023 20:41:53",1701294113174,1,"29/11/2023 22:41:53",154366,3,"task-psw4",NA,33309636,9861527,NA,"rejected - time limit reached",NA,"6567879deeb351263aa57beb","computer","Desktop or Laptop","Windows 10","Chrome 119.0.0.0","1280x720","1280x610",NA,NA,0,"Task",1,"JAIBHCGDFE","Passed AC2",NA,"Spreadsheet1",1,"Task Instructions","Screen 2","ce2tc8",2,"continue","",23908.4570000002,23900.035,23908.4570000002,23908.4570000002,23900.035,23908.4570000002,1,23908.4570000002,0,0,NA,"Click To Continue","Continue Button",2,"object-7","Task Instructions",NA,"SUPPRF09833"
"4",1701290518815,"29/11/2023 20:41:58",1701294118815,1,"29/11/2023 22:41:58",154366,3,"task-psw4",NA,33309636,9861527,NA,"rejected - time limit reached",NA,"6567879deeb351263aa57beb","computer","Desktop or Laptop","Windows 10","Chrome 119.0.0.0","1280x720","1280x610",NA,NA,0,"Task",1,"JAIBHCGDFE","Passed AC2",NA,"Spreadsheet1",1,"Task Instructions","Screen 3","1qtc8v",3,"continue","",5648.92200000018,5633.23299999999,5648.92200000018,5648.92200000018,5633.23299999999,5648.92200000018,1,5648.92200000018,0,0,NA,"Click To Continue","Continue Button",2,"object-52","Task Instructions",NA,"SUPPRF09833"
"5",1701290539828,"29/11/2023 20:42:19",1701294139828,1,"29/11/2023 22:42:19",154366,3,"task-psw4",NA,33309636,9861527,NA,"rejected - time limit reached",NA,"6567879deeb351263aa57beb","computer","Desktop or Laptop","Windows 10","Chrome 119.0.0.0","1280x720","1280x610",NA,NA,0,"Task",1,"JAIBHCGDFE","Passed AC2",NA,"Spreadsheet1",1,"Task Instructions","Screen 4","spepx9",4,"continue","",21029.3890000004,21016.936,21029.3890000004,21029.3890000004,21016.936,21029.3890000004,1,21029.3890000004,0,0,NA,"Click To Continue","Continue Button",2,"object-9","Task Instructions",NA,"SUPPRF09833"
"6",1701290544564,"29/11/2023 20:42:24",1701294144564,1,"29/11/2023 22:42:24",154366,3,"task-psw4",NA,33309636,9861527,NA,"rejected - time limit reached",NA,"6567879deeb351263aa57beb","computer","Desktop or Laptop","Windows 10","Chrome 119.0.0.0","1280x720","1280x610",NA,NA,0,"Task",1,"JAIBHCGDFE","Passed AC2",NA,"Spreadsheet1",1,"Task Instructions","Screen 5","8nvnao",5,"continue","",4748.15300000056,4733.186,4748.15300000056,4748.15300000056,4733.186,4748.15300000056,1,4748.15300000056,0,0,NA,"Click To Continue","Continue Button",2,"object-44","Task Instructions",NA,"SUPPRF09833"
"7",1701290544570,"29/11/2023 20:42:24",1701294144570,1,"29/11/2023 22:42:24",154366,3,"task-psw4",NA,33309636,9861527,NA,"rejected - time limit reached",NA,"6567879deeb351263aa57beb","computer","Desktop or Laptop","Windows 10","Chrome 119.0.0.0","1280x720","1280x610",NA,NA,0,"Task",1,"JAIBHCGDFE","Passed AC2",NA,"Spreadsheet1",NA,"","","",NA,"5","END",NA,NA,NA,NA,NA,NA,0,NA,NA,NA,NA,"","",NA,"","",NA,"SUPPRF09833"
"1",1701289770726,"29/11/2023 20:29:30",1701268170726,-6,"29/11/2023 08:29:30",154366,3,"task-psw4",NA,33309641,9862067,NA,"complete",NA,"65679b29e8f26f551bff902a","computer","Desktop or Laptop","Windows 10","Chrome 119.0.0.0","2048x1152","2048x1027",NA,NA,0,"Task",1,"GHFIEJDACB","Passed AC2",NA,"Spreadsheet1",NA,"","","",NA,"5","BEGIN",NA,NA,NA,NA,NA,NA,0,NA,NA,NA,NA,"","",NA,"","",NA,"SUPPRF73005"
"2",1701289774240,"29/11/2023 20:29:34",1701268174240,-6,"29/11/2023 08:29:34",154366,3,"task-psw4",NA,33309641,9862067,NA,"complete",NA,"65679b29e8f26f551bff902a","computer","Desktop or Laptop","Windows 10","Chrome 119.0.0.0","2048x1152","2048x1027",NA,NA,0,"Task",1,"GHFIEJDACB","Passed AC2",NA,"Spreadsheet1",1,"Task Instructions","Screen 1","anr7sn",1,"continue","",3077.73500000224,3075.266,3077.73500000224,3077.73500000224,3075.266,3077.73500000224,1,3077.73500000224,0,0,NA,"Click To Continue","Continue Button",2,"object-1944","Task Instructions",NA,"SUPPRF73005"
"3",1701289785465,"29/11/2023 20:29:45",1701268185465,-6,"29/11/2023 08:29:45",154366,3,"task-psw4",NA,33309641,9862067,NA,"complete",NA,"65679b29e8f26f551bff902a","computer","Desktop or Laptop","Windows 10","Chrome 119.0.0.0","2048x1152","2048x1027",NA,NA,0,"Task",1,"GHFIEJDACB","Passed AC2",NA,"Spreadsheet1",1,"Task Instructions","Screen 2","ce2tc8",2,"continue","",11227.4690000022,11225.995,11227.4690000022,11227.4690000022,11225.995,11227.4690000022,1,11227.4690000022,0,0,NA,"Click To Continue","Continue Button",2,"object-7","Task Instructions",NA,"SUPPRF73005"
"4",1701290929723,"29/11/2023 20:48:49",1701269329723,-6,"29/11/2023 08:48:49",154366,3,"task-psw4",NA,33309641,9862067,NA,"complete",NA,"65679b29e8f26f551bff902a","computer","Desktop or Laptop","Windows 10","Chrome 119.0.0.0","2048x1152","2048x1027",NA,NA,0,"Task",1,"GHFIEJDACB","Passed AC2",NA,"Spreadsheet1",1,"Task Instructions","Screen 3","1qtc8v",3,"continue","",1144257.255,1144253.083,1144257.255,1144257.255,1144253.083,1144257.255,1,1144257.255,0,0,NA,"Click To Continue","Continue Button",2,"object-52","Task Instructions",NA,"SUPPRF73005"
"5",1701291018293,"29/11/2023 20:50:18",1701269418293,-6,"29/11/2023 08:50:18",154366,3,"task-psw4",NA,33309641,9862067,NA,"complete",NA,"65679b29e8f26f551bff902a","computer","Desktop or Laptop","Windows 10","Chrome 119.0.0.0","2048x1152","2048x1027",NA,NA,0,"Task",1,"GHFIEJDACB","Passed AC2",NA,"Spreadsheet1",1,"Task Instructions","Screen 4","spepx9",4,"continue","",88576.0910000014,88574.4409999999,88576.0910000014,88576.0910000014,88574.4409999999,88576.0910000014,1,88576.0910000014,0,0,NA,"Click To Continue","Continue Button",2,"object-9","Task Instructions",NA,"SUPPRF73005"
"6",1701291022068,"29/11/2023 20:50:22",1701269422068,-6,"29/11/2023 08:50:22",154366,3,"task-psw4",NA,33309641,9862067,NA,"complete",NA,"65679b29e8f26f551bff902a","computer","Desktop or Laptop","Windows 10","Chrome 119.0.0.0","2048x1152","2048x1027",NA,NA,0,"Task",1,"GHFIEJDACB","Passed AC2",NA,"Spreadsheet1",1,"Task Instructions","Screen 5","8nvnao",5,"continue","",3777.55000000005,3775.33799999999,3777.55000000005,3777.55000000005,3775.33799999999,3777.55000000005,1,3777.55000000005,0,0,NA,"Click To Continue","Continue Button",2,"object-44","Task Instructions",NA,"SUPPRF73005"
"7",1701291022070,"29/11/2023 20:50:22",1701269422070,-6,"29/11/2023 08:50:22",154366,3,"task-psw4",NA,33309641,9862067,NA,"complete",NA,"65679b29e8f26f551bff902a","computer","Desktop or Laptop","Windows 10","Chrome 119.0.0.0","2048x1152","2048x1027",NA,NA,0,"Task",1,"GHFIEJDACB","Passed AC2",NA,"Spreadsheet1",NA,"","","",NA,"5","END",NA,NA,NA,NA,NA,NA,0,NA,NA,NA,NA,"","",NA,"","",NA,"SUPPRF73005"
"1",1701289800859,"29/11/2023 20:30:00",1701289800859,0,"29/11/2023 20:30:00",154366,3,"task-psw4",NA,33309666,9862091,NA,"complete",NA,"65679c84091893b57c73f640","computer","Desktop or Laptop","Windows 10","Chrome 119.0.0.0","1536x864","1536x738",NA,NA,0,"Task",1,"HIGJFAEBDC","Passed AC2",NA,"Spreadsheet1",NA,"","","",NA,"5","BEGIN",NA,NA,NA,NA,NA,NA,0,NA,NA,NA,NA,"","",NA,"","",NA,"SUPPRF07775"
"2",1701289804706,"29/11/2023 20:30:04",1701289804706,0,"29/11/2023 20:30:04",154366,3,"task-psw4",NA,33309666,9862091,NA,"complete",NA,"65679c84091893b57c73f640","computer","Desktop or Laptop","Windows 10","Chrome 119.0.0.0","1536x864","1536x738",NA,NA,0,"Task",1,"HIGJFAEBDC","Passed AC2",NA,"Spreadsheet1",1,"Task Instructions","Screen 1","anr7sn",1,"continue","",3796.789,3780.084,3796.789,3796.789,3780.084,3796.789,1,3796.789,0,0,NA,"Click To Continue","Continue Button",2,"object-1944","Task Instructions",NA,"SUPPRF07775"
"3",1701289813841,"29/11/2023 20:30:13",1701289813841,0,"29/11/2023 20:30:13",154366,3,"task-psw4",NA,33309666,9862091,NA,"complete",NA,"65679c84091893b57c73f640","computer","Desktop or Laptop","Windows 10","Chrome 119.0.0.0","1536x864","1536x738",NA,NA,0,"Task",1,"HIGJFAEBDC","Passed AC2",NA,"Spreadsheet1",1,"Task Instructions","Screen 2","ce2tc8",2,"continue","",9153.50400000298,9141.965,9153.50400000298,9153.50400000298,9141.965,9153.50400000298,1,9153.50400000298,0,0,NA,"Click To Continue","Continue Button",2,"object-7","Task Instructions",NA,"SUPPRF07775"
"4",1701289817369,"29/11/2023 20:30:17",1701289817369,0,"29/11/2023 20:30:17",154366,3,"task-psw4",NA,33309666,9862091,NA,"complete",NA,"65679c84091893b57c73f640","computer","Desktop or Laptop","Windows 10","Chrome 119.0.0.0","1536x864","1536x738",NA,NA,0,"Task",1,"HIGJFAEBDC","Passed AC2",NA,"Spreadsheet1",1,"Task Instructions","Screen 3","1qtc8v",3,"continue","",3539.53900000298,3530.265,3539.53900000298,3539.53900000298,3530.265,3539.53900000298,1,3539.53900000298,0,0,NA,"Click To Continue","Continue Button",2,"object-52","Task Instructions",NA,"SUPPRF07775"
"5",1701289820659,"29/11/2023 20:30:20",1701289820659,0,"29/11/2023 20:30:20",154366,3,"task-psw4",NA,33309666,9862091,NA,"complete",NA,"65679c84091893b57c73f640","computer","Desktop or Laptop","Windows 10","Chrome 119.0.0.0","1536x864","1536x738",NA,NA,0,"Task",1,"HIGJFAEBDC","Passed AC2",NA,"Spreadsheet1",1,"Task Instructions","Screen 4","spepx9",4,"continue","",3298.97400000596,3297.101,3298.97400000596,3298.97400000596,3297.101,3298.97400000596,1,3298.97400000596,0,0,NA,"Click To Continue","Continue Button",2,"object-9","Task Instructions",NA,"SUPPRF07775"
"6",1701289823556,"29/11/2023 20:30:23",1701289823556,0,"29/11/2023 20:30:23",154366,3,"task-psw4",NA,33309666,9862091,NA,"complete",NA,"65679c84091893b57c73f640","computer","Desktop or Laptop","Windows 10","Chrome 119.0.0.0","1536x864","1536x738",NA,NA,0,"Task",1,"HIGJFAEBDC","Passed AC2",NA,"Spreadsheet1",1,"Task Instructions","Screen 5","8nvnao",5,"continue","",2897.901,2880.974,2897.901,2897.901,2880.974,2897.901,1,2897.901,0,0,NA,"Click To Continue","Continue Button",2,"object-44","Task Instructions",NA,"SUPPRF07775"
"7",1701289823558,"29/11/2023 20:30:23",1701289823558,0,"29/11/2023 20:30:23",154366,3,"task-psw4",NA,33309666,9862091,NA,"complete",NA,"65679c84091893b57c73f640","computer","Desktop or Laptop","Windows 10","Chrome 119.0.0.0","1536x864","1536x738",NA,NA,0,"Task",1,"HIGJFAEBDC","Passed AC2",NA,"Spreadsheet1",NA,"","","",NA,"5","END",NA,NA,NA,NA,NA,NA,0,NA,NA,NA,NA,"","",NA,"","",NA,"SUPPRF07775"
"1",1701291205690,"29/11/2023 20:53:25",1701291205690,0,"29/11/2023 20:53:25",154366,3,"task-psw4",NA,33310771,9862262,NA,"complete",NA,"6567a266092f5b51cb128f50","computer","Desktop or Laptop","Windows 10","Chrome 119.0.0.0","1280x800","1280x643",NA,NA,0,"Task",1,"IJHAGBFCED","Passed AC2",NA,"Spreadsheet1",NA,"","","",NA,"5","BEGIN",NA,NA,NA,NA,NA,NA,0,NA,NA,NA,NA,"","",NA,"","",NA,"SUPPRF80411"
"2",1701291208938,"29/11/2023 20:53:28",1701291208938,0,"29/11/2023 20:53:28",154366,3,"task-psw4",NA,33310771,9862262,NA,"complete",NA,"6567a266092f5b51cb128f50","computer","Desktop or Laptop","Windows 10","Chrome 119.0.0.0","1280x800","1280x643",NA,NA,0,"Task",1,"IJHAGBFCED","Passed AC2",NA,"Spreadsheet1",1,"Task Instructions","Screen 1","anr7sn",1,"continue","",3175.99500007153,3166.505,3175.99500007153,3175.99500007153,3166.505,3175.99500007153,1,3175.99500007153,0,0,NA,"Click To Continue","Continue Button",2,"object-1944","Task Instructions",NA,"SUPPRF80411"
"3",1701291216977,"29/11/2023 20:53:36",1701291216977,0,"29/11/2023 20:53:36",154366,3,"task-psw4",NA,33310771,9862262,NA,"complete",NA,"6567a266092f5b51cb128f50","computer","Desktop or Laptop","Windows 10","Chrome 119.0.0.0","1280x800","1280x643",NA,NA,0,"Task",1,"IJHAGBFCED","Passed AC2",NA,"Spreadsheet1",1,"Task Instructions","Screen 2","ce2tc8",2,"continue","",8049.19,8034.085,8049.19,8049.19,8034.085,8049.19,1,8049.19,0,0,NA,"Click To Continue","Continue Button",2,"object-7","Task Instructions",NA,"SUPPRF80411"
"4",1701291219792,"29/11/2023 20:53:39",1701291219792,0,"29/11/2023 20:53:39",154366,3,"task-psw4",NA,33310771,9862262,NA,"complete",NA,"6567a266092f5b51cb128f50","computer","Desktop or Laptop","Windows 10","Chrome 119.0.0.0","1280x800","1280x643",NA,NA,0,"Task",1,"IJHAGBFCED","Passed AC2",NA,"Spreadsheet1",1,"Task Instructions","Screen 3","1qtc8v",3,"continue","",2830.40500007153,2817.586,2830.40500007153,2830.40500007153,2817.586,2830.40500007153,1,2830.40500007153,0,0,NA,"Click To Continue","Continue Button",2,"object-52","Task Instructions",NA,"SUPPRF80411"
"5",1701291222273,"29/11/2023 20:53:42",1701291222273,0,"29/11/2023 20:53:42",154366,3,"task-psw4",NA,33310771,9862262,NA,"complete",NA,"6567a266092f5b51cb128f50","computer","Desktop or Laptop","Windows 10","Chrome 119.0.0.0","1280x800","1280x643",NA,NA,0,"Task",1,"IJHAGBFCED","Passed AC2",NA,"Spreadsheet1",1,"Task Instructions","Screen 4","spepx9",4,"continue","",2493.61900002384,2483.21,2493.61900002384,2493.61900002384,2483.21,2493.61900002384,1,2493.61900002384,0,0,NA,"Click To Continue","Continue Button",2,"object-9","Task Instructions",NA,"SUPPRF80411"
"6",1701291224697,"29/11/2023 20:53:44",1701291224697,0,"29/11/2023 20:53:44",154366,3,"task-psw4",NA,33310771,9862262,NA,"complete",NA,"6567a266092f5b51cb128f50","computer","Desktop or Laptop","Windows 10","Chrome 119.0.0.0","1280x800","1280x643",NA,NA,0,"Task",1,"IJHAGBFCED","Passed AC2",NA,"Spreadsheet1",1,"Task Instructions","Screen 5","8nvnao",5,"continue","",2431.56,2414.908,2431.56,2431.56,2414.908,2431.56,1,2431.56,0,0,NA,"Click To Continue","Continue Button",2,"object-44","Task Instructions",NA,"SUPPRF80411"
"7",1701291224700,"29/11/2023 20:53:44",1701291224700,0,"29/11/2023 20:53:44",154366,3,"task-psw4",NA,33310771,9862262,NA,"complete",NA,"6567a266092f5b51cb128f50","computer","Desktop or Laptop","Windows 10","Chrome 119.0.0.0","1280x800","1280x643",NA,NA,0,"Task",1,"IJHAGBFCED","Passed AC2",NA,"Spreadsheet1",NA,"","","",NA,"5","END",NA,NA,NA,NA,NA,NA,0,NA,NA,NA,NA,"","",NA,"","",NA,"SUPPRF80411"
"1",1701291504909,"29/11/2023 20:58:24",1701291504909,0,"29/11/2023 20:58:24",154366,3,"task-psw4",NA,33311191,9862296,NA,"complete",NA,"6567a31f5b0e285af506aba2","computer","Desktop or Laptop","Windows 10","Chrome 119.0.0.0","1536x864","1707x821",NA,NA,0,"Task",1,"JAIBHCGDFE","Passed AC2",NA,"Spreadsheet1",NA,"","","",NA,"5","BEGIN",NA,NA,NA,NA,NA,NA,0,NA,NA,NA,NA,"","",NA,"","",NA,"SUPPRF66399"
"2",1701291508563,"29/11/2023 20:58:28",1701291508563,0,"29/11/2023 20:58:28",154366,3,"task-psw4",NA,33311191,9862296,NA,"complete",NA,"6567a31f5b0e285af506aba2","computer","Desktop or Laptop","Windows 10","Chrome 119.0.0.0","1536x864","1707x821",NA,NA,0,"Task",1,"JAIBHCGDFE","Passed AC2",NA,"Spreadsheet1",1,"Task Instructions","Screen 1","anr7sn",1,"continue","",3613.321,3599.711,3613.321,3613.321,3599.711,3613.321,1,3613.321,0,0,NA,"Click To Continue","Continue Button",2,"object-1944","Task Instructions",NA,"SUPPRF66399"
"3",1701291521961,"29/11/2023 20:58:41",1701291521961,0,"29/11/2023 20:58:41",154366,3,"task-psw4",NA,33311191,9862296,NA,"complete",NA,"6567a31f5b0e285af506aba2","computer","Desktop or Laptop","Windows 10","Chrome 119.0.0.0","1536x864","1707x821",NA,NA,0,"Task",1,"JAIBHCGDFE","Passed AC2",NA,"Spreadsheet1",1,"Task Instructions","Screen 2","ce2tc8",2,"continue","",13406.952,13390.276,13406.952,13406.952,13390.276,13406.952,1,13406.952,0,0,NA,"Click To Continue","Continue Button",2,"object-7","Task Instructions",NA,"SUPPRF66399"
"4",1701291525071,"29/11/2023 20:58:45",1701291525071,0,"29/11/2023 20:58:45",154366,3,"task-psw4",NA,33311191,9862296,NA,"complete",NA,"6567a31f5b0e285af506aba2","computer","Desktop or Laptop","Windows 10","Chrome 119.0.0.0","1536x864","1707x821",NA,NA,0,"Task",1,"JAIBHCGDFE","Passed AC2",NA,"Spreadsheet1",1,"Task Instructions","Screen 3","1qtc8v",3,"continue","",3127.73,3111.062,3127.73,3127.73,3111.062,3127.73,1,3127.73,0,0,NA,"Click To Continue","Continue Button",2,"object-52","Task Instructions",NA,"SUPPRF66399"
"5",1701291529078,"29/11/2023 20:58:49",1701291529078,0,"29/11/2023 20:58:49",154366,3,"task-psw4",NA,33311191,9862296,NA,"complete",NA,"6567a31f5b0e285af506aba2","computer","Desktop or Laptop","Windows 10","Chrome 119.0.0.0","1536x864","1707x821",NA,NA,0,"Task",1,"JAIBHCGDFE","Passed AC2",NA,"Spreadsheet1",1,"Task Instructions","Screen 4","spepx9",4,"continue","",4027.57200007153,4017.384,4027.57200007153,4027.57200007153,4017.384,4027.57200007153,1,4027.57200007153,0,0,NA,"Click To Continue","Continue Button",2,"object-9","Task Instructions",NA,"SUPPRF66399"
"6",1701291531955,"29/11/2023 20:58:51",1701291531955,0,"29/11/2023 20:58:51",154366,3,"task-psw4",NA,33311191,9862296,NA,"complete",NA,"6567a31f5b0e285af506aba2","computer","Desktop or Laptop","Windows 10","Chrome 119.0.0.0","1536x864","1707x821",NA,NA,0,"Task",1,"JAIBHCGDFE","Passed AC2",NA,"Spreadsheet1",1,"Task Instructions","Screen 5","8nvnao",5,"continue","",2883.644,2866.969,2883.644,2883.644,2866.969,2883.644,1,2883.644,0,0,NA,"Click To Continue","Continue Button",2,"object-44","Task Instructions",NA,"SUPPRF66399"
"7",1701291531957,"29/11/2023 20:58:51",1701291531957,0,"29/11/2023 20:58:51",154366,3,"task-psw4",NA,33311191,9862296,NA,"complete",NA,"6567a31f5b0e285af506aba2","computer","Desktop or Laptop","Windows 10","Chrome 119.0.0.0","1536x864","1707x821",NA,NA,0,"Task",1,"JAIBHCGDFE","Passed AC2",NA,"Spreadsheet1",NA,"","","",NA,"5","END",NA,NA,NA,NA,NA,NA,0,NA,NA,NA,NA,"","",NA,"","",NA,"SUPPRF66399"
"1",1701292523527,"29/11/2023 21:15:23",1701274523527,-5,"29/11/2023 11:15:23",154366,3,"task-psw4",NA,33311865,9862512,NA,"complete",NA,"6567a787b4eb05500ec30d72","computer","Desktop or Laptop","Mac OS 10.15.7","Chrome 119.0.0.0","1440x900","1440x673",NA,NA,0,"Task",1,"CDBEAFJGIH","Passed AC2",NA,"Spreadsheet1",NA,"","","",NA,"5","BEGIN",NA,NA,NA,NA,NA,NA,0,NA,NA,NA,NA,"","",NA,"","",NA,"SUPPRF33488"
"2",1701292526808,"29/11/2023 21:15:26",1701274526808,-5,"29/11/2023 11:15:26",154366,3,"task-psw4",NA,33311865,9862512,NA,"complete",NA,"6567a787b4eb05500ec30d72","computer","Desktop or Laptop","Mac OS 10.15.7","Chrome 119.0.0.0","1440x900","1440x673",NA,NA,0,"Task",1,"CDBEAFJGIH","Passed AC2",NA,"Spreadsheet1",1,"Task Instructions","Screen 1","anr7sn",1,"continue","",3123.33200002384,3116.804,3123.33200002384,3123.33200002384,3116.804,3123.33200002384,1,3123.33200002384,0,0,NA,"Click To Continue","Continue Button",2,"object-1944","Task Instructions",NA,"SUPPRF33488"
"3",1701292538423,"29/11/2023 21:15:38",1701274538423,-5,"29/11/2023 11:15:38",154366,3,"task-psw4",NA,33311865,9862512,NA,"complete",NA,"6567a787b4eb05500ec30d72","computer","Desktop or Laptop","Mac OS 10.15.7","Chrome 119.0.0.0","1440x900","1440x673",NA,NA,0,"Task",1,"CDBEAFJGIH","Passed AC2",NA,"Spreadsheet1",1,"Task Instructions","Screen 2","ce2tc8",2,"continue","",11621.6279999881,11616.465,11621.6279999881,11621.6279999881,11616.465,11621.6279999881,1,11621.6279999881,0,0,NA,"Click To Continue","Continue Button",2,"object-7","Task Instructions",NA,"SUPPRF33488"
"4",1701292541109,"29/11/2023 21:15:41",1701274541109,-5,"29/11/2023 11:15:41",154366,3,"task-psw4",NA,33311865,9862512,NA,"complete",NA,"6567a787b4eb05500ec30d72","computer","Desktop or Laptop","Mac OS 10.15.7","Chrome 119.0.0.0","1440x900","1440x673",NA,NA,0,"Task",1,"CDBEAFJGIH","Passed AC2",NA,"Spreadsheet1",1,"Task Instructions","Screen 3","1qtc8v",3,"continue","",2690.76300001192,2683.226,2690.76300001192,2690.76300001192,2683.226,2690.76300001192,1,2690.76300001192,0,0,NA,"Click To Continue","Continue Button",2,"object-52","Task Instructions",NA,"SUPPRF33488"
"5",1701292543600,"29/11/2023 21:15:43",1701274543600,-5,"29/11/2023 11:15:43",154366,3,"task-psw4",NA,33311865,9862512,NA,"complete",NA,"6567a787b4eb05500ec30d72","computer","Desktop or Laptop","Mac OS 10.15.7","Chrome 119.0.0.0","1440x900","1440x673",NA,NA,0,"Task",1,"CDBEAFJGIH","Passed AC2",NA,"Spreadsheet1",1,"Task Instructions","Screen 4","spepx9",4,"continue","",2498.53700001192,2483.234,2498.53700001192,2498.53700001192,2483.234,2498.53700001192,1,2498.53700001192,0,0,NA,"Click To Continue","Continue Button",2,"object-9","Task Instructions",NA,"SUPPRF33488"
"6",1701292546736,"29/11/2023 21:15:46",1701274546736,-5,"29/11/2023 11:15:46",154366,3,"task-psw4",NA,33311865,9862512,NA,"complete",NA,"6567a787b4eb05500ec30d72","computer","Desktop or Laptop","Mac OS 10.15.7","Chrome 119.0.0.0","1440x900","1440x673",NA,NA,0,"Task",1,"CDBEAFJGIH","Passed AC2",NA,"Spreadsheet1",1,"Task Instructions","Screen 5","8nvnao",5,"continue","",3150.136,3133.47,3150.136,3150.136,3133.47,3150.136,1,3150.136,0,0,NA,"Click To Continue","Continue Button",2,"object-44","Task Instructions",NA,"SUPPRF33488"
"7",1701292546740,"29/11/2023 21:15:46",1701274546740,-5,"29/11/2023 11:15:46",154366,3,"task-psw4",NA,33311865,9862512,NA,"complete",NA,"6567a787b4eb05500ec30d72","computer","Desktop or Laptop","Mac OS 10.15.7","Chrome 119.0.0.0","1440x900","1440x673",NA,NA,0,"Task",1,"CDBEAFJGIH","Passed AC2",NA,"Spreadsheet1",NA,"","","",NA,"5","END",NA,NA,NA,NA,NA,NA,0,NA,NA,NA,NA,"","",NA,"","",NA,"SUPPRF33488"
"1",1701293323895,"29/11/2023 21:28:43",1701293323895,0,"29/11/2023 21:28:43",154366,3,"task-psw4",NA,33312246,9862459,NA,"complete",NA,"6567a62aea2529dde1fb3b08","computer","Desktop or Laptop","Chromium OS 14541.0.0","Chrome 118.0.0.0","1366x768","1366x612",NA,NA,0,"Task",1,"BCADJEIFHG","Passed AC2",NA,"Spreadsheet1",NA,"","","",NA,"5","BEGIN",NA,NA,NA,NA,NA,NA,0,NA,NA,NA,NA,"","",NA,"","",NA,"SUPPRF83636"
"2",1701293327837,"29/11/2023 21:28:47",1701293327837,0,"29/11/2023 21:28:47",154366,3,"task-psw4",NA,33312246,9862459,NA,"complete",NA,"6567a62aea2529dde1fb3b08","computer","Desktop or Laptop","Chromium OS 14541.0.0","Chrome 118.0.0.0","1366x768","1366x612",NA,NA,0,"Task",1,"BCADJEIFHG","Passed AC2",NA,"Spreadsheet1",1,"Task Instructions","Screen 1","anr7sn",1,"continue","",3774.071,3766.488,3774.071,3774.071,3766.488,3774.071,1,3774.071,0,0,NA,"Click To Continue","Continue Button",2,"object-1944","Task Instructions",NA,"SUPPRF83636"
"3",1701293346800,"29/11/2023 21:29:06",1701293346800,0,"29/11/2023 21:29:06",154366,3,"task-psw4",NA,33312246,9862459,NA,"complete",NA,"6567a62aea2529dde1fb3b08","computer","Desktop or Laptop","Chromium OS 14541.0.0","Chrome 118.0.0.0","1366x768","1366x612",NA,NA,0,"Task",1,"BCADJEIFHG","Passed AC2",NA,"Spreadsheet1",1,"Task Instructions","Screen 2","ce2tc8",2,"continue","",18965.526,18948.861,18965.526,18965.526,18948.861,18965.526,1,18965.526,0,0,NA,"Click To Continue","Continue Button",2,"object-7","Task Instructions",NA,"SUPPRF83636"
"4",1701293349625,"29/11/2023 21:29:09",1701293349625,0,"29/11/2023 21:29:09",154366,3,"task-psw4",NA,33312246,9862459,NA,"complete",NA,"6567a62aea2529dde1fb3b08","computer","Desktop or Laptop","Chromium OS 14541.0.0","Chrome 118.0.0.0","1366x768","1366x612",NA,NA,0,"Task",1,"BCADJEIFHG","Passed AC2",NA,"Spreadsheet1",1,"Task Instructions","Screen 3","1qtc8v",3,"continue","",2849.02199999982,2833.433,2849.02199999982,2849.02199999982,2833.433,2849.02199999982,1,2849.02199999982,0,0,NA,"Click To Continue","Continue Button",2,"object-52","Task Instructions",NA,"SUPPRF83636"
"5",1701293715602,"29/11/2023 21:35:15",1701293715602,0,"29/11/2023 21:35:15",154366,3,"task-psw4",NA,33312246,9862459,NA,"complete",NA,"6567a62aea2529dde1fb3b08","computer","Desktop or Laptop","Chromium OS 14541.0.0","Chrome 118.0.0.0","1366x768","1366x612",NA,NA,0,"Task",1,"BCADJEIFHG","Passed AC2",NA,"Spreadsheet1",1,"Task Instructions","Screen 4","spepx9",4,"continue","",365992.289,365979.85,365992.289,365992.289,365979.85,365992.289,1,365992.289,0,0,NA,"Click To Continue","Continue Button",2,"object-9","Task Instructions",NA,"SUPPRF83636"
"6",1701293728892,"29/11/2023 21:35:28",1701293728892,0,"29/11/2023 21:35:28",154366,3,"task-psw4",NA,33312246,9862459,NA,"complete",NA,"6567a62aea2529dde1fb3b08","computer","Desktop or Laptop","Chromium OS 14541.0.0","Chrome 118.0.0.0","1366x768","1366x612",NA,NA,0,"Task",1,"BCADJEIFHG","Passed AC2",NA,"Spreadsheet1",1,"Task Instructions","Screen 5","8nvnao",5,"continue","",13302.5390000006,13299.002,13302.5390000006,13302.5390000006,13299.002,13302.5390000006,1,13302.5390000006,0,0,NA,"Click To Continue","Continue Button",2,"object-44","Task Instructions",NA,"SUPPRF83636"
"7",1701293728900,"29/11/2023 21:35:28",1701293728900,0,"29/11/2023 21:35:28",154366,3,"task-psw4",NA,33312246,9862459,NA,"complete",NA,"6567a62aea2529dde1fb3b08","computer","Desktop or Laptop","Chromium OS 14541.0.0","Chrome 118.0.0.0","1366x768","1366x612",NA,NA,0,"Task",1,"BCADJEIFHG","Passed AC2",NA,"Spreadsheet1",NA,"","","",NA,"5","END",NA,NA,NA,NA,NA,NA,0,NA,NA,NA,NA,"","",NA,"","",NA,"SUPPRF83636"
"1",1701294072774,"29/11/2023 21:41:12",1701294072774,0,"29/11/2023 21:41:12",154366,3,"task-psw4",NA,33312621,9862674,NA,"complete",NA,"6567ab0f09cc6b4cdafdabba","computer","Desktop or Laptop","Windows 10","Chrome 119.0.0.0","2560x1440","2560x1323",NA,NA,0,"Task",1,"EFDGCHBIAJ","Passed AC2",NA,"Spreadsheet1",NA,"","","",NA,"5","BEGIN",NA,NA,NA,NA,NA,NA,0,NA,NA,NA,NA,"","",NA,"","",NA,"SUPPRF46512"
"2",1701294077035,"29/11/2023 21:41:17",1701294077035,0,"29/11/2023 21:41:17",154366,3,"task-psw4",NA,33312621,9862674,NA,"complete",NA,"6567ab0f09cc6b4cdafdabba","computer","Desktop or Laptop","Windows 10","Chrome 119.0.0.0","2560x1440","2560x1323",NA,NA,0,"Task",1,"EFDGCHBIAJ","Passed AC2",NA,"Spreadsheet1",1,"Task Instructions","Screen 1","anr7sn",1,"continue","",4224.38599999702,4222.012,4224.38599999702,4224.38599999702,4222.012,4224.38599999702,1,4224.38599999702,0,0,NA,"Click To Continue","Continue Button",2,"object-1944","Task Instructions",NA,"SUPPRF46512"
"3",1701294084453,"29/11/2023 21:41:24",1701294084453,0,"29/11/2023 21:41:24",154366,3,"task-psw4",NA,33312621,9862674,NA,"complete",NA,"6567ab0f09cc6b4cdafdabba","computer","Desktop or Laptop","Windows 10","Chrome 119.0.0.0","2560x1440","2560x1323",NA,NA,0,"Task",1,"EFDGCHBIAJ","Passed AC2",NA,"Spreadsheet1",1,"Task Instructions","Screen 2","ce2tc8",2,"continue","",7420.37399999702,7416.337,7420.37399999702,7420.37399999702,7416.337,7420.37399999702,1,7420.37399999702,0,0,NA,"Click To Continue","Continue Button",2,"object-7","Task Instructions",NA,"SUPPRF46512"
"4",1701294087619,"29/11/2023 21:41:27",1701294087619,0,"29/11/2023 21:41:27",154366,3,"task-psw4",NA,33312621,9862674,NA,"complete",NA,"6567ab0f09cc6b4cdafdabba","computer","Desktop or Laptop","Windows 10","Chrome 119.0.0.0","2560x1440","2560x1323",NA,NA,0,"Task",1,"EFDGCHBIAJ","Passed AC2",NA,"Spreadsheet1",1,"Task Instructions","Screen 3","1qtc8v",3,"continue","",3169.737,3166.523,3169.737,3169.737,3166.523,3169.737,1,3169.737,0,0,NA,"Click To Continue","Continue Button",2,"object-52","Task Instructions",NA,"SUPPRF46512"
"5",1701294099180,"29/11/2023 21:41:39",1701294099180,0,"29/11/2023 21:41:39",154366,3,"task-psw4",NA,33312621,9862674,NA,"complete",NA,"6567ab0f09cc6b4cdafdabba","computer","Desktop or Laptop","Windows 10","Chrome 119.0.0.0","2560x1440","2560x1323",NA,NA,0,"Task",1,"EFDGCHBIAJ","Passed AC2",NA,"Spreadsheet1",1,"Task Instructions","Screen 4","spepx9",4,"continue","",11564.914000003,11561.984,11564.914000003,11564.914000003,11561.984,11564.914000003,1,11564.914000003,0,0,NA,"Click To Continue","Continue Button",2,"object-9","Task Instructions",NA,"SUPPRF46512"
"6",1701294103148,"29/11/2023 21:41:43",1701294103148,0,"29/11/2023 21:41:43",154366,3,"task-psw4",NA,33312621,9862674,NA,"complete",NA,"6567ab0f09cc6b4cdafdabba","computer","Desktop or Laptop","Windows 10","Chrome 119.0.0.0","2560x1440","2560x1323",NA,NA,0,"Task",1,"EFDGCHBIAJ","Passed AC2",NA,"Spreadsheet1",1,"Task Instructions","Screen 5","8nvnao",5,"continue","",3970.73,3965.108,3970.73,3970.73,3965.108,3970.73,1,3970.73,0,0,NA,"Click To Continue","Continue Button",2,"object-44","Task Instructions",NA,"SUPPRF46512"
"7",1701294103149,"29/11/2023 21:41:43",1701294103149,0,"29/11/2023 21:41:43",154366,3,"task-psw4",NA,33312621,9862674,NA,"complete",NA,"6567ab0f09cc6b4cdafdabba","computer","Desktop or Laptop","Windows 10","Chrome 119.0.0.0","2560x1440","2560x1323",NA,NA,0,"Task",1,"EFDGCHBIAJ","Passed AC2",NA,"Spreadsheet1",NA,"","","",NA,"5","END",NA,NA,NA,NA,NA,NA,0,NA,NA,NA,NA,"","",NA,"","",NA,"SUPPRF46512"
"1",1701294397947,"29/11/2023 21:46:37",1701272797947,-6,"29/11/2023 09:46:37",154366,3,"task-psw4",NA,33312827,9862706,NA,"complete",NA,"6567acc8ebb0b3fb1806ac65","computer","Desktop or Laptop","Windows 10","Chrome 119.0.0.0","1920x1080","1920x963",NA,NA,0,"Task",1,"FGEHDICJBA","Passed AC2",NA,"Spreadsheet1",NA,"","","",NA,"5","BEGIN",NA,NA,NA,NA,NA,NA,0,NA,NA,NA,NA,"","",NA,"","",NA,"SUPPRF79316"
"2",1701294401037,"29/11/2023 21:46:41",1701272801037,-6,"29/11/2023 09:46:41",154366,3,"task-psw4",NA,33312827,9862706,NA,"complete",NA,"6567acc8ebb0b3fb1806ac65","computer","Desktop or Laptop","Windows 10","Chrome 119.0.0.0","1920x1080","1920x963",NA,NA,0,"Task",1,"FGEHDICJBA","Passed AC2",NA,"Spreadsheet1",1,"Task Instructions","Screen 1","anr7sn",1,"continue","",2997.812,2993.07,2997.812,2997.812,2993.07,2997.812,1,2997.812,0,0,NA,"Click To Continue","Continue Button",2,"object-1944","Task Instructions",NA,"SUPPRF79316"
"3",1701294413382,"29/11/2023 21:46:53",1701272813382,-6,"29/11/2023 09:46:53",154366,3,"task-psw4",NA,33312827,9862706,NA,"complete",NA,"6567acc8ebb0b3fb1806ac65","computer","Desktop or Laptop","Windows 10","Chrome 119.0.0.0","1920x1080","1920x963",NA,NA,0,"Task",1,"FGEHDICJBA","Passed AC2",NA,"Spreadsheet1",1,"Task Instructions","Screen 2","ce2tc8",2,"continue","",12349.5419999998,12347.068,12349.5419999998,12349.5419999998,12347.068,12349.5419999998,1,12349.5419999998,0,0,NA,"Click To Continue","Continue Button",2,"object-7","Task Instructions",NA,"SUPPRF79316"
"4",1701294417059,"29/11/2023 21:46:57",1701272817059,-6,"29/11/2023 09:46:57",154366,3,"task-psw4",NA,33312827,9862706,NA,"complete",NA,"6567acc8ebb0b3fb1806ac65","computer","Desktop or Laptop","Windows 10","Chrome 119.0.0.0","1920x1080","1920x963",NA,NA,0,"Task",1,"FGEHDICJBA","Passed AC2",NA,"Spreadsheet1",1,"Task Instructions","Screen 3","1qtc8v",3,"continue","",3679.57399999991,3673.6,3679.57399999991,3679.57399999991,3673.6,3679.57399999991,1,3679.57399999991,0,0,NA,"Click To Continue","Continue Button",2,"object-52","Task Instructions",NA,"SUPPRF79316"
"5",1701294422739,"29/11/2023 21:47:02",1701272822739,-6,"29/11/2023 09:47:02",154366,3,"task-psw4",NA,33312827,9862706,NA,"complete",NA,"6567acc8ebb0b3fb1806ac65","computer","Desktop or Laptop","Windows 10","Chrome 119.0.0.0","1920x1080","1920x963",NA,NA,0,"Task",1,"FGEHDICJBA","Passed AC2",NA,"Spreadsheet1",1,"Task Instructions","Screen 4","spepx9",4,"continue","",5686.17400000009,5680.49,5686.17400000009,5686.17400000009,5680.49,5686.17400000009,1,5686.17400000009,0,0,NA,"Click To Continue","Continue Button",2,"object-9","Task Instructions",NA,"SUPPRF79316"
"6",1701294430369,"29/11/2023 21:47:10",1701272830369,-6,"29/11/2023 09:47:10",154366,3,"task-psw4",NA,33312827,9862706,NA,"complete",NA,"6567acc8ebb0b3fb1806ac65","computer","Desktop or Laptop","Windows 10","Chrome 119.0.0.0","1920x1080","1920x963",NA,NA,0,"Task",1,"FGEHDICJBA","Passed AC2",NA,"Spreadsheet1",1,"Task Instructions","Screen 5","8nvnao",5,"continue","",7635.88399999981,7631.806,7635.88399999981,7635.88399999981,7631.806,7635.88399999981,1,7635.88399999981,0,0,NA,"Click To Continue","Continue Button",2,"object-44","Task Instructions",NA,"SUPPRF79316"
"7",1701294430373,"29/11/2023 21:47:10",1701272830373,-6,"29/11/2023 09:47:10",154366,3,"task-psw4",NA,33312827,9862706,NA,"complete",NA,"6567acc8ebb0b3fb1806ac65","computer","Desktop or Laptop","Windows 10","Chrome 119.0.0.0","1920x1080","1920x963",NA,NA,0,"Task",1,"FGEHDICJBA","Passed AC2",NA,"Spreadsheet1",NA,"","","",NA,"5","END",NA,NA,NA,NA,NA,NA,0,NA,NA,NA,NA,"","",NA,"","",NA,"SUPPRF79316"
"1",1701295045631,"29/11/2023 21:57:25",1701295045631,0,"29/11/2023 21:57:25",154366,3,"task-psw4",NA,33313206,9862626,NA,"complete",NA,"65679d99b32e3a198d3902d7","computer","Desktop or Laptop","Windows 10","Chrome 119.0.0.0","1366x768","1366x643",NA,NA,0,"Task",1,"DECFBGAHJI","Passed AC2",NA,"Spreadsheet1",NA,"","","",NA,"5","BEGIN",NA,NA,NA,NA,NA,NA,0,NA,NA,NA,NA,"","",NA,"","",NA,"SUPPRF41237"
"2",1701295049157,"29/11/2023 21:57:29",1701295049157,0,"29/11/2023 21:57:29",154366,3,"task-psw4",NA,33313206,9862626,NA,"complete",NA,"65679d99b32e3a198d3902d7","computer","Desktop or Laptop","Windows 10","Chrome 119.0.0.0","1366x768","1366x643",NA,NA,0,"Task",1,"DECFBGAHJI","Passed AC2",NA,"Spreadsheet1",1,"Task Instructions","Screen 1","anr7sn",1,"continue","",3394.60299995232,3383.171,3394.60299995232,3394.60299995232,3383.171,3394.60299995232,1,3394.60299995232,0,0,NA,"Click To Continue","Continue Button",2,"object-1944","Task Instructions",NA,"SUPPRF41237"
"3",1701295052518,"29/11/2023 21:57:32",1701295052518,0,"29/11/2023 21:57:32",154366,3,"task-psw4",NA,33313206,9862626,NA,"complete",NA,"65679d99b32e3a198d3902d7","computer","Desktop or Laptop","Windows 10","Chrome 119.0.0.0","1366x768","1366x643",NA,NA,0,"Task",1,"DECFBGAHJI","Passed AC2",NA,"Spreadsheet1",1,"Task Instructions","Screen 2","ce2tc8",2,"continue","",3374.132,3366.409,3374.132,3374.132,3366.409,3374.132,1,3374.132,0,0,NA,"Click To Continue","Continue Button",2,"object-7","Task Instructions",NA,"SUPPRF41237"
"4",1701295055116,"29/11/2023 21:57:35",1701295055116,0,"29/11/2023 21:57:35",154366,3,"task-psw4",NA,33313206,9862626,NA,"complete",NA,"65679d99b32e3a198d3902d7","computer","Desktop or Laptop","Windows 10","Chrome 119.0.0.0","1366x768","1366x643",NA,NA,0,"Task",1,"DECFBGAHJI","Passed AC2",NA,"Spreadsheet1",1,"Task Instructions","Screen 3","1qtc8v",3,"continue","",2605.52299995232,2599.868,2605.52299995232,2605.52299995232,2599.868,2605.52299995232,1,2605.52299995232,0,0,NA,"Click To Continue","Continue Button",2,"object-52","Task Instructions",NA,"SUPPRF41237"
"5",1701295059154,"29/11/2023 21:57:39",1701295059154,0,"29/11/2023 21:57:39",154366,3,"task-psw4",NA,33313206,9862626,NA,"complete",NA,"65679d99b32e3a198d3902d7","computer","Desktop or Laptop","Windows 10","Chrome 119.0.0.0","1366x768","1366x643",NA,NA,0,"Task",1,"DECFBGAHJI","Passed AC2",NA,"Spreadsheet1",1,"Task Instructions","Screen 4","spepx9",4,"continue","",4043.15499995232,4033.124,4043.15499995232,4043.15499995232,4033.124,4043.15499995232,1,4043.15499995232,0,0,NA,"Click To Continue","Continue Button",2,"object-9","Task Instructions",NA,"SUPPRF41237"
"6",1701295061941,"29/11/2023 21:57:41",1701295061941,0,"29/11/2023 21:57:41",154366,3,"task-psw4",NA,33313206,9862626,NA,"complete",NA,"65679d99b32e3a198d3902d7","computer","Desktop or Laptop","Windows 10","Chrome 119.0.0.0","1366x768","1366x643",NA,NA,0,"Task",1,"DECFBGAHJI","Passed AC2",NA,"Spreadsheet1",1,"Task Instructions","Screen 5","8nvnao",5,"continue","",2797.33099990463,2783.139,2797.33099990463,2797.33099990463,2783.139,2797.33099990463,1,2797.33099990463,0,0,NA,"Click To Continue","Continue Button",2,"object-44","Task Instructions",NA,"SUPPRF41237"
"7",1701295061950,"29/11/2023 21:57:41",1701295061950,0,"29/11/2023 21:57:41",154366,3,"task-psw4",NA,33313206,9862626,NA,"complete",NA,"65679d99b32e3a198d3902d7","computer","Desktop or Laptop","Windows 10","Chrome 119.0.0.0","1366x768","1366x643",NA,NA,0,"Task",1,"DECFBGAHJI","Passed AC2",NA,"Spreadsheet1",NA,"","","",NA,"5","END",NA,NA,NA,NA,NA,NA,0,NA,NA,NA,NA,"","",NA,"","",NA,"SUPPRF41237"
"1",1701297546728,"29/11/2023 22:39:06",1701268746728,-8,"29/11/2023 06:39:06",154366,3,"task-psw4",NA,33314437,9862893,NA,"complete",NA,"6567b1e14ba7490d8c067f97","computer","Desktop or Laptop","Windows 10","Chrome 119.0.0.0","1536x864","1536x715",NA,NA,0,"Task",1,"GHFIEJDACB","Passed AC2",NA,"Spreadsheet1",NA,"","","",NA,"5","BEGIN",NA,NA,NA,NA,NA,NA,0,NA,NA,NA,NA,"","",NA,"","",NA,"SUPPRF62780"
"2",1701297549819,"29/11/2023 22:39:09",1701268749819,-8,"29/11/2023 06:39:09",154366,3,"task-psw4",NA,33314437,9862893,NA,"complete",NA,"6567b1e14ba7490d8c067f97","computer","Desktop or Laptop","Windows 10","Chrome 119.0.0.0","1536x864","1536x715",NA,NA,0,"Task",1,"GHFIEJDACB","Passed AC2",NA,"Spreadsheet1",1,"Task Instructions","Screen 1","anr7sn",1,"continue","",2866.495,2860.445,2866.495,2866.495,2860.445,2866.495,1,2866.495,0,0,NA,"Click To Continue","Continue Button",2,"object-1944","Task Instructions",NA,"SUPPRF62780"
"3",1701297556530,"29/11/2023 22:39:16",1701268756530,-8,"29/11/2023 06:39:16",154366,3,"task-psw4",NA,33314437,9862893,NA,"complete",NA,"6567b1e14ba7490d8c067f97","computer","Desktop or Laptop","Windows 10","Chrome 119.0.0.0","1536x864","1536x715",NA,NA,0,"Task",1,"GHFIEJDACB","Passed AC2",NA,"Spreadsheet1",1,"Task Instructions","Screen 2","ce2tc8",2,"continue","",6718.24499997616,6714.826,6718.24499997616,6718.24499997616,6714.826,6718.24499997616,1,6718.24499997616,0,0,NA,"Click To Continue","Continue Button",2,"object-7","Task Instructions",NA,"SUPPRF62780"
"4",1701297559291,"29/11/2023 22:39:19",1701268759291,-8,"29/11/2023 06:39:19",154366,3,"task-psw4",NA,33314437,9862893,NA,"complete",NA,"6567b1e14ba7490d8c067f97","computer","Desktop or Laptop","Windows 10","Chrome 119.0.0.0","1536x864","1536x715",NA,NA,0,"Task",1,"GHFIEJDACB","Passed AC2",NA,"Spreadsheet1",1,"Task Instructions","Screen 3","1qtc8v",3,"continue","",2763.497,2757.465,2763.497,2763.497,2757.465,2763.497,1,2763.497,0,0,NA,"Click To Continue","Continue Button",2,"object-52","Task Instructions",NA,"SUPPRF62780"
