"Event.Index","UTC.Timestamp","UTC.Date.and.Time","Local.Timestamp","Local.Timezone","Local.Date.and.Time","Experiment.ID","Experiment.Version","Tree.Node.Key","Repeat.Key","Schedule.ID","Participant.Private.ID","Participant.Starting.Group","Participant.Status","Participant.Completion.Code","Participant.External.Session.ID","Participant.Device.Type","Participant.Device","Participant.OS","Participant.Browser","Participant.Monitor.Size","Participant.Viewport.Size","Checkpoint","Room.ID","Room.Order","Task.Name","Task.Version","order.ot79","randomiser.lqqr","randomiser.28m8","randomiser.tf5j","Spreadsheet","Trial.Number","Display","Screen","Screen.ID","Screen.Counter","Response.Type","Response","Onset.Time","Clock.Time","Reaction.Time","Absolute.Onset.Time","Absolute.Clock.Time","Absolute.Reaction.Time","Correct","Response.Onset","Response.Duration","Proportion","Tag","Component.Name","Object.Name","Object.Number","Object.ID","Spreadsheet..display","Manipulation..Spreadsheet","Random_ID"
"1",1692005521224,"14/08/2023 09:32:01",1692009121224,1,"14/08/2023 11:32:01",140743,17,"task-n9i1",NA,31172394,9241761,NA,"complete",NA,"64d9ff8d839c19319fab2911","computer","Desktop or Laptop","Windows 10","Chrome 115.0.0.0","1536x864","1536x707",NA,NA,0,"Pre-Task Notice",2,"BCADJEIFHG","B (Feedback ranking_L1 First)","study_1 (JV and feedback_list_1)","","Spreadsheet1",NA,"","","",NA,"5","BEGIN",NA,NA,NA,NA,NA,NA,0,NA,NA,NA,NA,"","",NA,"","",NA,"SUPPRF18538"
"2",1692005530156,"14/08/2023 09:32:10",1692009130156,1,"14/08/2023 11:32:10",140743,17,"task-n9i1",NA,31172394,9241761,NA,"complete",NA,"64d9ff8d839c19319fab2911","computer","Desktop or Laptop","Windows 10","Chrome 115.0.0.0","1536x864","1536x707",NA,NA,0,"Pre-Task Notice",2,"BCADJEIFHG","B (Feedback ranking_L1 First)","study_1 (JV and feedback_list_1)","","Spreadsheet1",1,"Screen","Screen 1","xrjwiw",1,"continue","",8937.741,8930.704,8937.741,8937.741,8930.704,8937.741,1,8937.741,0,0,NA,"Click To Continue","Continue Button",2,"object-4","Screen",NA,"SUPPRF18538"
"3",1692005530159,"14/08/2023 09:32:10",1692009130159,1,"14/08/2023 11:32:10",140743,17,"task-n9i1",NA,31172394,9241761,NA,"complete",NA,"64d9ff8d839c19319fab2911","computer","Desktop or Laptop","Windows 10","Chrome 115.0.0.0","1536x864","1536x707",NA,NA,0,"Pre-Task Notice",2,"BCADJEIFHG","B (Feedback ranking_L1 First)","study_1 (JV and feedback_list_1)","","Spreadsheet1",NA,"","","",NA,"5","END",NA,NA,NA,NA,NA,NA,0,NA,NA,NA,NA,"","",NA,"","",NA,"SUPPRF18538"
"1",1692006371646,"14/08/2023 09:46:11",1692009971646,1,"14/08/2023 11:46:11",140743,17,"task-n9i1",NA,31172691,9241751,NA,"complete",NA,"64d9ff3c7251de5e68eab8bb","computer","Desktop or Laptop","Windows 10","Chrome 115.0.0.0","1536x864","1536x747",NA,NA,0,"Pre-Task Notice",2,"EFDGCHBIAJ","B (Feedback ranking_L1 First)","study_1 (JV and feedback_list_1)","","Spreadsheet1",NA,"","","",NA,"5","BEGIN",NA,NA,NA,NA,NA,NA,0,NA,NA,NA,NA,"","",NA,"","",NA,"SUPPRF73133"
"2",1692006375043,"14/08/2023 09:46:15",1692009975043,1,"14/08/2023 11:46:15",140743,17,"task-n9i1",NA,31172691,9241751,NA,"complete",NA,"64d9ff3c7251de5e68eab8bb","computer","Desktop or Laptop","Windows 10","Chrome 115.0.0.0","1536x864","1536x747",NA,NA,0,"Pre-Task Notice",2,"EFDGCHBIAJ","B (Feedback ranking_L1 First)","study_1 (JV and feedback_list_1)","","Spreadsheet1",1,"Screen","Screen 1","xrjwiw",1,"continue","",3420.11100001192,3413.114,3420.11100001192,3420.11100001192,3413.114,3420.11100001192,1,3420.11100001192,0,0,NA,"Click To Continue","Continue Button",2,"object-4","Screen",NA,"SUPPRF73133"
"3",1692006375048,"14/08/2023 09:46:15",1692009975048,1,"14/08/2023 11:46:15",140743,17,"task-n9i1",NA,31172691,9241751,NA,"complete",NA,"64d9ff3c7251de5e68eab8bb","computer","Desktop or Laptop","Windows 10","Chrome 115.0.0.0","1536x864","1536x747",NA,NA,0,"Pre-Task Notice",2,"EFDGCHBIAJ","B (Feedback ranking_L1 First)","study_1 (JV and feedback_list_1)","","Spreadsheet1",NA,"","","",NA,"5","END",NA,NA,NA,NA,NA,NA,0,NA,NA,NA,NA,"","",NA,"","",NA,"SUPPRF73133"
"1",1692006417196,"14/08/2023 09:46:57",1692010017196,1,"14/08/2023 11:46:57",140743,17,"task-n9i1",NA,31172707,9241820,NA,"complete",NA,"64da01617f4e2f7acbe39dd7","computer","Desktop or Laptop","Windows 10","Chrome 115.0.0.0","1536x864","1536x747",NA,NA,0,"Pre-Task Notice",2,"GHFIEJDACB","","study_2 (video_feedback and feedback_list_2)","VF_1st","Spreadsheet1",NA,"","","",NA,"5","BEGIN",NA,NA,NA,NA,NA,NA,0,NA,NA,NA,NA,"","",NA,"","",NA,"SUPPRF56705"
"2",1692006418792,"14/08/2023 09:46:58",1692010018792,1,"14/08/2023 11:46:58",140743,17,"task-n9i1",NA,31172707,9241820,NA,"complete",NA,"64da01617f4e2f7acbe39dd7","computer","Desktop or Laptop","Windows 10","Chrome 115.0.0.0","1536x864","1536x747",NA,NA,0,"Pre-Task Notice",2,"GHFIEJDACB","","study_2 (video_feedback and feedback_list_2)","VF_1st","Spreadsheet1",1,"Screen","Screen 1","xrjwiw",1,"continue","",1618.02200000596,1615.998,1618.02200000596,1618.02200000596,1615.998,1618.02200000596,1,1618.02200000596,0,0,NA,"Click To Continue","Continue Button",2,"object-4","Screen",NA,"SUPPRF56705"
"3",1692006418793,"14/08/2023 09:46:58",1692010018793,1,"14/08/2023 11:46:58",140743,17,"task-n9i1",NA,31172707,9241820,NA,"complete",NA,"64da01617f4e2f7acbe39dd7","computer","Desktop or Laptop","Windows 10","Chrome 115.0.0.0","1536x864","1536x747",NA,NA,0,"Pre-Task Notice",2,"GHFIEJDACB","","study_2 (video_feedback and feedback_list_2)","VF_1st","Spreadsheet1",NA,"","","",NA,"5","END",NA,NA,NA,NA,NA,NA,0,NA,NA,NA,NA,"","",NA,"","",NA,"SUPPRF56705"
"1",1692006614555,"14/08/2023 09:50:14",1692010214555,1,"14/08/2023 11:50:14",140743,17,"task-n9i1",NA,31172778,9241865,NA,"complete",NA,"64da04919351a898f9c3ea48","computer","Desktop or Laptop","Windows 10","Chrome 115.0.0.0","1920x1080","500x512",NA,NA,0,"Pre-Task Notice",2,"IJHAGBFCED","A (JV first)","study_1 (JV and feedback_list_1)","","Spreadsheet1",NA,"","","",NA,"5","BEGIN",NA,NA,NA,NA,NA,NA,0,NA,NA,NA,NA,"","",NA,"","",NA,"SUPPRF41746"
"2",1692006635341,"14/08/2023 09:50:35",1692010235341,1,"14/08/2023 11:50:35",140743,17,"task-n9i1",NA,31172778,9241865,NA,"complete",NA,"64da04919351a898f9c3ea48","computer","Desktop or Laptop","Windows 10","Chrome 115.0.0.0","1920x1080","1920x955",NA,NA,0,"Pre-Task Notice",2,"IJHAGBFCED","A (JV first)","study_1 (JV and feedback_list_1)","","Spreadsheet1",1,"Screen","Screen 1","xrjwiw",1,"continue","",20799.217,20782.548,20799.217,20799.217,20782.548,20799.217,1,20799.217,0,0,NA,"Click To Continue","Continue Button",2,"object-4","Screen",NA,"SUPPRF41746"
"3",1692006635350,"14/08/2023 09:50:35",1692010235350,1,"14/08/2023 11:50:35",140743,17,"task-n9i1",NA,31172778,9241865,NA,"complete",NA,"64da04919351a898f9c3ea48","computer","Desktop or Laptop","Windows 10","Chrome 115.0.0.0","1920x1080","1920x955",NA,NA,0,"Pre-Task Notice",2,"IJHAGBFCED","A (JV first)","study_1 (JV and feedback_list_1)","","Spreadsheet1",NA,"","","",NA,"5","END",NA,NA,NA,NA,NA,NA,0,NA,NA,NA,NA,"","",NA,"","",NA,"SUPPRF41746"
"1",1692006629390,"14/08/2023 09:50:29",1692010229390,1,"14/08/2023 11:50:29",140743,17,"task-n9i1",NA,31172782,9241854,NA,"complete",NA,"64da041f0e6d392fff657804","computer","Desktop or Laptop","Mac OS 10.15.7","Safari 16.5.1","1440x900","1212x795",NA,NA,0,"Pre-Task Notice",2,"HIGJFAEBDC","A (JV first)","study_1 (JV and feedback_list_1)","","Spreadsheet1",NA,"","","",NA,"5","BEGIN",NA,NA,NA,NA,NA,NA,0,NA,NA,NA,NA,"","",NA,"","",NA,"SUPPRF15001"
"2",1692006632990,"14/08/2023 09:50:32",1692010232990,1,"14/08/2023 11:50:32",140743,17,"task-n9i1",NA,31172782,9241854,NA,"complete",NA,"64da041f0e6d392fff657804","computer","Desktop or Laptop","Mac OS 10.15.7","Safari 16.5.1","1440x900","1212x795",NA,NA,0,"Pre-Task Notice",2,"HIGJFAEBDC","A (JV first)","study_1 (JV and feedback_list_1)","","Spreadsheet1",1,"Screen","Screen 1","xrjwiw",1,"continue","",4289,4255,4289,4289,4255,4289,1,4289,0,0,NA,"Click To Continue","Continue Button",2,"object-4","Screen",NA,"SUPPRF15001"
"3",1692006632992,"14/08/2023 09:50:32",1692010232992,1,"14/08/2023 11:50:32",140743,17,"task-n9i1",NA,31172782,9241854,NA,"complete",NA,"64da041f0e6d392fff657804","computer","Desktop or Laptop","Mac OS 10.15.7","Safari 16.5.1","1440x900","1212x795",NA,NA,0,"Pre-Task Notice",2,"HIGJFAEBDC","A (JV first)","study_1 (JV and feedback_list_1)","","Spreadsheet1",NA,"","","",NA,"5","END",NA,NA,NA,NA,NA,NA,0,NA,NA,NA,NA,"","",NA,"","",NA,"SUPPRF15001"
"1",1692007139695,"14/08/2023 09:58:59",1692010739695,1,"14/08/2023 11:58:59",140743,17,"task-n9i1",NA,31172926,9241888,NA,"complete",NA,"64da05cb6b98735afb657801","computer","Desktop or Laptop","Windows 10","Chrome 115.0.0.0","1366x768","1366x689",NA,NA,0,"Pre-Task Notice",2,"JAIBHCGDFE","","study_2 (video_feedback and feedback_list_2)","VF_1st","Spreadsheet1",NA,"","","",NA,"5","BEGIN",NA,NA,NA,NA,NA,NA,0,NA,NA,NA,NA,"","",NA,"","",NA,"SUPPRF94218"
"2",1692007143224,"14/08/2023 09:59:03",1692010743224,1,"14/08/2023 11:59:03",140743,17,"task-n9i1",NA,31172926,9241888,NA,"complete",NA,"64da05cb6b98735afb657801","computer","Desktop or Laptop","Windows 10","Chrome 115.0.0.0","1366x768","1366x689",NA,NA,0,"Pre-Task Notice",2,"JAIBHCGDFE","","study_2 (video_feedback and feedback_list_2)","VF_1st","Spreadsheet1",1,"Screen","Screen 1","xrjwiw",1,"continue","",3541.53599998212,3533.493,3541.53599998212,3541.53599998212,3533.493,3541.53599998212,1,3541.53599998212,0,0,NA,"Click To Continue","Continue Button",2,"object-4","Screen",NA,"SUPPRF94218"
"3",1692007143228,"14/08/2023 09:59:03",1692010743228,1,"14/08/2023 11:59:03",140743,17,"task-n9i1",NA,31172926,9241888,NA,"complete",NA,"64da05cb6b98735afb657801","computer","Desktop or Laptop","Windows 10","Chrome 115.0.0.0","1366x768","1366x689",NA,NA,0,"Pre-Task Notice",2,"JAIBHCGDFE","","study_2 (video_feedback and feedback_list_2)","VF_1st","Spreadsheet1",NA,"","","",NA,"5","END",NA,NA,NA,NA,NA,NA,0,NA,NA,NA,NA,"","",NA,"","",NA,"SUPPRF94218"
"1",1692015002701,"14/08/2023 12:10:02",1692018602701,1,"14/08/2023 14:10:02",140743,17,"task-n9i1",NA,31175502,9242434,NA,"complete",NA,"64da237da070b69f2c9aafbb","computer","Desktop or Laptop","Mac OS 10.15.7","Safari 16.5.2","1440x900","1324x724",NA,NA,0,"Pre-Task Notice",2,"EFDGCHBIAJ","B (Feedback ranking_L1 First)","study_1 (JV and feedback_list_1)","","Spreadsheet1",NA,"","","",NA,"5","BEGIN",NA,NA,NA,NA,NA,NA,0,NA,NA,NA,NA,"","",NA,"","",NA,"SUPPRF63488"
"2",1692015014596,"14/08/2023 12:10:14",1692018614596,1,"14/08/2023 14:10:14",140743,17,"task-n9i1",NA,31175502,9242434,NA,"complete",NA,"64da237da070b69f2c9aafbb","computer","Desktop or Laptop","Mac OS 10.15.7","Safari 16.5.2","1440x900","1324x724",NA,NA,0,"Pre-Task Notice",2,"EFDGCHBIAJ","B (Feedback ranking_L1 First)","study_1 (JV and feedback_list_1)","","Spreadsheet1",1,"Screen","Screen 1","xrjwiw",1,"continue","",14635,14621,14635,14635,14621,14635,1,14635,0,0,NA,"Click To Continue","Continue Button",2,"object-4","Screen",NA,"SUPPRF63488"
"3",1692015014600,"14/08/2023 12:10:14",1692018614600,1,"14/08/2023 14:10:14",140743,17,"task-n9i1",NA,31175502,9242434,NA,"complete",NA,"64da237da070b69f2c9aafbb","computer","Desktop or Laptop","Mac OS 10.15.7","Safari 16.5.2","1440x900","1324x724",NA,NA,0,"Pre-Task Notice",2,"EFDGCHBIAJ","B (Feedback ranking_L1 First)","study_1 (JV and feedback_list_1)","","Spreadsheet1",NA,"","","",NA,"5","END",NA,NA,NA,NA,NA,NA,0,NA,NA,NA,NA,"","",NA,"","",NA,"SUPPRF63488"
"1",1692015032015,"14/08/2023 12:10:32",1692018632015,1,"14/08/2023 14:10:32",140743,17,"task-n9i1",NA,31175511,9242435,NA,"complete",NA,"64da244f22c1185dd4ea45ff","computer","Desktop or Laptop","Windows 10","Chrome 115.0.0.0","1536x864","1536x707",NA,NA,0,"Pre-Task Notice",2,"FGEHDICJBA","A (JV first)","study_1 (JV and feedback_list_1)","","Spreadsheet1",NA,"","","",NA,"5","BEGIN",NA,NA,NA,NA,NA,NA,0,NA,NA,NA,NA,"","",NA,"","",NA,"SUPPRF82002"
"2",1692015035277,"14/08/2023 12:10:35",1692018635277,1,"14/08/2023 14:10:35",140743,17,"task-n9i1",NA,31175511,9242435,NA,"complete",NA,"64da244f22c1185dd4ea45ff","computer","Desktop or Laptop","Windows 10","Chrome 115.0.0.0","1536x864","1536x707",NA,NA,0,"Pre-Task Notice",2,"FGEHDICJBA","A (JV first)","study_1 (JV and feedback_list_1)","","Spreadsheet1",1,"Screen","Screen 1","xrjwiw",1,"continue","",3305.81,3300.44,3305.81,3305.81,3300.44,3305.81,1,3305.81,0,0,NA,"Click To Continue","Continue Button",2,"object-4","Screen",NA,"SUPPRF82002"
"3",1692015035286,"14/08/2023 12:10:35",1692018635286,1,"14/08/2023 14:10:35",140743,17,"task-n9i1",NA,31175511,9242435,NA,"complete",NA,"64da244f22c1185dd4ea45ff","computer","Desktop or Laptop","Windows 10","Chrome 115.0.0.0","1536x864","1536x707",NA,NA,0,"Pre-Task Notice",2,"FGEHDICJBA","A (JV first)","study_1 (JV and feedback_list_1)","","Spreadsheet1",NA,"","","",NA,"5","END",NA,NA,NA,NA,NA,NA,0,NA,NA,NA,NA,"","",NA,"","",NA,"SUPPRF82002"
"1",1692016013101,"14/08/2023 12:26:53",1692019613101,1,"14/08/2023 14:26:53",140743,17,"task-n9i1",NA,31175837,9242502,NA,"complete",NA,"64da2735ae3e62b81bdf7946","computer","Desktop or Laptop","Windows 10","Chrome 115.0.0.0","1280x720","1280x603",NA,NA,0,"Pre-Task Notice",2,"HIGJFAEBDC","","study_2 (video_feedback and feedback_list_2)","VF_1st","Spreadsheet1",NA,"","","",NA,"5","BEGIN",NA,NA,NA,NA,NA,NA,0,NA,NA,NA,NA,"","",NA,"","",NA,"SUPPRF05791"
"2",1692016016262,"14/08/2023 12:26:56",1692019616262,1,"14/08/2023 14:26:56",140743,17,"task-n9i1",NA,31175837,9242502,NA,"complete",NA,"64da2735ae3e62b81bdf7946","computer","Desktop or Laptop","Windows 10","Chrome 115.0.0.0","1280x720","1280x603",NA,NA,0,"Pre-Task Notice",2,"HIGJFAEBDC","","study_2 (video_feedback and feedback_list_2)","VF_1st","Spreadsheet1",1,"Screen","Screen 1","xrjwiw",1,"continue","",3189.02500001192,3180.336,3189.02500001192,3189.02500001192,3180.336,3189.02500001192,1,3189.02500001192,0,0,NA,"Click To Continue","Continue Button",2,"object-4","Screen",NA,"SUPPRF05791"
"3",1692016016265,"14/08/2023 12:26:56",1692019616265,1,"14/08/2023 14:26:56",140743,17,"task-n9i1",NA,31175837,9242502,NA,"complete",NA,"64da2735ae3e62b81bdf7946","computer","Desktop or Laptop","Windows 10","Chrome 115.0.0.0","1280x720","1280x603",NA,NA,0,"Pre-Task Notice",2,"HIGJFAEBDC","","study_2 (video_feedback and feedback_list_2)","VF_1st","Spreadsheet1",NA,"","","",NA,"5","END",NA,NA,NA,NA,NA,NA,0,NA,NA,NA,NA,"","",NA,"","",NA,"SUPPRF05791"
"1",1692027877318,"14/08/2023 15:44:37",1692031477318,1,"14/08/2023 17:44:37",140743,17,"task-n9i1",NA,31180675,9243732,NA,"complete",NA,"64da57bf281e21980598870b","computer","Desktop or Laptop","Windows 10","Chrome 115.0.0.0","1536x864","1536x707",NA,NA,0,"Pre-Task Notice",2,"CDBEAFJGIH","B (Feedback ranking_L1 First)","study_1 (JV and feedback_list_1)","","Spreadsheet1",NA,"","","",NA,"5","BEGIN",NA,NA,NA,NA,NA,NA,0,NA,NA,NA,NA,"","",NA,"","",NA,"SUPPRF84507"
"2",1692027881730,"14/08/2023 15:44:41",1692031481730,1,"14/08/2023 17:44:41",140743,17,"task-n9i1",NA,31180675,9243732,NA,"complete",NA,"64da57bf281e21980598870b","computer","Desktop or Laptop","Windows 10","Chrome 115.0.0.0","1536x864","1536x707",NA,NA,0,"Pre-Task Notice",2,"CDBEAFJGIH","B (Feedback ranking_L1 First)","study_1 (JV and feedback_list_1)","","Spreadsheet1",1,"Screen","Screen 1","xrjwiw",1,"continue","",4428.62500002384,4416.277,4428.62500002384,4428.62500002384,4416.277,4428.62500002384,1,4428.62500002384,0,0,NA,"Click To Continue","Continue Button",2,"object-4","Screen",NA,"SUPPRF84507"
"3",1692027881735,"14/08/2023 15:44:41",1692031481735,1,"14/08/2023 17:44:41",140743,17,"task-n9i1",NA,31180675,9243732,NA,"complete",NA,"64da57bf281e21980598870b","computer","Desktop or Laptop","Windows 10","Chrome 115.0.0.0","1536x864","1536x707",NA,NA,0,"Pre-Task Notice",2,"CDBEAFJGIH","B (Feedback ranking_L1 First)","study_1 (JV and feedback_list_1)","","Spreadsheet1",NA,"","","",NA,"5","END",NA,NA,NA,NA,NA,NA,0,NA,NA,NA,NA,"","",NA,"","",NA,"SUPPRF84507"
"1",1692084664886,"15/08/2023 07:31:04",1692088264886,1,"15/08/2023 09:31:04",140743,17,"task-n9i1",NA,31187023,9247022,NA,"complete",NA,"64db3028111b0ff40205a905","computer","Desktop or Laptop","Mac OS 10.15.7","Chrome 114.0.0.0","1440x900","1440x690",NA,NA,0,"Pre-Task Notice",2,"GHFIEJDACB","","study_2 (video_feedback and feedback_list_2)","VF_1st","Spreadsheet1",NA,"","","",NA,"5","BEGIN",NA,NA,NA,NA,NA,NA,0,NA,NA,NA,NA,"","",NA,"","",NA,"SUPPRF66474"
"2",1692084669136,"15/08/2023 07:31:09",1692088269136,1,"15/08/2023 09:31:09",140743,17,"task-n9i1",NA,31187023,9247022,NA,"complete",NA,"64db3028111b0ff40205a905","computer","Desktop or Laptop","Mac OS 10.15.7","Chrome 114.0.0.0","1440x900","1440x690",NA,NA,0,"Pre-Task Notice",2,"GHFIEJDACB","","study_2 (video_feedback and feedback_list_2)","VF_1st","Spreadsheet1",1,"Screen","Screen 1","xrjwiw",1,"continue","",4258.80999995232,4249.83,4258.80999995232,4258.80999995232,4249.83,4258.80999995232,1,4258.80999995232,0,0,NA,"Click To Continue","Continue Button",2,"object-4","Screen",NA,"SUPPRF66474"
"3",1692084669138,"15/08/2023 07:31:09",1692088269138,1,"15/08/2023 09:31:09",140743,17,"task-n9i1",NA,31187023,9247022,NA,"complete",NA,"64db3028111b0ff40205a905","computer","Desktop or Laptop","Mac OS 10.15.7","Chrome 114.0.0.0","1440x900","1440x690",NA,NA,0,"Pre-Task Notice",2,"GHFIEJDACB","","study_2 (video_feedback and feedback_list_2)","VF_1st","Spreadsheet1",NA,"","","",NA,"5","END",NA,NA,NA,NA,NA,NA,0,NA,NA,NA,NA,"","",NA,"","",NA,"SUPPRF66474"
"1",1692192696975,"16/08/2023 13:31:36",1692196296975,1,"16/08/2023 15:31:36",140743,17,"task-n9i1",NA,31221173,9254439,NA,"complete",NA,"64dcdc11738dec7846d76850","computer","Desktop or Laptop","Windows 10","Chrome 115.0.0.0","1920x1080","1920x937",NA,NA,0,"Pre-Task Notice",2,"GHFIEJDACB","B (Feedback ranking_L1 First)","study_1 (JV and feedback_list_1)","","Spreadsheet1",NA,"","","",NA,"5","BEGIN",NA,NA,NA,NA,NA,NA,0,NA,NA,NA,NA,"","",NA,"","",NA,"SUPPRF89096"
"2",1692192708600,"16/08/2023 13:31:48",1692196308600,1,"16/08/2023 15:31:48",140743,17,"task-n9i1",NA,31221173,9254439,NA,"complete",NA,"64dcdc11738dec7846d76850","computer","Desktop or Laptop","Windows 10","Chrome 115.0.0.0","1920x1080","1920x937",NA,NA,0,"Pre-Task Notice",2,"GHFIEJDACB","B (Feedback ranking_L1 First)","study_1 (JV and feedback_list_1)","","Spreadsheet1",1,"Screen","Screen 1","xrjwiw",1,"continue","",11635.1930000001,11630.908,11635.1930000001,11635.1930000001,11630.908,11635.1930000001,1,11635.1930000001,0,0,NA,"Click To Continue","Continue Button",2,"object-4","Screen",NA,"SUPPRF89096"
"3",1692192708602,"16/08/2023 13:31:48",1692196308602,1,"16/08/2023 15:31:48",140743,17,"task-n9i1",NA,31221173,9254439,NA,"complete",NA,"64dcdc11738dec7846d76850","computer","Desktop or Laptop","Windows 10","Chrome 115.0.0.0","1920x1080","1920x937",NA,NA,0,"Pre-Task Notice",2,"GHFIEJDACB","B (Feedback ranking_L1 First)","study_1 (JV and feedback_list_1)","","Spreadsheet1",NA,"","","",NA,"5","END",NA,NA,NA,NA,NA,NA,0,NA,NA,NA,NA,"","",NA,"","",NA,"SUPPRF89096"
"1",1692447402423,"19/08/2023 12:16:42",1692451002423,1,"19/08/2023 14:16:42",140743,17,"task-n9i1",NA,31255423,9265347,NA,"complete",NA,"64e0bcd5bf3ef3ff724048a9","computer","Desktop or Laptop","Windows 10","Edge 114.0.1823.82","1366x768","1311x649",NA,NA,0,"Pre-Task Notice",2,"BCADJEIFHG","","study_2 (video_feedback and feedback_list_2)","Feedback_ranking_L2_first","Spreadsheet1",NA,"","","",NA,"5","BEGIN",NA,NA,NA,NA,NA,NA,0,NA,NA,NA,NA,"","",NA,"","",NA,"SUPPRF88097"
"2",1692447412186,"19/08/2023 12:16:52",1692451012186,1,"19/08/2023 14:16:52",140743,17,"task-n9i1",NA,31255423,9265347,NA,"complete",NA,"64e0bcd5bf3ef3ff724048a9","computer","Desktop or Laptop","Windows 10","Edge 114.0.1823.82","1366x768","1311x649",NA,NA,0,"Pre-Task Notice",2,"BCADJEIFHG","","study_2 (video_feedback and feedback_list_2)","Feedback_ranking_L2_first","Spreadsheet1",1,"Screen","Screen 1","xrjwiw",1,"continue","",9783.08899980926,9775.565,9783.08899980926,9783.08899980926,9775.565,9783.08899980926,1,9783.08899980926,0,0,NA,"Click To Continue","Continue Button",2,"object-4","Screen",NA,"SUPPRF88097"
"3",1692447412188,"19/08/2023 12:16:52",1692451012188,1,"19/08/2023 14:16:52",140743,17,"task-n9i1",NA,31255423,9265347,NA,"complete",NA,"64e0bcd5bf3ef3ff724048a9","computer","Desktop or Laptop","Windows 10","Edge 114.0.1823.82","1366x768","1311x649",NA,NA,0,"Pre-Task Notice",2,"BCADJEIFHG","","study_2 (video_feedback and feedback_list_2)","Feedback_ranking_L2_first","Spreadsheet1",NA,"","","",NA,"5","END",NA,NA,NA,NA,NA,NA,0,NA,NA,NA,NA,"","",NA,"","",NA,"SUPPRF88097"
"1",1693056669387,"26/08/2023 13:31:09",1693060269387,1,"26/08/2023 15:31:09",140743,17,"task-n9i1",NA,31376712,9292133,NA,"complete",NA,"64ea0abb4fcce2d50f284df2","computer","Desktop or Laptop","Mac OS 10.15.7","Safari 16.0","820x1180","820x1073",NA,NA,0,"Pre-Task Notice",2,"HIGJFAEBDC","","study_2 (video_feedback and feedback_list_2)","Feedback_ranking_L2_first","Spreadsheet1",NA,"","","",NA,"5","BEGIN",NA,NA,NA,NA,NA,NA,0,NA,NA,NA,NA,"","",NA,"","",NA,"SUPPRF79831"
"2",1693056674364,"26/08/2023 13:31:14",1693060274364,1,"26/08/2023 15:31:14",140743,17,"task-n9i1",NA,31376712,9292133,NA,"complete",NA,"64ea0abb4fcce2d50f284df2","computer","Desktop or Laptop","Mac OS 10.15.7","Safari 16.0","820x1180","820x1073",NA,NA,0,"Pre-Task Notice",2,"HIGJFAEBDC","","study_2 (video_feedback and feedback_list_2)","Feedback_ranking_L2_first","Spreadsheet1",1,"Screen","Screen 1","xrjwiw",1,"continue","",4972,4955,4972,4972,4955,4972,1,4972,0,0,NA,"Click To Continue","Continue Button",2,"object-4","Screen",NA,"SUPPRF79831"
"3",1693056674370,"26/08/2023 13:31:14",1693060274370,1,"26/08/2023 15:31:14",140743,17,"task-n9i1",NA,31376712,9292133,NA,"complete",NA,"64ea0abb4fcce2d50f284df2","computer","Desktop or Laptop","Mac OS 10.15.7","Safari 16.0","820x1180","820x1073",NA,NA,0,"Pre-Task Notice",2,"HIGJFAEBDC","","study_2 (video_feedback and feedback_list_2)","Feedback_ranking_L2_first","Spreadsheet1",NA,"","","",NA,"5","END",NA,NA,NA,NA,NA,NA,0,NA,NA,NA,NA,"","",NA,"","",NA,"SUPPRF79831"
"1",1693225287346,"28/08/2023 12:21:27",1693228887346,1,"28/08/2023 14:21:27",140743,17,"task-n9i1",NA,31390001,9296849,NA,"complete",NA,"64ec9ceab0ce5040c12ad22a","computer","Desktop or Laptop","Windows 10","Chrome 115.0.0.0","1366x768","1517x722",NA,NA,0,"Pre-Task Notice",2,"JAIBHCGDFE","B (Feedback ranking_L1 First)","study_1 (JV and feedback_list_1)","","Spreadsheet1",NA,"","","",NA,"5","BEGIN",NA,NA,NA,NA,NA,NA,0,NA,NA,NA,NA,"","",NA,"","",NA,"SUPPRF13138"
"2",1693225290895,"28/08/2023 12:21:30",1693228890895,1,"28/08/2023 14:21:30",140743,17,"task-n9i1",NA,31390001,9296849,NA,"complete",NA,"64ec9ceab0ce5040c12ad22a","computer","Desktop or Laptop","Windows 10","Chrome 115.0.0.0","1366x768","1517x722",NA,NA,0,"Pre-Task Notice",2,"JAIBHCGDFE","B (Feedback ranking_L1 First)","study_1 (JV and feedback_list_1)","","Spreadsheet1",1,"Screen","Screen 1","xrjwiw",1,"continue","",3567.681,3560.18,3567.681,3567.681,3560.18,3567.681,1,3567.681,0,0,NA,"Click To Continue","Continue Button",2,"object-4","Screen",NA,"SUPPRF13138"
"3",1693225290896,"28/08/2023 12:21:30",1693228890896,1,"28/08/2023 14:21:30",140743,17,"task-n9i1",NA,31390001,9296849,NA,"complete",NA,"64ec9ceab0ce5040c12ad22a","computer","Desktop or Laptop","Windows 10","Chrome 115.0.0.0","1366x768","1517x722",NA,NA,0,"Pre-Task Notice",2,"JAIBHCGDFE","B (Feedback ranking_L1 First)","study_1 (JV and feedback_list_1)","","Spreadsheet1",NA,"","","",NA,"5","END",NA,NA,NA,NA,NA,NA,0,NA,NA,NA,NA,"","",NA,"","",NA,"SUPPRF13138"
"1",1692034874995,"14/08/2023 17:41:14",1692038474995,1,"14/08/2023 19:41:14",140743,17,"task-n9i1",NA,31182660,9244459,NA,"complete",NA,"64da722cd7dae2d981f16215","computer","Desktop or Laptop","Windows 10","Chrome 115.0.0.0","1536x864","1707x830",NA,NA,0,"Pre-Task Notice",2,"FGEHDICJBA","B (Feedback ranking_L1 First)","study_1 (JV and feedback_list_1)","","Spreadsheet1",NA,"","","",NA,"5","BEGIN",NA,NA,NA,NA,NA,NA,0,NA,NA,NA,NA,"","",NA,"","",NA,"SUPPRF02973"
"2",1692034881042,"14/08/2023 17:41:21",1692038481042,1,"14/08/2023 19:41:21",140743,17,"task-n9i1",NA,31182660,9244459,NA,"complete",NA,"64da722cd7dae2d981f16215","computer","Desktop or Laptop","Windows 10","Chrome 115.0.0.0","1536x864","1707x830",NA,NA,0,"Pre-Task Notice",2,"FGEHDICJBA","B (Feedback ranking_L1 First)","study_1 (JV and feedback_list_1)","","Spreadsheet1",1,"Screen","Screen 1","xrjwiw",1,"continue","",6057.32099998808,6044.871,6057.32099998808,6057.32099998808,6044.871,6057.32099998808,1,6057.32099998808,0,0,NA,"Click To Continue","Continue Button",2,"object-4","Screen",NA,"SUPPRF02973"
"3",1692034881043,"14/08/2023 17:41:21",1692038481043,1,"14/08/2023 19:41:21",140743,17,"task-n9i1",NA,31182660,9244459,NA,"complete",NA,"64da722cd7dae2d981f16215","computer","Desktop or Laptop","Windows 10","Chrome 115.0.0.0","1536x864","1707x830",NA,NA,0,"Pre-Task Notice",2,"FGEHDICJBA","B (Feedback ranking_L1 First)","study_1 (JV and feedback_list_1)","","Spreadsheet1",NA,"","","",NA,"5","END",NA,NA,NA,NA,NA,NA,0,NA,NA,NA,NA,"","",NA,"","",NA,"SUPPRF02973"
"1",1692033900882,"14/08/2023 17:25:00",1692037500882,1,"14/08/2023 19:25:00",140743,17,"task-n9i1",NA,31181949,9244263,NA,"complete",NA,"64da6f1a5aac95015e309356","computer","Desktop or Laptop","Windows 10","Edge 115.0.1901.200","1366x768","1311x657",NA,NA,0,"Pre-Task Notice",2,"EFDGCHBIAJ","","study_2 (video_feedback and feedback_list_2)","Feedback_ranking_L2_first","Spreadsheet1",NA,"","","",NA,"5","BEGIN",NA,NA,NA,NA,NA,NA,0,NA,NA,NA,NA,"","",NA,"","",NA,"SUPPRF13522"
"2",1692033904561,"14/08/2023 17:25:04",1692037504561,1,"14/08/2023 19:25:04",140743,17,"task-n9i1",NA,31181949,9244263,NA,"complete",NA,"64da6f1a5aac95015e309356","computer","Desktop or Laptop","Windows 10","Edge 115.0.1901.200","1366x768","1311x657",NA,NA,0,"Pre-Task Notice",2,"EFDGCHBIAJ","","study_2 (video_feedback and feedback_list_2)","Feedback_ranking_L2_first","Spreadsheet1",1,"Screen","Screen 1","xrjwiw",1,"continue","",3725.42100001192,3717.336,3725.42100001192,3725.42100001192,3717.336,3725.42100001192,1,3725.42100001192,0,0,NA,"Click To Continue","Continue Button",2,"object-4","Screen",NA,"SUPPRF13522"
"3",1692033904575,"14/08/2023 17:25:04",1692037504575,1,"14/08/2023 19:25:04",140743,17,"task-n9i1",NA,31181949,9244263,NA,"complete",NA,"64da6f1a5aac95015e309356","computer","Desktop or Laptop","Windows 10","Edge 115.0.1901.200","1366x768","1311x657",NA,NA,0,"Pre-Task Notice",2,"EFDGCHBIAJ","","study_2 (video_feedback and feedback_list_2)","Feedback_ranking_L2_first","Spreadsheet1",NA,"","","",NA,"5","END",NA,NA,NA,NA,NA,NA,0,NA,NA,NA,NA,"","",NA,"","",NA,"SUPPRF13522"
"1",1692030865970,"14/08/2023 16:34:25",1692034465970,1,"14/08/2023 18:34:25",140743,17,"task-n9i1",NA,31181248,9244017,NA,"complete",NA,"64da50a5b280d5d8e5e9eb1f","computer","Desktop or Laptop","Windows 10","Chrome 114.0.0.0","1280x720","1280x609",NA,NA,0,"Pre-Task Notice",2,"DECFBGAHJI","","study_2 (video_feedback and feedback_list_2)","Feedback_ranking_L2_first","Spreadsheet1",NA,"","","",NA,"5","BEGIN",NA,NA,NA,NA,NA,NA,0,NA,NA,NA,NA,"","",NA,"","",NA,"SUPPRF53772"
"2",1692030873936,"14/08/2023 16:34:33",1692034473936,1,"14/08/2023 18:34:33",140743,17,"task-n9i1",NA,31181248,9244017,NA,"complete",NA,"64da50a5b280d5d8e5e9eb1f","computer","Desktop or Laptop","Windows 10","Chrome 114.0.0.0","1280x720","1280x609",NA,NA,0,"Pre-Task Notice",2,"DECFBGAHJI","","study_2 (video_feedback and feedback_list_2)","Feedback_ranking_L2_first","Spreadsheet1",1,"Screen","Screen 1","xrjwiw",1,"continue","",9087.749,9071.206,9087.749,9087.749,9071.206,9087.749,1,9087.749,0,0,NA,"Click To Continue","Continue Button",2,"object-4","Screen",NA,"SUPPRF53772"
"3",1692030873947,"14/08/2023 16:34:33",1692034473947,1,"14/08/2023 18:34:33",140743,17,"task-n9i1",NA,31181248,9244017,NA,"complete",NA,"64da50a5b280d5d8e5e9eb1f","computer","Desktop or Laptop","Windows 10","Chrome 114.0.0.0","1280x720","1280x609",NA,NA,0,"Pre-Task Notice",2,"DECFBGAHJI","","study_2 (video_feedback and feedback_list_2)","Feedback_ranking_L2_first","Spreadsheet1",NA,"","","",NA,"5","END",NA,NA,NA,NA,NA,NA,0,NA,NA,NA,NA,"","",NA,"","",NA,"SUPPRF53772"
"1",1692026945403,"14/08/2023 15:29:05",1692030545403,1,"14/08/2023 17:29:05",140743,17,"task-n9i1",NA,31180073,9243586,NA,"complete",NA,"64da54ae60b9358d64ee4f59","computer","Desktop or Laptop","Windows 10","Chrome 115.0.0.0","1707x1067","852x900",NA,NA,0,"Pre-Task Notice",2,"BCADJEIFHG","","study_2 (video_feedback and feedback_list_2)","VF_1st","Spreadsheet1",NA,"","","",NA,"5","BEGIN",NA,NA,NA,NA,NA,NA,0,NA,NA,NA,NA,"","",NA,"","",NA,"SUPPRF59606"
"2",1692026947171,"14/08/2023 15:29:07",1692030547171,1,"14/08/2023 17:29:07",140743,17,"task-n9i1",NA,31180073,9243586,NA,"complete",NA,"64da54ae60b9358d64ee4f59","computer","Desktop or Laptop","Windows 10","Chrome 115.0.0.0","1707x1067","852x900",NA,NA,0,"Pre-Task Notice",2,"BCADJEIFHG","","study_2 (video_feedback and feedback_list_2)","VF_1st","Spreadsheet1",1,"Screen","Screen 1","xrjwiw",1,"continue","",1791.01399996424,1783.542,1791.01399996424,1791.01399996424,1783.542,1791.01399996424,1,1791.01399996424,0,0,NA,"Click To Continue","Continue Button",2,"object-4","Screen",NA,"SUPPRF59606"
"3",1692026947172,"14/08/2023 15:29:07",1692030547172,1,"14/08/2023 17:29:07",140743,17,"task-n9i1",NA,31180073,9243586,NA,"complete",NA,"64da54ae60b9358d64ee4f59","computer","Desktop or Laptop","Windows 10","Chrome 115.0.0.0","1707x1067","852x900",NA,NA,0,"Pre-Task Notice",2,"BCADJEIFHG","","study_2 (video_feedback and feedback_list_2)","VF_1st","Spreadsheet1",NA,"","","",NA,"5","END",NA,NA,NA,NA,NA,NA,0,NA,NA,NA,NA,"","",NA,"","",NA,"SUPPRF59606"
"1",1692019263171,"14/08/2023 13:21:03",1692022863171,1,"14/08/2023 15:21:03",140743,17,"task-n9i1",NA,31176996,9242705,NA,"complete",NA,"64da33cb039cd8a237b8ae7e","computer","Desktop or Laptop","Windows 10","Chrome 115.0.0.0","1280x720","1280x571",NA,NA,0,"Pre-Task Notice",2,"ABJCIDHEGF","A (JV first)","study_1 (JV and feedback_list_1)","","Spreadsheet1",NA,"","","",NA,"5","BEGIN",NA,NA,NA,NA,NA,NA,0,NA,NA,NA,NA,"","",NA,"","",NA,"SUPPRF02797"
"2",1692019269461,"14/08/2023 13:21:09",1692022869461,1,"14/08/2023 15:21:09",140743,17,"task-n9i1",NA,31176996,9242705,NA,"complete",NA,"64da33cb039cd8a237b8ae7e","computer","Desktop or Laptop","Windows 10","Chrome 115.0.0.0","1280x720","1280x571",NA,NA,0,"Pre-Task Notice",2,"ABJCIDHEGF","A (JV first)","study_1 (JV and feedback_list_1)","","Spreadsheet1",1,"Screen","Screen 1","xrjwiw",1,"continue","",6308.53499999995,6299.649,6308.53499999995,6308.53499999995,6299.649,6308.53499999995,1,6308.53499999995,0,0,NA,"Click To Continue","Continue Button",2,"object-4","Screen",NA,"SUPPRF02797"
"3",1692019269462,"14/08/2023 13:21:09",1692022869462,1,"14/08/2023 15:21:09",140743,17,"task-n9i1",NA,31176996,9242705,NA,"complete",NA,"64da33cb039cd8a237b8ae7e","computer","Desktop or Laptop","Windows 10","Chrome 115.0.0.0","1280x720","1280x571",NA,NA,0,"Pre-Task Notice",2,"ABJCIDHEGF","A (JV first)","study_1 (JV and feedback_list_1)","","Spreadsheet1",NA,"","","",NA,"5","END",NA,NA,NA,NA,NA,NA,0,NA,NA,NA,NA,"","",NA,"","",NA,"SUPPRF02797"
"1",1692017805582,"14/08/2023 12:56:45",1692021405582,1,"14/08/2023 14:56:45",140743,17,"task-n9i1",NA,31176471,9242601,NA,"complete",NA,"64da2f985a88203d07bbb784","computer","Desktop or Laptop","Windows 10","Firefox 116.0","2560x1440","2560x1307",NA,NA,0,"Pre-Task Notice",2,"JAIBHCGDFE","B (Feedback ranking_L1 First)","study_1 (JV and feedback_list_1)","","Spreadsheet1",NA,"","","",NA,"5","BEGIN",NA,NA,NA,NA,NA,NA,0,NA,NA,NA,NA,"","",NA,"","",NA,"SUPPRF54733"
"2",1692017816322,"14/08/2023 12:56:56",1692021416322,1,"14/08/2023 14:56:56",140743,17,"task-n9i1",NA,31176471,9242601,NA,"complete",NA,"64da2f985a88203d07bbb784","computer","Desktop or Laptop","Windows 10","Firefox 116.0","2560x1440","2560x1307",NA,NA,0,"Pre-Task Notice",2,"JAIBHCGDFE","B (Feedback ranking_L1 First)","study_1 (JV and feedback_list_1)","","Spreadsheet1",1,"Screen","Screen 1","xrjwiw",1,"continue","",10740.7,10740.24,10740.7,10740.7,10740.24,10740.7,1,10740.7,0,0,NA,"Click To Continue","Continue Button",2,"object-4","Screen",NA,"SUPPRF54733"
"3",1692017816325,"14/08/2023 12:56:56",1692021416325,1,"14/08/2023 14:56:56",140743,17,"task-n9i1",NA,31176471,9242601,NA,"complete",NA,"64da2f985a88203d07bbb784","computer","Desktop or Laptop","Windows 10","Firefox 116.0","2560x1440","2560x1307",NA,NA,0,"Pre-Task Notice",2,"JAIBHCGDFE","B (Feedback ranking_L1 First)","study_1 (JV and feedback_list_1)","","Spreadsheet1",NA,"","","",NA,"5","END",NA,NA,NA,NA,NA,NA,0,NA,NA,NA,NA,"","",NA,"","",NA,"SUPPRF54733"
"1",1692017033079,"14/08/2023 12:43:53",1692020633079,1,"14/08/2023 14:43:53",140743,17,"task-n9i1",NA,31176215,9242534,NA,"complete",NA,"64da2b07dffffeb613275ea3","computer","Desktop or Laptop","Windows 10","Chrome 115.0.0.0","1536x864","1287x741",NA,NA,0,"Pre-Task Notice",2,"IJHAGBFCED","","study_2 (video_feedback and feedback_list_2)","Feedback_ranking_L2_first","Spreadsheet1",NA,"","","",NA,"5","BEGIN",NA,NA,NA,NA,NA,NA,0,NA,NA,NA,NA,"","",NA,"","",NA,"SUPPRF44269"
"2",1692017039750,"14/08/2023 12:43:59",1692020639750,1,"14/08/2023 14:43:59",140743,17,"task-n9i1",NA,31176215,9242534,NA,"complete",NA,"64da2b07dffffeb613275ea3","computer","Desktop or Laptop","Windows 10","Chrome 115.0.0.0","1536x864","1287x741",NA,NA,0,"Pre-Task Notice",2,"IJHAGBFCED","","study_2 (video_feedback and feedback_list_2)","Feedback_ranking_L2_first","Spreadsheet1",1,"Screen","Screen 1","xrjwiw",1,"continue","",6690.44300001192,6683.101,6690.44300001192,6690.44300001192,6683.101,6690.44300001192,1,6690.44300001192,0,0,NA,"Click To Continue","Continue Button",2,"object-4","Screen",NA,"SUPPRF44269"
"3",1692017039752,"14/08/2023 12:43:59",1692020639752,1,"14/08/2023 14:43:59",140743,17,"task-n9i1",NA,31176215,9242534,NA,"complete",NA,"64da2b07dffffeb613275ea3","computer","Desktop or Laptop","Windows 10","Chrome 115.0.0.0","1536x864","1287x741",NA,NA,0,"Pre-Task Notice",2,"IJHAGBFCED","","study_2 (video_feedback and feedback_list_2)","Feedback_ranking_L2_first","Spreadsheet1",NA,"","","",NA,"5","END",NA,NA,NA,NA,NA,NA,0,NA,NA,NA,NA,"","",NA,"","",NA,"SUPPRF44269"
"1",1692015691280,"14/08/2023 12:21:31",1692019291280,1,"14/08/2023 14:21:31",140743,17,"task-n9i1",NA,31175730,9242486,NA,"complete",NA,"64da2810496ece3b2ddf78ff","computer","Desktop or Laptop","Windows 10","Chrome 115.0.0.0","1280x720","1280x603",NA,NA,0,"Pre-Task Notice",2,"GHFIEJDACB","A (JV first)","study_1 (JV and feedback_list_1)","","Spreadsheet1",NA,"","","",NA,"5","BEGIN",NA,NA,NA,NA,NA,NA,0,NA,NA,NA,NA,"","",NA,"","",NA,"SUPPRF83190"
"2",1692015693376,"14/08/2023 12:21:33",1692019293376,1,"14/08/2023 14:21:33",140743,17,"task-n9i1",NA,31175730,9242486,NA,"complete",NA,"64da2810496ece3b2ddf78ff","computer","Desktop or Laptop","Windows 10","Chrome 115.0.0.0","1280x720","1280x603",NA,NA,0,"Pre-Task Notice",2,"GHFIEJDACB","A (JV first)","study_1 (JV and feedback_list_1)","","Spreadsheet1",1,"Screen","Screen 1","xrjwiw",1,"continue","",2115.573,2098.899,2115.573,2115.573,2098.899,2115.573,1,2115.573,0,0,NA,"Click To Continue","Continue Button",2,"object-4","Screen",NA,"SUPPRF83190"
"3",1692015693378,"14/08/2023 12:21:33",1692019293378,1,"14/08/2023 14:21:33",140743,17,"task-n9i1",NA,31175730,9242486,NA,"complete",NA,"64da2810496ece3b2ddf78ff","computer","Desktop or Laptop","Windows 10","Chrome 115.0.0.0","1280x720","1280x603",NA,NA,0,"Pre-Task Notice",2,"GHFIEJDACB","A (JV first)","study_1 (JV and feedback_list_1)","","Spreadsheet1",NA,"","","",NA,"5","END",NA,NA,NA,NA,NA,NA,0,NA,NA,NA,NA,"","",NA,"","",NA,"SUPPRF83190"
"1",1692015223463,"14/08/2023 12:13:43",1692018823463,1,"14/08/2023 14:13:43",140743,17,"task-n9i1",NA,31175580,9242421,NA,"complete",NA,"64da2331d1c99ce54caf7f00","computer","Desktop or Laptop","Windows 10","Chrome 115.0.0.0","1280x720","1280x595",NA,NA,0,"Pre-Task Notice",2,"DECFBGAHJI","","study_2 (video_feedback and feedback_list_2)","VF_1st","Spreadsheet1",NA,"","","",NA,"5","BEGIN",NA,NA,NA,NA,NA,NA,0,NA,NA,NA,NA,"","",NA,"","",NA,"SUPPRF01065"
"2",1692015226802,"14/08/2023 12:13:46",1692018826802,1,"14/08/2023 14:13:46",140743,17,"task-n9i1",NA,31175580,9242421,NA,"complete",NA,"64da2331d1c99ce54caf7f00","computer","Desktop or Laptop","Windows 10","Chrome 115.0.0.0","1280x720","1280x595",NA,NA,0,"Pre-Task Notice",2,"DECFBGAHJI","","study_2 (video_feedback and feedback_list_2)","VF_1st","Spreadsheet1",1,"Screen","Screen 1","xrjwiw",1,"continue","",3349.006,3332.427,3349.006,3349.006,3332.427,3349.006,1,3349.006,0,0,NA,"Click To Continue","Continue Button",2,"object-4","Screen",NA,"SUPPRF01065"
"3",1692015226803,"14/08/2023 12:13:46",1692018826803,1,"14/08/2023 14:13:46",140743,17,"task-n9i1",NA,31175580,9242421,NA,"complete",NA,"64da2331d1c99ce54caf7f00","computer","Desktop or Laptop","Windows 10","Chrome 115.0.0.0","1280x720","1280x595",NA,NA,0,"Pre-Task Notice",2,"DECFBGAHJI","","study_2 (video_feedback and feedback_list_2)","VF_1st","Spreadsheet1",NA,"","","",NA,"5","END",NA,NA,NA,NA,NA,NA,0,NA,NA,NA,NA,"","",NA,"","",NA,"SUPPRF01065"
"1",1692015126775,"14/08/2023 12:12:06",1692018726775,1,"14/08/2023 14:12:06",140743,17,"task-n9i1",NA,31175540,9242405,NA,"complete",NA,"64da234622c1185dd4ea45b0","computer","Desktop or Laptop","Windows 10","Chrome 115.0.0.0","2048x1152","2048x1074",NA,NA,0,"Pre-Task Notice",2,"BCADJEIFHG","B (Feedback ranking_L1 First)","study_1 (JV and feedback_list_1)","","Spreadsheet1",NA,"","","",NA,"5","BEGIN",NA,NA,NA,NA,NA,NA,0,NA,NA,NA,NA,"","",NA,"","",NA,"SUPPRF26790"
"2",1692015137765,"14/08/2023 12:12:17",1692018737765,1,"14/08/2023 14:12:17",140743,17,"task-n9i1",NA,31175540,9242405,NA,"complete",NA,"64da234622c1185dd4ea45b0","computer","Desktop or Laptop","Windows 10","Chrome 115.0.0.0","2048x1152","2048x1074",NA,NA,0,"Pre-Task Notice",2,"BCADJEIFHG","B (Feedback ranking_L1 First)","study_1 (JV and feedback_list_1)","","Spreadsheet1",1,"Screen","Screen 1","xrjwiw",1,"continue","",11621.6000000238,11610.567,11621.6000000238,11621.6000000238,11610.567,11621.6000000238,1,11621.6000000238,0,0,NA,"Click To Continue","Continue Button",2,"object-4","Screen",NA,"SUPPRF26790"
"3",1692015137767,"14/08/2023 12:12:17",1692018737767,1,"14/08/2023 14:12:17",140743,17,"task-n9i1",NA,31175540,9242405,NA,"complete",NA,"64da234622c1185dd4ea45b0","computer","Desktop or Laptop","Windows 10","Chrome 115.0.0.0","2048x1152","2048x1074",NA,NA,0,"Pre-Task Notice",2,"BCADJEIFHG","B (Feedback ranking_L1 First)","study_1 (JV and feedback_list_1)","","Spreadsheet1",NA,"","","",NA,"5","END",NA,NA,NA,NA,NA,NA,0,NA,NA,NA,NA,"","",NA,"","",NA,"SUPPRF26790"
"1",1692014798892,"14/08/2023 12:06:38",1692018398892,1,"14/08/2023 14:06:38",140743,17,"task-n9i1",NA,31175415,9242399,NA,"complete",NA,"64da217fbeca8340a86d1818","computer","Desktop or Laptop","Windows 10","Chrome 115.0.0.0","1920x1080","1920x963",NA,NA,0,"Pre-Task Notice",2,"CDBEAFJGIH","","study_2 (video_feedback and feedback_list_2)","Feedback_ranking_L2_first","Spreadsheet1",NA,"","","",NA,"5","BEGIN",NA,NA,NA,NA,NA,NA,0,NA,NA,NA,NA,"","",NA,"","",NA,"SUPPRF27407"
"2",1692015108965,"14/08/2023 12:11:48",1692018708965,1,"14/08/2023 14:11:48",140743,17,"task-n9i1",NA,31175415,9242399,NA,"complete",NA,"64da217fbeca8340a86d1818","computer","Desktop or Laptop","Windows 10","Chrome 115.0.0.0","1920x1080","1920x963",NA,NA,0,"Pre-Task Notice",2,"CDBEAFJGIH","","study_2 (video_feedback and feedback_list_2)","Feedback_ranking_L2_first","Spreadsheet1",1,"Screen","Screen 1","xrjwiw",1,"continue","",310597.999,310581.316,310597.999,310597.999,310581.316,310597.999,1,310597.999,0,0,NA,"Click To Continue","Continue Button",2,"object-4","Screen",NA,"SUPPRF27407"
"3",1692015108977,"14/08/2023 12:11:48",1692018708977,1,"14/08/2023 14:11:48",140743,17,"task-n9i1",NA,31175415,9242399,NA,"complete",NA,"64da217fbeca8340a86d1818","computer","Desktop or Laptop","Windows 10","Chrome 115.0.0.0","1920x1080","1920x963",NA,NA,0,"Pre-Task Notice",2,"CDBEAFJGIH","","study_2 (video_feedback and feedback_list_2)","Feedback_ranking_L2_first","Spreadsheet1",NA,"","","",NA,"5","END",NA,NA,NA,NA,NA,NA,0,NA,NA,NA,NA,"","",NA,"","",NA,"SUPPRF27407"
"1",1692014162729,"14/08/2023 11:56:02",1692017762729,1,"14/08/2023 13:56:02",140743,17,"task-n9i1",NA,31175160,9242371,NA,"complete",NA,"64da21b55d753010d019b257","computer","Desktop or Laptop","Mac OS 10.15.7","Chrome 115.0.0.0","1440x900","1440x789",NA,NA,0,"Pre-Task Notice",2,"ABJCIDHEGF","","study_2 (video_feedback and feedback_list_2)","Feedback_ranking_L2_first","Spreadsheet1",NA,"","","",NA,"5","BEGIN",NA,NA,NA,NA,NA,NA,0,NA,NA,NA,NA,"","",NA,"","",NA,"SUPPRF71024"
"2",1692014174331,"14/08/2023 11:56:14",1692017774331,1,"14/08/2023 13:56:14",140743,17,"task-n9i1",NA,31175160,9242371,NA,"complete",NA,"64da21b55d753010d019b257","computer","Desktop or Laptop","Mac OS 10.15.7","Chrome 115.0.0.0","1440x900","1440x789",NA,NA,0,"Pre-Task Notice",2,"ABJCIDHEGF","","study_2 (video_feedback and feedback_list_2)","Feedback_ranking_L2_first","Spreadsheet1",1,"Screen","Screen 1","xrjwiw",1,"continue","",11624.6210000003,11613.872,11624.6210000003,11624.6210000003,11613.872,11624.6210000003,1,11624.6210000003,0,0,NA,"Click To Continue","Continue Button",2,"object-4","Screen",NA,"SUPPRF71024"
"3",1692014174335,"14/08/2023 11:56:14",1692017774335,1,"14/08/2023 13:56:14",140743,17,"task-n9i1",NA,31175160,9242371,NA,"complete",NA,"64da21b55d753010d019b257","computer","Desktop or Laptop","Mac OS 10.15.7","Chrome 115.0.0.0","1440x900","1440x789",NA,NA,0,"Pre-Task Notice",2,"ABJCIDHEGF","","study_2 (video_feedback and feedback_list_2)","Feedback_ranking_L2_first","Spreadsheet1",NA,"","","",NA,"5","END",NA,NA,NA,NA,NA,NA,0,NA,NA,NA,NA,"","",NA,"","",NA,"SUPPRF71024"
"1",1692005919124,"14/08/2023 09:38:39",1692009519124,1,"14/08/2023 11:38:39",140743,17,"task-n9i1",NA,31172534,9241755,NA,"complete",NA,"64d9ff59202825d1e987df74","tablet","Apple iPad","iOS 16.5","Chrome 115.0.5790.160","810x1080","1080x695",NA,NA,0,"Pre-Task Notice",2,"ABJCIDHEGF","","study_2 (video_feedback and feedback_list_2)","Feedback_ranking_L2_first","Spreadsheet1",NA,"","","",NA,"5","BEGIN",NA,NA,NA,NA,NA,NA,0,NA,NA,NA,NA,"","",NA,"","",NA,"SUPPRF13097"
"2",1692005921334,"14/08/2023 09:38:41",1692009521334,1,"14/08/2023 11:38:41",140743,17,"task-n9i1",NA,31172534,9241755,NA,"complete",NA,"64d9ff59202825d1e987df74","tablet","Apple iPad","iOS 16.5","Chrome 115.0.5790.160","810x1080","1080x695",NA,NA,0,"Pre-Task Notice",2,"ABJCIDHEGF","","study_2 (video_feedback and feedback_list_2)","Feedback_ranking_L2_first","Spreadsheet1",1,"Screen","Screen 1","xrjwiw",1,"continue","",2204,2188,2204,2204,2188,2204,1,2204,0,0,NA,"Click To Continue","Continue Button",2,"object-4","Screen",NA,"SUPPRF13097"
"3",1692005921339,"14/08/2023 09:38:41",1692009521339,1,"14/08/2023 11:38:41",140743,17,"task-n9i1",NA,31172534,9241755,NA,"complete",NA,"64d9ff59202825d1e987df74","tablet","Apple iPad","iOS 16.5","Chrome 115.0.5790.160","810x1080","1080x695",NA,NA,0,"Pre-Task Notice",2,"ABJCIDHEGF","","study_2 (video_feedback and feedback_list_2)","Feedback_ranking_L2_first","Spreadsheet1",NA,"","","",NA,"5","END",NA,NA,NA,NA,NA,NA,0,NA,NA,NA,NA,"","",NA,"","",NA,"SUPPRF13097"
"1",1692005878007,"14/08/2023 09:37:58",1692009478007,1,"14/08/2023 11:37:58",140743,17,"task-n9i1",NA,31172523,9241810,NA,"complete",NA,"64da02835a5052b70ee79e36","computer","Desktop or Laptop","Mac OS 10.15.7","Chrome 115.0.0.0","1440x900","1440x815",NA,NA,0,"Pre-Task Notice",2,"FGEHDICJBA","A (JV first)","study_1 (JV and feedback_list_1)","","Spreadsheet1",NA,"","","",NA,"5","BEGIN",NA,NA,NA,NA,NA,NA,0,NA,NA,NA,NA,"","",NA,"","",NA,"SUPPRF98941"
"2",1692005885194,"14/08/2023 09:38:05",1692009485194,1,"14/08/2023 11:38:05",140743,17,"task-n9i1",NA,31172523,9241810,NA,"complete",NA,"64da02835a5052b70ee79e36","computer","Desktop or Laptop","Mac OS 10.15.7","Chrome 115.0.0.0","1440x900","1440x815",NA,NA,0,"Pre-Task Notice",2,"FGEHDICJBA","A (JV first)","study_1 (JV and feedback_list_1)","","Spreadsheet1",1,"Screen","Screen 1","xrjwiw",1,"continue","",7216.784,7200.533,7216.784,7216.784,7200.533,7216.784,1,7216.784,0,0,NA,"Click To Continue","Continue Button",2,"object-4","Screen",NA,"SUPPRF98941"
"3",1692005885198,"14/08/2023 09:38:05",1692009485198,1,"14/08/2023 11:38:05",140743,17,"task-n9i1",NA,31172523,9241810,NA,"complete",NA,"64da02835a5052b70ee79e36","computer","Desktop or Laptop","Mac OS 10.15.7","Chrome 115.0.0.0","1440x900","1440x815",NA,NA,0,"Pre-Task Notice",2,"FGEHDICJBA","A (JV first)","study_1 (JV and feedback_list_1)","","Spreadsheet1",NA,"","","",NA,"5","END",NA,NA,NA,NA,NA,NA,0,NA,NA,NA,NA,"","",NA,"","",NA,"SUPPRF98941"
"1",1692005739991,"14/08/2023 09:35:39",1692009339991,1,"14/08/2023 11:35:39",140743,17,"task-n9i1",NA,31172485,9241773,NA,"complete",NA,"64da000bb77c30175cda1703","computer","Desktop or Laptop","Mac OS 10.15.7","Safari 16.6","810x1080","1080x707",NA,NA,0,"Pre-Task Notice",2,"DECFBGAHJI","","study_2 (video_feedback and feedback_list_2)","VF_1st","Spreadsheet1",NA,"","","",NA,"5","BEGIN",NA,NA,NA,NA,NA,NA,0,NA,NA,NA,NA,"","",NA,"","",NA,"SUPPRF20908"
"2",1692005746388,"14/08/2023 09:35:46",1692009346388,1,"14/08/2023 11:35:46",140743,17,"task-n9i1",NA,31172485,9241773,NA,"complete",NA,"64da000bb77c30175cda1703","computer","Desktop or Laptop","Mac OS 10.15.7","Safari 16.6","810x1080","1080x707",NA,NA,0,"Pre-Task Notice",2,"DECFBGAHJI","","study_2 (video_feedback and feedback_list_2)","VF_1st","Spreadsheet1",1,"Screen","Screen 1","xrjwiw",1,"continue","",6400,6383,6400,6400,6383,6400,1,6400,0,0,NA,"Click To Continue","Continue Button",2,"object-4","Screen",NA,"SUPPRF20908"
"3",1692005746392,"14/08/2023 09:35:46",1692009346392,1,"14/08/2023 11:35:46",140743,17,"task-n9i1",NA,31172485,9241773,NA,"complete",NA,"64da000bb77c30175cda1703","computer","Desktop or Laptop","Mac OS 10.15.7","Safari 16.6","810x1080","1080x707",NA,NA,0,"Pre-Task Notice",2,"DECFBGAHJI","","study_2 (video_feedback and feedback_list_2)","VF_1st","Spreadsheet1",NA,"","","",NA,"5","END",NA,NA,NA,NA,NA,NA,0,NA,NA,NA,NA,"","",NA,"","",NA,"SUPPRF20908"
"1",1692005533183,"14/08/2023 09:32:13",1692009133183,1,"14/08/2023 11:32:13",140743,17,"task-n9i1",NA,31172404,9241769,NA,"complete",NA,"64d9ff71624435bf2a23761d","computer","Desktop or Laptop","Windows 10","Chrome 115.0.0.0","1536x864","1536x707",NA,NA,0,"Pre-Task Notice",2,"CDBEAFJGIH","","study_2 (video_feedback and feedback_list_2)","Feedback_ranking_L2_first","Spreadsheet1",NA,"","","",NA,"5","BEGIN",NA,NA,NA,NA,NA,NA,0,NA,NA,NA,NA,"","",NA,"","",NA,"SUPPRF16300"
"2",1692005534416,"14/08/2023 09:32:14",1692009134416,1,"14/08/2023 11:32:14",140743,17,"task-n9i1",NA,31172404,9241769,NA,"complete",NA,"64d9ff71624435bf2a23761d","computer","Desktop or Laptop","Windows 10","Chrome 115.0.0.0","1536x864","1536x707",NA,NA,0,"Pre-Task Notice",2,"CDBEAFJGIH","","study_2 (video_feedback and feedback_list_2)","Feedback_ranking_L2_first","Spreadsheet1",1,"Screen","Screen 1","xrjwiw",1,"continue","",1237.13400001788,1233.404,1237.13400001788,1237.13400001788,1233.404,1237.13400001788,1,1237.13400001788,0,0,NA,"Click To Continue","Continue Button",2,"object-4","Screen",NA,"SUPPRF16300"
"3",1692005534418,"14/08/2023 09:32:14",1692009134418,1,"14/08/2023 11:32:14",140743,17,"task-n9i1",NA,31172404,9241769,NA,"complete",NA,"64d9ff71624435bf2a23761d","computer","Desktop or Laptop","Windows 10","Chrome 115.0.0.0","1536x864","1536x707",NA,NA,0,"Pre-Task Notice",2,"CDBEAFJGIH","","study_2 (video_feedback and feedback_list_2)","Feedback_ranking_L2_first","Spreadsheet1",NA,"","","",NA,"5","END",NA,NA,NA,NA,NA,NA,0,NA,NA,NA,NA,"","",NA,"","",NA,"SUPPRF16300"
"1",1693246138771,"28/08/2023 18:08:58",1693249738771,1,"28/08/2023 20:08:58",140743,17,"task-n9i1",NA,31394089,9297799,NA,"complete",NA,"64eceed14556d1516f0479e9","computer","Desktop or Laptop","Windows 10","Firefox 116.0","1920x1080","1920x919",NA,NA,0,"Pre-Task Notice",2,"ABJCIDHEGF","","study_2 (video_feedback and feedback_list_2)","VF_1st","Spreadsheet1",NA,"","","",NA,"5","BEGIN",NA,NA,NA,NA,NA,NA,0,NA,NA,NA,NA,"","",NA,"","",NA,"SUPPRF20104"
"2",1693246141208,"28/08/2023 18:09:01",1693249741208,1,"28/08/2023 20:09:01",140743,17,"task-n9i1",NA,31394089,9297799,NA,"complete",NA,"64eceed14556d1516f0479e9","computer","Desktop or Laptop","Windows 10","Firefox 116.0","1920x1080","1920x919",NA,NA,0,"Pre-Task Notice",2,"ABJCIDHEGF","","study_2 (video_feedback and feedback_list_2)","VF_1st","Spreadsheet1",1,"Screen","Screen 1","xrjwiw",1,"continue","",2440.46,2438.4,2440.46,2440.46,2438.4,2440.46,1,2440.46,0,0,NA,"Click To Continue","Continue Button",2,"object-4","Screen",NA,"SUPPRF20104"
"3",1693246141209,"28/08/2023 18:09:01",1693249741209,1,"28/08/2023 20:09:01",140743,17,"task-n9i1",NA,31394089,9297799,NA,"complete",NA,"64eceed14556d1516f0479e9","computer","Desktop or Laptop","Windows 10","Firefox 116.0","1920x1080","1920x919",NA,NA,0,"Pre-Task Notice",2,"ABJCIDHEGF","","study_2 (video_feedback and feedback_list_2)","VF_1st","Spreadsheet1",NA,"","","",NA,"5","END",NA,NA,NA,NA,NA,NA,0,NA,NA,NA,NA,"","",NA,"","",NA,"SUPPRF20104"
"1",1692212910022,"16/08/2023 19:08:30",1692216510022,1,"16/08/2023 21:08:30",140743,17,"task-n9i1",NA,31224820,9255609,NA,"complete",NA,"64dd297fdd1a9cc9afa673f8","computer","Desktop or Laptop","Windows 10","Chrome 115.0.0.0","1920x1080","1920x963",NA,NA,0,"Pre-Task Notice",2,"IJHAGBFCED","A (JV first)","study_1 (JV and feedback_list_1)","","Spreadsheet1",NA,"","","",NA,"5","BEGIN",NA,NA,NA,NA,NA,NA,0,NA,NA,NA,NA,"","",NA,"","",NA,"SUPPRF36650"
"2",1692212926761,"16/08/2023 19:08:46",1692216526761,1,"16/08/2023 21:08:46",140743,17,"task-n9i1",NA,31224820,9255609,NA,"complete",NA,"64dd297fdd1a9cc9afa673f8","computer","Desktop or Laptop","Windows 10","Chrome 115.0.0.0","1920x1080","1920x963",NA,NA,0,"Pre-Task Notice",2,"IJHAGBFCED","A (JV first)","study_1 (JV and feedback_list_1)","","Spreadsheet1",1,"Screen","Screen 1","xrjwiw",1,"continue","",16749.1279999046,16737.019,16749.1279999046,16749.1279999046,16737.019,16749.1279999046,1,16749.1279999046,0,0,NA,"Click To Continue","Continue Button",2,"object-4","Screen",NA,"SUPPRF36650"
"3",1692212926780,"16/08/2023 19:08:46",1692216526780,1,"16/08/2023 21:08:46",140743,17,"task-n9i1",NA,31224820,9255609,NA,"complete",NA,"64dd297fdd1a9cc9afa673f8","computer","Desktop or Laptop","Windows 10","Chrome 115.0.0.0","1920x1080","1920x963",NA,NA,0,"Pre-Task Notice",2,"IJHAGBFCED","A (JV first)","study_1 (JV and feedback_list_1)","","Spreadsheet1",NA,"","","",NA,"5","END",NA,NA,NA,NA,NA,NA,0,NA,NA,NA,NA,"","",NA,"","",NA,"SUPPRF36650"
"1",1692197943695,"16/08/2023 14:59:03",1692201543695,1,"16/08/2023 16:59:03",140743,17,"task-n9i1",NA,31222294,9254717,NA,"complete",NA,"64dcecf2571803aaf952ef5f","computer","Desktop or Laptop","Windows 10","Chrome 115.0.0.0","1366x768","1366x657",NA,NA,0,"Pre-Task Notice",2,"HIGJFAEBDC","","study_2 (video_feedback and feedback_list_2)","Feedback_ranking_L2_first","Spreadsheet1",NA,"","","",NA,"5","BEGIN",NA,NA,NA,NA,NA,NA,0,NA,NA,NA,NA,"","",NA,"","",NA,"SUPPRF01588"
"2",1692197946198,"16/08/2023 14:59:06",1692201546198,1,"16/08/2023 16:59:06",140743,17,"task-n9i1",NA,31222294,9254717,NA,"complete",NA,"64dcecf2571803aaf952ef5f","computer","Desktop or Laptop","Windows 10","Chrome 115.0.0.0","1366x768","1366x657",NA,NA,0,"Pre-Task Notice",2,"HIGJFAEBDC","","study_2 (video_feedback and feedback_list_2)","Feedback_ranking_L2_first","Spreadsheet1",1,"Screen","Screen 1","xrjwiw",1,"continue","",2533.159,2516.495,2533.159,2533.159,2516.495,2533.159,1,2533.159,0,0,NA,"Click To Continue","Continue Button",2,"object-4","Screen",NA,"SUPPRF01588"
"3",1692197946204,"16/08/2023 14:59:06",1692201546204,1,"16/08/2023 16:59:06",140743,17,"task-n9i1",NA,31222294,9254717,NA,"complete",NA,"64dcecf2571803aaf952ef5f","computer","Desktop or Laptop","Windows 10","Chrome 115.0.0.0","1366x768","1366x657",NA,NA,0,"Pre-Task Notice",2,"HIGJFAEBDC","","study_2 (video_feedback and feedback_list_2)","Feedback_ranking_L2_first","Spreadsheet1",NA,"","","",NA,"5","END",NA,NA,NA,NA,NA,NA,0,NA,NA,NA,NA,"","",NA,"","",NA,"SUPPRF01588"
"1",1692191465596,"16/08/2023 13:11:05",1692195065596,1,"16/08/2023 15:11:05",140743,17,"task-n9i1",NA,31220815,9254288,NA,"complete",NA,"64dcd5b8efb53854496a7580","computer","Desktop or Laptop","Windows 10","Chrome 115.0.0.0","1463x915","1335x753",NA,NA,0,"Pre-Task Notice",2,"FGEHDICJBA","","study_2 (video_feedback and feedback_list_2)","VF_1st","Spreadsheet1",NA,"","","",NA,"5","BEGIN",NA,NA,NA,NA,NA,NA,0,NA,NA,NA,NA,"","",NA,"","",NA,"SUPPRF02309"
"2",1692191472685,"16/08/2023 13:11:12",1692195072685,1,"16/08/2023 15:11:12",140743,17,"task-n9i1",NA,31220815,9254288,NA,"complete",NA,"64dcd5b8efb53854496a7580","computer","Desktop or Laptop","Windows 10","Chrome 115.0.0.0","1463x915","1335x753",NA,NA,0,"Pre-Task Notice",2,"FGEHDICJBA","","study_2 (video_feedback and feedback_list_2)","VF_1st","Spreadsheet1",1,"Screen","Screen 1","xrjwiw",1,"continue","",7095,7078,7095,7095,7078,7095,1,7095,0,0,NA,"Click To Continue","Continue Button",2,"object-4","Screen",NA,"SUPPRF02309"
"3",1692191472687,"16/08/2023 13:11:12",1692195072687,1,"16/08/2023 15:11:12",140743,17,"task-n9i1",NA,31220815,9254288,NA,"complete",NA,"64dcd5b8efb53854496a7580","computer","Desktop or Laptop","Windows 10","Chrome 115.0.0.0","1463x915","1335x753",NA,NA,0,"Pre-Task Notice",2,"FGEHDICJBA","","study_2 (video_feedback and feedback_list_2)","VF_1st","Spreadsheet1",NA,"","","",NA,"5","END",NA,NA,NA,NA,NA,NA,0,NA,NA,NA,NA,"","",NA,"","",NA,"SUPPRF02309"
"1",1692169986249,"16/08/2023 07:13:06",1692173586249,1,"16/08/2023 09:13:06",140743,17,"task-n9i1",NA,31215128,9252727,NA,"complete",NA,"64dc7ddf7404cae9c3a1d3e9","computer","Desktop or Laptop","Windows 10","Opera 100.0.0.0","1080x1920","1039x1779",NA,NA,0,"Pre-Task Notice",2,"DECFBGAHJI","B (Feedback ranking_L1 First)","study_1 (JV and feedback_list_1)","","Spreadsheet1",NA,"","","",NA,"5","BEGIN",NA,NA,NA,NA,NA,NA,0,NA,NA,NA,NA,"","",NA,"","",NA,"SUPPRF09500"
"2",1692169991593,"16/08/2023 07:13:11",1692173591593,1,"16/08/2023 09:13:11",140743,17,"task-n9i1",NA,31215128,9252727,NA,"complete",NA,"64dc7ddf7404cae9c3a1d3e9","computer","Desktop or Laptop","Windows 10","Opera 100.0.0.0","1080x1920","1039x1779",NA,NA,0,"Pre-Task Notice",2,"DECFBGAHJI","B (Feedback ranking_L1 First)","study_1 (JV and feedback_list_1)","","Spreadsheet1",1,"Screen","Screen 1","xrjwiw",1,"continue","",5363.19699999926,5349.836,5363.19699999926,5363.19699999926,5349.836,5363.19699999926,1,5363.19699999926,0,0,NA,"Click To Continue","Continue Button",2,"object-4","Screen",NA,"SUPPRF09500"
"3",1692169991595,"16/08/2023 07:13:11",1692173591595,1,"16/08/2023 09:13:11",140743,17,"task-n9i1",NA,31215128,9252727,NA,"complete",NA,"64dc7ddf7404cae9c3a1d3e9","computer","Desktop or Laptop","Windows 10","Opera 100.0.0.0","1080x1920","1039x1779",NA,NA,0,"Pre-Task Notice",2,"DECFBGAHJI","B (Feedback ranking_L1 First)","study_1 (JV and feedback_list_1)","","Spreadsheet1",NA,"","","",NA,"5","END",NA,NA,NA,NA,NA,NA,0,NA,NA,NA,NA,"","",NA,"","",NA,"SUPPRF09500"
"1",1692134032847,"15/08/2023 21:13:52",1692137632847,1,"15/08/2023 23:13:52",140743,17,"task-n9i1",NA,31213357,9252290,NA,"complete",NA,"64dbf4ff504719270ed3ce00","computer","Desktop or Laptop","Windows 10","Edge 115.0.1901.188","1536x864","1536x746",NA,NA,0,"Pre-Task Notice",2,"CDBEAFJGIH","","study_2 (video_feedback and feedback_list_2)","Feedback_ranking_L2_first","Spreadsheet1",NA,"","","",NA,"5","BEGIN",NA,NA,NA,NA,NA,NA,0,NA,NA,NA,NA,"","",NA,"","",NA,"SUPPRF08258"
"2",1692134039295,"15/08/2023 21:13:59",1692137639295,1,"15/08/2023 23:13:59",140743,17,"task-n9i1",NA,31213357,9252290,NA,"complete",NA,"64dbf4ff504719270ed3ce00","computer","Desktop or Laptop","Windows 10","Edge 115.0.1901.188","1536x864","1536x746",NA,NA,0,"Pre-Task Notice",2,"CDBEAFJGIH","","study_2 (video_feedback and feedback_list_2)","Feedback_ranking_L2_first","Spreadsheet1",1,"Screen","Screen 1","xrjwiw",1,"continue","",6457.188,6449.616,6457.188,6457.188,6449.616,6457.188,1,6457.188,0,0,NA,"Click To Continue","Continue Button",2,"object-4","Screen",NA,"SUPPRF08258"
"3",1692134039296,"15/08/2023 21:13:59",1692137639296,1,"15/08/2023 23:13:59",140743,17,"task-n9i1",NA,31213357,9252290,NA,"complete",NA,"64dbf4ff504719270ed3ce00","computer","Desktop or Laptop","Windows 10","Edge 115.0.1901.188","1536x864","1536x746",NA,NA,0,"Pre-Task Notice",2,"CDBEAFJGIH","","study_2 (video_feedback and feedback_list_2)","Feedback_ranking_L2_first","Spreadsheet1",NA,"","","",NA,"5","END",NA,NA,NA,NA,NA,NA,0,NA,NA,NA,NA,"","",NA,"","",NA,"SUPPRF08258"
"1",1692101395937,"15/08/2023 12:09:55",1692104995937,1,"15/08/2023 14:09:55",140743,17,"task-n9i1",NA,31191731,9248263,NA,"complete",NA,"64db7694cf9ebb92b4a19732","computer","Desktop or Laptop","Windows 10","Edge 114.0.1823.55","1280x720","1280x601",NA,NA,0,"Pre-Task Notice",2,"ABJCIDHEGF","A (JV first)","study_1 (JV and feedback_list_1)","","Spreadsheet1",NA,"","","",NA,"5","BEGIN",NA,NA,NA,NA,NA,NA,0,NA,NA,NA,NA,"","",NA,"","",NA,"SUPPRF66122"
"2",1692101406908,"15/08/2023 12:10:06",1692105006908,1,"15/08/2023 14:10:06",140743,17,"task-n9i1",NA,31191731,9248263,NA,"complete",NA,"64db7694cf9ebb92b4a19732","computer","Desktop or Laptop","Windows 10","Edge 114.0.1823.55","1280x720","1280x601",NA,NA,0,"Pre-Task Notice",2,"ABJCIDHEGF","A (JV first)","study_1 (JV and feedback_list_1)","","Spreadsheet1",1,"Screen","Screen 1","xrjwiw",1,"continue","",10987.449,10974.465,10987.449,10987.449,10974.465,10987.449,1,10987.449,0,0,NA,"Click To Continue","Continue Button",2,"object-4","Screen",NA,"SUPPRF66122"
"3",1692101406922,"15/08/2023 12:10:06",1692105006922,1,"15/08/2023 14:10:06",140743,17,"task-n9i1",NA,31191731,9248263,NA,"complete",NA,"64db7694cf9ebb92b4a19732","computer","Desktop or Laptop","Windows 10","Edge 114.0.1823.55","1280x720","1280x601",NA,NA,0,"Pre-Task Notice",2,"ABJCIDHEGF","A (JV first)","study_1 (JV and feedback_list_1)","","Spreadsheet1",NA,"","","",NA,"5","END",NA,NA,NA,NA,NA,NA,0,NA,NA,NA,NA,"","",NA,"","",NA,"SUPPRF66122"
"1",1692099766571,"15/08/2023 11:42:46",1692103366571,1,"15/08/2023 13:42:46",140743,17,"task-n9i1",NA,31191167,9248109,NA,"complete",NA,"64db6ece74bc187ddeca4ef7","computer","Desktop or Laptop","Windows 10","Chrome 115.0.0.0","1536x864","1536x722",NA,NA,0,"Pre-Task Notice",2,"JAIBHCGDFE","B (Feedback ranking_L1 First)","study_1 (JV and feedback_list_1)","","Spreadsheet1",NA,"","","",NA,"5","BEGIN",NA,NA,NA,NA,NA,NA,0,NA,NA,NA,NA,"","",NA,"","",NA,"SUPPRF50626"
"2",1692099768968,"15/08/2023 11:42:48",1692103368968,1,"15/08/2023 13:42:48",140743,17,"task-n9i1",NA,31191167,9248109,NA,"complete",NA,"64db6ece74bc187ddeca4ef7","computer","Desktop or Laptop","Windows 10","Chrome 115.0.0.0","1536x864","1536x722",NA,NA,0,"Pre-Task Notice",2,"JAIBHCGDFE","B (Feedback ranking_L1 First)","study_1 (JV and feedback_list_1)","","Spreadsheet1",1,"Screen","Screen 1","xrjwiw",1,"continue","",3022.30000000005,3015.987,3022.30000000005,3022.30000000005,3015.987,3022.30000000005,1,3022.30000000005,0,0,NA,"Click To Continue","Continue Button",2,"object-4","Screen",NA,"SUPPRF50626"
"3",1692099768968,"15/08/2023 11:42:48",1692103368968,1,"15/08/2023 13:42:48",140743,17,"task-n9i1",NA,31191167,9248109,NA,"complete",NA,"64db6ece74bc187ddeca4ef7","computer","Desktop or Laptop","Windows 10","Chrome 115.0.0.0","1536x864","1536x722",NA,NA,0,"Pre-Task Notice",2,"JAIBHCGDFE","B (Feedback ranking_L1 First)","study_1 (JV and feedback_list_1)","","Spreadsheet1",NA,"","","",NA,"5","END",NA,NA,NA,NA,NA,NA,0,NA,NA,NA,NA,"","",NA,"","",NA,"SUPPRF50626"
"1",1692092067107,"15/08/2023 09:34:27",1692095667107,1,"15/08/2023 11:34:27",140743,17,"task-n9i1",NA,31188609,9247457,NA,"complete",NA,"64db50e8d7831bdd4833328b","computer","Desktop or Laptop","Windows 10","Chrome 115.0.0.0","1920x1080","1920x941",NA,NA,0,"Pre-Task Notice",2,"IJHAGBFCED","","study_2 (video_feedback and feedback_list_2)","Feedback_ranking_L2_first","Spreadsheet1",NA,"","","",NA,"5","BEGIN",NA,NA,NA,NA,NA,NA,0,NA,NA,NA,NA,"","",NA,"","",NA,"SUPPRF42960"
"2",1692092069477,"15/08/2023 09:34:29",1692095669477,1,"15/08/2023 11:34:29",140743,17,"task-n9i1",NA,31188609,9247457,NA,"complete",NA,"64db50e8d7831bdd4833328b","computer","Desktop or Laptop","Windows 10","Chrome 115.0.0.0","1920x1080","1920x941",NA,NA,0,"Pre-Task Notice",2,"IJHAGBFCED","","study_2 (video_feedback and feedback_list_2)","Feedback_ranking_L2_first","Spreadsheet1",1,"Screen","Screen 1","xrjwiw",1,"continue","",3553.90000000037,3539.832,3553.90000000037,3553.90000000037,3539.832,3553.90000000037,1,3553.90000000037,0,0,NA,"Click To Continue","Continue Button",2,"object-4","Screen",NA,"SUPPRF42960"
"3",1692092069480,"15/08/2023 09:34:29",1692095669480,1,"15/08/2023 11:34:29",140743,17,"task-n9i1",NA,31188609,9247457,NA,"complete",NA,"64db50e8d7831bdd4833328b","computer","Desktop or Laptop","Windows 10","Chrome 115.0.0.0","1920x1080","1920x941",NA,NA,0,"Pre-Task Notice",2,"IJHAGBFCED","","study_2 (video_feedback and feedback_list_2)","Feedback_ranking_L2_first","Spreadsheet1",NA,"","","",NA,"5","END",NA,NA,NA,NA,NA,NA,0,NA,NA,NA,NA,"","",NA,"","",NA,"SUPPRF42960"
"1",1692087395977,"15/08/2023 08:16:35",1692090995977,1,"15/08/2023 10:16:35",140743,17,"task-n9i1",NA,31187555,9247180,NA,"complete",NA,"64db3ff30b0051af402a25df","computer","Desktop or Laptop","Mac OS 10.15.7","Chrome 115.0.0.0","1440x900","1440x696",NA,NA,0,"Pre-Task Notice",2,"HIGJFAEBDC","A (JV first)","study_1 (JV and feedback_list_1)","","Spreadsheet1",NA,"","","",NA,"5","BEGIN",NA,NA,NA,NA,NA,NA,0,NA,NA,NA,NA,"","",NA,"","",NA,"SUPPRF09311"
"2",1692087398441,"15/08/2023 08:16:38",1692090998441,1,"15/08/2023 10:16:38",140743,17,"task-n9i1",NA,31187555,9247180,NA,"complete",NA,"64db3ff30b0051af402a25df","computer","Desktop or Laptop","Mac OS 10.15.7","Chrome 115.0.0.0","1440x900","1440x696",NA,NA,0,"Pre-Task Notice",2,"HIGJFAEBDC","A (JV first)","study_1 (JV and feedback_list_1)","","Spreadsheet1",1,"Screen","Screen 1","xrjwiw",1,"continue","",2474.23700000894,2466.568,2474.23700000894,2474.23700000894,2466.568,2474.23700000894,1,2474.23700000894,0,0,NA,"Click To Continue","Continue Button",2,"object-4","Screen",NA,"SUPPRF09311"
"3",1692087398444,"15/08/2023 08:16:38",1692090998444,1,"15/08/2023 10:16:38",140743,17,"task-n9i1",NA,31187555,9247180,NA,"complete",NA,"64db3ff30b0051af402a25df","computer","Desktop or Laptop","Mac OS 10.15.7","Chrome 115.0.0.0","1440x900","1440x696",NA,NA,0,"Pre-Task Notice",2,"HIGJFAEBDC","A (JV first)","study_1 (JV and feedback_list_1)","","Spreadsheet1",NA,"","","",NA,"5","END",NA,NA,NA,NA,NA,NA,0,NA,NA,NA,NA,"","",NA,"","",NA,"SUPPRF09311"
"1",1693069181933,"26/08/2023 16:59:41",1693072781933,1,"26/08/2023 18:59:41",140743,17,"task-n9i1",NA,31377576,9293534,NA,"complete",NA,"64ea39f32f86c94c9af361b5","computer","Desktop or Laptop","Windows 10","Chrome 116.0.0.0","1280x720","1280x603",NA,NA,0,"Pre-Task Notice",2,"IJHAGBFCED","B (Feedback ranking_L1 First)","study_1 (JV and feedback_list_1)","","Spreadsheet1",NA,"","","",NA,"5","BEGIN",NA,NA,NA,NA,NA,NA,0,NA,NA,NA,NA,"","",NA,"","",NA,"SUPPRF14738"
"2",1693069188711,"26/08/2023 16:59:48",1693072788711,1,"26/08/2023 18:59:48",140743,17,"task-n9i1",NA,31377576,9293534,NA,"complete",NA,"64ea39f32f86c94c9af361b5","computer","Desktop or Laptop","Windows 10","Chrome 116.0.0.0","1280x720","1280x603",NA,NA,0,"Pre-Task Notice",2,"IJHAGBFCED","B (Feedback ranking_L1 First)","study_1 (JV and feedback_list_1)","","Spreadsheet1",1,"Screen","Screen 1","xrjwiw",1,"continue","",6794.236,6777.533,6794.236,6794.236,6777.533,6794.236,1,6794.236,0,0,NA,"Click To Continue","Continue Button",2,"object-4","Screen",NA,"SUPPRF14738"
"3",1693069188714,"26/08/2023 16:59:48",1693072788714,1,"26/08/2023 18:59:48",140743,17,"task-n9i1",NA,31377576,9293534,NA,"complete",NA,"64ea39f32f86c94c9af361b5","computer","Desktop or Laptop","Windows 10","Chrome 116.0.0.0","1280x720","1280x603",NA,NA,0,"Pre-Task Notice",2,"IJHAGBFCED","B (Feedback ranking_L1 First)","study_1 (JV and feedback_list_1)","","Spreadsheet1",NA,"","","",NA,"5","END",NA,NA,NA,NA,NA,NA,0,NA,NA,NA,NA,"","",NA,"","",NA,"SUPPRF14738"
"1",1692606539588,"21/08/2023 08:28:59",1692610139588,1,"21/08/2023 10:28:59",140743,17,"task-n9i1",NA,31265631,9268854,NA,"complete",NA,"64e32be7ed0d2f797828c1a4","computer","Desktop or Laptop","Mac OS 10.15","Firefox 114.0","1440x900","1440x787",NA,NA,0,"Pre-Task Notice",2,"EFDGCHBIAJ","A (JV first)","study_1 (JV and feedback_list_1)","","Spreadsheet1",NA,"","","",NA,"5","BEGIN",NA,NA,NA,NA,NA,NA,0,NA,NA,NA,NA,"","",NA,"","",NA,"SUPPRF05565"
"2",1692606543768,"21/08/2023 08:29:03",1692610143768,1,"21/08/2023 10:29:03",140743,17,"task-n9i1",NA,31265631,9268854,NA,"complete",NA,"64e32be7ed0d2f797828c1a4","computer","Desktop or Laptop","Mac OS 10.15","Firefox 114.0","1440x900","1440x787",NA,NA,0,"Pre-Task Notice",2,"EFDGCHBIAJ","A (JV first)","study_1 (JV and feedback_list_1)","","Spreadsheet1",1,"Screen","Screen 1","xrjwiw",1,"continue","",4189.64,4184.78,4189.64,4189.64,4184.78,4189.64,1,4189.64,0,0,NA,"Click To Continue","Continue Button",2,"object-4","Screen",NA,"SUPPRF05565"
"3",1692606543769,"21/08/2023 08:29:03",1692610143769,1,"21/08/2023 10:29:03",140743,17,"task-n9i1",NA,31265631,9268854,NA,"complete",NA,"64e32be7ed0d2f797828c1a4","computer","Desktop or Laptop","Mac OS 10.15","Firefox 114.0","1440x900","1440x787",NA,NA,0,"Pre-Task Notice",2,"EFDGCHBIAJ","A (JV first)","study_1 (JV and feedback_list_1)","","Spreadsheet1",NA,"","","",NA,"5","END",NA,NA,NA,NA,NA,NA,0,NA,NA,NA,NA,"","",NA,"","",NA,"SUPPRF05565"
"1",1692551583121,"20/08/2023 17:13:03",1692555183121,1,"20/08/2023 19:13:03",140743,17,"task-n9i1",NA,31263438,9267612,NA,"complete",NA,"64e252d5b92f3bcf49791cfd","computer","Desktop or Laptop","Windows 10","Chrome 115.0.0.0","1280x720","1280x595",NA,NA,0,"Pre-Task Notice",2,"DECFBGAHJI","","study_2 (video_feedback and feedback_list_2)","VF_1st","Spreadsheet1",NA,"","","",NA,"5","BEGIN",NA,NA,NA,NA,NA,NA,0,NA,NA,NA,NA,"","",NA,"","",NA,"SUPPRF06732"
"2",1692551584830,"20/08/2023 17:13:04",1692555184830,1,"20/08/2023 19:13:04",140743,17,"task-n9i1",NA,31263438,9267612,NA,"complete",NA,"64e252d5b92f3bcf49791cfd","computer","Desktop or Laptop","Windows 10","Chrome 115.0.0.0","1280x720","1280x595",NA,NA,0,"Pre-Task Notice",2,"DECFBGAHJI","","study_2 (video_feedback and feedback_list_2)","VF_1st","Spreadsheet1",1,"Screen","Screen 1","xrjwiw",1,"continue","",1725.52500014305,1716.712,1725.52500014305,1725.52500014305,1716.712,1725.52500014305,1,1725.52500014305,0,0,NA,"Click To Continue","Continue Button",2,"object-4","Screen",NA,"SUPPRF06732"
"3",1692551584837,"20/08/2023 17:13:04",1692555184837,1,"20/08/2023 19:13:04",140743,17,"task-n9i1",NA,31263438,9267612,NA,"complete",NA,"64e252d5b92f3bcf49791cfd","computer","Desktop or Laptop","Windows 10","Chrome 115.0.0.0","1280x720","1280x595",NA,NA,0,"Pre-Task Notice",2,"DECFBGAHJI","","study_2 (video_feedback and feedback_list_2)","VF_1st","Spreadsheet1",NA,"","","",NA,"5","END",NA,NA,NA,NA,NA,NA,0,NA,NA,NA,NA,"","",NA,"","",NA,"SUPPRF06732"
"1",1692278983529,"17/08/2023 13:29:43",1692282583529,1,"17/08/2023 15:29:43",140743,17,"task-n9i1",NA,31236084,9258380,NA,"complete",NA,"64de2cb7ebaf7c001ec7e37a","computer","Desktop or Laptop","Windows 10","Chrome 116.0.0.0","1920x1080","1920x963",NA,NA,0,"Pre-Task Notice",2,"JAIBHCGDFE","","study_2 (video_feedback and feedback_list_2)","VF_1st","Spreadsheet1",NA,"","","",NA,"5","BEGIN",NA,NA,NA,NA,NA,NA,0,NA,NA,NA,NA,"","",NA,"","",NA,"SUPPRF73191"
"2",1692278986450,"17/08/2023 13:29:46",1692282586450,1,"17/08/2023 15:29:46",140743,17,"task-n9i1",NA,31236084,9258380,NA,"complete",NA,"64de2cb7ebaf7c001ec7e37a","computer","Desktop or Laptop","Windows 10","Chrome 116.0.0.0","1920x1080","1920x963",NA,NA,0,"Pre-Task Notice",2,"JAIBHCGDFE","","study_2 (video_feedback and feedback_list_2)","VF_1st","Spreadsheet1",1,"Screen","Screen 1","xrjwiw",1,"continue","",2925.69000000075,2923.591,2925.69000000075,2925.69000000075,2923.591,2925.69000000075,1,2925.69000000075,0,0,NA,"Click To Continue","Continue Button",2,"object-4","Screen",NA,"SUPPRF73191"
"3",1692278986451,"17/08/2023 13:29:46",1692282586451,1,"17/08/2023 15:29:46",140743,17,"task-n9i1",NA,31236084,9258380,NA,"complete",NA,"64de2cb7ebaf7c001ec7e37a","computer","Desktop or Laptop","Windows 10","Chrome 116.0.0.0","1920x1080","1920x963",NA,NA,0,"Pre-Task Notice",2,"JAIBHCGDFE","","study_2 (video_feedback and feedback_list_2)","VF_1st","Spreadsheet1",NA,"","","",NA,"5","END",NA,NA,NA,NA,NA,NA,0,NA,NA,NA,NA,"","",NA,"","",NA,"SUPPRF73191"
"1",1692725896681,"22/08/2023 17:38:16",1692729496681,1,"22/08/2023 19:38:16",140743,17,"task-n9i1",NA,31297649,9275476,NA,"complete",NA,"64e4fc72a6b2df27331b7045","computer","Desktop or Laptop","Mac OS 10.15.7","Chrome 116.0.0.0","1440x900","1440x815",NA,NA,0,"Pre-Task Notice",2,"FGEHDICJBA","","study_2 (video_feedback and feedback_list_2)","VF_1st","Spreadsheet1",NA,"","","",NA,"5","BEGIN",NA,NA,NA,NA,NA,NA,0,NA,NA,NA,NA,"","",NA,"","",NA,"SUPPRF42249"
"2",1692725900247,"22/08/2023 17:38:20",1692729500247,1,"22/08/2023 19:38:20",140743,17,"task-n9i1",NA,31297649,9275476,NA,"complete",NA,"64e4fc72a6b2df27331b7045","computer","Desktop or Laptop","Mac OS 10.15.7","Chrome 116.0.0.0","1440x900","1440x815",NA,NA,0,"Pre-Task Notice",2,"FGEHDICJBA","","study_2 (video_feedback and feedback_list_2)","VF_1st","Spreadsheet1",1,"Screen","Screen 1","xrjwiw",1,"continue","",3580.825,3564.17,3580.825,3580.825,3564.17,3580.825,1,3580.825,0,0,NA,"Click To Continue","Continue Button",2,"object-4","Screen",NA,"SUPPRF42249"
"3",1692725900251,"22/08/2023 17:38:20",1692729500251,1,"22/08/2023 19:38:20",140743,17,"task-n9i1",NA,31297649,9275476,NA,"complete",NA,"64e4fc72a6b2df27331b7045","computer","Desktop or Laptop","Mac OS 10.15.7","Chrome 116.0.0.0","1440x900","1440x815",NA,NA,0,"Pre-Task Notice",2,"FGEHDICJBA","","study_2 (video_feedback and feedback_list_2)","VF_1st","Spreadsheet1",NA,"","","",NA,"5","END",NA,NA,NA,NA,NA,NA,0,NA,NA,NA,NA,"","",NA,"","",NA,"SUPPRF42249"
"1",1692359361917,"18/08/2023 11:49:21",1692362961917,1,"18/08/2023 13:49:21",140743,17,"task-n9i1",NA,31245271,9261948,NA,"complete",NA,"64df66dd18f0e4168f29a35f","computer","Desktop or Laptop","Mac OS 10.15.7","Chrome 115.0.0.0","1440x900","1287x707",NA,NA,0,"Pre-Task Notice",2,"ABJCIDHEGF","B (Feedback ranking_L1 First)","study_1 (JV and feedback_list_1)","","Spreadsheet1",NA,"","","",NA,"5","BEGIN",NA,NA,NA,NA,NA,NA,0,NA,NA,NA,NA,"","",NA,"","",NA,"SUPPRF05489"
"2",1692359364952,"18/08/2023 11:49:24",1692362964952,1,"18/08/2023 13:49:24",140743,17,"task-n9i1",NA,31245271,9261948,NA,"complete",NA,"64df66dd18f0e4168f29a35f","computer","Desktop or Laptop","Mac OS 10.15.7","Chrome 115.0.0.0","1440x900","1287x707",NA,NA,0,"Pre-Task Notice",2,"ABJCIDHEGF","B (Feedback ranking_L1 First)","study_1 (JV and feedback_list_1)","","Spreadsheet1",1,"Screen","Screen 1","xrjwiw",1,"continue","",3042.41599990463,3033.212,3042.41599990463,3042.41599990463,3033.212,3042.41599990463,1,3042.41599990463,0,0,NA,"Click To Continue","Continue Button",2,"object-4","Screen",NA,"SUPPRF05489"
"3",1692359364954,"18/08/2023 11:49:24",1692362964954,1,"18/08/2023 13:49:24",140743,17,"task-n9i1",NA,31245271,9261948,NA,"complete",NA,"64df66dd18f0e4168f29a35f","computer","Desktop or Laptop","Mac OS 10.15.7","Chrome 115.0.0.0","1440x900","1287x707",NA,NA,0,"Pre-Task Notice",2,"ABJCIDHEGF","B (Feedback ranking_L1 First)","study_1 (JV and feedback_list_1)","","Spreadsheet1",NA,"","","",NA,"5","END",NA,NA,NA,NA,NA,NA,0,NA,NA,NA,NA,"","",NA,"","",NA,"SUPPRF05489"
