"Event.Index","UTC.Timestamp","UTC.Date.and.Time","Local.Timestamp","Local.Timezone","Local.Date.and.Time","Experiment.ID","Experiment.Version","Tree.Node.Key","Repeat.Key","Schedule.ID","Participant.Private.ID","Participant.Starting.Group","Participant.Status","Participant.Completion.Code","Participant.External.Session.ID","Participant.Device.Type","Participant.Device","Participant.OS","Participant.Browser","Participant.Monitor.Size","Participant.Viewport.Size","Checkpoint","Room.ID","Room.Order","Task.Name","Task.Version","order.ot79","randomiser.lqqr","randomiser.28m8","randomiser.tf5j","Spreadsheet","Trial.Number","Display","Screen","Screen.ID","Screen.Counter","Response.Type","Response","Onset.Time","Clock.Time","Reaction.Time","Absolute.Onset.Time","Absolute.Clock.Time","Absolute.Reaction.Time","Correct","Response.Onset","Response.Duration","Proportion","Tag","Component.Name","Object.Name","Object.Number","Object.ID","Spreadsheet..display","Spreadsheet..stimulus","Spreadsheet..P","Spreadsheet..N","Manipulation..Spreadsheet","Random_ID"
"1",1692005916480,"14/08/2023 09:38:36",1692009516480,1,"14/08/2023 11:38:36",140743,17,"task-f6fg",NA,31172533,9241769,NA,"complete",NA,"64d9ff71624435bf2a23761d","computer","Desktop or Laptop","Windows 10","Chrome 115.0.0.0","1536x864","1536x707",NA,NA,0,"Video Feedback Task (Clone)",6,"CDBEAFJGIH",NA,"study_2 (video_feedback and feedback_list_2)","Feedback_ranking_L2_first",1,NA,"","","",NA,"5","BEGIN",NA,NA,NA,NA,NA,NA,0,NA,NA,NA,NA,"","",NA,"","","","","",NA,"SUPPRF16300"
"2",1692005969844,"14/08/2023 09:39:29",1692009569844,1,"14/08/2023 11:39:29",140743,17,"task-f6fg",NA,31172533,9241769,NA,"complete",NA,"64d9ff71624435bf2a23761d","computer","Desktop or Laptop","Windows 10","Chrome 115.0.0.0","1536x864","1536x707",NA,NA,0,"Video Feedback Task (Clone)",6,"CDBEAFJGIH",NA,"study_2 (video_feedback and feedback_list_2)","Feedback_ranking_L2_first",1,1,"Neutral Feedback","Screen 1","3zrml3",1,"continue","",52384.549,52383.026,52384.549,52384.549,52383.026,52384.549,1,52384.549,0,0,NA,"Click To Continue","Continue Button",1,"object-155","Neutral Feedback","P2_N.mp4","Screenshot 2023-06-30 at 15.00.42.png","Screenshot 2023-06-30 at 15.02.01.png",NA,"SUPPRF16300"
"3",1692005969846,"14/08/2023 09:39:29",1692009569846,1,"14/08/2023 11:39:29",140743,17,"task-f6fg",NA,31172533,9241769,NA,"complete",NA,"64d9ff71624435bf2a23761d","computer","Desktop or Laptop","Windows 10","Chrome 115.0.0.0","1536x864","1536x707",NA,NA,0,"Video Feedback Task (Clone)",6,"CDBEAFJGIH",NA,"study_2 (video_feedback and feedback_list_2)","Feedback_ranking_L2_first",1,1,"Neutral Feedback","Screen 1","3zrml3",1,"response","That was okay explanation ",45849.782,52383.026,52386.549,45849.782,52383.026,52386.549,1,45849.782,6536.767,0,NA,"Text Entry","Text Entry",4,"object-158","Neutral Feedback","P2_N.mp4","Screenshot 2023-06-30 at 15.00.42.png","Screenshot 2023-06-30 at 15.02.01.png",NA,"SUPPRF16300"
"4",1692005969847,"14/08/2023 09:39:29",1692009569847,1,"14/08/2023 11:39:29",140743,17,"task-f6fg",NA,31172533,9241769,NA,"complete",NA,"64d9ff71624435bf2a23761d","computer","Desktop or Laptop","Windows 10","Chrome 115.0.0.0","1536x864","1536x707",NA,NA,0,"Video Feedback Task (Clone)",6,"CDBEAFJGIH",NA,"study_2 (video_feedback and feedback_list_2)","Feedback_ranking_L2_first",1,1,"Neutral Feedback","Screen 1","3zrml3",1,"response","You said everything you saw",18150.008,52383.026,52386.949000006,18150.008,52383.026,52386.949000006,1,18150.008,34236.941000006,0,NA,"Text Entry","Text Entry",5,"object-159","Neutral Feedback","P2_N.mp4","Screenshot 2023-06-30 at 15.00.42.png","Screenshot 2023-06-30 at 15.02.01.png",NA,"SUPPRF16300"
"5",1692005970810,"14/08/2023 09:39:30",1692009570810,1,"14/08/2023 11:39:30",140743,17,"task-f6fg",NA,31172533,9241769,NA,"complete",NA,"64d9ff71624435bf2a23761d","computer","Desktop or Laptop","Windows 10","Chrome 115.0.0.0","1536x864","1536x707",NA,NA,0,"Video Feedback Task (Clone)",6,"CDBEAFJGIH",NA,"study_2 (video_feedback and feedback_list_2)","Feedback_ranking_L2_first",1,1,"Neutral Feedback","Screen 2","vv4mhq",2,"continue","",966.637999999999,966.637999999999,966.637999999999,966.637999999999,966.637999999999,966.637999999999,1,966.637999999999,0,0,NA,"Fixation Timing","Fixation",1,"object-153","Neutral Feedback","P2_N.mp4","Screenshot 2023-06-30 at 15.00.42.png","Screenshot 2023-06-30 at 15.02.01.png",NA,"SUPPRF16300"
"6",1692006014056,"14/08/2023 09:40:14",1692009614056,1,"14/08/2023 11:40:14",140743,17,"task-f6fg",NA,31172533,9241769,NA,"complete",NA,"64d9ff71624435bf2a23761d","computer","Desktop or Laptop","Windows 10","Chrome 115.0.0.0","1536x864","1536x707",NA,NA,0,"Video Feedback Task (Clone)",6,"CDBEAFJGIH",NA,"study_2 (video_feedback and feedback_list_2)","Feedback_ranking_L2_first",1,1,"Positive Feedback","Video","w2ir4b",1,"continue","",43246.885,43233.256,43246.885,43246.885,43233.256,43246.885,1,43246.885,0,0,NA,"Click To Continue","Continue Button",1,"object-14","Positive Feedback","P5_P.mp4","Screenshot 2023-06-30 at 15.01.08.png","Screenshot 2023-06-30 at 15.00.55.png",NA,"SUPPRF16300"
"7",1692006014059,"14/08/2023 09:40:14",1692009614059,1,"14/08/2023 11:40:14",140743,17,"task-f6fg",NA,31172533,9241769,NA,"complete",NA,"64d9ff71624435bf2a23761d","computer","Desktop or Laptop","Windows 10","Chrome 115.0.0.0","1536x864","1536x707",NA,NA,0,"Video Feedback Task (Clone)",6,"CDBEAFJGIH",NA,"study_2 (video_feedback and feedback_list_2)","Feedback_ranking_L2_first",1,1,"Positive Feedback","Video","w2ir4b",1,"response","Very fluent spoken explanation ",34800.027,43233.256,43249.934,34800.027,43233.256,43249.934,1,34800.027,8449.90699999999,0,NA,"Text Entry","Text Entry",4,"object-19","Positive Feedback","P5_P.mp4","Screenshot 2023-06-30 at 15.01.08.png","Screenshot 2023-06-30 at 15.00.55.png",NA,"SUPPRF16300"
"8",1692006014060,"14/08/2023 09:40:14",1692009614060,1,"14/08/2023 11:40:14",140743,17,"task-f6fg",NA,31172533,9241769,NA,"complete",NA,"64d9ff71624435bf2a23761d","computer","Desktop or Laptop","Windows 10","Chrome 115.0.0.0","1536x864","1536x707",NA,NA,0,"Video Feedback Task (Clone)",6,"CDBEAFJGIH",NA,"study_2 (video_feedback and feedback_list_2)","Feedback_ranking_L2_first",1,1,"Positive Feedback","Video","w2ir4b",1,"response","Very good description and can imagine it well. ",7783.415,43233.256,43249.934,7783.415,43233.256,43249.934,1,7783.415,35466.519,0,NA,"Text Entry","Text Entry",5,"object-20","Positive Feedback","P5_P.mp4","Screenshot 2023-06-30 at 15.01.08.png","Screenshot 2023-06-30 at 15.00.55.png",NA,"SUPPRF16300"
"9",1692006015010,"14/08/2023 09:40:15",1692009615010,1,"14/08/2023 11:40:15",140743,17,"task-f6fg",NA,31172533,9241769,NA,"complete",NA,"64d9ff71624435bf2a23761d","computer","Desktop or Laptop","Windows 10","Chrome 115.0.0.0","1536x864","1536x707",NA,NA,0,"Video Feedback Task (Clone)",6,"CDBEAFJGIH",NA,"study_2 (video_feedback and feedback_list_2)","Feedback_ranking_L2_first",1,1,"Positive Feedback","Fixation","mtm832",2,"continue","",966.736999999994,966.736999999994,966.736999999994,966.736999999994,966.736999999994,966.736999999994,1,966.736999999994,0,0,NA,"Fixation Timing","Fixation",1,"object-65","Positive Feedback","P5_P.mp4","Screenshot 2023-06-30 at 15.01.08.png","Screenshot 2023-06-30 at 15.00.55.png",NA,"SUPPRF16300"
"10",1692006057293,"14/08/2023 09:40:57",1692009657293,1,"14/08/2023 11:40:57",140743,17,"task-f6fg",NA,31172533,9241769,NA,"complete",NA,"64d9ff71624435bf2a23761d","computer","Desktop or Laptop","Windows 10","Chrome 115.0.0.0","1536x864","1536x707",NA,NA,0,"Video Feedback Task (Clone)",6,"CDBEAFJGIH",NA,"study_2 (video_feedback and feedback_list_2)","Feedback_ranking_L2_first",1,2,"Positive Feedback","Video","w2ir4b",1,"continue","",42283.234,42266.471,42283.234,42283.234,42266.471,42283.234,1,42283.234,0,0,NA,"Click To Continue","Continue Button",1,"object-14","Positive Feedback","P2_P.mp4","Screenshot 2023-06-30 at 15.00.42.png","Screenshot 2023-06-30 at 15.02.01.png",NA,"SUPPRF16300"
"11",1692006057296,"14/08/2023 09:40:57",1692009657296,1,"14/08/2023 11:40:57",140743,17,"task-f6fg",NA,31172533,9241769,NA,"complete",NA,"64d9ff71624435bf2a23761d","computer","Desktop or Laptop","Windows 10","Chrome 115.0.0.0","1536x864","1536x707",NA,NA,0,"Video Feedback Task (Clone)",6,"CDBEAFJGIH",NA,"study_2 (video_feedback and feedback_list_2)","Feedback_ranking_L2_first",1,2,"Positive Feedback","Video","w2ir4b",1,"response","You described the image very well. ",31783.063,42266.471,42283.234,31783.063,42266.471,42283.234,1,31783.063,10500.171,0,NA,"Text Entry","Text Entry",4,"object-19","Positive Feedback","P2_P.mp4","Screenshot 2023-06-30 at 15.00.42.png","Screenshot 2023-06-30 at 15.02.01.png",NA,"SUPPRF16300"
"12",1692006057296,"14/08/2023 09:40:57",1692009657296,1,"14/08/2023 11:40:57",140743,17,"task-f6fg",NA,31172533,9241769,NA,"complete",NA,"64d9ff71624435bf2a23761d","computer","Desktop or Laptop","Windows 10","Chrome 115.0.0.0","1536x864","1536x707",NA,NA,0,"Video Feedback Task (Clone)",6,"CDBEAFJGIH",NA,"study_2 (video_feedback and feedback_list_2)","Feedback_ranking_L2_first",1,2,"Positive Feedback","Video","w2ir4b",1,"response","That was excellent. ",9616.62300000001,42266.471,42283.234,9616.62300000001,42266.471,42283.234,1,9616.62300000001,32666.611,0,NA,"Text Entry","Text Entry",5,"object-20","Positive Feedback","P2_P.mp4","Screenshot 2023-06-30 at 15.00.42.png","Screenshot 2023-06-30 at 15.02.01.png",NA,"SUPPRF16300"
"13",1692006058243,"14/08/2023 09:40:58",1692009658243,1,"14/08/2023 11:40:58",140743,17,"task-f6fg",NA,31172533,9241769,NA,"complete",NA,"64d9ff71624435bf2a23761d","computer","Desktop or Laptop","Windows 10","Chrome 115.0.0.0","1536x864","1536x707",NA,NA,0,"Video Feedback Task (Clone)",6,"CDBEAFJGIH",NA,"study_2 (video_feedback and feedback_list_2)","Feedback_ranking_L2_first",1,2,"Positive Feedback","Fixation","mtm832",2,"continue","",966.668000000005,966.668000000005,966.668000000005,966.668000000005,966.668000000005,966.668000000005,1,966.668000000005,0,0,NA,"Fixation Timing","Fixation",1,"object-65","Positive Feedback","P2_P.mp4","Screenshot 2023-06-30 at 15.00.42.png","Screenshot 2023-06-30 at 15.02.01.png",NA,"SUPPRF16300"
"14",1692006084894,"14/08/2023 09:41:24",1692009684894,1,"14/08/2023 11:41:24",140743,17,"task-f6fg",NA,31172533,9241769,NA,"complete",NA,"64d9ff71624435bf2a23761d","computer","Desktop or Laptop","Windows 10","Chrome 115.0.0.0","1536x864","1536x707",NA,NA,0,"Video Feedback Task (Clone)",6,"CDBEAFJGIH",NA,"study_2 (video_feedback and feedback_list_2)","Feedback_ranking_L2_first",1,2,"Neutral Feedback","Screen 1","3zrml3",1,"continue","",26652.0529999821,26649.8,26652.0529999821,26652.0529999821,26649.8,26652.0529999821,1,26652.0529999821,0,0,NA,"Click To Continue","Continue Button",1,"object-155","Neutral Feedback","P3_N.mp4","Screenshot 2023-06-30 at 15.01.08.png","Screenshot 2023-06-30 at 15.00.55.png",NA,"SUPPRF16300"
"15",1692006084897,"14/08/2023 09:41:24",1692009684897,1,"14/08/2023 11:41:24",140743,17,"task-f6fg",NA,31172533,9241769,NA,"complete",NA,"64d9ff71624435bf2a23761d","computer","Desktop or Laptop","Windows 10","Chrome 115.0.0.0","1536x864","1536x707",NA,NA,0,"Video Feedback Task (Clone)",6,"CDBEAFJGIH",NA,"study_2 (video_feedback and feedback_list_2)","Feedback_ranking_L2_first",1,2,"Neutral Feedback","Screen 1","3zrml3",1,"response","It was okay. ",12483.333,26649.8,26654.852999994,12483.333,26649.8,26654.852999994,1,12483.333,14171.5199999941,0,NA,"Text Entry","Text Entry",4,"object-158","Neutral Feedback","P3_N.mp4","Screenshot 2023-06-30 at 15.01.08.png","Screenshot 2023-06-30 at 15.00.55.png",NA,"SUPPRF16300"
"16",1692006084897,"14/08/2023 09:41:24",1692009684897,1,"14/08/2023 11:41:24",140743,17,"task-f6fg",NA,31172533,9241769,NA,"complete",NA,"64d9ff71624435bf2a23761d","computer","Desktop or Laptop","Windows 10","Chrome 115.0.0.0","1536x864","1536x707",NA,NA,0,"Video Feedback Task (Clone)",6,"CDBEAFJGIH",NA,"study_2 (video_feedback and feedback_list_2)","Feedback_ranking_L2_first",1,2,"Neutral Feedback","Screen 1","3zrml3",1,"response","Okay explanation. ",8083.367,26649.8,26655.153000006,8083.367,26649.8,26655.153000006,1,8083.367,18571.786000006,0,NA,"Text Entry","Text Entry",5,"object-159","Neutral Feedback","P3_N.mp4","Screenshot 2023-06-30 at 15.01.08.png","Screenshot 2023-06-30 at 15.00.55.png",NA,"SUPPRF16300"
"17",1692006085859,"14/08/2023 09:41:25",1692009685859,1,"14/08/2023 11:41:25",140743,17,"task-f6fg",NA,31172533,9241769,NA,"complete",NA,"64d9ff71624435bf2a23761d","computer","Desktop or Laptop","Windows 10","Chrome 115.0.0.0","1536x864","1536x707",NA,NA,0,"Video Feedback Task (Clone)",6,"CDBEAFJGIH",NA,"study_2 (video_feedback and feedback_list_2)","Feedback_ranking_L2_first",1,2,"Neutral Feedback","Screen 2","vv4mhq",2,"continue","",966.665999999997,966.665999999997,966.665999999997,966.665999999997,966.665999999997,966.665999999997,1,966.665999999997,0,0,NA,"Fixation Timing","Fixation",1,"object-153","Neutral Feedback","P3_N.mp4","Screenshot 2023-06-30 at 15.01.08.png","Screenshot 2023-06-30 at 15.00.55.png",NA,"SUPPRF16300"
"18",1692006148347,"14/08/2023 09:42:28",1692009748347,1,"14/08/2023 11:42:28",140743,17,"task-f6fg",NA,31172533,9241769,NA,"complete",NA,"64d9ff71624435bf2a23761d","computer","Desktop or Laptop","Windows 10","Chrome 115.0.0.0","1536x864","1536x707",NA,NA,0,"Video Feedback Task (Clone)",6,"CDBEAFJGIH",NA,"study_2 (video_feedback and feedback_list_2)","Feedback_ranking_L2_first",1,3,"Positive Feedback","Video","w2ir4b",1,"continue","",62487.3869999941,62482.968,62487.3869999941,62487.3869999941,62482.968,62487.3869999941,1,62487.3869999941,0,0,NA,"Click To Continue","Continue Button",1,"object-14","Positive Feedback","P1_P.mp4","Screenshot 2023-06-30 at 15.01.08.png","Screenshot 2023-06-30 at 15.02.01.png",NA,"SUPPRF16300"
"19",1692006148349,"14/08/2023 09:42:28",1692009748349,1,"14/08/2023 11:42:28",140743,17,"task-f6fg",NA,31172533,9241769,NA,"complete",NA,"64d9ff71624435bf2a23761d","computer","Desktop or Laptop","Windows 10","Chrome 115.0.0.0","1536x864","1536x707",NA,NA,0,"Video Feedback Task (Clone)",6,"CDBEAFJGIH",NA,"study_2 (video_feedback and feedback_list_2)","Feedback_ranking_L2_first",1,3,"Positive Feedback","Video","w2ir4b",1,"response","Described the people very well and can imagine the picture. ",40816.418,62482.968,62489.787,40816.418,62482.968,62489.787,1,40816.418,21673.369,0,NA,"Text Entry","Text Entry",4,"object-19","Positive Feedback","P1_P.mp4","Screenshot 2023-06-30 at 15.01.08.png","Screenshot 2023-06-30 at 15.02.01.png",NA,"SUPPRF16300"
"20",1692006148349,"14/08/2023 09:42:28",1692009748349,1,"14/08/2023 11:42:28",140743,17,"task-f6fg",NA,31172533,9241769,NA,"complete",NA,"64d9ff71624435bf2a23761d","computer","Desktop or Laptop","Windows 10","Chrome 115.0.0.0","1536x864","1536x707",NA,NA,0,"Video Feedback Task (Clone)",6,"CDBEAFJGIH",NA,"study_2 (video_feedback and feedback_list_2)","Feedback_ranking_L2_first",1,3,"Positive Feedback","Video","w2ir4b",1,"response","Articulated explanation. ",18749.909,62482.968,62489.9869999881,18749.909,62482.968,62489.9869999881,1,18749.909,43740.0779999881,0,NA,"Text Entry","Text Entry",5,"object-20","Positive Feedback","P1_P.mp4","Screenshot 2023-06-30 at 15.01.08.png","Screenshot 2023-06-30 at 15.02.01.png",NA,"SUPPRF16300"
"21",1692006149309,"14/08/2023 09:42:29",1692009749309,1,"14/08/2023 11:42:29",140743,17,"task-f6fg",NA,31172533,9241769,NA,"complete",NA,"64d9ff71624435bf2a23761d","computer","Desktop or Laptop","Windows 10","Chrome 115.0.0.0","1536x864","1536x707",NA,NA,0,"Video Feedback Task (Clone)",6,"CDBEAFJGIH",NA,"study_2 (video_feedback and feedback_list_2)","Feedback_ranking_L2_first",1,3,"Positive Feedback","Fixation","mtm832",2,"continue","",966.801999999996,966.801999999996,966.801999999996,966.801999999996,966.801999999996,966.801999999996,1,966.801999999996,0,0,NA,"Fixation Timing","Fixation",1,"object-65","Positive Feedback","P1_P.mp4","Screenshot 2023-06-30 at 15.01.08.png","Screenshot 2023-06-30 at 15.02.01.png",NA,"SUPPRF16300"
"22",1692006191046,"14/08/2023 09:43:11",1692009791046,1,"14/08/2023 11:43:11",140743,17,"task-f6fg",NA,31172533,9241769,NA,"complete",NA,"64d9ff71624435bf2a23761d","computer","Desktop or Laptop","Windows 10","Chrome 115.0.0.0","1536x864","1536x707",NA,NA,0,"Video Feedback Task (Clone)",6,"CDBEAFJGIH",NA,"study_2 (video_feedback and feedback_list_2)","Feedback_ranking_L2_first",1,3,"Neutral Feedback","Screen 1","3zrml3",1,"continue","",41737.116999994,41733.108,41737.116999994,41737.116999994,41733.108,41737.116999994,1,41737.116999994,0,0,NA,"Click To Continue","Continue Button",1,"object-155","Neutral Feedback","P4_N.mp4","Screenshot 2023-06-30 at 15.01.08.png","Screenshot 2023-06-30 at 15.00.55.png",NA,"SUPPRF16300"
"23",1692006191050,"14/08/2023 09:43:11",1692009791050,1,"14/08/2023 11:43:11",140743,17,"task-f6fg",NA,31172533,9241769,NA,"complete",NA,"64d9ff71624435bf2a23761d","computer","Desktop or Laptop","Windows 10","Chrome 115.0.0.0","1536x864","1536x707",NA,NA,0,"Video Feedback Task (Clone)",6,"CDBEAFJGIH",NA,"study_2 (video_feedback and feedback_list_2)","Feedback_ranking_L2_first",1,3,"Neutral Feedback","Screen 1","3zrml3",1,"response","It was okay needed more description. ",28633.175,41733.108,41740.517,28633.175,41733.108,41740.517,1,28633.175,13107.342,0,NA,"Text Entry","Text Entry",4,"object-158","Neutral Feedback","P4_N.mp4","Screenshot 2023-06-30 at 15.01.08.png","Screenshot 2023-06-30 at 15.00.55.png",NA,"SUPPRF16300"
"24",1692006191050,"14/08/2023 09:43:11",1692009791050,1,"14/08/2023 11:43:11",140743,17,"task-f6fg",NA,31172533,9241769,NA,"complete",NA,"64d9ff71624435bf2a23761d","computer","Desktop or Laptop","Windows 10","Chrome 115.0.0.0","1536x864","1536x707",NA,NA,0,"Video Feedback Task (Clone)",6,"CDBEAFJGIH",NA,"study_2 (video_feedback and feedback_list_2)","Feedback_ranking_L2_first",1,3,"Neutral Feedback","Screen 1","3zrml3",1,"response","Okay explanation. ",22199.791,41733.108,41740.8169999821,22199.791,41733.108,41740.8169999821,1,22199.791,19541.0259999821,0,NA,"Text Entry","Text Entry",5,"object-159","Neutral Feedback","P4_N.mp4","Screenshot 2023-06-30 at 15.01.08.png","Screenshot 2023-06-30 at 15.00.55.png",NA,"SUPPRF16300"
"25",1692006192009,"14/08/2023 09:43:12",1692009792009,1,"14/08/2023 11:43:12",140743,17,"task-f6fg",NA,31172533,9241769,NA,"complete",NA,"64d9ff71624435bf2a23761d","computer","Desktop or Laptop","Windows 10","Chrome 115.0.0.0","1536x864","1536x707",NA,NA,0,"Video Feedback Task (Clone)",6,"CDBEAFJGIH",NA,"study_2 (video_feedback and feedback_list_2)","Feedback_ranking_L2_first",1,3,"Neutral Feedback","Screen 2","vv4mhq",2,"continue","",966.602000000014,966.602000000014,966.602000000014,966.602000000014,966.602000000014,966.602000000014,1,966.602000000014,0,0,NA,"Fixation Timing","Fixation",1,"object-153","Neutral Feedback","P4_N.mp4","Screenshot 2023-06-30 at 15.01.08.png","Screenshot 2023-06-30 at 15.00.55.png",NA,"SUPPRF16300"
"26",1692006254349,"14/08/2023 09:44:14",1692009854349,1,"14/08/2023 11:44:14",140743,17,"task-f6fg",NA,31172533,9241769,NA,"complete",NA,"64d9ff71624435bf2a23761d","computer","Desktop or Laptop","Windows 10","Chrome 115.0.0.0","1536x864","1536x707",NA,NA,0,"Video Feedback Task (Clone)",6,"CDBEAFJGIH",NA,"study_2 (video_feedback and feedback_list_2)","Feedback_ranking_L2_first",1,4,"Positive Feedback","Video","w2ir4b",1,"continue","",62340.5069999881,62333.087,62340.5069999881,62340.5069999881,62333.087,62340.5069999881,1,62340.5069999881,0,0,NA,"Click To Continue","Continue Button",1,"object-14","Positive Feedback","P3_P.mp4","Screenshot 2023-06-30 at 15.00.42.png","Screenshot 2023-06-30 at 15.02.01.png",NA,"SUPPRF16300"
"27",1692006254352,"14/08/2023 09:44:14",1692009854352,1,"14/08/2023 11:44:14",140743,17,"task-f6fg",NA,31172533,9241769,NA,"complete",NA,"64d9ff71624435bf2a23761d","computer","Desktop or Laptop","Windows 10","Chrome 115.0.0.0","1536x864","1536x707",NA,NA,0,"Video Feedback Task (Clone)",6,"CDBEAFJGIH",NA,"study_2 (video_feedback and feedback_list_2)","Feedback_ranking_L2_first",1,4,"Positive Feedback","Video","w2ir4b",1,"response","You described it very well. Fluent explanation ",28199.881,62333.087,62343.906999994,28199.881,62333.087,62343.906999994,1,28199.881,34144.025999994,0,NA,"Text Entry","Text Entry",4,"object-19","Positive Feedback","P3_P.mp4","Screenshot 2023-06-30 at 15.00.42.png","Screenshot 2023-06-30 at 15.02.01.png",NA,"SUPPRF16300"
"28",1692006254352,"14/08/2023 09:44:14",1692009854352,1,"14/08/2023 11:44:14",140743,17,"task-f6fg",NA,31172533,9241769,NA,"complete",NA,"64d9ff71624435bf2a23761d","computer","Desktop or Laptop","Windows 10","Chrome 115.0.0.0","1536x864","1536x707",NA,NA,0,"Video Feedback Task (Clone)",6,"CDBEAFJGIH",NA,"study_2 (video_feedback and feedback_list_2)","Feedback_ranking_L2_first",1,4,"Positive Feedback","Video","w2ir4b",1,"response","It was excellent. ",6116.72999999998,62333.087,62344.307,6116.72999999998,62333.087,62344.307,1,6116.72999999998,56227.577,0,NA,"Text Entry","Text Entry",5,"object-20","Positive Feedback","P3_P.mp4","Screenshot 2023-06-30 at 15.00.42.png","Screenshot 2023-06-30 at 15.02.01.png",NA,"SUPPRF16300"
"29",1692006255309,"14/08/2023 09:44:15",1692009855309,1,"14/08/2023 11:44:15",140743,17,"task-f6fg",NA,31172533,9241769,NA,"complete",NA,"64d9ff71624435bf2a23761d","computer","Desktop or Laptop","Windows 10","Chrome 115.0.0.0","1536x864","1536x707",NA,NA,0,"Video Feedback Task (Clone)",6,"CDBEAFJGIH",NA,"study_2 (video_feedback and feedback_list_2)","Feedback_ranking_L2_first",1,4,"Positive Feedback","Fixation","mtm832",2,"continue","",966.643999999971,966.643999999971,966.643999999971,966.643999999971,966.643999999971,966.643999999971,1,966.643999999971,0,0,NA,"Fixation Timing","Fixation",1,"object-65","Positive Feedback","P3_P.mp4","Screenshot 2023-06-30 at 15.00.42.png","Screenshot 2023-06-30 at 15.02.01.png",NA,"SUPPRF16300"
"30",1692006287109,"14/08/2023 09:44:47",1692009887109,1,"14/08/2023 11:44:47",140743,17,"task-f6fg",NA,31172533,9241769,NA,"complete",NA,"64d9ff71624435bf2a23761d","computer","Desktop or Laptop","Windows 10","Chrome 115.0.0.0","1536x864","1536x707",NA,NA,0,"Video Feedback Task (Clone)",6,"CDBEAFJGIH",NA,"study_2 (video_feedback and feedback_list_2)","Feedback_ranking_L2_first",1,4,"Neutral Feedback","Screen 1","3zrml3",1,"continue","",31799.9350000001,31783.172,31799.9350000001,31799.9350000001,31783.172,31799.9350000001,1,31799.9350000001,0,0,NA,"Click To Continue","Continue Button",1,"object-155","Neutral Feedback","P5_N.mp4","Screenshot 2023-06-30 at 15.01.08.png","Screenshot 2023-06-30 at 15.02.01.png",NA,"SUPPRF16300"
"31",1692006287112,"14/08/2023 09:44:47",1692009887112,1,"14/08/2023 11:44:47",140743,17,"task-f6fg",NA,31172533,9241769,NA,"complete",NA,"64d9ff71624435bf2a23761d","computer","Desktop or Laptop","Windows 10","Chrome 115.0.0.0","1536x864","1536x707",NA,NA,0,"Video Feedback Task (Clone)",6,"CDBEAFJGIH",NA,"study_2 (video_feedback and feedback_list_2)","Feedback_ranking_L2_first",1,4,"Neutral Feedback","Screen 1","3zrml3",1,"response","Performance was the best they could ask for ",19683.442,31783.172,31799.9350000001,19683.442,31783.172,31799.9350000001,1,19683.442,12116.4930000001,0,NA,"Text Entry","Text Entry",4,"object-158","Neutral Feedback","P5_N.mp4","Screenshot 2023-06-30 at 15.01.08.png","Screenshot 2023-06-30 at 15.02.01.png",NA,"SUPPRF16300"
"32",1692006287112,"14/08/2023 09:44:47",1692009887112,1,"14/08/2023 11:44:47",140743,17,"task-f6fg",NA,31172533,9241769,NA,"complete",NA,"64d9ff71624435bf2a23761d","computer","Desktop or Laptop","Windows 10","Chrome 115.0.0.0","1536x864","1536x707",NA,NA,0,"Video Feedback Task (Clone)",6,"CDBEAFJGIH",NA,"study_2 (video_feedback and feedback_list_2)","Feedback_ranking_L2_first",1,4,"Neutral Feedback","Screen 1","3zrml3",1,"response","It was in the middle. ",14983.281,31783.172,31799.9350000001,14983.281,31783.172,31799.9350000001,1,14983.281,16816.654,0,NA,"Text Entry","Text Entry",5,"object-159","Neutral Feedback","P5_N.mp4","Screenshot 2023-06-30 at 15.01.08.png","Screenshot 2023-06-30 at 15.02.01.png",NA,"SUPPRF16300"
"33",1692006288058,"14/08/2023 09:44:48",1692009888058,1,"14/08/2023 11:44:48",140743,17,"task-f6fg",NA,31172533,9241769,NA,"complete",NA,"64d9ff71624435bf2a23761d","computer","Desktop or Laptop","Windows 10","Chrome 115.0.0.0","1536x864","1536x707",NA,NA,0,"Video Feedback Task (Clone)",6,"CDBEAFJGIH",NA,"study_2 (video_feedback and feedback_list_2)","Feedback_ranking_L2_first",1,4,"Neutral Feedback","Screen 2","vv4mhq",2,"continue","",966.620999999985,966.620999999985,966.620999999985,966.620999999985,966.620999999985,966.620999999985,1,966.620999999985,0,0,NA,"Fixation Timing","Fixation",1,"object-153","Neutral Feedback","P5_N.mp4","Screenshot 2023-06-30 at 15.01.08.png","Screenshot 2023-06-30 at 15.02.01.png",NA,"SUPPRF16300"
"34",1692006332443,"14/08/2023 09:45:32",1692009932443,1,"14/08/2023 11:45:32",140743,17,"task-f6fg",NA,31172533,9241769,NA,"complete",NA,"64d9ff71624435bf2a23761d","computer","Desktop or Laptop","Windows 10","Chrome 115.0.0.0","1536x864","1536x707",NA,NA,0,"Video Feedback Task (Clone)",6,"CDBEAFJGIH",NA,"study_2 (video_feedback and feedback_list_2)","Feedback_ranking_L2_first",1,5,"Neutral Feedback","Screen 1","3zrml3",1,"continue","",44384.783,44383.146,44384.783,44384.783,44383.146,44384.783,1,44384.783,0,0,NA,"Click To Continue","Continue Button",1,"object-155","Neutral Feedback","P1_N.mp4","Screenshot 2023-06-30 at 15.00.42.png","Screenshot 2023-06-30 at 15.00.55.png",NA,"SUPPRF16300"
"35",1692006332446,"14/08/2023 09:45:32",1692009932446,1,"14/08/2023 11:45:32",140743,17,"task-f6fg",NA,31172533,9241769,NA,"complete",NA,"64d9ff71624435bf2a23761d","computer","Desktop or Laptop","Windows 10","Chrome 115.0.0.0","1536x864","1536x707",NA,NA,0,"Video Feedback Task (Clone)",6,"CDBEAFJGIH",NA,"study_2 (video_feedback and feedback_list_2)","Feedback_ranking_L2_first",1,5,"Neutral Feedback","Screen 1","3zrml3",1,"response","It was okay, not too bad. ",38599.827,44383.146,44388.283,38599.827,44383.146,44388.283,1,38599.827,5788.45600000001,0,NA,"Text Entry","Text Entry",4,"object-158","Neutral Feedback","P1_N.mp4","Screenshot 2023-06-30 at 15.00.42.png","Screenshot 2023-06-30 at 15.00.55.png",NA,"SUPPRF16300"
"36",1692006332447,"14/08/2023 09:45:32",1692009932447,1,"14/08/2023 11:45:32",140743,17,"task-f6fg",NA,31172533,9241769,NA,"complete",NA,"64d9ff71624435bf2a23761d","computer","Desktop or Laptop","Windows 10","Chrome 115.0.0.0","1536x864","1536x707",NA,NA,0,"Video Feedback Task (Clone)",6,"CDBEAFJGIH",NA,"study_2 (video_feedback and feedback_list_2)","Feedback_ranking_L2_first",1,5,"Neutral Feedback","Screen 1","3zrml3",1,"response","Needed more of a slightly better explanation to make it good. ",14350.084,44383.146,44388.783,14350.084,44383.146,44388.783,1,14350.084,30038.699,0,NA,"Text Entry","Text Entry",5,"object-159","Neutral Feedback","P1_N.mp4","Screenshot 2023-06-30 at 15.00.42.png","Screenshot 2023-06-30 at 15.00.55.png",NA,"SUPPRF16300"
"37",1692006333408,"14/08/2023 09:45:33",1692009933408,1,"14/08/2023 11:45:33",140743,17,"task-f6fg",NA,31172533,9241769,NA,"complete",NA,"64d9ff71624435bf2a23761d","computer","Desktop or Laptop","Windows 10","Chrome 115.0.0.0","1536x864","1536x707",NA,NA,0,"Video Feedback Task (Clone)",6,"CDBEAFJGIH",NA,"study_2 (video_feedback and feedback_list_2)","Feedback_ranking_L2_first",1,5,"Neutral Feedback","Screen 2","vv4mhq",2,"continue","",966.618000000017,966.618000000017,966.618000000017,966.618000000017,966.618000000017,966.618000000017,1,966.618000000017,0,0,NA,"Fixation Timing","Fixation",1,"object-153","Neutral Feedback","P1_N.mp4","Screenshot 2023-06-30 at 15.00.42.png","Screenshot 2023-06-30 at 15.00.55.png",NA,"SUPPRF16300"
"38",1692006371946,"14/08/2023 09:46:11",1692009971946,1,"14/08/2023 11:46:11",140743,17,"task-f6fg",NA,31172533,9241769,NA,"complete",NA,"64d9ff71624435bf2a23761d","computer","Desktop or Laptop","Windows 10","Chrome 115.0.0.0","1536x864","1536x707",NA,NA,0,"Video Feedback Task (Clone)",6,"CDBEAFJGIH",NA,"study_2 (video_feedback and feedback_list_2)","Feedback_ranking_L2_first",1,5,"Positive Feedback","Video","w2ir4b",1,"continue","",38538.2189999881,38533.161,38538.2189999881,38538.2189999881,38533.161,38538.2189999881,1,38538.2189999881,0,0,NA,"Click To Continue","Continue Button",1,"object-14","Positive Feedback","P4_P.mp4","Screenshot 2023-06-30 at 15.00.42.png","Screenshot 2023-06-30 at 15.00.55.png",NA,"SUPPRF16300"
"39",1692006371949,"14/08/2023 09:46:11",1692009971949,1,"14/08/2023 11:46:11",140743,17,"task-f6fg",NA,31172533,9241769,NA,"complete",NA,"64d9ff71624435bf2a23761d","computer","Desktop or Laptop","Windows 10","Chrome 115.0.0.0","1536x864","1536x707",NA,NA,0,"Video Feedback Task (Clone)",6,"CDBEAFJGIH",NA,"study_2 (video_feedback and feedback_list_2)","Feedback_ranking_L2_first",1,5,"Positive Feedback","Video","w2ir4b",1,"response","Proffesional sounded and well articulated
",26783.373,38533.161,38541.2189999881,26783.373,38533.161,38541.2189999881,1,26783.373,11757.8459999881,0,NA,"Text Entry","Text Entry",4,"object-19","Positive Feedback","P4_P.mp4","Screenshot 2023-06-30 at 15.00.42.png","Screenshot 2023-06-30 at 15.00.55.png",NA,"SUPPRF16300"
"40",1692006371949,"14/08/2023 09:46:11",1692009971949,1,"14/08/2023 11:46:11",140743,17,"task-f6fg",NA,31172533,9241769,NA,"complete",NA,"64d9ff71624435bf2a23761d","computer","Desktop or Laptop","Windows 10","Chrome 115.0.0.0","1536x864","1536x707",NA,NA,0,"Video Feedback Task (Clone)",6,"CDBEAFJGIH",NA,"study_2 (video_feedback and feedback_list_2)","Feedback_ranking_L2_first",1,5,"Positive Feedback","Video","w2ir4b",1,"response","Nice explanation. ",4433.38999999996,38533.161,38541.519,4433.38999999996,38533.161,38541.519,1,4433.38999999996,34108.129,0,NA,"Text Entry","Text Entry",5,"object-20","Positive Feedback","P4_P.mp4","Screenshot 2023-06-30 at 15.00.42.png","Screenshot 2023-06-30 at 15.00.55.png",NA,"SUPPRF16300"
"41",1692006372908,"14/08/2023 09:46:12",1692009972908,1,"14/08/2023 11:46:12",140743,17,"task-f6fg",NA,31172533,9241769,NA,"complete",NA,"64d9ff71624435bf2a23761d","computer","Desktop or Laptop","Windows 10","Chrome 115.0.0.0","1536x864","1536x707",NA,NA,0,"Video Feedback Task (Clone)",6,"CDBEAFJGIH",NA,"study_2 (video_feedback and feedback_list_2)","Feedback_ranking_L2_first",1,5,"Positive Feedback","Fixation","mtm832",2,"continue","",966.760000000009,966.760000000009,966.760000000009,966.760000000009,966.760000000009,966.760000000009,1,966.760000000009,0,0,NA,"Fixation Timing","Fixation",1,"object-65","Positive Feedback","P4_P.mp4","Screenshot 2023-06-30 at 15.00.42.png","Screenshot 2023-06-30 at 15.00.55.png",NA,"SUPPRF16300"
"42",1692006372913,"14/08/2023 09:46:12",1692009972913,1,"14/08/2023 11:46:12",140743,17,"task-f6fg",NA,31172533,9241769,NA,"complete",NA,"64d9ff71624435bf2a23761d","computer","Desktop or Laptop","Windows 10","Chrome 115.0.0.0","1536x864","1536x707",NA,NA,0,"Video Feedback Task (Clone)",6,"CDBEAFJGIH",NA,"study_2 (video_feedback and feedback_list_2)","Feedback_ranking_L2_first",1,NA,"","","",NA,"5","END",NA,NA,NA,NA,NA,NA,0,NA,NA,NA,NA,"","",NA,"","","","","",NA,"SUPPRF16300"
"1",1692007096848,"14/08/2023 09:58:16",1692010696848,1,"14/08/2023 11:58:16",140743,17,"task-f6fg",NA,31172915,9241755,NA,"complete",NA,"64d9ff59202825d1e987df74","tablet","Apple iPad","iOS 16.5","Chrome 115.0.5790.160","810x1080","1080x695",NA,NA,0,"Video Feedback Task (Clone)",6,"ABJCIDHEGF",NA,"study_2 (video_feedback and feedback_list_2)","Feedback_ranking_L2_first",1,NA,"","","",NA,"5","BEGIN",NA,NA,NA,NA,NA,NA,0,NA,NA,NA,NA,"","",NA,"","","","","",NA,"SUPPRF13097"
"2",1692007141654,"14/08/2023 09:59:01",1692010741654,1,"14/08/2023 11:59:01",140743,17,"task-f6fg",NA,31172915,9241755,NA,"complete",NA,"64d9ff59202825d1e987df74","tablet","Apple iPad","iOS 16.5","Chrome 115.0.5790.160","810x1080","1080x695",NA,NA,0,"Video Feedback Task (Clone)",6,"ABJCIDHEGF",NA,"study_2 (video_feedback and feedback_list_2)","Feedback_ranking_L2_first",1,1,"Neutral Feedback","Screen 1","3zrml3",1,"continue","",44804,44788,44804,44804,44788,44804,1,44804,0,0,NA,"Click To Continue","Continue Button",1,"object-155","Neutral Feedback","P2_N.mp4","Screenshot 2023-06-30 at 15.01.08.png","Screenshot 2023-06-30 at 15.00.55.png",NA,"SUPPRF13097"
"3",1692007141658,"14/08/2023 09:59:01",1692010741658,1,"14/08/2023 11:59:01",140743,17,"task-f6fg",NA,31172915,9241755,NA,"complete",NA,"64d9ff59202825d1e987df74","tablet","Apple iPad","iOS 16.5","Chrome 115.0.5790.160","810x1080","1080x695",NA,NA,0,"Video Feedback Task (Clone)",6,"ABJCIDHEGF",NA,"study_2 (video_feedback and feedback_list_2)","Feedback_ranking_L2_first",1,1,"Neutral Feedback","Screen 1","3zrml3",1,"response","i understood the scene she described",34285,44788,44804,34285,44788,44804,1,34285,10519,0,NA,"Text Entry","Text Entry",4,"object-158","Neutral Feedback","P2_N.mp4","Screenshot 2023-06-30 at 15.01.08.png","Screenshot 2023-06-30 at 15.00.55.png",NA,"SUPPRF13097"
"4",1692007141658,"14/08/2023 09:59:01",1692010741658,1,"14/08/2023 11:59:01",140743,17,"task-f6fg",NA,31172915,9241755,NA,"complete",NA,"64d9ff59202825d1e987df74","tablet","Apple iPad","iOS 16.5","Chrome 115.0.5790.160","810x1080","1080x695",NA,NA,0,"Video Feedback Task (Clone)",6,"ABJCIDHEGF",NA,"study_2 (video_feedback and feedback_list_2)","Feedback_ranking_L2_first",1,1,"Neutral Feedback","Screen 1","3zrml3",1,"response","she was decent ",13892,44788,44804,13892,44788,44804,1,13892,30912,0,NA,"Text Entry","Text Entry",5,"object-159","Neutral Feedback","P2_N.mp4","Screenshot 2023-06-30 at 15.01.08.png","Screenshot 2023-06-30 at 15.00.55.png",NA,"SUPPRF13097"
"5",1692007142599,"14/08/2023 09:59:02",1692010742599,1,"14/08/2023 11:59:02",140743,17,"task-f6fg",NA,31172915,9241755,NA,"complete",NA,"64d9ff59202825d1e987df74","tablet","Apple iPad","iOS 16.5","Chrome 115.0.5790.160","810x1080","1080x695",NA,NA,0,"Video Feedback Task (Clone)",6,"ABJCIDHEGF",NA,"study_2 (video_feedback and feedback_list_2)","Feedback_ranking_L2_first",1,1,"Neutral Feedback","Screen 2","vv4mhq",2,"continue","",967,967,967,967,967,967,1,967,0,0,NA,"Fixation Timing","Fixation",1,"object-153","Neutral Feedback","P2_N.mp4","Screenshot 2023-06-30 at 15.01.08.png","Screenshot 2023-06-30 at 15.00.55.png",NA,"SUPPRF13097"
"6",1692007185614,"14/08/2023 09:59:45",1692010785614,1,"14/08/2023 11:59:45",140743,17,"task-f6fg",NA,31172915,9241755,NA,"complete",NA,"64d9ff59202825d1e987df74","tablet","Apple iPad","iOS 16.5","Chrome 115.0.5790.160","810x1080","1080x695",NA,NA,0,"Video Feedback Task (Clone)",6,"ABJCIDHEGF",NA,"study_2 (video_feedback and feedback_list_2)","Feedback_ranking_L2_first",1,1,"Positive Feedback","Video","w2ir4b",1,"continue","",43002,42986,43002,43002,42986,43002,1,43002,0,0,NA,"Click To Continue","Continue Button",1,"object-14","Positive Feedback","P5_P.mp4","Screenshot 2023-06-30 at 15.01.08.png","Screenshot 2023-06-30 at 15.00.55.png",NA,"SUPPRF13097"
"7",1692007185622,"14/08/2023 09:59:45",1692010785622,1,"14/08/2023 11:59:45",140743,17,"task-f6fg",NA,31172915,9241755,NA,"complete",NA,"64d9ff59202825d1e987df74","tablet","Apple iPad","iOS 16.5","Chrome 115.0.5790.160","810x1080","1080x695",NA,NA,0,"Video Feedback Task (Clone)",6,"ABJCIDHEGF",NA,"study_2 (video_feedback and feedback_list_2)","Feedback_ranking_L2_first",1,1,"Positive Feedback","Video","w2ir4b",1,"response","she appearedconfident",30965,42986,43002,30965,42986,43002,1,30965,12037,0,NA,"Text Entry","Text Entry",4,"object-19","Positive Feedback","P5_P.mp4","Screenshot 2023-06-30 at 15.01.08.png","Screenshot 2023-06-30 at 15.00.55.png",NA,"SUPPRF13097"
"8",1692007185623,"14/08/2023 09:59:45",1692010785623,1,"14/08/2023 11:59:45",140743,17,"task-f6fg",NA,31172915,9241755,NA,"complete",NA,"64d9ff59202825d1e987df74","tablet","Apple iPad","iOS 16.5","Chrome 115.0.5790.160","810x1080","1080x695",NA,NA,0,"Video Feedback Task (Clone)",6,"ABJCIDHEGF",NA,"study_2 (video_feedback and feedback_list_2)","Feedback_ranking_L2_first",1,1,"Positive Feedback","Video","w2ir4b",1,"response","she engaged well",13472,42986,43002,13472,42986,43002,1,13472,29530,0,NA,"Text Entry","Text Entry",5,"object-20","Positive Feedback","P5_P.mp4","Screenshot 2023-06-30 at 15.01.08.png","Screenshot 2023-06-30 at 15.00.55.png",NA,"SUPPRF13097"
"9",1692007186552,"14/08/2023 09:59:46",1692010786552,1,"14/08/2023 11:59:46",140743,17,"task-f6fg",NA,31172915,9241755,NA,"complete",NA,"64d9ff59202825d1e987df74","tablet","Apple iPad","iOS 16.5","Chrome 115.0.5790.160","810x1080","1080x695",NA,NA,0,"Video Feedback Task (Clone)",6,"ABJCIDHEGF",NA,"study_2 (video_feedback and feedback_list_2)","Feedback_ranking_L2_first",1,1,"Positive Feedback","Fixation","mtm832",2,"continue","",967,967,967,967,967,967,1,967,0,0,NA,"Fixation Timing","Fixation",1,"object-65","Positive Feedback","P5_P.mp4","Screenshot 2023-06-30 at 15.01.08.png","Screenshot 2023-06-30 at 15.00.55.png",NA,"SUPPRF13097"
"10",1692007236023,"14/08/2023 10:00:36",1692010836023,1,"14/08/2023 12:00:36",140743,17,"task-f6fg",NA,31172915,9241755,NA,"complete",NA,"64d9ff59202825d1e987df74","tablet","Apple iPad","iOS 16.5","Chrome 115.0.5790.160","810x1080","1080x695",NA,NA,0,"Video Feedback Task (Clone)",6,"ABJCIDHEGF",NA,"study_2 (video_feedback and feedback_list_2)","Feedback_ranking_L2_first",1,2,"Positive Feedback","Video","w2ir4b",1,"continue","",49466,49450,49466,49466,49450,49466,1,49466,0,0,NA,"Click To Continue","Continue Button",1,"object-14","Positive Feedback","P2_P.mp4","Screenshot 2023-06-30 at 15.00.42.png","Screenshot 2023-06-30 at 15.02.01.png",NA,"SUPPRF13097"
"11",1692007236029,"14/08/2023 10:00:36",1692010836029,1,"14/08/2023 12:00:36",140743,17,"task-f6fg",NA,31172915,9241755,NA,"complete",NA,"64d9ff59202825d1e987df74","tablet","Apple iPad","iOS 16.5","Chrome 115.0.5790.160","810x1080","1080x695",NA,NA,0,"Video Feedback Task (Clone)",6,"ABJCIDHEGF",NA,"study_2 (video_feedback and feedback_list_2)","Feedback_ranking_L2_first",1,2,"Positive Feedback","Video","w2ir4b",1,"response","perfect!",43193,49450,49466,43193,49450,49466,1,43193,6273,0,NA,"Text Entry","Text Entry",4,"object-19","Positive Feedback","P2_P.mp4","Screenshot 2023-06-30 at 15.00.42.png","Screenshot 2023-06-30 at 15.02.01.png",NA,"SUPPRF13097"
"12",1692007236029,"14/08/2023 10:00:36",1692010836029,1,"14/08/2023 12:00:36",140743,17,"task-f6fg",NA,31172915,9241755,NA,"complete",NA,"64d9ff59202825d1e987df74","tablet","Apple iPad","iOS 16.5","Chrome 115.0.5790.160","810x1080","1080x695",NA,NA,0,"Video Feedback Task (Clone)",6,"ABJCIDHEGF",NA,"study_2 (video_feedback and feedback_list_2)","Feedback_ranking_L2_first",1,2,"Positive Feedback","Video","w2ir4b",1,"response","she was extremely descriptive",26358,49450,49466,26358,49450,49466,1,26358,23108,0,NA,"Text Entry","Text Entry",5,"object-20","Positive Feedback","P2_P.mp4","Screenshot 2023-06-30 at 15.00.42.png","Screenshot 2023-06-30 at 15.02.01.png",NA,"SUPPRF13097"
"13",1692007236969,"14/08/2023 10:00:36",1692010836969,1,"14/08/2023 12:00:36",140743,17,"task-f6fg",NA,31172915,9241755,NA,"complete",NA,"64d9ff59202825d1e987df74","tablet","Apple iPad","iOS 16.5","Chrome 115.0.5790.160","810x1080","1080x695",NA,NA,0,"Video Feedback Task (Clone)",6,"ABJCIDHEGF",NA,"study_2 (video_feedback and feedback_list_2)","Feedback_ranking_L2_first",1,2,"Positive Feedback","Fixation","mtm832",2,"continue","",967,967,967,967,967,967,1,967,0,0,NA,"Fixation Timing","Fixation",1,"object-65","Positive Feedback","P2_P.mp4","Screenshot 2023-06-30 at 15.00.42.png","Screenshot 2023-06-30 at 15.02.01.png",NA,"SUPPRF13097"
"14",1692007262632,"14/08/2023 10:01:02",1692010862632,1,"14/08/2023 12:01:02",140743,17,"task-f6fg",NA,31172915,9241755,NA,"complete",NA,"64d9ff59202825d1e987df74","tablet","Apple iPad","iOS 16.5","Chrome 115.0.5790.160","810x1080","1080x695",NA,NA,0,"Video Feedback Task (Clone)",6,"ABJCIDHEGF",NA,"study_2 (video_feedback and feedback_list_2)","Feedback_ranking_L2_first",1,2,"Neutral Feedback","Screen 1","3zrml3",1,"continue","",25659,25642,25659,25659,25642,25659,1,25659,0,0,NA,"Click To Continue","Continue Button",1,"object-155","Neutral Feedback","P3_N.mp4","Screenshot 2023-06-30 at 15.00.42.png","Screenshot 2023-06-30 at 15.00.55.png",NA,"SUPPRF13097"
"15",1692007262637,"14/08/2023 10:01:02",1692010862637,1,"14/08/2023 12:01:02",140743,17,"task-f6fg",NA,31172915,9241755,NA,"complete",NA,"64d9ff59202825d1e987df74","tablet","Apple iPad","iOS 16.5","Chrome 115.0.5790.160","810x1080","1080x695",NA,NA,0,"Video Feedback Task (Clone)",6,"ABJCIDHEGF",NA,"study_2 (video_feedback and feedback_list_2)","Feedback_ranking_L2_first",1,2,"Neutral Feedback","Screen 1","3zrml3",1,"response","he did what was asked",15568,25642,25659,15568,25642,25659,1,15568,10091,0,NA,"Text Entry","Text Entry",4,"object-158","Neutral Feedback","P3_N.mp4","Screenshot 2023-06-30 at 15.00.42.png","Screenshot 2023-06-30 at 15.00.55.png",NA,"SUPPRF13097"
"16",1692007262637,"14/08/2023 10:01:02",1692010862637,1,"14/08/2023 12:01:02",140743,17,"task-f6fg",NA,31172915,9241755,NA,"complete",NA,"64d9ff59202825d1e987df74","tablet","Apple iPad","iOS 16.5","Chrome 115.0.5790.160","810x1080","1080x695",NA,NA,0,"Video Feedback Task (Clone)",6,"ABJCIDHEGF",NA,"study_2 (video_feedback and feedback_list_2)","Feedback_ranking_L2_first",1,2,"Neutral Feedback","Screen 1","3zrml3",1,"response","he did ok",6405,25642,25659,6405,25642,25659,1,6405,19254,0,NA,"Text Entry","Text Entry",5,"object-159","Neutral Feedback","P3_N.mp4","Screenshot 2023-06-30 at 15.00.42.png","Screenshot 2023-06-30 at 15.00.55.png",NA,"SUPPRF13097"
"17",1692007263577,"14/08/2023 10:01:03",1692010863577,1,"14/08/2023 12:01:03",140743,17,"task-f6fg",NA,31172915,9241755,NA,"complete",NA,"64d9ff59202825d1e987df74","tablet","Apple iPad","iOS 16.5","Chrome 115.0.5790.160","810x1080","1080x695",NA,NA,0,"Video Feedback Task (Clone)",6,"ABJCIDHEGF",NA,"study_2 (video_feedback and feedback_list_2)","Feedback_ranking_L2_first",1,2,"Neutral Feedback","Screen 2","vv4mhq",2,"continue","",966,966,966,966,966,966,1,966,0,0,NA,"Fixation Timing","Fixation",1,"object-153","Neutral Feedback","P3_N.mp4","Screenshot 2023-06-30 at 15.00.42.png","Screenshot 2023-06-30 at 15.00.55.png",NA,"SUPPRF13097"
"18",1692007319833,"14/08/2023 10:01:59",1692010919833,1,"14/08/2023 12:01:59",140743,17,"task-f6fg",NA,31172915,9241755,NA,"complete",NA,"64d9ff59202825d1e987df74","tablet","Apple iPad","iOS 16.5","Chrome 115.0.5790.160","810x1080","1080x695",NA,NA,0,"Video Feedback Task (Clone)",6,"ABJCIDHEGF",NA,"study_2 (video_feedback and feedback_list_2)","Feedback_ranking_L2_first",1,3,"Positive Feedback","Video","w2ir4b",1,"continue","",56249,56232,56249,56249,56232,56249,1,56249,0,0,NA,"Click To Continue","Continue Button",1,"object-14","Positive Feedback","P1_P.mp4","Screenshot 2023-06-30 at 15.01.08.png","Screenshot 2023-06-30 at 15.00.55.png",NA,"SUPPRF13097"
"19",1692007319840,"14/08/2023 10:01:59",1692010919840,1,"14/08/2023 12:01:59",140743,17,"task-f6fg",NA,31172915,9241755,NA,"complete",NA,"64d9ff59202825d1e987df74","tablet","Apple iPad","iOS 16.5","Chrome 115.0.5790.160","810x1080","1080x695",NA,NA,0,"Video Feedback Task (Clone)",6,"ABJCIDHEGF",NA,"study_2 (video_feedback and feedback_list_2)","Feedback_ranking_L2_first",1,3,"Positive Feedback","Video","w2ir4b",1,"response","she appears confident",39196,56232,56249,39196,56232,56249,1,39196,17053,0,NA,"Text Entry","Text Entry",4,"object-19","Positive Feedback","P1_P.mp4","Screenshot 2023-06-30 at 15.01.08.png","Screenshot 2023-06-30 at 15.00.55.png",NA,"SUPPRF13097"
"20",1692007319841,"14/08/2023 10:01:59",1692010919841,1,"14/08/2023 12:01:59",140743,17,"task-f6fg",NA,31172915,9241755,NA,"complete",NA,"64d9ff59202825d1e987df74","tablet","Apple iPad","iOS 16.5","Chrome 115.0.5790.160","810x1080","1080x695",NA,NA,0,"Video Feedback Task (Clone)",6,"ABJCIDHEGF",NA,"study_2 (video_feedback and feedback_list_2)","Feedback_ranking_L2_first",1,3,"Positive Feedback","Video","w2ir4b",1,"response","her description was excellent",15721,56232,56249,15721,56232,56249,1,15721,40528,0,NA,"Text Entry","Text Entry",5,"object-20","Positive Feedback","P1_P.mp4","Screenshot 2023-06-30 at 15.01.08.png","Screenshot 2023-06-30 at 15.00.55.png",NA,"SUPPRF13097"
"21",1692007320776,"14/08/2023 10:02:00",1692010920776,1,"14/08/2023 12:02:00",140743,17,"task-f6fg",NA,31172915,9241755,NA,"complete",NA,"64d9ff59202825d1e987df74","tablet","Apple iPad","iOS 16.5","Chrome 115.0.5790.160","810x1080","1080x695",NA,NA,0,"Video Feedback Task (Clone)",6,"ABJCIDHEGF",NA,"study_2 (video_feedback and feedback_list_2)","Feedback_ranking_L2_first",1,3,"Positive Feedback","Fixation","mtm832",2,"continue","",966,966,966,966,966,966,1,966,0,0,NA,"Fixation Timing","Fixation",1,"object-65","Positive Feedback","P1_P.mp4","Screenshot 2023-06-30 at 15.01.08.png","Screenshot 2023-06-30 at 15.00.55.png",NA,"SUPPRF13097"
"22",1692007375123,"14/08/2023 10:02:55",1692010975123,1,"14/08/2023 12:02:55",140743,17,"task-f6fg",NA,31172915,9241755,NA,"complete",NA,"64d9ff59202825d1e987df74","tablet","Apple iPad","iOS 16.5","Chrome 115.0.5790.160","810x1080","1080x695",NA,NA,0,"Video Feedback Task (Clone)",6,"ABJCIDHEGF",NA,"study_2 (video_feedback and feedback_list_2)","Feedback_ranking_L2_first",1,3,"Neutral Feedback","Screen 1","3zrml3",1,"continue","",54332,54316,54332,54332,54316,54332,1,54332,0,0,NA,"Click To Continue","Continue Button",1,"object-155","Neutral Feedback","P4_N.mp4","Screenshot 2023-06-30 at 15.00.42.png","Screenshot 2023-06-30 at 15.02.01.png",NA,"SUPPRF13097"
"23",1692007375134,"14/08/2023 10:02:55",1692010975134,1,"14/08/2023 12:02:55",140743,17,"task-f6fg",NA,31172915,9241755,NA,"complete",NA,"64d9ff59202825d1e987df74","tablet","Apple iPad","iOS 16.5","Chrome 115.0.5790.160","810x1080","1080x695",NA,NA,0,"Video Feedback Task (Clone)",6,"ABJCIDHEGF",NA,"study_2 (video_feedback and feedback_list_2)","Feedback_ranking_L2_first",1,3,"Neutral Feedback","Screen 1","3zrml3",1,"response","you handled the task appropriatly ",28025,54316,54332,28025,54316,54332,1,28025,26307,0,NA,"Text Entry","Text Entry",4,"object-158","Neutral Feedback","P4_N.mp4","Screenshot 2023-06-30 at 15.00.42.png","Screenshot 2023-06-30 at 15.02.01.png",NA,"SUPPRF13097"
"24",1692007375135,"14/08/2023 10:02:55",1692010975135,1,"14/08/2023 12:02:55",140743,17,"task-f6fg",NA,31172915,9241755,NA,"complete",NA,"64d9ff59202825d1e987df74","tablet","Apple iPad","iOS 16.5","Chrome 115.0.5790.160","810x1080","1080x695",NA,NA,0,"Video Feedback Task (Clone)",6,"ABJCIDHEGF",NA,"study_2 (video_feedback and feedback_list_2)","Feedback_ranking_L2_first",1,3,"Neutral Feedback","Screen 1","3zrml3",1,"response","well done",22565,54316,54332,22565,54316,54332,1,22565,31767,0,NA,"Text Entry","Text Entry",5,"object-159","Neutral Feedback","P4_N.mp4","Screenshot 2023-06-30 at 15.00.42.png","Screenshot 2023-06-30 at 15.02.01.png",NA,"SUPPRF13097"
"25",1692007376059,"14/08/2023 10:02:56",1692010976059,1,"14/08/2023 12:02:56",140743,17,"task-f6fg",NA,31172915,9241755,NA,"complete",NA,"64d9ff59202825d1e987df74","tablet","Apple iPad","iOS 16.5","Chrome 115.0.5790.160","810x1080","1080x695",NA,NA,0,"Video Feedback Task (Clone)",6,"ABJCIDHEGF",NA,"study_2 (video_feedback and feedback_list_2)","Feedback_ranking_L2_first",1,3,"Neutral Feedback","Screen 2","vv4mhq",2,"continue","",967,967,967,967,967,967,1,967,0,0,NA,"Fixation Timing","Fixation",1,"object-153","Neutral Feedback","P4_N.mp4","Screenshot 2023-06-30 at 15.00.42.png","Screenshot 2023-06-30 at 15.02.01.png",NA,"SUPPRF13097"
"26",1692007420390,"14/08/2023 10:03:40",1692011020390,1,"14/08/2023 12:03:40",140743,17,"task-f6fg",NA,31172915,9241755,NA,"complete",NA,"64d9ff59202825d1e987df74","tablet","Apple iPad","iOS 16.5","Chrome 115.0.5790.160","810x1080","1080x695",NA,NA,0,"Video Feedback Task (Clone)",6,"ABJCIDHEGF",NA,"study_2 (video_feedback and feedback_list_2)","Feedback_ranking_L2_first",1,4,"Positive Feedback","Video","w2ir4b",1,"continue","",44318,44302,44318,44318,44302,44318,1,44318,0,0,NA,"Click To Continue","Continue Button",1,"object-14","Positive Feedback","P3_P.mp4","Screenshot 2023-06-30 at 15.01.08.png","Screenshot 2023-06-30 at 15.00.55.png",NA,"SUPPRF13097"
"27",1692007420397,"14/08/2023 10:03:40",1692011020397,1,"14/08/2023 12:03:40",140743,17,"task-f6fg",NA,31172915,9241755,NA,"complete",NA,"64d9ff59202825d1e987df74","tablet","Apple iPad","iOS 16.5","Chrome 115.0.5790.160","810x1080","1080x695",NA,NA,0,"Video Feedback Task (Clone)",6,"ABJCIDHEGF",NA,"study_2 (video_feedback and feedback_list_2)","Feedback_ranking_L2_first",1,4,"Positive Feedback","Video","w2ir4b",1,"response","he appears smart and articulate",32507,44302,44318,32507,44302,44318,1,32507,11811,0,NA,"Text Entry","Text Entry",4,"object-19","Positive Feedback","P3_P.mp4","Screenshot 2023-06-30 at 15.01.08.png","Screenshot 2023-06-30 at 15.00.55.png",NA,"SUPPRF13097"
"28",1692007420398,"14/08/2023 10:03:40",1692011020398,1,"14/08/2023 12:03:40",140743,17,"task-f6fg",NA,31172915,9241755,NA,"complete",NA,"64d9ff59202825d1e987df74","tablet","Apple iPad","iOS 16.5","Chrome 115.0.5790.160","810x1080","1080x695",NA,NA,0,"Video Feedback Task (Clone)",6,"ABJCIDHEGF",NA,"study_2 (video_feedback and feedback_list_2)","Feedback_ranking_L2_first",1,4,"Positive Feedback","Video","w2ir4b",1,"response","very descriptive account",11713,44302,44318,11713,44302,44318,1,11713,32605,0,NA,"Text Entry","Text Entry",5,"object-20","Positive Feedback","P3_P.mp4","Screenshot 2023-06-30 at 15.01.08.png","Screenshot 2023-06-30 at 15.00.55.png",NA,"SUPPRF13097"
"29",1692007421327,"14/08/2023 10:03:41",1692011021327,1,"14/08/2023 12:03:41",140743,17,"task-f6fg",NA,31172915,9241755,NA,"complete",NA,"64d9ff59202825d1e987df74","tablet","Apple iPad","iOS 16.5","Chrome 115.0.5790.160","810x1080","1080x695",NA,NA,0,"Video Feedback Task (Clone)",6,"ABJCIDHEGF",NA,"study_2 (video_feedback and feedback_list_2)","Feedback_ranking_L2_first",1,4,"Positive Feedback","Fixation","mtm832",2,"continue","",967,967,967,967,967,967,1,967,0,0,NA,"Fixation Timing","Fixation",1,"object-65","Positive Feedback","P3_P.mp4","Screenshot 2023-06-30 at 15.01.08.png","Screenshot 2023-06-30 at 15.00.55.png",NA,"SUPPRF13097"
"30",1692007460146,"14/08/2023 10:04:20",1692011060146,1,"14/08/2023 12:04:20",140743,17,"task-f6fg",NA,31172915,9241755,NA,"complete",NA,"64d9ff59202825d1e987df74","tablet","Apple iPad","iOS 16.5","Chrome 115.0.5790.160","810x1080","1080x695",NA,NA,0,"Video Feedback Task (Clone)",6,"ABJCIDHEGF",NA,"study_2 (video_feedback and feedback_list_2)","Feedback_ranking_L2_first",1,4,"Neutral Feedback","Screen 1","3zrml3",1,"continue","",38804,38787,38804,38804,38787,38804,1,38804,0,0,NA,"Click To Continue","Continue Button",1,"object-155","Neutral Feedback","P5_N.mp4","Screenshot 2023-06-30 at 15.00.42.png","Screenshot 2023-06-30 at 15.02.01.png",NA,"SUPPRF13097"
"31",1692007460155,"14/08/2023 10:04:20",1692011060155,1,"14/08/2023 12:04:20",140743,17,"task-f6fg",NA,31172915,9241755,NA,"complete",NA,"64d9ff59202825d1e987df74","tablet","Apple iPad","iOS 16.5","Chrome 115.0.5790.160","810x1080","1080x695",NA,NA,0,"Video Feedback Task (Clone)",6,"ABJCIDHEGF",NA,"study_2 (video_feedback and feedback_list_2)","Feedback_ranking_L2_first",1,4,"Neutral Feedback","Screen 1","3zrml3",1,"response","does not appear confident",29974,38787,38804,29974,38787,38804,1,29974,8830,0,NA,"Text Entry","Text Entry",4,"object-158","Neutral Feedback","P5_N.mp4","Screenshot 2023-06-30 at 15.00.42.png","Screenshot 2023-06-30 at 15.02.01.png",NA,"SUPPRF13097"
"32",1692007460156,"14/08/2023 10:04:20",1692011060156,1,"14/08/2023 12:04:20",140743,17,"task-f6fg",NA,31172915,9241755,NA,"complete",NA,"64d9ff59202825d1e987df74","tablet","Apple iPad","iOS 16.5","Chrome 115.0.5790.160","810x1080","1080x695",NA,NA,0,"Video Feedback Task (Clone)",6,"ABJCIDHEGF",NA,"study_2 (video_feedback and feedback_list_2)","Feedback_ranking_L2_first",1,4,"Neutral Feedback","Screen 1","3zrml3",1,"response","she did well",12112,38787,38804,12112,38787,38804,1,12112,26692,0,NA,"Text Entry","Text Entry",5,"object-159","Neutral Feedback","P5_N.mp4","Screenshot 2023-06-30 at 15.00.42.png","Screenshot 2023-06-30 at 15.02.01.png",NA,"SUPPRF13097"
"33",1692007461082,"14/08/2023 10:04:21",1692011061082,1,"14/08/2023 12:04:21",140743,17,"task-f6fg",NA,31172915,9241755,NA,"complete",NA,"64d9ff59202825d1e987df74","tablet","Apple iPad","iOS 16.5","Chrome 115.0.5790.160","810x1080","1080x695",NA,NA,0,"Video Feedback Task (Clone)",6,"ABJCIDHEGF",NA,"study_2 (video_feedback and feedback_list_2)","Feedback_ranking_L2_first",1,4,"Neutral Feedback","Screen 2","vv4mhq",2,"continue","",967,967,967,967,967,967,1,967,0,0,NA,"Fixation Timing","Fixation",1,"object-153","Neutral Feedback","P5_N.mp4","Screenshot 2023-06-30 at 15.00.42.png","Screenshot 2023-06-30 at 15.02.01.png",NA,"SUPPRF13097"
"34",1692007564994,"14/08/2023 10:06:04",1692011164994,1,"14/08/2023 12:06:04",140743,17,"task-f6fg",NA,31172915,9241755,NA,"complete",NA,"64d9ff59202825d1e987df74","tablet","Apple iPad","iOS 16.5","Chrome 115.0.5790.160","810x1080","1080x695",NA,NA,0,"Video Feedback Task (Clone)",6,"ABJCIDHEGF",NA,"study_2 (video_feedback and feedback_list_2)","Feedback_ranking_L2_first",1,5,"Neutral Feedback","Screen 1","3zrml3",1,"continue","",103900,103883,103900,103900,103883,103900,1,103900,0,0,NA,"Click To Continue","Continue Button",1,"object-155","Neutral Feedback","P1_N.mp4","Screenshot 2023-06-30 at 15.00.42.png","Screenshot 2023-06-30 at 15.02.01.png",NA,"SUPPRF13097"
"35",1692007565004,"14/08/2023 10:06:05",1692011165004,1,"14/08/2023 12:06:05",140743,17,"task-f6fg",NA,31172915,9241755,NA,"complete",NA,"64d9ff59202825d1e987df74","tablet","Apple iPad","iOS 16.5","Chrome 115.0.5790.160","810x1080","1080x695",NA,NA,0,"Video Feedback Task (Clone)",6,"ABJCIDHEGF",NA,"study_2 (video_feedback and feedback_list_2)","Feedback_ranking_L2_first",1,5,"Neutral Feedback","Screen 1","3zrml3",1,"response","satisfactory performance",95121,103883,103900,95121,103883,103900,1,95121,8779,0,NA,"Text Entry","Text Entry",4,"object-158","Neutral Feedback","P1_N.mp4","Screenshot 2023-06-30 at 15.00.42.png","Screenshot 2023-06-30 at 15.02.01.png",NA,"SUPPRF13097"
"36",1692007565004,"14/08/2023 10:06:05",1692011165004,1,"14/08/2023 12:06:05",140743,17,"task-f6fg",NA,31172915,9241755,NA,"complete",NA,"64d9ff59202825d1e987df74","tablet","Apple iPad","iOS 16.5","Chrome 115.0.5790.160","810x1080","1080x695",NA,NA,0,"Video Feedback Task (Clone)",6,"ABJCIDHEGF",NA,"study_2 (video_feedback and feedback_list_2)","Feedback_ranking_L2_first",1,5,"Neutral Feedback","Screen 1","3zrml3",1,"response","she described the picture adequatly",28962,103883,103900,28962,103883,103900,1,28962,74938,0,NA,"Text Entry","Text Entry",5,"object-159","Neutral Feedback","P1_N.mp4","Screenshot 2023-06-30 at 15.00.42.png","Screenshot 2023-06-30 at 15.02.01.png",NA,"SUPPRF13097"
"37",1692007565932,"14/08/2023 10:06:05",1692011165932,1,"14/08/2023 12:06:05",140743,17,"task-f6fg",NA,31172915,9241755,NA,"complete",NA,"64d9ff59202825d1e987df74","tablet","Apple iPad","iOS 16.5","Chrome 115.0.5790.160","810x1080","1080x695",NA,NA,0,"Video Feedback Task (Clone)",6,"ABJCIDHEGF",NA,"study_2 (video_feedback and feedback_list_2)","Feedback_ranking_L2_first",1,5,"Neutral Feedback","Screen 2","vv4mhq",2,"continue","",967,967,967,967,967,967,1,967,0,0,NA,"Fixation Timing","Fixation",1,"object-153","Neutral Feedback","P1_N.mp4","Screenshot 2023-06-30 at 15.00.42.png","Screenshot 2023-06-30 at 15.02.01.png",NA,"SUPPRF13097"
"38",1692007599557,"14/08/2023 10:06:39",1692011199557,1,"14/08/2023 12:06:39",140743,17,"task-f6fg",NA,31172915,9241755,NA,"complete",NA,"64d9ff59202825d1e987df74","tablet","Apple iPad","iOS 16.5","Chrome 115.0.5790.160","810x1080","1080x695",NA,NA,0,"Video Feedback Task (Clone)",6,"ABJCIDHEGF",NA,"study_2 (video_feedback and feedback_list_2)","Feedback_ranking_L2_first",1,5,"Positive Feedback","Video","w2ir4b",1,"continue","",33622,33605,33622,33622,33605,33622,1,33622,0,0,NA,"Click To Continue","Continue Button",1,"object-14","Positive Feedback","P4_P.mp4","Screenshot 2023-06-30 at 15.01.08.png","Screenshot 2023-06-30 at 15.02.01.png",NA,"SUPPRF13097"
"39",1692007599562,"14/08/2023 10:06:39",1692011199562,1,"14/08/2023 12:06:39",140743,17,"task-f6fg",NA,31172915,9241755,NA,"complete",NA,"64d9ff59202825d1e987df74","tablet","Apple iPad","iOS 16.5","Chrome 115.0.5790.160","810x1080","1080x695",NA,NA,0,"Video Feedback Task (Clone)",6,"ABJCIDHEGF",NA,"study_2 (video_feedback and feedback_list_2)","Feedback_ranking_L2_first",1,5,"Positive Feedback","Video","w2ir4b",1,"response","well done, you appear confident",22777,33605,33622,22777,33605,33622,1,22777,10845,0,NA,"Text Entry","Text Entry",4,"object-19","Positive Feedback","P4_P.mp4","Screenshot 2023-06-30 at 15.01.08.png","Screenshot 2023-06-30 at 15.02.01.png",NA,"SUPPRF13097"
"40",1692007599562,"14/08/2023 10:06:39",1692011199562,1,"14/08/2023 12:06:39",140743,17,"task-f6fg",NA,31172915,9241755,NA,"complete",NA,"64d9ff59202825d1e987df74","tablet","Apple iPad","iOS 16.5","Chrome 115.0.5790.160","810x1080","1080x695",NA,NA,0,"Video Feedback Task (Clone)",6,"ABJCIDHEGF",NA,"study_2 (video_feedback and feedback_list_2)","Feedback_ranking_L2_first",1,5,"Positive Feedback","Video","w2ir4b",1,"response","her description was excellent",7033,33605,33622,7033,33605,33622,1,7033,26589,0,NA,"Text Entry","Text Entry",5,"object-20","Positive Feedback","P4_P.mp4","Screenshot 2023-06-30 at 15.01.08.png","Screenshot 2023-06-30 at 15.02.01.png",NA,"SUPPRF13097"
"41",1692007600503,"14/08/2023 10:06:40",1692011200503,1,"14/08/2023 12:06:40",140743,17,"task-f6fg",NA,31172915,9241755,NA,"complete",NA,"64d9ff59202825d1e987df74","tablet","Apple iPad","iOS 16.5","Chrome 115.0.5790.160","810x1080","1080x695",NA,NA,0,"Video Feedback Task (Clone)",6,"ABJCIDHEGF",NA,"study_2 (video_feedback and feedback_list_2)","Feedback_ranking_L2_first",1,5,"Positive Feedback","Fixation","mtm832",2,"continue","",967,967,967,967,967,967,1,967,0,0,NA,"Fixation Timing","Fixation",1,"object-65","Positive Feedback","P4_P.mp4","Screenshot 2023-06-30 at 15.01.08.png","Screenshot 2023-06-30 at 15.02.01.png",NA,"SUPPRF13097"
"42",1692007600506,"14/08/2023 10:06:40",1692011200506,1,"14/08/2023 12:06:40",140743,17,"task-f6fg",NA,31172915,9241755,NA,"complete",NA,"64d9ff59202825d1e987df74","tablet","Apple iPad","iOS 16.5","Chrome 115.0.5790.160","810x1080","1080x695",NA,NA,0,"Video Feedback Task (Clone)",6,"ABJCIDHEGF",NA,"study_2 (video_feedback and feedback_list_2)","Feedback_ranking_L2_first",1,NA,"","","",NA,"5","END",NA,NA,NA,NA,NA,NA,0,NA,NA,NA,NA,"","",NA,"","","","","",NA,"SUPPRF13097"
"1",1692016159289,"14/08/2023 12:29:19",1692019759289,1,"14/08/2023 14:29:19",140743,17,"task-f6fg",NA,31175901,9242399,NA,"complete",NA,"64da217fbeca8340a86d1818","computer","Desktop or Laptop","Windows 10","Chrome 115.0.0.0","1920x1080","1920x963",NA,NA,0,"Video Feedback Task (Clone)",6,"CDBEAFJGIH",NA,"study_2 (video_feedback and feedback_list_2)","Feedback_ranking_L2_first",1,NA,"","","",NA,"5","BEGIN",NA,NA,NA,NA,NA,NA,0,NA,NA,NA,NA,"","",NA,"","","","","",NA,"SUPPRF27407"
"2",1692016185410,"14/08/2023 12:29:45",1692019785410,1,"14/08/2023 14:29:45",140743,17,"task-f6fg",NA,31175901,9242399,NA,"complete",NA,"64da217fbeca8340a86d1818","computer","Desktop or Laptop","Windows 10","Chrome 115.0.0.0","1920x1080","1920x963",NA,NA,0,"Video Feedback Task (Clone)",6,"CDBEAFJGIH",NA,"study_2 (video_feedback and feedback_list_2)","Feedback_ranking_L2_first",1,1,"Neutral Feedback","Screen 1","3zrml3",1,"continue","",25704.0749999996,25691.621,25704.0749999996,25704.0749999996,25691.621,25704.0749999996,1,25704.0749999996,0,0,NA,"Click To Continue","Continue Button",1,"object-155","Neutral Feedback","P2_N.mp4","Screenshot 2023-06-30 at 15.00.42.png","Screenshot 2023-06-30 at 15.00.55.png",NA,"SUPPRF27407"
"3",1692016185424,"14/08/2023 12:29:45",1692019785424,1,"14/08/2023 14:29:45",140743,17,"task-f6fg",NA,31175901,9242399,NA,"complete",NA,"64da217fbeca8340a86d1818","computer","Desktop or Laptop","Windows 10","Chrome 115.0.0.0","1920x1080","1920x963",NA,NA,0,"Video Feedback Task (Clone)",6,"CDBEAFJGIH",NA,"study_2 (video_feedback and feedback_list_2)","Feedback_ranking_L2_first",1,1,"Neutral Feedback","Screen 1","3zrml3",1,"response","you spoke very clearly",20219.495,25691.621,25708.304,20219.495,25691.621,25708.304,1,20219.495,5488.809,0,NA,"Text Entry","Text Entry",4,"object-158","Neutral Feedback","P2_N.mp4","Screenshot 2023-06-30 at 15.00.42.png","Screenshot 2023-06-30 at 15.00.55.png",NA,"SUPPRF27407"
"4",1692016185425,"14/08/2023 12:29:45",1692019785425,1,"14/08/2023 14:29:45",140743,17,"task-f6fg",NA,31175901,9242399,NA,"complete",NA,"64da217fbeca8340a86d1818","computer","Desktop or Laptop","Windows 10","Chrome 115.0.0.0","1920x1080","1920x963",NA,NA,0,"Video Feedback Task (Clone)",6,"CDBEAFJGIH",NA,"study_2 (video_feedback and feedback_list_2)","Feedback_ranking_L2_first",1,1,"Neutral Feedback","Screen 1","3zrml3",1,"response","you did okay.",12395.021,25691.621,25708.304,12395.021,25691.621,25708.304,1,12395.021,13313.283,0,NA,"Text Entry","Text Entry",5,"object-159","Neutral Feedback","P2_N.mp4","Screenshot 2023-06-30 at 15.00.42.png","Screenshot 2023-06-30 at 15.00.55.png",NA,"SUPPRF27407"
"5",1692016186365,"14/08/2023 12:29:46",1692019786365,1,"14/08/2023 14:29:46",140743,17,"task-f6fg",NA,31175901,9242399,NA,"complete",NA,"64da217fbeca8340a86d1818","computer","Desktop or Laptop","Windows 10","Chrome 115.0.0.0","1920x1080","1920x963",NA,NA,0,"Video Feedback Task (Clone)",6,"CDBEAFJGIH",NA,"study_2 (video_feedback and feedback_list_2)","Feedback_ranking_L2_first",1,1,"Neutral Feedback","Screen 2","vv4mhq",2,"continue","",967.626,967.626,967.626,967.626,967.626,967.626,1,967.626,0,0,NA,"Fixation Timing","Fixation",1,"object-153","Neutral Feedback","P2_N.mp4","Screenshot 2023-06-30 at 15.00.42.png","Screenshot 2023-06-30 at 15.00.55.png",NA,"SUPPRF27407"
"6",1692016209033,"14/08/2023 12:30:09",1692019809033,1,"14/08/2023 14:30:09",140743,17,"task-f6fg",NA,31175901,9242399,NA,"complete",NA,"64da217fbeca8340a86d1818","computer","Desktop or Laptop","Windows 10","Chrome 115.0.0.0","1920x1080","1920x963",NA,NA,0,"Video Feedback Task (Clone)",6,"CDBEAFJGIH",NA,"study_2 (video_feedback and feedback_list_2)","Feedback_ranking_L2_first",1,1,"Positive Feedback","Video","w2ir4b",1,"continue","",22668.228,22656.001,22668.228,22668.228,22656.001,22668.228,1,22668.228,0,0,NA,"Click To Continue","Continue Button",1,"object-14","Positive Feedback","P5_P.mp4","Screenshot 2023-06-30 at 15.01.08.png","Screenshot 2023-06-30 at 15.02.01.png",NA,"SUPPRF27407"
"7",1692016209041,"14/08/2023 12:30:09",1692019809041,1,"14/08/2023 14:30:09",140743,17,"task-f6fg",NA,31175901,9242399,NA,"complete",NA,"64da217fbeca8340a86d1818","computer","Desktop or Laptop","Windows 10","Chrome 115.0.0.0","1920x1080","1920x963",NA,NA,0,"Video Feedback Task (Clone)",6,"CDBEAFJGIH",NA,"study_2 (video_feedback and feedback_list_2)","Feedback_ranking_L2_first",1,1,"Positive Feedback","Video","w2ir4b",1,"response","came across very well",18551.895,22656.001,22672.684,18551.895,22656.001,22672.684,1,18551.895,4120.789,0,NA,"Text Entry","Text Entry",4,"object-19","Positive Feedback","P5_P.mp4","Screenshot 2023-06-30 at 15.01.08.png","Screenshot 2023-06-30 at 15.02.01.png",NA,"SUPPRF27407"
"8",1692016209042,"14/08/2023 12:30:09",1692019809042,1,"14/08/2023 14:30:09",140743,17,"task-f6fg",NA,31175901,9242399,NA,"complete",NA,"64da217fbeca8340a86d1818","computer","Desktop or Laptop","Windows 10","Chrome 115.0.0.0","1920x1080","1920x963",NA,NA,0,"Video Feedback Task (Clone)",6,"CDBEAFJGIH",NA,"study_2 (video_feedback and feedback_list_2)","Feedback_ranking_L2_first",1,1,"Positive Feedback","Video","w2ir4b",1,"response","you have a lot of good energy",10310.308,22656.001,22672.684,10310.308,22656.001,22672.684,1,10310.308,12362.376,0,NA,"Text Entry","Text Entry",5,"object-20","Positive Feedback","P5_P.mp4","Screenshot 2023-06-30 at 15.01.08.png","Screenshot 2023-06-30 at 15.02.01.png",NA,"SUPPRF27407"
"9",1692016209989,"14/08/2023 12:30:09",1692019809989,1,"14/08/2023 14:30:09",140743,17,"task-f6fg",NA,31175901,9242399,NA,"complete",NA,"64da217fbeca8340a86d1818","computer","Desktop or Laptop","Windows 10","Chrome 115.0.0.0","1920x1080","1920x963",NA,NA,0,"Video Feedback Task (Clone)",6,"CDBEAFJGIH",NA,"study_2 (video_feedback and feedback_list_2)","Feedback_ranking_L2_first",1,1,"Positive Feedback","Fixation","mtm832",2,"continue","",967.633999999998,967.633999999998,967.633999999998,967.633999999998,967.633999999998,967.633999999998,1,967.633999999998,0,0,NA,"Fixation Timing","Fixation",1,"object-65","Positive Feedback","P5_P.mp4","Screenshot 2023-06-30 at 15.01.08.png","Screenshot 2023-06-30 at 15.02.01.png",NA,"SUPPRF27407"
"10",1692016242344,"14/08/2023 12:30:42",1692019842344,1,"14/08/2023 14:30:42",140743,17,"task-f6fg",NA,31175901,9242399,NA,"complete",NA,"64da217fbeca8340a86d1818","computer","Desktop or Laptop","Windows 10","Chrome 115.0.0.0","1920x1080","1920x963",NA,NA,0,"Video Feedback Task (Clone)",6,"CDBEAFJGIH",NA,"study_2 (video_feedback and feedback_list_2)","Feedback_ranking_L2_first",1,2,"Positive Feedback","Video","w2ir4b",1,"continue","",32356.7930000002,32348.973,32356.7930000002,32356.7930000002,32348.973,32356.7930000002,1,32356.7930000002,0,0,NA,"Click To Continue","Continue Button",1,"object-14","Positive Feedback","P2_P.mp4","Screenshot 2023-06-30 at 15.00.42.png","Screenshot 2023-06-30 at 15.00.55.png",NA,"SUPPRF27407"
"11",1692016242349,"14/08/2023 12:30:42",1692019842349,1,"14/08/2023 14:30:42",140743,17,"task-f6fg",NA,31175901,9242399,NA,"complete",NA,"64da217fbeca8340a86d1818","computer","Desktop or Laptop","Windows 10","Chrome 115.0.0.0","1920x1080","1920x963",NA,NA,0,"Video Feedback Task (Clone)",6,"CDBEAFJGIH",NA,"study_2 (video_feedback and feedback_list_2)","Feedback_ranking_L2_first",1,2,"Positive Feedback","Video","w2ir4b",1,"response","that was very good",23423.399,32348.973,32362.3929999998,23423.399,32348.973,32362.3929999998,1,23423.399,8938.99399999982,0,NA,"Text Entry","Text Entry",4,"object-19","Positive Feedback","P2_P.mp4","Screenshot 2023-06-30 at 15.00.42.png","Screenshot 2023-06-30 at 15.00.55.png",NA,"SUPPRF27407"
"12",1692016242350,"14/08/2023 12:30:42",1692019842350,1,"14/08/2023 14:30:42",140743,17,"task-f6fg",NA,31175901,9242399,NA,"complete",NA,"64da217fbeca8340a86d1818","computer","Desktop or Laptop","Windows 10","Chrome 115.0.0.0","1920x1080","1920x963",NA,NA,0,"Video Feedback Task (Clone)",6,"CDBEAFJGIH",NA,"study_2 (video_feedback and feedback_list_2)","Feedback_ranking_L2_first",1,2,"Positive Feedback","Video","w2ir4b",1,"response","you were very descriptive and clear",15315.305,32348.973,32363.2930000002,15315.305,32348.973,32363.2930000002,1,15315.305,17047.9880000002,0,NA,"Text Entry","Text Entry",5,"object-20","Positive Feedback","P2_P.mp4","Screenshot 2023-06-30 at 15.00.42.png","Screenshot 2023-06-30 at 15.00.55.png",NA,"SUPPRF27407"
"13",1692016243304,"14/08/2023 12:30:43",1692019843304,1,"14/08/2023 14:30:43",140743,17,"task-f6fg",NA,31175901,9242399,NA,"complete",NA,"64da217fbeca8340a86d1818","computer","Desktop or Laptop","Windows 10","Chrome 115.0.0.0","1920x1080","1920x963",NA,NA,0,"Video Feedback Task (Clone)",6,"CDBEAFJGIH",NA,"study_2 (video_feedback and feedback_list_2)","Feedback_ranking_L2_first",1,2,"Positive Feedback","Fixation","mtm832",2,"continue","",967.646999999997,967.646999999997,967.646999999997,967.646999999997,967.646999999997,967.646999999997,1,967.646999999997,0,0,NA,"Fixation Timing","Fixation",1,"object-65","Positive Feedback","P2_P.mp4","Screenshot 2023-06-30 at 15.00.42.png","Screenshot 2023-06-30 at 15.00.55.png",NA,"SUPPRF27407"
"14",1692016271552,"14/08/2023 12:31:11",1692019871552,1,"14/08/2023 14:31:11",140743,17,"task-f6fg",NA,31175901,9242399,NA,"complete",NA,"64da217fbeca8340a86d1818","computer","Desktop or Laptop","Windows 10","Chrome 115.0.0.0","1920x1080","1920x963",NA,NA,0,"Video Feedback Task (Clone)",6,"CDBEAFJGIH",NA,"study_2 (video_feedback and feedback_list_2)","Feedback_ranking_L2_first",1,2,"Neutral Feedback","Screen 1","3zrml3",1,"continue","",28247.8730000004,28245.281,28247.8730000004,28247.8730000004,28245.281,28247.8730000004,1,28247.8730000004,0,0,NA,"Click To Continue","Continue Button",1,"object-155","Neutral Feedback","P3_N.mp4","Screenshot 2023-06-30 at 15.01.08.png","Screenshot 2023-06-30 at 15.00.55.png",NA,"SUPPRF27407"
"15",1692016271557,"14/08/2023 12:31:11",1692019871557,1,"14/08/2023 14:31:11",140743,17,"task-f6fg",NA,31175901,9242399,NA,"complete",NA,"64da217fbeca8340a86d1818","computer","Desktop or Laptop","Windows 10","Chrome 115.0.0.0","1920x1080","1920x963",NA,NA,0,"Video Feedback Task (Clone)",6,"CDBEAFJGIH",NA,"study_2 (video_feedback and feedback_list_2)","Feedback_ranking_L2_first",1,2,"Neutral Feedback","Screen 1","3zrml3",1,"response","that was not bad",13413.397,28245.281,28253.8730000004,13413.397,28245.281,28253.8730000004,1,13413.397,14840.4760000004,0,NA,"Text Entry","Text Entry",4,"object-158","Neutral Feedback","P3_N.mp4","Screenshot 2023-06-30 at 15.01.08.png","Screenshot 2023-06-30 at 15.00.55.png",NA,"SUPPRF27407"
"16",1692016271560,"14/08/2023 12:31:11",1692019871560,1,"14/08/2023 14:31:11",140743,17,"task-f6fg",NA,31175901,9242399,NA,"complete",NA,"64da217fbeca8340a86d1818","computer","Desktop or Laptop","Windows 10","Chrome 115.0.0.0","1920x1080","1920x963",NA,NA,0,"Video Feedback Task (Clone)",6,"CDBEAFJGIH",NA,"study_2 (video_feedback and feedback_list_2)","Feedback_ranking_L2_first",1,2,"Neutral Feedback","Screen 1","3zrml3",1,"response","that was decent",9542.86,28245.281,28256.6730000002,9542.86,28245.281,28256.6730000002,1,9542.86,18713.8130000002,0,NA,"Text Entry","Text Entry",5,"object-159","Neutral Feedback","P3_N.mp4","Screenshot 2023-06-30 at 15.01.08.png","Screenshot 2023-06-30 at 15.00.55.png",NA,"SUPPRF27407"
"17",1692016272518,"14/08/2023 12:31:12",1692019872518,1,"14/08/2023 14:31:12",140743,17,"task-f6fg",NA,31175901,9242399,NA,"complete",NA,"64da217fbeca8340a86d1818","computer","Desktop or Laptop","Windows 10","Chrome 115.0.0.0","1920x1080","1920x963",NA,NA,0,"Video Feedback Task (Clone)",6,"CDBEAFJGIH",NA,"study_2 (video_feedback and feedback_list_2)","Feedback_ranking_L2_first",1,2,"Neutral Feedback","Screen 2","vv4mhq",2,"continue","",967.240999999995,967.240999999995,967.240999999995,967.240999999995,967.240999999995,967.240999999995,1,967.240999999995,0,0,NA,"Fixation Timing","Fixation",1,"object-153","Neutral Feedback","P3_N.mp4","Screenshot 2023-06-30 at 15.01.08.png","Screenshot 2023-06-30 at 15.00.55.png",NA,"SUPPRF27407"
"18",1692016287414,"14/08/2023 12:31:27",1692019887414,1,"14/08/2023 14:31:27",140743,17,"task-f6fg",NA,31175901,9242399,NA,"complete",NA,"64da217fbeca8340a86d1818","computer","Desktop or Laptop","Windows 10","Chrome 115.0.0.0","1920x1080","1920x963",NA,NA,0,"Video Feedback Task (Clone)",6,"CDBEAFJGIH",NA,"study_2 (video_feedback and feedback_list_2)","Feedback_ranking_L2_first",1,3,"Positive Feedback","Video","w2ir4b",1,"continue","",14897.451,14881.556,14897.451,14897.451,14881.556,14897.451,1,14897.451,0,0,NA,"Click To Continue","Continue Button",1,"object-14","Positive Feedback","P1_P.mp4","Screenshot 2023-06-30 at 15.00.42.png","Screenshot 2023-06-30 at 15.00.55.png",NA,"SUPPRF27407"
"19",1692016287417,"14/08/2023 12:31:27",1692019887417,1,"14/08/2023 14:31:27",140743,17,"task-f6fg",NA,31175901,9242399,NA,"complete",NA,"64da217fbeca8340a86d1818","computer","Desktop or Laptop","Windows 10","Chrome 115.0.0.0","1920x1080","1920x963",NA,NA,0,"Video Feedback Task (Clone)",6,"CDBEAFJGIH",NA,"study_2 (video_feedback and feedback_list_2)","Feedback_ranking_L2_first",1,3,"Positive Feedback","Video","w2ir4b",1,"response","well done you done very well",10677.399,14881.556,14898.239,10677.399,14881.556,14898.239,1,10677.399,4220.83999999998,0,NA,"Text Entry","Text Entry",4,"object-19","Positive Feedback","P1_P.mp4","Screenshot 2023-06-30 at 15.00.42.png","Screenshot 2023-06-30 at 15.00.55.png",NA,"SUPPRF27407"
"20",1692016287418,"14/08/2023 12:31:27",1692019887418,1,"14/08/2023 14:31:27",140743,17,"task-f6fg",NA,31175901,9242399,NA,"complete",NA,"64da217fbeca8340a86d1818","computer","Desktop or Laptop","Windows 10","Chrome 115.0.0.0","1920x1080","1920x963",NA,NA,0,"Video Feedback Task (Clone)",6,"CDBEAFJGIH",NA,"study_2 (video_feedback and feedback_list_2)","Feedback_ranking_L2_first",1,3,"Positive Feedback","Video","w2ir4b",1,"response","excellent!",5822.49400000001,14881.556,14898.239,5822.49400000001,14881.556,14898.239,1,5822.49400000001,9075.74499999998,0,NA,"Text Entry","Text Entry",5,"object-20","Positive Feedback","P1_P.mp4","Screenshot 2023-06-30 at 15.00.42.png","Screenshot 2023-06-30 at 15.00.55.png",NA,"SUPPRF27407"
"21",1692016288366,"14/08/2023 12:31:28",1692019888366,1,"14/08/2023 14:31:28",140743,17,"task-f6fg",NA,31175901,9242399,NA,"complete",NA,"64da217fbeca8340a86d1818","computer","Desktop or Laptop","Windows 10","Chrome 115.0.0.0","1920x1080","1920x963",NA,NA,0,"Video Feedback Task (Clone)",6,"CDBEAFJGIH",NA,"study_2 (video_feedback and feedback_list_2)","Feedback_ranking_L2_first",1,3,"Positive Feedback","Fixation","mtm832",2,"continue","",967.584000000003,967.584000000003,967.584000000003,967.584000000003,967.584000000003,967.584000000003,1,967.584000000003,0,0,NA,"Fixation Timing","Fixation",1,"object-65","Positive Feedback","P1_P.mp4","Screenshot 2023-06-30 at 15.00.42.png","Screenshot 2023-06-30 at 15.00.55.png",NA,"SUPPRF27407"
"22",1692016319160,"14/08/2023 12:31:59",1692019919160,1,"14/08/2023 14:31:59",140743,17,"task-f6fg",NA,31175901,9242399,NA,"complete",NA,"64da217fbeca8340a86d1818","computer","Desktop or Laptop","Windows 10","Chrome 115.0.0.0","1920x1080","1920x963",NA,NA,0,"Video Feedback Task (Clone)",6,"CDBEAFJGIH",NA,"study_2 (video_feedback and feedback_list_2)","Feedback_ranking_L2_first",1,3,"Neutral Feedback","Screen 1","3zrml3",1,"continue","",30794.811,30780.787,30794.811,30794.811,30780.787,30794.811,1,30794.811,0,0,NA,"Click To Continue","Continue Button",1,"object-155","Neutral Feedback","P4_N.mp4","Screenshot 2023-06-30 at 15.00.42.png","Screenshot 2023-06-30 at 15.00.55.png",NA,"SUPPRF27407"
"23",1692016319167,"14/08/2023 12:31:59",1692019919167,1,"14/08/2023 14:31:59",140743,17,"task-f6fg",NA,31175901,9242399,NA,"complete",NA,"64da217fbeca8340a86d1818","computer","Desktop or Laptop","Windows 10","Chrome 115.0.0.0","1920x1080","1920x963",NA,NA,0,"Video Feedback Task (Clone)",6,"CDBEAFJGIH",NA,"study_2 (video_feedback and feedback_list_2)","Feedback_ranking_L2_first",1,3,"Neutral Feedback","Screen 1","3zrml3",1,"response","you gave an alright description",15799.145,30780.787,30797.47,15799.145,30780.787,30797.47,1,15799.145,14998.325,0,NA,"Text Entry","Text Entry",4,"object-158","Neutral Feedback","P4_N.mp4","Screenshot 2023-06-30 at 15.00.42.png","Screenshot 2023-06-30 at 15.00.55.png",NA,"SUPPRF27407"
"24",1692016319168,"14/08/2023 12:31:59",1692019919168,1,"14/08/2023 14:31:59",140743,17,"task-f6fg",NA,31175901,9242399,NA,"complete",NA,"64da217fbeca8340a86d1818","computer","Desktop or Laptop","Windows 10","Chrome 115.0.0.0","1920x1080","1920x963",NA,NA,0,"Video Feedback Task (Clone)",6,"CDBEAFJGIH",NA,"study_2 (video_feedback and feedback_list_2)","Feedback_ranking_L2_first",1,3,"Neutral Feedback","Screen 1","3zrml3",1,"response","you spoke clearly",8491.84300000001,30780.787,30797.47,8491.84300000001,30780.787,30797.47,1,8491.84300000001,22305.627,0,NA,"Text Entry","Text Entry",5,"object-159","Neutral Feedback","P4_N.mp4","Screenshot 2023-06-30 at 15.00.42.png","Screenshot 2023-06-30 at 15.00.55.png",NA,"SUPPRF27407"
"25",1692016320115,"14/08/2023 12:32:00",1692019920115,1,"14/08/2023 14:32:00",140743,17,"task-f6fg",NA,31175901,9242399,NA,"complete",NA,"64da217fbeca8340a86d1818","computer","Desktop or Laptop","Windows 10","Chrome 115.0.0.0","1920x1080","1920x963",NA,NA,0,"Video Feedback Task (Clone)",6,"CDBEAFJGIH",NA,"study_2 (video_feedback and feedback_list_2)","Feedback_ranking_L2_first",1,3,"Neutral Feedback","Screen 2","vv4mhq",2,"continue","",967.573999999993,967.573999999993,967.573999999993,967.573999999993,967.573999999993,967.573999999993,1,967.573999999993,0,0,NA,"Fixation Timing","Fixation",1,"object-153","Neutral Feedback","P4_N.mp4","Screenshot 2023-06-30 at 15.00.42.png","Screenshot 2023-06-30 at 15.00.55.png",NA,"SUPPRF27407"
"26",1692016337776,"14/08/2023 12:32:17",1692019937776,1,"14/08/2023 14:32:17",140743,17,"task-f6fg",NA,31175901,9242399,NA,"complete",NA,"64da217fbeca8340a86d1818","computer","Desktop or Laptop","Windows 10","Chrome 115.0.0.0","1920x1080","1920x963",NA,NA,0,"Video Feedback Task (Clone)",6,"CDBEAFJGIH",NA,"study_2 (video_feedback and feedback_list_2)","Feedback_ranking_L2_first",1,4,"Positive Feedback","Video","w2ir4b",1,"continue","",17661.8500000004,17651.039,17661.8500000004,17661.8500000004,17651.039,17661.8500000004,1,17661.8500000004,0,0,NA,"Click To Continue","Continue Button",1,"object-14","Positive Feedback","P3_P.mp4","Screenshot 2023-06-30 at 15.01.08.png","Screenshot 2023-06-30 at 15.02.01.png",NA,"SUPPRF27407"
"27",1692016337781,"14/08/2023 12:32:17",1692019937781,1,"14/08/2023 14:32:17",140743,17,"task-f6fg",NA,31175901,9242399,NA,"complete",NA,"64da217fbeca8340a86d1818","computer","Desktop or Laptop","Windows 10","Chrome 115.0.0.0","1920x1080","1920x963",NA,NA,0,"Video Feedback Task (Clone)",6,"CDBEAFJGIH",NA,"study_2 (video_feedback and feedback_list_2)","Feedback_ranking_L2_first",1,4,"Positive Feedback","Video","w2ir4b",1,"response","you done a very good job",13163.21,17651.039,17667.5499999996,13163.21,17651.039,17667.5499999996,1,13163.21,4504.33999999962,0,NA,"Text Entry","Text Entry",4,"object-19","Positive Feedback","P3_P.mp4","Screenshot 2023-06-30 at 15.01.08.png","Screenshot 2023-06-30 at 15.02.01.png",NA,"SUPPRF27407"
"28",1692016337782,"14/08/2023 12:32:17",1692019937782,1,"14/08/2023 14:32:17",140743,17,"task-f6fg",NA,31175901,9242399,NA,"complete",NA,"64da217fbeca8340a86d1818","computer","Desktop or Laptop","Windows 10","Chrome 115.0.0.0","1920x1080","1920x963",NA,NA,0,"Video Feedback Task (Clone)",6,"CDBEAFJGIH",NA,"study_2 (video_feedback and feedback_list_2)","Feedback_ranking_L2_first",1,4,"Positive Feedback","Video","w2ir4b",1,"response","you came across very well",4321.084,17651.039,17667.729,4321.084,17651.039,17667.729,1,4321.084,13346.645,0,NA,"Text Entry","Text Entry",5,"object-20","Positive Feedback","P3_P.mp4","Screenshot 2023-06-30 at 15.01.08.png","Screenshot 2023-06-30 at 15.02.01.png",NA,"SUPPRF27407"
"29",1692016338733,"14/08/2023 12:32:18",1692019938733,1,"14/08/2023 14:32:18",140743,17,"task-f6fg",NA,31175901,9242399,NA,"complete",NA,"64da217fbeca8340a86d1818","computer","Desktop or Laptop","Windows 10","Chrome 115.0.0.0","1920x1080","1920x963",NA,NA,0,"Video Feedback Task (Clone)",6,"CDBEAFJGIH",NA,"study_2 (video_feedback and feedback_list_2)","Feedback_ranking_L2_first",1,4,"Positive Feedback","Fixation","mtm832",2,"continue","",967.630999999994,967.630999999994,967.630999999994,967.630999999994,967.630999999994,967.630999999994,1,967.630999999994,0,0,NA,"Fixation Timing","Fixation",1,"object-65","Positive Feedback","P3_P.mp4","Screenshot 2023-06-30 at 15.01.08.png","Screenshot 2023-06-30 at 15.02.01.png",NA,"SUPPRF27407"
"30",1692016372968,"14/08/2023 12:32:52",1692019972968,1,"14/08/2023 14:32:52",140743,17,"task-f6fg",NA,31175901,9242399,NA,"complete",NA,"64da217fbeca8340a86d1818","computer","Desktop or Laptop","Windows 10","Chrome 115.0.0.0","1920x1080","1920x963",NA,NA,0,"Video Feedback Task (Clone)",6,"CDBEAFJGIH",NA,"study_2 (video_feedback and feedback_list_2)","Feedback_ranking_L2_first",1,4,"Neutral Feedback","Screen 1","3zrml3",1,"continue","",34236.78,34234.197,34236.78,34236.78,34234.197,34236.78,1,34236.78,0,0,NA,"Click To Continue","Continue Button",1,"object-155","Neutral Feedback","P5_N.mp4","Screenshot 2023-06-30 at 15.01.08.png","Screenshot 2023-06-30 at 15.02.01.png",NA,"SUPPRF27407"
"31",1692016372974,"14/08/2023 12:32:52",1692019972974,1,"14/08/2023 14:32:52",140743,17,"task-f6fg",NA,31175901,9242399,NA,"complete",NA,"64da217fbeca8340a86d1818","computer","Desktop or Laptop","Windows 10","Chrome 115.0.0.0","1920x1080","1920x963",NA,NA,0,"Video Feedback Task (Clone)",6,"CDBEAFJGIH",NA,"study_2 (video_feedback and feedback_list_2)","Feedback_ranking_L2_first",1,4,"Neutral Feedback","Screen 1","3zrml3",1,"response","you performed the task decently ",19252.541,34234.197,34242.9800000002,19252.541,34234.197,34242.9800000002,1,19252.541,14990.4390000002,0,NA,"Text Entry","Text Entry",4,"object-158","Neutral Feedback","P5_N.mp4","Screenshot 2023-06-30 at 15.01.08.png","Screenshot 2023-06-30 at 15.02.01.png",NA,"SUPPRF27407"
"32",1692016372975,"14/08/2023 12:32:52",1692019972975,1,"14/08/2023 14:32:52",140743,17,"task-f6fg",NA,31175901,9242399,NA,"complete",NA,"64da217fbeca8340a86d1818","computer","Desktop or Laptop","Windows 10","Chrome 115.0.0.0","1920x1080","1920x963",NA,NA,0,"Video Feedback Task (Clone)",6,"CDBEAFJGIH",NA,"study_2 (video_feedback and feedback_list_2)","Feedback_ranking_L2_first",1,4,"Neutral Feedback","Screen 1","3zrml3",1,"response","that was not too bad",10110.092,34234.197,34244.0799999998,10110.092,34234.197,34244.0799999998,1,10110.092,24133.9879999998,0,NA,"Text Entry","Text Entry",5,"object-159","Neutral Feedback","P5_N.mp4","Screenshot 2023-06-30 at 15.01.08.png","Screenshot 2023-06-30 at 15.02.01.png",NA,"SUPPRF27407"
"33",1692016373934,"14/08/2023 12:32:53",1692019973934,1,"14/08/2023 14:32:53",140743,17,"task-f6fg",NA,31175901,9242399,NA,"complete",NA,"64da217fbeca8340a86d1818","computer","Desktop or Laptop","Windows 10","Chrome 115.0.0.0","1920x1080","1920x963",NA,NA,0,"Video Feedback Task (Clone)",6,"CDBEAFJGIH",NA,"study_2 (video_feedback and feedback_list_2)","Feedback_ranking_L2_first",1,4,"Neutral Feedback","Screen 2","vv4mhq",2,"continue","",967.595000000001,967.595000000001,967.595000000001,967.595000000001,967.595000000001,967.595000000001,1,967.595000000001,0,0,NA,"Fixation Timing","Fixation",1,"object-153","Neutral Feedback","P5_N.mp4","Screenshot 2023-06-30 at 15.01.08.png","Screenshot 2023-06-30 at 15.02.01.png",NA,"SUPPRF27407"
"34",1692016405391,"14/08/2023 12:33:25",1692020005391,1,"14/08/2023 14:33:25",140743,17,"task-f6fg",NA,31175901,9242399,NA,"complete",NA,"64da217fbeca8340a86d1818","computer","Desktop or Laptop","Windows 10","Chrome 115.0.0.0","1920x1080","1920x963",NA,NA,0,"Video Feedback Task (Clone)",6,"CDBEAFJGIH",NA,"study_2 (video_feedback and feedback_list_2)","Feedback_ranking_L2_first",1,5,"Neutral Feedback","Screen 1","3zrml3",1,"continue","",31458.1880000002,31448.126,31458.1880000002,31458.1880000002,31448.126,31458.1880000002,1,31458.1880000002,0,0,NA,"Click To Continue","Continue Button",1,"object-155","Neutral Feedback","P1_N.mp4","Screenshot 2023-06-30 at 15.00.42.png","Screenshot 2023-06-30 at 15.02.01.png",NA,"SUPPRF27407"
"35",1692016405397,"14/08/2023 12:33:25",1692020005397,1,"14/08/2023 14:33:25",140743,17,"task-f6fg",NA,31175901,9242399,NA,"complete",NA,"64da217fbeca8340a86d1818","computer","Desktop or Laptop","Windows 10","Chrome 115.0.0.0","1920x1080","1920x963",NA,NA,0,"Video Feedback Task (Clone)",6,"CDBEAFJGIH",NA,"study_2 (video_feedback and feedback_list_2)","Feedback_ranking_L2_first",1,5,"Neutral Feedback","Screen 1","3zrml3",1,"response","was not a bad effort",26993.685,31448.126,31464.2879999998,26993.685,31448.126,31464.2879999998,1,26993.685,4470.60299999983,0,NA,"Text Entry","Text Entry",4,"object-158","Neutral Feedback","P1_N.mp4","Screenshot 2023-06-30 at 15.00.42.png","Screenshot 2023-06-30 at 15.02.01.png",NA,"SUPPRF27407"
"36",1692016405398,"14/08/2023 12:33:25",1692020005398,1,"14/08/2023 14:33:25",140743,17,"task-f6fg",NA,31175901,9242399,NA,"complete",NA,"64da217fbeca8340a86d1818","computer","Desktop or Laptop","Windows 10","Chrome 115.0.0.0","1920x1080","1920x963",NA,NA,0,"Video Feedback Task (Clone)",6,"CDBEAFJGIH",NA,"study_2 (video_feedback and feedback_list_2)","Feedback_ranking_L2_first",1,5,"Neutral Feedback","Screen 1","3zrml3",1,"response","she came across well presented",12345.677,31448.126,31464.809,12345.677,31448.126,31464.809,1,12345.677,19119.132,0,NA,"Text Entry","Text Entry",5,"object-159","Neutral Feedback","P1_N.mp4","Screenshot 2023-06-30 at 15.00.42.png","Screenshot 2023-06-30 at 15.02.01.png",NA,"SUPPRF27407"
"37",1692016406350,"14/08/2023 12:33:26",1692020006350,1,"14/08/2023 14:33:26",140743,17,"task-f6fg",NA,31175901,9242399,NA,"complete",NA,"64da217fbeca8340a86d1818","computer","Desktop or Laptop","Windows 10","Chrome 115.0.0.0","1920x1080","1920x963",NA,NA,0,"Video Feedback Task (Clone)",6,"CDBEAFJGIH",NA,"study_2 (video_feedback and feedback_list_2)","Feedback_ranking_L2_first",1,5,"Neutral Feedback","Screen 2","vv4mhq",2,"continue","",967.622000000003,967.622000000003,967.622000000003,967.622000000003,967.622000000003,967.622000000003,1,967.622000000003,0,0,NA,"Fixation Timing","Fixation",1,"object-153","Neutral Feedback","P1_N.mp4","Screenshot 2023-06-30 at 15.00.42.png","Screenshot 2023-06-30 at 15.02.01.png",NA,"SUPPRF27407"
"38",1692016420732,"14/08/2023 12:33:40",1692020020732,1,"14/08/2023 14:33:40",140743,17,"task-f6fg",NA,31175901,9242399,NA,"complete",NA,"64da217fbeca8340a86d1818","computer","Desktop or Laptop","Windows 10","Chrome 115.0.0.0","1920x1080","1920x963",NA,NA,0,"Video Feedback Task (Clone)",6,"CDBEAFJGIH",NA,"study_2 (video_feedback and feedback_list_2)","Feedback_ranking_L2_first",1,5,"Positive Feedback","Video","w2ir4b",1,"continue","",14384.1400000004,14381.034,14384.1400000004,14384.1400000004,14381.034,14384.1400000004,1,14384.1400000004,0,0,NA,"Click To Continue","Continue Button",1,"object-14","Positive Feedback","P4_P.mp4","Screenshot 2023-06-30 at 15.01.08.png","Screenshot 2023-06-30 at 15.02.01.png",NA,"SUPPRF27407"
"39",1692016420737,"14/08/2023 12:33:40",1692020020737,1,"14/08/2023 14:33:40",140743,17,"task-f6fg",NA,31175901,9242399,NA,"complete",NA,"64da217fbeca8340a86d1818","computer","Desktop or Laptop","Windows 10","Chrome 115.0.0.0","1920x1080","1920x963",NA,NA,0,"Video Feedback Task (Clone)",6,"CDBEAFJGIH",NA,"study_2 (video_feedback and feedback_list_2)","Feedback_ranking_L2_first",1,5,"Positive Feedback","Video","w2ir4b",1,"response","very good job!",10410.436,14381.034,14388.5399999998,10410.436,14381.034,14388.5399999998,1,10410.436,3978.10399999982,0,NA,"Text Entry","Text Entry",4,"object-19","Positive Feedback","P4_P.mp4","Screenshot 2023-06-30 at 15.01.08.png","Screenshot 2023-06-30 at 15.02.01.png",NA,"SUPPRF27407"
"40",1692016420737,"14/08/2023 12:33:40",1692020020737,1,"14/08/2023 14:33:40",140743,17,"task-f6fg",NA,31175901,9242399,NA,"complete",NA,"64da217fbeca8340a86d1818","computer","Desktop or Laptop","Windows 10","Chrome 115.0.0.0","1920x1080","1920x963",NA,NA,0,"Video Feedback Task (Clone)",6,"CDBEAFJGIH",NA,"study_2 (video_feedback and feedback_list_2)","Feedback_ranking_L2_first",1,5,"Positive Feedback","Video","w2ir4b",1,"response","you done excellent!",4204.212,14381.034,14389.3399999996,4204.212,14381.034,14389.3399999996,1,4204.212,10185.1279999996,0,NA,"Text Entry","Text Entry",5,"object-20","Positive Feedback","P4_P.mp4","Screenshot 2023-06-30 at 15.01.08.png","Screenshot 2023-06-30 at 15.02.01.png",NA,"SUPPRF27407"
"41",1692016421698,"14/08/2023 12:33:41",1692020021698,1,"14/08/2023 14:33:41",140743,17,"task-f6fg",NA,31175901,9242399,NA,"complete",NA,"64da217fbeca8340a86d1818","computer","Desktop or Laptop","Windows 10","Chrome 115.0.0.0","1920x1080","1920x963",NA,NA,0,"Video Feedback Task (Clone)",6,"CDBEAFJGIH",NA,"study_2 (video_feedback and feedback_list_2)","Feedback_ranking_L2_first",1,5,"Positive Feedback","Fixation","mtm832",2,"continue","",967.637999999977,967.637999999977,967.637999999977,967.637999999977,967.637999999977,967.637999999977,1,967.637999999977,0,0,NA,"Fixation Timing","Fixation",1,"object-65","Positive Feedback","P4_P.mp4","Screenshot 2023-06-30 at 15.01.08.png","Screenshot 2023-06-30 at 15.02.01.png",NA,"SUPPRF27407"
"42",1692016421708,"14/08/2023 12:33:41",1692020021708,1,"14/08/2023 14:33:41",140743,17,"task-f6fg",NA,31175901,9242399,NA,"complete",NA,"64da217fbeca8340a86d1818","computer","Desktop or Laptop","Windows 10","Chrome 115.0.0.0","1920x1080","1920x963",NA,NA,0,"Video Feedback Task (Clone)",6,"CDBEAFJGIH",NA,"study_2 (video_feedback and feedback_list_2)","Feedback_ranking_L2_first",1,NA,"","","",NA,"5","END",NA,NA,NA,NA,NA,NA,0,NA,NA,NA,NA,"","",NA,"","","","","",NA,"SUPPRF27407"
"1",1692017815438,"14/08/2023 12:56:55",1692021415438,1,"14/08/2023 14:56:55",140743,17,"task-f6fg",NA,31176472,9242534,NA,"complete",NA,"64da2b07dffffeb613275ea3","computer","Desktop or Laptop","Windows 10","Chrome 115.0.0.0","1536x864","1287x741",NA,NA,0,"Video Feedback Task (Clone)",6,"IJHAGBFCED",NA,"study_2 (video_feedback and feedback_list_2)","Feedback_ranking_L2_first",1,NA,"","","",NA,"5","BEGIN",NA,NA,NA,NA,NA,NA,0,NA,NA,NA,NA,"","",NA,"","","","","",NA,"SUPPRF44269"
"2",1692017960206,"14/08/2023 12:59:20",1692021560206,1,"14/08/2023 14:59:20",140743,17,"task-f6fg",NA,31176472,9242534,NA,"complete",NA,"64da2b07dffffeb613275ea3","computer","Desktop or Laptop","Windows 10","Chrome 115.0.0.0","1536x864","1287x741",NA,NA,0,"Video Feedback Task (Clone)",6,"IJHAGBFCED",NA,"study_2 (video_feedback and feedback_list_2)","Feedback_ranking_L2_first",1,1,"Neutral Feedback","Screen 1","3zrml3",1,"continue","",142232.968999988,142218.534,142232.968999988,142232.968999988,142218.534,142232.968999988,1,142232.968999988,0,0,NA,"Click To Continue","Continue Button",1,"object-155","Neutral Feedback","P2_N.mp4","Screenshot 2023-06-30 at 15.00.42.png","Screenshot 2023-06-30 at 15.00.55.png",NA,"SUPPRF44269"
"3",1692017960208,"14/08/2023 12:59:20",1692021560208,1,"14/08/2023 14:59:20",140743,17,"task-f6fg",NA,31176472,9242534,NA,"complete",NA,"64da2b07dffffeb613275ea3","computer","Desktop or Laptop","Windows 10","Chrome 115.0.0.0","1536x864","1287x741",NA,NA,0,"Video Feedback Task (Clone)",6,"IJHAGBFCED",NA,"study_2 (video_feedback and feedback_list_2)","Feedback_ranking_L2_first",1,1,"Neutral Feedback","Screen 1","3zrml3",1,"response","The description was satisfactory",133418.143,142218.534,142234.968999988,133418.143,142218.534,142234.968999988,1,133418.143,8816.82599998807,0,NA,"Text Entry","Text Entry",4,"object-158","Neutral Feedback","P2_N.mp4","Screenshot 2023-06-30 at 15.00.42.png","Screenshot 2023-06-30 at 15.00.55.png",NA,"SUPPRF44269"
"4",1692017960208,"14/08/2023 12:59:20",1692021560208,1,"14/08/2023 14:59:20",140743,17,"task-f6fg",NA,31176472,9242534,NA,"complete",NA,"64da2b07dffffeb613275ea3","computer","Desktop or Laptop","Windows 10","Chrome 115.0.0.0","1536x864","1287x741",NA,NA,0,"Video Feedback Task (Clone)",6,"IJHAGBFCED",NA,"study_2 (video_feedback and feedback_list_2)","Feedback_ranking_L2_first",1,1,"Neutral Feedback","Screen 1","3zrml3",1,"response","Description was okay, little vague",64267.511,142218.534,142235.008,64267.511,142218.534,142235.008,1,64267.511,77967.497,0,NA,"Text Entry","Text Entry",5,"object-159","Neutral Feedback","P2_N.mp4","Screenshot 2023-06-30 at 15.00.42.png","Screenshot 2023-06-30 at 15.00.55.png",NA,"SUPPRF44269"
"5",1692017961160,"14/08/2023 12:59:21",1692021561160,1,"14/08/2023 14:59:21",140743,17,"task-f6fg",NA,31176472,9242534,NA,"complete",NA,"64da2b07dffffeb613275ea3","computer","Desktop or Laptop","Windows 10","Chrome 115.0.0.0","1536x864","1287x741",NA,NA,0,"Video Feedback Task (Clone)",6,"IJHAGBFCED",NA,"study_2 (video_feedback and feedback_list_2)","Feedback_ranking_L2_first",1,1,"Neutral Feedback","Screen 2","vv4mhq",2,"continue","",966.647999999986,966.647999999986,966.647999999986,966.647999999986,966.647999999986,966.647999999986,1,966.647999999986,0,0,NA,"Fixation Timing","Fixation",1,"object-153","Neutral Feedback","P2_N.mp4","Screenshot 2023-06-30 at 15.00.42.png","Screenshot 2023-06-30 at 15.00.55.png",NA,"SUPPRF44269"
"6",1692018003521,"14/08/2023 13:00:03",1692021603521,1,"14/08/2023 15:00:03",140743,17,"task-f6fg",NA,31176472,9242534,NA,"complete",NA,"64da2b07dffffeb613275ea3","computer","Desktop or Laptop","Windows 10","Chrome 115.0.0.0","1536x864","1287x741",NA,NA,0,"Video Feedback Task (Clone)",6,"IJHAGBFCED",NA,"study_2 (video_feedback and feedback_list_2)","Feedback_ranking_L2_first",1,1,"Positive Feedback","Video","w2ir4b",1,"continue","",42362.2869999881,42350.255,42362.2869999881,42362.2869999881,42350.255,42362.2869999881,1,42362.2869999881,0,0,NA,"Click To Continue","Continue Button",1,"object-14","Positive Feedback","P5_P.mp4","Screenshot 2023-06-30 at 15.00.42.png","Screenshot 2023-06-30 at 15.02.01.png",NA,"SUPPRF44269"
"7",1692018003525,"14/08/2023 13:00:03",1692021603525,1,"14/08/2023 15:00:03",140743,17,"task-f6fg",NA,31176472,9242534,NA,"complete",NA,"64da2b07dffffeb613275ea3","computer","Desktop or Laptop","Windows 10","Chrome 115.0.0.0","1536x864","1287x741",NA,NA,0,"Video Feedback Task (Clone)",6,"IJHAGBFCED",NA,"study_2 (video_feedback and feedback_list_2)","Feedback_ranking_L2_first",1,1,"Positive Feedback","Video","w2ir4b",1,"response","A very insightful description",32033.341,42350.255,42365.8869999523,32033.341,42350.255,42365.8869999523,1,32033.341,10332.5459999523,0,NA,"Text Entry","Text Entry",4,"object-19","Positive Feedback","P5_P.mp4","Screenshot 2023-06-30 at 15.00.42.png","Screenshot 2023-06-30 at 15.02.01.png",NA,"SUPPRF44269"
"8",1692018003525,"14/08/2023 13:00:03",1692021603525,1,"14/08/2023 15:00:03",140743,17,"task-f6fg",NA,31176472,9242534,NA,"complete",NA,"64da2b07dffffeb613275ea3","computer","Desktop or Laptop","Windows 10","Chrome 115.0.0.0","1536x864","1287x741",NA,NA,0,"Video Feedback Task (Clone)",6,"IJHAGBFCED",NA,"study_2 (video_feedback and feedback_list_2)","Feedback_ranking_L2_first",1,1,"Positive Feedback","Video","w2ir4b",1,"response","The description was very clear and descriptive",19883.472,42350.255,42366.087,19883.472,42350.255,42366.087,1,19883.472,22482.615,0,NA,"Text Entry","Text Entry",5,"object-20","Positive Feedback","P5_P.mp4","Screenshot 2023-06-30 at 15.00.42.png","Screenshot 2023-06-30 at 15.02.01.png",NA,"SUPPRF44269"
"9",1692018004476,"14/08/2023 13:00:04",1692021604476,1,"14/08/2023 15:00:04",140743,17,"task-f6fg",NA,31176472,9242534,NA,"complete",NA,"64da2b07dffffeb613275ea3","computer","Desktop or Laptop","Windows 10","Chrome 115.0.0.0","1536x864","1287x741",NA,NA,0,"Video Feedback Task (Clone)",6,"IJHAGBFCED",NA,"study_2 (video_feedback and feedback_list_2)","Feedback_ranking_L2_first",1,1,"Positive Feedback","Fixation","mtm832",2,"continue","",966.774999999994,966.774999999994,966.774999999994,966.774999999994,966.774999999994,966.774999999994,1,966.774999999994,0,0,NA,"Fixation Timing","Fixation",1,"object-65","Positive Feedback","P5_P.mp4","Screenshot 2023-06-30 at 15.00.42.png","Screenshot 2023-06-30 at 15.02.01.png",NA,"SUPPRF44269"
"10",1692018079839,"14/08/2023 13:01:19",1692021679839,1,"14/08/2023 15:01:19",140743,17,"task-f6fg",NA,31176472,9242534,NA,"complete",NA,"64da2b07dffffeb613275ea3","computer","Desktop or Laptop","Windows 10","Chrome 115.0.0.0","1536x864","1287x741",NA,NA,0,"Video Feedback Task (Clone)",6,"IJHAGBFCED",NA,"study_2 (video_feedback and feedback_list_2)","Feedback_ranking_L2_first",1,2,"Positive Feedback","Video","w2ir4b",1,"continue","",75362.3569999523,75350.598,75362.3569999523,75362.3569999523,75350.598,75362.3569999523,1,75362.3569999523,0,0,NA,"Click To Continue","Continue Button",1,"object-14","Positive Feedback","P2_P.mp4","Screenshot 2023-06-30 at 15.00.42.png","Screenshot 2023-06-30 at 15.02.01.png",NA,"SUPPRF44269"
"11",1692018079844,"14/08/2023 13:01:19",1692021679844,1,"14/08/2023 15:01:19",140743,17,"task-f6fg",NA,31176472,9242534,NA,"complete",NA,"64da2b07dffffeb613275ea3","computer","Desktop or Laptop","Windows 10","Chrome 115.0.0.0","1536x864","1287x741",NA,NA,0,"Video Feedback Task (Clone)",6,"IJHAGBFCED",NA,"study_2 (video_feedback and feedback_list_2)","Feedback_ranking_L2_first",1,2,"Positive Feedback","Video","w2ir4b",1,"response","Your desctiption evidences a good observation",56133.72,75350.598,75367.1569999642,56133.72,75350.598,75367.1569999642,1,56133.72,19233.4369999642,0,NA,"Text Entry","Text Entry",4,"object-19","Positive Feedback","P2_P.mp4","Screenshot 2023-06-30 at 15.00.42.png","Screenshot 2023-06-30 at 15.02.01.png",NA,"SUPPRF44269"
"12",1692018079844,"14/08/2023 13:01:19",1692021679844,1,"14/08/2023 15:01:19",140743,17,"task-f6fg",NA,31176472,9242534,NA,"complete",NA,"64da2b07dffffeb613275ea3","computer","Desktop or Laptop","Windows 10","Chrome 115.0.0.0","1536x864","1287x741",NA,NA,0,"Video Feedback Task (Clone)",6,"IJHAGBFCED",NA,"study_2 (video_feedback and feedback_list_2)","Feedback_ranking_L2_first",1,2,"Positive Feedback","Video","w2ir4b",1,"response","You apper to be very smart",35233.649,75350.598,75367.238,35233.649,75350.598,75367.238,1,35233.649,40133.589,0,NA,"Text Entry","Text Entry",5,"object-20","Positive Feedback","P2_P.mp4","Screenshot 2023-06-30 at 15.00.42.png","Screenshot 2023-06-30 at 15.02.01.png",NA,"SUPPRF44269"
"13",1692018080795,"14/08/2023 13:01:20",1692021680795,1,"14/08/2023 15:01:20",140743,17,"task-f6fg",NA,31176472,9242534,NA,"complete",NA,"64da2b07dffffeb613275ea3","computer","Desktop or Laptop","Windows 10","Chrome 115.0.0.0","1536x864","1287x741",NA,NA,0,"Video Feedback Task (Clone)",6,"IJHAGBFCED",NA,"study_2 (video_feedback and feedback_list_2)","Feedback_ranking_L2_first",1,2,"Positive Feedback","Fixation","mtm832",2,"continue","",966.753999999957,966.753999999957,966.753999999957,966.753999999957,966.753999999957,966.753999999957,1,966.753999999957,0,0,NA,"Fixation Timing","Fixation",1,"object-65","Positive Feedback","P2_P.mp4","Screenshot 2023-06-30 at 15.00.42.png","Screenshot 2023-06-30 at 15.02.01.png",NA,"SUPPRF44269"
"14",1692018136601,"14/08/2023 13:02:16",1692021736601,1,"14/08/2023 15:02:16",140743,17,"task-f6fg",NA,31176472,9242534,NA,"complete",NA,"64da2b07dffffeb613275ea3","computer","Desktop or Laptop","Windows 10","Chrome 115.0.0.0","1536x864","1287x741",NA,NA,0,"Video Feedback Task (Clone)",6,"IJHAGBFCED",NA,"study_2 (video_feedback and feedback_list_2)","Feedback_ranking_L2_first",1,2,"Neutral Feedback","Screen 1","3zrml3",1,"continue","",55806.0049999523,55801.333,55806.0049999523,55806.0049999523,55801.333,55806.0049999523,1,55806.0049999523,0,0,NA,"Click To Continue","Continue Button",1,"object-155","Neutral Feedback","P3_N.mp4","Screenshot 2023-06-30 at 15.00.42.png","Screenshot 2023-06-30 at 15.02.01.png",NA,"SUPPRF44269"
"15",1692018136604,"14/08/2023 13:02:16",1692021736604,1,"14/08/2023 15:02:16",140743,17,"task-f6fg",NA,31176472,9242534,NA,"complete",NA,"64da2b07dffffeb613275ea3","computer","Desktop or Laptop","Windows 10","Chrome 115.0.0.0","1536x864","1287x741",NA,NA,0,"Video Feedback Task (Clone)",6,"IJHAGBFCED",NA,"study_2 (video_feedback and feedback_list_2)","Feedback_ranking_L2_first",1,2,"Neutral Feedback","Screen 1","3zrml3",1,"response","You didn't paint much of a picture",41733.751,55801.333,55809.9049999881,41733.751,55801.333,55809.9049999881,1,41733.751,14076.1539999881,0,NA,"Text Entry","Text Entry",4,"object-158","Neutral Feedback","P3_N.mp4","Screenshot 2023-06-30 at 15.00.42.png","Screenshot 2023-06-30 at 15.02.01.png",NA,"SUPPRF44269"
