"Event.Index","UTC.Timestamp","UTC.Date.and.Time","Local.Timestamp","Local.Timezone","Local.Date.and.Time","Experiment.ID","Experiment.Version","Tree.Node.Key","Repeat.Key","Schedule.ID","Participant.Private.ID","Participant.Starting.Group","Participant.Status","Participant.Completion.Code","Participant.External.Session.ID","Participant.Device.Type","Participant.Device","Participant.OS","Participant.Browser","Participant.Monitor.Size","Participant.Viewport.Size","Checkpoint","Room.ID","Room.Order","Task.Name","Task.Version","order.ot79","randomiser.lqqr","randomiser.28m8","randomiser.tf5j","Spreadsheet","Trial.Number","Display","Screen","Screen.ID","Screen.Counter","Response.Type","Response","Onset.Time","Clock.Time","Reaction.Time","Absolute.Onset.Time","Absolute.Clock.Time","Absolute.Reaction.Time","Correct","Response.Onset","Response.Duration","Proportion","Tag","Component.Name","Object.Name","Object.Number","Object.ID","Spreadsheet..display","Manipulation..Spreadsheet","Random_ID"
"1",1692006374903,"14/08/2023 09:46:14",1692009974903,1,"14/08/2023 11:46:14",140743,17,"task-9zlx",NA,31172692,9241769,NA,"complete",NA,"64d9ff71624435bf2a23761d","computer","Desktop or Laptop","Windows 10","Chrome 115.0.0.0","1536x864","1536x707",NA,NA,0,"Exit task",3,"CDBEAFJGIH","","study_2 (video_feedback and feedback_list_2)","Feedback_ranking_L2_first","Spreadsheet1",NA,NA,"","",NA,"5","BEGIN",NA,NA,NA,NA,NA,NA,0,NA,NA,NA,NA,"","",NA,"",NA,NA,"SUPPRF16300"
"2",1692006406431,"14/08/2023 09:46:46",1692010006431,1,"14/08/2023 11:46:46",140743,17,"task-9zlx",NA,31172692,9241769,NA,"complete",NA,"64d9ff71624435bf2a23761d","computer","Desktop or Laptop","Windows 10","Chrome 115.0.0.0","1536x864","1536x707",NA,NA,0,"Exit task",3,"CDBEAFJGIH","","study_2 (video_feedback and feedback_list_2)","Feedback_ranking_L2_first","Spreadsheet1",1,1,"Screen 1","x3jytl",1,"response","it was a good experiment and fun. ",24040.766,32407.287,32413.900000006,24040.766,32407.287,32413.900000006,1,24040.766,8373.13400000596,0,NA,"Single Text Entry","Single Text Entry",2,"object-7",1,NA,"SUPPRF16300"
"3",1692006406433,"14/08/2023 09:46:46",1692010006433,1,"14/08/2023 11:46:46",140743,17,"task-9zlx",NA,31172692,9241769,NA,"complete",NA,"64d9ff71624435bf2a23761d","computer","Desktop or Laptop","Windows 10","Chrome 115.0.0.0","1536x864","1536x707",NA,NA,0,"Exit task",3,"CDBEAFJGIH","","study_2 (video_feedback and feedback_list_2)","Feedback_ranking_L2_first","Spreadsheet1",NA,NA,"","",NA,"5","END",NA,NA,NA,NA,NA,NA,0,NA,NA,NA,NA,"","",NA,"",NA,NA,"SUPPRF16300"
"1",1692016423605,"14/08/2023 12:33:43",1692020023605,1,"14/08/2023 14:33:43",140743,17,"task-9zlx",NA,31176002,9242399,NA,"complete",NA,"64da217fbeca8340a86d1818","computer","Desktop or Laptop","Windows 10","Chrome 115.0.0.0","1920x1080","1920x963",NA,NA,0,"Exit task",3,"CDBEAFJGIH","","study_2 (video_feedback and feedback_list_2)","Feedback_ranking_L2_first","Spreadsheet1",NA,NA,"","",NA,"5","BEGIN",NA,NA,NA,NA,NA,NA,0,NA,NA,NA,NA,"","",NA,"",NA,NA,"SUPPRF27407"
"2",1692016429035,"14/08/2023 12:33:49",1692020029035,1,"14/08/2023 14:33:49",140743,17,"task-9zlx",NA,31176002,9242399,NA,"complete",NA,"64da217fbeca8340a86d1818","computer","Desktop or Laptop","Windows 10","Chrome 115.0.0.0","1920x1080","1920x963",NA,NA,0,"Exit task",3,"CDBEAFJGIH","","study_2 (video_feedback and feedback_list_2)","Feedback_ranking_L2_first","Spreadsheet1",1,1,"Screen 1","x3jytl",1,"response","good study",3169.762,5422.047,5436.24799999963,3169.762,5422.047,5436.24799999963,1,3169.762,2266.48599999963,0,NA,"Single Text Entry","Single Text Entry",2,"object-7",1,NA,"SUPPRF27407"
"3",1692016429036,"14/08/2023 12:33:49",1692020029036,1,"14/08/2023 14:33:49",140743,17,"task-9zlx",NA,31176002,9242399,NA,"complete",NA,"64da217fbeca8340a86d1818","computer","Desktop or Laptop","Windows 10","Chrome 115.0.0.0","1920x1080","1920x963",NA,NA,0,"Exit task",3,"CDBEAFJGIH","","study_2 (video_feedback and feedback_list_2)","Feedback_ranking_L2_first","Spreadsheet1",NA,NA,"","",NA,"5","END",NA,NA,NA,NA,NA,NA,0,NA,NA,NA,NA,"","",NA,"",NA,NA,"SUPPRF27407"
"1",1692016627237,"14/08/2023 12:37:07",1692020227237,1,"14/08/2023 14:37:07",140743,17,"task-9zlx",NA,31176085,9242434,NA,"complete",NA,"64da237da070b69f2c9aafbb","computer","Desktop or Laptop","Mac OS 10.15.7","Safari 16.5.2","1440x900","1324x724",NA,NA,0,"Exit task",3,"EFDGCHBIAJ","B (Feedback ranking_L1 First)","study_1 (JV and feedback_list_1)","","Spreadsheet1",NA,NA,"","",NA,"5","BEGIN",NA,NA,NA,NA,NA,NA,0,NA,NA,NA,NA,"","",NA,"",NA,NA,"SUPPRF63488"
"2",1692016639727,"14/08/2023 12:37:19",1692020239727,1,"14/08/2023 14:37:19",140743,17,"task-9zlx",NA,31176085,9242434,NA,"complete",NA,"64da237da070b69f2c9aafbb","computer","Desktop or Laptop","Mac OS 10.15.7","Safari 16.5.2","1440x900","1324x724",NA,NA,0,"Exit task",3,"EFDGCHBIAJ","B (Feedback ranking_L1 First)","study_1 (JV and feedback_list_1)","","Spreadsheet1",1,1,"Screen 1","x3jytl",1,"response","a bit repetitive but good study",8744,15601,15608,8744,15601,15608,1,8744,6864,0,NA,"Single Text Entry","Single Text Entry",2,"object-7",1,NA,"SUPPRF63488"
"3",1692016639733,"14/08/2023 12:37:19",1692020239733,1,"14/08/2023 14:37:19",140743,17,"task-9zlx",NA,31176085,9242434,NA,"complete",NA,"64da237da070b69f2c9aafbb","computer","Desktop or Laptop","Mac OS 10.15.7","Safari 16.5.2","1440x900","1324x724",NA,NA,0,"Exit task",3,"EFDGCHBIAJ","B (Feedback ranking_L1 First)","study_1 (JV and feedback_list_1)","","Spreadsheet1",NA,NA,"","",NA,"5","END",NA,NA,NA,NA,NA,NA,0,NA,NA,NA,NA,"","",NA,"",NA,NA,"SUPPRF63488"
"1",1692017362160,"14/08/2023 12:49:22",1692020962160,1,"14/08/2023 14:49:22",140743,17,"task-9zlx",NA,31176321,9242435,NA,"complete",NA,"64da244f22c1185dd4ea45ff","computer","Desktop or Laptop","Windows 10","Chrome 115.0.0.0","1536x864","1536x707",NA,NA,0,"Exit task",3,"FGEHDICJBA","A (JV first)","study_1 (JV and feedback_list_1)","","Spreadsheet1",NA,NA,"","",NA,"5","BEGIN",NA,NA,NA,NA,NA,NA,0,NA,NA,NA,NA,"","",NA,"",NA,NA,"SUPPRF82002"
"2",1692017431254,"14/08/2023 12:50:31",1692021031254,1,"14/08/2023 14:50:31",140743,17,"task-9zlx",NA,31176321,9242435,NA,"complete",NA,"64da244f22c1185dd4ea45ff","computer","Desktop or Laptop","Windows 10","Chrome 115.0.0.0","1536x864","1536x707",NA,NA,0,"Exit task",3,"FGEHDICJBA","A (JV first)","study_1 (JV and feedback_list_1)","","Spreadsheet1",1,1,"Screen 1","x3jytl",1,"response","progress bar at bottom/top of study to see how far participants are into study/how long is left ",34285.409,69120.789,69136.0490002861,34285.409,69120.789,69136.0490002861,1,34285.409,34850.6400002861,0,NA,"Single Text Entry","Single Text Entry",2,"object-7",1,NA,"SUPPRF82002"
"3",1692017431264,"14/08/2023 12:50:31",1692021031264,1,"14/08/2023 14:50:31",140743,17,"task-9zlx",NA,31176321,9242435,NA,"complete",NA,"64da244f22c1185dd4ea45ff","computer","Desktop or Laptop","Windows 10","Chrome 115.0.0.0","1536x864","1536x707",NA,NA,0,"Exit task",3,"FGEHDICJBA","A (JV first)","study_1 (JV and feedback_list_1)","","Spreadsheet1",NA,NA,"","",NA,"5","END",NA,NA,NA,NA,NA,NA,0,NA,NA,NA,NA,"","",NA,"",NA,NA,"SUPPRF82002"
"1",1692018621324,"14/08/2023 13:10:21",1692022221324,1,"14/08/2023 15:10:21",140743,17,"task-9zlx",NA,31176786,9242534,NA,"complete",NA,"64da2b07dffffeb613275ea3","computer","Desktop or Laptop","Windows 10","Chrome 115.0.0.0","1536x864","1287x741",NA,NA,0,"Exit task",3,"IJHAGBFCED","","study_2 (video_feedback and feedback_list_2)","Feedback_ranking_L2_first","Spreadsheet1",NA,NA,"","",NA,"5","BEGIN",NA,NA,NA,NA,NA,NA,0,NA,NA,NA,NA,"","",NA,"",NA,NA,"SUPPRF44269"
"2",1692018626081,"14/08/2023 13:10:26",1692022226081,1,"14/08/2023 15:10:26",140743,17,"task-9zlx",NA,31176786,9242534,NA,"complete",NA,"64da2b07dffffeb613275ea3","computer","Desktop or Laptop","Windows 10","Chrome 115.0.0.0","1536x864","1287x741",NA,NA,0,"Exit task",3,"IJHAGBFCED","","study_2 (video_feedback and feedback_list_2)","Feedback_ranking_L2_first","Spreadsheet1",1,1,"Screen 1","x3jytl",1,"response","",4777.88400002384,4766.789,4777.88400002384,4777.88400002384,4766.789,4777.88400002384,1,4777.88400002384,0,0,NA,"Single Text Entry","Single Text Entry",2,"object-7",1,NA,"SUPPRF44269"
"3",1692018626082,"14/08/2023 13:10:26",1692022226082,1,"14/08/2023 15:10:26",140743,17,"task-9zlx",NA,31176786,9242534,NA,"complete",NA,"64da2b07dffffeb613275ea3","computer","Desktop or Laptop","Windows 10","Chrome 115.0.0.0","1536x864","1287x741",NA,NA,0,"Exit task",3,"IJHAGBFCED","","study_2 (video_feedback and feedback_list_2)","Feedback_ranking_L2_first","Spreadsheet1",NA,NA,"","",NA,"5","END",NA,NA,NA,NA,NA,NA,0,NA,NA,NA,NA,"","",NA,"",NA,NA,"SUPPRF44269"
"1",1692029361889,"14/08/2023 16:09:21",1692032961889,1,"14/08/2023 18:09:21",140743,17,"task-9zlx",NA,31181021,9243732,NA,"complete",NA,"64da57bf281e21980598870b","computer","Desktop or Laptop","Windows 10","Chrome 115.0.0.0","1536x864","1536x707",NA,NA,0,"Exit task",3,"CDBEAFJGIH","B (Feedback ranking_L1 First)","study_1 (JV and feedback_list_1)","","Spreadsheet1",NA,NA,"","",NA,"5","BEGIN",NA,NA,NA,NA,NA,NA,0,NA,NA,NA,NA,"","",NA,"",NA,NA,"SUPPRF84507"
"2",1692029365716,"14/08/2023 16:09:25",1692032965716,1,"14/08/2023 18:09:25",140743,17,"task-9zlx",NA,31181021,9243732,NA,"complete",NA,"64da57bf281e21980598870b","computer","Desktop or Laptop","Windows 10","Chrome 115.0.0.0","1536x864","1536x707",NA,NA,0,"Exit task",3,"CDBEAFJGIH","B (Feedback ranking_L1 First)","study_1 (JV and feedback_list_1)","","Spreadsheet1",1,1,"Screen 1","x3jytl",1,"response","",3849.754,3833.09,3849.754,3849.754,3833.09,3849.754,1,3849.754,0,0,NA,"Single Text Entry","Single Text Entry",2,"object-7",1,NA,"SUPPRF84507"
"3",1692029365718,"14/08/2023 16:09:25",1692032965718,1,"14/08/2023 18:09:25",140743,17,"task-9zlx",NA,31181021,9243732,NA,"complete",NA,"64da57bf281e21980598870b","computer","Desktop or Laptop","Windows 10","Chrome 115.0.0.0","1536x864","1536x707",NA,NA,0,"Exit task",3,"CDBEAFJGIH","B (Feedback ranking_L1 First)","study_1 (JV and feedback_list_1)","","Spreadsheet1",NA,NA,"","",NA,"5","END",NA,NA,NA,NA,NA,NA,0,NA,NA,NA,NA,"","",NA,"",NA,NA,"SUPPRF84507"
"1",1692360758270,"18/08/2023 12:12:38",1692364358270,1,"18/08/2023 14:12:38",140743,17,"task-9zlx",NA,31245413,9261948,NA,"complete",NA,"64df66dd18f0e4168f29a35f","computer","Desktop or Laptop","Mac OS 10.15.7","Chrome 115.0.0.0","1440x900","1287x707",NA,NA,0,"Exit task",3,"ABJCIDHEGF","B (Feedback ranking_L1 First)","study_1 (JV and feedback_list_1)","","Spreadsheet1",NA,NA,"","",NA,"5","BEGIN",NA,NA,NA,NA,NA,NA,0,NA,NA,NA,NA,"","",NA,"",NA,NA,"SUPPRF05489"
"2",1692360765496,"18/08/2023 12:12:45",1692364365496,1,"18/08/2023 14:12:45",140743,17,"task-9zlx",NA,31245413,9261948,NA,"complete",NA,"64df66dd18f0e4168f29a35f","computer","Desktop or Laptop","Mac OS 10.15.7","Chrome 115.0.0.0","1440x900","1287x707",NA,NA,0,"Exit task",3,"ABJCIDHEGF","B (Feedback ranking_L1 First)","study_1 (JV and feedback_list_1)","","Spreadsheet1",1,1,"Screen 1","x3jytl",1,"response","no",4783.142,7233.044,7249.56300019073,4783.142,7233.044,7249.56300019073,1,4783.142,2466.42100019073,0,NA,"Single Text Entry","Single Text Entry",2,"object-7",1,NA,"SUPPRF05489"
"3",1692360765497,"18/08/2023 12:12:45",1692364365497,1,"18/08/2023 14:12:45",140743,17,"task-9zlx",NA,31245413,9261948,NA,"complete",NA,"64df66dd18f0e4168f29a35f","computer","Desktop or Laptop","Mac OS 10.15.7","Chrome 115.0.0.0","1440x900","1287x707",NA,NA,0,"Exit task",3,"ABJCIDHEGF","B (Feedback ranking_L1 First)","study_1 (JV and feedback_list_1)","","Spreadsheet1",NA,NA,"","",NA,"5","END",NA,NA,NA,NA,NA,NA,0,NA,NA,NA,NA,"","",NA,"",NA,NA,"SUPPRF05489"
"1",1693247002839,"28/08/2023 18:23:22",1693250602839,1,"28/08/2023 20:23:22",140743,17,"task-9zlx",NA,31394305,9297799,NA,"complete",NA,"64eceed14556d1516f0479e9","computer","Desktop or Laptop","Windows 10","Firefox 116.0","1920x1080","1920x919",NA,NA,0,"Exit task",3,"ABJCIDHEGF","","study_2 (video_feedback and feedback_list_2)","VF_1st","Spreadsheet1",NA,NA,"","",NA,"5","BEGIN",NA,NA,NA,NA,NA,NA,0,NA,NA,NA,NA,"","",NA,"",NA,NA,"SUPPRF20104"
"2",1693247005357,"28/08/2023 18:23:25",1693250605357,1,"28/08/2023 20:23:25",140743,17,"task-9zlx",NA,31394305,9297799,NA,"complete",NA,"64eceed14556d1516f0479e9","computer","Desktop or Laptop","Windows 10","Firefox 116.0","1920x1080","1920x919",NA,NA,0,"Exit task",3,"ABJCIDHEGF","","study_2 (video_feedback and feedback_list_2)","VF_1st","Spreadsheet1",1,1,"Screen 1","x3jytl",1,"response","",2520.72,2516.3,2520.72,2520.72,2516.3,2520.72,1,2520.72,0,0,NA,"Single Text Entry","Single Text Entry",2,"object-7",1,NA,"SUPPRF20104"
"3",1693247005358,"28/08/2023 18:23:25",1693250605358,1,"28/08/2023 20:23:25",140743,17,"task-9zlx",NA,31394305,9297799,NA,"complete",NA,"64eceed14556d1516f0479e9","computer","Desktop or Laptop","Windows 10","Firefox 116.0","1920x1080","1920x919",NA,NA,0,"Exit task",3,"ABJCIDHEGF","","study_2 (video_feedback and feedback_list_2)","VF_1st","Spreadsheet1",NA,NA,"","",NA,"5","END",NA,NA,NA,NA,NA,NA,0,NA,NA,NA,NA,"","",NA,"",NA,NA,"SUPPRF20104"
"1",1693227045260,"28/08/2023 12:50:45",1693230645260,1,"28/08/2023 14:50:45",140743,17,"task-9zlx",NA,31390246,9296849,NA,"complete",NA,"64ec9ceab0ce5040c12ad22a","computer","Desktop or Laptop","Windows 10","Chrome 115.0.0.0","1366x768","1517x722",NA,NA,0,"Exit task",3,"JAIBHCGDFE","B (Feedback ranking_L1 First)","study_1 (JV and feedback_list_1)","","Spreadsheet1",NA,NA,"","",NA,"5","BEGIN",NA,NA,NA,NA,NA,NA,0,NA,NA,NA,NA,"","",NA,"",NA,NA,"SUPPRF13138"
"2",1693227051952,"28/08/2023 12:50:51",1693230651952,1,"28/08/2023 14:50:51",140743,17,"task-9zlx",NA,31390246,9296849,NA,"complete",NA,"64ec9ceab0ce5040c12ad22a","computer","Desktop or Laptop","Windows 10","Chrome 115.0.0.0","1366x768","1517x722",NA,NA,0,"Exit task",3,"JAIBHCGDFE","B (Feedback ranking_L1 First)","study_1 (JV and feedback_list_1)","","Spreadsheet1",1,1,"Screen 1","x3jytl",1,"response","N/A",3992.759,6704.573,6719.42699999777,3992.759,6704.573,6719.42699999777,1,3992.759,2726.66799999777,0,NA,"Single Text Entry","Single Text Entry",2,"object-7",1,NA,"SUPPRF13138"
"3",1693227051954,"28/08/2023 12:50:51",1693230651954,1,"28/08/2023 14:50:51",140743,17,"task-9zlx",NA,31390246,9296849,NA,"complete",NA,"64ec9ceab0ce5040c12ad22a","computer","Desktop or Laptop","Windows 10","Chrome 115.0.0.0","1366x768","1517x722",NA,NA,0,"Exit task",3,"JAIBHCGDFE","B (Feedback ranking_L1 First)","study_1 (JV and feedback_list_1)","","Spreadsheet1",NA,NA,"","",NA,"5","END",NA,NA,NA,NA,NA,NA,0,NA,NA,NA,NA,"","",NA,"",NA,NA,"SUPPRF13138"
"1",1693071000759,"26/08/2023 17:30:00",1693074600759,1,"26/08/2023 19:30:00",140743,17,"task-9zlx",NA,31377726,9293534,NA,"complete",NA,"64ea39f32f86c94c9af361b5","computer","Desktop or Laptop","Windows 10","Chrome 116.0.0.0","1280x720","1280x603",NA,NA,0,"Exit task",3,"IJHAGBFCED","B (Feedback ranking_L1 First)","study_1 (JV and feedback_list_1)","","Spreadsheet1",NA,NA,"","",NA,"5","BEGIN",NA,NA,NA,NA,NA,NA,0,NA,NA,NA,NA,"","",NA,"",NA,NA,"SUPPRF14738"
"2",1693071013679,"26/08/2023 17:30:13",1693074613679,1,"26/08/2023 19:30:13",140743,17,"task-9zlx",NA,31377726,9293534,NA,"complete",NA,"64ea39f32f86c94c9af361b5","computer","Desktop or Laptop","Windows 10","Chrome 116.0.0.0","1280x720","1280x603",NA,NA,0,"Exit task",3,"IJHAGBFCED","B (Feedback ranking_L1 First)","study_1 (JV and feedback_list_1)","","Spreadsheet1",1,1,"Screen 1","x3jytl",1,"response","No",6977.318,12922.067,12933.364,6977.318,12922.067,12933.364,1,6977.318,5956.046,0,NA,"Single Text Entry","Single Text Entry",2,"object-7",1,NA,"SUPPRF14738"
"3",1693071013681,"26/08/2023 17:30:13",1693074613681,1,"26/08/2023 19:30:13",140743,17,"task-9zlx",NA,31377726,9293534,NA,"complete",NA,"64ea39f32f86c94c9af361b5","computer","Desktop or Laptop","Windows 10","Chrome 116.0.0.0","1280x720","1280x603",NA,NA,0,"Exit task",3,"IJHAGBFCED","B (Feedback ranking_L1 First)","study_1 (JV and feedback_list_1)","","Spreadsheet1",NA,NA,"","",NA,"5","END",NA,NA,NA,NA,NA,NA,0,NA,NA,NA,NA,"","",NA,"",NA,NA,"SUPPRF14738"
"1",1693057614181,"26/08/2023 13:46:54",1693061214181,1,"26/08/2023 15:46:54",140743,17,"task-9zlx",NA,31376786,9292133,NA,"complete",NA,"64ea0abb4fcce2d50f284df2","computer","Desktop or Laptop","Mac OS 10.15.7","Safari 16.0","820x1180","820x1073",NA,NA,0,"Exit task",3,"HIGJFAEBDC","","study_2 (video_feedback and feedback_list_2)","Feedback_ranking_L2_first","Spreadsheet1",NA,NA,"","",NA,"5","BEGIN",NA,NA,NA,NA,NA,NA,0,NA,NA,NA,NA,"","",NA,"",NA,NA,"SUPPRF79831"
"2",1693057616109,"26/08/2023 13:46:56",1693061216109,1,"26/08/2023 15:46:56",140743,17,"task-9zlx",NA,31376786,9292133,NA,"complete",NA,"64ea0abb4fcce2d50f284df2","computer","Desktop or Laptop","Mac OS 10.15.7","Safari 16.0","820x1180","820x1073",NA,NA,0,"Exit task",3,"HIGJFAEBDC","","study_2 (video_feedback and feedback_list_2)","Feedback_ranking_L2_first","Spreadsheet1",1,1,"Screen 1","x3jytl",1,"response","",1933,1928,1933,1933,1928,1933,1,1933,0,0,NA,"Single Text Entry","Single Text Entry",2,"object-7",1,NA,"SUPPRF79831"
"3",1693057616111,"26/08/2023 13:46:56",1693061216111,1,"26/08/2023 15:46:56",140743,17,"task-9zlx",NA,31376786,9292133,NA,"complete",NA,"64ea0abb4fcce2d50f284df2","computer","Desktop or Laptop","Mac OS 10.15.7","Safari 16.0","820x1180","820x1073",NA,NA,0,"Exit task",3,"HIGJFAEBDC","","study_2 (video_feedback and feedback_list_2)","Feedback_ranking_L2_first","Spreadsheet1",NA,NA,"","",NA,"5","END",NA,NA,NA,NA,NA,NA,0,NA,NA,NA,NA,"","",NA,"",NA,NA,"SUPPRF79831"
"1",1692727299365,"22/08/2023 18:01:39",1692730899365,1,"22/08/2023 20:01:39",140743,17,"task-9zlx",NA,31298958,9275476,NA,"complete",NA,"64e4fc72a6b2df27331b7045","computer","Desktop or Laptop","Mac OS 10.15.7","Chrome 116.0.0.0","1440x900","1440x763",NA,NA,0,"Exit task",3,"FGEHDICJBA","","study_2 (video_feedback and feedback_list_2)","VF_1st","Spreadsheet1",NA,NA,"","",NA,"5","BEGIN",NA,NA,NA,NA,NA,NA,0,NA,NA,NA,NA,"","",NA,"",NA,NA,"SUPPRF42249"
"2",1692727315482,"22/08/2023 18:01:55",1692730915482,1,"22/08/2023 20:01:55",140743,17,"task-9zlx",NA,31298958,9275476,NA,"complete",NA,"64e4fc72a6b2df27331b7045","computer","Desktop or Laptop","Mac OS 10.15.7","Chrome 116.0.0.0","1440x900","1440x815",NA,NA,0,"Exit task",3,"FGEHDICJBA","","study_2 (video_feedback and feedback_list_2)","VF_1st","Spreadsheet1",1,1,"Screen 1","x3jytl",1,"response","last bit was a bit repetitive",5945.835,16122.416,16128.5780000015,5945.835,16122.416,16128.5780000015,1,5945.835,10182.7430000015,0,NA,"Single Text Entry","Single Text Entry",2,"object-7",1,NA,"SUPPRF42249"
"3",1692727315486,"22/08/2023 18:01:55",1692730915486,1,"22/08/2023 20:01:55",140743,17,"task-9zlx",NA,31298958,9275476,NA,"complete",NA,"64e4fc72a6b2df27331b7045","computer","Desktop or Laptop","Mac OS 10.15.7","Chrome 116.0.0.0","1440x900","1440x815",NA,NA,0,"Exit task",3,"FGEHDICJBA","","study_2 (video_feedback and feedback_list_2)","VF_1st","Spreadsheet1",NA,NA,"","",NA,"5","END",NA,NA,NA,NA,NA,NA,0,NA,NA,NA,NA,"","",NA,"",NA,NA,"SUPPRF42249"
"1",1692608512604,"21/08/2023 09:01:52",1692612112604,1,"21/08/2023 11:01:52",140743,17,"task-9zlx",NA,31266030,9268854,NA,"complete",NA,"64e32be7ed0d2f797828c1a4","computer","Desktop or Laptop","Mac OS 10.15","Firefox 114.0","1440x900","1440x787",NA,NA,0,"Exit task",3,"EFDGCHBIAJ","A (JV first)","study_1 (JV and feedback_list_1)","","Spreadsheet1",NA,NA,"","",NA,"5","BEGIN",NA,NA,NA,NA,NA,NA,0,NA,NA,NA,NA,"","",NA,"",NA,NA,"SUPPRF05565"
"2",1692608517476,"21/08/2023 09:01:57",1692612117476,1,"21/08/2023 11:01:57",140743,17,"task-9zlx",NA,31266030,9268854,NA,"complete",NA,"64e32be7ed0d2f797828c1a4","computer","Desktop or Laptop","Mac OS 10.15","Firefox 114.0","1440x900","1440x787",NA,NA,0,"Exit task",3,"EFDGCHBIAJ","A (JV first)","study_1 (JV and feedback_list_1)","","Spreadsheet1",1,1,"Screen 1","x3jytl",1,"response","",5632.64,5623.4,5632.64,5632.64,5623.4,5632.64,1,5632.64,0,0,NA,"Single Text Entry","Single Text Entry",2,"object-7",1,NA,"SUPPRF05565"
"3",1692608517482,"21/08/2023 09:01:57",1692612117482,1,"21/08/2023 11:01:57",140743,17,"task-9zlx",NA,31266030,9268854,NA,"complete",NA,"64e32be7ed0d2f797828c1a4","computer","Desktop or Laptop","Mac OS 10.15","Firefox 114.0","1440x900","1440x787",NA,NA,0,"Exit task",3,"EFDGCHBIAJ","A (JV first)","study_1 (JV and feedback_list_1)","","Spreadsheet1",NA,NA,"","",NA,"5","END",NA,NA,NA,NA,NA,NA,0,NA,NA,NA,NA,"","",NA,"",NA,NA,"SUPPRF05565"
"1",1692553125922,"20/08/2023 17:38:45",1692556725922,1,"20/08/2023 19:38:45",140743,17,"task-9zlx",NA,31263525,9267612,NA,"complete",NA,"64e252d5b92f3bcf49791cfd","computer","Desktop or Laptop","Windows 10","Chrome 115.0.0.0","1280x720","1280x595",NA,NA,0,"Exit task",3,"DECFBGAHJI","","study_2 (video_feedback and feedback_list_2)","VF_1st","Spreadsheet1",NA,NA,"","",NA,"5","BEGIN",NA,NA,NA,NA,NA,NA,0,NA,NA,NA,NA,"","",NA,"",NA,NA,"SUPPRF06732"
"2",1692553136461,"20/08/2023 17:38:56",1692556736461,1,"20/08/2023 19:38:56",140743,17,"task-9zlx",NA,31263525,9267612,NA,"complete",NA,"64e252d5b92f3bcf49791cfd","computer","Desktop or Laptop","Windows 10","Chrome 115.0.0.0","1280x720","1280x595",NA,NA,0,"Exit task",3,"DECFBGAHJI","","study_2 (video_feedback and feedback_list_2)","VF_1st","Spreadsheet1",1,1,"Screen 1","x3jytl",1,"response","interesting",6516.752,10550.249,10565.1259999046,6516.752,10550.249,10565.1259999046,1,6516.752,4048.37399990463,0,NA,"Single Text Entry","Single Text Entry",2,"object-7",1,NA,"SUPPRF06732"
"3",1692553136463,"20/08/2023 17:38:56",1692556736463,1,"20/08/2023 19:38:56",140743,17,"task-9zlx",NA,31263525,9267612,NA,"complete",NA,"64e252d5b92f3bcf49791cfd","computer","Desktop or Laptop","Windows 10","Chrome 115.0.0.0","1280x720","1280x595",NA,NA,0,"Exit task",3,"DECFBGAHJI","","study_2 (video_feedback and feedback_list_2)","VF_1st","Spreadsheet1",NA,NA,"","",NA,"5","END",NA,NA,NA,NA,NA,NA,0,NA,NA,NA,NA,"","",NA,"",NA,NA,"SUPPRF06732"
"1",1692448171144,"19/08/2023 12:29:31",1692451771144,1,"19/08/2023 14:29:31",140743,17,"task-9zlx",NA,31255520,9265347,NA,"complete",NA,"64e0bcd5bf3ef3ff724048a9","computer","Desktop or Laptop","Windows 10","Edge 114.0.1823.82","1366x768","1311x649",NA,NA,0,"Exit task",3,"BCADJEIFHG","","study_2 (video_feedback and feedback_list_2)","Feedback_ranking_L2_first","Spreadsheet1",NA,NA,"","",NA,"5","BEGIN",NA,NA,NA,NA,NA,NA,0,NA,NA,NA,NA,"","",NA,"",NA,NA,"SUPPRF88097"
"2",1692448173964,"19/08/2023 12:29:33",1692451773964,1,"19/08/2023 14:29:33",140743,17,"task-9zlx",NA,31255520,9265347,NA,"complete",NA,"64e0bcd5bf3ef3ff724048a9","computer","Desktop or Laptop","Windows 10","Edge 114.0.1823.82","1366x768","1311x649",NA,NA,0,"Exit task",3,"BCADJEIFHG","","study_2 (video_feedback and feedback_list_2)","Feedback_ranking_L2_first","Spreadsheet1",1,1,"Screen 1","x3jytl",1,"response","",2844.24900009537,2836.044,2844.24900009537,2844.24900009537,2836.044,2844.24900009537,1,2844.24900009537,0,0,NA,"Single Text Entry","Single Text Entry",2,"object-7",1,NA,"SUPPRF88097"
"3",1692448173965,"19/08/2023 12:29:33",1692451773965,1,"19/08/2023 14:29:33",140743,17,"task-9zlx",NA,31255520,9265347,NA,"complete",NA,"64e0bcd5bf3ef3ff724048a9","computer","Desktop or Laptop","Windows 10","Edge 114.0.1823.82","1366x768","1311x649",NA,NA,0,"Exit task",3,"BCADJEIFHG","","study_2 (video_feedback and feedback_list_2)","Feedback_ranking_L2_first","Spreadsheet1",NA,NA,"","",NA,"5","END",NA,NA,NA,NA,NA,NA,0,NA,NA,NA,NA,"","",NA,"",NA,NA,"SUPPRF88097"
"1",1692281124498,"17/08/2023 14:05:24",1692284724498,1,"17/08/2023 16:05:24",140743,17,"task-9zlx",NA,31236579,9258380,NA,"complete",NA,"64de2cb7ebaf7c001ec7e37a","computer","Desktop or Laptop","Windows 10","Chrome 116.0.0.0","1920x1080","1920x963",NA,NA,0,"Exit task",3,"JAIBHCGDFE","","study_2 (video_feedback and feedback_list_2)","VF_1st","Spreadsheet1",NA,NA,"","",NA,"5","BEGIN",NA,NA,NA,NA,NA,NA,0,NA,NA,NA,NA,"","",NA,"",NA,NA,"SUPPRF73191"
"2",1692281126060,"17/08/2023 14:05:26",1692284726060,1,"17/08/2023 16:05:26",140743,17,"task-9zlx",NA,31236579,9258380,NA,"complete",NA,"64de2cb7ebaf7c001ec7e37a","computer","Desktop or Laptop","Windows 10","Chrome 116.0.0.0","1920x1080","1920x963",NA,NA,0,"Exit task",3,"JAIBHCGDFE","","study_2 (video_feedback and feedback_list_2)","VF_1st","Spreadsheet1",1,1,"Screen 1","x3jytl",1,"response","",1569.441,1562.492,1569.441,1569.441,1562.492,1569.441,1,1569.441,0,0,NA,"Single Text Entry","Single Text Entry",2,"object-7",1,NA,"SUPPRF73191"
"3",1692281126060,"17/08/2023 14:05:26",1692284726060,1,"17/08/2023 16:05:26",140743,17,"task-9zlx",NA,31236579,9258380,NA,"complete",NA,"64de2cb7ebaf7c001ec7e37a","computer","Desktop or Laptop","Windows 10","Chrome 116.0.0.0","1920x1080","1920x963",NA,NA,0,"Exit task",3,"JAIBHCGDFE","","study_2 (video_feedback and feedback_list_2)","VF_1st","Spreadsheet1",NA,NA,"","",NA,"5","END",NA,NA,NA,NA,NA,NA,0,NA,NA,NA,NA,"","",NA,"",NA,NA,"SUPPRF73191"
"1",1692214420384,"16/08/2023 19:33:40",1692218020384,1,"16/08/2023 21:33:40",140743,17,"task-9zlx",NA,31224971,9255609,NA,"complete",NA,"64dd297fdd1a9cc9afa673f8","computer","Desktop or Laptop","Windows 10","Chrome 115.0.0.0","1920x1080","1920x963",NA,NA,0,"Exit task",3,"IJHAGBFCED","A (JV first)","study_1 (JV and feedback_list_1)","","Spreadsheet1",NA,NA,"","",NA,"5","BEGIN",NA,NA,NA,NA,NA,NA,0,NA,NA,NA,NA,"","",NA,"",NA,NA,"SUPPRF36650"
"2",1692214423230,"16/08/2023 19:33:43",1692218023230,1,"16/08/2023 21:33:43",140743,17,"task-9zlx",NA,31224971,9255609,NA,"complete",NA,"64dd297fdd1a9cc9afa673f8","computer","Desktop or Laptop","Windows 10","Chrome 115.0.0.0","1920x1080","1920x963",NA,NA,0,"Exit task",3,"IJHAGBFCED","A (JV first)","study_1 (JV and feedback_list_1)","","Spreadsheet1",1,1,"Screen 1","x3jytl",1,"response","",2860.895,2843.546,2860.895,2860.895,2843.546,2860.895,1,2860.895,0,0,NA,"Single Text Entry","Single Text Entry",2,"object-7",1,NA,"SUPPRF36650"
"3",1692214423231,"16/08/2023 19:33:43",1692218023231,1,"16/08/2023 21:33:43",140743,17,"task-9zlx",NA,31224971,9255609,NA,"complete",NA,"64dd297fdd1a9cc9afa673f8","computer","Desktop or Laptop","Windows 10","Chrome 115.0.0.0","1920x1080","1920x963",NA,NA,0,"Exit task",3,"IJHAGBFCED","A (JV first)","study_1 (JV and feedback_list_1)","","Spreadsheet1",NA,NA,"","",NA,"5","END",NA,NA,NA,NA,NA,NA,0,NA,NA,NA,NA,"","",NA,"",NA,NA,"SUPPRF36650"
"1",1692200540332,"16/08/2023 15:42:20",1692204140332,1,"16/08/2023 17:42:20",140743,17,"task-9zlx",NA,31222786,9254717,NA,"complete",NA,"64dcecf2571803aaf952ef5f","computer","Desktop or Laptop","Windows 10","Chrome 115.0.0.0","1366x768","1366x657",NA,NA,0,"Exit task",3,"HIGJFAEBDC","","study_2 (video_feedback and feedback_list_2)","Feedback_ranking_L2_first","Spreadsheet1",NA,NA,"","",NA,"5","BEGIN",NA,NA,NA,NA,NA,NA,0,NA,NA,NA,NA,"","",NA,"",NA,NA,"SUPPRF01588"
"2",1692200544303,"16/08/2023 15:42:24",1692204144303,1,"16/08/2023 17:42:24",140743,17,"task-9zlx",NA,31222786,9254717,NA,"complete",NA,"64dcecf2571803aaf952ef5f","computer","Desktop or Laptop","Windows 10","Chrome 115.0.0.0","1366x768","1366x657",NA,NA,0,"Exit task",3,"HIGJFAEBDC","","study_2 (video_feedback and feedback_list_2)","Feedback_ranking_L2_first","Spreadsheet1",1,1,"Screen 1","x3jytl",1,"response","",3999.901,3983.246,3999.901,3999.901,3983.246,3999.901,1,3999.901,0,0,NA,"Single Text Entry","Single Text Entry",2,"object-7",1,NA,"SUPPRF01588"
"3",1692200544306,"16/08/2023 15:42:24",1692204144306,1,"16/08/2023 17:42:24",140743,17,"task-9zlx",NA,31222786,9254717,NA,"complete",NA,"64dcecf2571803aaf952ef5f","computer","Desktop or Laptop","Windows 10","Chrome 115.0.0.0","1366x768","1366x657",NA,NA,0,"Exit task",3,"HIGJFAEBDC","","study_2 (video_feedback and feedback_list_2)","Feedback_ranking_L2_first","Spreadsheet1",NA,NA,"","",NA,"5","END",NA,NA,NA,NA,NA,NA,0,NA,NA,NA,NA,"","",NA,"",NA,NA,"SUPPRF01588"
"1",1692194147672,"16/08/2023 13:55:47",1692197747672,1,"16/08/2023 15:55:47",140743,17,"task-9zlx",NA,31221532,9254439,NA,"complete",NA,"64dcdc11738dec7846d76850","computer","Desktop or Laptop","Windows 10","Chrome 115.0.0.0","1920x1080","1920x937",NA,NA,0,"Exit task",3,"GHFIEJDACB","B (Feedback ranking_L1 First)","study_1 (JV and feedback_list_1)","","Spreadsheet1",NA,NA,"","",NA,"5","BEGIN",NA,NA,NA,NA,NA,NA,0,NA,NA,NA,NA,"","",NA,"",NA,NA,"SUPPRF89096"
"2",1692194149349,"16/08/2023 13:55:49",1692197749349,1,"16/08/2023 15:55:49",140743,17,"task-9zlx",NA,31221532,9254439,NA,"complete",NA,"64dcdc11738dec7846d76850","computer","Desktop or Laptop","Windows 10","Chrome 115.0.0.0","1920x1080","1920x937",NA,NA,0,"Exit task",3,"GHFIEJDACB","B (Feedback ranking_L1 First)","study_1 (JV and feedback_list_1)","","Spreadsheet1",1,1,"Screen 1","x3jytl",1,"response","",1684.07699999986,1680.735,1684.07699999986,1684.07699999986,1680.735,1684.07699999986,1,1684.07699999986,0,0,NA,"Single Text Entry","Single Text Entry",2,"object-7",1,NA,"SUPPRF89096"
"3",1692194149350,"16/08/2023 13:55:49",1692197749350,1,"16/08/2023 15:55:49",140743,17,"task-9zlx",NA,31221532,9254439,NA,"complete",NA,"64dcdc11738dec7846d76850","computer","Desktop or Laptop","Windows 10","Chrome 115.0.0.0","1920x1080","1920x937",NA,NA,0,"Exit task",3,"GHFIEJDACB","B (Feedback ranking_L1 First)","study_1 (JV and feedback_list_1)","","Spreadsheet1",NA,NA,"","",NA,"5","END",NA,NA,NA,NA,NA,NA,0,NA,NA,NA,NA,"","",NA,"",NA,NA,"SUPPRF89096"
"1",1692192873305,"16/08/2023 13:34:33",1692196473305,1,"16/08/2023 15:34:33",140743,17,"task-9zlx",NA,31221222,9254288,NA,"complete",NA,"64dcd5b8efb53854496a7580","computer","Desktop or Laptop","Windows 10","Chrome 115.0.0.0","1463x915","1335x753",NA,NA,0,"Exit task",3,"FGEHDICJBA","","study_2 (video_feedback and feedback_list_2)","VF_1st","Spreadsheet1",NA,NA,"","",NA,"5","BEGIN",NA,NA,NA,NA,NA,NA,0,NA,NA,NA,NA,"","",NA,"",NA,NA,"SUPPRF02309"
"2",1692192877913,"16/08/2023 13:34:37",1692196477913,1,"16/08/2023 15:34:37",140743,17,"task-9zlx",NA,31221222,9254288,NA,"complete",NA,"64dcd5b8efb53854496a7580","computer","Desktop or Laptop","Windows 10","Chrome 115.0.0.0","1463x915","1335x753",NA,NA,0,"Exit task",3,"FGEHDICJBA","","study_2 (video_feedback and feedback_list_2)","VF_1st","Spreadsheet1",1,1,"Screen 1","x3jytl",1,"response","",4622,4609,4622,4622,4609,4622,1,4622,0,0,NA,"Single Text Entry","Single Text Entry",2,"object-7",1,NA,"SUPPRF02309"
"3",1692192877913,"16/08/2023 13:34:37",1692196477913,1,"16/08/2023 15:34:37",140743,17,"task-9zlx",NA,31221222,9254288,NA,"complete",NA,"64dcd5b8efb53854496a7580","computer","Desktop or Laptop","Windows 10","Chrome 115.0.0.0","1463x915","1335x753",NA,NA,0,"Exit task",3,"FGEHDICJBA","","study_2 (video_feedback and feedback_list_2)","VF_1st","Spreadsheet1",NA,NA,"","",NA,"5","END",NA,NA,NA,NA,NA,NA,0,NA,NA,NA,NA,"","",NA,"",NA,NA,"SUPPRF02309"
"1",1692173691429,"16/08/2023 08:14:51",1692177291429,1,"16/08/2023 10:14:51",140743,17,"task-9zlx",NA,31215531,9252727,NA,"complete",NA,"64dc7ddf7404cae9c3a1d3e9","computer","Desktop or Laptop","Windows 10","Opera 100.0.0.0","1080x1920","1039x1779",NA,NA,0,"Exit task",3,"DECFBGAHJI","B (Feedback ranking_L1 First)","study_1 (JV and feedback_list_1)","","Spreadsheet1",NA,NA,"","",NA,"5","BEGIN",NA,NA,NA,NA,NA,NA,0,NA,NA,NA,NA,"","",NA,"",NA,NA,"SUPPRF09500"
"2",1692173706674,"16/08/2023 08:15:06",1692177306674,1,"16/08/2023 10:15:06",140743,17,"task-9zlx",NA,31215531,9252727,NA,"complete",NA,"64dc7ddf7404cae9c3a1d3e9","computer","Desktop or Laptop","Windows 10","Opera 100.0.0.0","1080x1920","1039x1779",NA,NA,0,"Exit task",3,"DECFBGAHJI","B (Feedback ranking_L1 First)","study_1 (JV and feedback_list_1)","","Spreadsheet1",1,1,"Screen 1","x3jytl",1,"response","n/a",13533.175,15249.658,15252.0270000011,13533.175,15249.658,15252.0270000011,1,13533.175,1718.85200000112,0,NA,"Single Text Entry","Single Text Entry",2,"object-7",1,NA,"SUPPRF09500"
"3",1692173706676,"16/08/2023 08:15:06",1692177306676,1,"16/08/2023 10:15:06",140743,17,"task-9zlx",NA,31215531,9252727,NA,"complete",NA,"64dc7ddf7404cae9c3a1d3e9","computer","Desktop or Laptop","Windows 10","Opera 100.0.0.0","1080x1920","1039x1779",NA,NA,0,"Exit task",3,"DECFBGAHJI","B (Feedback ranking_L1 First)","study_1 (JV and feedback_list_1)","","Spreadsheet1",NA,NA,"","",NA,"5","END",NA,NA,NA,NA,NA,NA,0,NA,NA,NA,NA,"","",NA,"",NA,NA,"SUPPRF09500"
"1",1692135157234,"15/08/2023 21:32:37",1692138757234,1,"15/08/2023 23:32:37",140743,17,"task-9zlx",NA,31213455,9252290,NA,"complete",NA,"64dbf4ff504719270ed3ce00","computer","Desktop or Laptop","Windows 10","Edge 115.0.1901.188","1536x864","1536x746",NA,NA,0,"Exit task",3,"CDBEAFJGIH","","study_2 (video_feedback and feedback_list_2)","Feedback_ranking_L2_first","Spreadsheet1",NA,NA,"","",NA,"5","BEGIN",NA,NA,NA,NA,NA,NA,0,NA,NA,NA,NA,"","",NA,"",NA,NA,"SUPPRF08258"
"2",1692135162438,"15/08/2023 21:32:42",1692138762438,1,"15/08/2023 23:32:42",140743,17,"task-9zlx",NA,31213455,9252290,NA,"complete",NA,"64dbf4ff504719270ed3ce00","computer","Desktop or Laptop","Windows 10","Edge 115.0.1901.188","1536x864","1536x746",NA,NA,0,"Exit task",3,"CDBEAFJGIH","","study_2 (video_feedback and feedback_list_2)","Feedback_ranking_L2_first","Spreadsheet1",1,1,"Screen 1","x3jytl",1,"response","",5220.84199980926,5215.932,5220.84199980926,5220.84199980926,5215.932,5220.84199980926,1,5220.84199980926,0,0,NA,"Single Text Entry","Single Text Entry",2,"object-7",1,NA,"SUPPRF08258"
"3",1692135162438,"15/08/2023 21:32:42",1692138762438,1,"15/08/2023 23:32:42",140743,17,"task-9zlx",NA,31213455,9252290,NA,"complete",NA,"64dbf4ff504719270ed3ce00","computer","Desktop or Laptop","Windows 10","Edge 115.0.1901.188","1536x864","1536x746",NA,NA,0,"Exit task",3,"CDBEAFJGIH","","study_2 (video_feedback and feedback_list_2)","Feedback_ranking_L2_first","Spreadsheet1",NA,NA,"","",NA,"5","END",NA,NA,NA,NA,NA,NA,0,NA,NA,NA,NA,"","",NA,"",NA,NA,"SUPPRF08258"
"1",1692102989890,"15/08/2023 12:36:29",1692106589890,1,"15/08/2023 14:36:29",140743,17,"task-9zlx",NA,31193606,9248263,NA,"complete",NA,"64db7694cf9ebb92b4a19732","computer","Desktop or Laptop","Windows 10","Edge 114.0.1823.55","1280x720","1280x601",NA,NA,0,"Exit task",3,"ABJCIDHEGF","A (JV first)","study_1 (JV and feedback_list_1)","","Spreadsheet1",NA,NA,"","",NA,"5","BEGIN",NA,NA,NA,NA,NA,NA,0,NA,NA,NA,NA,"","",NA,"",NA,NA,"SUPPRF66122"
"2",1692102992874,"15/08/2023 12:36:32",1692106592874,1,"15/08/2023 14:36:32",140743,17,"task-9zlx",NA,31193606,9248263,NA,"complete",NA,"64db7694cf9ebb92b4a19732","computer","Desktop or Laptop","Windows 10","Edge 114.0.1823.55","1280x720","1280x601",NA,NA,0,"Exit task",3,"ABJCIDHEGF","A (JV first)","study_1 (JV and feedback_list_1)","","Spreadsheet1",1,1,"Screen 1","x3jytl",1,"response","",3010.6709994278,2997.533,3010.6709994278,3010.6709994278,2997.533,3010.6709994278,1,3010.6709994278,0,0,NA,"Single Text Entry","Single Text Entry",2,"object-7",1,NA,"SUPPRF66122"
"3",1692102992875,"15/08/2023 12:36:32",1692106592875,1,"15/08/2023 14:36:32",140743,17,"task-9zlx",NA,31193606,9248263,NA,"complete",NA,"64db7694cf9ebb92b4a19732","computer","Desktop or Laptop","Windows 10","Edge 114.0.1823.55","1280x720","1280x601",NA,NA,0,"Exit task",3,"ABJCIDHEGF","A (JV first)","study_1 (JV and feedback_list_1)","","Spreadsheet1",NA,NA,"","",NA,"5","END",NA,NA,NA,NA,NA,NA,0,NA,NA,NA,NA,"","",NA,"",NA,NA,"SUPPRF66122"
"1",1692101610953,"15/08/2023 12:13:30",1692105210953,1,"15/08/2023 14:13:30",140743,17,"task-9zlx",NA,31191854,9248109,NA,"complete",NA,"64db6ece74bc187ddeca4ef7","computer","Desktop or Laptop","Windows 10","Chrome 115.0.0.0","1536x864","1536x722",NA,NA,0,"Exit task",3,"JAIBHCGDFE","B (Feedback ranking_L1 First)","study_1 (JV and feedback_list_1)","","Spreadsheet1",NA,NA,"","",NA,"5","BEGIN",NA,NA,NA,NA,NA,NA,0,NA,NA,NA,NA,"","",NA,"",NA,NA,"SUPPRF50626"
"2",1692101636663,"15/08/2023 12:13:56",1692105236663,1,"15/08/2023 14:13:56",140743,17,"task-9zlx",NA,31191854,9248109,NA,"complete",NA,"64db6ece74bc187ddeca4ef7","computer","Desktop or Laptop","Windows 10","Chrome 115.0.0.0","1536x864","1536x722",NA,NA,0,"Exit task",3,"JAIBHCGDFE","B (Feedback ranking_L1 First)","study_1 (JV and feedback_list_1)","","Spreadsheet1",1,1,"Screen 1","x3jytl",1,"response","",25728.46,25711.759,25728.46,25728.46,25711.759,25728.46,1,25728.46,0,0,NA,"Single Text Entry","Single Text Entry",2,"object-7",1,NA,"SUPPRF50626"
"3",1692101636666,"15/08/2023 12:13:56",1692105236666,1,"15/08/2023 14:13:56",140743,17,"task-9zlx",NA,31191854,9248109,NA,"complete",NA,"64db6ece74bc187ddeca4ef7","computer","Desktop or Laptop","Windows 10","Chrome 115.0.0.0","1536x864","1536x722",NA,NA,0,"Exit task",3,"JAIBHCGDFE","B (Feedback ranking_L1 First)","study_1 (JV and feedback_list_1)","","Spreadsheet1",NA,NA,"","",NA,"5","END",NA,NA,NA,NA,NA,NA,0,NA,NA,NA,NA,"","",NA,"",NA,NA,"SUPPRF50626"
"1",1692093088247,"15/08/2023 09:51:28",1692096688247,1,"15/08/2023 11:51:28",140743,17,"task-9zlx",NA,31188857,9247457,NA,"complete",NA,"64db50e8d7831bdd4833328b","computer","Desktop or Laptop","Windows 10","Chrome 115.0.0.0","1920x1080","1920x941",NA,NA,0,"Exit task",3,"IJHAGBFCED","","study_2 (video_feedback and feedback_list_2)","Feedback_ranking_L2_first","Spreadsheet1",NA,NA,"","",NA,"5","BEGIN",NA,NA,NA,NA,NA,NA,0,NA,NA,NA,NA,"","",NA,"",NA,NA,"SUPPRF42960"
"2",1692093108680,"15/08/2023 09:51:48",1692096708680,1,"15/08/2023 11:51:48",140743,17,"task-9zlx",NA,31188857,9247457,NA,"complete",NA,"64db50e8d7831bdd4833328b","computer","Desktop or Laptop","Windows 10","Chrome 115.0.0.0","1920x1080","1920x941",NA,NA,0,"Exit task",3,"IJHAGBFCED","","study_2 (video_feedback and feedback_list_2)","Feedback_ranking_L2_first","Spreadsheet1",1,1,"Screen 1","x3jytl",1,"response","I have no feedback to give I enjoyed the study.",7333.309,20449.93,20455.3060000007,7333.309,20449.93,20455.3060000007,1,7333.309,13121.9970000007,0,NA,"Single Text Entry","Single Text Entry",2,"object-7",1,NA,"SUPPRF42960"
"3",1692093108682,"15/08/2023 09:51:48",1692096708682,1,"15/08/2023 11:51:48",140743,17,"task-9zlx",NA,31188857,9247457,NA,"complete",NA,"64db50e8d7831bdd4833328b","computer","Desktop or Laptop","Windows 10","Chrome 115.0.0.0","1920x1080","1920x941",NA,NA,0,"Exit task",3,"IJHAGBFCED","","study_2 (video_feedback and feedback_list_2)","Feedback_ranking_L2_first","Spreadsheet1",NA,NA,"","",NA,"5","END",NA,NA,NA,NA,NA,NA,0,NA,NA,NA,NA,"","",NA,"",NA,NA,"SUPPRF42960"
"1",1692089323773,"15/08/2023 08:48:43",1692092923773,1,"15/08/2023 10:48:43",140743,17,"task-9zlx",NA,31187999,9247180,NA,"complete",NA,"64db3ff30b0051af402a25df","computer","Desktop or Laptop","Mac OS 10.15.7","Chrome 115.0.0.0","1440x900","1440x696",NA,NA,0,"Exit task",3,"HIGJFAEBDC","A (JV first)","study_1 (JV and feedback_list_1)","","Spreadsheet1",NA,NA,"","",NA,"5","BEGIN",NA,NA,NA,NA,NA,NA,0,NA,NA,NA,NA,"","",NA,"",NA,NA,"SUPPRF09311"
"2",1692089330316,"15/08/2023 08:48:50",1692092930316,1,"15/08/2023 10:48:50",140743,17,"task-9zlx",NA,31187999,9247180,NA,"complete",NA,"64db3ff30b0051af402a25df","computer","Desktop or Laptop","Mac OS 10.15.7","Chrome 115.0.0.0","1440x900","1440x696",NA,NA,0,"Exit task",3,"HIGJFAEBDC","A (JV first)","study_1 (JV and feedback_list_1)","","Spreadsheet1",1,1,"Screen 1","x3jytl",1,"response","",6558.34300000596,6549.738,6558.34300000596,6558.34300000596,6549.738,6558.34300000596,1,6558.34300000596,0,0,NA,"Single Text Entry","Single Text Entry",2,"object-7",1,NA,"SUPPRF09311"
"3",1692089330317,"15/08/2023 08:48:50",1692092930317,1,"15/08/2023 10:48:50",140743,17,"task-9zlx",NA,31187999,9247180,NA,"complete",NA,"64db3ff30b0051af402a25df","computer","Desktop or Laptop","Mac OS 10.15.7","Chrome 115.0.0.0","1440x900","1440x696",NA,NA,0,"Exit task",3,"HIGJFAEBDC","A (JV first)","study_1 (JV and feedback_list_1)","","Spreadsheet1",NA,NA,"","",NA,"5","END",NA,NA,NA,NA,NA,NA,0,NA,NA,NA,NA,"","",NA,"",NA,NA,"SUPPRF09311"
"1",1692086027651,"15/08/2023 07:53:47",1692089627651,1,"15/08/2023 09:53:47",140743,17,"task-9zlx",NA,31187284,9247022,NA,"complete",NA,"64db3028111b0ff40205a905","computer","Desktop or Laptop","Mac OS 10.15.7","Chrome 114.0.0.0","1440x900","1440x690",NA,NA,0,"Exit task",3,"GHFIEJDACB","","study_2 (video_feedback and feedback_list_2)","VF_1st","Spreadsheet1",NA,NA,"","",NA,"5","BEGIN",NA,NA,NA,NA,NA,NA,0,NA,NA,NA,NA,"","",NA,"",NA,NA,"SUPPRF66474"
"2",1692086030147,"15/08/2023 07:53:50",1692089630147,1,"15/08/2023 09:53:50",140743,17,"task-9zlx",NA,31187284,9247022,NA,"complete",NA,"64db3028111b0ff40205a905","computer","Desktop or Laptop","Mac OS 10.15.7","Chrome 114.0.0.0","1440x900","1440x690",NA,NA,0,"Exit task",3,"GHFIEJDACB","","study_2 (video_feedback and feedback_list_2)","VF_1st","Spreadsheet1",1,1,"Screen 1","x3jytl",1,"response","",2510.80000004768,2500.64,2510.80000004768,2510.80000004768,2500.64,2510.80000004768,1,2510.80000004768,0,0,NA,"Single Text Entry","Single Text Entry",2,"object-7",1,NA,"SUPPRF66474"
"3",1692086030148,"15/08/2023 07:53:50",1692089630148,1,"15/08/2023 09:53:50",140743,17,"task-9zlx",NA,31187284,9247022,NA,"complete",NA,"64db3028111b0ff40205a905","computer","Desktop or Laptop","Mac OS 10.15.7","Chrome 114.0.0.0","1440x900","1440x690",NA,NA,0,"Exit task",3,"GHFIEJDACB","","study_2 (video_feedback and feedback_list_2)","VF_1st","Spreadsheet1",NA,NA,"","",NA,"5","END",NA,NA,NA,NA,NA,NA,0,NA,NA,NA,NA,"","",NA,"",NA,NA,"SUPPRF66474"
"1",1692036637525,"14/08/2023 18:10:37",1692040237525,1,"14/08/2023 20:10:37",140743,17,"task-9zlx",NA,31182968,9244459,NA,"complete",NA,"64da722cd7dae2d981f16215","computer","Desktop or Laptop","Windows 10","Chrome 115.0.0.0","1536x864","1707x830",NA,NA,0,"Exit task",3,"FGEHDICJBA","B (Feedback ranking_L1 First)","study_1 (JV and feedback_list_1)","","Spreadsheet1",NA,NA,"","",NA,"5","BEGIN",NA,NA,NA,NA,NA,NA,0,NA,NA,NA,NA,"","",NA,"",NA,NA,"SUPPRF02973"
"2",1692036644882,"14/08/2023 18:10:44",1692040244882,1,"14/08/2023 20:10:44",140743,17,"task-9zlx",NA,31182968,9244459,NA,"complete",NA,"64da722cd7dae2d981f16215","computer","Desktop or Laptop","Windows 10","Chrome 115.0.0.0","1536x864","1707x830",NA,NA,0,"Exit task",3,"FGEHDICJBA","B (Feedback ranking_L1 First)","study_1 (JV and feedback_list_1)","","Spreadsheet1",1,1,"Screen 1","x3jytl",1,"response","No",3496.956,7360.39,7366.863,3496.956,7360.39,7366.863,1,3496.956,3869.907,0,NA,"Single Text Entry","Single Text Entry",2,"object-7",1,NA,"SUPPRF02973"
"3",1692036644883,"14/08/2023 18:10:44",1692040244883,1,"14/08/2023 20:10:44",140743,17,"task-9zlx",NA,31182968,9244459,NA,"complete",NA,"64da722cd7dae2d981f16215","computer","Desktop or Laptop","Windows 10","Chrome 115.0.0.0","1536x864","1707x830",NA,NA,0,"Exit task",3,"FGEHDICJBA","B (Feedback ranking_L1 First)","study_1 (JV and feedback_list_1)","","Spreadsheet1",NA,NA,"","",NA,"5","END",NA,NA,NA,NA,NA,NA,0,NA,NA,NA,NA,"","",NA,"",NA,NA,"SUPPRF02973"
"1",1692034623123,"14/08/2023 17:37:03",1692038223123,1,"14/08/2023 19:37:03",140743,17,"task-9zlx",NA,31182496,9244263,NA,"complete",NA,"64da6f1a5aac95015e309356","computer","Desktop or Laptop","Windows 10","Edge 115.0.1901.200","1366x768","1311x657",NA,NA,0,"Exit task",3,"EFDGCHBIAJ","","study_2 (video_feedback and feedback_list_2)","Feedback_ranking_L2_first","Spreadsheet1",NA,NA,"","",NA,"5","BEGIN",NA,NA,NA,NA,NA,NA,0,NA,NA,NA,NA,"","",NA,"",NA,NA,"SUPPRF13522"
"2",1692034631066,"14/08/2023 17:37:11",1692038231066,1,"14/08/2023 19:37:11",140743,17,"task-9zlx",NA,31182496,9244263,NA,"complete",NA,"64da6f1a5aac95015e309356","computer","Desktop or Laptop","Windows 10","Edge 115.0.1901.200","1366x768","1311x657",NA,NA,0,"Exit task",3,"EFDGCHBIAJ","","study_2 (video_feedback and feedback_list_2)","Feedback_ranking_L2_first","Spreadsheet1",1,1,"Screen 1","x3jytl",1,"response","none",6682.469,7982.551,7999.225,6682.469,7982.551,7999.225,1,6682.469,1316.756,0,NA,"Single Text Entry","Single Text Entry",2,"object-7",1,NA,"SUPPRF13522"
"3",1692034631070,"14/08/2023 17:37:11",1692038231070,1,"14/08/2023 19:37:11",140743,17,"task-9zlx",NA,31182496,9244263,NA,"complete",NA,"64da6f1a5aac95015e309356","computer","Desktop or Laptop","Windows 10","Edge 115.0.1901.200","1366x768","1311x657",NA,NA,0,"Exit task",3,"EFDGCHBIAJ","","study_2 (video_feedback and feedback_list_2)","Feedback_ranking_L2_first","Spreadsheet1",NA,NA,"","",NA,"5","END",NA,NA,NA,NA,NA,NA,0,NA,NA,NA,NA,"","",NA,"",NA,NA,"SUPPRF13522"
"1",1692031464876,"14/08/2023 16:44:24",1692035064876,1,"14/08/2023 18:44:24",140743,17,"task-9zlx",NA,31181337,9244017,NA,"complete",NA,"64da50a5b280d5d8e5e9eb1f","computer","Desktop or Laptop","Windows 10","Chrome 114.0.0.0","1280x720","1280x609",NA,NA,0,"Exit task",3,"DECFBGAHJI","","study_2 (video_feedback and feedback_list_2)","Feedback_ranking_L2_first","Spreadsheet1",NA,NA,"","",NA,"5","BEGIN",NA,NA,NA,NA,NA,NA,0,NA,NA,NA,NA,"","",NA,"",NA,NA,"SUPPRF53772"
"2",1692031466708,"14/08/2023 16:44:26",1692035066708,1,"14/08/2023 18:44:26",140743,17,"task-9zlx",NA,31181337,9244017,NA,"complete",NA,"64da50a5b280d5d8e5e9eb1f","computer","Desktop or Laptop","Windows 10","Chrome 114.0.0.0","1280x720","1280x609",NA,NA,0,"Exit task",3,"DECFBGAHJI","","study_2 (video_feedback and feedback_list_2)","Feedback_ranking_L2_first","Spreadsheet1",1,1,"Screen 1","x3jytl",1,"response","",1849.588,1833.255,1849.588,1849.588,1833.255,1849.588,1,1849.588,0,0,NA,"Single Text Entry","Single Text Entry",2,"object-7",1,NA,"SUPPRF53772"
"3",1692031466712,"14/08/2023 16:44:26",1692035066712,1,"14/08/2023 18:44:26",140743,17,"task-9zlx",NA,31181337,9244017,NA,"complete",NA,"64da50a5b280d5d8e5e9eb1f","computer","Desktop or Laptop","Windows 10","Chrome 114.0.0.0","1280x720","1280x609",NA,NA,0,"Exit task",3,"DECFBGAHJI","","study_2 (video_feedback and feedback_list_2)","Feedback_ranking_L2_first","Spreadsheet1",NA,NA,"","",NA,"5","END",NA,NA,NA,NA,NA,NA,0,NA,NA,NA,NA,"","",NA,"",NA,NA,"SUPPRF53772"
"1",1692028064516,"14/08/2023 15:47:44",1692031664516,1,"14/08/2023 17:47:44",140743,17,"task-9zlx",NA,31180755,9243586,NA,"complete",NA,"64da54ae60b9358d64ee4f59","computer","Desktop or Laptop","Windows 10","Chrome 115.0.0.0","1707x1067","852x900",NA,NA,0,"Exit task",3,"BCADJEIFHG","","study_2 (video_feedback and feedback_list_2)","VF_1st","Spreadsheet1",NA,NA,"","",NA,"5","BEGIN",NA,NA,NA,NA,NA,NA,0,NA,NA,NA,NA,"","",NA,"",NA,NA,"SUPPRF59606"
"2",1692028067796,"14/08/2023 15:47:47",1692031667796,1,"14/08/2023 17:47:47",140743,17,"task-9zlx",NA,31180755,9243586,NA,"complete",NA,"64da54ae60b9358d64ee4f59","computer","Desktop or Laptop","Windows 10","Chrome 115.0.0.0","1707x1067","852x900",NA,NA,0,"Exit task",3,"BCADJEIFHG","","study_2 (video_feedback and feedback_list_2)","VF_1st","Spreadsheet1",1,1,"Screen 1","x3jytl",1,"response","",3293.489,3283.425,3293.489,3293.489,3283.425,3293.489,1,3293.489,0,0,NA,"Single Text Entry","Single Text Entry",2,"object-7",1,NA,"SUPPRF59606"
"3",1692028067797,"14/08/2023 15:47:47",1692031667797,1,"14/08/2023 17:47:47",140743,17,"task-9zlx",NA,31180755,9243586,NA,"complete",NA,"64da54ae60b9358d64ee4f59","computer","Desktop or Laptop","Windows 10","Chrome 115.0.0.0","1707x1067","852x900",NA,NA,0,"Exit task",3,"BCADJEIFHG","","study_2 (video_feedback and feedback_list_2)","VF_1st","Spreadsheet1",NA,NA,"","",NA,"5","END",NA,NA,NA,NA,NA,NA,0,NA,NA,NA,NA,"","",NA,"",NA,NA,"SUPPRF59606"
"1",1692021486772,"14/08/2023 13:58:06",1692025086772,1,"14/08/2023 15:58:06",140743,17,"task-9zlx",NA,31177613,9242705,NA,"complete",NA,"64da33cb039cd8a237b8ae7e","computer","Desktop or Laptop","Windows 10","Chrome 115.0.0.0","1280x720","1280x571",NA,NA,0,"Exit task",3,"ABJCIDHEGF","A (JV first)","study_1 (JV and feedback_list_1)","","Spreadsheet1",NA,NA,"","",NA,"5","BEGIN",NA,NA,NA,NA,NA,NA,0,NA,NA,NA,NA,"","",NA,"",NA,NA,"SUPPRF02797"
"2",1692021491649,"14/08/2023 13:58:11",1692025091649,1,"14/08/2023 15:58:11",140743,17,"task-9zlx",NA,31177613,9242705,NA,"complete",NA,"64da33cb039cd8a237b8ae7e","computer","Desktop or Laptop","Windows 10","Chrome 115.0.0.0","1280x720","1280x571",NA,NA,0,"Exit task",3,"ABJCIDHEGF","A (JV first)","study_1 (JV and feedback_list_1)","","Spreadsheet1",1,1,"Screen 1","x3jytl",1,"response","",4916.498,4866.569,4916.498,4916.498,4866.569,4916.498,1,4916.498,0,0,NA,"Single Text Entry","Single Text Entry",2,"object-7",1,NA,"SUPPRF02797"
"3",1692021491652,"14/08/2023 13:58:11",1692025091652,1,"14/08/2023 15:58:11",140743,17,"task-9zlx",NA,31177613,9242705,NA,"complete",NA,"64da33cb039cd8a237b8ae7e","computer","Desktop or Laptop","Windows 10","Chrome 115.0.0.0","1280x720","1280x571",NA,NA,0,"Exit task",3,"ABJCIDHEGF","A (JV first)","study_1 (JV and feedback_list_1)","","Spreadsheet1",NA,NA,"","",NA,"5","END",NA,NA,NA,NA,NA,NA,0,NA,NA,NA,NA,"","",NA,"",NA,NA,"SUPPRF02797"
"1",1692019876491,"14/08/2023 13:31:16",1692023476491,1,"14/08/2023 15:31:16",140743,17,"task-9zlx",NA,31177202,9242601,NA,"complete",NA,"64da2f985a88203d07bbb784","computer","Desktop or Laptop","Windows 10","Firefox 116.0","2560x1440","2560x1307",NA,NA,0,"Exit task",3,"JAIBHCGDFE","B (Feedback ranking_L1 First)","study_1 (JV and feedback_list_1)","","Spreadsheet1",NA,NA,"","",NA,"5","BEGIN",NA,NA,NA,NA,NA,NA,0,NA,NA,NA,NA,"","",NA,"",NA,NA,"SUPPRF54733"
"2",1692019886986,"14/08/2023 13:31:26",1692023486986,1,"14/08/2023 15:31:26",140743,17,"task-9zlx",NA,31177202,9242601,NA,"complete",NA,"64da2f985a88203d07bbb784","computer","Desktop or Laptop","Windows 10","Firefox 116.0","2560x1440","2560x1307",NA,NA,0,"Exit task",3,"JAIBHCGDFE","B (Feedback ranking_L1 First)","study_1 (JV and feedback_list_1)","","Spreadsheet1",1,1,"Screen 1","x3jytl",1,"response","",10499.64,10495.34,10499.64,10499.64,10495.34,10499.64,1,10499.64,0,0,NA,"Single Text Entry","Single Text Entry",2,"object-7",1,NA,"SUPPRF54733"
"3",1692019886990,"14/08/2023 13:31:26",1692023486990,1,"14/08/2023 15:31:26",140743,17,"task-9zlx",NA,31177202,9242601,NA,"complete",NA,"64da2f985a88203d07bbb784","computer","Desktop or Laptop","Windows 10","Firefox 116.0","2560x1440","2560x1307",NA,NA,0,"Exit task",3,"JAIBHCGDFE","B (Feedback ranking_L1 First)","study_1 (JV and feedback_list_1)","","Spreadsheet1",NA,NA,"","",NA,"5","END",NA,NA,NA,NA,NA,NA,0,NA,NA,NA,NA,"","",NA,"",NA,NA,"SUPPRF54733"
"1",1692018248045,"14/08/2023 13:04:08",1692021848045,1,"14/08/2023 15:04:08",140743,17,"task-9zlx",NA,31176642,9242405,NA,"complete",NA,"64da234622c1185dd4ea45b0","computer","Desktop or Laptop","Windows 10","Chrome 115.0.0.0","2048x1152","2048x1074",NA,NA,0,"Exit task",3,"BCADJEIFHG","B (Feedback ranking_L1 First)","study_1 (JV and feedback_list_1)","","Spreadsheet1",NA,NA,"","",NA,"5","BEGIN",NA,NA,NA,NA,NA,NA,0,NA,NA,NA,NA,"","",NA,"",NA,NA,"SUPPRF26790"
"2",1692018253542,"14/08/2023 13:04:13",1692021853542,1,"14/08/2023 15:04:13",140743,17,"task-9zlx",NA,31176642,9242405,NA,"complete",NA,"64da234622c1185dd4ea45b0","computer","Desktop or Laptop","Windows 10","Chrome 115.0.0.0","2048x1152","2048x1074",NA,NA,0,"Exit task",3,"BCADJEIFHG","B (Feedback ranking_L1 First)","study_1 (JV and feedback_list_1)","","Spreadsheet1",1,1,"Screen 1","x3jytl",1,"response","",6066.09999996424,6054.488,6066.09999996424,6066.09999996424,6054.488,6066.09999996424,1,6066.09999996424,0,0,NA,"Single Text Entry","Single Text Entry",2,"object-7",1,NA,"SUPPRF26790"
"3",1692018253543,"14/08/2023 13:04:13",1692021853543,1,"14/08/2023 15:04:13",140743,17,"task-9zlx",NA,31176642,9242405,NA,"complete",NA,"64da234622c1185dd4ea45b0","computer","Desktop or Laptop","Windows 10","Chrome 115.0.0.0","2048x1152","2048x1074",NA,NA,0,"Exit task",3,"BCADJEIFHG","B (Feedback ranking_L1 First)","study_1 (JV and feedback_list_1)","","Spreadsheet1",NA,NA,"","",NA,"5","END",NA,NA,NA,NA,NA,NA,0,NA,NA,NA,NA,"","",NA,"",NA,NA,"SUPPRF26790"
"1",1692017426520,"14/08/2023 12:50:26",1692021026520,1,"14/08/2023 14:50:26",140743,17,"task-9zlx",NA,31176352,9242502,NA,"complete",NA,"64da2735ae3e62b81bdf7946","computer","Desktop or Laptop","Windows 10","Chrome 115.0.0.0","1280x720","1280x603",NA,NA,0,"Exit task",3,"HIGJFAEBDC","","study_2 (video_feedback and feedback_list_2)","VF_1st","Spreadsheet1",NA,NA,"","",NA,"5","BEGIN",NA,NA,NA,NA,NA,NA,0,NA,NA,NA,NA,"","",NA,"",NA,NA,"SUPPRF05791"
"2",1692017429977,"14/08/2023 12:50:29",1692021029977,1,"14/08/2023 14:50:29",140743,17,"task-9zlx",NA,31176352,9242502,NA,"complete",NA,"64da2735ae3e62b81bdf7946","computer","Desktop or Laptop","Windows 10","Chrome 115.0.0.0","1280x720","1280x603",NA,NA,0,"Exit task",3,"HIGJFAEBDC","","study_2 (video_feedback and feedback_list_2)","VF_1st","Spreadsheet1",1,1,"Screen 1","x3jytl",1,"response","",3496.584,3480,3496.584,3496.584,3480,3496.584,1,3496.584,0,0,NA,"Single Text Entry","Single Text Entry",2,"object-7",1,NA,"SUPPRF05791"
"3",1692017429978,"14/08/2023 12:50:29",1692021029978,1,"14/08/2023 14:50:29",140743,17,"task-9zlx",NA,31176352,9242502,NA,"complete",NA,"64da2735ae3e62b81bdf7946","computer","Desktop or Laptop","Windows 10","Chrome 115.0.0.0","1280x720","1280x603",NA,NA,0,"Exit task",3,"HIGJFAEBDC","","study_2 (video_feedback and feedback_list_2)","VF_1st","Spreadsheet1",NA,NA,"","",NA,"5","END",NA,NA,NA,NA,NA,NA,0,NA,NA,NA,NA,"","",NA,"",NA,NA,"SUPPRF05791"
"1",1692017248852,"14/08/2023 12:47:28",1692020848852,1,"14/08/2023 14:47:28",140743,17,"task-9zlx",NA,31176288,9242486,NA,"complete",NA,"64da2810496ece3b2ddf78ff","computer","Desktop or Laptop","Windows 10","Chrome 115.0.0.0","1280x720","1280x603",NA,NA,0,"Exit task",3,"GHFIEJDACB","A (JV first)","study_1 (JV and feedback_list_1)","","Spreadsheet1",NA,NA,"","",NA,"5","BEGIN",NA,NA,NA,NA,NA,NA,0,NA,NA,NA,NA,"","",NA,"",NA,NA,"SUPPRF83190"
"2",1692017254462,"14/08/2023 12:47:34",1692020854462,1,"14/08/2023 14:47:34",140743,17,"task-9zlx",NA,31176288,9242486,NA,"complete",NA,"64da2810496ece3b2ddf78ff","computer","Desktop or Laptop","Windows 10","Chrome 115.0.0.0","1280x720","1280x603",NA,NA,0,"Exit task",3,"GHFIEJDACB","A (JV first)","study_1 (JV and feedback_list_1)","","Spreadsheet1",1,1,"Screen 1","x3jytl",1,"response","",5618.87099995232,5613.67,5618.87099995232,5618.87099995232,5613.67,5618.87099995232,1,5618.87099995232,0,0,NA,"Single Text Entry","Single Text Entry",2,"object-7",1,NA,"SUPPRF83190"
"3",1692017254463,"14/08/2023 12:47:34",1692020854463,1,"14/08/2023 14:47:34",140743,17,"task-9zlx",NA,31176288,9242486,NA,"complete",NA,"64da2810496ece3b2ddf78ff","computer","Desktop or Laptop","Windows 10","Chrome 115.0.0.0","1280x720","1280x603",NA,NA,0,"Exit task",3,"GHFIEJDACB","A (JV first)","study_1 (JV and feedback_list_1)","","Spreadsheet1",NA,NA,"","",NA,"5","END",NA,NA,NA,NA,NA,NA,0,NA,NA,NA,NA,"","",NA,"",NA,NA,"SUPPRF83190"
"1",1692016060267,"14/08/2023 12:27:40",1692019660267,1,"14/08/2023 14:27:40",140743,17,"task-9zlx",NA,31175862,9242421,NA,"complete",NA,"64da2331d1c99ce54caf7f00","computer","Desktop or Laptop","Windows 10","Chrome 115.0.0.0","1280x720","1280x595",NA,NA,0,"Exit task",3,"DECFBGAHJI","","study_2 (video_feedback and feedback_list_2)","VF_1st","Spreadsheet1",NA,NA,"","",NA,"5","BEGIN",NA,NA,NA,NA,NA,NA,0,NA,NA,NA,NA,"","",NA,"",NA,NA,"SUPPRF01065"
"2",1692016063589,"14/08/2023 12:27:43",1692019663589,1,"14/08/2023 14:27:43",140743,17,"task-9zlx",NA,31175862,9242421,NA,"complete",NA,"64da2331d1c99ce54caf7f00","computer","Desktop or Laptop","Windows 10","Chrome 115.0.0.0","1280x720","1280x595",NA,NA,0,"Exit task",3,"DECFBGAHJI","","study_2 (video_feedback and feedback_list_2)","VF_1st","Spreadsheet1",1,1,"Screen 1","x3jytl",1,"response","",3329.2,3316.433,3329.2,3329.2,3316.433,3329.2,1,3329.2,0,0,NA,"Single Text Entry","Single Text Entry",2,"object-7",1,NA,"SUPPRF01065"
"3",1692016063589,"14/08/2023 12:27:43",1692019663589,1,"14/08/2023 14:27:43",140743,17,"task-9zlx",NA,31175862,9242421,NA,"complete",NA,"64da2331d1c99ce54caf7f00","computer","Desktop or Laptop","Windows 10","Chrome 115.0.0.0","1280x720","1280x595",NA,NA,0,"Exit task",3,"DECFBGAHJI","","study_2 (video_feedback and feedback_list_2)","VF_1st","Spreadsheet1",NA,NA,"","",NA,"5","END",NA,NA,NA,NA,NA,NA,0,NA,NA,NA,NA,"","",NA,"",NA,NA,"SUPPRF01065"
"1",1692015259296,"14/08/2023 12:14:19",1692018859296,1,"14/08/2023 14:14:19",140743,17,"task-9zlx",NA,31175589,9242371,NA,"complete",NA,"64da21b55d753010d019b257","computer","Desktop or Laptop","Mac OS 10.15.7","Chrome 115.0.0.0","1440x900","1440x789",NA,NA,0,"Exit task",3,"ABJCIDHEGF","","study_2 (video_feedback and feedback_list_2)","Feedback_ranking_L2_first","Spreadsheet1",NA,NA,"","",NA,"5","BEGIN",NA,NA,NA,NA,NA,NA,0,NA,NA,NA,NA,"","",NA,"",NA,NA,"SUPPRF71024"
"2",1692015264652,"14/08/2023 12:14:24",1692018864652,1,"14/08/2023 14:14:24",140743,17,"task-9zlx",NA,31175589,9242371,NA,"complete",NA,"64da21b55d753010d019b257","computer","Desktop or Laptop","Mac OS 10.15.7","Chrome 115.0.0.0","1440x900","1440x789",NA,NA,0,"Exit task",3,"ABJCIDHEGF","","study_2 (video_feedback and feedback_list_2)","Feedback_ranking_L2_first","Spreadsheet1",1,1,"Screen 1","x3jytl",1,"response","",5371.56699999991,5357.567,5371.56699999991,5371.56699999991,5357.567,5371.56699999991,1,5371.56699999991,0,0,NA,"Single Text Entry","Single Text Entry",2,"object-7",1,NA,"SUPPRF71024"
"3",1692015264653,"14/08/2023 12:14:24",1692018864653,1,"14/08/2023 14:14:24",140743,17,"task-9zlx",NA,31175589,9242371,NA,"complete",NA,"64da21b55d753010d019b257","computer","Desktop or Laptop","Mac OS 10.15.7","Chrome 115.0.0.0","1440x900","1440x789",NA,NA,0,"Exit task",3,"ABJCIDHEGF","","study_2 (video_feedback and feedback_list_2)","Feedback_ranking_L2_first","Spreadsheet1",NA,NA,"","",NA,"5","END",NA,NA,NA,NA,NA,NA,0,NA,NA,NA,NA,"","",NA,"",NA,NA,"SUPPRF71024"
"1",1692008765211,"14/08/2023 10:26:05",1692012365211,1,"14/08/2023 12:26:05",140743,17,"task-9zlx",NA,31173387,9241865,NA,"complete",NA,"64da04919351a898f9c3ea48","computer","Desktop or Laptop","Windows 10","Chrome 115.0.0.0","1920x1080","1465x945",NA,NA,0,"Exit task",3,"IJHAGBFCED","A (JV first)","study_1 (JV and feedback_list_1)","","Spreadsheet1",NA,NA,"","",NA,"5","BEGIN",NA,NA,NA,NA,NA,NA,0,NA,NA,NA,NA,"","",NA,"",NA,NA,"SUPPRF41746"
"2",1692008769656,"14/08/2023 10:26:09",1692012369656,1,"14/08/2023 12:26:09",140743,17,"task-9zlx",NA,31173387,9241865,NA,"complete",NA,"64da04919351a898f9c3ea48","computer","Desktop or Laptop","Windows 10","Chrome 115.0.0.0","1920x1080","1465x945",NA,NA,0,"Exit task",3,"IJHAGBFCED","A (JV first)","study_1 (JV and feedback_list_1)","","Spreadsheet1",1,1,"Screen 1","x3jytl",1,"response","",4466.328,4449.684,4466.328,4466.328,4449.684,4466.328,1,4466.328,0,0,NA,"Single Text Entry","Single Text Entry",2,"object-7",1,NA,"SUPPRF41746"
"3",1692008769658,"14/08/2023 10:26:09",1692012369658,1,"14/08/2023 12:26:09",140743,17,"task-9zlx",NA,31173387,9241865,NA,"complete",NA,"64da04919351a898f9c3ea48","computer","Desktop or Laptop","Windows 10","Chrome 115.0.0.0","1920x1080","1465x945",NA,NA,0,"Exit task",3,"IJHAGBFCED","A (JV first)","study_1 (JV and feedback_list_1)","","Spreadsheet1",NA,NA,"","",NA,"5","END",NA,NA,NA,NA,NA,NA,0,NA,NA,NA,NA,"","",NA,"",NA,NA,"SUPPRF41746"
"1",1692008346213,"14/08/2023 10:19:06",1692011946213,1,"14/08/2023 12:19:06",140743,17,"task-9zlx",NA,31173303,9241751,NA,"complete",NA,"64d9ff3c7251de5e68eab8bb","computer","Desktop or Laptop","Windows 10","Chrome 115.0.0.0","1536x864","1536x747",NA,NA,0,"Exit task",3,"EFDGCHBIAJ","B (Feedback ranking_L1 First)","study_1 (JV and feedback_list_1)","","Spreadsheet1",NA,NA,"","",NA,"5","BEGIN",NA,NA,NA,NA,NA,NA,0,NA,NA,NA,NA,"","",NA,"",NA,NA,"SUPPRF73133"
"2",1692008349257,"14/08/2023 10:19:09",1692011949257,1,"14/08/2023 12:19:09",140743,17,"task-9zlx",NA,31173303,9241751,NA,"complete",NA,"64d9ff3c7251de5e68eab8bb","computer","Desktop or Laptop","Windows 10","Chrome 115.0.0.0","1536x864","1536x747",NA,NA,0,"Exit task",3,"EFDGCHBIAJ","B (Feedback ranking_L1 First)","study_1 (JV and feedback_list_1)","","Spreadsheet1",1,1,"Screen 1","x3jytl",1,"response","",3062.26400001788,3046.699,3062.26400001788,3062.26400001788,3046.699,3062.26400001788,1,3062.26400001788,0,0,NA,"Single Text Entry","Single Text Entry",2,"object-7",1,NA,"SUPPRF73133"
"3",1692008349258,"14/08/2023 10:19:09",1692011949258,1,"14/08/2023 12:19:09",140743,17,"task-9zlx",NA,31173303,9241751,NA,"complete",NA,"64d9ff3c7251de5e68eab8bb","computer","Desktop or Laptop","Windows 10","Chrome 115.0.0.0","1536x864","1536x747",NA,NA,0,"Exit task",3,"EFDGCHBIAJ","B (Feedback ranking_L1 First)","study_1 (JV and feedback_list_1)","","Spreadsheet1",NA,NA,"","",NA,"5","END",NA,NA,NA,NA,NA,NA,0,NA,NA,NA,NA,"","",NA,"",NA,NA,"SUPPRF73133"
"1",1692008191182,"14/08/2023 10:16:31",1692011791182,1,"14/08/2023 12:16:31",140743,17,"task-9zlx",NA,31173260,9241854,NA,"complete",NA,"64da041f0e6d392fff657804","computer","Desktop or Laptop","Mac OS 10.15.7","Safari 16.5.1","1440x900","1212x795",NA,NA,0,"Exit task",3,"HIGJFAEBDC","A (JV first)","study_1 (JV and feedback_list_1)","","Spreadsheet1",NA,NA,"","",NA,"5","BEGIN",NA,NA,NA,NA,NA,NA,0,NA,NA,NA,NA,"","",NA,"",NA,NA,"SUPPRF15001"
"2",1692008198893,"14/08/2023 10:16:38",1692011798893,1,"14/08/2023 12:16:38",140743,17,"task-9zlx",NA,31173260,9241854,NA,"complete",NA,"64da041f0e6d392fff657804","computer","Desktop or Laptop","Mac OS 10.15.7","Safari 16.5.1","1440x900","1212x795",NA,NA,0,"Exit task",3,"HIGJFAEBDC","A (JV first)","study_1 (JV and feedback_list_1)","","Spreadsheet1",1,1,"Screen 1","x3jytl",1,"response","no.",6809,8609,8623,6809,8609,8623,1,6809,1814,0,NA,"Single Text Entry","Single Text Entry",2,"object-7",1,NA,"SUPPRF15001"
"3",1692008198894,"14/08/2023 10:16:38",1692011798894,1,"14/08/2023 12:16:38",140743,17,"task-9zlx",NA,31173260,9241854,NA,"complete",NA,"64da041f0e6d392fff657804","computer","Desktop or Laptop","Mac OS 10.15.7","Safari 16.5.1","1440x900","1212x795",NA,NA,0,"Exit task",3,"HIGJFAEBDC","A (JV first)","study_1 (JV and feedback_list_1)","","Spreadsheet1",NA,NA,"","",NA,"5","END",NA,NA,NA,NA,NA,NA,0,NA,NA,NA,NA,"","",NA,"",NA,NA,"SUPPRF15001"
"1",1692008174058,"14/08/2023 10:16:14",1692011774058,1,"14/08/2023 12:16:14",140743,17,"task-9zlx",NA,31173258,9241888,NA,"complete",NA,"64da05cb6b98735afb657801","computer","Desktop or Laptop","Windows 10","Chrome 115.0.0.0","1366x768","1366x689",NA,NA,0,"Exit task",3,"JAIBHCGDFE","","study_2 (video_feedback and feedback_list_2)","VF_1st","Spreadsheet1",NA,NA,"","",NA,"5","BEGIN",NA,NA,NA,NA,NA,NA,0,NA,NA,NA,NA,"","",NA,"",NA,NA,"SUPPRF94218"
"2",1692008179309,"14/08/2023 10:16:19",1692011779309,1,"14/08/2023 12:16:19",140743,17,"task-9zlx",NA,31173258,9241888,NA,"complete",NA,"64da05cb6b98735afb657801","computer","Desktop or Laptop","Windows 10","Chrome 115.0.0.0","1366x768","1366x689",NA,NA,0,"Exit task",3,"JAIBHCGDFE","","study_2 (video_feedback and feedback_list_2)","VF_1st","Spreadsheet1",1,1,"Screen 1","x3jytl",1,"response","",5281.70399998212,5266.849,5281.70399998212,5281.70399998212,5266.849,5281.70399998212,1,5281.70399998212,0,0,NA,"Single Text Entry","Single Text Entry",2,"object-7",1,NA,"SUPPRF94218"
"3",1692008179309,"14/08/2023 10:16:19",1692011779309,1,"14/08/2023 12:16:19",140743,17,"task-9zlx",NA,31173258,9241888,NA,"complete",NA,"64da05cb6b98735afb657801","computer","Desktop or Laptop","Windows 10","Chrome 115.0.0.0","1366x768","1366x689",NA,NA,0,"Exit task",3,"JAIBHCGDFE","","study_2 (video_feedback and feedback_list_2)","VF_1st","Spreadsheet1",NA,NA,"","",NA,"5","END",NA,NA,NA,NA,NA,NA,0,NA,NA,NA,NA,"","",NA,"",NA,NA,"SUPPRF94218"
"1",1692007602741,"14/08/2023 10:06:42",1692011202741,1,"14/08/2023 12:06:42",140743,17,"task-9zlx",NA,31173078,9241755,NA,"complete",NA,"64d9ff59202825d1e987df74","tablet","Apple iPad","iOS 16.5","Chrome 115.0.5790.160","810x1080","1080x695",NA,NA,0,"Exit task",3,"ABJCIDHEGF","","study_2 (video_feedback and feedback_list_2)","Feedback_ranking_L2_first","Spreadsheet1",NA,NA,"","",NA,"5","BEGIN",NA,NA,NA,NA,NA,NA,0,NA,NA,NA,NA,"","",NA,"",NA,NA,"SUPPRF13097"
"2",1692007606647,"14/08/2023 10:06:46",1692011206647,1,"14/08/2023 12:06:46",140743,17,"task-9zlx",NA,31173078,9241755,NA,"complete",NA,"64d9ff59202825d1e987df74","tablet","Apple iPad","iOS 16.5","Chrome 115.0.5790.160","810x1080","1080x695",NA,NA,0,"Exit task",3,"ABJCIDHEGF","","study_2 (video_feedback and feedback_list_2)","Feedback_ranking_L2_first","Spreadsheet1",1,1,"Screen 1","x3jytl",1,"response","",3909,3901,3909,3909,3901,3909,1,3909,0,0,NA,"Single Text Entry","Single Text Entry",2,"object-7",1,NA,"SUPPRF13097"
"3",1692007606650,"14/08/2023 10:06:46",1692011206650,1,"14/08/2023 12:06:46",140743,17,"task-9zlx",NA,31173078,9241755,NA,"complete",NA,"64d9ff59202825d1e987df74","tablet","Apple iPad","iOS 16.5","Chrome 115.0.5790.160","810x1080","1080x695",NA,NA,0,"Exit task",3,"ABJCIDHEGF","","study_2 (video_feedback and feedback_list_2)","Feedback_ranking_L2_first","Spreadsheet1",NA,NA,"","",NA,"5","END",NA,NA,NA,NA,NA,NA,0,NA,NA,NA,NA,"","",NA,"",NA,NA,"SUPPRF13097"
"1",1692007438079,"14/08/2023 10:03:58",1692011038079,1,"14/08/2023 12:03:58",140743,17,"task-9zlx",NA,31173017,9241761,NA,"complete",NA,"64d9ff8d839c19319fab2911","computer","Desktop or Laptop","Windows 10","Chrome 115.0.0.0","1536x864","1536x707",NA,NA,0,"Exit task",3,"BCADJEIFHG","B (Feedback ranking_L1 First)","study_1 (JV and feedback_list_1)","","Spreadsheet1",NA,NA,"","",NA,"5","BEGIN",NA,NA,NA,NA,NA,NA,0,NA,NA,NA,NA,"","",NA,"",NA,NA,"SUPPRF18538"
"2",1692007442848,"14/08/2023 10:04:02",1692011042848,1,"14/08/2023 12:04:02",140743,17,"task-9zlx",NA,31173017,9241761,NA,"complete",NA,"64d9ff8d839c19319fab2911","computer","Desktop or Laptop","Windows 10","Chrome 115.0.0.0","1536x864","1536x707",NA,NA,0,"Exit task",3,"BCADJEIFHG","B (Feedback ranking_L1 First)","study_1 (JV and feedback_list_1)","","Spreadsheet1",1,1,"Screen 1","x3jytl",1,"response","",4784.476,4778.357,4784.476,4784.476,4778.357,4784.476,1,4784.476,0,0,NA,"Single Text Entry","Single Text Entry",2,"object-7",1,NA,"SUPPRF18538"
"3",1692007442848,"14/08/2023 10:04:02",1692011042848,1,"14/08/2023 12:04:02",140743,17,"task-9zlx",NA,31173017,9241761,NA,"complete",NA,"64d9ff8d839c19319fab2911","computer","Desktop or Laptop","Windows 10","Chrome 115.0.0.0","1536x864","1536x707",NA,NA,0,"Exit task",3,"BCADJEIFHG","B (Feedback ranking_L1 First)","study_1 (JV and feedback_list_1)","","Spreadsheet1",NA,NA,"","",NA,"5","END",NA,NA,NA,NA,NA,NA,0,NA,NA,NA,NA,"","",NA,"",NA,NA,"SUPPRF18538"
"1",1692007217092,"14/08/2023 10:00:17",1692010817092,1,"14/08/2023 12:00:17",140743,17,"task-9zlx",NA,31172949,9241810,NA,"complete",NA,"64da02835a5052b70ee79e36","computer","Desktop or Laptop","Mac OS 10.15.7","Chrome 115.0.0.0","1440x900","1440x815",NA,NA,0,"Exit task",3,"FGEHDICJBA","A (JV first)","study_1 (JV and feedback_list_1)","","Spreadsheet1",NA,NA,"","",NA,"5","BEGIN",NA,NA,NA,NA,NA,NA,0,NA,NA,NA,NA,"","",NA,"",NA,NA,"SUPPRF98941"
"2",1692007219395,"14/08/2023 10:00:19",1692010819395,1,"14/08/2023 12:00:19",140743,17,"task-9zlx",NA,31172949,9241810,NA,"complete",NA,"64da02835a5052b70ee79e36","computer","Desktop or Laptop","Mac OS 10.15.7","Chrome 115.0.0.0","1440x900","1440x815",NA,NA,0,"Exit task",3,"FGEHDICJBA","A (JV first)","study_1 (JV and feedback_list_1)","","Spreadsheet1",1,1,"Screen 1","x3jytl",1,"response","",2329.30200002384,2317.152,2329.30200002384,2329.30200002384,2317.152,2329.30200002384,1,2329.30200002384,0,0,NA,"Single Text Entry","Single Text Entry",2,"object-7",1,NA,"SUPPRF98941"
"3",1692007219396,"14/08/2023 10:00:19",1692010819396,1,"14/08/2023 12:00:19",140743,17,"task-9zlx",NA,31172949,9241810,NA,"complete",NA,"64da02835a5052b70ee79e36","computer","Desktop or Laptop","Mac OS 10.15.7","Chrome 115.0.0.0","1440x900","1440x815",NA,NA,0,"Exit task",3,"FGEHDICJBA","A (JV first)","study_1 (JV and feedback_list_1)","","Spreadsheet1",NA,NA,"","",NA,"5","END",NA,NA,NA,NA,NA,NA,0,NA,NA,NA,NA,"","",NA,"",NA,NA,"SUPPRF98941"
"1",1692007148172,"14/08/2023 09:59:08",1692010748172,1,"14/08/2023 11:59:08",140743,17,"task-9zlx",NA,31172928,9241820,NA,"complete",NA,"64da01617f4e2f7acbe39dd7","computer","Desktop or Laptop","Windows 10","Chrome 115.0.0.0","1536x864","1536x747",NA,NA,0,"Exit task",3,"GHFIEJDACB","","study_2 (video_feedback and feedback_list_2)","VF_1st","Spreadsheet1",NA,NA,"","",NA,"5","BEGIN",NA,NA,NA,NA,NA,NA,0,NA,NA,NA,NA,"","",NA,"",NA,NA,"SUPPRF56705"
"2",1692007651258,"14/08/2023 10:07:31",1692011251258,1,"14/08/2023 12:07:31",140743,17,"task-9zlx",NA,31172928,9241820,NA,"complete",NA,"64da01617f4e2f7acbe39dd7","computer","Desktop or Laptop","Windows 10","Chrome 115.0.0.0","1536x864","1536x747",NA,NA,0,"Exit task",3,"GHFIEJDACB","","study_2 (video_feedback and feedback_list_2)","VF_1st","Spreadsheet1",1,1,"Screen 1","x3jytl",1,"response","",503099.424999988,503087.909,503099.424999988,503099.424999988,503087.909,503099.424999988,1,503099.424999988,0,0,NA,"Single Text Entry","Single Text Entry",2,"object-7",1,NA,"SUPPRF56705"
"3",1692007651262,"14/08/2023 10:07:31",1692011251262,1,"14/08/2023 12:07:31",140743,17,"task-9zlx",NA,31172928,9241820,NA,"complete",NA,"64da01617f4e2f7acbe39dd7","computer","Desktop or Laptop","Windows 10","Chrome 115.0.0.0","1536x864","1536x747",NA,NA,0,"Exit task",3,"GHFIEJDACB","","study_2 (video_feedback and feedback_list_2)","VF_1st","Spreadsheet1",NA,NA,"","",NA,"5","END",NA,NA,NA,NA,NA,NA,0,NA,NA,NA,NA,"","",NA,"",NA,NA,"SUPPRF56705"
"1",1692006962898,"14/08/2023 09:56:02",1692010562898,1,"14/08/2023 11:56:02",140743,17,"task-9zlx",NA,31172876,9241773,NA,"complete",NA,"64da000bb77c30175cda1703","computer","Desktop or Laptop","Mac OS 10.15.7","Safari 16.6","810x1080","1080x707",NA,NA,0,"Exit task",3,"DECFBGAHJI","","study_2 (video_feedback and feedback_list_2)","VF_1st","Spreadsheet1",NA,NA,"","",NA,"5","BEGIN",NA,NA,NA,NA,NA,NA,0,NA,NA,NA,NA,"","",NA,"",NA,NA,"SUPPRF20908"
"2",1692006973584,"14/08/2023 09:56:13",1692010573584,1,"14/08/2023 11:56:13",140743,17,"task-9zlx",NA,31172876,9241773,NA,"complete",NA,"64da000bb77c30175cda1703","computer","Desktop or Laptop","Mac OS 10.15.7","Safari 16.6","810x1080","1080x327",NA,NA,0,"Exit task",3,"DECFBGAHJI","","study_2 (video_feedback and feedback_list_2)","VF_1st","Spreadsheet1",1,1,"Screen 1","x3jytl",1,"response",NA,8764,10682,10691,8764,10682,10691,1,8764,1927,0,NA,"Single Text Entry","Single Text Entry",2,"object-7",1,NA,"SUPPRF20908"
"3",1692006973590,"14/08/2023 09:56:13",1692010573590,1,"14/08/2023 11:56:13",140743,17,"task-9zlx",NA,31172876,9241773,NA,"complete",NA,"64da000bb77c30175cda1703","computer","Desktop or Laptop","Mac OS 10.15.7","Safari 16.6","810x1080","1080x327",NA,NA,0,"Exit task",3,"DECFBGAHJI","","study_2 (video_feedback and feedback_list_2)","VF_1st","Spreadsheet1",NA,NA,"","",NA,"5","END",NA,NA,NA,NA,NA,NA,0,NA,NA,NA,NA,"","",NA,"",NA,NA,"SUPPRF20908"
