"Event.Index","UTC.Timestamp","UTC.Date.and.Time","Local.Timestamp","Local.Timezone","Local.Date.and.Time","Experiment.ID","Experiment.Version","Tree.Node.Key","Repeat.Key","Schedule.ID","Participant.Private.ID","Participant.Starting.Group","Participant.Status","Participant.Completion.Code","Participant.Device.Type","Participant.Device","Participant.OS","Participant.Browser","Participant.Monitor.Size","Participant.Viewport.Size","Checkpoint","Room.ID","Room.Order","Task.Name","Task.Version","order.ot79","branch.g31k","branch.5gtn","Spreadsheet","Current.Spreadsheet","Trial.Number","Display","Screen","Screen.ID","Screen.Counter","Response.Type","Response","Onset.Time","Clock.Time","Reaction.Time","Absolute.Onset.Time","Absolute.Clock.Time","Absolute.Reaction.Time","Correct","Response.Onset","Response.Duration","Proportion","Tag","Component.Name","Object.Name","Object.Number","Object.ID","Spreadsheet..display","Manipulation..Spreadsheet","Random_ID_new"
"1",1718723197546,"18/06/2024 15:06:37",1718726797546,1,"18/06/2024 17:06:37",180348,2,"task-7hcp",NA,38357260,11274195,NA,"complete",NA,"computer","Desktop or Laptop","Mac OS 10.15.7","Chrome 116.0.0.0","1440x900","1440x783",NA,NA,0,"BIQ (Charlotte)",5,"ABICHDGEF","Passed AC2","","Spreadsheet1","Spreadsheet1",NA,"","","",NA,"info","BEGIN",NA,NA,NA,NA,NA,NA,0,NA,NA,NA,NA,"","",NA,"","",NA,"SUPLCM91602"
"2",1718723207542,"18/06/2024 15:06:47",1718726807542,1,"18/06/2024 17:06:47",180348,2,"task-7hcp",NA,38357260,11274195,NA,"complete",NA,"computer","Desktop or Laptop","Mac OS 10.15.7","Chrome 116.0.0.0","1440x900","1440x783",NA,NA,0,"BIQ (Charlotte)",5,"ABICHDGEF","Passed AC2","","Spreadsheet1","Spreadsheet1",1,"BIQ","Screen 1","9dh6eq",1,"continue","",10019.2349999642,10000.696,10019.2349999642,10019.2349999642,10000.696,10019.2349999642,1,10019.2349999642,0,0,NA,"Click To Continue","Continue Button",16,"object-48","BIQ",NA,"SUPLCM91602"
"3",1718723207543,"18/06/2024 15:06:47",1718726807543,1,"18/06/2024 17:06:47",180348,2,"task-7hcp",NA,38357260,11274195,NA,"complete",NA,"computer","Desktop or Laptop","Mac OS 10.15.7","Chrome 116.0.0.0","1440x900","1440x783",NA,NA,0,"BIQ (Charlotte)",5,"ABICHDGEF","Passed AC2","","Spreadsheet1","Spreadsheet1",1,"BIQ","Screen 1","9dh6eq",1,"response","3",3966.746,10000.696,10021.7349999642,3966.746,10000.696,10021.7349999642,1,3966.746,6054.98899996424,0,NA,"Rating Scale","Rating Scale",3,"object-5","BIQ",NA,"SUPLCM91602"
"4",1718723207544,"18/06/2024 15:06:47",1718726807544,1,"18/06/2024 17:06:47",180348,2,"task-7hcp",NA,38357260,11274195,NA,"complete",NA,"computer","Desktop or Laptop","Mac OS 10.15.7","Chrome 116.0.0.0","1440x900","1440x783",NA,NA,0,"BIQ (Charlotte)",5,"ABICHDGEF","Passed AC2","","Spreadsheet1","Spreadsheet1",1,"BIQ","Screen 1","9dh6eq",1,"response","4",9334.016,10000.696,10022.4349999523,9334.016,10000.696,10022.4349999523,1,9334.016,688.418999952317,0,NA,"Rating Scale","Rating Scale",10,"object-18","BIQ",NA,"SUPLCM91602"
"5",1718723213725,"18/06/2024 15:06:53",1718726813725,1,"18/06/2024 17:06:53",180348,2,"task-7hcp",NA,38357260,11274195,NA,"complete",NA,"computer","Desktop or Laptop","Mac OS 10.15.7","Chrome 116.0.0.0","1440x900","1440x783",NA,NA,0,"BIQ (Charlotte)",5,"ABICHDGEF","Passed AC2","","Spreadsheet1","Spreadsheet1",1,"BIQ","Screen 2","svpz34",2,"continue","",6200.124,6166.79,6200.124,6200.124,6166.79,6200.124,1,6200.124,0,0,NA,"Click To Continue","Continue Button",7,"object-1017","BIQ",NA,"SUPLCM91602"
"6",1718723213730,"18/06/2024 15:06:53",1718726813730,1,"18/06/2024 17:06:53",180348,2,"task-7hcp",NA,38357260,11274195,NA,"complete",NA,"computer","Desktop or Laptop","Mac OS 10.15.7","Chrome 116.0.0.0","1440x900","1440x783",NA,NA,0,"BIQ (Charlotte)",5,"ABICHDGEF","Passed AC2","","Spreadsheet1","Spreadsheet1",1,"BIQ","Screen 2","svpz34",2,"response","5",2933.392,6166.79,6200.124,2933.392,6166.79,6200.124,1,2933.392,3266.732,0,NA,"Rating Scale","Rating Scale",8,"object-118","BIQ",NA,"SUPLCM91602"
"7",1718723213730,"18/06/2024 15:06:53",1718726813730,1,"18/06/2024 17:06:53",180348,2,"task-7hcp",NA,38357260,11274195,NA,"complete",NA,"computer","Desktop or Laptop","Mac OS 10.15.7","Chrome 116.0.0.0","1440x900","1440x783",NA,NA,0,"BIQ (Charlotte)",5,"ABICHDGEF","Passed AC2","","Spreadsheet1","Spreadsheet1",1,"BIQ","Screen 2","svpz34",2,"response","4",5433.442,6166.79,6200.124,5433.442,6166.79,6200.124,1,5433.442,766.681999999997,0,NA,"Rating Scale","Rating Scale",10,"object-121","BIQ",NA,"SUPLCM91602"
"8",1718723224254,"18/06/2024 15:07:04",1718726824254,1,"18/06/2024 17:07:04",180348,2,"task-7hcp",NA,38357260,11274195,NA,"complete",NA,"computer","Desktop or Laptop","Mac OS 10.15.7","Chrome 116.0.0.0","1440x900","1440x783",NA,NA,0,"BIQ (Charlotte)",5,"ABICHDGEF","Passed AC2","","Spreadsheet1","Spreadsheet1",1,"BIQ","Screen 3","o21mwi",3,"continue","",10564.149,10533.938,10564.149,10564.149,10533.938,10564.149,1,10564.149,0,0,NA,"Click To Continue","Continue Button",15,"object-50","BIQ",NA,"SUPLCM91602"
"9",1718723224257,"18/06/2024 15:07:04",1718726824257,1,"18/06/2024 17:07:04",180348,2,"task-7hcp",NA,38357260,11274195,NA,"complete",NA,"computer","Desktop or Laptop","Mac OS 10.15.7","Chrome 116.0.0.0","1440x900","1440x783",NA,NA,0,"BIQ (Charlotte)",5,"ABICHDGEF","Passed AC2","","Spreadsheet1","Spreadsheet1",1,"BIQ","Screen 3","o21mwi",3,"response","5",3733.802,10533.938,10567.272,3733.802,10533.938,10567.272,1,3733.802,6833.47,0,NA,"Rating Scale","Rating Scale",2,"object-36","BIQ",NA,"SUPLCM91602"
"10",1718723224259,"18/06/2024 15:07:04",1718726824259,1,"18/06/2024 17:07:04",180348,2,"task-7hcp",NA,38357260,11274195,NA,"complete",NA,"computer","Desktop or Laptop","Mac OS 10.15.7","Chrome 116.0.0.0","1440x900","1440x783",NA,NA,0,"BIQ (Charlotte)",5,"ABICHDGEF","Passed AC2","","Spreadsheet1","Spreadsheet1",1,"BIQ","Screen 3","o21mwi",3,"response","5",7200.538,10533.938,10567.272,7200.538,10533.938,10567.272,1,7200.538,3366.734,0,NA,"Rating Scale","Rating Scale",9,"object-86","BIQ",NA,"SUPLCM91602"
"11",1718723232966,"18/06/2024 15:07:12",1718726832966,1,"18/06/2024 17:07:12",180348,2,"task-7hcp",NA,38357260,11274195,NA,"complete",NA,"computer","Desktop or Laptop","Mac OS 10.15.7","Chrome 116.0.0.0","1440x900","1440x783",NA,NA,0,"BIQ (Charlotte)",5,"ABICHDGEF","Passed AC2","","Spreadsheet1","Spreadsheet1",1,"BIQ","Screen 4","iz3the",4,"continue","",8742.41099998808,8734.119,8742.41099998808,8742.41099998808,8734.119,8742.41099998808,1,8742.41099998808,0,0,NA,"Click To Continue","Continue Button",22,"object-73","BIQ",NA,"SUPLCM91602"
"12",1718723232967,"18/06/2024 15:07:12",1718726832967,1,"18/06/2024 17:07:12",180348,2,"task-7hcp",NA,38357260,11274195,NA,"complete",NA,"computer","Desktop or Laptop","Mac OS 10.15.7","Chrome 116.0.0.0","1440x900","1440x783",NA,NA,0,"BIQ (Charlotte)",5,"ABICHDGEF","Passed AC2","","Spreadsheet1","Spreadsheet1",1,"BIQ","Screen 4","iz3the",4,"response","3",3200.675,8734.119,8743.41099998808,3200.675,8734.119,8743.41099998808,1,3200.675,5542.73599998808,0,NA,"Rating Scale","Rating Scale",2,"object-53","BIQ",NA,"SUPLCM91602"
"13",1718723232968,"18/06/2024 15:07:12",1718726832968,1,"18/06/2024 17:07:12",180348,2,"task-7hcp",NA,38357260,11274195,NA,"complete",NA,"computer","Desktop or Laptop","Mac OS 10.15.7","Chrome 116.0.0.0","1440x900","1440x783",NA,NA,0,"BIQ (Charlotte)",5,"ABICHDGEF","Passed AC2","","Spreadsheet1","Spreadsheet1",1,"BIQ","Screen 4","iz3the",4,"response","4",5667.391,8734.119,8744.11099997616,5667.391,8734.119,8744.11099997616,1,5667.391,3076.71999997616,0,NA,"Rating Scale","Rating Scale",9,"object-60","BIQ",NA,"SUPLCM91602"
"14",1718723232968,"18/06/2024 15:07:12",1718726832968,1,"18/06/2024 17:07:12",180348,2,"task-7hcp",NA,38357260,11274195,NA,"complete",NA,"computer","Desktop or Laptop","Mac OS 10.15.7","Chrome 116.0.0.0","1440x900","1440x783",NA,NA,0,"BIQ (Charlotte)",5,"ABICHDGEF","Passed AC2","","Spreadsheet1","Spreadsheet1",1,"BIQ","Screen 4","iz3the",4,"response","5",7534.095,8734.119,8744.711,7534.095,8734.119,8744.711,1,7534.095,1210.616,0,NA,"Rating Scale","Rating Scale",16,"object-67","BIQ",NA,"SUPLCM91602"
"15",1718723232971,"18/06/2024 15:07:12",1718726832971,1,"18/06/2024 17:07:12",180348,2,"task-7hcp",NA,38357260,11274195,NA,"complete",NA,"computer","Desktop or Laptop","Mac OS 10.15.7","Chrome 116.0.0.0","1440x900","1440x783",NA,NA,0,"BIQ (Charlotte)",5,"ABICHDGEF","Passed AC2","","Spreadsheet1","Spreadsheet1",NA,"","","",NA,"info","END",NA,NA,NA,NA,NA,NA,0,NA,NA,NA,NA,"","",NA,"","",NA,"SUPLCM91602"
"1",1719321021637,"25/06/2024 13:10:21",1719324621637,1,"25/06/2024 15:10:21",180348,2,"task-7hcp",NA,38483685,11311607,NA,"complete",NA,"computer","Desktop or Laptop","Windows 10","Chrome 126.0.0.0","1280x720","1280x559",NA,NA,0,"BIQ (Charlotte)",5,"CDBEAFIGH","Passed AC2","","Spreadsheet1","Spreadsheet1",NA,"","","",NA,"info","BEGIN",NA,NA,NA,NA,NA,NA,0,NA,NA,NA,NA,"","",NA,"","",NA,"SUPLCM79155"
"2",1719321051797,"25/06/2024 13:10:51",1719324651797,1,"25/06/2024 15:10:51",180348,2,"task-7hcp",NA,38483685,11311607,NA,"complete",NA,"computer","Desktop or Laptop","Windows 10","Chrome 126.0.0.0","1280x720","1280x559",NA,NA,0,"BIQ (Charlotte)",5,"CDBEAFIGH","Passed AC2","","Spreadsheet1","Spreadsheet1",1,"BIQ","Screen 1","9dh6eq",1,"continue","",30173.28,30156.38,30173.28,30173.28,30156.38,30173.28,1,30173.28,0,0,NA,"Click To Continue","Continue Button",16,"object-48","BIQ",NA,"SUPLCM79155"
"3",1719321051803,"25/06/2024 13:10:51",1719324651803,1,"25/06/2024 15:10:51",180348,2,"task-7hcp",NA,38483685,11311607,NA,"complete",NA,"computer","Desktop or Laptop","Windows 10","Chrome 126.0.0.0","1280x720","1280x559",NA,NA,0,"BIQ (Charlotte)",5,"CDBEAFIGH","Passed AC2","","Spreadsheet1","Spreadsheet1",1,"BIQ","Screen 1","9dh6eq",1,"response","5",12445.68,30156.38,30173.28,12445.68,30156.38,30173.28,1,12445.68,17727.6,0,NA,"Rating Scale","Rating Scale",3,"object-5","BIQ",NA,"SUPLCM79155"
"4",1719321051804,"25/06/2024 13:10:51",1719324651804,1,"25/06/2024 15:10:51",180348,2,"task-7hcp",NA,38483685,11311607,NA,"complete",NA,"computer","Desktop or Laptop","Windows 10","Chrome 126.0.0.0","1280x720","1280x559",NA,NA,0,"BIQ (Charlotte)",5,"CDBEAFIGH","Passed AC2","","Spreadsheet1","Spreadsheet1",1,"BIQ","Screen 1","9dh6eq",1,"response","6",25290.98,30156.38,30173.28,25290.98,30156.38,30173.28,1,25290.98,4882.3,0,NA,"Rating Scale","Rating Scale",10,"object-18","BIQ",NA,"SUPLCM79155"
"5",1719321063185,"25/06/2024 13:11:03",1719324663185,1,"25/06/2024 15:11:03",180348,2,"task-7hcp",NA,38483685,11311607,NA,"complete",NA,"computer","Desktop or Laptop","Windows 10","Chrome 126.0.0.0","1280x720","1280x559",NA,NA,0,"BIQ (Charlotte)",5,"CDBEAFIGH","Passed AC2","","Spreadsheet1","Spreadsheet1",1,"BIQ","Screen 2","svpz34",2,"continue","",11418.800000006,11412.4,11418.800000006,11418.800000006,11412.4,11418.800000006,1,11418.800000006,0,0,NA,"Click To Continue","Continue Button",7,"object-1017","BIQ",NA,"SUPLCM79155"
"6",1719321063190,"25/06/2024 13:11:03",1719324663190,1,"25/06/2024 15:11:03",180348,2,"task-7hcp",NA,38483685,11311607,NA,"complete",NA,"computer","Desktop or Laptop","Windows 10","Chrome 126.0.0.0","1280x720","1280x559",NA,NA,0,"BIQ (Charlotte)",5,"CDBEAFIGH","Passed AC2","","Spreadsheet1","Spreadsheet1",1,"BIQ","Screen 2","svpz34",2,"response","1",4381.7,11412.4,11423.9,4381.7,11412.4,11423.9,1,4381.7,7042.2,0,NA,"Rating Scale","Rating Scale",8,"object-118","BIQ",NA,"SUPLCM79155"
"7",1719321063191,"25/06/2024 13:11:03",1719324663191,1,"25/06/2024 15:11:03",180348,2,"task-7hcp",NA,38483685,11311607,NA,"complete",NA,"computer","Desktop or Laptop","Windows 10","Chrome 126.0.0.0","1280x720","1280x559",NA,NA,0,"BIQ (Charlotte)",5,"CDBEAFIGH","Passed AC2","","Spreadsheet1","Spreadsheet1",1,"BIQ","Screen 2","svpz34",2,"response","8",10112.9,11412.4,11425.1000000179,10112.9,11412.4,11425.1000000179,1,10112.9,1312.20000001788,0,NA,"Rating Scale","Rating Scale",10,"object-121","BIQ",NA,"SUPLCM79155"
"8",1719321083251,"25/06/2024 13:11:23",1719324683251,1,"25/06/2024 15:11:23",180348,2,"task-7hcp",NA,38483685,11311607,NA,"complete",NA,"computer","Desktop or Laptop","Windows 10","Chrome 126.0.0.0","1280x720","1280x559",NA,NA,0,"BIQ (Charlotte)",5,"CDBEAFIGH","Passed AC2","","Spreadsheet1","Spreadsheet1",1,"BIQ","Screen 3","o21mwi",3,"continue","",20072.7000000179,20060,20072.7000000179,20072.7000000179,20060,20072.7000000179,1,20072.7000000179,0,0,NA,"Click To Continue","Continue Button",15,"object-50","BIQ",NA,"SUPLCM79155"
"9",1719321083258,"25/06/2024 13:11:23",1719324683258,1,"25/06/2024 15:11:23",180348,2,"task-7hcp",NA,38483685,11311607,NA,"complete",NA,"computer","Desktop or Laptop","Windows 10","Chrome 126.0.0.0","1280x720","1280x559",NA,NA,0,"BIQ (Charlotte)",5,"CDBEAFIGH","Passed AC2","","Spreadsheet1","Spreadsheet1",1,"BIQ","Screen 3","o21mwi",3,"response","2",7614.4,20060,20076.7,7614.4,20060,20076.7,1,7614.4,12462.3,0,NA,"Rating Scale","Rating Scale",2,"object-36","BIQ",NA,"SUPLCM79155"
"10",1719321083259,"25/06/2024 13:11:23",1719324683259,1,"25/06/2024 15:11:23",180348,2,"task-7hcp",NA,38483685,11311607,NA,"complete",NA,"computer","Desktop or Laptop","Windows 10","Chrome 126.0.0.0","1280x720","1280x559",NA,NA,0,"BIQ (Charlotte)",5,"CDBEAFIGH","Passed AC2","","Spreadsheet1","Spreadsheet1",1,"BIQ","Screen 3","o21mwi",3,"response","1",17227.8,20060,20076.7,17227.8,20060,20076.7,1,17227.8,2848.89999999999,0,NA,"Rating Scale","Rating Scale",9,"object-86","BIQ",NA,"SUPLCM79155"
"11",1719321098196,"25/06/2024 13:11:38",1719324698196,1,"25/06/2024 15:11:38",180348,2,"task-7hcp",NA,38483685,11311607,NA,"complete",NA,"computer","Desktop or Laptop","Windows 10","Chrome 126.0.0.0","1280x720","1280x559",NA,NA,0,"BIQ (Charlotte)",5,"CDBEAFIGH","Passed AC2","","Spreadsheet1","Spreadsheet1",1,"BIQ","Screen 4","iz3the",4,"continue","",14957,14944.9,14957,14957,14944.9,14957,1,14957,0,0,NA,"Click To Continue","Continue Button",22,"object-73","BIQ",NA,"SUPLCM79155"
"12",1719321098203,"25/06/2024 13:11:38",1719324698203,1,"25/06/2024 15:11:38",180348,2,"task-7hcp",NA,38483685,11311607,NA,"complete",NA,"computer","Desktop or Laptop","Windows 10","Chrome 126.0.0.0","1280x720","1280x559",NA,NA,0,"BIQ (Charlotte)",5,"CDBEAFIGH","Passed AC2","","Spreadsheet1","Spreadsheet1",1,"BIQ","Screen 4","iz3the",4,"response","0",4948.5,14944.9,14961.6,4948.5,14944.9,14961.6,1,4948.5,10013.1,0,NA,"Rating Scale","Rating Scale",2,"object-53","BIQ",NA,"SUPLCM79155"
"13",1719321098204,"25/06/2024 13:11:38",1719324698204,1,"25/06/2024 15:11:38",180348,2,"task-7hcp",NA,38483685,11311607,NA,"complete",NA,"computer","Desktop or Laptop","Windows 10","Chrome 126.0.0.0","1280x720","1280x559",NA,NA,0,"BIQ (Charlotte)",5,"CDBEAFIGH","Passed AC2","","Spreadsheet1","Spreadsheet1",1,"BIQ","Screen 4","iz3the",4,"response","1",10246.7,14944.9,14961.6,10246.7,14944.9,14961.6,1,10246.7,4714.89999999999,0,NA,"Rating Scale","Rating Scale",9,"object-60","BIQ",NA,"SUPLCM79155"
"14",1719321098204,"25/06/2024 13:11:38",1719324698204,1,"25/06/2024 15:11:38",180348,2,"task-7hcp",NA,38483685,11311607,NA,"complete",NA,"computer","Desktop or Laptop","Windows 10","Chrome 126.0.0.0","1280x720","1280x559",NA,NA,0,"BIQ (Charlotte)",5,"CDBEAFIGH","Passed AC2","","Spreadsheet1","Spreadsheet1",1,"BIQ","Screen 4","iz3the",4,"response","1",13812.1,14944.9,14961.6,13812.1,14944.9,14961.6,1,13812.1,1149.49999999999,0,NA,"Rating Scale","Rating Scale",16,"object-67","BIQ",NA,"SUPLCM79155"
"15",1719321098219,"25/06/2024 13:11:38",1719324698219,1,"25/06/2024 15:11:38",180348,2,"task-7hcp",NA,38483685,11311607,NA,"complete",NA,"computer","Desktop or Laptop","Windows 10","Chrome 126.0.0.0","1280x720","1280x559",NA,NA,0,"BIQ (Charlotte)",5,"CDBEAFIGH","Passed AC2","","Spreadsheet1","Spreadsheet1",NA,"","","",NA,"info","END",NA,NA,NA,NA,NA,NA,0,NA,NA,NA,NA,"","",NA,"","",NA,"SUPLCM79155"
"1",1719495109950,"27/06/2024 13:31:49",1719498709950,1,"27/06/2024 15:31:49",180348,2,"task-7hcp",NA,38536635,11323000,NA,"complete",NA,"computer","Desktop or Laptop","Mac OS 10.15.7","Chrome 125.0.0.0","1440x900","1440x813",NA,NA,0,"BIQ (Charlotte)",5,"EFDGCHBIA","Passed AC2","","Spreadsheet1","Spreadsheet1",NA,"","","",NA,"info","BEGIN",NA,NA,NA,NA,NA,NA,0,NA,NA,NA,NA,"","",NA,"","",NA,"SUPLCM05151"
"2",1719495127169,"27/06/2024 13:32:07",1719498727169,1,"27/06/2024 15:32:07",180348,2,"task-7hcp",NA,38536635,11323000,NA,"complete",NA,"computer","Desktop or Laptop","Mac OS 10.15.7","Chrome 125.0.0.0","1440x900","1440x813",NA,NA,0,"BIQ (Charlotte)",5,"EFDGCHBIA","Passed AC2","","Spreadsheet1","Spreadsheet1",1,"BIQ","Screen 1","9dh6eq",1,"continue","",17233.534,17216.934,17233.534,17233.534,17216.934,17233.534,1,17233.534,0,0,NA,"Click To Continue","Continue Button",16,"object-48","BIQ",NA,"SUPLCM05151"
"3",1719495127172,"27/06/2024 13:32:07",1719498727172,1,"27/06/2024 15:32:07",180348,2,"task-7hcp",NA,38536635,11323000,NA,"complete",NA,"computer","Desktop or Laptop","Mac OS 10.15.7","Chrome 125.0.0.0","1440x900","1440x813",NA,NA,0,"BIQ (Charlotte)",5,"EFDGCHBIA","Passed AC2","","Spreadsheet1","Spreadsheet1",1,"BIQ","Screen 1","9dh6eq",1,"response","4",7016.734,17216.934,17233.534,7016.734,17216.934,17233.534,1,7016.734,10216.8,0,NA,"Rating Scale","Rating Scale",3,"object-5","BIQ",NA,"SUPLCM05151"
"4",1719495127172,"27/06/2024 13:32:07",1719498727172,1,"27/06/2024 15:32:07",180348,2,"task-7hcp",NA,38536635,11323000,NA,"complete",NA,"computer","Desktop or Laptop","Mac OS 10.15.7","Chrome 125.0.0.0","1440x900","1440x813",NA,NA,0,"BIQ (Charlotte)",5,"EFDGCHBIA","Passed AC2","","Spreadsheet1","Spreadsheet1",1,"BIQ","Screen 1","9dh6eq",1,"response","6",14633.534,17216.934,17233.534,14633.534,17216.934,17233.534,1,14633.534,2599.99999999999,0,NA,"Rating Scale","Rating Scale",10,"object-18","BIQ",NA,"SUPLCM05151"
"5",1719495138358,"27/06/2024 13:32:18",1719498738358,1,"27/06/2024 15:32:18",180348,2,"task-7hcp",NA,38536635,11323000,NA,"complete",NA,"computer","Desktop or Laptop","Mac OS 10.15.7","Chrome 125.0.0.0","1440x900","1440x813",NA,NA,0,"BIQ (Charlotte)",5,"EFDGCHBIA","Passed AC2","","Spreadsheet1","Spreadsheet1",1,"BIQ","Screen 2","svpz34",2,"continue","",11215.5999999285,11200.1,11215.5999999285,11215.5999999285,11200.1,11215.5999999285,1,11215.5999999285,0,0,NA,"Click To Continue","Continue Button",7,"object-1017","BIQ",NA,"SUPLCM05151"
"6",1719495138360,"27/06/2024 13:32:18",1719498738360,1,"27/06/2024 15:32:18",180348,2,"task-7hcp",NA,38536635,11323000,NA,"complete",NA,"computer","Desktop or Laptop","Mac OS 10.15.7","Chrome 125.0.0.0","1440x900","1440x813",NA,NA,0,"BIQ (Charlotte)",5,"EFDGCHBIA","Passed AC2","","Spreadsheet1","Spreadsheet1",1,"BIQ","Screen 2","svpz34",2,"response","2",4766.7,11200.1,11216.7,4766.7,11200.1,11216.7,1,4766.7,6450,0,NA,"Rating Scale","Rating Scale",8,"object-118","BIQ",NA,"SUPLCM05151"
"7",1719495138361,"27/06/2024 13:32:18",1719498738361,1,"27/06/2024 15:32:18",180348,2,"task-7hcp",NA,38536635,11323000,NA,"complete",NA,"computer","Desktop or Laptop","Mac OS 10.15.7","Chrome 125.0.0.0","1440x900","1440x813",NA,NA,0,"BIQ (Charlotte)",5,"EFDGCHBIA","Passed AC2","","Spreadsheet1","Spreadsheet1",1,"BIQ","Screen 2","svpz34",2,"response","5",7550.1,11200.1,11216.7,7550.1,11200.1,11216.7,1,7550.1,3666.6,0,NA,"Rating Scale","Rating Scale",10,"object-121","BIQ",NA,"SUPLCM05151"
"8",1719495156609,"27/06/2024 13:32:36",1719498756609,1,"27/06/2024 15:32:36",180348,2,"task-7hcp",NA,38536635,11323000,NA,"complete",NA,"computer","Desktop or Laptop","Mac OS 10.15.7","Chrome 125.0.0.0","1440x900","1440x813",NA,NA,0,"BIQ (Charlotte)",5,"EFDGCHBIA","Passed AC2","","Spreadsheet1","Spreadsheet1",1,"BIQ","Screen 3","o21mwi",3,"continue","",18267.1999999762,18250.3,18267.1999999762,18267.1999999762,18250.3,18267.1999999762,1,18267.1999999762,0,0,NA,"Click To Continue","Continue Button",15,"object-50","BIQ",NA,"SUPLCM05151"
"9",1719495156611,"27/06/2024 13:32:36",1719498756611,1,"27/06/2024 15:32:36",180348,2,"task-7hcp",NA,38536635,11323000,NA,"complete",NA,"computer","Desktop or Laptop","Mac OS 10.15.7","Chrome 125.0.0.0","1440x900","1440x813",NA,NA,0,"BIQ (Charlotte)",5,"EFDGCHBIA","Passed AC2","","Spreadsheet1","Spreadsheet1",1,"BIQ","Screen 3","o21mwi",3,"response","1",4733.4,18250.3,18267.7,4733.4,18250.3,18267.7,1,4733.4,13534.3,0,NA,"Rating Scale","Rating Scale",2,"object-36","BIQ",NA,"SUPLCM05151"
"10",1719495156612,"27/06/2024 13:32:36",1719498756612,1,"27/06/2024 15:32:36",180348,2,"task-7hcp",NA,38536635,11323000,NA,"complete",NA,"computer","Desktop or Laptop","Mac OS 10.15.7","Chrome 125.0.0.0","1440x900","1440x813",NA,NA,0,"BIQ (Charlotte)",5,"EFDGCHBIA","Passed AC2","","Spreadsheet1","Spreadsheet1",1,"BIQ","Screen 3","o21mwi",3,"response","0",11950.3,18250.3,18267.7,11950.3,18250.3,18267.7,1,11950.3,6317.4,0,NA,"Rating Scale","Rating Scale",9,"object-86","BIQ",NA,"SUPLCM05151"
"11",1719495173657,"27/06/2024 13:32:53",1719498773657,1,"27/06/2024 15:32:53",180348,2,"task-7hcp",NA,38536635,11323000,NA,"complete",NA,"computer","Desktop or Laptop","Mac OS 10.15.7","Chrome 125.0.0.0","1440x900","1440x813",NA,NA,0,"BIQ (Charlotte)",5,"EFDGCHBIA","Passed AC2","","Spreadsheet1","Spreadsheet1",1,"BIQ","Screen 4","iz3the",4,"continue","",17064.7999999523,17050.4,17064.7999999523,17064.7999999523,17050.4,17064.7999999523,1,17064.7999999523,0,0,NA,"Click To Continue","Continue Button",22,"object-73","BIQ",NA,"SUPLCM05151"
"12",1719495173659,"27/06/2024 13:32:53",1719498773659,1,"27/06/2024 15:32:53",180348,2,"task-7hcp",NA,38536635,11323000,NA,"complete",NA,"computer","Desktop or Laptop","Mac OS 10.15.7","Chrome 125.0.0.0","1440x900","1440x813",NA,NA,0,"BIQ (Charlotte)",5,"EFDGCHBIA","Passed AC2","","Spreadsheet1","Spreadsheet1",1,"BIQ","Screen 4","iz3the",4,"response","0",4850.1,17050.4,17067.3999999762,4850.1,17050.4,17067.3999999762,1,4850.1,12217.2999999762,0,NA,"Rating Scale","Rating Scale",2,"object-53","BIQ",NA,"SUPLCM05151"
"13",1719495173659,"27/06/2024 13:32:53",1719498773659,1,"27/06/2024 15:32:53",180348,2,"task-7hcp",NA,38536635,11323000,NA,"complete",NA,"computer","Desktop or Laptop","Mac OS 10.15.7","Chrome 125.0.0.0","1440x900","1440x813",NA,NA,0,"BIQ (Charlotte)",5,"EFDGCHBIA","Passed AC2","","Spreadsheet1","Spreadsheet1",1,"BIQ","Screen 4","iz3the",4,"response","2",9350.2,17050.4,17067.5,9350.2,17050.4,17067.5,1,9350.2,7717.3,0,NA,"Rating Scale","Rating Scale",9,"object-60","BIQ",NA,"SUPLCM05151"
"14",1719495173660,"27/06/2024 13:32:53",1719498773660,1,"27/06/2024 15:32:53",180348,2,"task-7hcp",NA,38536635,11323000,NA,"complete",NA,"computer","Desktop or Laptop","Mac OS 10.15.7","Chrome 125.0.0.0","1440x900","1440x813",NA,NA,0,"BIQ (Charlotte)",5,"EFDGCHBIA","Passed AC2","","Spreadsheet1","Spreadsheet1",1,"BIQ","Screen 4","iz3the",4,"response","1",15250.4,17050.4,17067.5,15250.4,17050.4,17067.5,1,15250.4,1817.1,0,NA,"Rating Scale","Rating Scale",16,"object-67","BIQ",NA,"SUPLCM05151"
"15",1719495173665,"27/06/2024 13:32:53",1719498773665,1,"27/06/2024 15:32:53",180348,2,"task-7hcp",NA,38536635,11323000,NA,"complete",NA,"computer","Desktop or Laptop","Mac OS 10.15.7","Chrome 125.0.0.0","1440x900","1440x813",NA,NA,0,"BIQ (Charlotte)",5,"EFDGCHBIA","Passed AC2","","Spreadsheet1","Spreadsheet1",NA,"","","",NA,"info","END",NA,NA,NA,NA,NA,NA,0,NA,NA,NA,NA,"","",NA,"","",NA,"SUPLCM05151"
"1",1721990071300,"26/07/2024 10:34:31",1721993671300,1,"26/07/2024 12:34:31",180348,2,"task-7hcp",NA,39214321,11503602,NA,"complete",NA,"computer","Desktop or Laptop","Windows 10","Chrome 127.0.0.0","1707x1067","1707x898",NA,NA,0,"BIQ (Charlotte)",5,"EFDGCHBIA","Passed AC2","","Spreadsheet1","Spreadsheet1",NA,"","","",NA,"info","BEGIN",NA,NA,NA,NA,NA,NA,0,NA,NA,NA,NA,"","",NA,"","",NA,"SUPLCM14619"
"2",1721990099356,"26/07/2024 10:34:59",1721993699356,1,"26/07/2024 12:34:59",180348,2,"task-7hcp",NA,39214321,11503602,NA,"complete",NA,"computer","Desktop or Laptop","Windows 10","Chrome 127.0.0.0","1707x1067","1707x898",NA,NA,0,"BIQ (Charlotte)",5,"EFDGCHBIA","Passed AC2","","Spreadsheet1","Spreadsheet1",1,"BIQ","Screen 1","9dh6eq",1,"continue","",28937.7,28933.5,28937.7,28937.7,28933.5,28937.7,1,28937.7,0,0,NA,"Click To Continue","Continue Button",16,"object-48","BIQ",NA,"SUPLCM14619"
"3",1721990099357,"26/07/2024 10:34:59",1721993699357,1,"26/07/2024 12:34:59",180348,2,"task-7hcp",NA,39214321,11503602,NA,"complete",NA,"computer","Desktop or Laptop","Windows 10","Chrome 127.0.0.0","1707x1067","1707x898",NA,NA,0,"BIQ (Charlotte)",5,"EFDGCHBIA","Passed AC2","","Spreadsheet1","Spreadsheet1",1,"BIQ","Screen 1","9dh6eq",1,"response","6",19139.9,28933.5,28939.1,19139.9,28933.5,28939.1,1,19139.9,9799.19999999998,0,NA,"Rating Scale","Rating Scale",3,"object-5","BIQ",NA,"SUPLCM14619"
"4",1721990099357,"26/07/2024 10:34:59",1721993699357,1,"26/07/2024 12:34:59",180348,2,"task-7hcp",NA,39214321,11503602,NA,"complete",NA,"computer","Desktop or Laptop","Windows 10","Chrome 127.0.0.0","1707x1067","1707x898",NA,NA,0,"BIQ (Charlotte)",5,"EFDGCHBIA","Passed AC2","","Spreadsheet1","Spreadsheet1",1,"BIQ","Screen 1","9dh6eq",1,"response","4",27915.5,28933.5,28939.2999999999,27915.5,28933.5,28939.2999999999,1,27915.5,1023.79999999993,0,NA,"Rating Scale","Rating Scale",10,"object-18","BIQ",NA,"SUPLCM14619"
"5",1721990115767,"26/07/2024 10:35:15",1721993715767,1,"26/07/2024 12:35:15",180348,2,"task-7hcp",NA,39214321,11503602,NA,"complete",NA,"computer","Desktop or Laptop","Windows 10","Chrome 127.0.0.0","1707x1067","1707x898",NA,NA,0,"BIQ (Charlotte)",5,"EFDGCHBIA","Passed AC2","","Spreadsheet1","Spreadsheet1",1,"BIQ","Screen 2","svpz34",2,"continue","",16416.5,16411.7,16416.5,16416.5,16411.7,16416.5,1,16416.5,0,0,NA,"Click To Continue","Continue Button",7,"object-1017","BIQ",NA,"SUPLCM14619"
"6",1721990115769,"26/07/2024 10:35:15",1721993715769,1,"26/07/2024 12:35:15",180348,2,"task-7hcp",NA,39214321,11503602,NA,"complete",NA,"computer","Desktop or Laptop","Windows 10","Chrome 127.0.0.0","1707x1067","1707x898",NA,NA,0,"BIQ (Charlotte)",5,"EFDGCHBIA","Passed AC2","","Spreadsheet1","Spreadsheet1",1,"BIQ","Screen 2","svpz34",2,"response","3",7296.9,16411.7,16417.7,7296.9,16411.7,16417.7,1,7296.9,9120.79999999995,0,NA,"Rating Scale","Rating Scale",8,"object-118","BIQ",NA,"SUPLCM14619"
"7",1721990115769,"26/07/2024 10:35:15",1721993715769,1,"26/07/2024 12:35:15",180348,2,"task-7hcp",NA,39214321,11503602,NA,"complete",NA,"computer","Desktop or Laptop","Windows 10","Chrome 127.0.0.0","1707x1067","1707x898",NA,NA,0,"BIQ (Charlotte)",5,"EFDGCHBIA","Passed AC2","","Spreadsheet1","Spreadsheet1",1,"BIQ","Screen 2","svpz34",2,"response","6",15654.3,16411.7,16417.7,15654.3,16411.7,16417.7,1,15654.3,763.399999999994,0,NA,"Rating Scale","Rating Scale",10,"object-121","BIQ",NA,"SUPLCM14619"
"8",1721990136906,"26/07/2024 10:35:36",1721993736906,1,"26/07/2024 12:35:36",180348,2,"task-7hcp",NA,39214321,11503602,NA,"complete",NA,"computer","Desktop or Laptop","Windows 10","Chrome 127.0.0.0","1707x1067","1707x898",NA,NA,0,"BIQ (Charlotte)",5,"EFDGCHBIA","Passed AC2","","Spreadsheet1","Spreadsheet1",1,"BIQ","Screen 3","o21mwi",3,"continue","",21143,21138.9,21143,21143,21138.9,21143,1,21143,0,0,NA,"Click To Continue","Continue Button",15,"object-50","BIQ",NA,"SUPLCM14619"
"9",1721990136907,"26/07/2024 10:35:36",1721993736907,1,"26/07/2024 12:35:36",180348,2,"task-7hcp",NA,39214321,11503602,NA,"complete",NA,"computer","Desktop or Laptop","Windows 10","Chrome 127.0.0.0","1707x1067","1707x898",NA,NA,0,"BIQ (Charlotte)",5,"EFDGCHBIA","Passed AC2","","Spreadsheet1","Spreadsheet1",1,"BIQ","Screen 3","o21mwi",3,"response","2",14866.6,21138.9,21144.1999999999,14866.6,21138.9,21144.1999999999,1,14866.6,6277.5999999999,0,NA,"Rating Scale","Rating Scale",2,"object-36","BIQ",NA,"SUPLCM14619"
"10",1721990136907,"26/07/2024 10:35:36",1721993736907,1,"26/07/2024 12:35:36",180348,2,"task-7hcp",NA,39214321,11503602,NA,"complete",NA,"computer","Desktop or Laptop","Windows 10","Chrome 127.0.0.0","1707x1067","1707x898",NA,NA,0,"BIQ (Charlotte)",5,"EFDGCHBIA","Passed AC2","","Spreadsheet1","Spreadsheet1",1,"BIQ","Screen 3","o21mwi",3,"response","2",20545,21138.9,21144.4,20545,21138.9,21144.4,1,20545,599.39999999998,0,NA,"Rating Scale","Rating Scale",9,"object-86","BIQ",NA,"SUPLCM14619"
"11",1721990164195,"26/07/2024 10:36:04",1721993764195,1,"26/07/2024 12:36:04",180348,2,"task-7hcp",NA,39214321,11503602,NA,"complete",NA,"computer","Desktop or Laptop","Windows 10","Chrome 127.0.0.0","1707x1067","1707x898",NA,NA,0,"BIQ (Charlotte)",5,"EFDGCHBIA","Passed AC2","","Spreadsheet1","Spreadsheet1",1,"BIQ","Screen 4","iz3the",4,"continue","",27293,27290.4,27293,27293,27290.4,27293,1,27293,0,0,NA,"Click To Continue","Continue Button",22,"object-73","BIQ",NA,"SUPLCM14619"
"12",1721990164196,"26/07/2024 10:36:04",1721993764196,1,"26/07/2024 12:36:04",180348,2,"task-7hcp",NA,39214321,11503602,NA,"complete",NA,"computer","Desktop or Laptop","Windows 10","Chrome 127.0.0.0","1707x1067","1707x898",NA,NA,0,"BIQ (Charlotte)",5,"EFDGCHBIA","Passed AC2","","Spreadsheet1","Spreadsheet1",1,"BIQ","Screen 4","iz3the",4,"response","2",6018.29999999999,27290.4,27294.0999999999,6018.29999999999,27290.4,27294.0999999999,1,6018.29999999999,21275.8,0,NA,"Rating Scale","Rating Scale",2,"object-53","BIQ",NA,"SUPLCM14619"
"13",1721990164196,"26/07/2024 10:36:04",1721993764196,1,"26/07/2024 12:36:04",180348,2,"task-7hcp",NA,39214321,11503602,NA,"complete",NA,"computer","Desktop or Laptop","Windows 10","Chrome 127.0.0.0","1707x1067","1707x898",NA,NA,0,"BIQ (Charlotte)",5,"EFDGCHBIA","Passed AC2","","Spreadsheet1","Spreadsheet1",1,"BIQ","Screen 4","iz3the",4,"response","4",19314.8,27290.4,27294.2999999999,19314.8,27290.4,27294.2999999999,1,19314.8,7979.49999999991,0,NA,"Rating Scale","Rating Scale",9,"object-60","BIQ",NA,"SUPLCM14619"
"14",1721990164196,"26/07/2024 10:36:04",1721993764196,1,"26/07/2024 12:36:04",180348,2,"task-7hcp",NA,39214321,11503602,NA,"complete",NA,"computer","Desktop or Laptop","Windows 10","Chrome 127.0.0.0","1707x1067","1707x898",NA,NA,0,"BIQ (Charlotte)",5,"EFDGCHBIA","Passed AC2","","Spreadsheet1","Spreadsheet1",1,"BIQ","Screen 4","iz3the",4,"response","3",26132.9,27290.4,27294.4,26132.9,27290.4,27294.4,1,26132.9,1161.5,0,NA,"Rating Scale","Rating Scale",16,"object-67","BIQ",NA,"SUPLCM14619"
"15",1721990164198,"26/07/2024 10:36:04",1721993764198,1,"26/07/2024 12:36:04",180348,2,"task-7hcp",NA,39214321,11503602,NA,"complete",NA,"computer","Desktop or Laptop","Windows 10","Chrome 127.0.0.0","1707x1067","1707x898",NA,NA,0,"BIQ (Charlotte)",5,"EFDGCHBIA","Passed AC2","","Spreadsheet1","Spreadsheet1",NA,"","","",NA,"info","END",NA,NA,NA,NA,NA,NA,0,NA,NA,NA,NA,"","",NA,"","",NA,"SUPLCM14619"
"1",1721815720039,"24/07/2024 10:08:40",1721844520039,8,"25/07/2024 02:08:40",180348,2,"task-7hcp",NA,39164615,11491791,NA,"complete",NA,"computer","Desktop or Laptop","Mac OS 10.15.7","Chrome 126.0.0.0","1440x900","1091x702",NA,NA,0,"BIQ (Charlotte)",5,"DECFBGAHI","Passed AC2","","Spreadsheet1","Spreadsheet1",NA,"","","",NA,"info","BEGIN",NA,NA,NA,NA,NA,NA,0,NA,NA,NA,NA,"","",NA,"","",NA,"SUPLCM83190"
"2",1721815733888,"24/07/2024 10:08:53",1721844533888,8,"25/07/2024 02:08:53",180348,2,"task-7hcp",NA,39164615,11491791,NA,"complete",NA,"computer","Desktop or Laptop","Mac OS 10.15.7","Chrome 126.0.0.0","1440x900","1091x702",NA,NA,0,"BIQ (Charlotte)",5,"DECFBGAHI","Passed AC2","","Spreadsheet1","Spreadsheet1",1,"BIQ","Screen 1","9dh6eq",1,"continue","",13867.3,13850.6,13867.3,13867.3,13850.6,13867.3,1,13867.3,0,0,NA,"Click To Continue","Continue Button",16,"object-48","BIQ",NA,"SUPLCM83190"
"3",1721815733890,"24/07/2024 10:08:53",1721844533890,8,"25/07/2024 02:08:53",180348,2,"task-7hcp",NA,39164615,11491791,NA,"complete",NA,"computer","Desktop or Laptop","Mac OS 10.15.7","Chrome 126.0.0.0","1440x900","1091x702",NA,NA,0,"BIQ (Charlotte)",5,"DECFBGAHI","Passed AC2","","Spreadsheet1","Spreadsheet1",1,"BIQ","Screen 1","9dh6eq",1,"response","7",9217.1,13850.6,13867.3,9217.1,13850.6,13867.3,1,9217.1,4650.2,0,NA,"Rating Scale","Rating Scale",3,"object-5","BIQ",NA,"SUPLCM83190"
"4",1721815733891,"24/07/2024 10:08:53",1721844533891,8,"25/07/2024 02:08:53",180348,2,"task-7hcp",NA,39164615,11491791,NA,"complete",NA,"computer","Desktop or Laptop","Mac OS 10.15.7","Chrome 126.0.0.0","1440x900","1091x702",NA,NA,0,"BIQ (Charlotte)",5,"DECFBGAHI","Passed AC2","","Spreadsheet1","Spreadsheet1",1,"BIQ","Screen 1","9dh6eq",1,"response","7",11733.8,13850.6,13867.3,11733.8,13850.6,13867.3,1,11733.8,2133.5,0,NA,"Rating Scale","Rating Scale",10,"object-18","BIQ",NA,"SUPLCM83190"
"5",1721815743246,"24/07/2024 10:09:03",1721844543246,8,"25/07/2024 02:09:03",180348,2,"task-7hcp",NA,39164615,11491791,NA,"complete",NA,"computer","Desktop or Laptop","Mac OS 10.15.7","Chrome 126.0.0.0","1440x900","1091x702",NA,NA,0,"BIQ (Charlotte)",5,"DECFBGAHI","Passed AC2","","Spreadsheet1","Spreadsheet1",1,"BIQ","Screen 2","svpz34",2,"continue","",9380.49999998808,9366.8,9380.49999998808,9380.49999998808,9366.8,9380.49999998808,1,9380.49999998808,0,0,NA,"Click To Continue","Continue Button",7,"object-1017","BIQ",NA,"SUPLCM83190"
"6",1721815743247,"24/07/2024 10:09:03",1721844543247,8,"25/07/2024 02:09:03",180348,2,"task-7hcp",NA,39164615,11491791,NA,"complete",NA,"computer","Desktop or Laptop","Mac OS 10.15.7","Chrome 126.0.0.0","1440x900","1091x702",NA,NA,0,"BIQ (Charlotte)",5,"DECFBGAHI","Passed AC2","","Spreadsheet1","Spreadsheet1",1,"BIQ","Screen 2","svpz34",2,"response","0",3183.3,9366.8,9380.8,3183.3,9366.8,9380.8,1,3183.3,6197.5,0,NA,"Rating Scale","Rating Scale",8,"object-118","BIQ",NA,"SUPLCM83190"
"7",1721815743247,"24/07/2024 10:09:03",1721844543247,8,"25/07/2024 02:09:03",180348,2,"task-7hcp",NA,39164615,11491791,NA,"complete",NA,"computer","Desktop or Laptop","Mac OS 10.15.7","Chrome 126.0.0.0","1440x900","1091x702",NA,NA,0,"BIQ (Charlotte)",5,"DECFBGAHI","Passed AC2","","Spreadsheet1","Spreadsheet1",1,"BIQ","Screen 2","svpz34",2,"response","8",6633.1,9366.8,9380.99999998808,6633.1,9366.8,9380.99999998808,1,6633.1,2747.89999998808,0,NA,"Rating Scale","Rating Scale",10,"object-121","BIQ",NA,"SUPLCM83190"
"8",1721815754915,"24/07/2024 10:09:14",1721844554915,8,"25/07/2024 02:09:14",180348,2,"task-7hcp",NA,39164615,11491791,NA,"complete",NA,"computer","Desktop or Laptop","Mac OS 10.15.7","Chrome 126.0.0.0","1440x900","1091x702",NA,NA,0,"BIQ (Charlotte)",5,"DECFBGAHI","Passed AC2","","Spreadsheet1","Spreadsheet1",1,"BIQ","Screen 3","o21mwi",3,"continue","",11682.5,11667.1,11682.5,11682.5,11667.1,11682.5,1,11682.5,0,0,NA,"Click To Continue","Continue Button",15,"object-50","BIQ",NA,"SUPLCM83190"
"9",1721815754920,"24/07/2024 10:09:14",1721844554920,8,"25/07/2024 02:09:14",180348,2,"task-7hcp",NA,39164615,11491791,NA,"complete",NA,"computer","Desktop or Laptop","Mac OS 10.15.7","Chrome 126.0.0.0","1440x900","1091x702",NA,NA,0,"BIQ (Charlotte)",5,"DECFBGAHI","Passed AC2","","Spreadsheet1","Spreadsheet1",1,"BIQ","Screen 3","o21mwi",3,"response","0",4183.6,11667.1,11683.7,4183.6,11667.1,11683.7,1,4183.6,7500.1,0,NA,"Rating Scale","Rating Scale",2,"object-36","BIQ",NA,"SUPLCM83190"
"10",1721815754921,"24/07/2024 10:09:14",1721844554921,8,"25/07/2024 02:09:14",180348,2,"task-7hcp",NA,39164615,11491791,NA,"complete",NA,"computer","Desktop or Laptop","Mac OS 10.15.7","Chrome 126.0.0.0","1440x900","1091x702",NA,NA,0,"BIQ (Charlotte)",5,"DECFBGAHI","Passed AC2","","Spreadsheet1","Spreadsheet1",1,"BIQ","Screen 3","o21mwi",3,"response","1",10617.2,11667.1,11683.7,10617.2,11667.1,11683.7,1,10617.2,1066.5,0,NA,"Rating Scale","Rating Scale",9,"object-86","BIQ",NA,"SUPLCM83190"
"11",1721815763263,"24/07/2024 10:09:23",1721844563263,8,"25/07/2024 02:09:23",180348,2,"task-7hcp",NA,39164615,11491791,NA,"complete",NA,"computer","Desktop or Laptop","Mac OS 10.15.7","Chrome 126.0.0.0","1440x900","1091x702",NA,NA,0,"BIQ (Charlotte)",5,"DECFBGAHI","Passed AC2","","Spreadsheet1","Spreadsheet1",1,"BIQ","Screen 4","iz3the",4,"continue","",8363.69999995232,8350.3,8363.69999995232,8363.69999995232,8350.3,8363.69999995232,1,8363.69999995232,0,0,NA,"Click To Continue","Continue Button",22,"object-73","BIQ",NA,"SUPLCM83190"
"12",1721815763263,"24/07/2024 10:09:23",1721844563263,8,"25/07/2024 02:09:23",180348,2,"task-7hcp",NA,39164615,11491791,NA,"complete",NA,"computer","Desktop or Laptop","Mac OS 10.15.7","Chrome 126.0.0.0","1440x900","1091x702",NA,NA,0,"BIQ (Charlotte)",5,"DECFBGAHI","Passed AC2","","Spreadsheet1","Spreadsheet1",1,"BIQ","Screen 4","iz3the",4,"response","0",3533.5,8350.3,8364.29999997616,3533.5,8350.3,8364.29999997616,1,3533.5,4830.79999997616,0,NA,"Rating Scale","Rating Scale",2,"object-53","BIQ",NA,"SUPLCM83190"
"13",1721815763263,"24/07/2024 10:09:23",1721844563263,8,"25/07/2024 02:09:23",180348,2,"task-7hcp",NA,39164615,11491791,NA,"complete",NA,"computer","Desktop or Laptop","Mac OS 10.15.7","Chrome 126.0.0.0","1440x900","1091x702",NA,NA,0,"BIQ (Charlotte)",5,"DECFBGAHI","Passed AC2","","Spreadsheet1","Spreadsheet1",1,"BIQ","Screen 4","iz3the",4,"response","0",5400.3,8350.3,8364.49999996424,5400.3,8350.3,8364.49999996424,1,5400.3,2964.19999996424,0,NA,"Rating Scale","Rating Scale",9,"object-60","BIQ",NA,"SUPLCM83190"
"14",1721815763263,"24/07/2024 10:09:23",1721844563263,8,"25/07/2024 02:09:23",180348,2,"task-7hcp",NA,39164615,11491791,NA,"complete",NA,"computer","Desktop or Laptop","Mac OS 10.15.7","Chrome 126.0.0.0","1440x900","1091x702",NA,NA,0,"BIQ (Charlotte)",5,"DECFBGAHI","Passed AC2","","Spreadsheet1","Spreadsheet1",1,"BIQ","Screen 4","iz3the",4,"response","1",7517,8350.3,8364.69999995232,7517,8350.3,8364.69999995232,1,7517,847.699999952318,0,NA,"Rating Scale","Rating Scale",16,"object-67","BIQ",NA,"SUPLCM83190"
"15",1721815763268,"24/07/2024 10:09:23",1721844563268,8,"25/07/2024 02:09:23",180348,2,"task-7hcp",NA,39164615,11491791,NA,"complete",NA,"computer","Desktop or Laptop","Mac OS 10.15.7","Chrome 126.0.0.0","1440x900","1091x702",NA,NA,0,"BIQ (Charlotte)",5,"DECFBGAHI","Passed AC2","","Spreadsheet1","Spreadsheet1",NA,"","","",NA,"info","END",NA,NA,NA,NA,NA,NA,0,NA,NA,NA,NA,"","",NA,"","",NA,"SUPLCM83190"
"1",1721740040590,"23/07/2024 13:07:20",1721743640590,1,"23/07/2024 15:07:20",180348,2,"task-7hcp",NA,39147766,11486639,NA,"complete",NA,"computer","Desktop or Laptop","Mac OS 10.15.7","Chrome 126.0.0.0","1440x900","1351x673",NA,NA,0,"BIQ (Charlotte)",5,"CDBEAFIGH","Passed AC2","","Spreadsheet1","Spreadsheet1",NA,"","","",NA,"info","BEGIN",NA,NA,NA,NA,NA,NA,0,NA,NA,NA,NA,"","",NA,"","",NA,"SUPLCM65569"
"2",1721740062950,"23/07/2024 13:07:42",1721743662950,1,"23/07/2024 15:07:42",180348,2,"task-7hcp",NA,39147766,11486639,NA,"complete",NA,"computer","Desktop or Laptop","Mac OS 10.15.7","Chrome 126.0.0.0","1440x900","1351x673",NA,NA,0,"BIQ (Charlotte)",5,"CDBEAFIGH","Passed AC2","","Spreadsheet1","Spreadsheet1",1,"BIQ","Screen 1","9dh6eq",1,"continue","",22366.2,22349.6,22366.2,22366.2,22349.6,22366.2,1,22366.2,0,0,NA,"Click To Continue","Continue Button",16,"object-48","BIQ",NA,"SUPLCM65569"
"3",1721740062952,"23/07/2024 13:07:42",1721743662952,1,"23/07/2024 15:07:42",180348,2,"task-7hcp",NA,39147766,11486639,NA,"complete",NA,"computer","Desktop or Laptop","Mac OS 10.15.7","Chrome 126.0.0.0","1440x900","1351x673",NA,NA,0,"BIQ (Charlotte)",5,"CDBEAFIGH","Passed AC2","","Spreadsheet1","Spreadsheet1",1,"BIQ","Screen 1","9dh6eq",1,"response","4",11999.5,22349.6,22366.2,11999.5,22349.6,22366.2,1,11999.5,10366.7,0,NA,"Rating Scale","Rating Scale",3,"object-5","BIQ",NA,"SUPLCM65569"
"4",1721740062952,"23/07/2024 13:07:42",1721743662952,1,"23/07/2024 15:07:42",180348,2,"task-7hcp",NA,39147766,11486639,NA,"complete",NA,"computer","Desktop or Laptop","Mac OS 10.15.7","Chrome 126.0.0.0","1440x900","1351x673",NA,NA,0,"BIQ (Charlotte)",5,"CDBEAFIGH","Passed AC2","","Spreadsheet1","Spreadsheet1",1,"BIQ","Screen 1","9dh6eq",1,"response","6",19899.7,22349.6,22366.2,19899.7,22349.6,22366.2,1,19899.7,2466.5,0,NA,"Rating Scale","Rating Scale",10,"object-18","BIQ",NA,"SUPLCM65569"
"5",1721740073473,"23/07/2024 13:07:53",1721743673473,1,"23/07/2024 15:07:53",180348,2,"task-7hcp",NA,39147766,11486639,NA,"complete",NA,"computer","Desktop or Laptop","Mac OS 10.15.7","Chrome 126.0.0.0","1440x900","1351x673",NA,NA,0,"BIQ (Charlotte)",5,"CDBEAFIGH","Passed AC2","","Spreadsheet1","Spreadsheet1",1,"BIQ","Screen 2","svpz34",2,"continue","",10546.7,10532.3,10546.7,10546.7,10532.3,10546.7,1,10546.7,0,0,NA,"Click To Continue","Continue Button",7,"object-1017","BIQ",NA,"SUPLCM65569"
"6",1721740073476,"23/07/2024 13:07:53",1721743673476,1,"23/07/2024 15:07:53",180348,2,"task-7hcp",NA,39147766,11486639,NA,"complete",NA,"computer","Desktop or Laptop","Mac OS 10.15.7","Chrome 126.0.0.0","1440x900","1351x673",NA,NA,0,"BIQ (Charlotte)",5,"CDBEAFIGH","Passed AC2","","Spreadsheet1","Spreadsheet1",1,"BIQ","Screen 2","svpz34",2,"response","3",5632.2,10532.3,10548.1,5632.2,10532.3,10548.1,1,5632.2,4915.89999999999,0,NA,"Rating Scale","Rating Scale",8,"object-118","BIQ",NA,"SUPLCM65569"
"7",1721740073476,"23/07/2024 13:07:53",1721743673476,1,"23/07/2024 15:07:53",180348,2,"task-7hcp",NA,39147766,11486639,NA,"complete",NA,"computer","Desktop or Laptop","Mac OS 10.15.7","Chrome 126.0.0.0","1440x900","1351x673",NA,NA,0,"BIQ (Charlotte)",5,"CDBEAFIGH","Passed AC2","","Spreadsheet1","Spreadsheet1",1,"BIQ","Screen 2","svpz34",2,"response","6",9932.7,10532.3,10548.1,9932.7,10532.3,10548.1,1,9932.7,615.399999999994,0,NA,"Rating Scale","Rating Scale",10,"object-121","BIQ",NA,"SUPLCM65569"
"8",1721740085302,"23/07/2024 13:08:05",1721743685302,1,"23/07/2024 15:08:05",180348,2,"task-7hcp",NA,39147766,11486639,NA,"complete",NA,"computer","Desktop or Laptop","Mac OS 10.15.7","Chrome 126.0.0.0","1440x900","1351x673",NA,NA,0,"BIQ (Charlotte)",5,"CDBEAFIGH","Passed AC2","","Spreadsheet1","Spreadsheet1",1,"BIQ","Screen 3","o21mwi",3,"continue","",11843.5999999881,11834.1,11843.5999999881,11843.5999999881,11834.1,11843.5999999881,1,11843.5999999881,0,0,NA,"Click To Continue","Continue Button",15,"object-50","BIQ",NA,"SUPLCM65569"
"9",1721740085306,"23/07/2024 13:08:05",1721743685306,1,"23/07/2024 15:08:05",180348,2,"task-7hcp",NA,39147766,11486639,NA,"complete",NA,"computer","Desktop or Laptop","Mac OS 10.15.7","Chrome 126.0.0.0","1440x900","1351x673",NA,NA,0,"BIQ (Charlotte)",5,"CDBEAFIGH","Passed AC2","","Spreadsheet1","Spreadsheet1",1,"BIQ","Screen 3","o21mwi",3,"response","3",5349.9,11834.1,11847.2000000119,5349.9,11834.1,11847.2000000119,1,5349.9,6497.30000001192,0,NA,"Rating Scale","Rating Scale",2,"object-36","BIQ",NA,"SUPLCM65569"
"10",1721740085306,"23/07/2024 13:08:05",1721743685306,1,"23/07/2024 15:08:05",180348,2,"task-7hcp",NA,39147766,11486639,NA,"complete",NA,"computer","Desktop or Laptop","Mac OS 10.15.7","Chrome 126.0.0.0","1440x900","1351x673",NA,NA,0,"BIQ (Charlotte)",5,"CDBEAFIGH","Passed AC2","","Spreadsheet1","Spreadsheet1",1,"BIQ","Screen 3","o21mwi",3,"response","4",11350.2,11834.1,11847.9,11350.2,11834.1,11847.9,1,11350.2,497.699999999997,0,NA,"Rating Scale","Rating Scale",9,"object-86","BIQ",NA,"SUPLCM65569"
"11",1721740101592,"23/07/2024 13:08:21",1721743701592,1,"23/07/2024 15:08:21",180348,2,"task-7hcp",NA,39147766,11486639,NA,"complete",NA,"computer","Desktop or Laptop","Mac OS 10.15.7","Chrome 126.0.0.0","1440x900","1351x673",NA,NA,0,"BIQ (Charlotte)",5,"CDBEAFIGH","Passed AC2","","Spreadsheet1","Spreadsheet1",1,"BIQ","Screen 4","iz3the",4,"continue","",16299.399999994,16283.1,16299.399999994,16299.399999994,16283.1,16299.399999994,1,16299.399999994,0,0,NA,"Click To Continue","Continue Button",22,"object-73","BIQ",NA,"SUPLCM65569"
"12",1721740101595,"23/07/2024 13:08:21",1721743701595,1,"23/07/2024 15:08:21",180348,2,"task-7hcp",NA,39147766,11486639,NA,"complete",NA,"computer","Desktop or Laptop","Mac OS 10.15.7","Chrome 126.0.0.0","1440x900","1351x673",NA,NA,0,"BIQ (Charlotte)",5,"CDBEAFIGH","Passed AC2","","Spreadsheet1","Spreadsheet1",1,"BIQ","Screen 4","iz3the",4,"response","2",7383.3,16283.1,16300.2,7383.3,16283.1,16300.2,1,7383.3,8916.90000000001,0,NA,"Rating Scale","Rating Scale",2,"object-53","BIQ",NA,"SUPLCM65569"
"13",1721740101595,"23/07/2024 13:08:21",1721743701595,1,"23/07/2024 15:08:21",180348,2,"task-7hcp",NA,39147766,11486639,NA,"complete",NA,"computer","Desktop or Laptop","Mac OS 10.15.7","Chrome 126.0.0.0","1440x900","1351x673",NA,NA,0,"BIQ (Charlotte)",5,"CDBEAFIGH","Passed AC2","","Spreadsheet1","Spreadsheet1",1,"BIQ","Screen 4","iz3the",4,"response","4",10183.2,16283.1,16300.2,10183.2,16283.1,16300.2,1,10183.2,6117.00000000001,0,NA,"Rating Scale","Rating Scale",9,"object-60","BIQ",NA,"SUPLCM65569"
"14",1721740101596,"23/07/2024 13:08:21",1721743701596,1,"23/07/2024 15:08:21",180348,2,"task-7hcp",NA,39147766,11486639,NA,"complete",NA,"computer","Desktop or Laptop","Mac OS 10.15.7","Chrome 126.0.0.0","1440x900","1351x673",NA,NA,0,"BIQ (Charlotte)",5,"CDBEAFIGH","Passed AC2","","Spreadsheet1","Spreadsheet1",1,"BIQ","Screen 4","iz3the",4,"response","2",15865.8,16283.1,16300.2,15865.8,16283.1,16300.2,1,15865.8,434.400000000009,0,NA,"Rating Scale","Rating Scale",16,"object-67","BIQ",NA,"SUPLCM65569"
"15",1721740101601,"23/07/2024 13:08:21",1721743701601,1,"23/07/2024 15:08:21",180348,2,"task-7hcp",NA,39147766,11486639,NA,"complete",NA,"computer","Desktop or Laptop","Mac OS 10.15.7","Chrome 126.0.0.0","1440x900","1351x673",NA,NA,0,"BIQ (Charlotte)",5,"CDBEAFIGH","Passed AC2","","Spreadsheet1","Spreadsheet1",NA,"","","",NA,"info","END",NA,NA,NA,NA,NA,NA,0,NA,NA,NA,NA,"","",NA,"","",NA,"SUPLCM65569"
"1",1720526670226,"09/07/2024 12:04:30",1720530270226,1,"09/07/2024 14:04:30",180348,2,"task-7hcp",NA,38832630,11394042,NA,"complete",NA,"computer","Desktop or Laptop","Mac OS 10.15.7","Chrome 124.0.0.0","1440x900","1440x722",NA,NA,0,"BIQ (Charlotte)",5,"BCADIEHFG","Passed AC2","","Spreadsheet1","Spreadsheet1",NA,"","","",NA,"info","BEGIN",NA,NA,NA,NA,NA,NA,0,NA,NA,NA,NA,"","",NA,"","",NA,"SUPLCM96648"
"2",1720526720842,"09/07/2024 12:05:20",1720530320842,1,"09/07/2024 14:05:20",180348,2,"task-7hcp",NA,38832630,11394042,NA,"complete",NA,"computer","Desktop or Laptop","Mac OS 10.15.7","Chrome 124.0.0.0","1440x900","1440x722",NA,NA,0,"BIQ (Charlotte)",5,"BCADIEHFG","Passed AC2","","Spreadsheet1","Spreadsheet1",1,"BIQ","Screen 1","9dh6eq",1,"continue","",50632.948,50615.648,50632.948,50632.948,50615.648,50632.948,1,50632.948,0,0,NA,"Click To Continue","Continue Button",16,"object-48","BIQ",NA,"SUPLCM96648"
"3",1720526720845,"09/07/2024 12:05:20",1720530320845,1,"09/07/2024 14:05:20",180348,2,"task-7hcp",NA,38832630,11394042,NA,"complete",NA,"computer","Desktop or Laptop","Mac OS 10.15.7","Chrome 124.0.0.0","1440x900","1440x722",NA,NA,0,"BIQ (Charlotte)",5,"BCADIEHFG","Passed AC2","","Spreadsheet1","Spreadsheet1",1,"BIQ","Screen 1","9dh6eq",1,"response","6",7293.348,50615.648,50632.948,7293.348,50615.648,50632.948,1,7293.348,43339.6,0,NA,"Rating Scale","Rating Scale",3,"object-5","BIQ",NA,"SUPLCM96648"
"4",1720526720845,"09/07/2024 12:05:20",1720530320845,1,"09/07/2024 14:05:20",180348,2,"task-7hcp",NA,38832630,11394042,NA,"complete",NA,"computer","Desktop or Laptop","Mac OS 10.15.7","Chrome 124.0.0.0","1440x900","1440x722",NA,NA,0,"BIQ (Charlotte)",5,"BCADIEHFG","Passed AC2","","Spreadsheet1","Spreadsheet1",1,"BIQ","Screen 1","9dh6eq",1,"response","6",24582.848,50615.648,50632.948,24582.848,50615.648,50632.948,1,24582.848,26050.1,0,NA,"Rating Scale","Rating Scale",10,"object-18","BIQ",NA,"SUPLCM96648"
"5",1720526769814,"09/07/2024 12:06:09",1720530369814,1,"09/07/2024 14:06:09",180348,2,"task-7hcp",NA,38832630,11394042,NA,"complete",NA,"computer","Desktop or Laptop","Mac OS 10.15.7","Chrome 124.0.0.0","1440x900","1440x722",NA,NA,0,"BIQ (Charlotte)",5,"BCADIEHFG","Passed AC2","","Spreadsheet1","Spreadsheet1",1,"BIQ","Screen 2","svpz34",2,"continue","",48996.7,48984.2,48996.7,48996.7,48984.2,48996.7,1,48996.7,0,0,NA,"Click To Continue","Continue Button",7,"object-1017","BIQ",NA,"SUPLCM96648"
"6",1720526769818,"09/07/2024 12:06:09",1720530369818,1,"09/07/2024 14:06:09",180348,2,"task-7hcp",NA,38832630,11394042,NA,"complete",NA,"computer","Desktop or Laptop","Mac OS 10.15.7","Chrome 124.0.0.0","1440x900","1440x722",NA,NA,0,"BIQ (Charlotte)",5,"BCADIEHFG","Passed AC2","","Spreadsheet1","Spreadsheet1",1,"BIQ","Screen 2","svpz34",2,"response","1",3597,48984.2,49000.7999999046,3597,48984.2,49000.7999999046,1,3597,45403.7999999046,0,NA,"Rating Scale","Rating Scale",8,"object-118","BIQ",NA,"SUPLCM96648"
"7",1720526769818,"09/07/2024 12:06:09",1720530369818,1,"09/07/2024 14:06:09",180348,2,"task-7hcp",NA,38832630,11394042,NA,"complete",NA,"computer","Desktop or Laptop","Mac OS 10.15.7","Chrome 124.0.0.0","1440x900","1440x722",NA,NA,0,"BIQ (Charlotte)",5,"BCADIEHFG","Passed AC2","","Spreadsheet1","Spreadsheet1",1,"BIQ","Screen 2","svpz34",2,"response","8",27947.4,48984.2,49001.4999999523,27947.4,48984.2,49001.4999999523,1,27947.4,21054.0999999523,0,NA,"Rating Scale","Rating Scale",10,"object-121","BIQ",NA,"SUPLCM96648"
"8",1720526778340,"09/07/2024 12:06:18",1720530378340,1,"09/07/2024 14:06:18",180348,2,"task-7hcp",NA,38832630,11394042,NA,"complete",NA,"computer","Desktop or Laptop","Mac OS 10.15.7","Chrome 124.0.0.0","1440x900","1440x722",NA,NA,0,"BIQ (Charlotte)",5,"BCADIEHFG","Passed AC2","","Spreadsheet1","Spreadsheet1",1,"BIQ","Screen 3","o21mwi",3,"continue","",8538.59999990463,8527.7,8538.59999990463,8538.59999990463,8527.7,8538.59999990463,1,8538.59999990463,0,0,NA,"Click To Continue","Continue Button",15,"object-50","BIQ",NA,"SUPLCM96648"
"9",1720526778340,"09/07/2024 12:06:18",1720530378340,1,"09/07/2024 14:06:18",180348,2,"task-7hcp",NA,38832630,11394042,NA,"complete",NA,"computer","Desktop or Laptop","Mac OS 10.15.7","Chrome 124.0.0.0","1440x900","1440x722",NA,NA,0,"BIQ (Charlotte)",5,"BCADIEHFG","Passed AC2","","Spreadsheet1","Spreadsheet1",1,"BIQ","Screen 3","o21mwi",3,"response","0",3297.8,8527.7,8539.40000009537,3297.8,8527.7,8539.40000009537,1,3297.8,5241.60000009536,0,NA,"Rating Scale","Rating Scale",2,"object-36","BIQ",NA,"SUPLCM96648"
"10",1720526778341,"09/07/2024 12:06:18",1720530378341,1,"09/07/2024 14:06:18",180348,2,"task-7hcp",NA,38832630,11394042,NA,"complete",NA,"computer","Desktop or Laptop","Mac OS 10.15.7","Chrome 124.0.0.0","1440x900","1440x722",NA,NA,0,"BIQ (Charlotte)",5,"BCADIEHFG","Passed AC2","","Spreadsheet1","Spreadsheet1",1,"BIQ","Screen 3","o21mwi",3,"response","0",6979,8527.7,8540,6979,8527.7,8540,1,6979,1561,0,NA,"Rating Scale","Rating Scale",9,"object-86","BIQ",NA,"SUPLCM96648"
"11",1720526801895,"09/07/2024 12:06:41",1720530401895,1,"09/07/2024 14:06:41",180348,2,"task-7hcp",NA,38832630,11394042,NA,"complete",NA,"computer","Desktop or Laptop","Mac OS 10.15.7","Chrome 124.0.0.0","1440x900","1440x722",NA,NA,0,"BIQ (Charlotte)",5,"BCADIEHFG","Passed AC2","","Spreadsheet1","Spreadsheet1",1,"BIQ","Screen 4","iz3the",4,"continue","",23567.0000000477,23551,23567.0000000477,23567.0000000477,23551,23567.0000000477,1,23567.0000000477,0,0,NA,"Click To Continue","Continue Button",22,"object-73","BIQ",NA,"SUPLCM96648"
"12",1720526801900,"09/07/2024 12:06:41",1720530401900,1,"09/07/2024 14:06:41",180348,2,"task-7hcp",NA,38832630,11394042,NA,"complete",NA,"computer","Desktop or Laptop","Mac OS 10.15.7","Chrome 124.0.0.0","1440x900","1440x722",NA,NA,0,"BIQ (Charlotte)",5,"BCADIEHFG","Passed AC2","","Spreadsheet1","Spreadsheet1",1,"BIQ","Screen 4","iz3the",4,"response","0",16804.9,23551,23568.7,16804.9,23551,23568.7,1,16804.9,6763.80000000002,0,NA,"Rating Scale","Rating Scale",2,"object-53","BIQ",NA,"SUPLCM96648"
"13",1720526801901,"09/07/2024 12:06:41",1720530401901,1,"09/07/2024 14:06:41",180348,2,"task-7hcp",NA,38832630,11394042,NA,"complete",NA,"computer","Desktop or Laptop","Mac OS 10.15.7","Chrome 124.0.0.0","1440x900","1440x722",NA,NA,0,"BIQ (Charlotte)",5,"BCADIEHFG","Passed AC2","","Spreadsheet1","Spreadsheet1",1,"BIQ","Screen 4","iz3the",4,"response","0",17454.6,23551,23568.7,17454.6,23551,23568.7,1,17454.6,6114.10000000002,0,NA,"Rating Scale","Rating Scale",9,"object-60","BIQ",NA,"SUPLCM96648"
"14",1720526801901,"09/07/2024 12:06:41",1720530401901,1,"09/07/2024 14:06:41",180348,2,"task-7hcp",NA,38832630,11394042,NA,"complete",NA,"computer","Desktop or Laptop","Mac OS 10.15.7","Chrome 124.0.0.0","1440x900","1440x722",NA,NA,0,"BIQ (Charlotte)",5,"BCADIEHFG","Passed AC2","","Spreadsheet1","Spreadsheet1",1,"BIQ","Screen 4","iz3the",4,"response","2",18670.3,23551,23568.7,18670.3,23551,23568.7,1,18670.3,4898.40000000002,0,NA,"Rating Scale","Rating Scale",16,"object-67","BIQ",NA,"SUPLCM96648"
"15",1720526801909,"09/07/2024 12:06:41",1720530401909,1,"09/07/2024 14:06:41",180348,2,"task-7hcp",NA,38832630,11394042,NA,"complete",NA,"computer","Desktop or Laptop","Mac OS 10.15.7","Chrome 124.0.0.0","1440x900","1440x722",NA,NA,0,"BIQ (Charlotte)",5,"BCADIEHFG","Passed AC2","","Spreadsheet1","Spreadsheet1",NA,"","","",NA,"info","END",NA,NA,NA,NA,NA,NA,0,NA,NA,NA,NA,"","",NA,"","",NA,"SUPLCM96648"
"1",1720018970569,"03/07/2024 15:02:50",1720022570569,1,"03/07/2024 17:02:50",180348,2,"task-7hcp",NA,38733112,11367090,NA,"complete",NA,"computer","Desktop or Laptop","Mac OS 10.15.7","Chrome 126.0.0.0","1440x900","1440x788",NA,NA,0,"BIQ (Charlotte)",5,"ABICHDGEF","Passed AC2","","Spreadsheet1","Spreadsheet1",NA,"","","",NA,"info","BEGIN",NA,NA,NA,NA,NA,NA,0,NA,NA,NA,NA,"","",NA,"","",NA,"SUPLCM20104"
"2",1720018994667,"03/07/2024 15:03:14",1720022594667,1,"03/07/2024 17:03:14",180348,2,"task-7hcp",NA,38733112,11367090,NA,"complete",NA,"computer","Desktop or Laptop","Mac OS 10.15.7","Chrome 126.0.0.0","1440x900","1440x788",NA,NA,0,"BIQ (Charlotte)",5,"ABICHDGEF","Passed AC2","","Spreadsheet1","Spreadsheet1",1,"BIQ","Screen 1","9dh6eq",1,"continue","",24117.3439999762,24100.744,24117.3439999762,24117.3439999762,24100.744,24117.3439999762,1,24117.3439999762,0,0,NA,"Click To Continue","Continue Button",16,"object-48","BIQ",NA,"SUPLCM20104"
"3",1720018994668,"03/07/2024 15:03:14",1720022594668,1,"03/07/2024 17:03:14",180348,2,"task-7hcp",NA,38733112,11367090,NA,"complete",NA,"computer","Desktop or Laptop","Mac OS 10.15.7","Chrome 126.0.0.0","1440x900","1440x788",NA,NA,0,"BIQ (Charlotte)",5,"ABICHDGEF","Passed AC2","","Spreadsheet1","Spreadsheet1",1,"BIQ","Screen 1","9dh6eq",1,"response","7",13933.744,24100.744,24119.0439999642,13933.744,24100.744,24119.0439999642,1,13933.744,10185.2999999642,0,NA,"Rating Scale","Rating Scale",3,"object-5","BIQ",NA,"SUPLCM20104"
"4",1720018994668,"03/07/2024 15:03:14",1720022594668,1,"03/07/2024 17:03:14",180348,2,"task-7hcp",NA,38733112,11367090,NA,"complete",NA,"computer","Desktop or Laptop","Mac OS 10.15.7","Chrome 126.0.0.0","1440x900","1440x788",NA,NA,0,"BIQ (Charlotte)",5,"ABICHDGEF","Passed AC2","","Spreadsheet1","Spreadsheet1",1,"BIQ","Screen 1","9dh6eq",1,"response","8",18933.544,24100.744,24119.3439999762,18933.544,24100.744,24119.3439999762,1,18933.544,5185.79999997616,0,NA,"Rating Scale","Rating Scale",10,"object-18","BIQ",NA,"SUPLCM20104"
"5",1720019022129,"03/07/2024 15:03:42",1720022622129,1,"03/07/2024 17:03:42",180348,2,"task-7hcp",NA,38733112,11367090,NA,"complete",NA,"computer","Desktop or Laptop","Mac OS 10.15.7","Chrome 126.0.0.0","1440x900","1440x788",NA,NA,0,"BIQ (Charlotte)",5,"ABICHDGEF","Passed AC2","","Spreadsheet1","Spreadsheet1",1,"BIQ","Screen 2","svpz34",2,"continue","",27480.4999999523,27467.6,27480.4999999523,27480.4999999523,27467.6,27480.4999999523,1,27480.4999999523,0,0,NA,"Click To Continue","Continue Button",7,"object-1017","BIQ",NA,"SUPLCM20104"
"6",1720019022132,"03/07/2024 15:03:42",1720022622132,1,"03/07/2024 17:03:42",180348,2,"task-7hcp",NA,38733112,11367090,NA,"complete",NA,"computer","Desktop or Laptop","Mac OS 10.15.7","Chrome 126.0.0.0","1440x900","1440x788",NA,NA,0,"BIQ (Charlotte)",5,"ABICHDGEF","Passed AC2","","Spreadsheet1","Spreadsheet1",1,"BIQ","Screen 2","svpz34",2,"response","0",7367,27467.6,27482.7999999642,7367,27467.6,27482.7999999642,1,7367,20115.7999999642,0,NA,"Rating Scale","Rating Scale",8,"object-118","BIQ",NA,"SUPLCM20104"
"7",1720019022132,"03/07/2024 15:03:42",1720022622132,1,"03/07/2024 17:03:42",180348,2,"task-7hcp",NA,38733112,11367090,NA,"complete",NA,"computer","Desktop or Laptop","Mac OS 10.15.7","Chrome 126.0.0.0","1440x900","1440x788",NA,NA,0,"BIQ (Charlotte)",5,"ABICHDGEF","Passed AC2","","Spreadsheet1","Spreadsheet1",1,"BIQ","Screen 2","svpz34",2,"response","8",13367.1,27467.6,27483.0999999762,13367.1,27467.6,27483.0999999762,1,13367.1,14115.9999999762,0,NA,"Rating Scale","Rating Scale",10,"object-121","BIQ",NA,"SUPLCM20104"
"8",1720019044481,"03/07/2024 15:04:04",1720022644481,1,"03/07/2024 17:04:04",180348,2,"task-7hcp",NA,38733112,11367090,NA,"complete",NA,"computer","Desktop or Laptop","Mac OS 10.15.7","Chrome 126.0.0.0","1440x900","1440x788",NA,NA,0,"BIQ (Charlotte)",5,"ABICHDGEF","Passed AC2","","Spreadsheet1","Spreadsheet1",1,"BIQ","Screen 3","o21mwi",3,"continue","",22365.4999999762,22334.1,22365.4999999762,22365.4999999762,22334.1,22365.4999999762,1,22365.4999999762,0,0,NA,"Click To Continue","Continue Button",15,"object-50","BIQ",NA,"SUPLCM20104"
"9",1720019044484,"03/07/2024 15:04:04",1720022644484,1,"03/07/2024 17:04:04",180348,2,"task-7hcp",NA,38733112,11367090,NA,"complete",NA,"computer","Desktop or Laptop","Mac OS 10.15.7","Chrome 126.0.0.0","1440x900","1440x788",NA,NA,0,"BIQ (Charlotte)",5,"ABICHDGEF","Passed AC2","","Spreadsheet1","Spreadsheet1",1,"BIQ","Screen 3","o21mwi",3,"response","0",9000.3,22334.1,22367.5,9000.3,22334.1,22367.5,1,9000.3,13367.2,0,NA,"Rating Scale","Rating Scale",2,"object-36","BIQ",NA,"SUPLCM20104"
"10",1720019044484,"03/07/2024 15:04:04",1720022644484,1,"03/07/2024 17:04:04",180348,2,"task-7hcp",NA,38733112,11367090,NA,"complete",NA,"computer","Desktop or Laptop","Mac OS 10.15.7","Chrome 126.0.0.0","1440x900","1440x788",NA,NA,0,"BIQ (Charlotte)",5,"ABICHDGEF","Passed AC2","","Spreadsheet1","Spreadsheet1",1,"BIQ","Screen 3","o21mwi",3,"response","0",17399.7,22334.1,22367.5,17399.7,22334.1,22367.5,1,17399.7,4967.79999999999,0,NA,"Rating Scale","Rating Scale",9,"object-86","BIQ",NA,"SUPLCM20104"
"11",1720019079229,"03/07/2024 15:04:39",1720022679229,1,"03/07/2024 17:04:39",180348,2,"task-7hcp",NA,38733112,11367090,NA,"complete",NA,"computer","Desktop or Laptop","Mac OS 10.15.7","Chrome 126.0.0.0","1440x900","1440x788",NA,NA,0,"BIQ (Charlotte)",5,"ABICHDGEF","Passed AC2","","Spreadsheet1","Spreadsheet1",1,"BIQ","Screen 4","iz3the",4,"continue","",34781.1999999881,34767.8,34781.1999999881,34781.1999999881,34767.8,34781.1999999881,1,34781.1999999881,0,0,NA,"Click To Continue","Continue Button",22,"object-73","BIQ",NA,"SUPLCM20104"
"12",1720019079231,"03/07/2024 15:04:39",1720022679231,1,"03/07/2024 17:04:39",180348,2,"task-7hcp",NA,38733112,11367090,NA,"complete",NA,"computer","Desktop or Laptop","Mac OS 10.15.7","Chrome 126.0.0.0","1440x900","1440x788",NA,NA,0,"BIQ (Charlotte)",5,"ABICHDGEF","Passed AC2","","Spreadsheet1","Spreadsheet1",1,"BIQ","Screen 4","iz3the",4,"response","0",7233.5,34767.8,34783.0999999642,7233.5,34767.8,34783.0999999642,1,7233.5,27549.5999999642,0,NA,"Rating Scale","Rating Scale",2,"object-53","BIQ",NA,"SUPLCM20104"
"13",1720019079231,"03/07/2024 15:04:39",1720022679231,1,"03/07/2024 17:04:39",180348,2,"task-7hcp",NA,38733112,11367090,NA,"complete",NA,"computer","Desktop or Laptop","Mac OS 10.15.7","Chrome 126.0.0.0","1440x900","1440x788",NA,NA,0,"BIQ (Charlotte)",5,"ABICHDGEF","Passed AC2","","Spreadsheet1","Spreadsheet1",1,"BIQ","Screen 4","iz3the",4,"response","0",13533.7,34767.8,34783.2999999523,13533.7,34767.8,34783.2999999523,1,13533.7,21249.5999999523,0,NA,"Rating Scale","Rating Scale",9,"object-60","BIQ",NA,"SUPLCM20104"
"14",1720019079231,"03/07/2024 15:04:39",1720022679231,1,"03/07/2024 17:04:39",180348,2,"task-7hcp",NA,38733112,11367090,NA,"complete",NA,"computer","Desktop or Laptop","Mac OS 10.15.7","Chrome 126.0.0.0","1440x900","1440x788",NA,NA,0,"BIQ (Charlotte)",5,"ABICHDGEF","Passed AC2","","Spreadsheet1","Spreadsheet1",1,"BIQ","Screen 4","iz3the",4,"response","2",20434,34767.8,34783.5999999642,20434,34767.8,34783.5999999642,1,20434,14349.5999999642,0,NA,"Rating Scale","Rating Scale",16,"object-67","BIQ",NA,"SUPLCM20104"
"15",1720019079236,"03/07/2024 15:04:39",1720022679236,1,"03/07/2024 17:04:39",180348,2,"task-7hcp",NA,38733112,11367090,NA,"complete",NA,"computer","Desktop or Laptop","Mac OS 10.15.7","Chrome 126.0.0.0","1440x900","1440x788",NA,NA,0,"BIQ (Charlotte)",5,"ABICHDGEF","Passed AC2","","Spreadsheet1","Spreadsheet1",NA,"","","",NA,"info","END",NA,NA,NA,NA,NA,NA,0,NA,NA,NA,NA,"","",NA,"","",NA,"SUPLCM20104"
"1",1719922482927,"02/07/2024 12:14:42",1719926082927,1,"02/07/2024 14:14:42",180348,2,"task-7hcp",NA,38675635,11355075,NA,"complete",NA,"computer","Desktop or Laptop","Mac OS 10.15.7","Chrome 125.0.0.0","1440x900","1440x728",NA,NA,0,"BIQ (Charlotte)",5,"IAHBGCFDE","Failed AC2","Passed AC1","Spreadsheet1","Spreadsheet1",NA,"","","",NA,"info","BEGIN",NA,NA,NA,NA,NA,NA,0,NA,NA,NA,NA,"","",NA,"","",NA,"SUPLCM16544"
"2",1719922503000,"02/07/2024 12:15:03",1719926103000,1,"02/07/2024 14:15:03",180348,2,"task-7hcp",NA,38675635,11355075,NA,"complete",NA,"computer","Desktop or Laptop","Mac OS 10.15.7","Chrome 125.0.0.0","1440x900","1440x728",NA,NA,0,"BIQ (Charlotte)",5,"IAHBGCFDE","Failed AC2","Passed AC1","Spreadsheet1","Spreadsheet1",1,"BIQ","Screen 1","9dh6eq",1,"continue","",20083.3,20066.7,20083.3,20083.3,20066.7,20083.3,1,20083.3,0,0,NA,"Click To Continue","Continue Button",16,"object-48","BIQ",NA,"SUPLCM16544"
"3",1719922503003,"02/07/2024 12:15:03",1719926103003,1,"02/07/2024 14:15:03",180348,2,"task-7hcp",NA,38675635,11355075,NA,"complete",NA,"computer","Desktop or Laptop","Mac OS 10.15.7","Chrome 125.0.0.0","1440x900","1440x728",NA,NA,0,"BIQ (Charlotte)",5,"IAHBGCFDE","Failed AC2","Passed AC1","Spreadsheet1","Spreadsheet1",1,"BIQ","Screen 1","9dh6eq",1,"response","5",12716.8,20066.7,20083.3,12716.8,20066.7,20083.3,1,12716.8,7366.5,0,NA,"Rating Scale","Rating Scale",3,"object-5","BIQ",NA,"SUPLCM16544"
"4",1719922503003,"02/07/2024 12:15:03",1719926103003,1,"02/07/2024 14:15:03",180348,2,"task-7hcp",NA,38675635,11355075,NA,"complete",NA,"computer","Desktop or Laptop","Mac OS 10.15.7","Chrome 125.0.0.0","1440x900","1440x728",NA,NA,0,"BIQ (Charlotte)",5,"IAHBGCFDE","Failed AC2","Passed AC1","Spreadsheet1","Spreadsheet1",1,"BIQ","Screen 1","9dh6eq",1,"response","2",18866.8,20066.7,20083.3,18866.8,20066.7,20083.3,1,18866.8,1216.5,0,NA,"Rating Scale","Rating Scale",10,"object-18","BIQ",NA,"SUPLCM16544"
"5",1719922511993,"02/07/2024 12:15:11",1719926111993,1,"02/07/2024 14:15:11",180348,2,"task-7hcp",NA,38675635,11355075,NA,"complete",NA,"computer","Desktop or Laptop","Mac OS 10.15.7","Chrome 125.0.0.0","1440x900","1440x728",NA,NA,0,"BIQ (Charlotte)",5,"IAHBGCFDE","Failed AC2","Passed AC1","Spreadsheet1","Spreadsheet1",1,"BIQ","Screen 2","svpz34",2,"continue","",9012.49999999702,9000.1,9012.49999999702,9012.49999999702,9000.1,9012.49999999702,1,9012.49999999702,0,0,NA,"Click To Continue","Continue Button",7,"object-1017","BIQ",NA,"SUPLCM16544"
"6",1719922511994,"02/07/2024 12:15:11",1719926111994,1,"02/07/2024 14:15:11",180348,2,"task-7hcp",NA,38675635,11355075,NA,"complete",NA,"computer","Desktop or Laptop","Mac OS 10.15.7","Chrome 125.0.0.0","1440x900","1440x728",NA,NA,0,"BIQ (Charlotte)",5,"IAHBGCFDE","Failed AC2","Passed AC1","Spreadsheet1","Spreadsheet1",1,"BIQ","Screen 2","svpz34",2,"response","4",3266.1,9000.1,9013.29999999404,3266.1,9000.1,9013.29999999404,1,3266.1,5747.19999999404,0,NA,"Rating Scale","Rating Scale",8,"object-118","BIQ",NA,"SUPLCM16544"
"7",1719922511994,"02/07/2024 12:15:11",1719926111994,1,"02/07/2024 14:15:11",180348,2,"task-7hcp",NA,38675635,11355075,NA,"complete",NA,"computer","Desktop or Laptop","Mac OS 10.15.7","Chrome 125.0.0.0","1440x900","1440x728",NA,NA,0,"BIQ (Charlotte)",5,"IAHBGCFDE","Failed AC2","Passed AC1","Spreadsheet1","Spreadsheet1",1,"BIQ","Screen 2","svpz34",2,"response","4",8083.5,9000.1,9013.7,8083.5,9000.1,9013.7,1,8083.5,930.200000000001,0,NA,"Rating Scale","Rating Scale",10,"object-121","BIQ",NA,"SUPLCM16544"
"8",1719922527242,"02/07/2024 12:15:27",1719926127242,1,"02/07/2024 14:15:27",180348,2,"task-7hcp",NA,38675635,11355075,NA,"complete",NA,"computer","Desktop or Laptop","Mac OS 10.15.7","Chrome 125.0.0.0","1440x900","1440x728",NA,NA,0,"BIQ (Charlotte)",5,"IAHBGCFDE","Failed AC2","Passed AC1","Spreadsheet1","Spreadsheet1",1,"BIQ","Screen 3","o21mwi",3,"continue","",15261.4999999911,15250,15261.4999999911,15261.4999999911,15250,15261.4999999911,1,15261.4999999911,0,0,NA,"Click To Continue","Continue Button",15,"object-50","BIQ",NA,"SUPLCM16544"
"9",1719922527245,"02/07/2024 12:15:27",1719926127245,1,"02/07/2024 14:15:27",180348,2,"task-7hcp",NA,38675635,11355075,NA,"complete",NA,"computer","Desktop or Laptop","Mac OS 10.15.7","Chrome 125.0.0.0","1440x900","1440x728",NA,NA,0,"BIQ (Charlotte)",5,"IAHBGCFDE","Failed AC2","Passed AC1","Spreadsheet1","Spreadsheet1",1,"BIQ","Screen 3","o21mwi",3,"response","4",7183.3,15250,15264.800000003,7183.3,15250,15264.800000003,1,7183.3,8081.50000000298,0,NA,"Rating Scale","Rating Scale",2,"object-36","BIQ",NA,"SUPLCM16544"
"10",1719922527246,"02/07/2024 12:15:27",1719926127246,1,"02/07/2024 14:15:27",180348,2,"task-7hcp",NA,38675635,11355075,NA,"complete",NA,"computer","Desktop or Laptop","Mac OS 10.15.7","Chrome 125.0.0.0","1440x900","1440x728",NA,NA,0,"BIQ (Charlotte)",5,"IAHBGCFDE","Failed AC2","Passed AC1","Spreadsheet1","Spreadsheet1",1,"BIQ","Screen 3","o21mwi",3,"response","7",14450,15250,15265.199999994,14450,15250,15265.199999994,1,14450,815.199999994038,0,NA,"Rating Scale","Rating Scale",9,"object-86","BIQ",NA,"SUPLCM16544"
"11",1719922546942,"02/07/2024 12:15:46",1719926146942,1,"02/07/2024 14:15:46",180348,2,"task-7hcp",NA,38675635,11355075,NA,"complete",NA,"computer","Desktop or Laptop","Mac OS 10.15.7","Chrome 125.0.0.0","1440x900","1440x728",NA,NA,0,"BIQ (Charlotte)",5,"IAHBGCFDE","Failed AC2","Passed AC1","Spreadsheet1","Spreadsheet1",1,"BIQ","Screen 4","iz3the",4,"continue","",19711.300000003,19700.1,19711.300000003,19711.300000003,19700.1,19711.300000003,1,19711.300000003,0,0,NA,"Click To Continue","Continue Button",22,"object-73","BIQ",NA,"SUPLCM16544"
"12",1719922546945,"02/07/2024 12:15:46",1719926146945,1,"02/07/2024 14:15:46",180348,2,"task-7hcp",NA,38675635,11355075,NA,"complete",NA,"computer","Desktop or Laptop","Mac OS 10.15.7","Chrome 125.0.0.0","1440x900","1440x728",NA,NA,0,"BIQ (Charlotte)",5,"IAHBGCFDE","Failed AC2","Passed AC1","Spreadsheet1","Spreadsheet1",1,"BIQ","Screen 4","iz3the",4,"response","5",9916.7,19700.1,19714.300000003,9916.7,19700.1,19714.300000003,1,9916.7,9797.60000000298,0,NA,"Rating Scale","Rating Scale",2,"object-53","BIQ",NA,"SUPLCM16544"
"13",1719922546945,"02/07/2024 12:15:46",1719926146945,1,"02/07/2024 14:15:46",180348,2,"task-7hcp",NA,38675635,11355075,NA,"complete",NA,"computer","Desktop or Laptop","Mac OS 10.15.7","Chrome 125.0.0.0","1440x900","1440x728",NA,NA,0,"BIQ (Charlotte)",5,"IAHBGCFDE","Failed AC2","Passed AC1","Spreadsheet1","Spreadsheet1",1,"BIQ","Screen 4","iz3the",4,"response","4",15966.7,19700.1,19714.6,15966.7,19700.1,19714.6,1,15966.7,3747.9,0,NA,"Rating Scale","Rating Scale",9,"object-60","BIQ",NA,"SUPLCM16544"
"14",1719922546945,"02/07/2024 12:15:46",1719926146945,1,"02/07/2024 14:15:46",180348,2,"task-7hcp",NA,38675635,11355075,NA,"complete",NA,"computer","Desktop or Laptop","Mac OS 10.15.7","Chrome 125.0.0.0","1440x900","1440x728",NA,NA,0,"BIQ (Charlotte)",5,"IAHBGCFDE","Failed AC2","Passed AC1","Spreadsheet1","Spreadsheet1",1,"BIQ","Screen 4","iz3the",4,"response","8",19016.8,19700.1,19714.800000003,19016.8,19700.1,19714.800000003,1,19016.8,698.000000002983,0,NA,"Rating Scale","Rating Scale",16,"object-67","BIQ",NA,"SUPLCM16544"
"15",1719922546950,"02/07/2024 12:15:46",1719926146950,1,"02/07/2024 14:15:46",180348,2,"task-7hcp",NA,38675635,11355075,NA,"complete",NA,"computer","Desktop or Laptop","Mac OS 10.15.7","Chrome 125.0.0.0","1440x900","1440x728",NA,NA,0,"BIQ (Charlotte)",5,"IAHBGCFDE","Failed AC2","Passed AC1","Spreadsheet1","Spreadsheet1",NA,"","","",NA,"info","END",NA,NA,NA,NA,NA,NA,0,NA,NA,NA,NA,"","",NA,"","",NA,"SUPLCM16544"
"1",1719828454529,"01/07/2024 10:07:34",1719832054529,1,"01/07/2024 12:07:34",180348,2,"task-7hcp",NA,38642354,11341646,NA,"complete",NA,"computer","Desktop or Laptop","Mac OS 10.15.7","Chrome 126.0.0.0","1512x982","1512x858",NA,NA,0,"BIQ (Charlotte)",5,"GHFIEADBC","Passed AC2","","Spreadsheet1","Spreadsheet1",NA,"","","",NA,"info","BEGIN",NA,NA,NA,NA,NA,NA,0,NA,NA,NA,NA,"","",NA,"","",NA,"SUPLCM34679"
"2",1719828488715,"01/07/2024 10:08:08",1719832088715,1,"01/07/2024 12:08:08",180348,2,"task-7hcp",NA,38642354,11341646,NA,"complete",NA,"computer","Desktop or Laptop","Mac OS 10.15.7","Chrome 126.0.0.0","1512x982","1512x858",NA,NA,0,"BIQ (Charlotte)",5,"GHFIEADBC","Passed AC2","","Spreadsheet1","Spreadsheet1",1,"BIQ","Screen 1","9dh6eq",1,"continue","",34196.9,34189.4,34196.9,34196.9,34189.4,34196.9,1,34196.9,0,0,NA,"Click To Continue","Continue Button",16,"object-48","BIQ",NA,"SUPLCM34679"
"3",1719828488718,"01/07/2024 10:08:08",1719832088718,1,"01/07/2024 12:08:08",180348,2,"task-7hcp",NA,38642354,11341646,NA,"complete",NA,"computer","Desktop or Laptop","Mac OS 10.15.7","Chrome 126.0.0.0","1512x982","1512x858",NA,NA,0,"BIQ (Charlotte)",5,"GHFIEADBC","Passed AC2","","Spreadsheet1","Spreadsheet1",1,"BIQ","Screen 1","9dh6eq",1,"response","2",21257.6,34189.4,34196.9,21257.6,34189.4,34196.9,1,21257.6,12939.3,0,NA,"Rating Scale","Rating Scale",3,"object-5","BIQ",NA,"SUPLCM34679"
"4",1719828488718,"01/07/2024 10:08:08",1719832088718,1,"01/07/2024 12:08:08",180348,2,"task-7hcp",NA,38642354,11341646,NA,"complete",NA,"computer","Desktop or Laptop","Mac OS 10.15.7","Chrome 126.0.0.0","1512x982","1512x858",NA,NA,0,"BIQ (Charlotte)",5,"GHFIEADBC","Passed AC2","","Spreadsheet1","Spreadsheet1",1,"BIQ","Screen 1","9dh6eq",1,"response","4",33613.4,34189.4,34196.9,33613.4,34189.4,34196.9,1,33613.4,583.5,0,NA,"Rating Scale","Rating Scale",10,"object-18","BIQ",NA,"SUPLCM34679"
"5",1719828514351,"01/07/2024 10:08:34",1719832114351,1,"01/07/2024 12:08:34",180348,2,"task-7hcp",NA,38642354,11341646,NA,"complete",NA,"computer","Desktop or Laptop","Mac OS 10.15.7","Chrome 126.0.0.0","1512x982","1512x858",NA,NA,0,"BIQ (Charlotte)",5,"GHFIEADBC","Passed AC2","","Spreadsheet1","Spreadsheet1",1,"BIQ","Screen 2","svpz34",2,"continue","",25644.9,25637.5,25644.9,25644.9,25637.5,25644.9,1,25644.9,0,0,NA,"Click To Continue","Continue Button",7,"object-1017","BIQ",NA,"SUPLCM34679"
"6",1719828514353,"01/07/2024 10:08:34",1719832114353,1,"01/07/2024 12:08:34",180348,2,"task-7hcp",NA,38642354,11341646,NA,"complete",NA,"computer","Desktop or Laptop","Mac OS 10.15.7","Chrome 126.0.0.0","1512x982","1512x858",NA,NA,0,"BIQ (Charlotte)",5,"GHFIEADBC","Passed AC2","","Spreadsheet1","Spreadsheet1",1,"BIQ","Screen 2","svpz34",2,"response","4",10375.2,25637.5,25644.9,10375.2,25637.5,25644.9,1,10375.2,15269.7,0,NA,"Rating Scale","Rating Scale",8,"object-118","BIQ",NA,"SUPLCM34679"
"7",1719828514354,"01/07/2024 10:08:34",1719832114354,1,"01/07/2024 12:08:34",180348,2,"task-7hcp",NA,38642354,11341646,NA,"complete",NA,"computer","Desktop or Laptop","Mac OS 10.15.7","Chrome 126.0.0.0","1512x982","1512x858",NA,NA,0,"BIQ (Charlotte)",5,"GHFIEADBC","Passed AC2","","Spreadsheet1","Spreadsheet1",1,"BIQ","Screen 2","svpz34",2,"response","4",24833.4,25637.5,25644.9,24833.4,25637.5,25644.9,1,24833.4,811.5,0,NA,"Rating Scale","Rating Scale",10,"object-121","BIQ",NA,"SUPLCM34679"
"8",1719828539509,"01/07/2024 10:08:59",1719832139509,1,"01/07/2024 12:08:59",180348,2,"task-7hcp",NA,38642354,11341646,NA,"complete",NA,"computer","Desktop or Laptop","Mac OS 10.15.7","Chrome 126.0.0.0","1512x982","1512x858",NA,NA,0,"BIQ (Charlotte)",5,"GHFIEADBC","Passed AC2","","Spreadsheet1","Spreadsheet1",1,"BIQ","Screen 3","o21mwi",3,"continue","",25166.7999999999,25161.2,25166.7999999999,25166.7999999999,25161.2,25166.7999999999,1,25166.7999999999,0,0,NA,"Click To Continue","Continue Button",15,"object-50","BIQ",NA,"SUPLCM34679"
"9",1719828539511,"01/07/2024 10:08:59",1719832139511,1,"01/07/2024 12:08:59",180348,2,"task-7hcp",NA,38642354,11341646,NA,"complete",NA,"computer","Desktop or Laptop","Mac OS 10.15.7","Chrome 126.0.0.0","1512x982","1512x858",NA,NA,0,"BIQ (Charlotte)",5,"GHFIEADBC","Passed AC2","","Spreadsheet1","Spreadsheet1",1,"BIQ","Screen 3","o21mwi",3,"response","4",11967.7,25161.2,25169.3,11967.7,25161.2,25169.3,1,11967.7,13201.6,0,NA,"Rating Scale","Rating Scale",2,"object-36","BIQ",NA,"SUPLCM34679"
"10",1719828539512,"01/07/2024 10:08:59",1719832139512,1,"01/07/2024 12:08:59",180348,2,"task-7hcp",NA,38642354,11341646,NA,"complete",NA,"computer","Desktop or Laptop","Mac OS 10.15.7","Chrome 126.0.0.0","1512x982","1512x858",NA,NA,0,"BIQ (Charlotte)",5,"GHFIEADBC","Passed AC2","","Spreadsheet1","Spreadsheet1",1,"BIQ","Screen 3","o21mwi",3,"response","4",24360.8,25161.2,25169.3,24360.8,25161.2,25169.3,1,24360.8,808.500000000015,0,NA,"Rating Scale","Rating Scale",9,"object-86","BIQ",NA,"SUPLCM34679"
"11",1719828563099,"01/07/2024 10:09:23",1719832163099,1,"01/07/2024 12:09:23",180348,2,"task-7hcp",NA,38642354,11341646,NA,"complete",NA,"computer","Desktop or Laptop","Mac OS 10.15.7","Chrome 126.0.0.0","1512x982","1512x858",NA,NA,0,"BIQ (Charlotte)",5,"GHFIEADBC","Passed AC2","","Spreadsheet1","Spreadsheet1",1,"BIQ","Screen 4","iz3the",4,"continue","",23592.3,23583.8,23592.3,23592.3,23583.8,23592.3,1,23592.3,0,0,NA,"Click To Continue","Continue Button",22,"object-73","BIQ",NA,"SUPLCM34679"
"12",1719828563102,"01/07/2024 10:09:23",1719832163102,1,"01/07/2024 12:09:23",180348,2,"task-7hcp",NA,38642354,11341646,NA,"complete",NA,"computer","Desktop or Laptop","Mac OS 10.15.7","Chrome 126.0.0.0","1512x982","1512x858",NA,NA,0,"BIQ (Charlotte)",5,"GHFIEADBC","Passed AC2","","Spreadsheet1","Spreadsheet1",1,"BIQ","Screen 4","iz3the",4,"response","2",7069.09999999999,23583.8,23592.3,7069.09999999999,23583.8,23592.3,1,7069.09999999999,16523.2,0,NA,"Rating Scale","Rating Scale",2,"object-53","BIQ",NA,"SUPLCM34679"
"13",1719828563102,"01/07/2024 10:09:23",1719832163102,1,"01/07/2024 12:09:23",180348,2,"task-7hcp",NA,38642354,11341646,NA,"complete",NA,"computer","Desktop or Laptop","Mac OS 10.15.7","Chrome 126.0.0.0","1512x982","1512x858",NA,NA,0,"BIQ (Charlotte)",5,"GHFIEADBC","Passed AC2","","Spreadsheet1","Spreadsheet1",1,"BIQ","Screen 4","iz3the",4,"response","4",13435.4,23583.8,23592.3,13435.4,23583.8,23592.3,1,13435.4,10156.9,0,NA,"Rating Scale","Rating Scale",9,"object-60","BIQ",NA,"SUPLCM34679"
"14",1719828563102,"01/07/2024 10:09:23",1719832163102,1,"01/07/2024 12:09:23",180348,2,"task-7hcp",NA,38642354,11341646,NA,"complete",NA,"computer","Desktop or Laptop","Mac OS 10.15.7","Chrome 126.0.0.0","1512x982","1512x858",NA,NA,0,"BIQ (Charlotte)",5,"GHFIEADBC","Passed AC2","","Spreadsheet1","Spreadsheet1",1,"BIQ","Screen 4","iz3the",4,"response","4",19144.3,23583.8,23592.3,19144.3,23583.8,23592.3,1,19144.3,4448,0,NA,"Rating Scale","Rating Scale",16,"object-67","BIQ",NA,"SUPLCM34679"
"15",1719828563106,"01/07/2024 10:09:23",1719832163106,1,"01/07/2024 12:09:23",180348,2,"task-7hcp",NA,38642354,11341646,NA,"complete",NA,"computer","Desktop or Laptop","Mac OS 10.15.7","Chrome 126.0.0.0","1512x982","1512x858",NA,NA,0,"BIQ (Charlotte)",5,"GHFIEADBC","Passed AC2","","Spreadsheet1","Spreadsheet1",NA,"","","",NA,"info","END",NA,NA,NA,NA,NA,NA,0,NA,NA,NA,NA,"","",NA,"","",NA,"SUPLCM34679"
"1",1719576387616,"28/06/2024 12:06:27",1719587187616,3,"28/06/2024 18:06:27",180348,2,"task-7hcp",NA,38565952,11330934,NA,"complete",NA,"computer","Desktop or Laptop","Windows 10","Chrome 126.0.0.0","1536x864","1536x738",NA,NA,0,"BIQ (Charlotte)",5,"FGEHDICAB","Passed AC2","","Spreadsheet1","Spreadsheet1",NA,"","","",NA,"info","BEGIN",NA,NA,NA,NA,NA,NA,0,NA,NA,NA,NA,"","",NA,"","",NA,"SUPLCM31721"
"2",1719576427063,"28/06/2024 12:07:07",1719587227063,3,"28/06/2024 18:07:07",180348,2,"task-7hcp",NA,38565952,11330934,NA,"complete",NA,"computer","Desktop or Laptop","Windows 10","Chrome 126.0.0.0","1536x864","1536x738",NA,NA,0,"BIQ (Charlotte)",5,"FGEHDICAB","Passed AC2","","Spreadsheet1","Spreadsheet1",1,"BIQ","Screen 1","9dh6eq",1,"continue","",39571.916,39555.216,39571.916,39571.916,39555.216,39571.916,1,39571.916,0,0,NA,"Click To Continue","Continue Button",16,"object-48","BIQ",NA,"SUPLCM31721"
"3",1719576427067,"28/06/2024 12:07:07",1719587227067,3,"28/06/2024 18:07:07",180348,2,"task-7hcp",NA,38565952,11330934,NA,"complete",NA,"computer","Desktop or Laptop","Windows 10","Chrome 126.0.0.0","1536x864","1536x738",NA,NA,0,"BIQ (Charlotte)",5,"FGEHDICAB","Passed AC2","","Spreadsheet1","Spreadsheet1",1,"BIQ","Screen 1","9dh6eq",1,"response","4",20593.116,39555.216,39571.916,20593.116,39555.216,39571.916,1,20593.116,18978.8,0,NA,"Rating Scale","Rating Scale",3,"object-5","BIQ",NA,"SUPLCM31721"
"4",1719576427067,"28/06/2024 12:07:07",1719587227067,3,"28/06/2024 18:07:07",180348,2,"task-7hcp",NA,38565952,11330934,NA,"complete",NA,"computer","Desktop or Laptop","Windows 10","Chrome 126.0.0.0","1536x864","1536x738",NA,NA,0,"BIQ (Charlotte)",5,"FGEHDICAB","Passed AC2","","Spreadsheet1","Spreadsheet1",1,"BIQ","Screen 1","9dh6eq",1,"response","4",36372.616,39555.216,39571.916,36372.616,39555.216,39571.916,1,36372.616,3199.3,0,NA,"Rating Scale","Rating Scale",10,"object-18","BIQ",NA,"SUPLCM31721"
"5",1719576438512,"28/06/2024 12:07:18",1719587238512,3,"28/06/2024 18:07:18",180348,2,"task-7hcp",NA,38565952,11330934,NA,"complete",NA,"computer","Desktop or Laptop","Windows 10","Chrome 126.0.0.0","1536x864","1536x738",NA,NA,0,"BIQ (Charlotte)",5,"FGEHDICAB","Passed AC2","","Spreadsheet1","Spreadsheet1",1,"BIQ","Screen 2","svpz34",2,"continue","",11473.4,11463.8,11473.4,11473.4,11463.8,11473.4,1,11473.4,0,0,NA,"Click To Continue","Continue Button",7,"object-1017","BIQ",NA,"SUPLCM31721"
"6",1719576438514,"28/06/2024 12:07:18",1719587238514,3,"28/06/2024 18:07:18",180348,2,"task-7hcp",NA,38565952,11330934,NA,"complete",NA,"computer","Desktop or Laptop","Windows 10","Chrome 126.0.0.0","1536x864","1536x738",NA,NA,0,"BIQ (Charlotte)",5,"FGEHDICAB","Passed AC2","","Spreadsheet1","Spreadsheet1",1,"BIQ","Screen 2","svpz34",2,"response","2",6298.4,11463.8,11475.7999999762,6298.4,11463.8,11475.7999999762,1,6298.4,5177.39999997616,0,NA,"Rating Scale","Rating Scale",8,"object-118","BIQ",NA,"SUPLCM31721"
"7",1719576438515,"28/06/2024 12:07:18",1719587238515,3,"28/06/2024 18:07:18",180348,2,"task-7hcp",NA,38565952,11330934,NA,"complete",NA,"computer","Desktop or Laptop","Windows 10","Chrome 126.0.0.0","1536x864","1536x738",NA,NA,0,"BIQ (Charlotte)",5,"FGEHDICAB","Passed AC2","","Spreadsheet1","Spreadsheet1",1,"BIQ","Screen 2","svpz34",2,"response","3",10297.5,11463.8,11476.2999999762,10297.5,11463.8,11476.2999999762,1,10297.5,1178.79999997616,0,NA,"Rating Scale","Rating Scale",10,"object-121","BIQ",NA,"SUPLCM31721"
"8",1719576447385,"28/06/2024 12:07:27",1719587247385,3,"28/06/2024 18:07:27",180348,2,"task-7hcp",NA,38565952,11330934,NA,"complete",NA,"computer","Desktop or Laptop","Windows 10","Chrome 126.0.0.0","1536x864","1536x738",NA,NA,0,"BIQ (Charlotte)",5,"FGEHDICAB","Passed AC2","","Spreadsheet1","Spreadsheet1",1,"BIQ","Screen 3","o21mwi",3,"continue","",8882.20000002384,8881.2,8882.20000002384,8882.20000002384,8881.2,8882.20000002384,1,8882.20000002384,0,0,NA,"Click To Continue","Continue Button",15,"object-50","BIQ",NA,"SUPLCM31721"
"9",1719576447385,"28/06/2024 12:07:27",1719587247385,3,"28/06/2024 18:07:27",180348,2,"task-7hcp",NA,38565952,11330934,NA,"complete",NA,"computer","Desktop or Laptop","Windows 10","Chrome 126.0.0.0","1536x864","1536x738",NA,NA,0,"BIQ (Charlotte)",5,"FGEHDICAB","Passed AC2","","Spreadsheet1","Spreadsheet1",1,"BIQ","Screen 3","o21mwi",3,"response","2",3132.6,8881.2,8882.89999995231,3132.6,8881.2,8882.89999995231,1,3132.6,5750.29999995232,0,NA,"Rating Scale","Rating Scale",2,"object-36","BIQ",NA,"SUPLCM31721"
"10",1719576447386,"28/06/2024 12:07:27",1719587247386,3,"28/06/2024 18:07:27",180348,2,"task-7hcp",NA,38565952,11330934,NA,"complete",NA,"computer","Desktop or Laptop","Windows 10","Chrome 126.0.0.0","1536x864","1536x738",NA,NA,0,"BIQ (Charlotte)",5,"FGEHDICAB","Passed AC2","","Spreadsheet1","Spreadsheet1",1,"BIQ","Screen 3","o21mwi",3,"response","2",4232.3,8881.2,8883.29999992847,4232.3,8881.2,8883.29999992847,1,4232.3,4650.99999992848,0,NA,"Rating Scale","Rating Scale",9,"object-86","BIQ",NA,"SUPLCM31721"
"11",1719576469192,"28/06/2024 12:07:49",1719587269192,3,"28/06/2024 18:07:49",180348,2,"task-7hcp",NA,38565952,11330934,NA,"complete",NA,"computer","Desktop or Laptop","Windows 10","Chrome 126.0.0.0","1536x864","1536x738",NA,NA,0,"BIQ (Charlotte)",5,"FGEHDICAB","Passed AC2","","Spreadsheet1","Spreadsheet1",1,"BIQ","Screen 4","iz3the",4,"continue","",21807.9,21794.8,21807.9,21807.9,21794.8,21807.9,1,21807.9,0,0,NA,"Click To Continue","Continue Button",22,"object-73","BIQ",NA,"SUPLCM31721"
"12",1719576469195,"28/06/2024 12:07:49",1719587269195,3,"28/06/2024 18:07:49",180348,2,"task-7hcp",NA,38565952,11330934,NA,"complete",NA,"computer","Desktop or Laptop","Windows 10","Chrome 126.0.0.0","1536x864","1536x738",NA,NA,0,"BIQ (Charlotte)",5,"FGEHDICAB","Passed AC2","","Spreadsheet1","Spreadsheet1",1,"BIQ","Screen 4","iz3the",4,"response","0",7448.2,21794.8,21811.5,7448.2,21794.8,21811.5,1,7448.2,14363.3,0,NA,"Rating Scale","Rating Scale",2,"object-53","BIQ",NA,"SUPLCM31721"
"13",1719576469196,"28/06/2024 12:07:49",1719587269196,3,"28/06/2024 18:07:49",180348,2,"task-7hcp",NA,38565952,11330934,NA,"complete",NA,"computer","Desktop or Laptop","Windows 10","Chrome 126.0.0.0","1536x864","1536x738",NA,NA,0,"BIQ (Charlotte)",5,"FGEHDICAB","Passed AC2","","Spreadsheet1","Spreadsheet1",1,"BIQ","Screen 4","iz3the",4,"response","3",10797.4,21794.8,21811.5,10797.4,21794.8,21811.5,1,10797.4,11014.1,0,NA,"Rating Scale","Rating Scale",9,"object-60","BIQ",NA,"SUPLCM31721"
"14",1719576469196,"28/06/2024 12:07:49",1719587269196,3,"28/06/2024 18:07:49",180348,2,"task-7hcp",NA,38565952,11330934,NA,"complete",NA,"computer","Desktop or Laptop","Windows 10","Chrome 126.0.0.0","1536x864","1536x738",NA,NA,0,"BIQ (Charlotte)",5,"FGEHDICAB","Passed AC2","","Spreadsheet1","Spreadsheet1",1,"BIQ","Screen 4","iz3the",4,"response","8",19428.6,21794.8,21811.5,19428.6,21794.8,21811.5,1,19428.6,2382.89999999999,0,NA,"Rating Scale","Rating Scale",16,"object-67","BIQ",NA,"SUPLCM31721"
"15",1719576469202,"28/06/2024 12:07:49",1719587269202,3,"28/06/2024 18:07:49",180348,2,"task-7hcp",NA,38565952,11330934,NA,"complete",NA,"computer","Desktop or Laptop","Windows 10","Chrome 126.0.0.0","1536x864","1536x738",NA,NA,0,"BIQ (Charlotte)",5,"FGEHDICAB","Passed AC2","","Spreadsheet1","Spreadsheet1",NA,"","","",NA,"info","END",NA,NA,NA,NA,NA,NA,0,NA,NA,NA,NA,"","",NA,"","",NA,"SUPLCM31721"
"1",1719396735630,"26/06/2024 10:12:15",1719400335630,1,"26/06/2024 12:12:15",180348,2,"task-7hcp",NA,38506715,11316808,NA,"complete",NA,"computer","Desktop or Laptop","Mac OS 10.15.7","Chrome 125.0.0.0","1440x900","1440x788",NA,NA,0,"BIQ (Charlotte)",5,"DECFBGAHI","Passed AC2","","Spreadsheet1","Spreadsheet1",NA,"","","",NA,"info","BEGIN",NA,NA,NA,NA,NA,NA,0,NA,NA,NA,NA,"","",NA,"","",NA,"SUPLCM01588"
"2",1719396793060,"26/06/2024 10:13:13",1719400393060,1,"26/06/2024 12:13:13",180348,2,"task-7hcp",NA,38506715,11316808,NA,"complete",NA,"computer","Desktop or Laptop","Mac OS 10.15.7","Chrome 125.0.0.0","1440x900","1440x788",NA,NA,0,"BIQ (Charlotte)",5,"DECFBGAHI","Passed AC2","","Spreadsheet1","Spreadsheet1",1,"BIQ","Screen 1","9dh6eq",1,"continue","",57450.3819999881,57434.182,57450.3819999881,57450.3819999881,57434.182,57450.3819999881,1,57450.3819999881,0,0,NA,"Click To Continue","Continue Button",16,"object-48","BIQ",NA,"SUPLCM01588"
"3",1719396793063,"26/06/2024 10:13:13",1719400393063,1,"26/06/2024 12:13:13",180348,2,"task-7hcp",NA,38506715,11316808,NA,"complete",NA,"computer","Desktop or Laptop","Mac OS 10.15.7","Chrome 125.0.0.0","1440x900","1440x788",NA,NA,0,"BIQ (Charlotte)",5,"DECFBGAHI","Passed AC2","","Spreadsheet1","Spreadsheet1",1,"BIQ","Screen 1","9dh6eq",1,"response","3",25683.682,57434.182,57451.582,25683.682,57434.182,57451.582,1,25683.682,31767.9,0,NA,"Rating Scale","Rating Scale",3,"object-5","BIQ",NA,"SUPLCM01588"
"4",1719396793063,"26/06/2024 10:13:13",1719400393063,1,"26/06/2024 12:13:13",180348,2,"task-7hcp",NA,38506715,11316808,NA,"complete",NA,"computer","Desktop or Laptop","Mac OS 10.15.7","Chrome 125.0.0.0","1440x900","1440x788",NA,NA,0,"BIQ (Charlotte)",5,"DECFBGAHI","Passed AC2","","Spreadsheet1","Spreadsheet1",1,"BIQ","Screen 1","9dh6eq",1,"response","1",55700.782,57434.182,57451.582,55700.782,57434.182,57451.582,1,55700.782,1750.8,0,NA,"Rating Scale","Rating Scale",10,"object-18","BIQ",NA,"SUPLCM01588"
"5",1719396808674,"26/06/2024 10:13:28",1719400408674,1,"26/06/2024 12:13:28",180348,2,"task-7hcp",NA,38506715,11316808,NA,"complete",NA,"computer","Desktop or Laptop","Mac OS 10.15.7","Chrome 125.0.0.0","1440x900","1440x788",NA,NA,0,"BIQ (Charlotte)",5,"DECFBGAHI","Passed AC2","","Spreadsheet1","Spreadsheet1",1,"BIQ","Screen 2","svpz34",2,"continue","",15631.6999999881,15616.9,15631.6999999881,15631.6999999881,15616.9,15631.6999999881,1,15631.6999999881,0,0,NA,"Click To Continue","Continue Button",7,"object-1017","BIQ",NA,"SUPLCM01588"
"6",1719396808677,"26/06/2024 10:13:28",1719400408677,1,"26/06/2024 12:13:28",180348,2,"task-7hcp",NA,38506715,11316808,NA,"complete",NA,"computer","Desktop or Laptop","Mac OS 10.15.7","Chrome 125.0.0.0","1440x900","1440x788",NA,NA,0,"BIQ (Charlotte)",5,"DECFBGAHI","Passed AC2","","Spreadsheet1","Spreadsheet1",1,"BIQ","Screen 2","svpz34",2,"response","6",4799.1,15616.9,15633.6,4799.1,15616.9,15633.6,1,4799.1,10834.5,0,NA,"Rating Scale","Rating Scale",8,"object-118","BIQ",NA,"SUPLCM01588"
"7",1719396808677,"26/06/2024 10:13:28",1719400408677,1,"26/06/2024 12:13:28",180348,2,"task-7hcp",NA,38506715,11316808,NA,"complete",NA,"computer","Desktop or Laptop","Mac OS 10.15.7","Chrome 125.0.0.0","1440x900","1440x788",NA,NA,0,"BIQ (Charlotte)",5,"DECFBGAHI","Passed AC2","","Spreadsheet1","Spreadsheet1",1,"BIQ","Screen 2","svpz34",2,"response","7",14133.6,15616.9,15633.6,14133.6,15616.9,15633.6,1,14133.6,1499.99999999999,0,NA,"Rating Scale","Rating Scale",10,"object-121","BIQ",NA,"SUPLCM01588"
"8",1719396828058,"26/06/2024 10:13:48",1719400428058,1,"26/06/2024 12:13:48",180348,2,"task-7hcp",NA,38506715,11316808,NA,"complete",NA,"computer","Desktop or Laptop","Mac OS 10.15.7","Chrome 125.0.0.0","1440x900","1440x788",NA,NA,0,"BIQ (Charlotte)",5,"DECFBGAHI","Passed AC2","","Spreadsheet1","Spreadsheet1",1,"BIQ","Screen 3","o21mwi",3,"continue","",19398.500000006,19383.6,19398.500000006,19398.500000006,19383.6,19398.500000006,1,19398.500000006,0,0,NA,"Click To Continue","Continue Button",15,"object-50","BIQ",NA,"SUPLCM01588"
"9",1719396828061,"26/06/2024 10:13:48",1719400428061,1,"26/06/2024 12:13:48",180348,2,"task-7hcp",NA,38506715,11316808,NA,"complete",NA,"computer","Desktop or Laptop","Mac OS 10.15.7","Chrome 125.0.0.0","1440x900","1440x788",NA,NA,0,"BIQ (Charlotte)",5,"DECFBGAHI","Passed AC2","","Spreadsheet1","Spreadsheet1",1,"BIQ","Screen 3","o21mwi",3,"response","2",4800,19383.6,19400.2,4800,19383.6,19400.2,1,4800,14600.2,0,NA,"Rating Scale","Rating Scale",2,"object-36","BIQ",NA,"SUPLCM01588"
"10",1719396828061,"26/06/2024 10:13:48",1719400428061,1,"26/06/2024 12:13:48",180348,2,"task-7hcp",NA,38506715,11316808,NA,"complete",NA,"computer","Desktop or Laptop","Mac OS 10.15.7","Chrome 125.0.0.0","1440x900","1440x788",NA,NA,0,"BIQ (Charlotte)",5,"DECFBGAHI","Passed AC2","","Spreadsheet1","Spreadsheet1",1,"BIQ","Screen 3","o21mwi",3,"response","4",18732.6,19383.6,19400.2,18732.6,19383.6,19400.2,1,18732.6,667.600000000006,0,NA,"Rating Scale","Rating Scale",9,"object-86","BIQ",NA,"SUPLCM01588"
"11",1719396846241,"26/06/2024 10:14:06",1719400446241,1,"26/06/2024 12:14:06",180348,2,"task-7hcp",NA,38506715,11316808,NA,"complete",NA,"computer","Desktop or Laptop","Mac OS 10.15.7","Chrome 125.0.0.0","1440x900","1440x788",NA,NA,0,"BIQ (Charlotte)",5,"DECFBGAHI","Passed AC2","","Spreadsheet1","Spreadsheet1",1,"BIQ","Screen 4","iz3the",4,"continue","",18198,18183.6,18198,18198,18183.6,18198,1,18198,0,0,NA,"Click To Continue","Continue Button",22,"object-73","BIQ",NA,"SUPLCM01588"
"12",1719396846244,"26/06/2024 10:14:06",1719400446244,1,"26/06/2024 12:14:06",180348,2,"task-7hcp",NA,38506715,11316808,NA,"complete",NA,"computer","Desktop or Laptop","Mac OS 10.15.7","Chrome 125.0.0.0","1440x900","1440x788",NA,NA,0,"BIQ (Charlotte)",5,"DECFBGAHI","Passed AC2","","Spreadsheet1","Spreadsheet1",1,"BIQ","Screen 4","iz3the",4,"response","0",8050.2,18183.6,18200.2,8050.2,18183.6,18200.2,1,8050.2,10150,0,NA,"Rating Scale","Rating Scale",2,"object-53","BIQ",NA,"SUPLCM01588"
"13",1719396846244,"26/06/2024 10:14:06",1719400446244,1,"26/06/2024 12:14:06",180348,2,"task-7hcp",NA,38506715,11316808,NA,"complete",NA,"computer","Desktop or Laptop","Mac OS 10.15.7","Chrome 125.0.0.0","1440x900","1440x788",NA,NA,0,"BIQ (Charlotte)",5,"DECFBGAHI","Passed AC2","","Spreadsheet1","Spreadsheet1",1,"BIQ","Screen 4","iz3the",4,"response","2",12000.2,18183.6,18200.2,12000.2,18183.6,18200.2,1,12000.2,6200.00000000001,0,NA,"Rating Scale","Rating Scale",9,"object-60","BIQ",NA,"SUPLCM01588"
"14",1719396846245,"26/06/2024 10:14:06",1719400446245,1,"26/06/2024 12:14:06",180348,2,"task-7hcp",NA,38506715,11316808,NA,"complete",NA,"computer","Desktop or Laptop","Mac OS 10.15.7","Chrome 125.0.0.0","1440x900","1440x788",NA,NA,0,"BIQ (Charlotte)",5,"DECFBGAHI","Passed AC2","","Spreadsheet1","Spreadsheet1",1,"BIQ","Screen 4","iz3the",4,"response","6",17366.9,18183.6,18200.2,17366.9,18183.6,18200.2,1,17366.9,833.300000000017,0,NA,"Rating Scale","Rating Scale",16,"object-67","BIQ",NA,"SUPLCM01588"
"15",1719396846247,"26/06/2024 10:14:06",1719400446247,1,"26/06/2024 12:14:06",180348,2,"task-7hcp",NA,38506715,11316808,NA,"complete",NA,"computer","Desktop or Laptop","Mac OS 10.15.7","Chrome 125.0.0.0","1440x900","1440x788",NA,NA,0,"BIQ (Charlotte)",5,"DECFBGAHI","Passed AC2","","Spreadsheet1","Spreadsheet1",NA,"","","",NA,"info","END",NA,NA,NA,NA,NA,NA,0,NA,NA,NA,NA,"","",NA,"","",NA,"SUPLCM01588"
"1",1718794119021,"19/06/2024 10:48:39",1718797719021,1,"19/06/2024 12:48:39",180348,2,"task-7hcp",NA,38371150,11278148,NA,"complete",NA,"computer","Desktop or Laptop","Windows 10","Chrome 126.0.0.0","1536x960","1536x826",NA,NA,0,"BIQ (Charlotte)",5,"BCADIEHFG","Passed AC2","","Spreadsheet1","Spreadsheet1",NA,"","","",NA,"info","BEGIN",NA,NA,NA,NA,NA,NA,0,NA,NA,NA,NA,"","",NA,"","",NA,"SUPLCM50909"
"2",1718794150443,"19/06/2024 10:49:10",1718797750443,1,"19/06/2024 12:49:10",180348,2,"task-7hcp",NA,38371150,11278148,NA,"complete",NA,"computer","Desktop or Laptop","Windows 10","Chrome 126.0.0.0","1536x960","1536x826",NA,NA,0,"BIQ (Charlotte)",5,"BCADIEHFG","Passed AC2","","Spreadsheet1","Spreadsheet1",1,"BIQ","Screen 1","9dh6eq",1,"continue","",32815.9000000358,32805.1,32815.9000000358,32815.9000000358,32805.1,32815.9000000358,1,32815.9000000358,0,0,NA,"Click To Continue","Continue Button",16,"object-48","BIQ",NA,"SUPLCM50909"
"3",1718794150446,"19/06/2024 10:49:10",1718797750446,1,"19/06/2024 12:49:10",180348,2,"task-7hcp",NA,38371150,11278148,NA,"complete",NA,"computer","Desktop or Laptop","Windows 10","Chrome 126.0.0.0","1536x960","1536x826",NA,NA,0,"BIQ (Charlotte)",5,"BCADIEHFG","Passed AC2","","Spreadsheet1","Spreadsheet1",1,"BIQ","Screen 1","9dh6eq",1,"response","4",17172.2,32805.1,32818.9000000358,17172.2,32805.1,32818.9000000358,1,17172.2,15646.7000000358,0,NA,"Rating Scale","Rating Scale",3,"object-5","BIQ",NA,"SUPLCM50909"
"4",1718794150446,"19/06/2024 10:49:10",1718797750446,1,"19/06/2024 12:49:10",180348,2,"task-7hcp",NA,38371150,11278148,NA,"complete",NA,"computer","Desktop or Laptop","Windows 10","Chrome 126.0.0.0","1536x960","1536x826",NA,NA,0,"BIQ (Charlotte)",5,"BCADIEHFG","Passed AC2","","Spreadsheet1","Spreadsheet1",1,"BIQ","Screen 1","9dh6eq",1,"response","3",27005.6,32805.1,32819.1999999881,27005.6,32805.1,32819.1999999881,1,27005.6,5813.59999998808,0,NA,"Rating Scale","Rating Scale",10,"object-18","BIQ",NA,"SUPLCM50909"
"5",1718794178707,"19/06/2024 10:49:38",1718797778707,1,"19/06/2024 12:49:38",180348,2,"task-7hcp",NA,38371150,11278148,NA,"complete",NA,"computer","Desktop or Laptop","Windows 10","Chrome 126.0.0.0","1536x960","1536x826",NA,NA,0,"BIQ (Charlotte)",5,"BCADIEHFG","Passed AC2","","Spreadsheet1","Spreadsheet1",1,"BIQ","Screen 2","svpz34",2,"continue","",28275.2000000119,28265.2,28275.2000000119,28275.2000000119,28265.2,28275.2000000119,1,28275.2000000119,0,0,NA,"Click To Continue","Continue Button",7,"object-1017","BIQ",NA,"SUPLCM50909"
"6",1718794178710,"19/06/2024 10:49:38",1718797778710,1,"19/06/2024 12:49:38",180348,2,"task-7hcp",NA,38371150,11278148,NA,"complete",NA,"computer","Desktop or Laptop","Windows 10","Chrome 126.0.0.0","1536x960","1536x826",NA,NA,0,"BIQ (Charlotte)",5,"BCADIEHFG","Passed AC2","","Spreadsheet1","Spreadsheet1",1,"BIQ","Screen 2","svpz34",2,"response","5",9632.8,28265.2,28277.7000000119,9632.8,28265.2,28277.7000000119,1,9632.8,18644.9000000119,0,NA,"Rating Scale","Rating Scale",8,"object-118","BIQ",NA,"SUPLCM50909"
"7",1718794178710,"19/06/2024 10:49:38",1718797778710,1,"19/06/2024 12:49:38",180348,2,"task-7hcp",NA,38371150,11278148,NA,"complete",NA,"computer","Desktop or Laptop","Windows 10","Chrome 126.0.0.0","1536x960","1536x826",NA,NA,0,"BIQ (Charlotte)",5,"BCADIEHFG","Passed AC2","","Spreadsheet1","Spreadsheet1",1,"BIQ","Screen 2","svpz34",2,"response","4",26682.2,28265.2,28278.0000000238,26682.2,28265.2,28278.0000000238,1,26682.2,1595.80000002384,0,NA,"Rating Scale","Rating Scale",10,"object-121","BIQ",NA,"SUPLCM50909"
"8",1718794203765,"19/06/2024 10:50:03",1718797803765,1,"19/06/2024 12:50:03",180348,2,"task-7hcp",NA,38371150,11278148,NA,"complete",NA,"computer","Desktop or Laptop","Windows 10","Chrome 126.0.0.0","1536x960","1536x826",NA,NA,0,"BIQ (Charlotte)",5,"BCADIEHFG","Passed AC2","","Spreadsheet1","Spreadsheet1",1,"BIQ","Screen 3","o21mwi",3,"continue","",25067.5000000119,25065.6,25067.5000000119,25067.5000000119,25065.6,25067.5000000119,1,25067.5000000119,0,0,NA,"Click To Continue","Continue Button",15,"object-50","BIQ",NA,"SUPLCM50909"
"9",1718794203767,"19/06/2024 10:50:03",1718797803767,1,"19/06/2024 12:50:03",180348,2,"task-7hcp",NA,38371150,11278148,NA,"complete",NA,"computer","Desktop or Laptop","Windows 10","Chrome 126.0.0.0","1536x960","1536x826",NA,NA,0,"BIQ (Charlotte)",5,"BCADIEHFG","Passed AC2","","Spreadsheet1","Spreadsheet1",1,"BIQ","Screen 3","o21mwi",3,"response","5",5582.8,25065.6,25069.8999999881,5582.8,25065.6,25069.8999999881,1,5582.8,19487.0999999881,0,NA,"Rating Scale","Rating Scale",2,"object-36","BIQ",NA,"SUPLCM50909"
"10",1718794203768,"19/06/2024 10:50:03",1718797803768,1,"19/06/2024 12:50:03",180348,2,"task-7hcp",NA,38371150,11278148,NA,"complete",NA,"computer","Desktop or Laptop","Windows 10","Chrome 126.0.0.0","1536x960","1536x826",NA,NA,0,"BIQ (Charlotte)",5,"BCADIEHFG","Passed AC2","","Spreadsheet1","Spreadsheet1",1,"BIQ","Screen 3","o21mwi",3,"response","7",23549,25065.6,25070.5000000119,23549,25065.6,25070.5000000119,1,23549,1521.50000001192,0,NA,"Rating Scale","Rating Scale",9,"object-86","BIQ",NA,"SUPLCM50909"
"11",1718794232981,"19/06/2024 10:50:32",1718797832981,1,"19/06/2024 12:50:32",180348,2,"task-7hcp",NA,38371150,11278148,NA,"complete",NA,"computer","Desktop or Laptop","Windows 10","Chrome 126.0.0.0","1536x960","1536x826",NA,NA,0,"BIQ (Charlotte)",5,"BCADIEHFG","Passed AC2","","Spreadsheet1","Spreadsheet1",1,"BIQ","Screen 4","iz3the",4,"continue","",29215.1,29198.6,29215.1,29215.1,29198.6,29215.1,1,29215.1,0,0,NA,"Click To Continue","Continue Button",22,"object-73","BIQ",NA,"SUPLCM50909"
"12",1718794232983,"19/06/2024 10:50:32",1718797832983,1,"19/06/2024 12:50:32",180348,2,"task-7hcp",NA,38371150,11278148,NA,"complete",NA,"computer","Desktop or Laptop","Windows 10","Chrome 126.0.0.0","1536x960","1536x826",NA,NA,0,"BIQ (Charlotte)",5,"BCADIEHFG","Passed AC2","","Spreadsheet1","Spreadsheet1",1,"BIQ","Screen 4","iz3the",4,"response","3",13616.1,29198.6,29215.1,13616.1,29198.6,29215.1,1,13616.1,15599,0,NA,"Rating Scale","Rating Scale",2,"object-53","BIQ",NA,"SUPLCM50909"
"13",1718794232984,"19/06/2024 10:50:32",1718797832984,1,"19/06/2024 12:50:32",180348,2,"task-7hcp",NA,38371150,11278148,NA,"complete",NA,"computer","Desktop or Laptop","Windows 10","Chrome 126.0.0.0","1536x960","1536x826",NA,NA,0,"BIQ (Charlotte)",5,"BCADIEHFG","Passed AC2","","Spreadsheet1","Spreadsheet1",1,"BIQ","Screen 4","iz3the",4,"response","6",18582.5,29198.6,29215.1,18582.5,29198.6,29215.1,1,18582.5,10632.6,0,NA,"Rating Scale","Rating Scale",9,"object-60","BIQ",NA,"SUPLCM50909"
"14",1718794232984,"19/06/2024 10:50:32",1718797832984,1,"19/06/2024 12:50:32",180348,2,"task-7hcp",NA,38371150,11278148,NA,"complete",NA,"computer","Desktop or Laptop","Windows 10","Chrome 126.0.0.0","1536x960","1536x826",NA,NA,0,"BIQ (Charlotte)",5,"BCADIEHFG","Passed AC2","","Spreadsheet1","Spreadsheet1",1,"BIQ","Screen 4","iz3the",4,"response","5",24398.9,29198.6,29215.1,24398.9,29198.6,29215.1,1,24398.9,4816.2,0,NA,"Rating Scale","Rating Scale",16,"object-67","BIQ",NA,"SUPLCM50909"
"15",1718794232989,"19/06/2024 10:50:32",1718797832989,1,"19/06/2024 12:50:32",180348,2,"task-7hcp",NA,38371150,11278148,NA,"complete",NA,"computer","Desktop or Laptop","Windows 10","Chrome 126.0.0.0","1536x960","1536x826",NA,NA,0,"BIQ (Charlotte)",5,"BCADIEHFG","Passed AC2","","Spreadsheet1","Spreadsheet1",NA,"","","",NA,"info","END",NA,NA,NA,NA,NA,NA,0,NA,NA,NA,NA,"","",NA,"","",NA,"SUPLCM50909"
"1",1722352043661,"30/07/2024 15:07:23",1722355643661,1,"30/07/2024 17:07:23",180348,2,"task-7hcp",NA,39280816,11519698,NA,"complete",NA,"computer","Desktop or Laptop","Windows 10","Chrome 127.0.0.0","1536x960","1536x825",NA,NA,0,"BIQ (Charlotte)",5,"FGEHDICAB","Passed AC2","","Spreadsheet1","Spreadsheet1",NA,"","","",NA,"info","BEGIN",NA,NA,NA,NA,NA,NA,0,NA,NA,NA,NA,"","",NA,"","",NA,"SUPLCM14738"
"2",1722352072132,"30/07/2024 15:07:52",1722355672132,1,"30/07/2024 17:07:52",180348,2,"task-7hcp",NA,39280816,11519698,NA,"complete",NA,"computer","Desktop or Laptop","Windows 10","Chrome 127.0.0.0","1536x960","1536x825",NA,NA,0,"BIQ (Charlotte)",5,"FGEHDICAB","Passed AC2","","Spreadsheet1","Spreadsheet1",1,"BIQ","Screen 1","9dh6eq",1,"continue","",28487.5000000477,28477.6,28487.5000000477,28487.5000000477,28477.6,28487.5000000477,1,28487.5000000477,0,0,NA,"Click To Continue","Continue Button",16,"object-48","BIQ",NA,"SUPLCM14738"
"3",1722352072134,"30/07/2024 15:07:52",1722355672134,1,"30/07/2024 17:07:52",180348,2,"task-7hcp",NA,39280816,11519698,NA,"complete",NA,"computer","Desktop or Laptop","Windows 10","Chrome 127.0.0.0","1536x960","1536x825",NA,NA,0,"BIQ (Charlotte)",5,"FGEHDICAB","Passed AC2","","Spreadsheet1","Spreadsheet1",1,"BIQ","Screen 1","9dh6eq",1,"response","4",17461.1,28477.6,28490.1000000715,17461.1,28477.6,28490.1000000715,1,17461.1,11029.0000000715,0,NA,"Rating Scale","Rating Scale",3,"object-5","BIQ",NA,"SUPLCM14738"
