"Event.Index","UTC.Timestamp","UTC.Date.and.Time","Local.Timestamp","Local.Timezone","Local.Date.and.Time","Experiment.ID","Experiment.Version","Tree.Node.Key","Repeat.Key","Schedule.ID","Participant.Private.ID","Participant.Starting.Group","Participant.Status","Participant.Completion.Code","Participant.Device.Type","Participant.Device","Participant.OS","Participant.Browser","Participant.Monitor.Size","Participant.Viewport.Size","Checkpoint","Room.ID","Room.Order","Task.Name","Task.Version","order.ot79","branch.g31k","branch.5gtn","Spreadsheet","Current.Spreadsheet","Trial.Number","Display","Screen","Screen.ID","Screen.Counter","Response.Type","Response","Onset.Time","Clock.Time","Reaction.Time","Absolute.Onset.Time","Absolute.Clock.Time","Absolute.Reaction.Time","Correct","Response.Onset","Response.Duration","Proportion","Tag","Component.Name","Object.Name","Object.Number","Object.ID","Spreadsheet..display","Manipulation..Spreadsheet","Random_ID_new"
"1",1718723402309,"18/06/2024 15:10:02",1718727002309,1,"18/06/2024 17:10:02",180348,2,"task-8tuj",NA,38357408,11274195,NA,"complete",NA,"computer","Desktop or Laptop","Mac OS 10.15.7","Chrome 116.0.0.0","1440x900","1440x783",NA,NA,0,"Task Introduction and Instructions (re-introduce video and audio) (Clone) (Clone)",3,"ABICHDGEF","Passed AC2","","Spreadsheet1","Spreadsheet1",NA,"","","",NA,"info","BEGIN",NA,NA,NA,NA,NA,NA,0,NA,NA,NA,NA,"","",NA,"","",NA,"SUPLCM91602"
"2",1718723406846,"18/06/2024 15:10:06",1718727006846,1,"18/06/2024 17:10:06",180348,2,"task-8tuj",NA,38357408,11274195,NA,"complete",NA,"computer","Desktop or Laptop","Mac OS 10.15.7","Chrome 116.0.0.0","1440x900","1440x783",NA,NA,0,"Task Introduction and Instructions (re-introduce video and audio) (Clone) (Clone)",3,"ABICHDGEF","Passed AC2","","Spreadsheet1","Spreadsheet1",1,"Task Instructions","Screen 1","anr7sn",1,"continue","",4494.44900001192,4466.756,4494.44900001192,4494.44900001192,4466.756,4494.44900001192,1,4494.44900001192,0,0,NA,"Click To Continue","Continue Button",3,"object-60","Task Instructions",NA,"SUPLCM91602"
"3",1718723409904,"18/06/2024 15:10:09",1718727009904,1,"18/06/2024 17:10:09",180348,2,"task-8tuj",NA,38357408,11274195,NA,"complete",NA,"computer","Desktop or Laptop","Mac OS 10.15.7","Chrome 116.0.0.0","1440x900","1440x783",NA,NA,0,"Task Introduction and Instructions (re-introduce video and audio) (Clone) (Clone)",3,"ABICHDGEF","Passed AC2","","Spreadsheet1","Spreadsheet1",1,"Task Instructions","Screen 4","spepx9",2,"continue","",3086.99300002384,3067.301,3086.99300002384,3086.99300002384,3067.301,3086.99300002384,1,3086.99300002384,0,0,NA,"Click To Continue","Continue Button",2,"object-9","Task Instructions",NA,"SUPLCM91602"
"4",1718723415576,"18/06/2024 15:10:15",1718727015576,1,"18/06/2024 17:10:15",180348,2,"task-8tuj",NA,38357408,11274195,NA,"complete",NA,"computer","Desktop or Laptop","Mac OS 10.15.7","Chrome 116.0.0.0","1440x900","1440x783",NA,NA,0,"Task Introduction and Instructions (re-introduce video and audio) (Clone) (Clone)",3,"ABICHDGEF","Passed AC2","","Spreadsheet1","Spreadsheet1",1,"Task Instructions","Screen 2","ce2tc8",3,"continue","",5691.19200002384,5666.78,5691.19200002384,5691.19200002384,5666.78,5691.19200002384,1,5691.19200002384,0,0,NA,"Click To Continue","Continue Button",3,"object-59","Task Instructions",NA,"SUPLCM91602"
"5",1718723422287,"18/06/2024 15:10:22",1718727022287,1,"18/06/2024 17:10:22",180348,2,"task-8tuj",NA,38357408,11274195,NA,"complete",NA,"computer","Desktop or Laptop","Mac OS 10.15.7","Chrome 116.0.0.0","1440x900","1440x783",NA,NA,0,"Task Introduction and Instructions (re-introduce video and audio) (Clone) (Clone)",3,"ABICHDGEF","Passed AC2","","Spreadsheet1","Spreadsheet1",1,"Task Instructions","Screen 3","1qtc8v",4,"continue","",6733.88,6700.546,6733.88,6733.88,6700.546,6733.88,1,6733.88,0,0,NA,"Click To Continue","Continue Button",2,"object-2983","Task Instructions",NA,"SUPLCM91602"
"6",1718723425873,"18/06/2024 15:10:25",1718727025873,1,"18/06/2024 17:10:25",180348,2,"task-8tuj",NA,38357408,11274195,NA,"complete",NA,"computer","Desktop or Laptop","Mac OS 10.15.7","Chrome 116.0.0.0","1440x900","1440x783",NA,NA,0,"Task Introduction and Instructions (re-introduce video and audio) (Clone) (Clone)",3,"ABICHDGEF","Passed AC2","","Spreadsheet1","Spreadsheet1",1,"Task Instructions","Screen 12","1a4vu2",5,"continue","",3620.46600004768,3600.072,3620.46600004768,3620.46600004768,3600.072,3620.46600004768,1,3620.46600004768,0,0,NA,"Click To Continue","Continue Button",2,"object-2466","Task Instructions",NA,"SUPLCM91602"
"7",1718723431036,"18/06/2024 15:10:31",1718727031036,1,"18/06/2024 17:10:31",180348,2,"task-8tuj",NA,38357408,11274195,NA,"complete",NA,"computer","Desktop or Laptop","Mac OS 10.15.7","Chrome 116.0.0.0","1440x900","1440x783",NA,NA,0,"Task Introduction and Instructions (re-introduce video and audio) (Clone) (Clone)",3,"ABICHDGEF","Passed AC2","","Spreadsheet1","Spreadsheet1",1,"Task Instructions","Screen 13","q9vwda",6,"continue","",5182.99400001192,5167.262,5182.99400001192,5182.99400001192,5167.262,5182.99400001192,1,5182.99400001192,0,0,NA,"Click To Continue","Continue Button",2,"object-2989","Task Instructions",NA,"SUPLCM91602"
"8",1718723435201,"18/06/2024 15:10:35",1718727035201,1,"18/06/2024 17:10:35",180348,2,"task-8tuj",NA,38357408,11274195,NA,"complete",NA,"computer","Desktop or Laptop","Mac OS 10.15.7","Chrome 116.0.0.0","1440x900","1440x783",NA,NA,0,"Task Introduction and Instructions (re-introduce video and audio) (Clone) (Clone)",3,"ABICHDGEF","Passed AC2","","Spreadsheet1","Spreadsheet1",1,"Task Instructions","Screen 11","oyulb7",7,"continue","",4180.63200004768,4166.75,4180.63200004768,4180.63200004768,4166.75,4180.63200004768,1,4180.63200004768,0,0,NA,"Click To Continue","Continue Button",2,"object-52","Task Instructions",NA,"SUPLCM91602"
"9",1718723437865,"18/06/2024 15:10:37",1718727037865,1,"18/06/2024 17:10:37",180348,2,"task-8tuj",NA,38357408,11274195,NA,"complete",NA,"computer","Desktop or Laptop","Mac OS 10.15.7","Chrome 116.0.0.0","1440x900","1440x783",NA,NA,0,"Task Introduction and Instructions (re-introduce video and audio) (Clone) (Clone)",3,"ABICHDGEF","Passed AC2","","Spreadsheet1","Spreadsheet1",1,"Task Instructions","Screen 5","8nvnao",8,"continue","",2677.682,2667.284,2677.682,2677.682,2667.284,2677.682,1,2677.682,0,0,NA,"Click To Continue","Continue Button",2,"object-44","Task Instructions",NA,"SUPLCM91602"
"10",1718723437872,"18/06/2024 15:10:37",1718727037872,1,"18/06/2024 17:10:37",180348,2,"task-8tuj",NA,38357408,11274195,NA,"complete",NA,"computer","Desktop or Laptop","Mac OS 10.15.7","Chrome 116.0.0.0","1440x900","1440x783",NA,NA,0,"Task Introduction and Instructions (re-introduce video and audio) (Clone) (Clone)",3,"ABICHDGEF","Passed AC2","","Spreadsheet1","Spreadsheet1",NA,"","","",NA,"info","END",NA,NA,NA,NA,NA,NA,0,NA,NA,NA,NA,"","",NA,"","",NA,"SUPLCM91602"
"1",1718794441654,"19/06/2024 10:54:01",1718798041654,1,"19/06/2024 12:54:01",180348,2,"task-8tuj",NA,38371374,11278148,NA,"complete",NA,"computer","Desktop or Laptop","Windows 10","Chrome 126.0.0.0","1536x960","1536x826",NA,NA,0,"Task Introduction and Instructions (re-introduce video and audio) (Clone) (Clone)",3,"BCADIEHFG","Passed AC2","","Spreadsheet1","Spreadsheet1",NA,"","","",NA,"info","BEGIN",NA,NA,NA,NA,NA,NA,0,NA,NA,NA,NA,"","",NA,"","",NA,"SUPLCM50909"
"2",1718794445729,"19/06/2024 10:54:05",1718798045729,1,"19/06/2024 12:54:05",180348,2,"task-8tuj",NA,38371374,11278148,NA,"complete",NA,"computer","Desktop or Laptop","Windows 10","Chrome 126.0.0.0","1536x960","1536x826",NA,NA,0,"Task Introduction and Instructions (re-introduce video and audio) (Clone) (Clone)",3,"BCADIEHFG","Passed AC2","","Spreadsheet1","Spreadsheet1",1,"Task Instructions","Screen 1","anr7sn",1,"continue","",3612.5,3599.6,3612.5,3612.5,3599.6,3612.5,1,3612.5,0,0,NA,"Click To Continue","Continue Button",3,"object-60","Task Instructions",NA,"SUPLCM50909"
"3",1718794448622,"19/06/2024 10:54:08",1718798048622,1,"19/06/2024 12:54:08",180348,2,"task-8tuj",NA,38371374,11278148,NA,"complete",NA,"computer","Desktop or Laptop","Windows 10","Chrome 126.0.0.0","1536x960","1536x826",NA,NA,0,"Task Introduction and Instructions (re-introduce video and audio) (Clone) (Clone)",3,"BCADIEHFG","Passed AC2","","Spreadsheet1","Spreadsheet1",1,"Task Instructions","Screen 4","spepx9",2,"continue","",2905.9,2899.9,2905.9,2905.9,2899.9,2905.9,1,2905.9,0,0,NA,"Click To Continue","Continue Button",2,"object-9","Task Instructions",NA,"SUPLCM50909"
"4",1718794466654,"19/06/2024 10:54:26",1718798066654,1,"19/06/2024 12:54:26",180348,2,"task-8tuj",NA,38371374,11278148,NA,"complete",NA,"computer","Desktop or Laptop","Windows 10","Chrome 126.0.0.0","1536x960","1536x826",NA,NA,0,"Task Introduction and Instructions (re-introduce video and audio) (Clone) (Clone)",3,"BCADIEHFG","Passed AC2","","Spreadsheet1","Spreadsheet1",1,"Task Instructions","Screen 2","ce2tc8",3,"continue","",18038.5,18033.4,18038.5,18038.5,18033.4,18038.5,1,18038.5,0,0,NA,"Click To Continue","Continue Button",3,"object-59","Task Instructions",NA,"SUPLCM50909"
"5",1718794481683,"19/06/2024 10:54:41",1718798081683,1,"19/06/2024 12:54:41",180348,2,"task-8tuj",NA,38371374,11278148,NA,"complete",NA,"computer","Desktop or Laptop","Windows 10","Chrome 126.0.0.0","1536x960","1536x826",NA,NA,0,"Task Introduction and Instructions (re-introduce video and audio) (Clone) (Clone)",3,"BCADIEHFG","Passed AC2","","Spreadsheet1","Spreadsheet1",1,"Task Instructions","Screen 3","1qtc8v",4,"continue","",15030.4,15014.9,15030.4,15030.4,15014.9,15030.4,1,15030.4,0,0,NA,"Click To Continue","Continue Button",2,"object-2983","Task Instructions",NA,"SUPLCM50909"
"6",1718794492206,"19/06/2024 10:54:52",1718798092206,1,"19/06/2024 12:54:52",180348,2,"task-8tuj",NA,38371374,11278148,NA,"complete",NA,"computer","Desktop or Laptop","Windows 10","Chrome 126.0.0.0","1536x960","1536x826",NA,NA,0,"Task Introduction and Instructions (re-introduce video and audio) (Clone) (Clone)",3,"BCADIEHFG","Passed AC2","","Spreadsheet1","Spreadsheet1",1,"Task Instructions","Screen 12","1a4vu2",5,"continue","",10541.7,10532.8,10541.7,10541.7,10532.8,10541.7,1,10541.7,0,0,NA,"Click To Continue","Continue Button",2,"object-2466","Task Instructions",NA,"SUPLCM50909"
"7",1718794497261,"19/06/2024 10:54:57",1718798097261,1,"19/06/2024 12:54:57",180348,2,"task-8tuj",NA,38371374,11278148,NA,"complete",NA,"computer","Desktop or Laptop","Windows 10","Chrome 126.0.0.0","1536x960","1536x826",NA,NA,0,"Task Introduction and Instructions (re-introduce video and audio) (Clone) (Clone)",3,"BCADIEHFG","Passed AC2","","Spreadsheet1","Spreadsheet1",1,"Task Instructions","Screen 13","q9vwda",6,"continue","",5062.59999998808,5049.8,5062.59999998808,5062.59999998808,5049.8,5062.59999998808,1,5062.59999998808,0,0,NA,"Click To Continue","Continue Button",2,"object-2989","Task Instructions",NA,"SUPLCM50909"
"8",1718794500757,"19/06/2024 10:55:00",1718798100757,1,"19/06/2024 12:55:00",180348,2,"task-8tuj",NA,38371374,11278148,NA,"complete",NA,"computer","Desktop or Laptop","Windows 10","Chrome 126.0.0.0","1536x960","1536x826",NA,NA,0,"Task Introduction and Instructions (re-introduce video and audio) (Clone) (Clone)",3,"BCADIEHFG","Passed AC2","","Spreadsheet1","Spreadsheet1",1,"Task Instructions","Screen 11","oyulb7",7,"continue","",3509.1,3500.4,3509.1,3509.1,3500.4,3509.1,1,3509.1,0,0,NA,"Click To Continue","Continue Button",2,"object-52","Task Instructions",NA,"SUPLCM50909"
"9",1718794503700,"19/06/2024 10:55:03",1718798103700,1,"19/06/2024 12:55:03",180348,2,"task-8tuj",NA,38371374,11278148,NA,"complete",NA,"computer","Desktop or Laptop","Windows 10","Chrome 126.0.0.0","1536x960","1536x826",NA,NA,0,"Task Introduction and Instructions (re-introduce video and audio) (Clone) (Clone)",3,"BCADIEHFG","Passed AC2","","Spreadsheet1","Spreadsheet1",1,"Task Instructions","Screen 5","8nvnao",8,"continue","",2951.09999997616,2933.7,2951.09999997616,2951.09999997616,2933.7,2951.09999997616,1,2951.09999997616,0,0,NA,"Click To Continue","Continue Button",2,"object-44","Task Instructions",NA,"SUPLCM50909"
"10",1718794503703,"19/06/2024 10:55:03",1718798103703,1,"19/06/2024 12:55:03",180348,2,"task-8tuj",NA,38371374,11278148,NA,"complete",NA,"computer","Desktop or Laptop","Windows 10","Chrome 126.0.0.0","1536x960","1536x826",NA,NA,0,"Task Introduction and Instructions (re-introduce video and audio) (Clone) (Clone)",3,"BCADIEHFG","Passed AC2","","Spreadsheet1","Spreadsheet1",NA,"","","",NA,"info","END",NA,NA,NA,NA,NA,NA,0,NA,NA,NA,NA,"","",NA,"","",NA,"SUPLCM50909"
"1",1719396987013,"26/06/2024 10:16:27",1719400587013,1,"26/06/2024 12:16:27",180348,2,"task-8tuj",NA,38506845,11316808,NA,"complete",NA,"computer","Desktop or Laptop","Mac OS 10.15.7","Chrome 125.0.0.0","1440x900","1440x788",NA,NA,0,"Task Introduction and Instructions (re-introduce video and audio) (Clone) (Clone)",3,"DECFBGAHI","Passed AC2","","Spreadsheet1","Spreadsheet1",NA,"","","",NA,"info","BEGIN",NA,NA,NA,NA,NA,NA,0,NA,NA,NA,NA,"","",NA,"","",NA,"SUPLCM01588"
"2",1719396994408,"26/06/2024 10:16:34",1719400594408,1,"26/06/2024 12:16:34",180348,2,"task-8tuj",NA,38506845,11316808,NA,"complete",NA,"computer","Desktop or Laptop","Mac OS 10.15.7","Chrome 125.0.0.0","1440x900","1440x788",NA,NA,0,"Task Introduction and Instructions (re-introduce video and audio) (Clone) (Clone)",3,"DECFBGAHI","Passed AC2","","Spreadsheet1","Spreadsheet1",1,"Task Instructions","Screen 1","anr7sn",1,"continue","",7147.89999998212,7133.9,7147.89999998212,7147.89999998212,7133.9,7147.89999998212,1,7147.89999998212,0,0,NA,"Click To Continue","Continue Button",3,"object-60","Task Instructions",NA,"SUPLCM01588"
"3",1719397018494,"26/06/2024 10:16:58",1719400618494,1,"26/06/2024 12:16:58",180348,2,"task-8tuj",NA,38506845,11316808,NA,"complete",NA,"computer","Desktop or Laptop","Mac OS 10.15.7","Chrome 125.0.0.0","1440x900","1440x788",NA,NA,0,"Task Introduction and Instructions (re-introduce video and audio) (Clone) (Clone)",3,"DECFBGAHI","Passed AC2","","Spreadsheet1","Spreadsheet1",1,"Task Instructions","Screen 4","spepx9",2,"continue","",24099.8999999881,24083.3,24099.8999999881,24099.8999999881,24083.3,24099.8999999881,1,24099.8999999881,0,0,NA,"Click To Continue","Continue Button",2,"object-9","Task Instructions",NA,"SUPLCM01588"
"4",1719397046892,"26/06/2024 10:17:26",1719400646892,1,"26/06/2024 12:17:26",180348,2,"task-8tuj",NA,38506845,11316808,NA,"complete",NA,"computer","Desktop or Laptop","Mac OS 10.15.7","Chrome 125.0.0.0","1440x900","1440x788",NA,NA,0,"Task Introduction and Instructions (re-introduce video and audio) (Clone) (Clone)",3,"DECFBGAHI","Passed AC2","","Spreadsheet1","Spreadsheet1",1,"Task Instructions","Screen 2","ce2tc8",3,"continue","",28415.5999999881,28400.5,28415.5999999881,28415.5999999881,28400.5,28415.5999999881,1,28415.5999999881,0,0,NA,"Click To Continue","Continue Button",3,"object-59","Task Instructions",NA,"SUPLCM01588"
"5",1719397072368,"26/06/2024 10:17:52",1719400672368,1,"26/06/2024 12:17:52",180348,2,"task-8tuj",NA,38506845,11316808,NA,"complete",NA,"computer","Desktop or Laptop","Mac OS 10.15.7","Chrome 125.0.0.0","1440x900","1440x788",NA,NA,0,"Task Introduction and Instructions (re-introduce video and audio) (Clone) (Clone)",3,"DECFBGAHI","Passed AC2","","Spreadsheet1","Spreadsheet1",1,"Task Instructions","Screen 3","1qtc8v",4,"continue","",25489.5999999881,25483.7,25489.5999999881,25489.5999999881,25483.7,25489.5999999881,1,25489.5999999881,0,0,NA,"Click To Continue","Continue Button",2,"object-2983","Task Instructions",NA,"SUPLCM01588"
"6",1719397080641,"26/06/2024 10:18:00",1719400680641,1,"26/06/2024 12:18:00",180348,2,"task-8tuj",NA,38506845,11316808,NA,"complete",NA,"computer","Desktop or Laptop","Mac OS 10.15.7","Chrome 125.0.0.0","1440x900","1440x788",NA,NA,0,"Task Introduction and Instructions (re-introduce video and audio) (Clone) (Clone)",3,"DECFBGAHI","Passed AC2","","Spreadsheet1","Spreadsheet1",1,"Task Instructions","Screen 12","1a4vu2",5,"continue","",8280.79999999404,8266.8,8280.79999999404,8280.79999999404,8266.8,8280.79999999404,1,8280.79999999404,0,0,NA,"Click To Continue","Continue Button",2,"object-2466","Task Instructions",NA,"SUPLCM01588"
"7",1719397085593,"26/06/2024 10:18:05",1719400685593,1,"26/06/2024 12:18:05",180348,2,"task-8tuj",NA,38506845,11316808,NA,"complete",NA,"computer","Desktop or Laptop","Mac OS 10.15.7","Chrome 125.0.0.0","1440x900","1440x788",NA,NA,0,"Task Introduction and Instructions (re-introduce video and audio) (Clone) (Clone)",3,"DECFBGAHI","Passed AC2","","Spreadsheet1","Spreadsheet1",1,"Task Instructions","Screen 13","q9vwda",6,"continue","",4965.39999999999,4949.29999999999,4965.39999999999,4965.39999999999,4949.29999999999,4965.39999999999,1,4965.39999999999,0,0,NA,"Click To Continue","Continue Button",2,"object-2989","Task Instructions",NA,"SUPLCM01588"
"8",1719397090361,"26/06/2024 10:18:10",1719400690361,1,"26/06/2024 12:18:10",180348,2,"task-8tuj",NA,38506845,11316808,NA,"complete",NA,"computer","Desktop or Laptop","Mac OS 10.15.7","Chrome 125.0.0.0","1440x900","1440x788",NA,NA,0,"Task Introduction and Instructions (re-introduce video and audio) (Clone) (Clone)",3,"DECFBGAHI","Passed AC2","","Spreadsheet1","Spreadsheet1",1,"Task Instructions","Screen 11","oyulb7",7,"continue","",4783.09999999999,4767,4783.09999999999,4783.09999999999,4767,4783.09999999999,1,4783.09999999999,0,0,NA,"Click To Continue","Continue Button",2,"object-52","Task Instructions",NA,"SUPLCM01588"
"9",1719397092792,"26/06/2024 10:18:12",1719400692792,1,"26/06/2024 12:18:12",180348,2,"task-8tuj",NA,38506845,11316808,NA,"complete",NA,"computer","Desktop or Laptop","Mac OS 10.15.7","Chrome 125.0.0.0","1440x900","1440x788",NA,NA,0,"Task Introduction and Instructions (re-introduce video and audio) (Clone) (Clone)",3,"DECFBGAHI","Passed AC2","","Spreadsheet1","Spreadsheet1",1,"Task Instructions","Screen 5","8nvnao",8,"continue","",2448.69999999405,2433.90000000001,2448.69999999405,2448.69999999405,2433.90000000001,2448.69999999405,1,2448.69999999405,0,0,NA,"Click To Continue","Continue Button",2,"object-44","Task Instructions",NA,"SUPLCM01588"
"10",1719397092795,"26/06/2024 10:18:12",1719400692795,1,"26/06/2024 12:18:12",180348,2,"task-8tuj",NA,38506845,11316808,NA,"complete",NA,"computer","Desktop or Laptop","Mac OS 10.15.7","Chrome 125.0.0.0","1440x900","1440x788",NA,NA,0,"Task Introduction and Instructions (re-introduce video and audio) (Clone) (Clone)",3,"DECFBGAHI","Passed AC2","","Spreadsheet1","Spreadsheet1",NA,"","","",NA,"info","END",NA,NA,NA,NA,NA,NA,0,NA,NA,NA,NA,"","",NA,"","",NA,"SUPLCM01588"
"1",1719495302297,"27/06/2024 13:35:02",1719498902297,1,"27/06/2024 15:35:02",180348,2,"task-8tuj",NA,38536753,11323000,NA,"complete",NA,"computer","Desktop or Laptop","Mac OS 10.15.7","Chrome 125.0.0.0","1440x900","1440x813",NA,NA,0,"Task Introduction and Instructions (re-introduce video and audio) (Clone) (Clone)",3,"EFDGCHBIA","Passed AC2","","Spreadsheet1","Spreadsheet1",NA,"","","",NA,"info","BEGIN",NA,NA,NA,NA,NA,NA,0,NA,NA,NA,NA,"","",NA,"","",NA,"SUPLCM05151"
"2",1719495306160,"27/06/2024 13:35:06",1719498906160,1,"27/06/2024 15:35:06",180348,2,"task-8tuj",NA,38536753,11323000,NA,"complete",NA,"computer","Desktop or Laptop","Mac OS 10.15.7","Chrome 125.0.0.0","1440x900","1440x813",NA,NA,0,"Task Introduction and Instructions (re-introduce video and audio) (Clone) (Clone)",3,"EFDGCHBIA","Passed AC2","","Spreadsheet1","Spreadsheet1",1,"Task Instructions","Screen 1","anr7sn",1,"continue","",3633.3,3616.7,3633.3,3633.3,3616.7,3633.3,1,3633.3,0,0,NA,"Click To Continue","Continue Button",3,"object-60","Task Instructions",NA,"SUPLCM05151"
"3",1719495308925,"27/06/2024 13:35:08",1719498908925,1,"27/06/2024 15:35:08",180348,2,"task-8tuj",NA,38536753,11323000,NA,"complete",NA,"computer","Desktop or Laptop","Mac OS 10.15.7","Chrome 125.0.0.0","1440x900","1440x813",NA,NA,0,"Task Introduction and Instructions (re-introduce video and audio) (Clone) (Clone)",3,"EFDGCHBIA","Passed AC2","","Spreadsheet1","Spreadsheet1",1,"Task Instructions","Screen 4","spepx9",2,"continue","",2783.60000004768,2766.8,2783.60000004768,2783.60000004768,2766.8,2783.60000004768,1,2783.60000004768,0,0,NA,"Click To Continue","Continue Button",2,"object-9","Task Instructions",NA,"SUPLCM05151"
"4",1719495316351,"27/06/2024 13:35:16",1719498916351,1,"27/06/2024 15:35:16",180348,2,"task-8tuj",NA,38536753,11323000,NA,"complete",NA,"computer","Desktop or Laptop","Mac OS 10.15.7","Chrome 125.0.0.0","1440x900","1440x813",NA,NA,0,"Task Introduction and Instructions (re-introduce video and audio) (Clone) (Clone)",3,"EFDGCHBIA","Passed AC2","","Spreadsheet1","Spreadsheet1",1,"Task Instructions","Screen 2","ce2tc8",3,"continue","",7443.1,7433.5,7443.1,7443.1,7433.5,7443.1,1,7443.1,0,0,NA,"Click To Continue","Continue Button",3,"object-59","Task Instructions",NA,"SUPLCM05151"
"5",1719495324759,"27/06/2024 13:35:24",1719498924759,1,"27/06/2024 15:35:24",180348,2,"task-8tuj",NA,38536753,11323000,NA,"complete",NA,"computer","Desktop or Laptop","Mac OS 10.15.7","Chrome 125.0.0.0","1440x900","1440x813",NA,NA,0,"Task Introduction and Instructions (re-introduce video and audio) (Clone) (Clone)",3,"EFDGCHBIA","Passed AC2","","Spreadsheet1","Spreadsheet1",1,"Task Instructions","Screen 3","1qtc8v",4,"continue","",8416.8,8400.1,8416.8,8416.8,8400.1,8416.8,1,8416.8,0,0,NA,"Click To Continue","Continue Button",2,"object-2983","Task Instructions",NA,"SUPLCM05151"
"6",1719495331917,"27/06/2024 13:35:31",1719498931917,1,"27/06/2024 15:35:31",180348,2,"task-8tuj",NA,38536753,11323000,NA,"complete",NA,"computer","Desktop or Laptop","Mac OS 10.15.7","Chrome 125.0.0.0","1440x900","1440x813",NA,NA,0,"Task Introduction and Instructions (re-introduce video and audio) (Clone) (Clone)",3,"EFDGCHBIA","Passed AC2","","Spreadsheet1","Spreadsheet1",1,"Task Instructions","Screen 12","1a4vu2",5,"continue","",7175.10000002384,7166.8,7175.10000002384,7175.10000002384,7166.8,7175.10000002384,1,7175.10000002384,0,0,NA,"Click To Continue","Continue Button",2,"object-2466","Task Instructions",NA,"SUPLCM05151"
"7",1719495336774,"27/06/2024 13:35:36",1719498936774,1,"27/06/2024 15:35:36",180348,2,"task-8tuj",NA,38536753,11323000,NA,"complete",NA,"computer","Desktop or Laptop","Mac OS 10.15.7","Chrome 125.0.0.0","1440x900","1440x813",NA,NA,0,"Task Introduction and Instructions (re-introduce video and audio) (Clone) (Clone)",3,"EFDGCHBIA","Passed AC2","","Spreadsheet1","Spreadsheet1",1,"Task Instructions","Screen 13","q9vwda",6,"continue","",4865.59999997616,4850.1,4865.59999997616,4865.59999997616,4850.1,4865.59999997616,1,4865.59999997616,0,0,NA,"Click To Continue","Continue Button",2,"object-2989","Task Instructions",NA,"SUPLCM05151"
"8",1719495339492,"27/06/2024 13:35:39",1719498939492,1,"27/06/2024 15:35:39",180348,2,"task-8tuj",NA,38536753,11323000,NA,"complete",NA,"computer","Desktop or Laptop","Mac OS 10.15.7","Chrome 125.0.0.0","1440x900","1440x813",NA,NA,0,"Task Introduction and Instructions (re-introduce video and audio) (Clone) (Clone)",3,"EFDGCHBIA","Passed AC2","","Spreadsheet1","Spreadsheet1",1,"Task Instructions","Screen 11","oyulb7",7,"continue","",2731.89999999999,2715.7,2731.89999999999,2731.89999999999,2715.7,2731.89999999999,1,2731.89999999999,0,0,NA,"Click To Continue","Continue Button",2,"object-52","Task Instructions",NA,"SUPLCM05151"
"9",1719495341907,"27/06/2024 13:35:41",1719498941907,1,"27/06/2024 15:35:41",180348,2,"task-8tuj",NA,38536753,11323000,NA,"complete",NA,"computer","Desktop or Laptop","Mac OS 10.15.7","Chrome 125.0.0.0","1440x900","1440x813",NA,NA,0,"Task Introduction and Instructions (re-introduce video and audio) (Clone) (Clone)",3,"EFDGCHBIA","Passed AC2","","Spreadsheet1","Spreadsheet1",1,"Task Instructions","Screen 5","8nvnao",8,"continue","",2433.19999995232,2417.7,2433.19999995232,2433.19999995232,2417.7,2433.19999995232,1,2433.19999995232,0,0,NA,"Click To Continue","Continue Button",2,"object-44","Task Instructions",NA,"SUPLCM05151"
"10",1719495341909,"27/06/2024 13:35:41",1719498941909,1,"27/06/2024 15:35:41",180348,2,"task-8tuj",NA,38536753,11323000,NA,"complete",NA,"computer","Desktop or Laptop","Mac OS 10.15.7","Chrome 125.0.0.0","1440x900","1440x813",NA,NA,0,"Task Introduction and Instructions (re-introduce video and audio) (Clone) (Clone)",3,"EFDGCHBIA","Passed AC2","","Spreadsheet1","Spreadsheet1",NA,"","","",NA,"info","END",NA,NA,NA,NA,NA,NA,0,NA,NA,NA,NA,"","",NA,"","",NA,"SUPLCM05151"
"1",1720019414249,"03/07/2024 15:10:14",1720023014249,1,"03/07/2024 17:10:14",180348,2,"task-8tuj",NA,38733252,11367090,NA,"complete",NA,"computer","Desktop or Laptop","Mac OS 10.15.7","Chrome 126.0.0.0","1440x900","1440x788",NA,NA,0,"Task Introduction and Instructions (re-introduce video and audio) (Clone) (Clone)",3,"ABICHDGEF","Passed AC2","","Spreadsheet1","Spreadsheet1",NA,"","","",NA,"info","BEGIN",NA,NA,NA,NA,NA,NA,0,NA,NA,NA,NA,"","",NA,"","",NA,"SUPLCM20104"
"2",1720019423633,"03/07/2024 15:10:23",1720023023633,1,"03/07/2024 17:10:23",180348,2,"task-8tuj",NA,38733252,11367090,NA,"complete",NA,"computer","Desktop or Laptop","Mac OS 10.15.7","Chrome 126.0.0.0","1440x900","1440x788",NA,NA,0,"Task Introduction and Instructions (re-introduce video and audio) (Clone) (Clone)",3,"ABICHDGEF","Passed AC2","","Spreadsheet1","Spreadsheet1",1,"Task Instructions","Screen 1","anr7sn",1,"continue","",9233.8,9200.3,9233.8,9233.8,9200.3,9233.8,1,9233.8,0,0,NA,"Click To Continue","Continue Button",3,"object-60","Task Instructions",NA,"SUPLCM20104"
"3",1720019429200,"03/07/2024 15:10:29",1720023029200,1,"03/07/2024 17:10:29",180348,2,"task-8tuj",NA,38733252,11367090,NA,"complete",NA,"computer","Desktop or Laptop","Mac OS 10.15.7","Chrome 126.0.0.0","1440x900","1440x788",NA,NA,0,"Task Introduction and Instructions (re-introduce video and audio) (Clone) (Clone)",3,"ABICHDGEF","Passed AC2","","Spreadsheet1","Spreadsheet1",1,"Task Instructions","Screen 4","spepx9",2,"continue","",5600.3,5566.9,5600.3,5600.3,5566.9,5600.3,1,5600.3,0,0,NA,"Click To Continue","Continue Button",2,"object-9","Task Instructions",NA,"SUPLCM20104"
"4",1720019449330,"03/07/2024 15:10:49",1720023049330,1,"03/07/2024 17:10:49",180348,2,"task-8tuj",NA,38733252,11367090,NA,"complete",NA,"computer","Desktop or Laptop","Mac OS 10.15.7","Chrome 126.0.0.0","1440x900","1440x788",NA,NA,0,"Task Introduction and Instructions (re-introduce video and audio) (Clone) (Clone)",3,"ABICHDGEF","Passed AC2","","Spreadsheet1","Spreadsheet1",1,"Task Instructions","Screen 2","ce2tc8",3,"continue","",20164.9,20133.9,20164.9,20164.9,20133.9,20164.9,1,20164.9,0,0,NA,"Click To Continue","Continue Button",3,"object-59","Task Instructions",NA,"SUPLCM20104"
"5",1720019471798,"03/07/2024 15:11:11",1720023071798,1,"03/07/2024 17:11:11",180348,2,"task-8tuj",NA,38733252,11367090,NA,"complete",NA,"computer","Desktop or Laptop","Mac OS 10.15.7","Chrome 126.0.0.0","1440x900","1440x788",NA,NA,0,"Task Introduction and Instructions (re-introduce video and audio) (Clone) (Clone)",3,"ABICHDGEF","Passed AC2","","Spreadsheet1","Spreadsheet1",1,"Task Instructions","Screen 3","1qtc8v",4,"continue","",22499.7000000477,22467.5,22499.7000000477,22499.7000000477,22467.5,22499.7000000477,1,22499.7000000477,0,0,NA,"Click To Continue","Continue Button",2,"object-2983","Task Instructions",NA,"SUPLCM20104"
"6",1720019497115,"03/07/2024 15:11:37",1720023097115,1,"03/07/2024 17:11:37",180348,2,"task-8tuj",NA,38733252,11367090,NA,"complete",NA,"computer","Desktop or Laptop","Mac OS 10.15.7","Chrome 126.0.0.0","1440x900","1440x788",NA,NA,0,"Task Introduction and Instructions (re-introduce video and audio) (Clone) (Clone)",3,"ABICHDGEF","Passed AC2","","Spreadsheet1","Spreadsheet1",1,"Task Instructions","Screen 12","1a4vu2",5,"continue","",25350.2000000477,25334.1,25350.2000000477,25350.2000000477,25334.1,25350.2000000477,1,25350.2000000477,0,0,NA,"Click To Continue","Continue Button",2,"object-2466","Task Instructions",NA,"SUPLCM20104"
"7",1720019503281,"03/07/2024 15:11:43",1720023103281,1,"03/07/2024 17:11:43",180348,2,"task-8tuj",NA,38733252,11367090,NA,"complete",NA,"computer","Desktop or Laptop","Mac OS 10.15.7","Chrome 126.0.0.0","1440x900","1440x788",NA,NA,0,"Task Introduction and Instructions (re-introduce video and audio) (Clone) (Clone)",3,"ABICHDGEF","Passed AC2","","Spreadsheet1","Spreadsheet1",1,"Task Instructions","Screen 13","q9vwda",6,"continue","",6182.20000001192,6166.89999999999,6182.20000001192,6182.20000001192,6166.89999999999,6182.20000001192,1,6182.20000001192,0,0,NA,"Click To Continue","Continue Button",2,"object-2989","Task Instructions",NA,"SUPLCM20104"
"8",1720019510113,"03/07/2024 15:11:50",1720023110113,1,"03/07/2024 17:11:50",180348,2,"task-8tuj",NA,38733252,11367090,NA,"complete",NA,"computer","Desktop or Laptop","Mac OS 10.15.7","Chrome 126.0.0.0","1440x900","1440x788",NA,NA,0,"Task Introduction and Instructions (re-introduce video and audio) (Clone) (Clone)",3,"ABICHDGEF","Passed AC2","","Spreadsheet1","Spreadsheet1",1,"Task Instructions","Screen 11","oyulb7",7,"continue","",6848.10000002384,6832.8,6848.10000002384,6848.10000002384,6832.8,6848.10000002384,1,6848.10000002384,0,0,NA,"Click To Continue","Continue Button",2,"object-52","Task Instructions",NA,"SUPLCM20104"
"9",1720019514730,"03/07/2024 15:11:54",1720023114730,1,"03/07/2024 17:11:54",180348,2,"task-8tuj",NA,38733252,11367090,NA,"complete",NA,"computer","Desktop or Laptop","Mac OS 10.15.7","Chrome 126.0.0.0","1440x900","1440x788",NA,NA,0,"Task Introduction and Instructions (re-introduce video and audio) (Clone) (Clone)",3,"ABICHDGEF","Passed AC2","","Spreadsheet1","Spreadsheet1",1,"Task Instructions","Screen 5","8nvnao",8,"continue","",4632.30000002384,4600.89999999999,4632.30000002384,4632.30000002384,4600.89999999999,4632.30000002384,1,4632.30000002384,0,0,NA,"Click To Continue","Continue Button",2,"object-44","Task Instructions",NA,"SUPLCM20104"
"10",1720019514737,"03/07/2024 15:11:54",1720023114737,1,"03/07/2024 17:11:54",180348,2,"task-8tuj",NA,38733252,11367090,NA,"complete",NA,"computer","Desktop or Laptop","Mac OS 10.15.7","Chrome 126.0.0.0","1440x900","1440x788",NA,NA,0,"Task Introduction and Instructions (re-introduce video and audio) (Clone) (Clone)",3,"ABICHDGEF","Passed AC2","","Spreadsheet1","Spreadsheet1",NA,"","","",NA,"info","END",NA,NA,NA,NA,NA,NA,0,NA,NA,NA,NA,"","",NA,"","",NA,"SUPLCM20104"
"1",1720526996079,"09/07/2024 12:09:56",1720530596079,1,"09/07/2024 14:09:56",180348,2,"task-8tuj",NA,38832890,11394042,NA,"complete",NA,"computer","Desktop or Laptop","Mac OS 10.15.7","Chrome 124.0.0.0","1440x900","1440x722",NA,NA,0,"Task Introduction and Instructions (re-introduce video and audio) (Clone) (Clone)",3,"BCADIEHFG","Passed AC2","","Spreadsheet1","Spreadsheet1",NA,"","","",NA,"info","BEGIN",NA,NA,NA,NA,NA,NA,0,NA,NA,NA,NA,"","",NA,"","",NA,"SUPLCM96648"
"2",1720526999569,"09/07/2024 12:09:59",1720530599569,1,"09/07/2024 14:09:59",180348,2,"task-8tuj",NA,38832890,11394042,NA,"complete",NA,"computer","Desktop or Laptop","Mac OS 10.15.7","Chrome 124.0.0.0","1440x900","1440x722",NA,NA,0,"Task Introduction and Instructions (re-introduce video and audio) (Clone) (Clone)",3,"BCADIEHFG","Passed AC2","","Spreadsheet1","Spreadsheet1",1,"Task Instructions","Screen 1","anr7sn",1,"continue","",2997,2981.2,2997,2997,2981.2,2997,1,2997,0,0,NA,"Click To Continue","Continue Button",3,"object-60","Task Instructions",NA,"SUPLCM96648"
"3",1720527002112,"09/07/2024 12:10:02",1720530602112,1,"09/07/2024 14:10:02",180348,2,"task-8tuj",NA,38832890,11394042,NA,"complete",NA,"computer","Desktop or Laptop","Mac OS 10.15.7","Chrome 124.0.0.0","1440x900","1440x722",NA,NA,0,"Task Introduction and Instructions (re-introduce video and audio) (Clone) (Clone)",3,"BCADIEHFG","Passed AC2","","Spreadsheet1","Spreadsheet1",1,"Task Instructions","Screen 4","spepx9",2,"continue","",2573.1,2564.9,2573.1,2573.1,2564.9,2573.1,1,2573.1,0,0,NA,"Click To Continue","Continue Button",2,"object-9","Task Instructions",NA,"SUPLCM96648"
"4",1720527004568,"09/07/2024 12:10:04",1720530604568,1,"09/07/2024 14:10:04",180348,2,"task-8tuj",NA,38832890,11394042,NA,"complete",NA,"computer","Desktop or Laptop","Mac OS 10.15.7","Chrome 124.0.0.0","1440x900","1440x722",NA,NA,0,"Task Introduction and Instructions (re-introduce video and audio) (Clone) (Clone)",3,"BCADIEHFG","Passed AC2","","Spreadsheet1","Spreadsheet1",1,"Task Instructions","Screen 2","ce2tc8",3,"continue","",2464.79999990463,2449.3,2464.79999990463,2464.79999990463,2449.3,2464.79999990463,1,2464.79999990463,0,0,NA,"Click To Continue","Continue Button",3,"object-59","Task Instructions",NA,"SUPLCM96648"
"5",1720527014642,"09/07/2024 12:10:14",1720530614642,1,"09/07/2024 14:10:14",180348,2,"task-8tuj",NA,38832890,11394042,NA,"complete",NA,"computer","Desktop or Laptop","Mac OS 10.15.7","Chrome 124.0.0.0","1440x900","1440x722",NA,NA,0,"Task Introduction and Instructions (re-introduce video and audio) (Clone) (Clone)",3,"BCADIEHFG","Passed AC2","","Spreadsheet1","Spreadsheet1",1,"Task Instructions","Screen 3","1qtc8v",4,"continue","",10089.9999999046,10076.8,10089.9999999046,10089.9999999046,10076.8,10089.9999999046,1,10089.9999999046,0,0,NA,"Click To Continue","Continue Button",2,"object-2983","Task Instructions",NA,"SUPLCM96648"
"6",1720527019860,"09/07/2024 12:10:19",1720530619860,1,"09/07/2024 14:10:19",180348,2,"task-8tuj",NA,38832890,11394042,NA,"complete",NA,"computer","Desktop or Laptop","Mac OS 10.15.7","Chrome 124.0.0.0","1440x900","1440x722",NA,NA,0,"Task Introduction and Instructions (re-introduce video and audio) (Clone) (Clone)",3,"BCADIEHFG","Passed AC2","","Spreadsheet1","Spreadsheet1",1,"Task Instructions","Screen 12","1a4vu2",5,"continue","",5230.5,5213.1,5230.5,5230.5,5213.1,5230.5,1,5230.5,0,0,NA,"Click To Continue","Continue Button",2,"object-2466","Task Instructions",NA,"SUPLCM96648"
"7",1720527024268,"09/07/2024 12:10:24",1720530624268,1,"09/07/2024 14:10:24",180348,2,"task-8tuj",NA,38832890,11394042,NA,"complete",NA,"computer","Desktop or Laptop","Mac OS 10.15.7","Chrome 124.0.0.0","1440x900","1440x722",NA,NA,0,"Task Introduction and Instructions (re-introduce video and audio) (Clone) (Clone)",3,"BCADIEHFG","Passed AC2","","Spreadsheet1","Spreadsheet1",1,"Task Instructions","Screen 13","q9vwda",6,"continue","",4425.89999985695,4413,4425.89999985695,4425.89999985695,4413,4425.89999985695,1,4425.89999985695,0,0,NA,"Click To Continue","Continue Button",2,"object-2989","Task Instructions",NA,"SUPLCM96648"
"8",1720527026680,"09/07/2024 12:10:26",1720530626680,1,"09/07/2024 14:10:26",180348,2,"task-8tuj",NA,38832890,11394042,NA,"complete",NA,"computer","Desktop or Laptop","Mac OS 10.15.7","Chrome 124.0.0.0","1440x900","1440x722",NA,NA,0,"Task Introduction and Instructions (re-introduce video and audio) (Clone) (Clone)",3,"BCADIEHFG","Passed AC2","","Spreadsheet1","Spreadsheet1",1,"Task Instructions","Screen 11","oyulb7",7,"continue","",2425.5,2414.8,2425.5,2425.5,2414.8,2425.5,1,2425.5,0,0,NA,"Click To Continue","Continue Button",2,"object-52","Task Instructions",NA,"SUPLCM96648"
"9",1720527029076,"09/07/2024 12:10:29",1720530629076,1,"09/07/2024 14:10:29",180348,2,"task-8tuj",NA,38832890,11394042,NA,"complete",NA,"computer","Desktop or Laptop","Mac OS 10.15.7","Chrome 124.0.0.0","1440x900","1440x722",NA,NA,0,"Task Introduction and Instructions (re-introduce video and audio) (Clone) (Clone)",3,"BCADIEHFG","Passed AC2","","Spreadsheet1","Spreadsheet1",1,"Task Instructions","Screen 5","8nvnao",8,"continue","",2406.2,2398.9,2406.2,2406.2,2398.9,2406.2,1,2406.2,0,0,NA,"Click To Continue","Continue Button",2,"object-44","Task Instructions",NA,"SUPLCM96648"
"10",1720527029078,"09/07/2024 12:10:29",1720530629078,1,"09/07/2024 14:10:29",180348,2,"task-8tuj",NA,38832890,11394042,NA,"complete",NA,"computer","Desktop or Laptop","Mac OS 10.15.7","Chrome 124.0.0.0","1440x900","1440x722",NA,NA,0,"Task Introduction and Instructions (re-introduce video and audio) (Clone) (Clone)",3,"BCADIEHFG","Passed AC2","","Spreadsheet1","Spreadsheet1",NA,"","","",NA,"info","END",NA,NA,NA,NA,NA,NA,0,NA,NA,NA,NA,"","",NA,"","",NA,"SUPLCM96648"
"1",1721740252422,"23/07/2024 13:10:52",1721743852422,1,"23/07/2024 15:10:52",180348,2,"task-8tuj",NA,39147868,11486639,NA,"complete",NA,"computer","Desktop or Laptop","Mac OS 10.15.7","Chrome 126.0.0.0","1440x900","1351x673",NA,NA,0,"Task Introduction and Instructions (re-introduce video and audio) (Clone) (Clone)",3,"CDBEAFIGH","Passed AC2","","Spreadsheet1","Spreadsheet1",NA,"","","",NA,"info","BEGIN",NA,NA,NA,NA,NA,NA,0,NA,NA,NA,NA,"","",NA,"","",NA,"SUPLCM65569"
"2",1721740259154,"23/07/2024 13:10:59",1721743859154,1,"23/07/2024 15:10:59",180348,2,"task-8tuj",NA,39147868,11486639,NA,"complete",NA,"computer","Desktop or Laptop","Mac OS 10.15.7","Chrome 126.0.0.0","1440x900","1351x673",NA,NA,0,"Task Introduction and Instructions (re-introduce video and audio) (Clone) (Clone)",3,"CDBEAFIGH","Passed AC2","","Spreadsheet1","Spreadsheet1",1,"Task Instructions","Screen 1","anr7sn",1,"continue","",6531.99999999404,6516.8,6531.99999999404,6531.99999999404,6516.8,6531.99999999404,1,6531.99999999404,0,0,NA,"Click To Continue","Continue Button",3,"object-60","Task Instructions",NA,"SUPLCM65569"
"3",1721740261918,"23/07/2024 13:11:01",1721743861918,1,"23/07/2024 15:11:01",180348,2,"task-8tuj",NA,39147868,11486639,NA,"complete",NA,"computer","Desktop or Laptop","Mac OS 10.15.7","Chrome 126.0.0.0","1440x900","1351x673",NA,NA,0,"Task Introduction and Instructions (re-introduce video and audio) (Clone) (Clone)",3,"CDBEAFIGH","Passed AC2","","Spreadsheet1","Spreadsheet1",1,"Task Instructions","Screen 4","spepx9",2,"continue","",2780.00000000596,2766.6,2780.00000000596,2780.00000000596,2766.6,2780.00000000596,1,2780.00000000596,0,0,NA,"Click To Continue","Continue Button",2,"object-9","Task Instructions",NA,"SUPLCM65569"
"4",1721740286477,"23/07/2024 13:11:26",1721743886477,1,"23/07/2024 15:11:26",180348,2,"task-8tuj",NA,39147868,11486639,NA,"complete",NA,"computer","Desktop or Laptop","Mac OS 10.15.7","Chrome 126.0.0.0","1440x900","1351x673",NA,NA,0,"Task Introduction and Instructions (re-introduce video and audio) (Clone) (Clone)",3,"CDBEAFIGH","Passed AC2","","Spreadsheet1","Spreadsheet1",1,"Task Instructions","Screen 2","ce2tc8",3,"continue","",24572.400000006,24566.3,24572.400000006,24572.400000006,24566.3,24572.400000006,1,24572.400000006,0,0,NA,"Click To Continue","Continue Button",3,"object-59","Task Instructions",NA,"SUPLCM65569"
"5",1721740297147,"23/07/2024 13:11:37",1721743897147,1,"23/07/2024 15:11:37",180348,2,"task-8tuj",NA,39147868,11486639,NA,"complete",NA,"computer","Desktop or Laptop","Mac OS 10.15.7","Chrome 126.0.0.0","1440x900","1351x673",NA,NA,0,"Task Introduction and Instructions (re-introduce video and audio) (Clone) (Clone)",3,"CDBEAFIGH","Passed AC2","","Spreadsheet1","Spreadsheet1",1,"Task Instructions","Screen 3","1qtc8v",4,"continue","",10676.2,10666.5,10676.2,10676.2,10666.5,10676.2,1,10676.2,0,0,NA,"Click To Continue","Continue Button",2,"object-2983","Task Instructions",NA,"SUPLCM65569"
"6",1721740306106,"23/07/2024 13:11:46",1721743906106,1,"23/07/2024 15:11:46",180348,2,"task-8tuj",NA,39147868,11486639,NA,"complete",NA,"computer","Desktop or Laptop","Mac OS 10.15.7","Chrome 126.0.0.0","1440x900","1351x673",NA,NA,0,"Task Introduction and Instructions (re-introduce video and audio) (Clone) (Clone)",3,"CDBEAFIGH","Passed AC2","","Spreadsheet1","Spreadsheet1",1,"Task Instructions","Screen 12","1a4vu2",5,"continue","",8968.79999999404,8965.7,8968.79999999404,8968.79999999404,8965.7,8968.79999999404,1,8968.79999999404,0,0,NA,"Click To Continue","Continue Button",2,"object-2466","Task Instructions",NA,"SUPLCM65569"
"7",1721740311436,"23/07/2024 13:11:51",1721743911436,1,"23/07/2024 15:11:51",180348,2,"task-8tuj",NA,39147868,11486639,NA,"complete",NA,"computer","Desktop or Laptop","Mac OS 10.15.7","Chrome 126.0.0.0","1440x900","1351x673",NA,NA,0,"Task Introduction and Instructions (re-introduce video and audio) (Clone) (Clone)",3,"CDBEAFIGH","Passed AC2","","Spreadsheet1","Spreadsheet1",1,"Task Instructions","Screen 13","q9vwda",6,"continue","",5333.40000000596,5317.5,5333.40000000596,5333.40000000596,5317.5,5333.40000000596,1,5333.40000000596,0,0,NA,"Click To Continue","Continue Button",2,"object-2989","Task Instructions",NA,"SUPLCM65569"
"8",1721740315846,"23/07/2024 13:11:55",1721743915846,1,"23/07/2024 15:11:55",180348,2,"task-8tuj",NA,39147868,11486639,NA,"complete",NA,"computer","Desktop or Laptop","Mac OS 10.15.7","Chrome 126.0.0.0","1440x900","1351x673",NA,NA,0,"Task Introduction and Instructions (re-introduce video and audio) (Clone) (Clone)",3,"CDBEAFIGH","Passed AC2","","Spreadsheet1","Spreadsheet1",1,"Task Instructions","Screen 11","oyulb7",7,"continue","",4425.59999999404,4416.6,4425.59999999404,4425.59999999404,4416.6,4425.59999999404,1,4425.59999999404,0,0,NA,"Click To Continue","Continue Button",2,"object-52","Task Instructions",NA,"SUPLCM65569"
"9",1721740318876,"23/07/2024 13:11:58",1721743918876,1,"23/07/2024 15:11:58",180348,2,"task-8tuj",NA,39147868,11486639,NA,"complete",NA,"computer","Desktop or Laptop","Mac OS 10.15.7","Chrome 126.0.0.0","1440x900","1351x673",NA,NA,0,"Task Introduction and Instructions (re-introduce video and audio) (Clone) (Clone)",3,"CDBEAFIGH","Passed AC2","","Spreadsheet1","Spreadsheet1",1,"Task Instructions","Screen 5","8nvnao",8,"continue","",3038.9,3033.2,3038.9,3038.9,3033.2,3038.9,1,3038.9,0,0,NA,"Click To Continue","Continue Button",2,"object-44","Task Instructions",NA,"SUPLCM65569"
"10",1721740318878,"23/07/2024 13:11:58",1721743918878,1,"23/07/2024 15:11:58",180348,2,"task-8tuj",NA,39147868,11486639,NA,"complete",NA,"computer","Desktop or Laptop","Mac OS 10.15.7","Chrome 126.0.0.0","1440x900","1351x673",NA,NA,0,"Task Introduction and Instructions (re-introduce video and audio) (Clone) (Clone)",3,"CDBEAFIGH","Passed AC2","","Spreadsheet1","Spreadsheet1",NA,"","","",NA,"info","END",NA,NA,NA,NA,NA,NA,0,NA,NA,NA,NA,"","",NA,"","",NA,"SUPLCM65569"
"1",1721815927099,"24/07/2024 10:12:07",1721844727099,8,"25/07/2024 02:12:07",180348,2,"task-8tuj",NA,39164710,11491791,NA,"complete",NA,"computer","Desktop or Laptop","Mac OS 10.15.7","Chrome 126.0.0.0","1440x900","1091x702",NA,NA,0,"Task Introduction and Instructions (re-introduce video and audio) (Clone) (Clone)",3,"DECFBGAHI","Passed AC2","","Spreadsheet1","Spreadsheet1",NA,"","","",NA,"info","BEGIN",NA,NA,NA,NA,NA,NA,0,NA,NA,NA,NA,"","",NA,"","",NA,"SUPLCM83190"
"2",1721815930981,"24/07/2024 10:12:10",1721844730981,8,"25/07/2024 02:12:10",180348,2,"task-8tuj",NA,39164710,11491791,NA,"complete",NA,"computer","Desktop or Laptop","Mac OS 10.15.7","Chrome 126.0.0.0","1440x900","1091x702",NA,NA,0,"Task Introduction and Instructions (re-introduce video and audio) (Clone) (Clone)",3,"DECFBGAHI","Passed AC2","","Spreadsheet1","Spreadsheet1",1,"Task Instructions","Screen 1","anr7sn",1,"continue","",3232.40000001192,3216.7,3232.40000001192,3232.40000001192,3216.7,3232.40000001192,1,3232.40000001192,0,0,NA,"Click To Continue","Continue Button",3,"object-60","Task Instructions",NA,"SUPLCM83190"
"3",1721815933047,"24/07/2024 10:12:13",1721844733047,8,"25/07/2024 02:12:13",180348,2,"task-8tuj",NA,39164710,11491791,NA,"complete",NA,"computer","Desktop or Laptop","Mac OS 10.15.7","Chrome 126.0.0.0","1440x900","1091x702",NA,NA,0,"Task Introduction and Instructions (re-introduce video and audio) (Clone) (Clone)",3,"DECFBGAHI","Passed AC2","","Spreadsheet1","Spreadsheet1",1,"Task Instructions","Screen 4","spepx9",2,"continue","",2081.59999998808,2066.8,2081.59999998808,2081.59999998808,2066.8,2081.59999998808,1,2081.59999998808,0,0,NA,"Click To Continue","Continue Button",2,"object-9","Task Instructions",NA,"SUPLCM83190"
"4",1721815950084,"24/07/2024 10:12:30",1721844750084,8,"25/07/2024 02:12:30",180348,2,"task-8tuj",NA,39164710,11491791,NA,"complete",NA,"computer","Desktop or Laptop","Mac OS 10.15.7","Chrome 126.0.0.0","1440x900","1091x702",NA,NA,0,"Task Introduction and Instructions (re-introduce video and audio) (Clone) (Clone)",3,"DECFBGAHI","Passed AC2","","Spreadsheet1","Spreadsheet1",1,"Task Instructions","Screen 2","ce2tc8",3,"continue","",17052.9999999762,17050.5,17052.9999999762,17052.9999999762,17050.5,17052.9999999762,1,17052.9999999762,0,0,NA,"Click To Continue","Continue Button",3,"object-59","Task Instructions",NA,"SUPLCM83190"
"5",1721815958417,"24/07/2024 10:12:38",1721844758417,8,"25/07/2024 02:12:38",180348,2,"task-8tuj",NA,39164710,11491791,NA,"complete",NA,"computer","Desktop or Laptop","Mac OS 10.15.7","Chrome 126.0.0.0","1440x900","1091x702",NA,NA,0,"Task Introduction and Instructions (re-introduce video and audio) (Clone) (Clone)",3,"DECFBGAHI","Passed AC2","","Spreadsheet1","Spreadsheet1",1,"Task Instructions","Screen 3","1qtc8v",4,"continue","",8335.1,8333.6,8335.1,8335.1,8333.6,8335.1,1,8335.1,0,0,NA,"Click To Continue","Continue Button",2,"object-2983","Task Instructions",NA,"SUPLCM83190"
"6",1721815970730,"24/07/2024 10:12:50",1721844770730,8,"25/07/2024 02:12:50",180348,2,"task-8tuj",NA,39164710,11491791,NA,"complete",NA,"computer","Desktop or Laptop","Mac OS 10.15.7","Chrome 126.0.0.0","1440x900","1091x702",NA,NA,0,"Task Introduction and Instructions (re-introduce video and audio) (Clone) (Clone)",3,"DECFBGAHI","Passed AC2","","Spreadsheet1","Spreadsheet1",1,"Task Instructions","Screen 12","1a4vu2",5,"continue","",12315.1999999881,12300.5,12315.1999999881,12315.1999999881,12300.5,12315.1999999881,1,12315.1999999881,0,0,NA,"Click To Continue","Continue Button",2,"object-2466","Task Instructions",NA,"SUPLCM83190"
"7",1721815976436,"24/07/2024 10:12:56",1721844776436,8,"25/07/2024 02:12:56",180348,2,"task-8tuj",NA,39164710,11491791,NA,"complete",NA,"computer","Desktop or Laptop","Mac OS 10.15.7","Chrome 126.0.0.0","1440x900","1091x702",NA,NA,0,"Task Introduction and Instructions (re-introduce video and audio) (Clone) (Clone)",3,"DECFBGAHI","Passed AC2","","Spreadsheet1","Spreadsheet1",1,"Task Instructions","Screen 13","q9vwda",6,"continue","",5721.60000002384,5716.8,5721.60000002384,5721.60000002384,5716.8,5721.60000002384,1,5721.60000002384,0,0,NA,"Click To Continue","Continue Button",2,"object-2989","Task Instructions",NA,"SUPLCM83190"
"8",1721815979614,"24/07/2024 10:12:59",1721844779614,8,"25/07/2024 02:12:59",180348,2,"task-8tuj",NA,39164710,11491791,NA,"complete",NA,"computer","Desktop or Laptop","Mac OS 10.15.7","Chrome 126.0.0.0","1440x900","1091x702",NA,NA,0,"Task Introduction and Instructions (re-introduce video and audio) (Clone) (Clone)",3,"DECFBGAHI","Passed AC2","","Spreadsheet1","Spreadsheet1",1,"Task Instructions","Screen 11","oyulb7",7,"continue","",3182.59999997616,3166.8,3182.59999997616,3182.59999997616,3166.8,3182.59999997616,1,3182.59999997616,0,0,NA,"Click To Continue","Continue Button",2,"object-52","Task Instructions",NA,"SUPLCM83190"
"9",1721815982947,"24/07/2024 10:13:02",1721844782947,8,"25/07/2024 02:13:02",180348,2,"task-8tuj",NA,39164710,11491791,NA,"complete",NA,"computer","Desktop or Laptop","Mac OS 10.15.7","Chrome 126.0.0.0","1440x900","1091x702",NA,NA,0,"Task Introduction and Instructions (re-introduce video and audio) (Clone) (Clone)",3,"DECFBGAHI","Passed AC2","","Spreadsheet1","Spreadsheet1",1,"Task Instructions","Screen 5","8nvnao",8,"continue","",3349.29999997616,3333.4,3349.29999997616,3349.29999997616,3333.4,3349.29999997616,1,3349.29999997616,0,0,NA,"Click To Continue","Continue Button",2,"object-44","Task Instructions",NA,"SUPLCM83190"
"10",1721815982953,"24/07/2024 10:13:02",1721844782953,8,"25/07/2024 02:13:02",180348,2,"task-8tuj",NA,39164710,11491791,NA,"complete",NA,"computer","Desktop or Laptop","Mac OS 10.15.7","Chrome 126.0.0.0","1440x900","1091x702",NA,NA,0,"Task Introduction and Instructions (re-introduce video and audio) (Clone) (Clone)",3,"DECFBGAHI","Passed AC2","","Spreadsheet1","Spreadsheet1",NA,"","","",NA,"info","END",NA,NA,NA,NA,NA,NA,0,NA,NA,NA,NA,"","",NA,"","",NA,"SUPLCM83190"
"1",1721990335944,"26/07/2024 10:38:55",1721993935944,1,"26/07/2024 12:38:55",180348,2,"task-8tuj",NA,39214457,11503602,NA,"complete",NA,"computer","Desktop or Laptop","Windows 10","Chrome 127.0.0.0","1707x1067","1707x898",NA,NA,0,"Task Introduction and Instructions (re-introduce video and audio) (Clone) (Clone)",3,"EFDGCHBIA","Passed AC2","","Spreadsheet1","Spreadsheet1",NA,"","","",NA,"info","BEGIN",NA,NA,NA,NA,NA,NA,0,NA,NA,NA,NA,"","",NA,"","",NA,"SUPLCM14619"
"2",1721990342432,"26/07/2024 10:39:02",1721993942432,1,"26/07/2024 12:39:02",180348,2,"task-8tuj",NA,39214457,11503602,NA,"complete",NA,"computer","Desktop or Laptop","Windows 10","Chrome 127.0.0.0","1707x1067","1707x898",NA,NA,0,"Task Introduction and Instructions (re-introduce video and audio) (Clone) (Clone)",3,"EFDGCHBIA","Passed AC2","","Spreadsheet1","Spreadsheet1",1,"Task Instructions","Screen 1","anr7sn",1,"continue","",6434.60000000009,6430.3,6434.60000000009,6434.60000000009,6430.3,6434.60000000009,1,6434.60000000009,0,0,NA,"Click To Continue","Continue Button",3,"object-60","Task Instructions",NA,"SUPLCM14619"
"3",1721990768155,"26/07/2024 10:46:08",1721994368155,1,"26/07/2024 12:46:08",180348,2,"task-8tuj",NA,39214457,11503602,NA,"complete",NA,"computer","Desktop or Laptop","Windows 10","Chrome 127.0.0.0","1707x1067","1707x898",NA,NA,0,"Task Introduction and Instructions (re-introduce video and audio) (Clone) (Clone)",3,"EFDGCHBIA","Passed AC2","","Spreadsheet1","Spreadsheet1",1,"Task Instructions","Screen 4","spepx9",2,"continue","",425724.2,425718.1,425724.2,425724.2,425718.1,425724.2,1,425724.2,0,0,NA,"Click To Continue","Continue Button",2,"object-9","Task Instructions",NA,"SUPLCM14619"
"4",1721990795884,"26/07/2024 10:46:35",1721994395884,1,"26/07/2024 12:46:35",180348,2,"task-8tuj",NA,39214457,11503602,NA,"complete",NA,"computer","Desktop or Laptop","Windows 10","Chrome 127.0.0.0","1707x1067","1707x898",NA,NA,0,"Task Introduction and Instructions (re-introduce video and audio) (Clone) (Clone)",3,"EFDGCHBIA","Passed AC2","","Spreadsheet1","Spreadsheet1",1,"Task Instructions","Screen 2","ce2tc8",3,"continue","",27738.6,27732.8,27738.6,27738.6,27732.8,27738.6,1,27738.6,0,0,NA,"Click To Continue","Continue Button",3,"object-59","Task Instructions",NA,"SUPLCM14619"
"5",1721990814079,"26/07/2024 10:46:54",1721994414079,1,"26/07/2024 12:46:54",180348,2,"task-8tuj",NA,39214457,11503602,NA,"complete",NA,"computer","Desktop or Laptop","Windows 10","Chrome 127.0.0.0","1707x1067","1707x898",NA,NA,0,"Task Introduction and Instructions (re-introduce video and audio) (Clone) (Clone)",3,"EFDGCHBIA","Passed AC2","","Spreadsheet1","Spreadsheet1",1,"Task Instructions","Screen 3","1qtc8v",4,"continue","",18199.6,18193.5,18199.6,18199.6,18193.5,18199.6,1,18199.6,0,0,NA,"Click To Continue","Continue Button",2,"object-2983","Task Instructions",NA,"SUPLCM14619"
"6",1721990836173,"26/07/2024 10:47:16",1721994436173,1,"26/07/2024 12:47:16",180348,2,"task-8tuj",NA,39214457,11503602,NA,"complete",NA,"computer","Desktop or Laptop","Windows 10","Chrome 127.0.0.0","1707x1067","1707x898",NA,NA,0,"Task Introduction and Instructions (re-introduce video and audio) (Clone) (Clone)",3,"EFDGCHBIA","Passed AC2","","Spreadsheet1","Spreadsheet1",1,"Task Instructions","Screen 12","1a4vu2",5,"continue","",22101.2000000001,22096.6,22101.2000000001,22101.2000000001,22096.6,22101.2000000001,1,22101.2000000001,0,0,NA,"Click To Continue","Continue Button",2,"object-2466","Task Instructions",NA,"SUPLCM14619"
"7",1721990842124,"26/07/2024 10:47:22",1721994442124,1,"26/07/2024 12:47:22",180348,2,"task-8tuj",NA,39214457,11503602,NA,"complete",NA,"computer","Desktop or Laptop","Windows 10","Chrome 127.0.0.0","1707x1067","1707x898",NA,NA,0,"Task Introduction and Instructions (re-introduce video and audio) (Clone) (Clone)",3,"EFDGCHBIA","Passed AC2","","Spreadsheet1","Spreadsheet1",1,"Task Instructions","Screen 13","q9vwda",6,"continue","",5956.50000000006,5951.40000000002,5956.50000000006,5956.50000000006,5951.40000000002,5956.50000000006,1,5956.50000000006,0,0,NA,"Click To Continue","Continue Button",2,"object-2989","Task Instructions",NA,"SUPLCM14619"
"8",1721990847562,"26/07/2024 10:47:27",1721994447562,1,"26/07/2024 12:47:27",180348,2,"task-8tuj",NA,39214457,11503602,NA,"complete",NA,"computer","Desktop or Laptop","Windows 10","Chrome 127.0.0.0","1707x1067","1707x898",NA,NA,0,"Task Introduction and Instructions (re-introduce video and audio) (Clone) (Clone)",3,"EFDGCHBIA","Passed AC2","","Spreadsheet1","Spreadsheet1",1,"Task Instructions","Screen 11","oyulb7",7,"continue","",5441.99999999994,5436.09999999998,5441.99999999994,5441.99999999994,5436.09999999998,5441.99999999994,1,5441.99999999994,0,0,NA,"Click To Continue","Continue Button",2,"object-52","Task Instructions",NA,"SUPLCM14619"
"9",1721990850541,"26/07/2024 10:47:30",1721994450541,1,"26/07/2024 12:47:30",180348,2,"task-8tuj",NA,39214457,11503602,NA,"complete",NA,"computer","Desktop or Laptop","Windows 10","Chrome 127.0.0.0","1707x1067","1707x898",NA,NA,0,"Task Introduction and Instructions (re-introduce video and audio) (Clone) (Clone)",3,"EFDGCHBIA","Passed AC2","","Spreadsheet1","Spreadsheet1",1,"Task Instructions","Screen 5","8nvnao",8,"continue","",2985.4000000002,2981.79999999999,2985.4000000002,2985.4000000002,2981.79999999999,2985.4000000002,1,2985.4000000002,0,0,NA,"Click To Continue","Continue Button",2,"object-44","Task Instructions",NA,"SUPLCM14619"
"10",1721990850544,"26/07/2024 10:47:30",1721994450544,1,"26/07/2024 12:47:30",180348,2,"task-8tuj",NA,39214457,11503602,NA,"complete",NA,"computer","Desktop or Laptop","Windows 10","Chrome 127.0.0.0","1707x1067","1707x898",NA,NA,0,"Task Introduction and Instructions (re-introduce video and audio) (Clone) (Clone)",3,"EFDGCHBIA","Passed AC2","","Spreadsheet1","Spreadsheet1",NA,"","","",NA,"info","END",NA,NA,NA,NA,NA,NA,0,NA,NA,NA,NA,"","",NA,"","",NA,"SUPLCM14619"
"1",1719923168921,"02/07/2024 12:26:08",1719926768921,1,"02/07/2024 14:26:08",180348,2,"task-8tuj",NA,38676308,11355075,NA,"complete",NA,"computer","Desktop or Laptop","Mac OS 10.15.7","Chrome 125.0.0.0","1440x900","1440x728",NA,NA,0,"Task Introduction and Instructions (re-introduce video and audio) (Clone) (Clone)",3,"IAHBGCFDE","Failed AC2","Passed AC1","Spreadsheet1","Spreadsheet1",NA,"","","",NA,"info","BEGIN",NA,NA,NA,NA,NA,NA,0,NA,NA,NA,NA,"","",NA,"","",NA,"SUPLCM16544"
"2",1719923174870,"02/07/2024 12:26:14",1719926774870,1,"02/07/2024 14:26:14",180348,2,"task-8tuj",NA,38676308,11355075,NA,"complete",NA,"computer","Desktop or Laptop","Mac OS 10.15.7","Chrome 125.0.0.0","1440x900","1440x728",NA,NA,0,"Task Introduction and Instructions (re-introduce video and audio) (Clone) (Clone)",3,"IAHBGCFDE","Failed AC2","Passed AC1","Spreadsheet1","Spreadsheet1",1,"Task Instructions","Screen 1","anr7sn",1,"continue","",5773.89999999702,5767.3,5773.89999999702,5773.89999999702,5767.3,5773.89999999702,1,5773.89999999702,0,0,NA,"Click To Continue","Continue Button",3,"object-60","Task Instructions",NA,"SUPLCM16544"
"3",1719923177642,"02/07/2024 12:26:17",1719926777642,1,"02/07/2024 14:26:17",180348,2,"task-8tuj",NA,38676308,11355075,NA,"complete",NA,"computer","Desktop or Laptop","Mac OS 10.15.7","Chrome 125.0.0.0","1440x900","1440x728",NA,NA,0,"Task Introduction and Instructions (re-introduce video and audio) (Clone) (Clone)",3,"IAHBGCFDE","Failed AC2","Passed AC1","Spreadsheet1","Spreadsheet1",1,"Task Instructions","Screen 4","spepx9",2,"continue","",2778.99999998808,2765.7,2778.99999998808,2778.99999998808,2765.7,2778.99999998808,1,2778.99999998808,0,0,NA,"Click To Continue","Continue Button",2,"object-9","Task Instructions",NA,"SUPLCM16544"
"4",1719923222033,"02/07/2024 12:27:02",1719926822033,1,"02/07/2024 14:27:02",180348,2,"task-8tuj",NA,38676308,11355075,NA,"complete",NA,"computer","Desktop or Laptop","Mac OS 10.15.7","Chrome 125.0.0.0","1440x900","1440x728",NA,NA,0,"Task Introduction and Instructions (re-introduce video and audio) (Clone) (Clone)",3,"IAHBGCFDE","Failed AC2","Passed AC1","Spreadsheet1","Spreadsheet1",1,"Task Instructions","Screen 2","ce2tc8",3,"continue","",44400.9,44384.3,44400.9,44400.9,44384.3,44400.9,1,44400.9,0,0,NA,"Click To Continue","Continue Button",3,"object-59","Task Instructions",NA,"SUPLCM16544"
"5",1719923229692,"02/07/2024 12:27:09",1719926829692,1,"02/07/2024 14:27:09",180348,2,"task-8tuj",NA,38676308,11355075,NA,"complete",NA,"computer","Desktop or Laptop","Mac OS 10.15.7","Chrome 125.0.0.0","1440x900","1440x728",NA,NA,0,"Task Introduction and Instructions (re-introduce video and audio) (Clone) (Clone)",3,"IAHBGCFDE","Failed AC2","Passed AC1","Spreadsheet1","Spreadsheet1",1,"Task Instructions","Screen 3","1qtc8v",4,"continue","",7678.39999999404,7666.8,7678.39999999404,7678.39999999404,7666.8,7678.39999999404,1,7678.39999999404,0,0,NA,"Click To Continue","Continue Button",2,"object-2983","Task Instructions",NA,"SUPLCM16544"
"6",1719923236373,"02/07/2024 12:27:16",1719926836373,1,"02/07/2024 14:27:16",180348,2,"task-8tuj",NA,38676308,11355075,NA,"complete",NA,"computer","Desktop or Laptop","Mac OS 10.15.7","Chrome 125.0.0.0","1440x900","1440x728",NA,NA,0,"Task Introduction and Instructions (re-introduce video and audio) (Clone) (Clone)",3,"IAHBGCFDE","Failed AC2","Passed AC1","Spreadsheet1","Spreadsheet1",1,"Task Instructions","Screen 12","1a4vu2",5,"continue","",6692.79999999702,6683.3,6692.79999999702,6692.79999999702,6683.3,6692.79999999702,1,6692.79999999702,0,0,NA,"Click To Continue","Continue Button",2,"object-2466","Task Instructions",NA,"SUPLCM16544"
"7",1719923241041,"02/07/2024 12:27:21",1719926841041,1,"02/07/2024 14:27:21",180348,2,"task-8tuj",NA,38676308,11355075,NA,"complete",NA,"computer","Desktop or Laptop","Mac OS 10.15.7","Chrome 125.0.0.0","1440x900","1440x728",NA,NA,0,"Task Introduction and Instructions (re-introduce video and audio) (Clone) (Clone)",3,"IAHBGCFDE","Failed AC2","Passed AC1","Spreadsheet1","Spreadsheet1",1,"Task Instructions","Screen 13","q9vwda",6,"continue","",4677.29999999404,4666.7,4677.29999999404,4677.29999999404,4666.7,4677.29999999404,1,4677.29999999404,0,0,NA,"Click To Continue","Continue Button",2,"object-2989","Task Instructions",NA,"SUPLCM16544"
"8",1719923245381,"02/07/2024 12:27:25",1719926845381,1,"02/07/2024 14:27:25",180348,2,"task-8tuj",NA,38676308,11355075,NA,"complete",NA,"computer","Desktop or Laptop","Mac OS 10.15.7","Chrome 125.0.0.0","1440x900","1440x728",NA,NA,0,"Task Introduction and Instructions (re-introduce video and audio) (Clone) (Clone)",3,"IAHBGCFDE","Failed AC2","Passed AC1","Spreadsheet1","Spreadsheet1",1,"Task Instructions","Screen 11","oyulb7",7,"continue","",4350.09999999404,4333.3,4350.09999999404,4350.09999999404,4333.3,4350.09999999404,1,4350.09999999404,0,0,NA,"Click To Continue","Continue Button",2,"object-52","Task Instructions",NA,"SUPLCM16544"
"9",1719923247866,"02/07/2024 12:27:27",1719926847866,1,"02/07/2024 14:27:27",180348,2,"task-8tuj",NA,38676308,11355075,NA,"complete",NA,"computer","Desktop or Laptop","Mac OS 10.15.7","Chrome 125.0.0.0","1440x900","1440x728",NA,NA,0,"Task Introduction and Instructions (re-introduce video and audio) (Clone) (Clone)",3,"IAHBGCFDE","Failed AC2","Passed AC1","Spreadsheet1","Spreadsheet1",1,"Task Instructions","Screen 5","8nvnao",8,"continue","",2502.59999999106,2500.09999999999,2502.59999999106,2502.59999999106,2500.09999999999,2502.59999999106,1,2502.59999999106,0,0,NA,"Click To Continue","Continue Button",2,"object-44","Task Instructions",NA,"SUPLCM16544"
"10",1719923247871,"02/07/2024 12:27:27",1719926847871,1,"02/07/2024 14:27:27",180348,2,"task-8tuj",NA,38676308,11355075,NA,"complete",NA,"computer","Desktop or Laptop","Mac OS 10.15.7","Chrome 125.0.0.0","1440x900","1440x728",NA,NA,0,"Task Introduction and Instructions (re-introduce video and audio) (Clone) (Clone)",3,"IAHBGCFDE","Failed AC2","Passed AC1","Spreadsheet1","Spreadsheet1",NA,"","","",NA,"info","END",NA,NA,NA,NA,NA,NA,0,NA,NA,NA,NA,"","",NA,"","",NA,"SUPLCM16544"
"1",1719829064790,"01/07/2024 10:17:44",1719832664790,1,"01/07/2024 12:17:44",180348,2,"task-8tuj",NA,38642808,11341646,NA,"complete",NA,"computer","Desktop or Laptop","Mac OS 10.15.7","Chrome 126.0.0.0","1512x982","1512x858",NA,NA,0,"Task Introduction and Instructions (re-introduce video and audio) (Clone) (Clone)",3,"GHFIEADBC","Passed AC2","","Spreadsheet1","Spreadsheet1",NA,"","","",NA,"info","BEGIN",NA,NA,NA,NA,NA,NA,0,NA,NA,NA,NA,"","",NA,"","",NA,"SUPLCM34679"
"2",1719829068300,"01/07/2024 10:17:48",1719832668300,1,"01/07/2024 12:17:48",180348,2,"task-8tuj",NA,38642808,11341646,NA,"complete",NA,"computer","Desktop or Laptop","Mac OS 10.15.7","Chrome 126.0.0.0","1512x982","1512x858",NA,NA,0,"Task Introduction and Instructions (re-introduce video and audio) (Clone) (Clone)",3,"GHFIEADBC","Passed AC2","","Spreadsheet1","Spreadsheet1",1,"Task Instructions","Screen 1","anr7sn",1,"continue","",3379.7,3371.6,3379.7,3379.7,3371.6,3379.7,1,3379.7,0,0,NA,"Click To Continue","Continue Button",3,"object-60","Task Instructions",NA,"SUPLCM34679"
"3",1719829071570,"01/07/2024 10:17:51",1719832671570,1,"01/07/2024 12:17:51",180348,2,"task-8tuj",NA,38642808,11341646,NA,"complete",NA,"computer","Desktop or Laptop","Mac OS 10.15.7","Chrome 126.0.0.0","1512x982","1512x858",NA,NA,0,"Task Introduction and Instructions (re-introduce video and audio) (Clone) (Clone)",3,"GHFIEADBC","Passed AC2","","Spreadsheet1","Spreadsheet1",1,"Task Instructions","Screen 4","spepx9",2,"continue","",3279.80000000019,3274.6,3279.80000000019,3279.80000000019,3274.6,3279.80000000019,1,3279.80000000019,0,0,NA,"Click To Continue","Continue Button",2,"object-9","Task Instructions",NA,"SUPLCM34679"
"4",1719829086899,"01/07/2024 10:18:06",1719832686899,1,"01/07/2024 12:18:06",180348,2,"task-8tuj",NA,38642808,11341646,NA,"complete",NA,"computer","Desktop or Laptop","Mac OS 10.15.7","Chrome 126.0.0.0","1512x982","1512x858",NA,NA,0,"Task Introduction and Instructions (re-introduce video and audio) (Clone) (Clone)",3,"GHFIEADBC","Passed AC2","","Spreadsheet1","Spreadsheet1",1,"Task Instructions","Screen 2","ce2tc8",3,"continue","",15334.5,15330.8,15334.5,15334.5,15330.8,15334.5,1,15334.5,0,0,NA,"Click To Continue","Continue Button",3,"object-59","Task Instructions",NA,"SUPLCM34679"
"5",1719829107207,"01/07/2024 10:18:27",1719832707207,1,"01/07/2024 12:18:27",180348,2,"task-8tuj",NA,38642808,11341646,NA,"complete",NA,"computer","Desktop or Laptop","Mac OS 10.15.7","Chrome 126.0.0.0","1512x982","1512x858",NA,NA,0,"Task Introduction and Instructions (re-introduce video and audio) (Clone) (Clone)",3,"GHFIEADBC","Passed AC2","","Spreadsheet1","Spreadsheet1",1,"Task Instructions","Screen 3","1qtc8v",4,"continue","",20310,20302.3,20310,20310,20302.3,20310,1,20310,0,0,NA,"Click To Continue","Continue Button",2,"object-2983","Task Instructions",NA,"SUPLCM34679"
"6",1719829118624,"01/07/2024 10:18:38",1719832718624,1,"01/07/2024 12:18:38",180348,2,"task-8tuj",NA,38642808,11341646,NA,"complete",NA,"computer","Desktop or Laptop","Mac OS 10.15.7","Chrome 126.0.0.0","1512x982","1512x858",NA,NA,0,"Task Introduction and Instructions (re-introduce video and audio) (Clone) (Clone)",3,"GHFIEADBC","Passed AC2","","Spreadsheet1","Spreadsheet1",1,"Task Instructions","Screen 12","1a4vu2",5,"continue","",11426.2,11418.2,11426.2,11426.2,11418.2,11426.2,1,11426.2,0,0,NA,"Click To Continue","Continue Button",2,"object-2466","Task Instructions",NA,"SUPLCM34679"
"7",1719829123757,"01/07/2024 10:18:43",1719832723757,1,"01/07/2024 12:18:43",180348,2,"task-8tuj",NA,38642808,11341646,NA,"complete",NA,"computer","Desktop or Laptop","Mac OS 10.15.7","Chrome 126.0.0.0","1512x982","1512x858",NA,NA,0,"Task Introduction and Instructions (re-introduce video and audio) (Clone) (Clone)",3,"GHFIEADBC","Passed AC2","","Spreadsheet1","Spreadsheet1",1,"Task Instructions","Screen 13","q9vwda",6,"continue","",5141.80000000009,5134.89999999999,5141.80000000009,5141.80000000009,5134.89999999999,5141.80000000009,1,5141.80000000009,0,0,NA,"Click To Continue","Continue Button",2,"object-2989","Task Instructions",NA,"SUPLCM34679"
"8",1719829127511,"01/07/2024 10:18:47",1719832727511,1,"01/07/2024 12:18:47",180348,2,"task-8tuj",NA,38642808,11341646,NA,"complete",NA,"computer","Desktop or Laptop","Mac OS 10.15.7","Chrome 126.0.0.0","1512x982","1512x858",NA,NA,0,"Task Introduction and Instructions (re-introduce video and audio) (Clone) (Clone)",3,"GHFIEADBC","Passed AC2","","Spreadsheet1","Spreadsheet1",1,"Task Instructions","Screen 11","oyulb7",7,"continue","",3761.19999999991,3757.2,3761.19999999991,3761.19999999991,3757.2,3761.19999999991,1,3761.19999999991,0,0,NA,"Click To Continue","Continue Button",2,"object-52","Task Instructions",NA,"SUPLCM34679"
"9",1719829129882,"01/07/2024 10:18:49",1719832729882,1,"01/07/2024 12:18:49",180348,2,"task-8tuj",NA,38642808,11341646,NA,"complete",NA,"computer","Desktop or Laptop","Mac OS 10.15.7","Chrome 126.0.0.0","1512x982","1512x858",NA,NA,0,"Task Introduction and Instructions (re-introduce video and audio) (Clone) (Clone)",3,"GHFIEADBC","Passed AC2","","Spreadsheet1","Spreadsheet1",1,"Task Instructions","Screen 5","8nvnao",8,"continue","",2373.99999999991,2366.99999999999,2373.99999999991,2373.99999999991,2366.99999999999,2373.99999999991,1,2373.99999999991,0,0,NA,"Click To Continue","Continue Button",2,"object-44","Task Instructions",NA,"SUPLCM34679"
"10",1719829129887,"01/07/2024 10:18:49",1719832729887,1,"01/07/2024 12:18:49",180348,2,"task-8tuj",NA,38642808,11341646,NA,"complete",NA,"computer","Desktop or Laptop","Mac OS 10.15.7","Chrome 126.0.0.0","1512x982","1512x858",NA,NA,0,"Task Introduction and Instructions (re-introduce video and audio) (Clone) (Clone)",3,"GHFIEADBC","Passed AC2","","Spreadsheet1","Spreadsheet1",NA,"","","",NA,"info","END",NA,NA,NA,NA,NA,NA,0,NA,NA,NA,NA,"","",NA,"","",NA,"SUPLCM34679"
"1",1719576742319,"28/06/2024 12:12:22",1719587542319,3,"28/06/2024 18:12:22",180348,2,"task-8tuj",NA,38566389,11330934,NA,"complete",NA,"computer","Desktop or Laptop","Windows 10","Chrome 126.0.0.0","1536x864","1536x738",NA,NA,0,"Task Introduction and Instructions (re-introduce video and audio) (Clone) (Clone)",3,"FGEHDICAB","Passed AC2","","Spreadsheet1","Spreadsheet1",NA,"","","",NA,"info","BEGIN",NA,NA,NA,NA,NA,NA,0,NA,NA,NA,NA,"","",NA,"","",NA,"SUPLCM31721"
"2",1719576752497,"28/06/2024 12:12:32",1719587552497,3,"28/06/2024 18:12:32",180348,2,"task-8tuj",NA,38566389,11330934,NA,"complete",NA,"computer","Desktop or Laptop","Windows 10","Chrome 126.0.0.0","1536x864","1536x738",NA,NA,0,"Task Introduction and Instructions (re-introduce video and audio) (Clone) (Clone)",3,"FGEHDICAB","Passed AC2","","Spreadsheet1","Spreadsheet1",1,"Task Instructions","Screen 1","anr7sn",1,"continue","",8873.5,8864.6,8873.5,8873.5,8864.6,8873.5,1,8873.5,0,0,NA,"Click To Continue","Continue Button",3,"object-60","Task Instructions",NA,"SUPLCM31721"
"3",1719576756982,"28/06/2024 12:12:36",1719587556982,3,"28/06/2024 18:12:36",180348,2,"task-8tuj",NA,38566389,11330934,NA,"complete",NA,"computer","Desktop or Laptop","Windows 10","Chrome 126.0.0.0","1536x864","1536x738",NA,NA,0,"Task Introduction and Instructions (re-introduce video and audio) (Clone) (Clone)",3,"FGEHDICAB","Passed AC2","","Spreadsheet1","Spreadsheet1",1,"Task Instructions","Screen 4","spepx9",2,"continue","",4494.59999992848,4482.2,4494.59999992848,4494.59999992848,4482.2,4494.59999992848,1,4494.59999992848,0,0,NA,"Click To Continue","Continue Button",2,"object-9","Task Instructions",NA,"SUPLCM31721"
"4",1719576767411,"28/06/2024 12:12:47",1719587567411,3,"28/06/2024 18:12:47",180348,2,"task-8tuj",NA,38566389,11330934,NA,"complete",NA,"computer","Desktop or Laptop","Windows 10","Chrome 126.0.0.0","1536x864","1536x738",NA,NA,0,"Task Introduction and Instructions (re-introduce video and audio) (Clone) (Clone)",3,"FGEHDICAB","Passed AC2","","Spreadsheet1","Spreadsheet1",1,"Task Instructions","Screen 2","ce2tc8",3,"continue","",10436.5999999762,10430.8,10436.5999999762,10436.5999999762,10430.8,10436.5999999762,1,10436.5999999762,0,0,NA,"Click To Continue","Continue Button",3,"object-59","Task Instructions",NA,"SUPLCM31721"
"5",1719576778915,"28/06/2024 12:12:58",1719587578915,3,"28/06/2024 18:12:58",180348,2,"task-8tuj",NA,38566389,11330934,NA,"complete",NA,"computer","Desktop or Laptop","Windows 10","Chrome 126.0.0.0","1536x864","1536x738",NA,NA,0,"Task Introduction and Instructions (re-introduce video and audio) (Clone) (Clone)",3,"FGEHDICAB","Passed AC2","","Spreadsheet1","Spreadsheet1",1,"Task Instructions","Screen 3","1qtc8v",4,"continue","",11509.5999999285,11497.1,11509.5999999285,11509.5999999285,11497.1,11509.5999999285,1,11509.5999999285,0,0,NA,"Click To Continue","Continue Button",2,"object-2983","Task Instructions",NA,"SUPLCM31721"
"6",1719576791900,"28/06/2024 12:13:11",1719587591900,3,"28/06/2024 18:13:11",180348,2,"task-8tuj",NA,38566389,11330934,NA,"complete",NA,"computer","Desktop or Laptop","Windows 10","Chrome 126.0.0.0","1536x864","1536x738",NA,NA,0,"Task Introduction and Instructions (re-introduce video and audio) (Clone) (Clone)",3,"FGEHDICAB","Passed AC2","","Spreadsheet1","Spreadsheet1",1,"Task Instructions","Screen 12","1a4vu2",5,"continue","",12996.8,12980.2,12996.8,12996.8,12980.2,12996.8,1,12996.8,0,0,NA,"Click To Continue","Continue Button",2,"object-2466","Task Instructions",NA,"SUPLCM31721"
"7",1719576798075,"28/06/2024 12:13:18",1719587598075,3,"28/06/2024 18:13:18",180348,2,"task-8tuj",NA,38566389,11330934,NA,"complete",NA,"computer","Desktop or Laptop","Windows 10","Chrome 126.0.0.0","1536x864","1536x738",NA,NA,0,"Task Introduction and Instructions (re-introduce video and audio) (Clone) (Clone)",3,"FGEHDICAB","Passed AC2","","Spreadsheet1","Spreadsheet1",1,"Task Instructions","Screen 13","q9vwda",6,"continue","",6191.99999997616,6181.90000000001,6191.99999997616,6191.99999997616,6181.90000000001,6191.99999997616,1,6191.99999997616,0,0,NA,"Click To Continue","Continue Button",2,"object-2989","Task Instructions",NA,"SUPLCM31721"
"8",1719576803851,"28/06/2024 12:13:23",1719587603851,3,"28/06/2024 18:13:23",180348,2,"task-8tuj",NA,38566389,11330934,NA,"complete",NA,"computer","Desktop or Laptop","Windows 10","Chrome 126.0.0.0","1536x864","1536x738",NA,NA,0,"Task Introduction and Instructions (re-introduce video and audio) (Clone) (Clone)",3,"FGEHDICAB","Passed AC2","","Spreadsheet1","Spreadsheet1",1,"Task Instructions","Screen 11","oyulb7",7,"continue","",5786.39999992847,5781.89999999999,5786.39999992847,5786.39999992847,5781.89999999999,5786.39999992847,1,5786.39999992847,0,0,NA,"Click To Continue","Continue Button",2,"object-52","Task Instructions",NA,"SUPLCM31721"
"9",1719576806961,"28/06/2024 12:13:26",1719587606961,3,"28/06/2024 18:13:26",180348,2,"task-8tuj",NA,38566389,11330934,NA,"complete",NA,"computer","Desktop or Laptop","Windows 10","Chrome 126.0.0.0","1536x864","1536x738",NA,NA,0,"Task Introduction and Instructions (re-introduce video and audio) (Clone) (Clone)",3,"FGEHDICAB","Passed AC2","","Spreadsheet1","Spreadsheet1",1,"Task Instructions","Screen 5","8nvnao",8,"continue","",3114.09999995232,3099.2,3114.09999995232,3114.09999995232,3099.2,3114.09999995232,1,3114.09999995232,0,0,NA,"Click To Continue","Continue Button",2,"object-44","Task Instructions",NA,"SUPLCM31721"
"10",1719576806964,"28/06/2024 12:13:26",1719587606964,3,"28/06/2024 18:13:26",180348,2,"task-8tuj",NA,38566389,11330934,NA,"complete",NA,"computer","Desktop or Laptop","Windows 10","Chrome 126.0.0.0","1536x864","1536x738",NA,NA,0,"Task Introduction and Instructions (re-introduce video and audio) (Clone) (Clone)",3,"FGEHDICAB","Passed AC2","","Spreadsheet1","Spreadsheet1",NA,"","","",NA,"info","END",NA,NA,NA,NA,NA,NA,0,NA,NA,NA,NA,"","",NA,"","",NA,"SUPLCM31721"
"11",1719577409289,"28/06/2024 12:23:29",1719588209289,3,"28/06/2024 18:23:29",180348,2,"task-8tuj",NA,38566389,11330934,NA,"complete",NA,"computer","Desktop or Laptop","Windows 10","Chrome 126.0.0.0","1536x864","1536x738",NA,NA,0,"Task Introduction and Instructions (re-introduce video and audio) (Clone) (Clone)",3,"FGEHDICAB","Passed AC2","","Spreadsheet1","Spreadsheet1",NA,"","","",NA,"info","BEGIN",NA,NA,NA,NA,NA,NA,0,NA,NA,NA,NA,"","",NA,"","",NA,"SUPLCM31721"
"12",1719577409298,"28/06/2024 12:23:29",1719588209298,3,"28/06/2024 18:23:29",180348,2,"task-8tuj",NA,38566389,11330934,NA,"complete",NA,"computer","Desktop or Laptop","Windows 10","Chrome 126.0.0.0","1536x864","1536x738",NA,NA,0,"Task Introduction and Instructions (re-introduce video and audio) (Clone) (Clone)",3,"FGEHDICAB","Passed AC2","","Spreadsheet1","Spreadsheet1",NA,"","","",NA,"info","END",NA,NA,NA,NA,NA,NA,0,NA,NA,NA,NA,"","",NA,"","",NA,"SUPLCM31721"
"1",1719321247345,"25/06/2024 13:14:07",1719324847345,1,"25/06/2024 15:14:07",180348,2,"task-8tuj",NA,38483763,11311607,NA,"complete",NA,"computer","Desktop or Laptop","Windows 10","Chrome 126.0.0.0","1280x720","1280x559",NA,NA,0,"Task Introduction and Instructions (re-introduce video and audio) (Clone) (Clone)",3,"CDBEAFIGH","Passed AC2","","Spreadsheet1","Spreadsheet1",NA,"","","",NA,"info","BEGIN",NA,NA,NA,NA,NA,NA,0,NA,NA,NA,NA,"","",NA,"","",NA,"SUPLCM79155"
"2",1719321251031,"25/06/2024 13:14:11",1719324851031,1,"25/06/2024 15:14:11",180348,2,"task-8tuj",NA,38483763,11311607,NA,"complete",NA,"computer","Desktop or Laptop","Windows 10","Chrome 126.0.0.0","1280x720","1280x559",NA,NA,0,"Task Introduction and Instructions (re-introduce video and audio) (Clone) (Clone)",3,"CDBEAFIGH","Passed AC2","","Spreadsheet1","Spreadsheet1",1,"Task Instructions","Screen 1","anr7sn",1,"continue","",3414.10000002384,3398.8,3414.10000002384,3414.10000002384,3398.8,3414.10000002384,1,3414.10000002384,0,0,NA,"Click To Continue","Continue Button",3,"object-60","Task Instructions",NA,"SUPLCM79155"
"3",1719321265727,"25/06/2024 13:14:25",1719324865727,1,"25/06/2024 15:14:25",180348,2,"task-8tuj",NA,38483763,11311607,NA,"complete",NA,"computer","Desktop or Laptop","Windows 10","Chrome 126.0.0.0","1280x720","1280x559",NA,NA,0,"Task Introduction and Instructions (re-introduce video and audio) (Clone) (Clone)",3,"CDBEAFIGH","Passed AC2","","Spreadsheet1","Spreadsheet1",1,"Task Instructions","Screen 4","spepx9",2,"continue","",14711.5,14694.9,14711.5,14711.5,14694.9,14711.5,1,14711.5,0,0,NA,"Click To Continue","Continue Button",2,"object-9","Task Instructions",NA,"SUPLCM79155"
"4",1719321278470,"25/06/2024 13:14:38",1719324878470,1,"25/06/2024 15:14:38",180348,2,"task-8tuj",NA,38483763,11311607,NA,"complete",NA,"computer","Desktop or Laptop","Windows 10","Chrome 126.0.0.0","1280x720","1280x559",NA,NA,0,"Task Introduction and Instructions (re-introduce video and audio) (Clone) (Clone)",3,"CDBEAFIGH","Passed AC2","","Spreadsheet1","Spreadsheet1",1,"Task Instructions","Screen 2","ce2tc8",3,"continue","",12760.5000000179,12745.8,12760.5000000179,12760.5000000179,12745.8,12760.5000000179,1,12760.5000000179,0,0,NA,"Click To Continue","Continue Button",3,"object-59","Task Instructions",NA,"SUPLCM79155"
"5",1719321287463,"25/06/2024 13:14:47",1719324887463,1,"25/06/2024 15:14:47",180348,2,"task-8tuj",NA,38483763,11311607,NA,"complete",NA,"computer","Desktop or Laptop","Windows 10","Chrome 126.0.0.0","1280x720","1280x559",NA,NA,0,"Task Introduction and Instructions (re-introduce video and audio) (Clone) (Clone)",3,"CDBEAFIGH","Passed AC2","","Spreadsheet1","Spreadsheet1",1,"Task Instructions","Screen 3","1qtc8v",4,"continue","",9006.70000001788,8997.2,9006.70000001788,9006.70000001788,8997.2,9006.70000001788,1,9006.70000001788,0,0,NA,"Click To Continue","Continue Button",2,"object-2983","Task Instructions",NA,"SUPLCM79155"
"6",1719321296819,"25/06/2024 13:14:56",1719324896819,1,"25/06/2024 15:14:56",180348,2,"task-8tuj",NA,38483763,11311607,NA,"complete",NA,"computer","Desktop or Laptop","Windows 10","Chrome 126.0.0.0","1280x720","1280x559",NA,NA,0,"Task Introduction and Instructions (re-introduce video and audio) (Clone) (Clone)",3,"CDBEAFIGH","Passed AC2","","Spreadsheet1","Spreadsheet1",1,"Task Instructions","Screen 12","1a4vu2",5,"continue","",9366.3,9363.3,9366.3,9366.3,9363.3,9366.3,1,9366.3,0,0,NA,"Click To Continue","Continue Button",2,"object-2466","Task Instructions",NA,"SUPLCM79155"
"7",1719321303543,"25/06/2024 13:15:03",1719324903543,1,"25/06/2024 15:15:03",180348,2,"task-8tuj",NA,38483763,11311607,NA,"complete",NA,"computer","Desktop or Laptop","Windows 10","Chrome 126.0.0.0","1280x720","1280x559",NA,NA,0,"Task Introduction and Instructions (re-introduce video and audio) (Clone) (Clone)",3,"CDBEAFIGH","Passed AC2","","Spreadsheet1","Spreadsheet1",1,"Task Instructions","Screen 13","q9vwda",6,"continue","",6727,6714.6,6727,6727,6714.6,6727,1,6727,0,0,NA,"Click To Continue","Continue Button",2,"object-2989","Task Instructions",NA,"SUPLCM79155"
"8",1719321307569,"25/06/2024 13:15:07",1719324907569,1,"25/06/2024 15:15:07",180348,2,"task-8tuj",NA,38483763,11311607,NA,"complete",NA,"computer","Desktop or Laptop","Windows 10","Chrome 126.0.0.0","1280x720","1280x559",NA,NA,0,"Task Introduction and Instructions (re-introduce video and audio) (Clone) (Clone)",3,"CDBEAFIGH","Passed AC2","","Spreadsheet1","Spreadsheet1",1,"Task Instructions","Screen 11","oyulb7",7,"continue","",4038.20000001192,4031.9,4038.20000001192,4038.20000001192,4031.9,4038.20000001192,1,4038.20000001192,0,0,NA,"Click To Continue","Continue Button",2,"object-52","Task Instructions",NA,"SUPLCM79155"
"9",1719321310518,"25/06/2024 13:15:10",1719324910518,1,"25/06/2024 15:15:10",180348,2,"task-8tuj",NA,38483763,11311607,NA,"complete",NA,"computer","Desktop or Laptop","Windows 10","Chrome 126.0.0.0","1280x720","1280x559",NA,NA,0,"Task Introduction and Instructions (re-introduce video and audio) (Clone) (Clone)",3,"CDBEAFIGH","Passed AC2","","Spreadsheet1","Spreadsheet1",1,"Task Instructions","Screen 5","8nvnao",8,"continue","",2954.70000001788,2949,2954.70000001788,2954.70000001788,2949,2954.70000001788,1,2954.70000001788,0,0,NA,"Click To Continue","Continue Button",2,"object-44","Task Instructions",NA,"SUPLCM79155"
"10",1719321310522,"25/06/2024 13:15:10",1719324910522,1,"25/06/2024 15:15:10",180348,2,"task-8tuj",NA,38483763,11311607,NA,"complete",NA,"computer","Desktop or Laptop","Windows 10","Chrome 126.0.0.0","1280x720","1280x559",NA,NA,0,"Task Introduction and Instructions (re-introduce video and audio) (Clone) (Clone)",3,"CDBEAFIGH","Passed AC2","","Spreadsheet1","Spreadsheet1",NA,"","","",NA,"info","END",NA,NA,NA,NA,NA,NA,0,NA,NA,NA,NA,"","",NA,"","",NA,"SUPLCM79155"
"1",1722352284138,"30/07/2024 15:11:24",1722355884138,1,"30/07/2024 17:11:24",180348,2,"task-8tuj",NA,39281073,11519698,NA,"complete",NA,"computer","Desktop or Laptop","Windows 10","Chrome 127.0.0.0","1536x960","1536x825",NA,NA,0,"Task Introduction and Instructions (re-introduce video and audio) (Clone) (Clone)",3,"FGEHDICAB","Passed AC2","","Spreadsheet1","Spreadsheet1",NA,"","","",NA,"info","BEGIN",NA,NA,NA,NA,NA,NA,0,NA,NA,NA,NA,"","",NA,"","",NA,"SUPLCM14738"
"2",1722352287684,"30/07/2024 15:11:27",1722355887684,1,"30/07/2024 17:11:27",180348,2,"task-8tuj",NA,39281073,11519698,NA,"complete",NA,"computer","Desktop or Laptop","Windows 10","Chrome 127.0.0.0","1536x960","1536x825",NA,NA,0,"Task Introduction and Instructions (re-introduce video and audio) (Clone) (Clone)",3,"FGEHDICAB","Passed AC2","","Spreadsheet1","Spreadsheet1",1,"Task Instructions","Screen 1","anr7sn",1,"continue","",3416.5,3399.9,3416.5,3416.5,3399.9,3416.5,1,3416.5,0,0,NA,"Click To Continue","Continue Button",3,"object-60","Task Instructions",NA,"SUPLCM14738"
"3",1722352290465,"30/07/2024 15:11:30",1722355890465,1,"30/07/2024 17:11:30",180348,2,"task-8tuj",NA,39281073,11519698,NA,"complete",NA,"computer","Desktop or Laptop","Windows 10","Chrome 127.0.0.0","1536x960","1536x825",NA,NA,0,"Task Introduction and Instructions (re-introduce video and audio) (Clone) (Clone)",3,"FGEHDICAB","Passed AC2","","Spreadsheet1","Spreadsheet1",1,"Task Instructions","Screen 4","spepx9",2,"continue","",2798.40000004768,2783.3,2798.40000004768,2798.40000004768,2783.3,2798.40000004768,1,2798.40000004768,0,0,NA,"Click To Continue","Continue Button",2,"object-9","Task Instructions",NA,"SUPLCM14738"
"4",1722352306230,"30/07/2024 15:11:46",1722355906230,1,"30/07/2024 17:11:46",180348,2,"task-8tuj",NA,39281073,11519698,NA,"complete",NA,"computer","Desktop or Laptop","Windows 10","Chrome 127.0.0.0","1536x960","1536x825",NA,NA,0,"Task Introduction and Instructions (re-introduce video and audio) (Clone) (Clone)",3,"FGEHDICAB","Passed AC2","","Spreadsheet1","Spreadsheet1",1,"Task Instructions","Screen 2","ce2tc8",3,"continue","",15779.6000000477,15766.3,15779.6000000477,15779.6000000477,15766.3,15779.6000000477,1,15779.6000000477,0,0,NA,"Click To Continue","Continue Button",3,"object-59","Task Instructions",NA,"SUPLCM14738"
"5",1722352316112,"30/07/2024 15:11:56",1722355916112,1,"30/07/2024 17:11:56",180348,2,"task-8tuj",NA,39281073,11519698,NA,"complete",NA,"computer","Desktop or Laptop","Windows 10","Chrome 127.0.0.0","1536x960","1536x825",NA,NA,0,"Task Introduction and Instructions (re-introduce video and audio) (Clone) (Clone)",3,"FGEHDICAB","Passed AC2","","Spreadsheet1","Spreadsheet1",1,"Task Instructions","Screen 3","1qtc8v",4,"continue","",9895.30000004768,9883,9895.30000004768,9895.30000004768,9883,9895.30000004768,1,9895.30000004768,0,0,NA,"Click To Continue","Continue Button",2,"object-2983","Task Instructions",NA,"SUPLCM14738"
"6",1722352325919,"30/07/2024 15:12:05",1722355925919,1,"30/07/2024 17:12:05",180348,2,"task-8tuj",NA,39281073,11519698,NA,"complete",NA,"computer","Desktop or Laptop","Windows 10","Chrome 127.0.0.0","1536x960","1536x825",NA,NA,0,"Task Introduction and Instructions (re-introduce video and audio) (Clone) (Clone)",3,"FGEHDICAB","Passed AC2","","Spreadsheet1","Spreadsheet1",1,"Task Instructions","Screen 12","1a4vu2",5,"continue","",9819.50000009537,9816.5,9819.50000009537,9819.50000009537,9816.5,9819.50000009537,1,9819.50000009537,0,0,NA,"Click To Continue","Continue Button",2,"object-2466","Task Instructions",NA,"SUPLCM14738"
"7",1722352330639,"30/07/2024 15:12:10",1722355930639,1,"30/07/2024 17:12:10",180348,2,"task-8tuj",NA,39281073,11519698,NA,"complete",NA,"computer","Desktop or Laptop","Windows 10","Chrome 127.0.0.0","1536x960","1536x825",NA,NA,0,"Task Introduction and Instructions (re-introduce video and audio) (Clone) (Clone)",3,"FGEHDICAB","Passed AC2","","Spreadsheet1","Spreadsheet1",1,"Task Instructions","Screen 13","q9vwda",6,"continue","",4723.20000002384,4716.4,4723.20000002384,4723.20000002384,4716.4,4723.20000002384,1,4723.20000002384,0,0,NA,"Click To Continue","Continue Button",2,"object-2989","Task Instructions",NA,"SUPLCM14738"
"8",1722352333478,"30/07/2024 15:12:13",1722355933478,1,"30/07/2024 17:12:13",180348,2,"task-8tuj",NA,39281073,11519698,NA,"complete",NA,"computer","Desktop or Laptop","Windows 10","Chrome 127.0.0.0","1536x960","1536x825",NA,NA,0,"Task Introduction and Instructions (re-introduce video and audio) (Clone) (Clone)",3,"FGEHDICAB","Passed AC2","","Spreadsheet1","Spreadsheet1",1,"Task Instructions","Screen 11","oyulb7",7,"continue","",2845.50000007152,2833.39999999999,2845.50000007152,2845.50000007152,2833.39999999999,2845.50000007152,1,2845.50000007152,0,0,NA,"Click To Continue","Continue Button",2,"object-52","Task Instructions",NA,"SUPLCM14738"
"9",1722352336679,"30/07/2024 15:12:16",1722355936679,1,"30/07/2024 17:12:16",180348,2,"task-8tuj",NA,39281073,11519698,NA,"complete",NA,"computer","Desktop or Laptop","Windows 10","Chrome 127.0.0.0","1536x960","1536x825",NA,NA,0,"Task Introduction and Instructions (re-introduce video and audio) (Clone) (Clone)",3,"FGEHDICAB","Passed AC2","","Spreadsheet1","Spreadsheet1",1,"Task Instructions","Screen 5","8nvnao",8,"continue","",3213.10000007153,3200.10000000001,3213.10000007153,3213.10000007153,3200.10000000001,3213.10000007153,1,3213.10000007153,0,0,NA,"Click To Continue","Continue Button",2,"object-44","Task Instructions",NA,"SUPLCM14738"
"10",1722352336682,"30/07/2024 15:12:16",1722355936682,1,"30/07/2024 17:12:16",180348,2,"task-8tuj",NA,39281073,11519698,NA,"complete",NA,"computer","Desktop or Laptop","Windows 10","Chrome 127.0.0.0","1536x960","1536x825",NA,NA,0,"Task Introduction and Instructions (re-introduce video and audio) (Clone) (Clone)",3,"FGEHDICAB","Passed AC2","","Spreadsheet1","Spreadsheet1",NA,"","","",NA,"info","END",NA,NA,NA,NA,NA,NA,0,NA,NA,NA,NA,"","",NA,"","",NA,"SUPLCM14738"
"1",1722438701056,"31/07/2024 15:11:41",1722467501056,8,"01/08/2024 07:11:41",180348,2,"task-8tuj",NA,39300736,11525359,NA,"complete",NA,"computer","Desktop or Laptop","Mac OS 10.15.7","Chrome 127.0.0.0","1440x900","1440x779",NA,NA,0,"Task Introduction and Instructions (re-introduce video and audio) (Clone) (Clone)",3,"GHFIEADBC","Passed AC2","","Spreadsheet1","Spreadsheet1",NA,"","","",NA,"info","BEGIN",NA,NA,NA,NA,NA,NA,0,NA,NA,NA,NA,"","",NA,"","",NA,"SUPLCM81666"
"2",1722438704890,"31/07/2024 15:11:44",1722467504890,8,"01/08/2024 07:11:44",180348,2,"task-8tuj",NA,39300736,11525359,NA,"complete",NA,"computer","Desktop or Laptop","Mac OS 10.15.7","Chrome 127.0.0.0","1440x900","1440x779",NA,NA,0,"Task Introduction and Instructions (re-introduce video and audio) (Clone) (Clone)",3,"GHFIEADBC","Passed AC2","","Spreadsheet1","Spreadsheet1",1,"Task Instructions","Screen 1","anr7sn",1,"continue","",3772.80000000037,3766.7,3772.80000000037,3772.80000000037,3766.7,3772.80000000037,1,3772.80000000037,0,0,NA,"Click To Continue","Continue Button",3,"object-60","Task Instructions",NA,"SUPLCM81666"
"3",1722438707509,"31/07/2024 15:11:47",1722467507509,8,"01/08/2024 07:11:47",180348,2,"task-8tuj",NA,39300736,11525359,NA,"complete",NA,"computer","Desktop or Laptop","Mac OS 10.15.7","Chrome 127.0.0.0","1440x900","1440x779",NA,NA,0,"Task Introduction and Instructions (re-introduce video and audio) (Clone) (Clone)",3,"GHFIEADBC","Passed AC2","","Spreadsheet1","Spreadsheet1",1,"Task Instructions","Screen 4","spepx9",2,"continue","",2625.90000000112,2616.7,2625.90000000112,2625.90000000112,2616.7,2625.90000000112,1,2625.90000000112,0,0,NA,"Click To Continue","Continue Button",2,"object-9","Task Instructions",NA,"SUPLCM81666"
"4",1722438721112,"31/07/2024 15:12:01",1722467521112,8,"01/08/2024 07:12:01",180348,2,"task-8tuj",NA,39300736,11525359,NA,"complete",NA,"computer","Desktop or Laptop","Mac OS 10.15.7","Chrome 127.0.0.0","1440x900","1440x779",NA,NA,0,"Task Introduction and Instructions (re-introduce video and audio) (Clone) (Clone)",3,"GHFIEADBC","Passed AC2","","Spreadsheet1","Spreadsheet1",1,"Task Instructions","Screen 2","ce2tc8",3,"continue","",13611.9000000004,13600,13611.9000000004,13611.9000000004,13600,13611.9000000004,1,13611.9000000004,0,0,NA,"Click To Continue","Continue Button",3,"object-59","Task Instructions",NA,"SUPLCM81666"
"5",1722438732214,"31/07/2024 15:12:12",1722467532214,8,"01/08/2024 07:12:12",180348,2,"task-8tuj",NA,39300736,11525359,NA,"complete",NA,"computer","Desktop or Laptop","Mac OS 10.15.7","Chrome 127.0.0.0","1440x900","1440x779",NA,NA,0,"Task Introduction and Instructions (re-introduce video and audio) (Clone) (Clone)",3,"GHFIEADBC","Passed AC2","","Spreadsheet1","Spreadsheet1",1,"Task Instructions","Screen 3","1qtc8v",4,"continue","",11114.3000000007,11100.1,11114.3000000007,11114.3000000007,11100.1,11114.3000000007,1,11114.3000000007,0,0,NA,"Click To Continue","Continue Button",2,"object-2983","Task Instructions",NA,"SUPLCM81666"
"6",1722438740832,"31/07/2024 15:12:20",1722467540832,8,"01/08/2024 07:12:20",180348,2,"task-8tuj",NA,39300736,11525359,NA,"complete",NA,"computer","Desktop or Laptop","Mac OS 10.15.7","Chrome 127.0.0.0","1440x900","1440x779",NA,NA,0,"Task Introduction and Instructions (re-introduce video and audio) (Clone) (Clone)",3,"GHFIEADBC","Passed AC2","","Spreadsheet1","Spreadsheet1",1,"Task Instructions","Screen 12","1a4vu2",5,"continue","",8631.70000000075,8616.7,8631.70000000075,8631.70000000075,8616.7,8631.70000000075,1,8631.70000000075,0,0,NA,"Click To Continue","Continue Button",2,"object-2466","Task Instructions",NA,"SUPLCM81666"
"7",1722438745738,"31/07/2024 15:12:25",1722467545738,8,"01/08/2024 07:12:25",180348,2,"task-8tuj",NA,39300736,11525359,NA,"complete",NA,"computer","Desktop or Laptop","Mac OS 10.15.7","Chrome 127.0.0.0","1440x900","1440x779",NA,NA,0,"Task Introduction and Instructions (re-introduce video and audio) (Clone) (Clone)",3,"GHFIEADBC","Passed AC2","","Spreadsheet1","Spreadsheet1",1,"Task Instructions","Screen 13","q9vwda",6,"continue","",4920.90000000111,4915.7,4920.90000000111,4920.90000000111,4915.7,4920.90000000111,1,4920.90000000111,0,0,NA,"Click To Continue","Continue Button",2,"object-2989","Task Instructions",NA,"SUPLCM81666"
"8",1722438748921,"31/07/2024 15:12:28",1722467548921,8,"01/08/2024 07:12:28",180348,2,"task-8tuj",NA,39300736,11525359,NA,"complete",NA,"computer","Desktop or Laptop","Mac OS 10.15.7","Chrome 127.0.0.0","1440x900","1440x779",NA,NA,0,"Task Introduction and Instructions (re-introduce video and audio) (Clone) (Clone)",3,"GHFIEADBC","Passed AC2","","Spreadsheet1","Spreadsheet1",1,"Task Instructions","Screen 11","oyulb7",7,"continue","",3188.40000000037,3183.4,3188.40000000037,3188.40000000037,3183.4,3188.40000000037,1,3188.40000000037,0,0,NA,"Click To Continue","Continue Button",2,"object-52","Task Instructions",NA,"SUPLCM81666"
"9",1722438751666,"31/07/2024 15:12:31",1722467551666,8,"01/08/2024 07:12:31",180348,2,"task-8tuj",NA,39300736,11525359,NA,"complete",NA,"computer","Desktop or Laptop","Mac OS 10.15.7","Chrome 127.0.0.0","1440x900","1440x779",NA,NA,0,"Task Introduction and Instructions (re-introduce video and audio) (Clone) (Clone)",3,"GHFIEADBC","Passed AC2","","Spreadsheet1","Spreadsheet1",1,"Task Instructions","Screen 5","8nvnao",8,"continue","",2749.99999999999,2733.8,2749.99999999999,2749.99999999999,2733.8,2749.99999999999,1,2749.99999999999,0,0,NA,"Click To Continue","Continue Button",2,"object-44","Task Instructions",NA,"SUPLCM81666"
"10",1722438751669,"31/07/2024 15:12:31",1722467551669,8,"01/08/2024 07:12:31",180348,2,"task-8tuj",NA,39300736,11525359,NA,"complete",NA,"computer","Desktop or Laptop","Mac OS 10.15.7","Chrome 127.0.0.0","1440x900","1440x779",NA,NA,0,"Task Introduction and Instructions (re-introduce video and audio) (Clone) (Clone)",3,"GHFIEADBC","Passed AC2","","Spreadsheet1","Spreadsheet1",NA,"","","",NA,"info","END",NA,NA,NA,NA,NA,NA,0,NA,NA,NA,NA,"","",NA,"","",NA,"SUPLCM81666"
"1",1722957588322,"06/08/2024 15:19:48",1722943188322,-4,"06/08/2024 07:19:48",180348,2,"task-8tuj",NA,39411113,11551348,NA,"complete",NA,"computer","Desktop or Laptop","Mac OS 10.15.7","Chrome 126.0.0.0","1440x900","1440x701",NA,NA,0,"Task Introduction and Instructions (re-introduce video and audio) (Clone) (Clone)",3,"HIGAFBECD","Passed AC2","","Spreadsheet1","Spreadsheet1",NA,"","","",NA,"info","BEGIN",NA,NA,NA,NA,NA,NA,0,NA,NA,NA,NA,"","",NA,"","",NA,"SUPLCM41800"
"2",1722957595879,"06/08/2024 15:19:55",1722943195879,-4,"06/08/2024 07:19:55",180348,2,"task-8tuj",NA,39411113,11551348,NA,"complete",NA,"computer","Desktop or Laptop","Mac OS 10.15.7","Chrome 126.0.0.0","1440x900","1440x701",NA,NA,0,"Task Introduction and Instructions (re-introduce video and audio) (Clone) (Clone)",3,"HIGAFBECD","Passed AC2","","Spreadsheet1","Spreadsheet1",1,"Task Instructions","Screen 1","anr7sn",1,"continue","",7032.5,7017.5,7032.5,7032.5,7017.5,7032.5,1,7032.5,0,0,NA,"Click To Continue","Continue Button",3,"object-60","Task Instructions",NA,"SUPLCM41800"
"3",1722957598729,"06/08/2024 15:19:58",1722943198729,-4,"06/08/2024 07:19:58",180348,2,"task-8tuj",NA,39411113,11551348,NA,"complete",NA,"computer","Desktop or Laptop","Mac OS 10.15.7","Chrome 126.0.0.0","1440x900","1440x701",NA,NA,0,"Task Introduction and Instructions (re-introduce video and audio) (Clone) (Clone)",3,"HIGAFBECD","Passed AC2","","Spreadsheet1","Spreadsheet1",1,"Task Instructions","Screen 4","spepx9",2,"continue","",2864.80000001192,2850.3,2864.80000001192,2864.80000001192,2850.3,2864.80000001192,1,2864.80000001192,0,0,NA,"Click To Continue","Continue Button",2,"object-9","Task Instructions",NA,"SUPLCM41800"
"4",1722957610762,"06/08/2024 15:20:10",1722943210762,-4,"06/08/2024 07:20:10",180348,2,"task-8tuj",NA,39411113,11551348,NA,"complete",NA,"computer","Desktop or Laptop","Mac OS 10.15.7","Chrome 126.0.0.0","1440x900","1440x701",NA,NA,0,"Task Introduction and Instructions (re-introduce video and audio) (Clone) (Clone)",3,"HIGAFBECD","Passed AC2","","Spreadsheet1","Spreadsheet1",1,"Task Instructions","Screen 2","ce2tc8",3,"continue","",12048.5000000119,12033.5,12048.5000000119,12048.5000000119,12033.5,12048.5000000119,1,12048.5000000119,0,0,NA,"Click To Continue","Continue Button",3,"object-59","Task Instructions",NA,"SUPLCM41800"
"5",1722957618562,"06/08/2024 15:20:18",1722943218562,-4,"06/08/2024 07:20:18",180348,2,"task-8tuj",NA,39411113,11551348,NA,"complete",NA,"computer","Desktop or Laptop","Mac OS 10.15.7","Chrome 126.0.0.0","1440x900","1440x701",NA,NA,0,"Task Introduction and Instructions (re-introduce video and audio) (Clone) (Clone)",3,"HIGAFBECD","Passed AC2","","Spreadsheet1","Spreadsheet1",1,"Task Instructions","Screen 3","1qtc8v",4,"continue","",7814.7,7800.1,7814.7,7814.7,7800.1,7814.7,1,7814.7,0,0,NA,"Click To Continue","Continue Button",2,"object-2983","Task Instructions",NA,"SUPLCM41800"
"6",1722957624462,"06/08/2024 15:20:24",1722943224462,-4,"06/08/2024 07:20:24",180348,2,"task-8tuj",NA,39411113,11551348,NA,"complete",NA,"computer","Desktop or Laptop","Mac OS 10.15.7","Chrome 126.0.0.0","1440x900","1440x701",NA,NA,0,"Task Introduction and Instructions (re-introduce video and audio) (Clone) (Clone)",3,"HIGAFBECD","Passed AC2","","Spreadsheet1","Spreadsheet1",1,"Task Instructions","Screen 12","1a4vu2",5,"continue","",5915.1,5900.1,5915.1,5915.1,5900.1,5915.1,1,5915.1,0,0,NA,"Click To Continue","Continue Button",2,"object-2466","Task Instructions",NA,"SUPLCM41800"
"7",1722957630328,"06/08/2024 15:20:30",1722943230328,-4,"06/08/2024 07:20:30",180348,2,"task-8tuj",NA,39411113,11551348,NA,"complete",NA,"computer","Desktop or Laptop","Mac OS 10.15.7","Chrome 126.0.0.0","1440x900","1440x701",NA,NA,0,"Task Introduction and Instructions (re-introduce video and audio) (Clone) (Clone)",3,"HIGAFBECD","Passed AC2","","Spreadsheet1","Spreadsheet1",1,"Task Instructions","Screen 13","q9vwda",6,"continue","",5880.40000000596,5866.8,5880.40000000596,5880.40000000596,5866.8,5880.40000000596,1,5880.40000000596,0,0,NA,"Click To Continue","Continue Button",2,"object-2989","Task Instructions",NA,"SUPLCM41800"
"8",1722957633880,"06/08/2024 15:20:33",1722943233880,-4,"06/08/2024 07:20:33",180348,2,"task-8tuj",NA,39411113,11551348,NA,"complete",NA,"computer","Desktop or Laptop","Mac OS 10.15.7","Chrome 126.0.0.0","1440x900","1440x701",NA,NA,0,"Task Introduction and Instructions (re-introduce video and audio) (Clone) (Clone)",3,"HIGAFBECD","Passed AC2","","Spreadsheet1","Spreadsheet1",1,"Task Instructions","Screen 11","oyulb7",7,"continue","",3565.40000000298,3550,3565.40000000298,3565.40000000298,3550,3565.40000000298,1,3565.40000000298,0,0,NA,"Click To Continue","Continue Button",2,"object-52","Task Instructions",NA,"SUPLCM41800"
"9",1722957637045,"06/08/2024 15:20:37",1722943237045,-4,"06/08/2024 07:20:37",180348,2,"task-8tuj",NA,39411113,11551348,NA,"complete",NA,"computer","Desktop or Laptop","Mac OS 10.15.7","Chrome 126.0.0.0","1440x900","1440x701",NA,NA,0,"Task Introduction and Instructions (re-introduce video and audio) (Clone) (Clone)",3,"HIGAFBECD","Passed AC2","","Spreadsheet1","Spreadsheet1",1,"Task Instructions","Screen 5","8nvnao",8,"continue","",3181.2,3166.7,3181.2,3181.2,3166.7,3181.2,1,3181.2,0,0,NA,"Click To Continue","Continue Button",2,"object-44","Task Instructions",NA,"SUPLCM41800"
"10",1722957637050,"06/08/2024 15:20:37",1722943237050,-4,"06/08/2024 07:20:37",180348,2,"task-8tuj",NA,39411113,11551348,NA,"complete",NA,"computer","Desktop or Laptop","Mac OS 10.15.7","Chrome 126.0.0.0","1440x900","1440x701",NA,NA,0,"Task Introduction and Instructions (re-introduce video and audio) (Clone) (Clone)",3,"HIGAFBECD","Passed AC2","","Spreadsheet1","Spreadsheet1",NA,"","","",NA,"info","END",NA,NA,NA,NA,NA,NA,0,NA,NA,NA,NA,"","",NA,"","",NA,"SUPLCM41800"
"1",1723458133422,"12/08/2024 10:22:13",1723461733422,1,"12/08/2024 12:22:13",180348,2,"task-8tuj",NA,39511798,11571362,NA,"complete",NA,"computer","Desktop or Laptop","Mac OS 10.15.7","Chrome 127.0.0.0","1440x900","1440x813",NA,NA,0,"Task Introduction and Instructions (re-introduce video and audio) (Clone) (Clone)",3,"ABICHDGEF","Passed AC2","","Spreadsheet1","Spreadsheet1",NA,"","","",NA,"info","BEGIN",NA,NA,NA,NA,NA,NA,0,NA,NA,NA,NA,"","",NA,"","",NA,"SUPLCM12782"
"2",1723458138545,"12/08/2024 10:22:18",1723461738545,1,"12/08/2024 12:22:18",180348,2,"task-8tuj",NA,39511798,11571362,NA,"complete",NA,"computer","Desktop or Laptop","Mac OS 10.15.7","Chrome 127.0.0.0","1440x900","1440x813",NA,NA,0,"Task Introduction and Instructions (re-introduce video and audio) (Clone) (Clone)",3,"ABICHDGEF","Passed AC2","","Spreadsheet1","Spreadsheet1",1,"Task Instructions","Screen 1","anr7sn",1,"continue","",5033.5,5016.8,5033.5,5033.5,5016.8,5033.5,1,5033.5,0,0,NA,"Click To Continue","Continue Button",3,"object-60","Task Instructions",NA,"SUPLCM12782"
"3",1723458141897,"12/08/2024 10:22:21",1723461741897,1,"12/08/2024 12:22:21",180348,2,"task-8tuj",NA,39511798,11571362,NA,"complete",NA,"computer","Desktop or Laptop","Mac OS 10.15.7","Chrome 127.0.0.0","1440x900","1440x813",NA,NA,0,"Task Introduction and Instructions (re-introduce video and audio) (Clone) (Clone)",3,"ABICHDGEF","Passed AC2","","Spreadsheet1","Spreadsheet1",1,"Task Instructions","Screen 4","spepx9",2,"continue","",3370.4,3366.7,3370.4,3370.4,3366.7,3370.4,1,3370.4,0,0,NA,"Click To Continue","Continue Button",2,"object-9","Task Instructions",NA,"SUPLCM12782"
"4",1723458174036,"12/08/2024 10:22:54",1723461774036,1,"12/08/2024 12:22:54",180348,2,"task-8tuj",NA,39511798,11571362,NA,"complete",NA,"computer","Desktop or Laptop","Mac OS 10.15.7","Chrome 127.0.0.0","1440x900","1440x813",NA,NA,0,"Task Introduction and Instructions (re-introduce video and audio) (Clone) (Clone)",3,"ABICHDGEF","Passed AC2","","Spreadsheet1","Spreadsheet1",1,"Task Instructions","Screen 2","ce2tc8",3,"continue","",32143.3999999881,32133.6,32143.3999999881,32143.3999999881,32133.6,32143.3999999881,1,32143.3999999881,0,0,NA,"Click To Continue","Continue Button",3,"object-59","Task Instructions",NA,"SUPLCM12782"
"5",1723458187581,"12/08/2024 10:23:07",1723461787581,1,"12/08/2024 12:23:07",180348,2,"task-8tuj",NA,39511798,11571362,NA,"complete",NA,"computer","Desktop or Laptop","Mac OS 10.15.7","Chrome 127.0.0.0","1440x900","1440x813",NA,NA,0,"Task Introduction and Instructions (re-introduce video and audio) (Clone) (Clone)",3,"ABICHDGEF","Passed AC2","","Spreadsheet1","Spreadsheet1",1,"Task Instructions","Screen 3","1qtc8v",4,"continue","",13554.9000000119,13550.4,13554.9000000119,13554.9000000119,13550.4,13554.9000000119,1,13554.9000000119,0,0,NA,"Click To Continue","Continue Button",2,"object-2983","Task Instructions",NA,"SUPLCM12782"
