"Event.Index","UTC.Timestamp","UTC.Date.and.Time","Local.Timestamp","Local.Timezone","Local.Date.and.Time","Experiment.ID","Experiment.Version","Tree.Node.Key","Repeat.Key","Schedule.ID","Participant.Starting.Group","Participant.Status","Participant.Completion.Code","Participant.Device.Type","Participant.Device","Participant.OS","Participant.Browser","Participant.Monitor.Size","Participant.Viewport.Size","Checkpoint","Room.ID","Room.Order","Task.Name","Task.Version","order.ot79","branch.g31k","branch.5gtn","Spreadsheet","Current.Spreadsheet","Trial.Number","Display","Screen","Screen.ID","Screen.Counter","Response.Type","Response","Onset.Time","Clock.Time","Reaction.Time","Absolute.Onset.Time","Absolute.Clock.Time","Absolute.Reaction.Time","Correct","Response.Onset","Response.Duration","Proportion","Tag","Component.Name","Object.Name","Object.Number","Object.ID","Spreadsheet..display","Manipulation..Spreadsheet","Random_ID"
1,1717679923735,"06/06/2024 13:18:43",1717683523735,1,"06/06/2024 15:18:43",180921,1,"task-7hcp",NA,38087968,NA,"complete",NA,"computer","Desktop or Laptop","Chromium OS 14541.0.0","Chrome 124.0.0.0","1366x768","1366x647",NA,NA,0,"BIQ (Charlotte)",5,"ABICHDGEF","Passed AC2",NA,"Spreadsheet1","Spreadsheet1",NA,"","","",NA,"info","BEGIN",NA,NA,NA,NA,NA,NA,0,NA,NA,NA,NA,"","",NA,"","",NA,"SUPPRF73571"
2,1717679963258,"06/06/2024 13:19:23",1717683563258,1,"06/06/2024 15:19:23",180921,1,"task-7hcp",NA,38087968,NA,"complete",NA,"computer","Desktop or Laptop","Chromium OS 14541.0.0","Chrome 124.0.0.0","1366x768","1366x647",NA,NA,0,"BIQ (Charlotte)",5,"ABICHDGEF","Passed AC2",NA,"Spreadsheet1","Spreadsheet1",1,"BIQ","Screen 1","9dh6eq",1,"continue","",39544.072,39510.772,39544.072,39544.072,39510.772,39544.072,1,39544.072,0,0,NA,"Click To Continue","Continue Button",16,"object-48","BIQ",NA,"SUPPRF73571"
3,1717679963262,"06/06/2024 13:19:23",1717683563262,1,"06/06/2024 15:19:23",180921,1,"task-7hcp",NA,38087968,NA,"complete",NA,"computer","Desktop or Laptop","Chromium OS 14541.0.0","Chrome 124.0.0.0","1366x768","1366x647",NA,NA,0,"BIQ (Charlotte)",5,"ABICHDGEF","Passed AC2",NA,"Spreadsheet1","Spreadsheet1",1,"BIQ","Screen 1","9dh6eq",1,"response","4",12890.972,39510.772,39544.072,12890.972,39510.772,39544.072,1,12890.972,26653.1,0,NA,"Rating Scale","Rating Scale",3,"object-5","BIQ",NA,"SUPPRF73571"
4,1717679963262,"06/06/2024 13:19:23",1717683563262,1,"06/06/2024 15:19:23",180921,1,"task-7hcp",NA,38087968,NA,"complete",NA,"computer","Desktop or Laptop","Chromium OS 14541.0.0","Chrome 124.0.0.0","1366x768","1366x647",NA,NA,0,"BIQ (Charlotte)",5,"ABICHDGEF","Passed AC2",NA,"Spreadsheet1","Spreadsheet1",1,"BIQ","Screen 1","9dh6eq",1,"response","4",27969.172,39510.772,39544.072,27969.172,39510.772,39544.072,1,27969.172,11574.9,0,NA,"Rating Scale","Rating Scale",10,"object-18","BIQ",NA,"SUPPRF73571"
5,1717679981856,"06/06/2024 13:19:41",1717683581856,1,"06/06/2024 15:19:41",180921,1,"task-7hcp",NA,38087968,NA,"complete",NA,"computer","Desktop or Laptop","Chromium OS 14541.0.0","Chrome 124.0.0.0","1366x768","1366x647",NA,NA,0,"BIQ (Charlotte)",5,"ABICHDGEF","Passed AC2",NA,"Spreadsheet1","Spreadsheet1",1,"BIQ","Screen 2","svpz34",2,"continue","",18640.000000006,18612.8,18640.000000006,18640.000000006,18612.8,18640.000000006,1,18640.000000006,0,0,NA,"Click To Continue","Continue Button",7,"object-1017","BIQ",NA,"SUPPRF73571"
6,1717679981864,"06/06/2024 13:19:41",1717683581864,1,"06/06/2024 15:19:41",180921,1,"task-7hcp",NA,38087968,NA,"complete",NA,"computer","Desktop or Laptop","Chromium OS 14541.0.0","Chrome 124.0.0.0","1366x768","1366x647",NA,NA,0,"BIQ (Charlotte)",5,"ABICHDGEF","Passed AC2",NA,"Spreadsheet1","Spreadsheet1",1,"BIQ","Screen 2","svpz34",2,"response","3",5902.5,18612.8,18646.1,5902.5,18612.8,18646.1,1,5902.5,12743.6,0,NA,"Rating Scale","Rating Scale",8,"object-118","BIQ",NA,"SUPPRF73571"
7,1717679981866,"06/06/2024 13:19:41",1717683581866,1,"06/06/2024 15:19:41",180921,1,"task-7hcp",NA,38087968,NA,"complete",NA,"computer","Desktop or Laptop","Chromium OS 14541.0.0","Chrome 124.0.0.0","1366x768","1366x647",NA,NA,0,"BIQ (Charlotte)",5,"ABICHDGEF","Passed AC2",NA,"Spreadsheet1","Spreadsheet1",1,"BIQ","Screen 2","svpz34",2,"response","7",17045,18612.8,18646.1,17045,18612.8,18646.1,1,17045,1601.09999999999,0,NA,"Rating Scale","Rating Scale",10,"object-121","BIQ",NA,"SUPPRF73571"
8,1717680000188,"06/06/2024 13:20:00",1717683600188,1,"06/06/2024 15:20:00",180921,1,"task-7hcp",NA,38087968,NA,"complete",NA,"computer","Desktop or Laptop","Chromium OS 14541.0.0","Chrome 124.0.0.0","1366x768","1366x647",NA,NA,0,"BIQ (Charlotte)",5,"ABICHDGEF","Passed AC2",NA,"Spreadsheet1","Spreadsheet1",1,"BIQ","Screen 3","o21mwi",3,"continue","",18358.6000000119,18345.9,18358.6000000119,18358.6000000119,18345.9,18358.6000000119,1,18358.6000000119,0,0,NA,"Click To Continue","Continue Button",15,"object-50","BIQ",NA,"SUPPRF73571"
9,1717680000195,"06/06/2024 13:20:00",1717683600195,1,"06/06/2024 15:20:00",180921,1,"task-7hcp",NA,38087968,NA,"complete",NA,"computer","Desktop or Laptop","Chromium OS 14541.0.0","Chrome 124.0.0.0","1366x768","1366x647",NA,NA,0,"BIQ (Charlotte)",5,"ABICHDGEF","Passed AC2",NA,"Spreadsheet1","Spreadsheet1",1,"BIQ","Screen 3","o21mwi",3,"response","2",8906.2,18345.9,18366.3,8906.2,18345.9,18366.3,1,8906.2,9460.10000000001,0,NA,"Rating Scale","Rating Scale",2,"object-36","BIQ",NA,"SUPPRF73571"
10,1717680000198,"06/06/2024 13:20:00",1717683600198,1,"06/06/2024 15:20:00",180921,1,"task-7hcp",NA,38087968,NA,"complete",NA,"computer","Desktop or Laptop","Chromium OS 14541.0.0","Chrome 124.0.0.0","1366x768","1366x647",NA,NA,0,"BIQ (Charlotte)",5,"ABICHDGEF","Passed AC2",NA,"Spreadsheet1","Spreadsheet1",1,"BIQ","Screen 3","o21mwi",3,"response","2",13208.5,18345.9,18368.4000000089,13208.5,18345.9,18368.4000000089,1,13208.5,5159.90000000894,0,NA,"Rating Scale","Rating Scale",9,"object-86","BIQ",NA,"SUPPRF73571"
11,1717680019126,"06/06/2024 13:20:19",1717683619126,1,"06/06/2024 15:20:19",180921,1,"task-7hcp",NA,38087968,NA,"complete",NA,"computer","Desktop or Laptop","Chromium OS 14541.0.0","Chrome 124.0.0.0","1366x768","1366x647",NA,NA,0,"BIQ (Charlotte)",5,"ABICHDGEF","Passed AC2",NA,"Spreadsheet1","Spreadsheet1",1,"BIQ","Screen 4","iz3the",4,"continue","",18950.100000003,18945.8,18950.100000003,18950.100000003,18945.8,18950.100000003,1,18950.100000003,0,0,NA,"Click To Continue","Continue Button",22,"object-73","BIQ",NA,"SUPPRF73571"
12,1717680019134,"06/06/2024 13:20:19",1717683619134,1,"06/06/2024 15:20:19",180921,1,"task-7hcp",NA,38087968,NA,"complete",NA,"computer","Desktop or Laptop","Chromium OS 14541.0.0","Chrome 124.0.0.0","1366x768","1366x647",NA,NA,0,"BIQ (Charlotte)",5,"ABICHDGEF","Passed AC2",NA,"Spreadsheet1","Spreadsheet1",1,"BIQ","Screen 4","iz3the",4,"response","0",5270.5,18945.8,18958.7000000119,5270.5,18945.8,18958.7000000119,1,5270.5,13688.2000000119,0,NA,"Rating Scale","Rating Scale",2,"object-53","BIQ",NA,"SUPPRF73571"
13,1717680019135,"06/06/2024 13:20:19",1717683619135,1,"06/06/2024 15:20:19",180921,1,"task-7hcp",NA,38087968,NA,"complete",NA,"computer","Desktop or Laptop","Chromium OS 14541.0.0","Chrome 124.0.0.0","1366x768","1366x647",NA,NA,0,"BIQ (Charlotte)",5,"ABICHDGEF","Passed AC2",NA,"Spreadsheet1","Spreadsheet1",1,"BIQ","Screen 4","iz3the",4,"response","3",11005.9,18945.8,18959.9,11005.9,18945.8,18959.9,1,11005.9,7954,0,NA,"Rating Scale","Rating Scale",9,"object-60","BIQ",NA,"SUPPRF73571"
14,1717680019135,"06/06/2024 13:20:19",1717683619135,1,"06/06/2024 15:20:19",180921,1,"task-7hcp",NA,38087968,NA,"complete",NA,"computer","Desktop or Laptop","Chromium OS 14541.0.0","Chrome 124.0.0.0","1366x768","1366x647",NA,NA,0,"BIQ (Charlotte)",5,"ABICHDGEF","Passed AC2",NA,"Spreadsheet1","Spreadsheet1",1,"BIQ","Screen 4","iz3the",4,"response","5",17178.6,18945.8,18960.600000003,17178.6,18945.8,18960.600000003,1,17178.6,1782.00000000298,0,NA,"Rating Scale","Rating Scale",16,"object-67","BIQ",NA,"SUPPRF73571"
15,1717680019142,"06/06/2024 13:20:19",1717683619142,1,"06/06/2024 15:20:19",180921,1,"task-7hcp",NA,38087968,NA,"complete",NA,"computer","Desktop or Laptop","Chromium OS 14541.0.0","Chrome 124.0.0.0","1366x768","1366x647",NA,NA,0,"BIQ (Charlotte)",5,"ABICHDGEF","Passed AC2",NA,"Spreadsheet1","Spreadsheet1",NA,"","","",NA,"info","END",NA,NA,NA,NA,NA,NA,0,NA,NA,NA,NA,"","",NA,"","",NA,"SUPPRF73571"
1,1717680253185,"06/06/2024 13:24:13",1717683853185,1,"06/06/2024 15:24:13",180921,1,"task-7hcp",NA,38088087,NA,"complete",NA,"computer","Desktop or Laptop","Windows 10","Chrome 125.0.0.0","1366x768","1350x631",NA,NA,0,"BIQ (Charlotte)",5,"CDBEAFIGH","Passed AC2",NA,"Spreadsheet1","Spreadsheet1",NA,"","","",NA,"info","BEGIN",NA,NA,NA,NA,NA,NA,0,NA,NA,NA,NA,"","",NA,"","",NA,"SUPPRF98714"
2,1717680271851,"06/06/2024 13:24:31",1717683871851,1,"06/06/2024 15:24:31",180921,1,"task-7hcp",NA,38088087,NA,"complete",NA,"computer","Desktop or Laptop","Windows 10","Chrome 125.0.0.0","1366x768","1350x631",NA,NA,0,"BIQ (Charlotte)",5,"CDBEAFIGH","Passed AC2",NA,"Spreadsheet1","Spreadsheet1",1,"BIQ","Screen 1","9dh6eq",1,"continue","",18688.6000000358,18681.8,18688.6000000358,18688.6000000358,18681.8,18688.6000000358,1,18688.6000000358,0,0,NA,"Click To Continue","Continue Button",16,"object-48","BIQ",NA,"SUPPRF98714"
3,1717680271854,"06/06/2024 13:24:31",1717683871854,1,"06/06/2024 15:24:31",180921,1,"task-7hcp",NA,38088087,NA,"complete",NA,"computer","Desktop or Laptop","Windows 10","Chrome 125.0.0.0","1366x768","1350x631",NA,NA,0,"BIQ (Charlotte)",5,"CDBEAFIGH","Passed AC2",NA,"Spreadsheet1","Spreadsheet1",1,"BIQ","Screen 1","9dh6eq",1,"response","6",12865.6,18681.8,18691.5000000119,12865.6,18681.8,18691.5000000119,1,12865.6,5825.90000001192,0,NA,"Rating Scale","Rating Scale",3,"object-5","BIQ",NA,"SUPPRF98714"
4,1717680271854,"06/06/2024 13:24:31",1717683871854,1,"06/06/2024 15:24:31",180921,1,"task-7hcp",NA,38088087,NA,"complete",NA,"computer","Desktop or Laptop","Windows 10","Chrome 125.0.0.0","1366x768","1350x631",NA,NA,0,"BIQ (Charlotte)",5,"CDBEAFIGH","Passed AC2",NA,"Spreadsheet1","Spreadsheet1",1,"BIQ","Screen 1","9dh6eq",1,"response","4",17981.9,18681.8,18691.8999999881,17981.9,18681.8,18691.8999999881,1,17981.9,709.999999988078,0,NA,"Rating Scale","Rating Scale",10,"object-18","BIQ",NA,"SUPPRF98714"
5,1717680284866,"06/06/2024 13:24:44",1717683884866,1,"06/06/2024 15:24:44",180921,1,"task-7hcp",NA,38088087,NA,"complete",NA,"computer","Desktop or Laptop","Windows 10","Chrome 125.0.0.0","1366x768","1350x631",NA,NA,0,"BIQ (Charlotte)",5,"CDBEAFIGH","Passed AC2",NA,"Spreadsheet1","Spreadsheet1",1,"BIQ","Screen 2","svpz34",2,"continue","",13021.7000000119,13015.8,13021.7000000119,13021.7000000119,13015.8,13021.7000000119,1,13021.7000000119,0,0,NA,"Click To Continue","Continue Button",7,"object-1017","BIQ",NA,"SUPPRF98714"
6,1717680284868,"06/06/2024 13:24:44",1717683884868,1,"06/06/2024 15:24:44",180921,1,"task-7hcp",NA,38088087,NA,"complete",NA,"computer","Desktop or Laptop","Windows 10","Chrome 125.0.0.0","1366x768","1350x631",NA,NA,0,"BIQ (Charlotte)",5,"CDBEAFIGH","Passed AC2",NA,"Spreadsheet1","Spreadsheet1",1,"BIQ","Screen 2","svpz34",2,"response","3",5499.6,13015.8,13024.3000000358,5499.6,13015.8,13024.3000000358,1,5499.6,7524.70000003576,0,NA,"Rating Scale","Rating Scale",8,"object-118","BIQ",NA,"SUPPRF98714"
7,1717680284869,"06/06/2024 13:24:44",1717683884869,1,"06/06/2024 15:24:44",180921,1,"task-7hcp",NA,38088087,NA,"complete",NA,"computer","Desktop or Laptop","Windows 10","Chrome 125.0.0.0","1366x768","1350x631",NA,NA,0,"BIQ (Charlotte)",5,"CDBEAFIGH","Passed AC2",NA,"Spreadsheet1","Spreadsheet1",1,"BIQ","Screen 2","svpz34",2,"response","2",12115.8,13015.8,13025.0000000238,12115.8,13015.8,13025.0000000238,1,12115.8,909.20000002384,0,NA,"Rating Scale","Rating Scale",10,"object-121","BIQ",NA,"SUPPRF98714"
8,1717680298466,"06/06/2024 13:24:58",1717683898466,1,"06/06/2024 15:24:58",180921,1,"task-7hcp",NA,38088087,NA,"complete",NA,"computer","Desktop or Laptop","Windows 10","Chrome 125.0.0.0","1366x768","1350x631",NA,NA,0,"BIQ (Charlotte)",5,"CDBEAFIGH","Passed AC2",NA,"Spreadsheet1","Spreadsheet1",1,"BIQ","Screen 3","o21mwi",3,"continue","",13606.0000000358,13598.9,13606.0000000358,13606.0000000358,13598.9,13606.0000000358,1,13606.0000000358,0,0,NA,"Click To Continue","Continue Button",15,"object-50","BIQ",NA,"SUPPRF98714"
9,1717680298468,"06/06/2024 13:24:58",1717683898468,1,"06/06/2024 15:24:58",180921,1,"task-7hcp",NA,38088087,NA,"complete",NA,"computer","Desktop or Laptop","Windows 10","Chrome 125.0.0.0","1366x768","1350x631",NA,NA,0,"BIQ (Charlotte)",5,"CDBEAFIGH","Passed AC2",NA,"Spreadsheet1","Spreadsheet1",1,"BIQ","Screen 3","o21mwi",3,"response","4",5582.8,13598.9,13608.2000000238,5582.8,13598.9,13608.2000000238,1,5582.8,8025.40000002384,0,NA,"Rating Scale","Rating Scale",2,"object-36","BIQ",NA,"SUPPRF98714"
10,1717680298468,"06/06/2024 13:24:58",1717683898468,1,"06/06/2024 15:24:58",180921,1,"task-7hcp",NA,38088087,NA,"complete",NA,"computer","Desktop or Laptop","Windows 10","Chrome 125.0.0.0","1366x768","1350x631",NA,NA,0,"BIQ (Charlotte)",5,"CDBEAFIGH","Passed AC2",NA,"Spreadsheet1","Spreadsheet1",1,"BIQ","Screen 3","o21mwi",3,"response","5",11815.6,13598.9,13608.7000000238,11815.6,13598.9,13608.7000000238,1,11815.6,1793.10000002384,0,NA,"Rating Scale","Rating Scale",9,"object-86","BIQ",NA,"SUPPRF98714"
11,1717680313762,"06/06/2024 13:25:13",1717683913762,1,"06/06/2024 15:25:13",180921,1,"task-7hcp",NA,38088087,NA,"complete",NA,"computer","Desktop or Laptop","Windows 10","Chrome 125.0.0.0","1366x768","1350x631",NA,NA,0,"BIQ (Charlotte)",5,"CDBEAFIGH","Passed AC2",NA,"Spreadsheet1","Spreadsheet1",1,"BIQ","Screen 4","iz3the",4,"continue","",15303.2,15298.9,15303.2,15303.2,15298.9,15303.2,1,15303.2,0,0,NA,"Click To Continue","Continue Button",22,"object-73","BIQ",NA,"SUPPRF98714"
12,1717680313764,"06/06/2024 13:25:13",1717683913764,1,"06/06/2024 15:25:13",180921,1,"task-7hcp",NA,38088087,NA,"complete",NA,"computer","Desktop or Laptop","Windows 10","Chrome 125.0.0.0","1366x768","1350x631",NA,NA,0,"BIQ (Charlotte)",5,"CDBEAFIGH","Passed AC2",NA,"Spreadsheet1","Spreadsheet1",1,"BIQ","Screen 4","iz3the",4,"response","2",8132.7,15298.9,15305.2,8132.7,15298.9,15305.2,1,8132.7,7172.5,0,NA,"Rating Scale","Rating Scale",2,"object-53","BIQ",NA,"SUPPRF98714"
13,1717680313764,"06/06/2024 13:25:13",1717683913764,1,"06/06/2024 15:25:13",180921,1,"task-7hcp",NA,38088087,NA,"complete",NA,"computer","Desktop or Laptop","Windows 10","Chrome 125.0.0.0","1366x768","1350x631",NA,NA,0,"BIQ (Charlotte)",5,"CDBEAFIGH","Passed AC2",NA,"Spreadsheet1","Spreadsheet1",1,"BIQ","Screen 4","iz3the",4,"response","5",10899.1,15298.9,15305.6000000358,10899.1,15298.9,15305.6000000358,1,10899.1,4406.50000003576,0,NA,"Rating Scale","Rating Scale",9,"object-60","BIQ",NA,"SUPPRF98714"
14,1717680313765,"06/06/2024 13:25:13",1717683913765,1,"06/06/2024 15:25:13",180921,1,"task-7hcp",NA,38088087,NA,"complete",NA,"computer","Desktop or Laptop","Windows 10","Chrome 125.0.0.0","1366x768","1350x631",NA,NA,0,"BIQ (Charlotte)",5,"CDBEAFIGH","Passed AC2",NA,"Spreadsheet1","Spreadsheet1",1,"BIQ","Screen 4","iz3the",4,"response","5",13865.6,15298.9,15306.1000000358,13865.6,15298.9,15306.1000000358,1,13865.6,1440.50000003576,0,NA,"Rating Scale","Rating Scale",16,"object-67","BIQ",NA,"SUPPRF98714"
15,1717680313767,"06/06/2024 13:25:13",1717683913767,1,"06/06/2024 15:25:13",180921,1,"task-7hcp",NA,38088087,NA,"complete",NA,"computer","Desktop or Laptop","Windows 10","Chrome 125.0.0.0","1366x768","1350x631",NA,NA,0,"BIQ (Charlotte)",5,"CDBEAFIGH","Passed AC2",NA,"Spreadsheet1","Spreadsheet1",NA,"","","",NA,"info","END",NA,NA,NA,NA,NA,NA,0,NA,NA,NA,NA,"","",NA,"","",NA,"SUPPRF98714"
1,1717680454448,"06/06/2024 13:27:34",1717684054448,1,"06/06/2024 15:27:34",180921,1,"task-7hcp",NA,38088156,NA,"complete",NA,"computer","Desktop or Laptop","Windows 10","Chrome 125.0.0.0","1920x1080","1920x957",NA,NA,0,"BIQ (Charlotte)",5,"DECFBGAHI","Passed AC2",NA,"Spreadsheet1","Spreadsheet1",NA,"","","",NA,"info","BEGIN",NA,NA,NA,NA,NA,NA,0,NA,NA,NA,NA,"","",NA,"","",NA,"SUPPRF40133"
2,1717680478900,"06/06/2024 13:27:58",1717684078900,1,"06/06/2024 15:27:58",180921,1,"task-7hcp",NA,38088156,NA,"complete",NA,"computer","Desktop or Laptop","Windows 10","Chrome 125.0.0.0","1920x1080","1920x957",NA,NA,0,"BIQ (Charlotte)",5,"DECFBGAHI","Passed AC2",NA,"Spreadsheet1","Spreadsheet1",1,"BIQ","Screen 1","9dh6eq",1,"continue","",24460.4999999523,24453.7,24460.4999999523,24460.4999999523,24453.7,24460.4999999523,1,24460.4999999523,0,0,NA,"Click To Continue","Continue Button",16,"object-48","BIQ",NA,"SUPPRF40133"
3,1717680478901,"06/06/2024 13:27:58",1717684078901,1,"06/06/2024 15:27:58",180921,1,"task-7hcp",NA,38088156,NA,"complete",NA,"computer","Desktop or Laptop","Windows 10","Chrome 125.0.0.0","1920x1080","1920x957",NA,NA,0,"BIQ (Charlotte)",5,"DECFBGAHI","Passed AC2",NA,"Spreadsheet1","Spreadsheet1",1,"BIQ","Screen 1","9dh6eq",1,"response","2",15240.2,24453.7,24460.7,15240.2,24453.7,24460.7,1,15240.2,9220.5,0,NA,"Rating Scale","Rating Scale",3,"object-5","BIQ",NA,"SUPPRF40133"
4,1717680478901,"06/06/2024 13:27:58",1717684078901,1,"06/06/2024 15:27:58",180921,1,"task-7hcp",NA,38088156,NA,"complete",NA,"computer","Desktop or Laptop","Windows 10","Chrome 125.0.0.0","1920x1080","1920x957",NA,NA,0,"BIQ (Charlotte)",5,"DECFBGAHI","Passed AC2",NA,"Spreadsheet1","Spreadsheet1",1,"BIQ","Screen 1","9dh6eq",1,"response","3",20475.4,24453.7,24460.7,20475.4,24453.7,24460.7,1,20475.4,3985.3,0,NA,"Rating Scale","Rating Scale",10,"object-18","BIQ",NA,"SUPPRF40133"
5,1717680493929,"06/06/2024 13:28:13",1717684093929,1,"06/06/2024 15:28:13",180921,1,"task-7hcp",NA,38088156,NA,"complete",NA,"computer","Desktop or Laptop","Windows 10","Chrome 125.0.0.0","1920x1080","1920x957",NA,NA,0,"BIQ (Charlotte)",5,"DECFBGAHI","Passed AC2",NA,"Spreadsheet1","Spreadsheet1",1,"BIQ","Screen 2","svpz34",2,"continue","",15036.7000000477,15032,15036.7000000477,15036.7000000477,15032,15036.7000000477,1,15036.7000000477,0,0,NA,"Click To Continue","Continue Button",7,"object-1017","BIQ",NA,"SUPPRF40133"
6,1717680493930,"06/06/2024 13:28:13",1717684093930,1,"06/06/2024 15:28:13",180921,1,"task-7hcp",NA,38088156,NA,"complete",NA,"computer","Desktop or Laptop","Windows 10","Chrome 125.0.0.0","1920x1080","1920x957",NA,NA,0,"BIQ (Charlotte)",5,"DECFBGAHI","Passed AC2",NA,"Spreadsheet1","Spreadsheet1",1,"BIQ","Screen 2","svpz34",2,"response","6",3735.3,15032,15037.8999999762,3735.3,15032,15037.8999999762,1,3735.3,11302.5999999762,0,NA,"Rating Scale","Rating Scale",8,"object-118","BIQ",NA,"SUPPRF40133"
7,1717680493931,"06/06/2024 13:28:13",1717684093931,1,"06/06/2024 15:28:13",180921,1,"task-7hcp",NA,38088156,NA,"complete",NA,"computer","Desktop or Laptop","Windows 10","Chrome 125.0.0.0","1920x1080","1920x957",NA,NA,0,"BIQ (Charlotte)",5,"DECFBGAHI","Passed AC2",NA,"Spreadsheet1","Spreadsheet1",1,"BIQ","Screen 2","svpz34",2,"response","7",10657.7,15032,15038.1000000238,10657.7,15032,15038.1000000238,1,10657.7,4380.40000002384,0,NA,"Rating Scale","Rating Scale",10,"object-121","BIQ",NA,"SUPPRF40133"
8,1717680514089,"06/06/2024 13:28:34",1717684114089,1,"06/06/2024 15:28:34",180921,1,"task-7hcp",NA,38088156,NA,"complete",NA,"computer","Desktop or Laptop","Windows 10","Chrome 125.0.0.0","1920x1080","1920x957",NA,NA,0,"BIQ (Charlotte)",5,"DECFBGAHI","Passed AC2",NA,"Spreadsheet1","Spreadsheet1",1,"BIQ","Screen 3","o21mwi",3,"continue","",20164.7999999523,20162.6,20164.7999999523,20164.7999999523,20162.6,20164.7999999523,1,20164.7999999523,0,0,NA,"Click To Continue","Continue Button",15,"object-50","BIQ",NA,"SUPPRF40133"
9,1717680514091,"06/06/2024 13:28:34",1717684114091,1,"06/06/2024 15:28:34",180921,1,"task-7hcp",NA,38088156,NA,"complete",NA,"computer","Desktop or Laptop","Windows 10","Chrome 125.0.0.0","1920x1080","1920x957",NA,NA,0,"BIQ (Charlotte)",5,"DECFBGAHI","Passed AC2",NA,"Spreadsheet1","Spreadsheet1",1,"BIQ","Screen 3","o21mwi",3,"response","5",7838.8,20162.6,20166.2000000477,7838.8,20162.6,20166.2000000477,1,7838.8,12327.4000000477,0,NA,"Rating Scale","Rating Scale",2,"object-36","BIQ",NA,"SUPPRF40133"
10,1717680514091,"06/06/2024 13:28:34",1717684114091,1,"06/06/2024 15:28:34",180921,1,"task-7hcp",NA,38088156,NA,"complete",NA,"computer","Desktop or Laptop","Windows 10","Chrome 125.0.0.0","1920x1080","1920x957",NA,NA,0,"BIQ (Charlotte)",5,"DECFBGAHI","Passed AC2",NA,"Spreadsheet1","Spreadsheet1",1,"BIQ","Screen 3","o21mwi",3,"response","0",18191,20162.6,20166.3999999762,18191,20162.6,20166.3999999762,1,18191,1975.39999997616,0,NA,"Rating Scale","Rating Scale",9,"object-86","BIQ",NA,"SUPPRF40133"
11,1717680529681,"06/06/2024 13:28:49",1717684129681,1,"06/06/2024 15:28:49",180921,1,"task-7hcp",NA,38088156,NA,"complete",NA,"computer","Desktop or Laptop","Windows 10","Chrome 125.0.0.0","1920x1080","1920x957",NA,NA,0,"BIQ (Charlotte)",5,"DECFBGAHI","Passed AC2",NA,"Spreadsheet1","Spreadsheet1",1,"BIQ","Screen 4","iz3the",4,"continue","",15593.7999999762,15587.3,15593.7999999762,15593.7999999762,15587.3,15593.7999999762,1,15593.7999999762,0,0,NA,"Click To Continue","Continue Button",22,"object-73","BIQ",NA,"SUPPRF40133"
12,1717680529682,"06/06/2024 13:28:49",1717684129682,1,"06/06/2024 15:28:49",180921,1,"task-7hcp",NA,38088156,NA,"complete",NA,"computer","Desktop or Laptop","Windows 10","Chrome 125.0.0.0","1920x1080","1920x957",NA,NA,0,"BIQ (Charlotte)",5,"DECFBGAHI","Passed AC2",NA,"Spreadsheet1","Spreadsheet1",1,"BIQ","Screen 4","iz3the",4,"response","1",8588.7,15587.3,15594.2,8588.7,15587.3,15594.2,1,8588.7,7005.49999999999,0,NA,"Rating Scale","Rating Scale",2,"object-53","BIQ",NA,"SUPPRF40133"
13,1717680529683,"06/06/2024 13:28:49",1717684129683,1,"06/06/2024 15:28:49",180921,1,"task-7hcp",NA,38088156,NA,"complete",NA,"computer","Desktop or Laptop","Windows 10","Chrome 125.0.0.0","1920x1080","1920x957",NA,NA,0,"BIQ (Charlotte)",5,"DECFBGAHI","Passed AC2",NA,"Spreadsheet1","Spreadsheet1",1,"BIQ","Screen 4","iz3the",4,"response","5",10373.2,15587.3,15594.2,10373.2,15587.3,15594.2,1,10373.2,5220.99999999999,0,NA,"Rating Scale","Rating Scale",9,"object-60","BIQ",NA,"SUPPRF40133"
14,1717680529683,"06/06/2024 13:28:49",1717684129683,1,"06/06/2024 15:28:49",180921,1,"task-7hcp",NA,38088156,NA,"complete",NA,"computer","Desktop or Laptop","Windows 10","Chrome 125.0.0.0","1920x1080","1920x957",NA,NA,0,"BIQ (Charlotte)",5,"DECFBGAHI","Passed AC2",NA,"Spreadsheet1","Spreadsheet1",1,"BIQ","Screen 4","iz3the",4,"response","4",13358.7,15587.3,15594.2,13358.7,15587.3,15594.2,1,13358.7,2235.49999999999,0,NA,"Rating Scale","Rating Scale",16,"object-67","BIQ",NA,"SUPPRF40133"
15,1717680529685,"06/06/2024 13:28:49",1717684129685,1,"06/06/2024 15:28:49",180921,1,"task-7hcp",NA,38088156,NA,"complete",NA,"computer","Desktop or Laptop","Windows 10","Chrome 125.0.0.0","1920x1080","1920x957",NA,NA,0,"BIQ (Charlotte)",5,"DECFBGAHI","Passed AC2",NA,"Spreadsheet1","Spreadsheet1",NA,"","","",NA,"info","END",NA,NA,NA,NA,NA,NA,0,NA,NA,NA,NA,"","",NA,"","",NA,"SUPPRF40133"
1,1717680864121,"06/06/2024 13:34:24",1717684464121,1,"06/06/2024 15:34:24",180921,1,"task-7hcp",NA,38088314,NA,"complete",NA,"computer","Desktop or Laptop","Chromium OS 14541.0.0","Chrome 124.0.0.0","1366x768","1366x599",NA,NA,0,"BIQ (Charlotte)",5,"EFDGCHBIA","Passed AC2",NA,"Spreadsheet1","Spreadsheet1",NA,"","","",NA,"info","BEGIN",NA,NA,NA,NA,NA,NA,0,NA,NA,NA,NA,"","",NA,"","",NA,"SUPPRF16541"
2,1717680879204,"06/06/2024 13:34:39",1717684479204,1,"06/06/2024 15:34:39",180921,1,"task-7hcp",NA,38088314,NA,"complete",NA,"computer","Desktop or Laptop","Chromium OS 14541.0.0","Chrome 124.0.0.0","1366x768","1366x599",NA,NA,0,"BIQ (Charlotte)",5,"EFDGCHBIA","Passed AC2",NA,"Spreadsheet1","Spreadsheet1",1,"BIQ","Screen 1","9dh6eq",1,"continue","",15113.5,15096.9,15113.5,15113.5,15096.9,15113.5,1,15113.5,0,0,NA,"Click To Continue","Continue Button",16,"object-48","BIQ",NA,"SUPPRF16541"
3,1717680879214,"06/06/2024 13:34:39",1717684479214,1,"06/06/2024 15:34:39",180921,1,"task-7hcp",NA,38088314,NA,"complete",NA,"computer","Desktop or Laptop","Chromium OS 14541.0.0","Chrome 124.0.0.0","1366x768","1366x599",NA,NA,0,"BIQ (Charlotte)",5,"EFDGCHBIA","Passed AC2",NA,"Spreadsheet1","Spreadsheet1",1,"BIQ","Screen 1","9dh6eq",1,"response","4",7673.3,15096.9,15113.5,7673.3,15096.9,15113.5,1,7673.3,7440.2,0,NA,"Rating Scale","Rating Scale",3,"object-5","BIQ",NA,"SUPPRF16541"
4,1717680879217,"06/06/2024 13:34:39",1717684479217,1,"06/06/2024 15:34:39",180921,1,"task-7hcp",NA,38088314,NA,"complete",NA,"computer","Desktop or Laptop","Chromium OS 14541.0.0","Chrome 124.0.0.0","1366x768","1366x599",NA,NA,0,"BIQ (Charlotte)",5,"EFDGCHBIA","Passed AC2",NA,"Spreadsheet1","Spreadsheet1",1,"BIQ","Screen 1","9dh6eq",1,"response","6",12250.9,15096.9,15113.5,12250.9,15096.9,15113.5,1,12250.9,2862.6,0,NA,"Rating Scale","Rating Scale",10,"object-18","BIQ",NA,"SUPPRF16541"
5,1717680886522,"06/06/2024 13:34:46",1717684486522,1,"06/06/2024 15:34:46",180921,1,"task-7hcp",NA,38088314,NA,"complete",NA,"computer","Desktop or Laptop","Chromium OS 14541.0.0","Chrome 124.0.0.0","1366x768","1366x599",NA,NA,0,"BIQ (Charlotte)",5,"EFDGCHBIA","Passed AC2",NA,"Spreadsheet1","Spreadsheet1",1,"BIQ","Screen 2","svpz34",2,"continue","",7348.20000002384,7341.4,7348.20000002384,7348.20000002384,7341.4,7348.20000002384,1,7348.20000002384,0,0,NA,"Click To Continue","Continue Button",7,"object-1017","BIQ",NA,"SUPPRF16541"
6,1717680886523,"06/06/2024 13:34:46",1717684486523,1,"06/06/2024 15:34:46",180921,1,"task-7hcp",NA,38088314,NA,"complete",NA,"computer","Desktop or Laptop","Chromium OS 14541.0.0","Chrome 124.0.0.0","1366x768","1366x599",NA,NA,0,"BIQ (Charlotte)",5,"EFDGCHBIA","Passed AC2",NA,"Spreadsheet1","Spreadsheet1",1,"BIQ","Screen 2","svpz34",2,"response","1",2929.4,7341.4,7349.6,2929.4,7341.4,7349.6,1,2929.4,4420.2,0,NA,"Rating Scale","Rating Scale",8,"object-118","BIQ",NA,"SUPPRF16541"
7,1717680886524,"06/06/2024 13:34:46",1717684486524,1,"06/06/2024 15:34:46",180921,1,"task-7hcp",NA,38088314,NA,"complete",NA,"computer","Desktop or Laptop","Chromium OS 14541.0.0","Chrome 124.0.0.0","1366x768","1366x599",NA,NA,0,"BIQ (Charlotte)",5,"EFDGCHBIA","Passed AC2",NA,"Spreadsheet1","Spreadsheet1",1,"BIQ","Screen 2","svpz34",2,"response","7",4278.3,7341.4,7350.90000001192,4278.3,7341.4,7350.90000001192,1,4278.3,3072.60000001192,0,NA,"Rating Scale","Rating Scale",10,"object-121","BIQ",NA,"SUPPRF16541"
8,1717680917147,"06/06/2024 13:35:17",1717684517147,1,"06/06/2024 15:35:17",180921,1,"task-7hcp",NA,38088314,NA,"complete",NA,"computer","Desktop or Laptop","Chromium OS 14541.0.0","Chrome 124.0.0.0","1366x768","1366x599",NA,NA,0,"BIQ (Charlotte)",5,"EFDGCHBIA","Passed AC2",NA,"Spreadsheet1","Spreadsheet1",1,"BIQ","Screen 3","o21mwi",3,"continue","",30631.3999999881,30626.7,30631.3999999881,30631.3999999881,30626.7,30631.3999999881,1,30631.3999999881,0,0,NA,"Click To Continue","Continue Button",15,"object-50","BIQ",NA,"SUPPRF16541"
9,1717680917169,"06/06/2024 13:35:17",1717684517169,1,"06/06/2024 15:35:17",180921,1,"task-7hcp",NA,38088314,NA,"complete",NA,"computer","Desktop or Laptop","Chromium OS 14541.0.0","Chrome 124.0.0.0","1366x768","1366x599",NA,NA,0,"BIQ (Charlotte)",5,"EFDGCHBIA","Passed AC2",NA,"Spreadsheet1","Spreadsheet1",1,"BIQ","Screen 3","o21mwi",3,"response","1",24901.7,30626.7,30643.4,24901.7,30626.7,30643.4,1,24901.7,5741.7,0,NA,"Rating Scale","Rating Scale",2,"object-36","BIQ",NA,"SUPPRF16541"
10,1717680917171,"06/06/2024 13:35:17",1717684517171,1,"06/06/2024 15:35:17",180921,1,"task-7hcp",NA,38088314,NA,"complete",NA,"computer","Desktop or Laptop","Chromium OS 14541.0.0","Chrome 124.0.0.0","1366x768","1366x599",NA,NA,0,"BIQ (Charlotte)",5,"EFDGCHBIA","Passed AC2",NA,"Spreadsheet1","Spreadsheet1",1,"BIQ","Screen 3","o21mwi",3,"response","1",29494.8,30626.7,30643.4,29494.8,30626.7,30643.4,1,29494.8,1148.6,0,NA,"Rating Scale","Rating Scale",9,"object-86","BIQ",NA,"SUPPRF16541"
11,1717680940231,"06/06/2024 13:35:40",1717684540231,1,"06/06/2024 15:35:40",180921,1,"task-7hcp",NA,38088314,NA,"complete",NA,"computer","Desktop or Laptop","Chromium OS 14541.0.0","Chrome 124.0.0.0","1366x768","1366x599",NA,NA,0,"BIQ (Charlotte)",5,"EFDGCHBIA","Passed AC2",NA,"Spreadsheet1","Spreadsheet1",1,"BIQ","Screen 4","iz3the",4,"continue","",23089.8000000119,23087,23089.8000000119,23089.8000000119,23087,23089.8000000119,1,23089.8000000119,0,0,NA,"Click To Continue","Continue Button",22,"object-73","BIQ",NA,"SUPPRF16541"
12,1717680940241,"06/06/2024 13:35:40",1717684540241,1,"06/06/2024 15:35:40",180921,1,"task-7hcp",NA,38088314,NA,"complete",NA,"computer","Desktop or Laptop","Chromium OS 14541.0.0","Chrome 124.0.0.0","1366x768","1366x599",NA,NA,0,"BIQ (Charlotte)",5,"EFDGCHBIA","Passed AC2",NA,"Spreadsheet1","Spreadsheet1",1,"BIQ","Screen 4","iz3the",4,"response","0",19026.2,23087,23099.4000000358,19026.2,23087,23099.4000000358,1,19026.2,4073.20000003577,0,NA,"Rating Scale","Rating Scale",2,"object-53","BIQ",NA,"SUPPRF16541"
13,1717680940242,"06/06/2024 13:35:40",1717684540242,1,"06/06/2024 15:35:40",180921,1,"task-7hcp",NA,38088314,NA,"complete",NA,"computer","Desktop or Laptop","Chromium OS 14541.0.0","Chrome 124.0.0.0","1366x768","1366x599",NA,NA,0,"BIQ (Charlotte)",5,"EFDGCHBIA","Passed AC2",NA,"Spreadsheet1","Spreadsheet1",1,"BIQ","Screen 4","iz3the",4,"response","0",20857.6,23087,23100.5,20857.6,23087,23100.5,1,20857.6,2242.89999999999,0,NA,"Rating Scale","Rating Scale",9,"object-60","BIQ",NA,"SUPPRF16541"
14,1717680940243,"06/06/2024 13:35:40",1717684540243,1,"06/06/2024 15:35:40",180921,1,"task-7hcp",NA,38088314,NA,"complete",NA,"computer","Desktop or Laptop","Chromium OS 14541.0.0","Chrome 124.0.0.0","1366x768","1366x599",NA,NA,0,"BIQ (Charlotte)",5,"EFDGCHBIA","Passed AC2",NA,"Spreadsheet1","Spreadsheet1",1,"BIQ","Screen 4","iz3the",4,"response","0",22154.9,23087,23101.6000000238,22154.9,23087,23101.6000000238,1,22154.9,946.700000023848,0,NA,"Rating Scale","Rating Scale",16,"object-67","BIQ",NA,"SUPPRF16541"
15,1717680940259,"06/06/2024 13:35:40",1717684540259,1,"06/06/2024 15:35:40",180921,1,"task-7hcp",NA,38088314,NA,"complete",NA,"computer","Desktop or Laptop","Chromium OS 14541.0.0","Chrome 124.0.0.0","1366x768","1366x599",NA,NA,0,"BIQ (Charlotte)",5,"EFDGCHBIA","Passed AC2",NA,"Spreadsheet1","Spreadsheet1",NA,"","","",NA,"info","END",NA,NA,NA,NA,NA,NA,0,NA,NA,NA,NA,"","",NA,"","",NA,"SUPPRF16541"
1,1717680825030,"06/06/2024 13:33:45",1717684425030,1,"06/06/2024 15:33:45",180921,1,"task-7hcp",NA,38088301,NA,"complete",NA,"computer","Desktop or Laptop","Mac OS 10.15.7","Chrome 125.0.0.0","1440x900","1384x697",NA,NA,0,"BIQ (Charlotte)",5,"FGEHDICAB","Passed AC2",NA,"Spreadsheet1","Spreadsheet1",NA,"","","",NA,"info","BEGIN",NA,NA,NA,NA,NA,NA,0,NA,NA,NA,NA,"","",NA,"","",NA,"SUPPRF46523"
2,1717680838425,"06/06/2024 13:33:58",1717684438425,1,"06/06/2024 15:33:58",180921,1,"task-7hcp",NA,38088301,NA,"complete",NA,"computer","Desktop or Laptop","Mac OS 10.15.7","Chrome 125.0.0.0","1440x900","1384x697",NA,NA,0,"BIQ (Charlotte)",5,"FGEHDICAB","Passed AC2",NA,"Spreadsheet1","Spreadsheet1",1,"BIQ","Screen 1","9dh6eq",1,"continue","",13407.8,13390.9,13407.8,13407.8,13390.9,13407.8,1,13407.8,0,0,NA,"Click To Continue","Continue Button",16,"object-48","BIQ",NA,"SUPPRF46523"
3,1717680838427,"06/06/2024 13:33:58",1717684438427,1,"06/06/2024 15:33:58",180921,1,"task-7hcp",NA,38088301,NA,"complete",NA,"computer","Desktop or Laptop","Mac OS 10.15.7","Chrome 125.0.0.0","1440x900","1384x697",NA,NA,0,"BIQ (Charlotte)",5,"FGEHDICAB","Passed AC2",NA,"Spreadsheet1","Spreadsheet1",1,"BIQ","Screen 1","9dh6eq",1,"response","7",7211.8,13390.9,13407.8,7211.8,13390.9,13407.8,1,7211.8,6196,0,NA,"Rating Scale","Rating Scale",3,"object-5","BIQ",NA,"SUPPRF46523"
4,1717680838427,"06/06/2024 13:33:58",1717684438427,1,"06/06/2024 15:33:58",180921,1,"task-7hcp",NA,38088301,NA,"complete",NA,"computer","Desktop or Laptop","Mac OS 10.15.7","Chrome 125.0.0.0","1440x900","1384x697",NA,NA,0,"BIQ (Charlotte)",5,"FGEHDICAB","Passed AC2",NA,"Spreadsheet1","Spreadsheet1",1,"BIQ","Screen 1","9dh6eq",1,"response","8",12692.2,13390.9,13407.8,12692.2,13390.9,13407.8,1,12692.2,715.599999999999,0,NA,"Rating Scale","Rating Scale",10,"object-18","BIQ",NA,"SUPPRF46523"
5,1717680846302,"06/06/2024 13:34:06",1717684446302,1,"06/06/2024 15:34:06",180921,1,"task-7hcp",NA,38088301,NA,"complete",NA,"computer","Desktop or Laptop","Mac OS 10.15.7","Chrome 125.0.0.0","1440x900","1384x697",NA,NA,0,"BIQ (Charlotte)",5,"FGEHDICAB","Passed AC2",NA,"Spreadsheet1","Spreadsheet1",1,"BIQ","Screen 2","svpz34",2,"continue","",7894.7,7878.1,7894.7,7894.7,7878.1,7894.7,1,7894.7,0,0,NA,"Click To Continue","Continue Button",7,"object-1017","BIQ",NA,"SUPPRF46523"
6,1717680846302,"06/06/2024 13:34:06",1717684446302,1,"06/06/2024 15:34:06",180921,1,"task-7hcp",NA,38088301,NA,"complete",NA,"computer","Desktop or Laptop","Mac OS 10.15.7","Chrome 125.0.0.0","1440x900","1384x697",NA,NA,0,"BIQ (Charlotte)",5,"FGEHDICAB","Passed AC2",NA,"Spreadsheet1","Spreadsheet1",1,"BIQ","Screen 2","svpz34",2,"response","1",3864.1,7878.1,7894.8,3864.1,7878.1,7894.8,1,3864.1,4030.7,0,NA,"Rating Scale","Rating Scale",8,"object-118","BIQ",NA,"SUPPRF46523"
7,1717680846302,"06/06/2024 13:34:06",1717684446302,1,"06/06/2024 15:34:06",180921,1,"task-7hcp",NA,38088301,NA,"complete",NA,"computer","Desktop or Laptop","Mac OS 10.15.7","Chrome 125.0.0.0","1440x900","1384x697",NA,NA,0,"BIQ (Charlotte)",5,"FGEHDICAB","Passed AC2",NA,"Spreadsheet1","Spreadsheet1",1,"BIQ","Screen 2","svpz34",2,"response","8",7045.2,7878.1,7894.8,7045.2,7878.1,7894.8,1,7045.2,849.600000000002,0,NA,"Rating Scale","Rating Scale",10,"object-121","BIQ",NA,"SUPPRF46523"
8,1717680858964,"06/06/2024 13:34:18",1717684458964,1,"06/06/2024 15:34:18",180921,1,"task-7hcp",NA,38088301,NA,"complete",NA,"computer","Desktop or Laptop","Mac OS 10.15.7","Chrome 125.0.0.0","1440x900","1384x697",NA,NA,0,"BIQ (Charlotte)",5,"FGEHDICAB","Passed AC2",NA,"Spreadsheet1","Spreadsheet1",1,"BIQ","Screen 3","o21mwi",3,"continue","",12679.1,12674.8,12679.1,12679.1,12674.8,12679.1,1,12679.1,0,0,NA,"Click To Continue","Continue Button",15,"object-50","BIQ",NA,"SUPPRF46523"
9,1717680858967,"06/06/2024 13:34:18",1717684458967,1,"06/06/2024 15:34:18",180921,1,"task-7hcp",NA,38088301,NA,"complete",NA,"computer","Desktop or Laptop","Mac OS 10.15.7","Chrome 125.0.0.0","1440x900","1384x697",NA,NA,0,"BIQ (Charlotte)",5,"FGEHDICAB","Passed AC2",NA,"Spreadsheet1","Spreadsheet1",1,"BIQ","Screen 3","o21mwi",3,"response","1",5896,12674.8,12682.7999999881,5896,12674.8,12682.7999999881,1,5896,6786.79999998808,0,NA,"Rating Scale","Rating Scale",2,"object-36","BIQ",NA,"SUPPRF46523"
10,1717680858968,"06/06/2024 13:34:18",1717684458968,1,"06/06/2024 15:34:18",180921,1,"task-7hcp",NA,38088301,NA,"complete",NA,"computer","Desktop or Laptop","Mac OS 10.15.7","Chrome 125.0.0.0","1440x900","1384x697",NA,NA,0,"BIQ (Charlotte)",5,"FGEHDICAB","Passed AC2",NA,"Spreadsheet1","Spreadsheet1",1,"BIQ","Screen 3","o21mwi",3,"response","0",9277.1,12674.8,12683.3999999821,9277.1,12674.8,12683.3999999821,1,9277.1,3406.29999998212,0,NA,"Rating Scale","Rating Scale",9,"object-86","BIQ",NA,"SUPPRF46523"
11,1717680865357,"06/06/2024 13:34:25",1717684465357,1,"06/06/2024 15:34:25",180921,1,"task-7hcp",NA,38088301,NA,"complete",NA,"computer","Desktop or Laptop","Mac OS 10.15.7","Chrome 125.0.0.0","1440x900","1384x697",NA,NA,0,"BIQ (Charlotte)",5,"FGEHDICAB","Passed AC2",NA,"Spreadsheet1","Spreadsheet1",1,"BIQ","Screen 4","iz3the",4,"continue","",6395.90000000001,6379.7,6395.90000000001,6395.90000000001,6379.7,6395.90000000001,1,6395.90000000001,0,0,NA,"Click To Continue","Continue Button",22,"object-73","BIQ",NA,"SUPPRF46523"
12,1717680865358,"06/06/2024 13:34:25",1717684465358,1,"06/06/2024 15:34:25",180921,1,"task-7hcp",NA,38088301,NA,"complete",NA,"computer","Desktop or Laptop","Mac OS 10.15.7","Chrome 125.0.0.0","1440x900","1384x697",NA,NA,0,"BIQ (Charlotte)",5,"FGEHDICAB","Passed AC2",NA,"Spreadsheet1","Spreadsheet1",1,"BIQ","Screen 4","iz3the",4,"response","0",2748.2,6379.7,6395.90000000001,2748.2,6379.7,6395.90000000001,1,2748.2,3647.7,0,NA,"Rating Scale","Rating Scale",2,"object-53","BIQ",NA,"SUPPRF46523"
13,1717680865358,"06/06/2024 13:34:25",1717684465358,1,"06/06/2024 15:34:25",180921,1,"task-7hcp",NA,38088301,NA,"complete",NA,"computer","Desktop or Laptop","Mac OS 10.15.7","Chrome 125.0.0.0","1440x900","1384x697",NA,NA,0,"BIQ (Charlotte)",5,"FGEHDICAB","Passed AC2",NA,"Spreadsheet1","Spreadsheet1",1,"BIQ","Screen 4","iz3the",4,"response","0",4430.60000000001,6379.7,6395.90000000001,4430.60000000001,6379.7,6395.90000000001,1,4430.60000000001,1965.3,0,NA,"Rating Scale","Rating Scale",9,"object-60","BIQ",NA,"SUPPRF46523"
14,1717680865358,"06/06/2024 13:34:25",1717684465358,1,"06/06/2024 15:34:25",180921,1,"task-7hcp",NA,38088301,NA,"complete",NA,"computer","Desktop or Laptop","Mac OS 10.15.7","Chrome 125.0.0.0","1440x900","1384x697",NA,NA,0,"BIQ (Charlotte)",5,"FGEHDICAB","Passed AC2",NA,"Spreadsheet1","Spreadsheet1",1,"BIQ","Screen 4","iz3the",4,"response","0",5229.9,6379.7,6395.90000000001,5229.9,6379.7,6395.90000000001,1,5229.9,1166.00000000001,0,NA,"Rating Scale","Rating Scale",16,"object-67","BIQ",NA,"SUPPRF46523"
15,1717680865367,"06/06/2024 13:34:25",1717684465367,1,"06/06/2024 15:34:25",180921,1,"task-7hcp",NA,38088301,NA,"complete",NA,"computer","Desktop or Laptop","Mac OS 10.15.7","Chrome 125.0.0.0","1440x900","1384x697",NA,NA,0,"BIQ (Charlotte)",5,"FGEHDICAB","Passed AC2",NA,"Spreadsheet1","Spreadsheet1",NA,"","","",NA,"info","END",NA,NA,NA,NA,NA,NA,0,NA,NA,NA,NA,"","",NA,"","",NA,"SUPPRF46523"
1,1717681075842,"06/06/2024 13:37:55",1717684675842,1,"06/06/2024 15:37:55",180921,1,"task-7hcp",NA,38088402,NA,"complete",NA,"computer","Desktop or Laptop","Mac OS 10.15.7","Chrome 125.0.0.0","1470x956","1452x709",NA,NA,0,"BIQ (Charlotte)",5,"GHFIEADBC","Passed AC2",NA,"Spreadsheet1","Spreadsheet1",NA,"","","",NA,"info","BEGIN",NA,NA,NA,NA,NA,NA,0,NA,NA,NA,NA,"","",NA,"","",NA,"SUPPRF53261"
2,1717681107044,"06/06/2024 13:38:27",1717684707044,1,"06/06/2024 15:38:27",180921,1,"task-7hcp",NA,38088402,NA,"complete",NA,"computer","Desktop or Laptop","Mac OS 10.15.7","Chrome 125.0.0.0","1470x956","1452x709",NA,NA,0,"BIQ (Charlotte)",5,"GHFIEADBC","Passed AC2",NA,"Spreadsheet1","Spreadsheet1",1,"BIQ","Screen 1","9dh6eq",1,"continue","",31216.5219997139,31200.022,31216.5219997139,31216.5219997139,31200.022,31216.5219997139,1,31216.5219997139,0,0,NA,"Click To Continue","Continue Button",16,"object-48","BIQ",NA,"SUPPRF53261"
3,1717681107047,"06/06/2024 13:38:27",1717684707047,1,"06/06/2024 15:38:27",180921,1,"task-7hcp",NA,38088402,NA,"complete",NA,"computer","Desktop or Laptop","Mac OS 10.15.7","Chrome 125.0.0.0","1470x956","1452x709",NA,NA,0,"BIQ (Charlotte)",5,"GHFIEADBC","Passed AC2",NA,"Spreadsheet1","Spreadsheet1",1,"BIQ","Screen 1","9dh6eq",1,"response","5",13549.522,31200.022,31216.722,13549.522,31200.022,31216.722,1,13549.522,17667.2,0,NA,"Rating Scale","Rating Scale",3,"object-5","BIQ",NA,"SUPPRF53261"
4,1717681107047,"06/06/2024 13:38:27",1717684707047,1,"06/06/2024 15:38:27",180921,1,"task-7hcp",NA,38088402,NA,"complete",NA,"computer","Desktop or Laptop","Mac OS 10.15.7","Chrome 125.0.0.0","1470x956","1452x709",NA,NA,0,"BIQ (Charlotte)",5,"GHFIEADBC","Passed AC2",NA,"Spreadsheet1","Spreadsheet1",1,"BIQ","Screen 1","9dh6eq",1,"response","3",29732.422,31200.022,31216.722,29732.422,31200.022,31216.722,1,29732.422,1484.30000000001,0,NA,"Rating Scale","Rating Scale",10,"object-18","BIQ",NA,"SUPPRF53261"
5,1717681120998,"06/06/2024 13:38:40",1717684720998,1,"06/06/2024 15:38:40",180921,1,"task-7hcp",NA,38088402,NA,"complete",NA,"computer","Desktop or Laptop","Mac OS 10.15.7","Chrome 125.0.0.0","1470x956","1452x709",NA,NA,0,"BIQ (Charlotte)",5,"GHFIEADBC","Passed AC2",NA,"Spreadsheet1","Spreadsheet1",1,"BIQ","Screen 2","svpz34",2,"continue","",13971.0999996185,13966.7,13971.0999996185,13971.0999996185,13966.7,13971.0999996185,1,13971.0999996185,0,0,NA,"Click To Continue","Continue Button",7,"object-1017","BIQ",NA,"SUPPRF53261"
6,1717681121002,"06/06/2024 13:38:41",1717684721002,1,"06/06/2024 15:38:41",180921,1,"task-7hcp",NA,38088402,NA,"complete",NA,"computer","Desktop or Laptop","Mac OS 10.15.7","Chrome 125.0.0.0","1470x956","1452x709",NA,NA,0,"BIQ (Charlotte)",5,"GHFIEADBC","Passed AC2",NA,"Spreadsheet1","Spreadsheet1",1,"BIQ","Screen 2","svpz34",2,"response","4",6500,13966.7,13974.8999998093,6500,13966.7,13974.8999998093,1,6500,7474.89999980926,0,NA,"Rating Scale","Rating Scale",8,"object-118","BIQ",NA,"SUPPRF53261"
7,1717681121002,"06/06/2024 13:38:41",1717684721002,1,"06/06/2024 15:38:41",180921,1,"task-7hcp",NA,38088402,NA,"complete",NA,"computer","Desktop or Laptop","Mac OS 10.15.7","Chrome 125.0.0.0","1470x956","1452x709",NA,NA,0,"BIQ (Charlotte)",5,"GHFIEADBC","Passed AC2",NA,"Spreadsheet1","Spreadsheet1",1,"BIQ","Screen 2","svpz34",2,"response","6",12133.4,13966.7,13975.2999999046,12133.4,13966.7,13975.2999999046,1,12133.4,1841.89999990464,0,NA,"Rating Scale","Rating Scale",10,"object-121","BIQ",NA,"SUPPRF53261"
8,1717681140580,"06/06/2024 13:39:00",1717684740580,1,"06/06/2024 15:39:00",180921,1,"task-7hcp",NA,38088402,NA,"complete",NA,"computer","Desktop or Laptop","Mac OS 10.15.7","Chrome 125.0.0.0","1470x956","1452x709",NA,NA,0,"BIQ (Charlotte)",5,"GHFIEADBC","Passed AC2",NA,"Spreadsheet1","Spreadsheet1",1,"BIQ","Screen 3","o21mwi",3,"continue","",19586.0999999046,19583.3,19586.0999999046,19586.0999999046,19583.3,19586.0999999046,1,19586.0999999046,0,0,NA,"Click To Continue","Continue Button",15,"object-50","BIQ",NA,"SUPPRF53261"
9,1717681140582,"06/06/2024 13:39:00",1717684740582,1,"06/06/2024 15:39:00",180921,1,"task-7hcp",NA,38088402,NA,"complete",NA,"computer","Desktop or Laptop","Mac OS 10.15.7","Chrome 125.0.0.0","1470x956","1452x709",NA,NA,0,"BIQ (Charlotte)",5,"GHFIEADBC","Passed AC2",NA,"Spreadsheet1","Spreadsheet1",1,"BIQ","Screen 3","o21mwi",3,"response","3",8533.4,19583.3,19588.7999997139,8533.4,19583.3,19588.7999997139,1,8533.4,11055.3999997139,0,NA,"Rating Scale","Rating Scale",2,"object-36","BIQ",NA,"SUPPRF53261"
10,1717681140583,"06/06/2024 13:39:00",1717684740583,1,"06/06/2024 15:39:00",180921,1,"task-7hcp",NA,38088402,NA,"complete",NA,"computer","Desktop or Laptop","Mac OS 10.15.7","Chrome 125.0.0.0","1470x956","1452x709",NA,NA,0,"BIQ (Charlotte)",5,"GHFIEADBC","Passed AC2",NA,"Spreadsheet1","Spreadsheet1",1,"BIQ","Screen 3","o21mwi",3,"response","2",18916.6,19583.3,19589.1999998093,18916.6,19583.3,19589.1999998093,1,18916.6,672.599999809259,0,NA,"Rating Scale","Rating Scale",9,"object-86","BIQ",NA,"SUPPRF53261"
11,1717681161958,"06/06/2024 13:39:21",1717684761958,1,"06/06/2024 15:39:21",180921,1,"task-7hcp",NA,38088402,NA,"complete",NA,"computer","Desktop or Laptop","Mac OS 10.15.7","Chrome 125.0.0.0","1470x956","1452x709",NA,NA,0,"BIQ (Charlotte)",5,"GHFIEADBC","Passed AC2",NA,"Spreadsheet1","Spreadsheet1",1,"BIQ","Screen 4","iz3the",4,"continue","",21380.8999998093,21366.7,21380.8999998093,21380.8999998093,21366.7,21380.8999998093,1,21380.8999998093,0,0,NA,"Click To Continue","Continue Button",22,"object-73","BIQ",NA,"SUPPRF53261"
12,1717681161962,"06/06/2024 13:39:21",1717684761962,1,"06/06/2024 15:39:21",180921,1,"task-7hcp",NA,38088402,NA,"complete",NA,"computer","Desktop or Laptop","Mac OS 10.15.7","Chrome 125.0.0.0","1470x956","1452x709",NA,NA,0,"BIQ (Charlotte)",5,"GHFIEADBC","Passed AC2",NA,"Spreadsheet1","Spreadsheet1",1,"BIQ","Screen 4","iz3the",4,"response","1",6733.39999999999,21366.7,21383.4,6733.39999999999,21366.7,21383.4,1,6733.39999999999,14650,0,NA,"Rating Scale","Rating Scale",2,"object-53","BIQ",NA,"SUPPRF53261"
13,1717681161962,"06/06/2024 13:39:21",1717684761962,1,"06/06/2024 15:39:21",180921,1,"task-7hcp",NA,38088402,NA,"complete",NA,"computer","Desktop or Laptop","Mac OS 10.15.7","Chrome 125.0.0.0","1470x956","1452x709",NA,NA,0,"BIQ (Charlotte)",5,"GHFIEADBC","Passed AC2",NA,"Spreadsheet1","Spreadsheet1",1,"BIQ","Screen 4","iz3the",4,"response","2",14866.8,21366.7,21383.4,14866.8,21366.7,21383.4,1,14866.8,6516.59999999999,0,NA,"Rating Scale","Rating Scale",9,"object-60","BIQ",NA,"SUPPRF53261"
14,1717681161962,"06/06/2024 13:39:21",1717684761962,1,"06/06/2024 15:39:21",180921,1,"task-7hcp",NA,38088402,NA,"complete",NA,"computer","Desktop or Laptop","Mac OS 10.15.7","Chrome 125.0.0.0","1470x956","1452x709",NA,NA,0,"BIQ (Charlotte)",5,"GHFIEADBC","Passed AC2",NA,"Spreadsheet1","Spreadsheet1",1,"BIQ","Screen 4","iz3the",4,"response","4",20433.4,21366.7,21383.4,20433.4,21366.7,21383.4,1,20433.4,950,0,NA,"Rating Scale","Rating Scale",16,"object-67","BIQ",NA,"SUPPRF53261"
15,1717681161967,"06/06/2024 13:39:21",1717684761967,1,"06/06/2024 15:39:21",180921,1,"task-7hcp",NA,38088402,NA,"complete",NA,"computer","Desktop or Laptop","Mac OS 10.15.7","Chrome 125.0.0.0","1470x956","1452x709",NA,NA,0,"BIQ (Charlotte)",5,"GHFIEADBC","Passed AC2",NA,"Spreadsheet1","Spreadsheet1",NA,"","","",NA,"info","END",NA,NA,NA,NA,NA,NA,0,NA,NA,NA,NA,"","",NA,"","",NA,"SUPPRF53261"
1,1717681509621,"06/06/2024 13:45:09",1717685109621,1,"06/06/2024 15:45:09",180921,1,"task-7hcp",NA,38088566,NA,"complete",NA,"computer","Desktop or Laptop","Mac OS 10.15.7","Chrome 125.0.0.0","1440x900","1440x779",NA,NA,0,"BIQ (Charlotte)",5,"HIGAFBECD","Passed AC2",NA,"Spreadsheet1","Spreadsheet1",NA,"","","",NA,"info","BEGIN",NA,NA,NA,NA,NA,NA,0,NA,NA,NA,NA,"","",NA,"","",NA,"SUPPRF02576"
2,1717681539326,"06/06/2024 13:45:39",1717685139326,1,"06/06/2024 15:45:39",180921,1,"task-7hcp",NA,38088566,NA,"complete",NA,"computer","Desktop or Laptop","Mac OS 10.15.7","Chrome 125.0.0.0","1440x900","1440x779",NA,NA,0,"BIQ (Charlotte)",5,"HIGAFBECD","Passed AC2",NA,"Spreadsheet1","Spreadsheet1",1,"BIQ","Screen 1","9dh6eq",1,"continue","",29713.578,29696.878,29713.578,29713.578,29696.878,29713.578,1,29713.578,0,0,NA,"Click To Continue","Continue Button",16,"object-48","BIQ",NA,"SUPPRF02576"
3,1717681539330,"06/06/2024 13:45:39",1717685139330,1,"06/06/2024 15:45:39",180921,1,"task-7hcp",NA,38088566,NA,"complete",NA,"computer","Desktop or Laptop","Mac OS 10.15.7","Chrome 125.0.0.0","1440x900","1440x779",NA,NA,0,"BIQ (Charlotte)",5,"HIGAFBECD","Passed AC2",NA,"Spreadsheet1","Spreadsheet1",1,"BIQ","Screen 1","9dh6eq",1,"response","2",9626.678,29696.878,29713.578,9626.678,29696.878,29713.578,1,9626.678,20086.9,0,NA,"Rating Scale","Rating Scale",3,"object-5","BIQ",NA,"SUPPRF02576"
4,1717681539331,"06/06/2024 13:45:39",1717685139331,1,"06/06/2024 15:45:39",180921,1,"task-7hcp",NA,38088566,NA,"complete",NA,"computer","Desktop or Laptop","Mac OS 10.15.7","Chrome 125.0.0.0","1440x900","1440x779",NA,NA,0,"BIQ (Charlotte)",5,"HIGAFBECD","Passed AC2",NA,"Spreadsheet1","Spreadsheet1",1,"BIQ","Screen 1","9dh6eq",1,"response","2",24316.678,29696.878,29713.578,24316.678,29696.878,29713.578,1,24316.678,5396.89999999999,0,NA,"Rating Scale","Rating Scale",10,"object-18","BIQ",NA,"SUPPRF02576"
5,1717681553753,"06/06/2024 13:45:53",1717685153753,1,"06/06/2024 15:45:53",180921,1,"task-7hcp",NA,38088566,NA,"complete",NA,"computer","Desktop or Laptop","Mac OS 10.15.7","Chrome 125.0.0.0","1440x900","1440x779",NA,NA,0,"BIQ (Charlotte)",5,"HIGAFBECD","Passed AC2",NA,"Spreadsheet1","Spreadsheet1",1,"BIQ","Screen 2","svpz34",2,"continue","",14450.7000000007,14439.5,14450.7000000007,14450.7000000007,14439.5,14450.7000000007,1,14450.7000000007,0,0,NA,"Click To Continue","Continue Button",7,"object-1017","BIQ",NA,"SUPPRF02576"
6,1717681553757,"06/06/2024 13:45:53",1717685153757,1,"06/06/2024 15:45:53",180921,1,"task-7hcp",NA,38088566,NA,"complete",NA,"computer","Desktop or Laptop","Mac OS 10.15.7","Chrome 125.0.0.0","1440x900","1440x779",NA,NA,0,"BIQ (Charlotte)",5,"HIGAFBECD","Passed AC2",NA,"Spreadsheet1","Spreadsheet1",1,"BIQ","Screen 2","svpz34",2,"response","7",6229,14439.5,14453.8000000004,6229,14439.5,14453.8000000004,1,6229,8224.80000000037,0,NA,"Rating Scale","Rating Scale",8,"object-118","BIQ",NA,"SUPPRF02576"
7,1717681553757,"06/06/2024 13:45:53",1717685153757,1,"06/06/2024 15:45:53",180921,1,"task-7hcp",NA,38088566,NA,"complete",NA,"computer","Desktop or Laptop","Mac OS 10.15.7","Chrome 125.0.0.0","1440x900","1440x779",NA,NA,0,"BIQ (Charlotte)",5,"HIGAFBECD","Passed AC2",NA,"Spreadsheet1","Spreadsheet1",1,"BIQ","Screen 2","svpz34",2,"response","3",10159,14439.5,14454.4,10159,14439.5,14454.4,1,10159,4295.4,0,NA,"Rating Scale","Rating Scale",10,"object-121","BIQ",NA,"SUPPRF02576"
8,1717681571593,"06/06/2024 13:46:11",1717685171593,1,"06/06/2024 15:46:11",180921,1,"task-7hcp",NA,38088566,NA,"complete",NA,"computer","Desktop or Laptop","Mac OS 10.15.7","Chrome 125.0.0.0","1440x900","1440x779",NA,NA,0,"BIQ (Charlotte)",5,"HIGAFBECD","Passed AC2",NA,"Spreadsheet1","Spreadsheet1",1,"BIQ","Screen 3","o21mwi",3,"continue","",17851.9,17838,17851.9,17851.9,17838,17851.9,1,17851.9,0,0,NA,"Click To Continue","Continue Button",15,"object-50","BIQ",NA,"SUPPRF02576"
9,1717681571597,"06/06/2024 13:46:11",1717685171597,1,"06/06/2024 15:46:11",180921,1,"task-7hcp",NA,38088566,NA,"complete",NA,"computer","Desktop or Laptop","Mac OS 10.15.7","Chrome 125.0.0.0","1440x900","1440x779",NA,NA,0,"BIQ (Charlotte)",5,"HIGAFBECD","Passed AC2",NA,"Spreadsheet1","Spreadsheet1",1,"BIQ","Screen 3","o21mwi",3,"response","8",6462.6,17838,17853.6,6462.6,17838,17853.6,1,6462.6,11391,0,NA,"Rating Scale","Rating Scale",2,"object-36","BIQ",NA,"SUPPRF02576"
10,1717681571598,"06/06/2024 13:46:11",1717685171598,1,"06/06/2024 15:46:11",180921,1,"task-7hcp",NA,38088566,NA,"complete",NA,"computer","Desktop or Laptop","Mac OS 10.15.7","Chrome 125.0.0.0","1440x900","1440x779",NA,NA,0,"BIQ (Charlotte)",5,"HIGAFBECD","Passed AC2",NA,"Spreadsheet1","Spreadsheet1",1,"BIQ","Screen 3","o21mwi",3,"response","6",13541.4,17838,17853.6,13541.4,17838,17853.6,1,13541.4,4312.2,0,NA,"Rating Scale","Rating Scale",9,"object-86","BIQ",NA,"SUPPRF02576"
11,1717681592518,"06/06/2024 13:46:32",1717685192518,1,"06/06/2024 15:46:32",180921,1,"task-7hcp",NA,38088566,NA,"complete",NA,"computer","Desktop or Laptop","Mac OS 10.15.7","Chrome 125.0.0.0","1440x900","1440x779",NA,NA,0,"BIQ (Charlotte)",5,"HIGAFBECD","Passed AC2",NA,"Spreadsheet1","Spreadsheet1",1,"BIQ","Screen 4","iz3the",4,"continue","",20939.4,20936.2,20939.4,20939.4,20936.2,20939.4,1,20939.4,0,0,NA,"Click To Continue","Continue Button",22,"object-73","BIQ",NA,"SUPPRF02576"
12,1717681592522,"06/06/2024 13:46:32",1717685192522,1,"06/06/2024 15:46:32",180921,1,"task-7hcp",NA,38088566,NA,"complete",NA,"computer","Desktop or Laptop","Mac OS 10.15.7","Chrome 125.0.0.0","1440x900","1440x779",NA,NA,0,"BIQ (Charlotte)",5,"HIGAFBECD","Passed AC2",NA,"Spreadsheet1","Spreadsheet1",1,"BIQ","Screen 4","iz3the",4,"response","4",7778.8,20936.2,20943.5999999993,7778.8,20936.2,20943.5999999993,1,7778.8,13164.7999999993,0,NA,"Rating Scale","Rating Scale",2,"object-53","BIQ",NA,"SUPPRF02576"
13,1717681592523,"06/06/2024 13:46:32",1717685192523,1,"06/06/2024 15:46:32",180921,1,"task-7hcp",NA,38088566,NA,"complete",NA,"computer","Desktop or Laptop","Mac OS 10.15.7","Chrome 125.0.0.0","1440x900","1440x779",NA,NA,0,"BIQ (Charlotte)",5,"HIGAFBECD","Passed AC2",NA,"Spreadsheet1","Spreadsheet1",1,"BIQ","Screen 4","iz3the",4,"response","5",12176.4,20936.2,20944.2000000007,12176.4,20936.2,20944.2000000007,1,12176.4,8767.80000000075,0,NA,"Rating Scale","Rating Scale",9,"object-60","BIQ",NA,"SUPPRF02576"
14,1717681592523,"06/06/2024 13:46:32",1717685192523,1,"06/06/2024 15:46:32",180921,1,"task-7hcp",NA,38088566,NA,"complete",NA,"computer","Desktop or Laptop","Mac OS 10.15.7","Chrome 125.0.0.0","1440x900","1440x779",NA,NA,0,"BIQ (Charlotte)",5,"HIGAFBECD","Passed AC2",NA,"Spreadsheet1","Spreadsheet1",1,"BIQ","Screen 4","iz3the",4,"response","5",20369.8,20936.2,20944.5999999993,20369.8,20936.2,20944.5999999993,1,20369.8,574.799999999261,0,NA,"Rating Scale","Rating Scale",16,"object-67","BIQ",NA,"SUPPRF02576"
15,1717681592530,"06/06/2024 13:46:32",1717685192530,1,"06/06/2024 15:46:32",180921,1,"task-7hcp",NA,38088566,NA,"complete",NA,"computer","Desktop or Laptop","Mac OS 10.15.7","Chrome 125.0.0.0","1440x900","1440x779",NA,NA,0,"BIQ (Charlotte)",5,"HIGAFBECD","Passed AC2",NA,"Spreadsheet1","Spreadsheet1",NA,"","","",NA,"info","END",NA,NA,NA,NA,NA,NA,0,NA,NA,NA,NA,"","",NA,"","",NA,"SUPPRF02576"
1,1717681479292,"06/06/2024 13:44:39",1717685079292,1,"06/06/2024 15:44:39",180921,1,"task-7hcp",NA,38088557,NA,"complete",NA,"computer","Desktop or Laptop","Windows 10","Chrome 125.0.0.0","1280x720","1280x559",NA,NA,0,"BIQ (Charlotte)",5,"ABICHDGEF","Passed AC2",NA,"Spreadsheet1","Spreadsheet1",NA,"","","",NA,"info","BEGIN",NA,NA,NA,NA,NA,NA,0,NA,NA,NA,NA,"","",NA,"","",NA,"SUPPRF02661"
2,1717681501080,"06/06/2024 13:45:01",1717685101080,1,"06/06/2024 15:45:01",180921,1,"task-7hcp",NA,38088557,NA,"complete",NA,"computer","Desktop or Laptop","Windows 10","Chrome 125.0.0.0","1280x720","1280x559",NA,NA,0,"BIQ (Charlotte)",5,"ABICHDGEF","Passed AC2",NA,"Spreadsheet1","Spreadsheet1",1,"BIQ","Screen 1","9dh6eq",1,"continue","",21815.1,21798.5,21815.1,21815.1,21798.5,21815.1,1,21815.1,0,0,NA,"Click To Continue","Continue Button",16,"object-48","BIQ",NA,"SUPPRF02661"
3,1717681501083,"06/06/2024 13:45:01",1717685101083,1,"06/06/2024 15:45:01",180921,1,"task-7hcp",NA,38088557,NA,"complete",NA,"computer","Desktop or Laptop","Windows 10","Chrome 125.0.0.0","1280x720","1280x559",NA,NA,0,"BIQ (Charlotte)",5,"ABICHDGEF","Passed AC2",NA,"Spreadsheet1","Spreadsheet1",1,"BIQ","Screen 1","9dh6eq",1,"response","3",7060.5,21798.5,21815.1,7060.5,21798.5,21815.1,1,7060.5,14754.6,0,NA,"Rating Scale","Rating Scale",3,"object-5","BIQ",NA,"SUPPRF02661"
4,1717681501083,"06/06/2024 13:45:01",1717685101083,1,"06/06/2024 15:45:01",180921,1,"task-7hcp",NA,38088557,NA,"complete",NA,"computer","Desktop or Laptop","Windows 10","Chrome 125.0.0.0","1280x720","1280x559",NA,NA,0,"BIQ (Charlotte)",5,"ABICHDGEF","Passed AC2",NA,"Spreadsheet1","Spreadsheet1",1,"BIQ","Screen 1","9dh6eq",1,"response","4",19483.4,21798.5,21815.1,19483.4,21798.5,21815.1,1,19483.4,2331.7,0,NA,"Rating Scale","Rating Scale",10,"object-18","BIQ",NA,"SUPPRF02661"
5,1717681511959,"06/06/2024 13:45:11",1717685111959,1,"06/06/2024 15:45:11",180921,1,"task-7hcp",NA,38088557,NA,"complete",NA,"computer","Desktop or Laptop","Windows 10","Chrome 125.0.0.0","1280x720","1280x559",NA,NA,0,"BIQ (Charlotte)",5,"ABICHDGEF","Passed AC2",NA,"Spreadsheet1","Spreadsheet1",1,"BIQ","Screen 2","svpz34",2,"continue","",10896.2000000179,10890.7,10896.2000000179,10896.2000000179,10890.7,10896.2000000179,1,10896.2000000179,0,0,NA,"Click To Continue","Continue Button",7,"object-1017","BIQ",NA,"SUPPRF02661"
6,1717681511962,"06/06/2024 13:45:11",1717685111962,1,"06/06/2024 15:45:11",180921,1,"task-7hcp",NA,38088557,NA,"complete",NA,"computer","Desktop or Laptop","Windows 10","Chrome 125.0.0.0","1280x720","1280x559",NA,NA,0,"BIQ (Charlotte)",5,"ABICHDGEF","Passed AC2",NA,"Spreadsheet1","Spreadsheet1",1,"BIQ","Screen 2","svpz34",2,"response","0",3929.7,10890.7,10898.8000000119,3929.7,10890.7,10898.8000000119,1,3929.7,6969.10000001192,0,NA,"Rating Scale","Rating Scale",8,"object-118","BIQ",NA,"SUPPRF02661"
7,1717681511963,"06/06/2024 13:45:11",1717685111963,1,"06/06/2024 15:45:11",180921,1,"task-7hcp",NA,38088557,NA,"complete",NA,"computer","Desktop or Laptop","Windows 10","Chrome 125.0.0.0","1280x720","1280x559",NA,NA,0,"BIQ (Charlotte)",5,"ABICHDGEF","Passed AC2",NA,"Spreadsheet1","Spreadsheet1",1,"BIQ","Screen 2","svpz34",2,"response","8",8226.2,10890.7,10899.7000000179,8226.2,10890.7,10899.7000000179,1,8226.2,2673.50000001788,0,NA,"Rating Scale","Rating Scale",10,"object-121","BIQ",NA,"SUPPRF02661"
8,1717681522399,"06/06/2024 13:45:22",1717685122399,1,"06/06/2024 15:45:22",180921,1,"task-7hcp",NA,38088557,NA,"complete",NA,"computer","Desktop or Laptop","Windows 10","Chrome 125.0.0.0","1280x720","1280x559",NA,NA,0,"BIQ (Charlotte)",5,"ABICHDGEF","Passed AC2",NA,"Spreadsheet1","Spreadsheet1",1,"BIQ","Screen 3","o21mwi",3,"continue","",10445.4000000238,10441.3,10445.4000000238,10445.4000000238,10441.3,10445.4000000238,1,10445.4000000238,0,0,NA,"Click To Continue","Continue Button",15,"object-50","BIQ",NA,"SUPPRF02661"
9,1717681522401,"06/06/2024 13:45:22",1717685122401,1,"06/06/2024 15:45:22",180921,1,"task-7hcp",NA,38088557,NA,"complete",NA,"computer","Desktop or Laptop","Windows 10","Chrome 125.0.0.0","1280x720","1280x559",NA,NA,0,"BIQ (Charlotte)",5,"ABICHDGEF","Passed AC2",NA,"Spreadsheet1","Spreadsheet1",1,"BIQ","Screen 3","o21mwi",3,"response","1",3830.60000000001,10441.3,10447.5000000179,3830.60000000001,10441.3,10447.5000000179,1,3830.60000000001,6616.90000001788,0,NA,"Rating Scale","Rating Scale",2,"object-36","BIQ",NA,"SUPPRF02661"
10,1717681522402,"06/06/2024 13:45:22",1717685122402,1,"06/06/2024 15:45:22",180921,1,"task-7hcp",NA,38088557,NA,"complete",NA,"computer","Desktop or Laptop","Windows 10","Chrome 125.0.0.0","1280x720","1280x559",NA,NA,0,"BIQ (Charlotte)",5,"ABICHDGEF","Passed AC2",NA,"Spreadsheet1","Spreadsheet1",1,"BIQ","Screen 3","o21mwi",3,"response","0",8559.8,10441.3,10448.200000006,8559.8,10441.3,10448.200000006,1,8559.8,1888.40000000596,0,NA,"Rating Scale","Rating Scale",9,"object-86","BIQ",NA,"SUPPRF02661"
11,1717681533605,"06/06/2024 13:45:33",1717685133605,1,"06/06/2024 15:45:33",180921,1,"task-7hcp",NA,38088557,NA,"complete",NA,"computer","Desktop or Laptop","Windows 10","Chrome 125.0.0.0","1280x720","1280x559",NA,NA,0,"BIQ (Charlotte)",5,"ABICHDGEF","Passed AC2",NA,"Spreadsheet1","Spreadsheet1",1,"BIQ","Screen 4","iz3the",4,"continue","",11210,11207.4,11210,11210,11207.4,11210,1,11210,0,0,NA,"Click To Continue","Continue Button",22,"object-73","BIQ",NA,"SUPPRF02661"
12,1717681533610,"06/06/2024 13:45:33",1717685133610,1,"06/06/2024 15:45:33",180921,1,"task-7hcp",NA,38088557,NA,"complete",NA,"computer","Desktop or Laptop","Windows 10","Chrome 125.0.0.0","1280x720","1280x559",NA,NA,0,"BIQ (Charlotte)",5,"ABICHDGEF","Passed AC2",NA,"Spreadsheet1","Spreadsheet1",1,"BIQ","Screen 4","iz3the",4,"response","0",3780.3,11207.4,11214.8000000119,3780.3,11207.4,11214.8000000119,1,3780.3,7434.50000001192,0,NA,"Rating Scale","Rating Scale",2,"object-53","BIQ",NA,"SUPPRF02661"
13,1717681533610,"06/06/2024 13:45:33",1717685133610,1,"06/06/2024 15:45:33",180921,1,"task-7hcp",NA,38088557,NA,"complete",NA,"computer","Desktop or Laptop","Windows 10","Chrome 125.0.0.0","1280x720","1280x559",NA,NA,0,"BIQ (Charlotte)",5,"ABICHDGEF","Passed AC2",NA,"Spreadsheet1","Spreadsheet1",1,"BIQ","Screen 4","iz3the",4,"response","0",6428.1,11207.4,11215.6000000238,6428.1,11207.4,11215.6000000238,1,6428.1,4787.50000002384,0,NA,"Rating Scale","Rating Scale",9,"object-60","BIQ",NA,"SUPPRF02661"
14,1717681533612,"06/06/2024 13:45:33",1717685133612,1,"06/06/2024 15:45:33",180921,1,"task-7hcp",NA,38088557,NA,"complete",NA,"computer","Desktop or Laptop","Windows 10","Chrome 125.0.0.0","1280x720","1280x559",NA,NA,0,"BIQ (Charlotte)",5,"ABICHDGEF","Passed AC2",NA,"Spreadsheet1","Spreadsheet1",1,"BIQ","Screen 4","iz3the",4,"response","2",10092,11207.4,11216.7000000179,10092,11207.4,11216.7000000179,1,10092,1124.70000001788,0,NA,"Rating Scale","Rating Scale",16,"object-67","BIQ",NA,"SUPPRF02661"
15,1717681533626,"06/06/2024 13:45:33",1717685133626,1,"06/06/2024 15:45:33",180921,1,"task-7hcp",NA,38088557,NA,"complete",NA,"computer","Desktop or Laptop","Windows 10","Chrome 125.0.0.0","1280x720","1280x559",NA,NA,0,"BIQ (Charlotte)",5,"ABICHDGEF","Passed AC2",NA,"Spreadsheet1","Spreadsheet1",NA,"","","",NA,"info","END",NA,NA,NA,NA,NA,NA,0,NA,NA,NA,NA,"","",NA,"","",NA,"SUPPRF02661"
1,1717681785364,"06/06/2024 13:49:45",1717685385364,1,"06/06/2024 15:49:45",180921,1,"task-7hcp",NA,38088683,NA,"complete",NA,"computer","Desktop or Laptop","Mac OS 10.15.7","Chrome 124.0.0.0","1728x1117","1728x993",NA,NA,0,"BIQ (Charlotte)",5,"CDBEAFIGH","Passed AC2",NA,"Spreadsheet1","Spreadsheet1",NA,"","","",NA,"info","BEGIN",NA,NA,NA,NA,NA,NA,0,NA,NA,NA,NA,"","",NA,"","",NA,"SUPPRF32225"
2,1717681814609,"06/06/2024 13:50:14",1717685414609,1,"06/06/2024 15:50:14",180921,1,"task-7hcp",NA,38088683,NA,"complete",NA,"computer","Desktop or Laptop","Mac OS 10.15.7","Chrome 124.0.0.0","1728x1117","1728x993",NA,NA,0,"BIQ (Charlotte)",5,"CDBEAFIGH","Passed AC2",NA,"Spreadsheet1","Spreadsheet1",1,"BIQ","Screen 1","9dh6eq",1,"continue","",29253.072,29245.472,29253.072,29253.072,29245.472,29253.072,1,29253.072,0,0,NA,"Click To Continue","Continue Button",16,"object-48","BIQ",NA,"SUPPRF32225"
3,1717681814611,"06/06/2024 13:50:14",1717685414611,1,"06/06/2024 15:50:14",180921,1,"task-7hcp",NA,38088683,NA,"complete",NA,"computer","Desktop or Laptop","Mac OS 10.15.7","Chrome 124.0.0.0","1728x1117","1728x993",NA,NA,0,"BIQ (Charlotte)",5,"CDBEAFIGH","Passed AC2",NA,"Spreadsheet1","Spreadsheet1",1,"BIQ","Screen 1","9dh6eq",1,"response","2",16613.072,29245.472,29254.8720000715,16613.072,29245.472,29254.8720000715,1,16613.072,12641.8000000715,0,NA,"Rating Scale","Rating Scale",3,"object-5","BIQ",NA,"SUPPRF32225"
4,1717681814611,"06/06/2024 13:50:14",1717685414611,1,"06/06/2024 15:50:14",180921,1,"task-7hcp",NA,38088683,NA,"complete",NA,"computer","Desktop or Laptop","Mac OS 10.15.7","Chrome 124.0.0.0","1728x1117","1728x993",NA,NA,0,"BIQ (Charlotte)",5,"CDBEAFIGH","Passed AC2",NA,"Spreadsheet1","Spreadsheet1",1,"BIQ","Screen 1","9dh6eq",1,"response","5",26716.372,29245.472,29255.072,26716.372,29245.472,29255.072,1,26716.372,2538.7,0,NA,"Rating Scale","Rating Scale",10,"object-18","BIQ",NA,"SUPPRF32225"
5,1717681836091,"06/06/2024 13:50:36",1717685436091,1,"06/06/2024 15:50:36",180921,1,"task-7hcp",NA,38088683,NA,"complete",NA,"computer","Desktop or Laptop","Mac OS 10.15.7","Chrome 124.0.0.0","1728x1117","1728x993",NA,NA,0,"BIQ (Charlotte)",5,"CDBEAFIGH","Passed AC2",NA,"Spreadsheet1","Spreadsheet1",1,"BIQ","Screen 2","svpz34",2,"continue","",21489.0000000954,21457.6,21489.0000000954,21489.0000000954,21457.6,21489.0000000954,1,21489.0000000954,0,0,NA,"Click To Continue","Continue Button",7,"object-1017","BIQ",NA,"SUPPRF32225"
6,1717681836092,"06/06/2024 13:50:36",1717685436092,1,"06/06/2024 15:50:36",180921,1,"task-7hcp",NA,38088683,NA,"complete",NA,"computer","Desktop or Laptop","Mac OS 10.15.7","Chrome 124.0.0.0","1728x1117","1728x993",NA,NA,0,"BIQ (Charlotte)",5,"CDBEAFIGH","Passed AC2",NA,"Spreadsheet1","Spreadsheet1",1,"BIQ","Screen 2","svpz34",2,"response","4",10846.5,21457.6,21489.4,10846.5,21457.6,21489.4,1,10846.5,10642.9,0,NA,"Rating Scale","Rating Scale",8,"object-118","BIQ",NA,"SUPPRF32225"
7,1717681836092,"06/06/2024 13:50:36",1717685436092,1,"06/06/2024 15:50:36",180921,1,"task-7hcp",NA,38088683,NA,"complete",NA,"computer","Desktop or Laptop","Mac OS 10.15.7","Chrome 124.0.0.0","1728x1117","1728x993",NA,NA,0,"BIQ (Charlotte)",5,"CDBEAFIGH","Passed AC2",NA,"Spreadsheet1","Spreadsheet1",1,"BIQ","Screen 2","svpz34",2,"response","3",20605.4,21457.6,21489.4,20605.4,21457.6,21489.4,1,20605.4,884,0,NA,"Rating Scale","Rating Scale",10,"object-121","BIQ",NA,"SUPPRF32225"
8,1717681859044,"06/06/2024 13:50:59",1717685459044,1,"06/06/2024 15:50:59",180921,1,"task-7hcp",NA,38088683,NA,"complete",NA,"computer","Desktop or Laptop","Mac OS 10.15.7","Chrome 124.0.0.0","1728x1117","1728x993",NA,NA,0,"BIQ (Charlotte)",5,"CDBEAFIGH","Passed AC2",NA,"Spreadsheet1","Spreadsheet1",1,"BIQ","Screen 3","o21mwi",3,"continue","",22984.3000000715,22961.6,22984.3000000715,22984.3000000715,22961.6,22984.3000000715,1,22984.3000000715,0,0,NA,"Click To Continue","Continue Button",15,"object-50","BIQ",NA,"SUPPRF32225"
9,1717681859045,"06/06/2024 13:50:59",1717685459045,1,"06/06/2024 15:50:59",180921,1,"task-7hcp",NA,38088683,NA,"complete",NA,"computer","Desktop or Laptop","Mac OS 10.15.7","Chrome 124.0.0.0","1728x1117","1728x993",NA,NA,0,"BIQ (Charlotte)",5,"CDBEAFIGH","Passed AC2",NA,"Spreadsheet1","Spreadsheet1",1,"BIQ","Screen 3","o21mwi",3,"response","5",13938.6,22961.6,22986.1000000238,13938.6,22961.6,22986.1000000238,1,13938.6,9047.50000002384,0,NA,"Rating Scale","Rating Scale",2,"object-36","BIQ",NA,"SUPPRF32225"
10,1717681859046,"06/06/2024 13:50:59",1717685459046,1,"06/06/2024 15:50:59",180921,1,"task-7hcp",NA,38088683,NA,"complete",NA,"computer","Desktop or Laptop","Mac OS 10.15.7","Chrome 124.0.0.0","1728x1117","1728x993",NA,NA,0,"BIQ (Charlotte)",5,"CDBEAFIGH","Passed AC2",NA,"Spreadsheet1","Spreadsheet1",1,"BIQ","Screen 3","o21mwi",3,"response","5",21901.6,22961.6,22986.2000000477,21901.6,22961.6,22986.2000000477,1,21901.6,1084.60000004768,0,NA,"Rating Scale","Rating Scale",9,"object-86","BIQ",NA,"SUPPRF32225"
11,1717681873998,"06/06/2024 13:51:13",1717685473998,1,"06/06/2024 15:51:13",180921,1,"task-7hcp",NA,38088683,NA,"complete",NA,"computer","Desktop or Laptop","Mac OS 10.15.7","Chrome 124.0.0.0","1728x1117","1728x993",NA,NA,0,"BIQ (Charlotte)",5,"CDBEAFIGH","Passed AC2",NA,"Spreadsheet1","Spreadsheet1",1,"BIQ","Screen 4","iz3the",4,"continue","",14977.0000000238,14959.4,14977.0000000238,14977.0000000238,14959.4,14977.0000000238,1,14977.0000000238,0,0,NA,"Click To Continue","Continue Button",22,"object-73","BIQ",NA,"SUPPRF32225"
12,1717681873999,"06/06/2024 13:51:13",1717685473999,1,"06/06/2024 15:51:13",180921,1,"task-7hcp",NA,38088683,NA,"complete",NA,"computer","Desktop or Laptop","Mac OS 10.15.7","Chrome 124.0.0.0","1728x1117","1728x993",NA,NA,0,"BIQ (Charlotte)",5,"CDBEAFIGH","Passed AC2",NA,"Spreadsheet1","Spreadsheet1",1,"BIQ","Screen 4","iz3the",4,"response","0",4812.89999999999,14959.4,14978.0000000238,4812.89999999999,14959.4,14978.0000000238,1,4812.89999999999,10165.1000000238,0,NA,"Rating Scale","Rating Scale",2,"object-53","BIQ",NA,"SUPPRF32225"
13,1717681873999,"06/06/2024 13:51:13",1717685473999,1,"06/06/2024 15:51:13",180921,1,"task-7hcp",NA,38088683,NA,"complete",NA,"computer","Desktop or Laptop","Mac OS 10.15.7","Chrome 124.0.0.0","1728x1117","1728x993",NA,NA,0,"BIQ (Charlotte)",5,"CDBEAFIGH","Passed AC2",NA,"Spreadsheet1","Spreadsheet1",1,"BIQ","Screen 4","iz3the",4,"response","4",8153.2,14959.4,14978.2000000715,8153.2,14959.4,14978.2000000715,1,8153.2,6825.00000007152,0,NA,"Rating Scale","Rating Scale",9,"object-60","BIQ",NA,"SUPPRF32225"
14,1717681873999,"06/06/2024 13:51:13",1717685473999,1,"06/06/2024 15:51:13",180921,1,"task-7hcp",NA,38088683,NA,"complete",NA,"computer","Desktop or Laptop","Mac OS 10.15.7","Chrome 124.0.0.0","1728x1117","1728x993",NA,NA,0,"BIQ (Charlotte)",5,"CDBEAFIGH","Passed AC2",NA,"Spreadsheet1","Spreadsheet1",1,"BIQ","Screen 4","iz3the",4,"response","6",14366.1,14959.4,14978.3000000954,14366.1,14959.4,14978.3000000954,1,14366.1,612.20000009537,0,NA,"Rating Scale","Rating Scale",16,"object-67","BIQ",NA,"SUPPRF32225"
15,1717681874002,"06/06/2024 13:51:14",1717685474002,1,"06/06/2024 15:51:14",180921,1,"task-7hcp",NA,38088683,NA,"complete",NA,"computer","Desktop or Laptop","Mac OS 10.15.7","Chrome 124.0.0.0","1728x1117","1728x993",NA,NA,0,"BIQ (Charlotte)",5,"CDBEAFIGH","Passed AC2",NA,"Spreadsheet1","Spreadsheet1",NA,"","","",NA,"info","END",NA,NA,NA,NA,NA,NA,0,NA,NA,NA,NA,"","",NA,"","",NA,"SUPPRF32225"
1,1717682070499,"06/06/2024 13:54:30",1717685670499,1,"06/06/2024 15:54:30",180921,1,"task-7hcp",NA,38088809,NA,"complete",NA,"computer","Desktop or Laptop","Windows 10","Chrome 125.0.0.0","1536x864","1536x695",NA,NA,0,"BIQ (Charlotte)",5,"EFDGCHBIA","Passed AC2",NA,"Spreadsheet1","Spreadsheet1",NA,"","","",NA,"info","BEGIN",NA,NA,NA,NA,NA,NA,0,NA,NA,NA,NA,"","",NA,"","",NA,"SUPPRF49978"
2,1717682085828,"06/06/2024 13:54:45",1717685685828,1,"06/06/2024 15:54:45",180921,1,"task-7hcp",NA,38088809,NA,"complete",NA,"computer","Desktop or Laptop","Windows 10","Chrome 125.0.0.0","1536x864","1536x695",NA,NA,0,"BIQ (Charlotte)",5,"EFDGCHBIA","Passed AC2",NA,"Spreadsheet1","Spreadsheet1",1,"BIQ","Screen 1","9dh6eq",1,"continue","",15354.402,15336.602,15354.402,15354.402,15336.602,15354.402,1,15354.402,0,0,NA,"Click To Continue","Continue Button",16,"object-48","BIQ",NA,"SUPPRF49978"
3,1717682085832,"06/06/2024 13:54:45",1717685685832,1,"06/06/2024 15:54:45",180921,1,"task-7hcp",NA,38088809,NA,"complete",NA,"computer","Desktop or Laptop","Windows 10","Chrome 125.0.0.0","1536x864","1536x695",NA,NA,0,"BIQ (Charlotte)",5,"EFDGCHBIA","Passed AC2",NA,"Spreadsheet1","Spreadsheet1",1,"BIQ","Screen 1","9dh6eq",1,"response","4",10390.002,15336.602,15354.402,10390.002,15336.602,15354.402,1,10390.002,4964.4,0,NA,"Rating Scale","Rating Scale",3,"object-5","BIQ",NA,"SUPPRF49978"
4,1717682085833,"06/06/2024 13:54:45",1717685685833,1,"06/06/2024 15:54:45",180921,1,"task-7hcp",NA,38088809,NA,"complete",NA,"computer","Desktop or Laptop","Windows 10","Chrome 125.0.0.0","1536x864","1536x695",NA,NA,0,"BIQ (Charlotte)",5,"EFDGCHBIA","Passed AC2",NA,"Spreadsheet1","Spreadsheet1",1,"BIQ","Screen 1","9dh6eq",1,"response","4",14202.902,15336.602,15354.402,14202.902,15336.602,15354.402,1,14202.902,1151.5,0,NA,"Rating Scale","Rating Scale",10,"object-18","BIQ",NA,"SUPPRF49978"
5,1717682094422,"06/06/2024 13:54:54",1717685694422,1,"06/06/2024 15:54:54",180921,1,"task-7hcp",NA,38088809,NA,"complete",NA,"computer","Desktop or Laptop","Windows 10","Chrome 125.0.0.0","1536x864","1536x695",NA,NA,0,"BIQ (Charlotte)",5,"EFDGCHBIA","Passed AC2",NA,"Spreadsheet1","Spreadsheet1",1,"BIQ","Screen 2","svpz34",2,"continue","",8613.00000004768,8607.4,8613.00000004768,8613.00000004768,8607.4,8613.00000004768,1,8613.00000004768,0,0,NA,"Click To Continue","Continue Button",7,"object-1017","BIQ",NA,"SUPPRF49978"
6,1717682094423,"06/06/2024 13:54:54",1717685694423,1,"06/06/2024 15:54:54",180921,1,"task-7hcp",NA,38088809,NA,"complete",NA,"computer","Desktop or Laptop","Windows 10","Chrome 125.0.0.0","1536x864","1536x695",NA,NA,0,"BIQ (Charlotte)",5,"EFDGCHBIA","Passed AC2",NA,"Spreadsheet1","Spreadsheet1",1,"BIQ","Screen 2","svpz34",2,"response","4",3229.1,8607.4,8614.00000004768,3229.1,8607.4,8614.00000004768,1,3229.1,5384.90000004768,0,NA,"Rating Scale","Rating Scale",8,"object-118","BIQ",NA,"SUPPRF49978"
7,1717682094423,"06/06/2024 13:54:54",1717685694423,1,"06/06/2024 15:54:54",180921,1,"task-7hcp",NA,38088809,NA,"complete",NA,"computer","Desktop or Laptop","Windows 10","Chrome 125.0.0.0","1536x864","1536x695",NA,NA,0,"BIQ (Charlotte)",5,"EFDGCHBIA","Passed AC2",NA,"Spreadsheet1","Spreadsheet1",1,"BIQ","Screen 2","svpz34",2,"response","3",7242.2,8607.4,8614.8,7242.2,8607.4,8614.8,1,7242.2,1372.6,0,NA,"Rating Scale","Rating Scale",10,"object-121","BIQ",NA,"SUPPRF49978"
8,1717682109233,"06/06/2024 13:55:09",1717685709233,1,"06/06/2024 15:55:09",180921,1,"task-7hcp",NA,38088809,NA,"complete",NA,"computer","Desktop or Laptop","Windows 10","Chrome 125.0.0.0","1536x864","1536x695",NA,NA,0,"BIQ (Charlotte)",5,"EFDGCHBIA","Passed AC2",NA,"Spreadsheet1","Spreadsheet1",1,"BIQ","Screen 3","o21mwi",3,"continue","",14816.2000000715,14802.7,14816.2000000715,14816.2000000715,14802.7,14816.2000000715,1,14816.2000000715,0,0,NA,"Click To Continue","Continue Button",15,"object-50","BIQ",NA,"SUPPRF49978"
9,1717682109239,"06/06/2024 13:55:09",1717685709239,1,"06/06/2024 15:55:09",180921,1,"task-7hcp",NA,38088809,NA,"complete",NA,"computer","Desktop or Laptop","Windows 10","Chrome 125.0.0.0","1536x864","1536x695",NA,NA,0,"BIQ (Charlotte)",5,"EFDGCHBIA","Passed AC2",NA,"Spreadsheet1","Spreadsheet1",1,"BIQ","Screen 3","o21mwi",3,"response","3",4246.1,14802.7,14819.4,4246.1,14802.7,14819.4,1,4246.1,10573.3,0,NA,"Rating Scale","Rating Scale",2,"object-36","BIQ",NA,"SUPPRF49978"
10,1717682109241,"06/06/2024 13:55:09",1717685709241,1,"06/06/2024 15:55:09",180921,1,"task-7hcp",NA,38088809,NA,"complete",NA,"computer","Desktop or Laptop","Windows 10","Chrome 125.0.0.0","1536x864","1536x695",NA,NA,0,"BIQ (Charlotte)",5,"EFDGCHBIA","Passed AC2",NA,"Spreadsheet1","Spreadsheet1",1,"BIQ","Screen 3","o21mwi",3,"response","1",12338.7,14802.7,14819.4,12338.7,14802.7,14819.4,1,12338.7,2480.7,0,NA,"Rating Scale","Rating Scale",9,"object-86","BIQ",NA,"SUPPRF49978"
11,1717682125510,"06/06/2024 13:55:25",1717685725510,1,"06/06/2024 15:55:25",180921,1,"task-7hcp",NA,38088809,NA,"complete",NA,"computer","Desktop or Laptop","Windows 10","Chrome 125.0.0.0","1536x864","1536x695",NA,NA,0,"BIQ (Charlotte)",5,"EFDGCHBIA","Passed AC2",NA,"Spreadsheet1","Spreadsheet1",1,"BIQ","Screen 4","iz3the",4,"continue","",16291.2,16284.9,16291.2,16291.2,16284.9,16291.2,1,16291.2,0,0,NA,"Click To Continue","Continue Button",22,"object-73","BIQ",NA,"SUPPRF49978"
12,1717682125515,"06/06/2024 13:55:25",1717685725515,1,"06/06/2024 15:55:25",180921,1,"task-7hcp",NA,38088809,NA,"complete",NA,"computer","Desktop or Laptop","Windows 10","Chrome 125.0.0.0","1536x864","1536x695",NA,NA,0,"BIQ (Charlotte)",5,"EFDGCHBIA","Passed AC2",NA,"Spreadsheet1","Spreadsheet1",1,"BIQ","Screen 4","iz3the",4,"response","1",6693.8,16284.9,16295.8000000238,6693.8,16284.9,16295.8000000238,1,6693.8,9602.00000002384,0,NA,"Rating Scale","Rating Scale",2,"object-53","BIQ",NA,"SUPPRF49978"
13,1717682125515,"06/06/2024 13:55:25",1717685725515,1,"06/06/2024 15:55:25",180921,1,"task-7hcp",NA,38088809,NA,"complete",NA,"computer","Desktop or Laptop","Windows 10","Chrome 125.0.0.0","1536x864","1536x695",NA,NA,0,"BIQ (Charlotte)",5,"EFDGCHBIA","Passed AC2",NA,"Spreadsheet1","Spreadsheet1",1,"BIQ","Screen 4","iz3the",4,"response","2",10473.8,16284.9,16296.6000000954,10473.8,16284.9,16296.6000000954,1,10473.8,5822.80000009537,0,NA,"Rating Scale","Rating Scale",9,"object-60","BIQ",NA,"SUPPRF49978"
14,1717682125516,"06/06/2024 13:55:25",1717685725516,1,"06/06/2024 15:55:25",180921,1,"task-7hcp",NA,38088809,NA,"complete",NA,"computer","Desktop or Laptop","Windows 10","Chrome 125.0.0.0","1536x864","1536x695",NA,NA,0,"BIQ (Charlotte)",5,"EFDGCHBIA","Passed AC2",NA,"Spreadsheet1","Spreadsheet1",1,"BIQ","Screen 4","iz3the",4,"response","4",13487.7,16284.9,16297.1000000954,13487.7,16284.9,16297.1000000954,1,13487.7,2809.40000009537,0,NA,"Rating Scale","Rating Scale",16,"object-67","BIQ",NA,"SUPPRF49978"
15,1717682125524,"06/06/2024 13:55:25",1717685725524,1,"06/06/2024 15:55:25",180921,1,"task-7hcp",NA,38088809,NA,"complete",NA,"computer","Desktop or Laptop","Windows 10","Chrome 125.0.0.0","1536x864","1536x695",NA,NA,0,"BIQ (Charlotte)",5,"EFDGCHBIA","Passed AC2",NA,"Spreadsheet1","Spreadsheet1",NA,"","","",NA,"info","END",NA,NA,NA,NA,NA,NA,0,NA,NA,NA,NA,"","",NA,"","",NA,"SUPPRF49978"
1,1717682225561,"06/06/2024 13:57:05",1717685825561,1,"06/06/2024 15:57:05",180921,1,"task-7hcp",NA,38088888,NA,"complete",NA,"computer","Desktop or Laptop","Windows 10","Chrome 125.0.0.0","1536x864","1536x730",NA,NA,0,"BIQ (Charlotte)",5,"HIGAFBECD","Passed AC2",NA,"Spreadsheet1","Spreadsheet1",NA,"","","",NA,"info","BEGIN",NA,NA,NA,NA,NA,NA,0,NA,NA,NA,NA,"","",NA,"","",NA,"SUPPRF55954"
2,1717682242235,"06/06/2024 13:57:22",1717685842235,1,"06/06/2024 15:57:22",180921,1,"task-7hcp",NA,38088888,NA,"complete",NA,"computer","Desktop or Laptop","Windows 10","Chrome 125.0.0.0","1536x864","1536x730",NA,NA,0,"BIQ (Charlotte)",5,"HIGAFBECD","Passed AC2",NA,"Spreadsheet1","Spreadsheet1",1,"BIQ","Screen 1","9dh6eq",1,"continue","",16676.282,16659.382,16676.282,16676.282,16659.382,16676.282,1,16676.282,0,0,NA,"Click To Continue","Continue Button",16,"object-48","BIQ",NA,"SUPPRF55954"
3,1717682242238,"06/06/2024 13:57:22",1717685842238,1,"06/06/2024 15:57:22",180921,1,"task-7hcp",NA,38088888,NA,"complete",NA,"computer","Desktop or Laptop","Windows 10","Chrome 125.0.0.0","1536x864","1536x730",NA,NA,0,"BIQ (Charlotte)",5,"HIGAFBECD","Passed AC2",NA,"Spreadsheet1","Spreadsheet1",1,"BIQ","Screen 1","9dh6eq",1,"response","6",11261.582,16659.382,16676.282,11261.582,16659.382,16676.282,1,11261.582,5414.7,0,NA,"Rating Scale","Rating Scale",3,"object-5","BIQ",NA,"SUPPRF55954"
4,1717682242238,"06/06/2024 13:57:22",1717685842238,1,"06/06/2024 15:57:22",180921,1,"task-7hcp",NA,38088888,NA,"complete",NA,"computer","Desktop or Laptop","Windows 10","Chrome 125.0.0.0","1536x864","1536x730",NA,NA,0,"BIQ (Charlotte)",5,"HIGAFBECD","Passed AC2",NA,"Spreadsheet1","Spreadsheet1",1,"BIQ","Screen 1","9dh6eq",1,"response","5",15725.782,16659.382,16676.282,15725.782,16659.382,16676.282,1,15725.782,950.499999999995,0,NA,"Rating Scale","Rating Scale",10,"object-18","BIQ",NA,"SUPPRF55954"
5,1717682253699,"06/06/2024 13:57:33",1717685853699,1,"06/06/2024 15:57:33",180921,1,"task-7hcp",NA,38088888,NA,"complete",NA,"computer","Desktop or Laptop","Windows 10","Chrome 125.0.0.0","1536x864","1536x730",NA,NA,0,"BIQ (Charlotte)",5,"HIGAFBECD","Passed AC2",NA,"Spreadsheet1","Spreadsheet1",1,"BIQ","Screen 2","svpz34",2,"continue","",11495.8000001431,11494.3,11495.8000001431,11495.8000001431,11494.3,11495.8000001431,1,11495.8000001431,0,0,NA,"Click To Continue","Continue Button",7,"object-1017","BIQ",NA,"SUPPRF55954"
6,1717682253703,"06/06/2024 13:57:33",1717685853703,1,"06/06/2024 15:57:33",180921,1,"task-7hcp",NA,38088888,NA,"complete",NA,"computer","Desktop or Laptop","Windows 10","Chrome 125.0.0.0","1536x864","1536x730",NA,NA,0,"BIQ (Charlotte)",5,"HIGAFBECD","Passed AC2",NA,"Spreadsheet1","Spreadsheet1",1,"BIQ","Screen 2","svpz34",2,"response","2",5180.7,11494.3,11500.0000001907,5180.7,11494.3,11500.0000001907,1,5180.7,6319.30000019073,0,NA,"Rating Scale","Rating Scale",8,"object-118","BIQ",NA,"SUPPRF55954"
7,1717682253704,"06/06/2024 13:57:33",1717685853704,1,"06/06/2024 15:57:33",180921,1,"task-7hcp",NA,38088888,NA,"complete",NA,"computer","Desktop or Laptop","Windows 10","Chrome 125.0.0.0","1536x864","1536x730",NA,NA,0,"BIQ (Charlotte)",5,"HIGAFBECD","Passed AC2",NA,"Spreadsheet1","Spreadsheet1",1,"BIQ","Screen 2","svpz34",2,"response","6",9545.4,11494.3,11501.5000001907,9545.4,11494.3,11501.5000001907,1,9545.4,1956.10000019073,0,NA,"Rating Scale","Rating Scale",10,"object-121","BIQ",NA,"SUPPRF55954"
8,1717682262705,"06/06/2024 13:57:42",1717685862705,1,"06/06/2024 15:57:42",180921,1,"task-7hcp",NA,38088888,NA,"complete",NA,"computer","Desktop or Laptop","Windows 10","Chrome 125.0.0.0","1536x864","1536x730",NA,NA,0,"BIQ (Charlotte)",5,"HIGAFBECD","Passed AC2",NA,"Spreadsheet1","Spreadsheet1",1,"BIQ","Screen 3","o21mwi",3,"continue","",9007.80000009537,8996.3,9007.80000009537,9007.80000009537,8996.3,9007.80000009537,1,9007.80000009537,0,0,NA,"Click To Continue","Continue Button",15,"object-50","BIQ",NA,"SUPPRF55954"
9,1717682262706,"06/06/2024 13:57:42",1717685862706,1,"06/06/2024 15:57:42",180921,1,"task-7hcp",NA,38088888,NA,"complete",NA,"computer","Desktop or Laptop","Windows 10","Chrome 125.0.0.0","1536x864","1536x730",NA,NA,0,"BIQ (Charlotte)",5,"HIGAFBECD","Passed AC2",NA,"Spreadsheet1","Spreadsheet1",1,"BIQ","Screen 3","o21mwi",3,"response","3",4681.2,8996.3,9009.10000004769,4681.2,8996.3,9009.10000004769,1,4681.2,4327.90000004768,0,NA,"Rating Scale","Rating Scale",2,"object-36","BIQ",NA,"SUPPRF55954"
10,1717682262707,"06/06/2024 13:57:42",1717685862707,1,"06/06/2024 15:57:42",180921,1,"task-7hcp",NA,38088888,NA,"complete",NA,"computer","Desktop or Laptop","Windows 10","Chrome 125.0.0.0","1536x864","1536x730",NA,NA,0,"BIQ (Charlotte)",5,"HIGAFBECD","Passed AC2",NA,"Spreadsheet1","Spreadsheet1",1,"BIQ","Screen 3","o21mwi",3,"response","4",8346.5,8996.3,9009.9,8346.5,8996.3,9009.9,1,8346.5,663.400000000001,0,NA,"Rating Scale","Rating Scale",9,"object-86","BIQ",NA,"SUPPRF55954"
11,1717682276738,"06/06/2024 13:57:56",1717685876738,1,"06/06/2024 15:57:56",180921,1,"task-7hcp",NA,38088888,NA,"complete",NA,"computer","Desktop or Laptop","Windows 10","Chrome 125.0.0.0","1536x864","1536x730",NA,NA,0,"BIQ (Charlotte)",5,"HIGAFBECD","Passed AC2",NA,"Spreadsheet1","Spreadsheet1",1,"BIQ","Screen 4","iz3the",4,"continue","",14043.8,14027.2,14043.8,14043.8,14027.2,14043.8,1,14043.8,0,0,NA,"Click To Continue","Continue Button",22,"object-73","BIQ",NA,"SUPPRF55954"
12,1717682276744,"06/06/2024 13:57:56",1717685876744,1,"06/06/2024 15:57:56",180921,1,"task-7hcp",NA,38088888,NA,"complete",NA,"computer","Desktop or Laptop","Windows 10","Chrome 125.0.0.0","1536x864","1536x730",NA,NA,0,"BIQ (Charlotte)",5,"HIGAFBECD","Passed AC2",NA,"Spreadsheet1","Spreadsheet1",1,"BIQ","Screen 4","iz3the",4,"response","2",5797.4,14027.2,14043.8,5797.4,14027.2,14043.8,1,5797.4,8246.39999999999,0,NA,"Rating Scale","Rating Scale",2,"object-53","BIQ",NA,"SUPPRF55954"
13,1717682276745,"06/06/2024 13:57:56",1717685876745,1,"06/06/2024 15:57:56",180921,1,"task-7hcp",NA,38088888,NA,"complete",NA,"computer","Desktop or Laptop","Windows 10","Chrome 125.0.0.0","1536x864","1536x730",NA,NA,0,"BIQ (Charlotte)",5,"HIGAFBECD","Passed AC2",NA,"Spreadsheet1","Spreadsheet1",1,"BIQ","Screen 4","iz3the",4,"response","2",9329,14027.2,14043.8,9329,14027.2,14043.8,1,9329,4714.8,0,NA,"Rating Scale","Rating Scale",9,"object-60","BIQ",NA,"SUPPRF55954"
14,1717682276745,"06/06/2024 13:57:56",1717685876745,1,"06/06/2024 15:57:56",180921,1,"task-7hcp",NA,38088888,NA,"complete",NA,"computer","Desktop or Laptop","Windows 10","Chrome 125.0.0.0","1536x864","1536x730",NA,NA,0,"BIQ (Charlotte)",5,"HIGAFBECD","Passed AC2",NA,"Spreadsheet1","Spreadsheet1",1,"BIQ","Screen 4","iz3the",4,"response","3",13293.8,14027.2,14043.8,13293.8,14027.2,14043.8,1,13293.8,750,0,NA,"Rating Scale","Rating Scale",16,"object-67","BIQ",NA,"SUPPRF55954"
15,1717682276754,"06/06/2024 13:57:56",1717685876754,1,"06/06/2024 15:57:56",180921,1,"task-7hcp",NA,38088888,NA,"complete",NA,"computer","Desktop or Laptop","Windows 10","Chrome 125.0.0.0","1536x864","1536x730",NA,NA,0,"BIQ (Charlotte)",5,"HIGAFBECD","Passed AC2",NA,"Spreadsheet1","Spreadsheet1",NA,"","","",NA,"info","END",NA,NA,NA,NA,NA,NA,0,NA,NA,NA,NA,"","",NA,"","",NA,"SUPPRF55954"
1,1717682508807,"06/06/2024 14:01:48",1717668108807,-4,"06/06/2024 06:01:48",180921,1,"task-7hcp",NA,38089022,NA,"complete",NA,"computer","Desktop or Laptop","Windows 10","Chrome 125.0.0.0","1536x864","1536x730",NA,NA,0,"BIQ (Charlotte)",5,"FGEHDICAB","Passed AC2",NA,"Spreadsheet1","Spreadsheet1",NA,"","","",NA,"info","BEGIN",NA,NA,NA,NA,NA,NA,0,NA,NA,NA,NA,"","",NA,"","",NA,"SUPPRF77309"
2,1717682548454,"06/06/2024 14:02:28",1717668148454,-4,"06/06/2024 06:02:28",180921,1,"task-7hcp",NA,38089022,NA,"complete",NA,"computer","Desktop or Laptop","Windows 10","Chrome 125.0.0.0","1536x864","1536x730",NA,NA,0,"BIQ (Charlotte)",5,"FGEHDICAB","Passed AC2",NA,"Spreadsheet1","Spreadsheet1",1,"BIQ","Screen 1","9dh6eq",1,"continue","",39662.5,39652.6,39662.5,39662.5,39652.6,39662.5,1,39662.5,0,0,NA,"Click To Continue","Continue Button",16,"object-48","BIQ",NA,"SUPPRF77309"
3,1717682548455,"06/06/2024 14:02:28",1717668148455,-4,"06/06/2024 06:02:28",180921,1,"task-7hcp",NA,38089022,NA,"complete",NA,"computer","Desktop or Laptop","Windows 10","Chrome 125.0.0.0","1536x864","1536x730",NA,NA,0,"BIQ (Charlotte)",5,"FGEHDICAB","Passed AC2",NA,"Spreadsheet1","Spreadsheet1",1,"BIQ","Screen 1","9dh6eq",1,"response","6",27187.3,39652.6,39667.6000000238,27187.3,39652.6,39667.6000000238,1,27187.3,12480.3000000238,0,NA,"Rating Scale","Rating Scale",3,"object-5","BIQ",NA,"SUPPRF77309"
4,1717682548456,"06/06/2024 14:02:28",1717668148456,-4,"06/06/2024 06:02:28",180921,1,"task-7hcp",NA,38089022,NA,"complete",NA,"computer","Desktop or Laptop","Windows 10","Chrome 125.0.0.0","1536x864","1536x730",NA,NA,0,"BIQ (Charlotte)",5,"FGEHDICAB","Passed AC2",NA,"Spreadsheet1","Spreadsheet1",1,"BIQ","Screen 1","9dh6eq",1,"response","4",35103.6,39652.6,39667.7999999523,35103.6,39652.6,39667.7999999523,1,35103.6,4564.19999995232,0,NA,"Rating Scale","Rating Scale",10,"object-18","BIQ",NA,"SUPPRF77309"
5,1717682561478,"06/06/2024 14:02:41",1717668161478,-4,"06/06/2024 06:02:41",180921,1,"task-7hcp",NA,38089022,NA,"complete",NA,"computer","Desktop or Laptop","Windows 10","Chrome 125.0.0.0","1536x864","1536x730",NA,NA,0,"BIQ (Charlotte)",5,"FGEHDICAB","Passed AC2",NA,"Spreadsheet1","Spreadsheet1",1,"BIQ","Screen 2","svpz34",2,"continue","",13038.0000000238,13034.3,13038.0000000238,13038.0000000238,13034.3,13038.0000000238,1,13038.0000000238,0,0,NA,"Click To Continue","Continue Button",7,"object-1017","BIQ",NA,"SUPPRF77309"
6,1717682561480,"06/06/2024 14:02:41",1717668161480,-4,"06/06/2024 06:02:41",180921,1,"task-7hcp",NA,38089022,NA,"complete",NA,"computer","Desktop or Laptop","Windows 10","Chrome 125.0.0.0","1536x864","1536x730",NA,NA,0,"BIQ (Charlotte)",5,"FGEHDICAB","Passed AC2",NA,"Spreadsheet1","Spreadsheet1",1,"BIQ","Screen 2","svpz34",2,"response","8",4101,13034.3,13039.9,4101,13034.3,13039.9,1,4101,8938.9,0,NA,"Rating Scale","Rating Scale",8,"object-118","BIQ",NA,"SUPPRF77309"
7,1717682561481,"06/06/2024 14:02:41",1717668161481,-4,"06/06/2024 06:02:41",180921,1,"task-7hcp",NA,38089022,NA,"complete",NA,"computer","Desktop or Laptop","Windows 10","Chrome 125.0.0.0","1536x864","1536x730",NA,NA,0,"BIQ (Charlotte)",5,"FGEHDICAB","Passed AC2",NA,"Spreadsheet1","Spreadsheet1",1,"BIQ","Screen 2","svpz34",2,"response","3",6900.9,13034.3,13040.1999999523,6900.9,13034.3,13040.1999999523,1,6900.9,6139.29999995232,0,NA,"Rating Scale","Rating Scale",10,"object-121","BIQ",NA,"SUPPRF77309"
8,1717682574995,"06/06/2024 14:02:54",1717668174995,-4,"06/06/2024 06:02:54",180921,1,"task-7hcp",NA,38089022,NA,"complete",NA,"computer","Desktop or Laptop","Windows 10","Chrome 125.0.0.0","1536x864","1536x730",NA,NA,0,"BIQ (Charlotte)",5,"FGEHDICAB","Passed AC2",NA,"Spreadsheet1","Spreadsheet1",1,"BIQ","Screen 3","o21mwi",3,"continue","",13520.1,13516.4,13520.1,13520.1,13516.4,13520.1,1,13520.1,0,0,NA,"Click To Continue","Continue Button",15,"object-50","BIQ",NA,"SUPPRF77309"
9,1717682574997,"06/06/2024 14:02:54",1717668174997,-4,"06/06/2024 06:02:54",180921,1,"task-7hcp",NA,38089022,NA,"complete",NA,"computer","Desktop or Laptop","Windows 10","Chrome 125.0.0.0","1536x864","1536x730",NA,NA,0,"BIQ (Charlotte)",5,"FGEHDICAB","Passed AC2",NA,"Spreadsheet1","Spreadsheet1",1,"BIQ","Screen 3","o21mwi",3,"response","6",4116.6,13516.4,13521.7999999285,4116.6,13516.4,13521.7999999285,1,4116.6,9405.19999992847,0,NA,"Rating Scale","Rating Scale",2,"object-36","BIQ",NA,"SUPPRF77309"
10,1717682574997,"06/06/2024 14:02:54",1717668174997,-4,"06/06/2024 06:02:54",180921,1,"task-7hcp",NA,38089022,NA,"complete",NA,"computer","Desktop or Laptop","Windows 10","Chrome 125.0.0.0","1536x864","1536x730",NA,NA,0,"BIQ (Charlotte)",5,"FGEHDICAB","Passed AC2",NA,"Spreadsheet1","Spreadsheet1",1,"BIQ","Screen 3","o21mwi",3,"response","5",12600.1,13516.4,13522.1,12600.1,13516.4,13522.1,1,12600.1,922,0,NA,"Rating Scale","Rating Scale",9,"object-86","BIQ",NA,"SUPPRF77309"
11,1717682591893,"06/06/2024 14:03:11",1717668191893,-4,"06/06/2024 06:03:11",180921,1,"task-7hcp",NA,38089022,NA,"complete",NA,"computer","Desktop or Laptop","Windows 10","Chrome 125.0.0.0","1536x864","1536x730",NA,NA,0,"BIQ (Charlotte)",5,"FGEHDICAB","Passed AC2",NA,"Spreadsheet1","Spreadsheet1",1,"BIQ","Screen 4","iz3the",4,"continue","",16899.6,16882.9,16899.6,16899.6,16882.9,16899.6,1,16899.6,0,0,NA,"Click To Continue","Continue Button",22,"object-73","BIQ",NA,"SUPPRF77309"
12,1717682591895,"06/06/2024 14:03:11",1717668191895,-4,"06/06/2024 06:03:11",180921,1,"task-7hcp",NA,38089022,NA,"complete",NA,"computer","Desktop or Laptop","Windows 10","Chrome 125.0.0.0","1536x864","1536x730",NA,NA,0,"BIQ (Charlotte)",5,"FGEHDICAB","Passed AC2",NA,"Spreadsheet1","Spreadsheet1",1,"BIQ","Screen 4","iz3the",4,"response","0",7999.59999999999,16882.9,16899.6,7999.59999999999,16882.9,16899.6,1,7999.59999999999,8900,0,NA,"Rating Scale","Rating Scale",2,"object-53","BIQ",NA,"SUPPRF77309"
13,1717682591896,"06/06/2024 14:03:11",1717668191896,-4,"06/06/2024 06:03:11",180921,1,"task-7hcp",NA,38089022,NA,"complete",NA,"computer","Desktop or Laptop","Windows 10","Chrome 125.0.0.0","1536x864","1536x730",NA,NA,0,"BIQ (Charlotte)",5,"FGEHDICAB","Passed AC2",NA,"Spreadsheet1","Spreadsheet1",1,"BIQ","Screen 4","iz3the",4,"response","5",13683,16882.9,16899.6,13683,16882.9,16899.6,1,13683,3216.59999999999,0,NA,"Rating Scale","Rating Scale",9,"object-60","BIQ",NA,"SUPPRF77309"
14,1717682591896,"06/06/2024 14:03:11",1717668191896,-4,"06/06/2024 06:03:11",180921,1,"task-7hcp",NA,38089022,NA,"complete",NA,"computer","Desktop or Laptop","Windows 10","Chrome 125.0.0.0","1536x864","1536x730",NA,NA,0,"BIQ (Charlotte)",5,"FGEHDICAB","Passed AC2",NA,"Spreadsheet1","Spreadsheet1",1,"BIQ","Screen 4","iz3the",4,"response","6",16166.3,16882.9,16899.6,16166.3,16882.9,16899.6,1,16166.3,733.299999999988,0,NA,"Rating Scale","Rating Scale",16,"object-67","BIQ",NA,"SUPPRF77309"
15,1717682591900,"06/06/2024 14:03:11",1717668191900,-4,"06/06/2024 06:03:11",180921,1,"task-7hcp",NA,38089022,NA,"complete",NA,"computer","Desktop or Laptop","Windows 10","Chrome 125.0.0.0","1536x864","1536x730",NA,NA,0,"BIQ (Charlotte)",5,"FGEHDICAB","Passed AC2",NA,"Spreadsheet1","Spreadsheet1",NA,"","","",NA,"info","END",NA,NA,NA,NA,NA,NA,0,NA,NA,NA,NA,"","",NA,"","",NA,"SUPPRF77309"
1,1717682530531,"06/06/2024 14:02:10",1717686130531,1,"06/06/2024 16:02:10",180921,1,"task-7hcp",NA,38089043,NA,"complete",NA,"computer","Desktop or Laptop","Windows 10","Chrome 125.0.0.0","1280x720","1280x585",NA,NA,0,"BIQ (Charlotte)",5,"CDBEAFIGH","Passed AC2",NA,"Spreadsheet1","Spreadsheet1",NA,"","","",NA,"info","BEGIN",NA,NA,NA,NA,NA,NA,0,NA,NA,NA,NA,"","",NA,"","",NA,"SUPPRF54709"
2,1717682554630,"06/06/2024 14:02:34",1717686154630,1,"06/06/2024 16:02:34",180921,1,"task-7hcp",NA,38089043,NA,"complete",NA,"computer","Desktop or Laptop","Windows 10","Chrome 125.0.0.0","1280x720","1280x585",NA,NA,0,"BIQ (Charlotte)",5,"CDBEAFIGH","Passed AC2",NA,"Spreadsheet1","Spreadsheet1",1,"BIQ","Screen 1","9dh6eq",1,"continue","",24109.8500000119,24098.55,24109.8500000119,24109.8500000119,24098.55,24109.8500000119,1,24109.8500000119,0,0,NA,"Click To Continue","Continue Button",16,"object-48","BIQ",NA,"SUPPRF54709"
3,1717682554634,"06/06/2024 14:02:34",1717686154634,1,"06/06/2024 16:02:34",180921,1,"task-7hcp",NA,38089043,NA,"complete",NA,"computer","Desktop or Laptop","Windows 10","Chrome 125.0.0.0","1280x720","1280x585",NA,NA,0,"BIQ (Charlotte)",5,"CDBEAFIGH","Passed AC2",NA,"Spreadsheet1","Spreadsheet1",1,"BIQ","Screen 1","9dh6eq",1,"response","3",9799.25,24098.55,24114.6500000238,9799.25,24098.55,24114.6500000238,1,9799.25,14315.4000000238,0,NA,"Rating Scale","Rating Scale",3,"object-5","BIQ",NA,"SUPPRF54709"
4,1717682554635,"06/06/2024 14:02:34",1717686154635,1,"06/06/2024 16:02:34",180921,1,"task-7hcp",NA,38089043,NA,"complete",NA,"computer","Desktop or Laptop","Windows 10","Chrome 125.0.0.0","1280x720","1280x585",NA,NA,0,"BIQ (Charlotte)",5,"CDBEAFIGH","Passed AC2",NA,"Spreadsheet1","Spreadsheet1",1,"BIQ","Screen 1","9dh6eq",1,"response","6",22548.85,24098.55,24115.25,22548.85,24098.55,24115.25,1,22548.85,1566.4,0,NA,"Rating Scale","Rating Scale",10,"object-18","BIQ",NA,"SUPPRF54709"
5,1717682564086,"06/06/2024 14:02:44",1717686164086,1,"06/06/2024 16:02:44",180921,1,"task-7hcp",NA,38089043,NA,"complete",NA,"computer","Desktop or Laptop","Windows 10","Chrome 125.0.0.0","1280x720","1280x585",NA,NA,0,"BIQ (Charlotte)",5,"CDBEAFIGH","Passed AC2",NA,"Spreadsheet1","Spreadsheet1",1,"BIQ","Screen 2","svpz34",2,"continue","",9468,9450.5,9468,9468,9450.5,9468,1,9468,0,0,NA,"Click To Continue","Continue Button",7,"object-1017","BIQ",NA,"SUPPRF54709"
6,1717682564087,"06/06/2024 14:02:44",1717686164087,1,"06/06/2024 16:02:44",180921,1,"task-7hcp",NA,38089043,NA,"complete",NA,"computer","Desktop or Laptop","Windows 10","Chrome 125.0.0.0","1280x720","1280x585",NA,NA,0,"BIQ (Charlotte)",5,"CDBEAFIGH","Passed AC2",NA,"Spreadsheet1","Spreadsheet1",1,"BIQ","Screen 2","svpz34",2,"response","1",4232.9,9450.5,9468.5,4232.9,9450.5,9468.5,1,4232.9,5235.6,0,NA,"Rating Scale","Rating Scale",8,"object-118","BIQ",NA,"SUPPRF54709"
7,1717682564088,"06/06/2024 14:02:44",1717686164088,1,"06/06/2024 16:02:44",180921,1,"task-7hcp",NA,38089043,NA,"complete",NA,"computer","Desktop or Laptop","Windows 10","Chrome 125.0.0.0","1280x720","1280x585",NA,NA,0,"BIQ (Charlotte)",5,"CDBEAFIGH","Passed AC2",NA,"Spreadsheet1","Spreadsheet1",1,"BIQ","Screen 2","svpz34",2,"response","7",8466.2,9450.5,9468.5,8466.2,9450.5,9468.5,1,8466.2,1002.3,0,NA,"Rating Scale","Rating Scale",10,"object-121","BIQ",NA,"SUPPRF54709"
8,1717682574079,"06/06/2024 14:02:54",1717686174079,1,"06/06/2024 16:02:54",180921,1,"task-7hcp",NA,38089043,NA,"complete",NA,"computer","Desktop or Laptop","Windows 10","Chrome 125.0.0.0","1280x720","1280x585",NA,NA,0,"BIQ (Charlotte)",5,"CDBEAFIGH","Passed AC2",NA,"Spreadsheet1","Spreadsheet1",1,"BIQ","Screen 3","o21mwi",3,"continue","",10010.1999999881,9998.7,10010.1999999881,10010.1999999881,9998.7,10010.1999999881,1,10010.1999999881,0,0,NA,"Click To Continue","Continue Button",15,"object-50","BIQ",NA,"SUPPRF54709"
9,1717682574085,"06/06/2024 14:02:54",1717686174085,1,"06/06/2024 16:02:54",180921,1,"task-7hcp",NA,38089043,NA,"complete",NA,"computer","Desktop or Laptop","Windows 10","Chrome 125.0.0.0","1280x720","1280x585",NA,NA,0,"BIQ (Charlotte)",5,"CDBEAFIGH","Passed AC2",NA,"Spreadsheet1","Spreadsheet1",1,"BIQ","Screen 3","o21mwi",3,"response","3",5198.9,9998.7,10015.7,5198.9,9998.7,10015.7,1,5198.9,4816.8,0,NA,"Rating Scale","Rating Scale",2,"object-36","BIQ",NA,"SUPPRF54709"
10,1717682574086,"06/06/2024 14:02:54",1717686174086,1,"06/06/2024 16:02:54",180921,1,"task-7hcp",NA,38089043,NA,"complete",NA,"computer","Desktop or Laptop","Windows 10","Chrome 125.0.0.0","1280x720","1280x585",NA,NA,0,"BIQ (Charlotte)",5,"CDBEAFIGH","Passed AC2",NA,"Spreadsheet1","Spreadsheet1",1,"BIQ","Screen 3","o21mwi",3,"response","2",8848.6,9998.7,10015.7,8848.6,9998.7,10015.7,1,8848.6,1167.1,0,NA,"Rating Scale","Rating Scale",9,"object-86","BIQ",NA,"SUPPRF54709"
11,1717682585465,"06/06/2024 14:03:05",1717686185465,1,"06/06/2024 16:03:05",180921,1,"task-7hcp",NA,38089043,NA,"complete",NA,"computer","Desktop or Laptop","Windows 10","Chrome 125.0.0.0","1280x720","1280x585",NA,NA,0,"BIQ (Charlotte)",5,"CDBEAFIGH","Passed AC2",NA,"Spreadsheet1","Spreadsheet1",1,"BIQ","Screen 4","iz3the",4,"continue","",11397.9000000238,11382,11397.9000000238,11397.9000000238,11382,11397.9000000238,1,11397.9000000238,0,0,NA,"Click To Continue","Continue Button",22,"object-73","BIQ",NA,"SUPPRF54709"
12,1717682585469,"06/06/2024 14:03:05",1717686185469,1,"06/06/2024 16:03:05",180921,1,"task-7hcp",NA,38089043,NA,"complete",NA,"computer","Desktop or Laptop","Windows 10","Chrome 125.0.0.0","1280x720","1280x585",NA,NA,0,"BIQ (Charlotte)",5,"CDBEAFIGH","Passed AC2",NA,"Spreadsheet1","Spreadsheet1",1,"BIQ","Screen 4","iz3the",4,"response","1",3966,11382,11398,3966,11382,11398,1,3966,7432,0,NA,"Rating Scale","Rating Scale",2,"object-53","BIQ",NA,"SUPPRF54709"
13,1717682585470,"06/06/2024 14:03:05",1717686185470,1,"06/06/2024 16:03:05",180921,1,"task-7hcp",NA,38089043,NA,"complete",NA,"computer","Desktop or Laptop","Windows 10","Chrome 125.0.0.0","1280x720","1280x585",NA,NA,0,"BIQ (Charlotte)",5,"CDBEAFIGH","Passed AC2",NA,"Spreadsheet1","Spreadsheet1",1,"BIQ","Screen 4","iz3the",4,"response","1",6965.7,11382,11398,6965.7,11382,11398,1,6965.7,4432.3,0,NA,"Rating Scale","Rating Scale",9,"object-60","BIQ",NA,"SUPPRF54709"
14,1717682585470,"06/06/2024 14:03:05",1717686185470,1,"06/06/2024 16:03:05",180921,1,"task-7hcp",NA,38089043,NA,"complete",NA,"computer","Desktop or Laptop","Windows 10","Chrome 125.0.0.0","1280x720","1280x585",NA,NA,0,"BIQ (Charlotte)",5,"CDBEAFIGH","Passed AC2",NA,"Spreadsheet1","Spreadsheet1",1,"BIQ","Screen 4","iz3the",4,"response","2",10415.7,11382,11398,10415.7,11382,11398,1,10415.7,982.299999999996,0,NA,"Rating Scale","Rating Scale",16,"object-67","BIQ",NA,"SUPPRF54709"
15,1717682585479,"06/06/2024 14:03:05",1717686185479,1,"06/06/2024 16:03:05",180921,1,"task-7hcp",NA,38089043,NA,"complete",NA,"computer","Desktop or Laptop","Windows 10","Chrome 125.0.0.0","1280x720","1280x585",NA,NA,0,"BIQ (Charlotte)",5,"CDBEAFIGH","Passed AC2",NA,"Spreadsheet1","Spreadsheet1",NA,"","","",NA,"info","END",NA,NA,NA,NA,NA,NA,0,NA,NA,NA,NA,"","",NA,"","",NA,"SUPPRF54709"
1,1717682791206,"06/06/2024 14:06:31",1717686391206,1,"06/06/2024 16:06:31",180921,1,"task-7hcp",NA,38089175,NA,"complete",NA,"computer","Desktop or Laptop","Windows 10","Chrome 125.0.0.0","1536x864","1536x695",NA,NA,0,"BIQ (Charlotte)",5,"EFDGCHBIA","Passed AC2",NA,"Spreadsheet1","Spreadsheet1",NA,"","","",NA,"info","BEGIN",NA,NA,NA,NA,NA,NA,0,NA,NA,NA,NA,"","",NA,"","",NA,"SUPPRF92967"
2,1717682811089,"06/06/2024 14:06:51",1717686411089,1,"06/06/2024 16:06:51",180921,1,"task-7hcp",NA,38089175,NA,"complete",NA,"computer","Desktop or Laptop","Windows 10","Chrome 125.0.0.0","1536x864","1536x695",NA,NA,0,"BIQ (Charlotte)",5,"EFDGCHBIA","Passed AC2",NA,"Spreadsheet1","Spreadsheet1",1,"BIQ","Screen 1","9dh6eq",1,"continue","",19895.2,19890.3,19895.2,19895.2,19890.3,19895.2,1,19895.2,0,0,NA,"Click To Continue","Continue Button",16,"object-48","BIQ",NA,"SUPPRF92967"
3,1717682811091,"06/06/2024 14:06:51",1717686411091,1,"06/06/2024 16:06:51",180921,1,"task-7hcp",NA,38089175,NA,"complete",NA,"computer","Desktop or Laptop","Windows 10","Chrome 125.0.0.0","1536x864","1536x695",NA,NA,0,"BIQ (Charlotte)",5,"EFDGCHBIA","Passed AC2",NA,"Spreadsheet1","Spreadsheet1",1,"BIQ","Screen 1","9dh6eq",1,"response","7",12539.1,19890.3,19896.3,12539.1,19890.3,19896.3,1,12539.1,7357.2,0,NA,"Rating Scale","Rating Scale",3,"object-5","BIQ",NA,"SUPPRF92967"
4,1717682811091,"06/06/2024 14:06:51",1717686411091,1,"06/06/2024 16:06:51",180921,1,"task-7hcp",NA,38089175,NA,"complete",NA,"computer","Desktop or Laptop","Windows 10","Chrome 125.0.0.0","1536x864","1536x695",NA,NA,0,"BIQ (Charlotte)",5,"EFDGCHBIA","Passed AC2",NA,"Spreadsheet1","Spreadsheet1",1,"BIQ","Screen 1","9dh6eq",1,"response","7",18726.8,19890.3,19896.3,18726.8,19890.3,19896.3,1,18726.8,1169.5,0,NA,"Rating Scale","Rating Scale",10,"object-18","BIQ",NA,"SUPPRF92967"
5,1717682820623,"06/06/2024 14:07:00",1717686420623,1,"06/06/2024 16:07:00",180921,1,"task-7hcp",NA,38089175,NA,"complete",NA,"computer","Desktop or Laptop","Windows 10","Chrome 125.0.0.0","1536x864","1536x695",NA,NA,0,"BIQ (Charlotte)",5,"EFDGCHBIA","Passed AC2",NA,"Spreadsheet1","Spreadsheet1",1,"BIQ","Screen 2","svpz34",2,"continue","",9538.69999999982,9533,9538.69999999982,9538.69999999982,9533,9538.69999999982,1,9538.69999999982,0,0,NA,"Click To Continue","Continue Button",7,"object-1017","BIQ",NA,"SUPPRF92967"
6,1717682820623,"06/06/2024 14:07:00",1717686420623,1,"06/06/2024 16:07:00",180921,1,"task-7hcp",NA,38089175,NA,"complete",NA,"computer","Desktop or Laptop","Windows 10","Chrome 125.0.0.0","1536x864","1536x695",NA,NA,0,"BIQ (Charlotte)",5,"EFDGCHBIA","Passed AC2",NA,"Spreadsheet1","Spreadsheet1",1,"BIQ","Screen 2","svpz34",2,"response","0",3824.1,9533,9539.1,3824.1,9533,9539.1,1,3824.1,5715,0,NA,"Rating Scale","Rating Scale",8,"object-118","BIQ",NA,"SUPPRF92967"
7,1717682820623,"06/06/2024 14:07:00",1717686420623,1,"06/06/2024 16:07:00",180921,1,"task-7hcp",NA,38089175,NA,"complete",NA,"computer","Desktop or Laptop","Windows 10","Chrome 125.0.0.0","1536x864","1536x695",NA,NA,0,"BIQ (Charlotte)",5,"EFDGCHBIA","Passed AC2",NA,"Spreadsheet1","Spreadsheet1",1,"BIQ","Screen 2","svpz34",2,"response","8",7048.2,9533,9539.1,7048.2,9533,9539.1,1,7048.2,2490.9,0,NA,"Rating Scale","Rating Scale",10,"object-121","BIQ",NA,"SUPPRF92967"
8,1717682827334,"06/06/2024 14:07:07",1717686427334,1,"06/06/2024 16:07:07",180921,1,"task-7hcp",NA,38089175,NA,"complete",NA,"computer","Desktop or Laptop","Windows 10","Chrome 125.0.0.0","1536x864","1536x695",NA,NA,0,"BIQ (Charlotte)",5,"EFDGCHBIA","Passed AC2",NA,"Spreadsheet1","Spreadsheet1",1,"BIQ","Screen 3","o21mwi",3,"continue","",6717.09999999995,6714.8,6717.09999999995,6717.09999999995,6714.8,6717.09999999995,1,6717.09999999995,0,0,NA,"Click To Continue","Continue Button",15,"object-50","BIQ",NA,"SUPPRF92967"
