"Event.Index","UTC.Timestamp","UTC.Date.and.Time","Local.Timestamp","Local.Timezone","Local.Date.and.Time","Experiment.ID","Experiment.Version","Tree.Node.Key","Repeat.Key","Schedule.ID","Participant.Private.ID","Participant.Starting.Group","Participant.Status","Participant.Completion.Code","Participant.External.Session.ID","Participant.Device.Type","Participant.Device","Participant.OS","Participant.Browser","Participant.Monitor.Size","Participant.Viewport.Size","Checkpoint","Room.ID","Room.Order","Task.Name","Task.Version","order.ot79","branch.g31k","branch.5gtn","Spreadsheet","Trial.Number","Display","Screen","Screen.ID","Screen.Counter","Response.Type","Response","Onset.Time","Clock.Time","Reaction.Time","Absolute.Onset.Time","Absolute.Clock.Time","Absolute.Reaction.Time","Correct","Response.Onset","Response.Duration","Proportion","Tag","Component.Name","Object.Name","Object.Number","Object.ID","Spreadsheet..display","Manipulation..Spreadsheet","Random_ID"
"1",1695838520708,"27/09/2023 18:15:20",1695824120708,-4,"27/09/2023 10:15:20",144636,5,"task-gjqt",NA,31905026,9434076,NA,"complete","lqhvtm","3T111IHZ5KPKFV2VC6YM36UW6JF9RV","computer","Desktop or Laptop","Windows 10","Chrome 116.0.0.0","1364x768","1364x619",NA,NA,0,"BIQ (Charlotte)",3,"ABJCIDHEGF","Passed AC2","","Spreadsheet1",NA,"","","",NA,"5","BEGIN",NA,NA,NA,NA,NA,NA,0,NA,NA,NA,NA,"","",NA,"","",NA,"SUPAMT97235"
"2",1695838526454,"27/09/2023 18:15:26",1695824126454,-4,"27/09/2023 10:15:26",144636,5,"task-gjqt",NA,31905026,9434076,NA,"complete","lqhvtm","3T111IHZ5KPKFV2VC6YM36UW6JF9RV","computer","Desktop or Laptop","Windows 10","Chrome 116.0.0.0","1364x768","1364x619",NA,NA,0,"BIQ (Charlotte)",3,"ABJCIDHEGF","Passed AC2","","Spreadsheet1",1,"BIQ","Screen 1","9dh6eq",1,"continue","",5759.736,5743.07,5759.736,5759.736,5743.07,5759.736,1,5759.736,0,0,NA,"Click To Continue","Continue Button",23,"object-48","BIQ",NA,"SUPAMT97235"
"3",1695838526456,"27/09/2023 18:15:26",1695824126456,-4,"27/09/2023 10:15:26",144636,5,"task-gjqt",NA,31905026,9434076,NA,"complete","lqhvtm","3T111IHZ5KPKFV2VC6YM36UW6JF9RV","computer","Desktop or Laptop","Windows 10","Chrome 116.0.0.0","1364x768","1364x619",NA,NA,0,"BIQ (Charlotte)",3,"ABJCIDHEGF","Passed AC2","","Spreadsheet1",1,"BIQ","Screen 1","9dh6eq",1,"response","3",1583.377,5743.07,5759.736,1583.377,5743.07,5759.736,1,1583.377,4176.359,0,NA,"Rating Scale","Rating Scale",3,"object-5","BIQ",NA,"SUPAMT97235"
"4",1695838526456,"27/09/2023 18:15:26",1695824126456,-4,"27/09/2023 10:15:26",144636,5,"task-gjqt",NA,31905026,9434076,NA,"complete","lqhvtm","3T111IHZ5KPKFV2VC6YM36UW6JF9RV","computer","Desktop or Laptop","Windows 10","Chrome 116.0.0.0","1364x768","1364x619",NA,NA,0,"BIQ (Charlotte)",3,"ABJCIDHEGF","Passed AC2","","Spreadsheet1",1,"BIQ","Screen 1","9dh6eq",1,"response","5",2274.792,5743.07,5759.736,2274.792,5743.07,5759.736,1,2274.792,3484.944,0,NA,"Rating Scale","Rating Scale",10,"object-18","BIQ",NA,"SUPAMT97235"
"5",1695838526457,"27/09/2023 18:15:26",1695824126457,-4,"27/09/2023 10:15:26",144636,5,"task-gjqt",NA,31905026,9434076,NA,"complete","lqhvtm","3T111IHZ5KPKFV2VC6YM36UW6JF9RV","computer","Desktop or Laptop","Windows 10","Chrome 116.0.0.0","1364x768","1364x619",NA,NA,0,"BIQ (Charlotte)",3,"ABJCIDHEGF","Passed AC2","","Spreadsheet1",1,"BIQ","Screen 1","9dh6eq",1,"response","4",2926.132,5743.07,5759.736,2926.132,5743.07,5759.736,1,2926.132,2833.604,0,NA,"Rating Scale","Rating Scale",17,"object-80","BIQ",NA,"SUPAMT97235"
"6",1695838529661,"27/09/2023 18:15:29",1695824129661,-4,"27/09/2023 10:15:29",144636,5,"task-gjqt",NA,31905026,9434076,NA,"complete","lqhvtm","3T111IHZ5KPKFV2VC6YM36UW6JF9RV","computer","Desktop or Laptop","Windows 10","Chrome 116.0.0.0","1364x768","1364x619",NA,NA,0,"BIQ (Charlotte)",3,"ABJCIDHEGF","Passed AC2","","Spreadsheet1",1,"BIQ","Screen 2","o21mwi",2,"continue","",3234.45499990463,3223.785,3234.45499990463,3234.45499990463,3223.785,3234.45499990463,1,3234.45499990463,0,0,NA,"Click To Continue","Continue Button",22,"object-50","BIQ",NA,"SUPAMT97235"
"7",1695838529662,"27/09/2023 18:15:29",1695824129662,-4,"27/09/2023 10:15:29",144636,5,"task-gjqt",NA,31905026,9434076,NA,"complete","lqhvtm","3T111IHZ5KPKFV2VC6YM36UW6JF9RV","computer","Desktop or Laptop","Windows 10","Chrome 116.0.0.0","1364x768","1364x619",NA,NA,0,"BIQ (Charlotte)",3,"ABJCIDHEGF","Passed AC2","","Spreadsheet1",1,"BIQ","Screen 2","o21mwi",2,"response","5",1669.044,3223.785,3235.15499995232,1669.044,3223.785,3235.15499995232,1,1669.044,1566.11099995232,0,NA,"Rating Scale","Rating Scale",2,"object-259","BIQ",NA,"SUPAMT97235"
"8",1695838529662,"27/09/2023 18:15:29",1695824129662,-4,"27/09/2023 10:15:29",144636,5,"task-gjqt",NA,31905026,9434076,NA,"complete","lqhvtm","3T111IHZ5KPKFV2VC6YM36UW6JF9RV","computer","Desktop or Laptop","Windows 10","Chrome 116.0.0.0","1364x768","1364x619",NA,NA,0,"BIQ (Charlotte)",3,"ABJCIDHEGF","Passed AC2","","Spreadsheet1",1,"BIQ","Screen 2","o21mwi",2,"response","5",2172.189,3223.785,3235.55499980926,2172.189,3223.785,3235.55499980926,1,2172.189,1063.36599980926,0,NA,"Rating Scale","Rating Scale",9,"object-36","BIQ",NA,"SUPAMT97235"
"9",1695838529662,"27/09/2023 18:15:29",1695824129662,-4,"27/09/2023 10:15:29",144636,5,"task-gjqt",NA,31905026,9434076,NA,"complete","lqhvtm","3T111IHZ5KPKFV2VC6YM36UW6JF9RV","computer","Desktop or Laptop","Windows 10","Chrome 116.0.0.0","1364x768","1364x619",NA,NA,0,"BIQ (Charlotte)",3,"ABJCIDHEGF","Passed AC2","","Spreadsheet1",1,"BIQ","Screen 2","o21mwi",2,"response","4",2682.36,3223.785,3235.95499990463,2682.36,3223.785,3235.95499990463,1,2682.36,553.594999904633,0,NA,"Rating Scale","Rating Scale",16,"object-86","BIQ",NA,"SUPAMT97235"
"10",1695838532885,"27/09/2023 18:15:32",1695824132885,-4,"27/09/2023 10:15:32",144636,5,"task-gjqt",NA,31905026,9434076,NA,"complete","lqhvtm","3T111IHZ5KPKFV2VC6YM36UW6JF9RV","computer","Desktop or Laptop","Windows 10","Chrome 116.0.0.0","1364x768","1364x619",NA,NA,0,"BIQ (Charlotte)",3,"ABJCIDHEGF","Passed AC2","","Spreadsheet1",1,"BIQ","Screen 3","iz3the",3,"continue","",3234.57,3231.786,3234.57,3234.57,3231.786,3234.57,1,3234.57,0,0,NA,"Click To Continue","Continue Button",22,"object-73","BIQ",NA,"SUPAMT97235"
"11",1695838532889,"27/09/2023 18:15:32",1695824132889,-4,"27/09/2023 10:15:32",144636,5,"task-gjqt",NA,31905026,9434076,NA,"complete","lqhvtm","3T111IHZ5KPKFV2VC6YM36UW6JF9RV","computer","Desktop or Laptop","Windows 10","Chrome 116.0.0.0","1364x768","1364x619",NA,NA,0,"BIQ (Charlotte)",3,"ABJCIDHEGF","Passed AC2","","Spreadsheet1",1,"BIQ","Screen 3","iz3the",3,"response","4",1472.929,3231.786,3238.36999995232,1472.929,3231.786,3238.36999995232,1,1472.929,1765.44099995232,0,NA,"Rating Scale","Rating Scale",2,"object-53","BIQ",NA,"SUPAMT97235"
"12",1695838532889,"27/09/2023 18:15:32",1695824132889,-4,"27/09/2023 10:15:32",144636,5,"task-gjqt",NA,31905026,9434076,NA,"complete","lqhvtm","3T111IHZ5KPKFV2VC6YM36UW6JF9RV","computer","Desktop or Laptop","Windows 10","Chrome 116.0.0.0","1364x768","1364x619",NA,NA,0,"BIQ (Charlotte)",3,"ABJCIDHEGF","Passed AC2","","Spreadsheet1",1,"BIQ","Screen 3","iz3the",3,"response","5",1940.392,3231.786,3238.86999995232,1940.392,3231.786,3238.86999995232,1,1940.392,1298.47799995232,0,NA,"Rating Scale","Rating Scale",9,"object-60","BIQ",NA,"SUPAMT97235"
"13",1695838532889,"27/09/2023 18:15:32",1695824132889,-4,"27/09/2023 10:15:32",144636,5,"task-gjqt",NA,31905026,9434076,NA,"complete","lqhvtm","3T111IHZ5KPKFV2VC6YM36UW6JF9RV","computer","Desktop or Laptop","Windows 10","Chrome 116.0.0.0","1364x768","1364x619",NA,NA,0,"BIQ (Charlotte)",3,"ABJCIDHEGF","Passed AC2","","Spreadsheet1",1,"BIQ","Screen 3","iz3the",3,"response","5",2352.628,3231.786,3239.36999995232,2352.628,3231.786,3239.36999995232,1,2352.628,886.741999952315,0,NA,"Rating Scale","Rating Scale",16,"object-67","BIQ",NA,"SUPAMT97235"
"14",1695838532891,"27/09/2023 18:15:32",1695824132891,-4,"27/09/2023 10:15:32",144636,5,"task-gjqt",NA,31905026,9434076,NA,"complete","lqhvtm","3T111IHZ5KPKFV2VC6YM36UW6JF9RV","computer","Desktop or Laptop","Windows 10","Chrome 116.0.0.0","1364x768","1364x619",NA,NA,0,"BIQ (Charlotte)",3,"ABJCIDHEGF","Passed AC2","","Spreadsheet1",NA,"","","",NA,"5","END",NA,NA,NA,NA,NA,NA,0,NA,NA,NA,NA,"","",NA,"","",NA,"SUPAMT97235"
"1",1695838563569,"27/09/2023 18:16:03",1695824163569,-4,"27/09/2023 10:16:03",144636,5,"task-gjqt",NA,31905046,9434100,NA,"complete","lmlvva","3MH9DQ7572BRAXHKU6Z10Y33HVEGUX","computer","Desktop or Laptop","Windows 10","Chrome 116.0.0.0","1280x800","1280x651",NA,NA,0,"BIQ (Charlotte)",3,"BCADJEIFHG","Passed AC2","","Spreadsheet1",NA,"","","",NA,"5","BEGIN",NA,NA,NA,NA,NA,NA,0,NA,NA,NA,NA,"","",NA,"","",NA,"SUPAMT66053"
"2",1695838566654,"27/09/2023 18:16:06",1695824166654,-4,"27/09/2023 10:16:06",144636,5,"task-gjqt",NA,31905046,9434100,NA,"complete","lmlvva","3MH9DQ7572BRAXHKU6Z10Y33HVEGUX","computer","Desktop or Laptop","Windows 10","Chrome 116.0.0.0","1280x800","1280x651",NA,NA,0,"BIQ (Charlotte)",3,"BCADJEIFHG","Passed AC2","","Spreadsheet1",1,"BIQ","Screen 1","9dh6eq",1,"continue","",3110.549,3093.883,3110.549,3110.549,3093.883,3110.549,1,3110.549,0,0,NA,"Click To Continue","Continue Button",23,"object-48","BIQ",NA,"SUPAMT66053"
"3",1695838566655,"27/09/2023 18:16:06",1695824166655,-4,"27/09/2023 10:16:06",144636,5,"task-gjqt",NA,31905046,9434100,NA,"complete","lmlvva","3MH9DQ7572BRAXHKU6Z10Y33HVEGUX","computer","Desktop or Laptop","Windows 10","Chrome 116.0.0.0","1280x800","1280x651",NA,NA,0,"BIQ (Charlotte)",3,"BCADJEIFHG","Passed AC2","","Spreadsheet1",1,"BIQ","Screen 1","9dh6eq",1,"response","6",1538.612,3093.883,3110.549,1538.612,3093.883,3110.549,1,1538.612,1571.937,0,NA,"Rating Scale","Rating Scale",3,"object-5","BIQ",NA,"SUPAMT66053"
"4",1695838566655,"27/09/2023 18:16:06",1695824166655,-4,"27/09/2023 10:16:06",144636,5,"task-gjqt",NA,31905046,9434100,NA,"complete","lmlvva","3MH9DQ7572BRAXHKU6Z10Y33HVEGUX","computer","Desktop or Laptop","Windows 10","Chrome 116.0.0.0","1280x800","1280x651",NA,NA,0,"BIQ (Charlotte)",3,"BCADJEIFHG","Passed AC2","","Spreadsheet1",1,"BIQ","Screen 1","9dh6eq",1,"response","5",2054.545,3093.883,3110.549,2054.545,3093.883,3110.549,1,2054.545,1056.004,0,NA,"Rating Scale","Rating Scale",10,"object-18","BIQ",NA,"SUPAMT66053"
"5",1695838566656,"27/09/2023 18:16:06",1695824166656,-4,"27/09/2023 10:16:06",144636,5,"task-gjqt",NA,31905046,9434100,NA,"complete","lmlvva","3MH9DQ7572BRAXHKU6Z10Y33HVEGUX","computer","Desktop or Laptop","Windows 10","Chrome 116.0.0.0","1280x800","1280x651",NA,NA,0,"BIQ (Charlotte)",3,"BCADJEIFHG","Passed AC2","","Spreadsheet1",1,"BIQ","Screen 1","9dh6eq",1,"response","6",2564.713,3093.883,3110.549,2564.713,3093.883,3110.549,1,2564.713,545.836,0,NA,"Rating Scale","Rating Scale",17,"object-80","BIQ",NA,"SUPAMT66053"
"6",1695838569493,"27/09/2023 18:16:09",1695824169493,-4,"27/09/2023 10:16:09",144636,5,"task-gjqt",NA,31905046,9434100,NA,"complete","lmlvva","3MH9DQ7572BRAXHKU6Z10Y33HVEGUX","computer","Desktop or Laptop","Windows 10","Chrome 116.0.0.0","1280x800","1280x651",NA,NA,0,"BIQ (Charlotte)",3,"BCADJEIFHG","Passed AC2","","Spreadsheet1",1,"BIQ","Screen 2","o21mwi",2,"continue","",2857.37400009537,2853.704,2857.37400009537,2857.37400009537,2853.704,2857.37400009537,1,2857.37400009537,0,0,NA,"Click To Continue","Continue Button",22,"object-50","BIQ",NA,"SUPAMT66053"
"7",1695838569494,"27/09/2023 18:16:09",1695824169494,-4,"27/09/2023 10:16:09",144636,5,"task-gjqt",NA,31905046,9434100,NA,"complete","lmlvva","3MH9DQ7572BRAXHKU6Z10Y33HVEGUX","computer","Desktop or Laptop","Windows 10","Chrome 116.0.0.0","1280x800","1280x651",NA,NA,0,"BIQ (Charlotte)",3,"BCADJEIFHG","Passed AC2","","Spreadsheet1",1,"BIQ","Screen 2","o21mwi",2,"response","5",1501.861,2853.704,2858.07399990463,1501.861,2853.704,2858.07399990463,1,1501.861,1356.21299990463,0,NA,"Rating Scale","Rating Scale",2,"object-259","BIQ",NA,"SUPAMT66053"
"8",1695838569494,"27/09/2023 18:16:09",1695824169494,-4,"27/09/2023 10:16:09",144636,5,"task-gjqt",NA,31905046,9434100,NA,"complete","lmlvva","3MH9DQ7572BRAXHKU6Z10Y33HVEGUX","computer","Desktop or Laptop","Windows 10","Chrome 116.0.0.0","1280x800","1280x651",NA,NA,0,"BIQ (Charlotte)",3,"BCADJEIFHG","Passed AC2","","Spreadsheet1",1,"BIQ","Screen 2","o21mwi",2,"response","4",1945.354,2853.704,2858.57399990463,1945.354,2853.704,2858.57399990463,1,1945.354,913.219999904633,0,NA,"Rating Scale","Rating Scale",9,"object-36","BIQ",NA,"SUPAMT66053"
"9",1695838569495,"27/09/2023 18:16:09",1695824169495,-4,"27/09/2023 10:16:09",144636,5,"task-gjqt",NA,31905046,9434100,NA,"complete","lmlvva","3MH9DQ7572BRAXHKU6Z10Y33HVEGUX","computer","Desktop or Laptop","Windows 10","Chrome 116.0.0.0","1280x800","1280x651",NA,NA,0,"BIQ (Charlotte)",3,"BCADJEIFHG","Passed AC2","","Spreadsheet1",1,"BIQ","Screen 2","o21mwi",2,"response","5",2495.869,2853.704,2859.17399980927,2495.869,2853.704,2859.17399980927,1,2495.869,363.304999809265,0,NA,"Rating Scale","Rating Scale",16,"object-86","BIQ",NA,"SUPAMT66053"
"10",1695838571876,"27/09/2023 18:16:11",1695824171876,-4,"27/09/2023 10:16:11",144636,5,"task-gjqt",NA,31905046,9434100,NA,"complete","lmlvva","3MH9DQ7572BRAXHKU6Z10Y33HVEGUX","computer","Desktop or Laptop","Windows 10","Chrome 116.0.0.0","1280x800","1280x651",NA,NA,0,"BIQ (Charlotte)",3,"BCADJEIFHG","Passed AC2","","Spreadsheet1",1,"BIQ","Screen 3","iz3the",3,"continue","",2379.744,2369.837,2379.744,2379.744,2369.837,2379.744,1,2379.744,0,0,NA,"Click To Continue","Continue Button",22,"object-73","BIQ",NA,"SUPAMT66053"
"11",1695838571877,"27/09/2023 18:16:11",1695824171877,-4,"27/09/2023 10:16:11",144636,5,"task-gjqt",NA,31905046,9434100,NA,"complete","lmlvva","3MH9DQ7572BRAXHKU6Z10Y33HVEGUX","computer","Desktop or Laptop","Windows 10","Chrome 116.0.0.0","1280x800","1280x651",NA,NA,0,"BIQ (Charlotte)",3,"BCADJEIFHG","Passed AC2","","Spreadsheet1",1,"BIQ","Screen 3","iz3the",3,"response","5",1220.596,2369.837,2379.744,1220.596,2369.837,2379.744,1,1220.596,1159.148,0,NA,"Rating Scale","Rating Scale",2,"object-53","BIQ",NA,"SUPAMT66053"
"12",1695838571877,"27/09/2023 18:16:11",1695824171877,-4,"27/09/2023 10:16:11",144636,5,"task-gjqt",NA,31905046,9434100,NA,"complete","lmlvva","3MH9DQ7572BRAXHKU6Z10Y33HVEGUX","computer","Desktop or Laptop","Windows 10","Chrome 116.0.0.0","1280x800","1280x651",NA,NA,0,"BIQ (Charlotte)",3,"BCADJEIFHG","Passed AC2","","Spreadsheet1",1,"BIQ","Screen 3","iz3the",3,"response","6",1616.162,2369.837,2379.744,1616.162,2369.837,2379.744,1,1616.162,763.581999999999,0,NA,"Rating Scale","Rating Scale",9,"object-60","BIQ",NA,"SUPAMT66053"
"13",1695838571878,"27/09/2023 18:16:11",1695824171878,-4,"27/09/2023 10:16:11",144636,5,"task-gjqt",NA,31905046,9434100,NA,"complete","lmlvva","3MH9DQ7572BRAXHKU6Z10Y33HVEGUX","computer","Desktop or Laptop","Windows 10","Chrome 116.0.0.0","1280x800","1280x651",NA,NA,0,"BIQ (Charlotte)",3,"BCADJEIFHG","Passed AC2","","Spreadsheet1",1,"BIQ","Screen 3","iz3the",3,"response","5",1952.376,2369.837,2379.744,1952.376,2369.837,2379.744,1,1952.376,427.367999999999,0,NA,"Rating Scale","Rating Scale",16,"object-67","BIQ",NA,"SUPAMT66053"
"14",1695838571880,"27/09/2023 18:16:11",1695824171880,-4,"27/09/2023 10:16:11",144636,5,"task-gjqt",NA,31905046,9434100,NA,"complete","lmlvva","3MH9DQ7572BRAXHKU6Z10Y33HVEGUX","computer","Desktop or Laptop","Windows 10","Chrome 116.0.0.0","1280x800","1280x651",NA,NA,0,"BIQ (Charlotte)",3,"BCADJEIFHG","Passed AC2","","Spreadsheet1",NA,"","","",NA,"5","END",NA,NA,NA,NA,NA,NA,0,NA,NA,NA,NA,"","",NA,"","",NA,"SUPAMT66053"
"1",1695860869356,"28/09/2023 00:27:49",1695846469356,-4,"27/09/2023 16:27:49",144636,5,"task-gjqt",NA,31905296,9434148,NA,"complete","xtoiqa","3NXNZ5RS1GWAXCIG3S0GYP3W57L79U","computer","Desktop or Laptop","Windows 10","Chrome 116.0.0.0","1280x1024","1280x875",NA,NA,0,"BIQ (Charlotte)",3,"DECFBGAHJI","Passed AC2","","Spreadsheet1",NA,"","","",NA,"5","BEGIN",NA,NA,NA,NA,NA,NA,0,NA,NA,NA,NA,"","",NA,"","",NA,"SUPAMT90577"
"2",1695860900911,"28/09/2023 00:28:20",1695846500911,-4,"27/09/2023 16:28:20",144636,5,"task-gjqt",NA,31905296,9434148,NA,"complete","xtoiqa","3NXNZ5RS1GWAXCIG3S0GYP3W57L79U","computer","Desktop or Laptop","Windows 10","Chrome 116.0.0.0","1280x1024","1280x875",NA,NA,0,"BIQ (Charlotte)",3,"DECFBGAHJI","Passed AC2","","Spreadsheet1",1,"BIQ","Screen 1","9dh6eq",1,"continue","",31571.593,31540.344,31571.593,31571.593,31540.344,31571.593,1,31571.593,0,0,NA,"Click To Continue","Continue Button",23,"object-48","BIQ",NA,"SUPAMT90577"
"3",1695860900913,"28/09/2023 00:28:20",1695846500913,-4,"27/09/2023 16:28:20",144636,5,"task-gjqt",NA,31905296,9434148,NA,"complete","xtoiqa","3NXNZ5RS1GWAXCIG3S0GYP3W57L79U","computer","Desktop or Laptop","Windows 10","Chrome 116.0.0.0","1280x1024","1280x875",NA,NA,0,"BIQ (Charlotte)",3,"DECFBGAHJI","Passed AC2","","Spreadsheet1",1,"BIQ","Screen 1","9dh6eq",1,"response","6",18672.19,31540.344,31571.593,18672.19,31540.344,31571.593,1,18672.19,12899.403,0,NA,"Rating Scale","Rating Scale",3,"object-5","BIQ",NA,"SUPAMT90577"
"4",1695860900913,"28/09/2023 00:28:20",1695846500913,-4,"27/09/2023 16:28:20",144636,5,"task-gjqt",NA,31905296,9434148,NA,"complete","xtoiqa","3NXNZ5RS1GWAXCIG3S0GYP3W57L79U","computer","Desktop or Laptop","Windows 10","Chrome 116.0.0.0","1280x1024","1280x875",NA,NA,0,"BIQ (Charlotte)",3,"DECFBGAHJI","Passed AC2","","Spreadsheet1",1,"BIQ","Screen 1","9dh6eq",1,"response","4",24804.191,31540.344,31571.593,24804.191,31540.344,31571.593,1,24804.191,6767.40199999999,0,NA,"Rating Scale","Rating Scale",10,"object-18","BIQ",NA,"SUPAMT90577"
"5",1695860900913,"28/09/2023 00:28:20",1695846500913,-4,"27/09/2023 16:28:20",144636,5,"task-gjqt",NA,31905296,9434148,NA,"complete","xtoiqa","3NXNZ5RS1GWAXCIG3S0GYP3W57L79U","computer","Desktop or Laptop","Windows 10","Chrome 116.0.0.0","1280x1024","1280x875",NA,NA,0,"BIQ (Charlotte)",3,"DECFBGAHJI","Passed AC2","","Spreadsheet1",1,"BIQ","Screen 1","9dh6eq",1,"response","6",26702.44,31540.344,31571.593,26702.44,31540.344,31571.593,1,26702.44,4869.15299999999,0,NA,"Rating Scale","Rating Scale",17,"object-80","BIQ",NA,"SUPAMT90577"
"6",1695860926698,"28/09/2023 00:28:46",1695846526698,-4,"27/09/2023 16:28:46",144636,5,"task-gjqt",NA,31905296,9434148,NA,"complete","xtoiqa","3NXNZ5RS1GWAXCIG3S0GYP3W57L79U","computer","Desktop or Laptop","Windows 10","Chrome 116.0.0.0","1280x1024","1280x875",NA,NA,0,"BIQ (Charlotte)",3,"DECFBGAHJI","Passed AC2","","Spreadsheet1",1,"BIQ","Screen 2","o21mwi",2,"continue","",25823.9269999523,25799.648,25823.9269999523,25823.9269999523,25799.648,25823.9269999523,1,25823.9269999523,0,0,NA,"Click To Continue","Continue Button",22,"object-50","BIQ",NA,"SUPAMT90577"
"7",1695860926701,"28/09/2023 00:28:46",1695846526701,-4,"27/09/2023 16:28:46",144636,5,"task-gjqt",NA,31905296,9434148,NA,"complete","xtoiqa","3NXNZ5RS1GWAXCIG3S0GYP3W57L79U","computer","Desktop or Laptop","Windows 10","Chrome 116.0.0.0","1280x1024","1280x875",NA,NA,0,"BIQ (Charlotte)",3,"DECFBGAHJI","Passed AC2","","Spreadsheet1",1,"BIQ","Screen 2","o21mwi",2,"response","3",10186.963,25799.648,25826.7269999046,10186.963,25799.648,25826.7269999046,1,10186.963,15639.7639999046,0,NA,"Rating Scale","Rating Scale",2,"object-259","BIQ",NA,"SUPAMT90577"
"8",1695860926702,"28/09/2023 00:28:46",1695846526702,-4,"27/09/2023 16:28:46",144636,5,"task-gjqt",NA,31905296,9434148,NA,"complete","xtoiqa","3NXNZ5RS1GWAXCIG3S0GYP3W57L79U","computer","Desktop or Laptop","Windows 10","Chrome 116.0.0.0","1280x1024","1280x875",NA,NA,0,"BIQ (Charlotte)",3,"DECFBGAHJI","Passed AC2","","Spreadsheet1",1,"BIQ","Screen 2","o21mwi",2,"response","4",13581.185,25799.648,25827.3269998093,13581.185,25799.648,25827.3269998093,1,13581.185,12246.1419998093,0,NA,"Rating Scale","Rating Scale",9,"object-36","BIQ",NA,"SUPAMT90577"
"9",1695860926702,"28/09/2023 00:28:46",1695846526702,-4,"27/09/2023 16:28:46",144636,5,"task-gjqt",NA,31905296,9434148,NA,"complete","xtoiqa","3NXNZ5RS1GWAXCIG3S0GYP3W57L79U","computer","Desktop or Laptop","Windows 10","Chrome 116.0.0.0","1280x1024","1280x875",NA,NA,0,"BIQ (Charlotte)",3,"DECFBGAHJI","Passed AC2","","Spreadsheet1",1,"BIQ","Screen 2","o21mwi",2,"response","4",24281.027,25799.648,25827.9269999523,24281.027,25799.648,25827.9269999523,1,24281.027,1546.89999995231,0,NA,"Rating Scale","Rating Scale",16,"object-86","BIQ",NA,"SUPAMT90577"
"10",1695860946419,"28/09/2023 00:29:06",1695846546419,-4,"27/09/2023 16:29:06",144636,5,"task-gjqt",NA,31905296,9434148,NA,"complete","xtoiqa","3NXNZ5RS1GWAXCIG3S0GYP3W57L79U","computer","Desktop or Laptop","Windows 10","Chrome 116.0.0.0","1280x1024","1280x875",NA,NA,0,"BIQ (Charlotte)",3,"DECFBGAHJI","Passed AC2","","Spreadsheet1",1,"BIQ","Screen 3","iz3the",3,"continue","",19744.7789999523,19732.109,19744.7789999523,19744.7789999523,19732.109,19744.7789999523,1,19744.7789999523,0,0,NA,"Click To Continue","Continue Button",22,"object-73","BIQ",NA,"SUPAMT90577"
"11",1695860946421,"28/09/2023 00:29:06",1695846546421,-4,"27/09/2023 16:29:06",144636,5,"task-gjqt",NA,31905296,9434148,NA,"complete","xtoiqa","3NXNZ5RS1GWAXCIG3S0GYP3W57L79U","computer","Desktop or Laptop","Windows 10","Chrome 116.0.0.0","1280x1024","1280x875",NA,NA,0,"BIQ (Charlotte)",3,"DECFBGAHJI","Passed AC2","","Spreadsheet1",1,"BIQ","Screen 3","iz3the",3,"response","5",5005.592,19732.109,19747.5789999046,5005.592,19732.109,19747.5789999046,1,5005.592,14741.9869999046,0,NA,"Rating Scale","Rating Scale",2,"object-53","BIQ",NA,"SUPAMT90577"
"12",1695860946422,"28/09/2023 00:29:06",1695846546422,-4,"27/09/2023 16:29:06",144636,5,"task-gjqt",NA,31905296,9434148,NA,"complete","xtoiqa","3NXNZ5RS1GWAXCIG3S0GYP3W57L79U","computer","Desktop or Laptop","Windows 10","Chrome 116.0.0.0","1280x1024","1280x875",NA,NA,0,"BIQ (Charlotte)",3,"DECFBGAHJI","Passed AC2","","Spreadsheet1",1,"BIQ","Screen 3","iz3the",3,"response","6",10599.874,19732.109,19748.2789999523,10599.874,19732.109,19748.2789999523,1,10599.874,9148.40499995231,0,NA,"Rating Scale","Rating Scale",9,"object-60","BIQ",NA,"SUPAMT90577"
"13",1695860946422,"28/09/2023 00:29:06",1695846546422,-4,"27/09/2023 16:29:06",144636,5,"task-gjqt",NA,31905296,9434148,NA,"complete","xtoiqa","3NXNZ5RS1GWAXCIG3S0GYP3W57L79U","computer","Desktop or Laptop","Windows 10","Chrome 116.0.0.0","1280x1024","1280x875",NA,NA,0,"BIQ (Charlotte)",3,"DECFBGAHJI","Passed AC2","","Spreadsheet1",1,"BIQ","Screen 3","iz3the",3,"response","6",12351.98,19732.109,19748.6789998093,12351.98,19732.109,19748.6789998093,1,12351.98,7396.69899980926,0,NA,"Rating Scale","Rating Scale",16,"object-67","BIQ",NA,"SUPAMT90577"
"14",1695860946424,"28/09/2023 00:29:06",1695846546424,-4,"27/09/2023 16:29:06",144636,5,"task-gjqt",NA,31905296,9434148,NA,"complete","xtoiqa","3NXNZ5RS1GWAXCIG3S0GYP3W57L79U","computer","Desktop or Laptop","Windows 10","Chrome 116.0.0.0","1280x1024","1280x875",NA,NA,0,"BIQ (Charlotte)",3,"DECFBGAHJI","Passed AC2","","Spreadsheet1",NA,"","","",NA,"5","END",NA,NA,NA,NA,NA,NA,0,NA,NA,NA,NA,"","",NA,"","",NA,"SUPAMT90577"
"1",1695840497801,"27/09/2023 18:48:17",1695826097801,-4,"27/09/2023 10:48:17",144636,5,"task-gjqt",NA,31905757,9434701,NA,"complete","rdlnde","","computer","Desktop or Laptop","Windows 10","Chrome 116.0.0.0","1366x768","1366x619",NA,NA,0,"BIQ (Charlotte)",3,"FGEHDICJBA","Passed AC2","","Spreadsheet1",NA,"","","",NA,"5","BEGIN",NA,NA,NA,NA,NA,NA,0,NA,NA,NA,NA,"","",NA,"","",NA,"SUPAMT06342"
"2",1695840519065,"27/09/2023 18:48:39",1695826119065,-4,"27/09/2023 10:48:39",144636,5,"task-gjqt",NA,31905757,9434701,NA,"complete","rdlnde","","computer","Desktop or Laptop","Windows 10","Chrome 116.0.0.0","1366x768","1366x619",NA,NA,0,"BIQ (Charlotte)",3,"FGEHDICJBA","Passed AC2","","Spreadsheet1",1,"BIQ","Screen 1","9dh6eq",1,"continue","",21273.0090000954,21259.73,21273.0090000954,21273.0090000954,21259.73,21273.0090000954,1,21273.0090000954,0,0,NA,"Click To Continue","Continue Button",23,"object-48","BIQ",NA,"SUPAMT41927"
"3",1695840519067,"27/09/2023 18:48:39",1695826119067,-4,"27/09/2023 10:48:39",144636,5,"task-gjqt",NA,31905757,9434701,NA,"complete","rdlnde","","computer","Desktop or Laptop","Windows 10","Chrome 116.0.0.0","1366x768","1366x619",NA,NA,0,"BIQ (Charlotte)",3,"FGEHDICJBA","Passed AC2","","Spreadsheet1",1,"BIQ","Screen 1","9dh6eq",1,"response","4",1927.122,21259.73,21275.3090000477,1927.122,21259.73,21275.3090000477,1,1927.122,19348.1870000477,0,NA,"Rating Scale","Rating Scale",3,"object-5","BIQ",NA,NA
"4",1695840519067,"27/09/2023 18:48:39",1695826119067,-4,"27/09/2023 10:48:39",144636,5,"task-gjqt",NA,31905757,9434701,NA,"complete","rdlnde","","computer","Desktop or Laptop","Windows 10","Chrome 116.0.0.0","1366x768","1366x619",NA,NA,0,"BIQ (Charlotte)",3,"FGEHDICJBA","Passed AC2","","Spreadsheet1",1,"BIQ","Screen 1","9dh6eq",1,"response","5",2568.453,21259.73,21275.609,2568.453,21259.73,21275.609,1,2568.453,18707.156,0,NA,"Rating Scale","Rating Scale",10,"object-18","BIQ",NA,NA
"5",1695840519067,"27/09/2023 18:48:39",1695826119067,-4,"27/09/2023 10:48:39",144636,5,"task-gjqt",NA,31905757,9434701,NA,"complete","rdlnde","","computer","Desktop or Laptop","Windows 10","Chrome 116.0.0.0","1366x768","1366x619",NA,NA,0,"BIQ (Charlotte)",3,"FGEHDICJBA","Passed AC2","","Spreadsheet1",1,"BIQ","Screen 1","9dh6eq",1,"response","5",20786.897,21259.73,21275.9090001907,20786.897,21259.73,21275.9090001907,1,20786.897,489.012000190734,0,NA,"Rating Scale","Rating Scale",17,"object-80","BIQ",NA,NA
"6",1695840522056,"27/09/2023 18:48:42",1695826122056,-4,"27/09/2023 10:48:42",144636,5,"task-gjqt",NA,31905757,9434701,NA,"complete","rdlnde","","computer","Desktop or Laptop","Windows 10","Chrome 116.0.0.0","1366x768","1366x619",NA,NA,0,"BIQ (Charlotte)",3,"FGEHDICJBA","Passed AC2","","Spreadsheet1",1,"BIQ","Screen 2","o21mwi",2,"continue","",3004.67900019074,2990.217,3004.67900019074,3004.67900019074,2990.217,3004.67900019074,1,3004.67900019074,0,0,NA,"Click To Continue","Continue Button",22,"object-50","BIQ",NA,NA
"7",1695840522057,"27/09/2023 18:48:42",1695826122057,-4,"27/09/2023 10:48:42",144636,5,"task-gjqt",NA,31905757,9434701,NA,"complete","rdlnde","","computer","Desktop or Laptop","Windows 10","Chrome 116.0.0.0","1366x768","1366x619",NA,NA,0,"BIQ (Charlotte)",3,"FGEHDICJBA","Passed AC2","","Spreadsheet1",1,"BIQ","Screen 2","o21mwi",2,"response","4",1704.332,2990.217,3005.57900004768,1704.332,2990.217,3005.57900004768,1,1704.332,1301.24700004768,0,NA,"Rating Scale","Rating Scale",2,"object-259","BIQ",NA,NA
"8",1695840522057,"27/09/2023 18:48:42",1695826122057,-4,"27/09/2023 10:48:42",144636,5,"task-gjqt",NA,31905757,9434701,NA,"complete","rdlnde","","computer","Desktop or Laptop","Windows 10","Chrome 116.0.0.0","1366x768","1366x619",NA,NA,0,"BIQ (Charlotte)",3,"FGEHDICJBA","Passed AC2","","Spreadsheet1",1,"BIQ","Screen 2","o21mwi",2,"response","5",2021.136,2990.217,3005.879,2021.136,2990.217,3005.879,1,2021.136,984.742999999999,0,NA,"Rating Scale","Rating Scale",9,"object-36","BIQ",NA,NA
"9",1695840522057,"27/09/2023 18:48:42",1695826122057,-4,"27/09/2023 10:48:42",144636,5,"task-gjqt",NA,31905757,9434701,NA,"complete","rdlnde","","computer","Desktop or Laptop","Windows 10","Chrome 116.0.0.0","1366x768","1366x619",NA,NA,0,"BIQ (Charlotte)",3,"FGEHDICJBA","Passed AC2","","Spreadsheet1",1,"BIQ","Screen 2","o21mwi",2,"response","5",2439.028,2990.217,3006.27900009537,2439.028,2990.217,3006.27900009537,1,2439.028,567.251000095366,0,NA,"Rating Scale","Rating Scale",16,"object-86","BIQ",NA,NA
"10",1695840524812,"27/09/2023 18:48:44",1695826124812,-4,"27/09/2023 10:48:44",144636,5,"task-gjqt",NA,31905757,9434701,NA,"complete","rdlnde","","computer","Desktop or Laptop","Windows 10","Chrome 116.0.0.0","1366x768","1366x619",NA,NA,0,"BIQ (Charlotte)",3,"FGEHDICJBA","Passed AC2","","Spreadsheet1",1,"BIQ","Screen 3","iz3the",3,"continue","",2771.06200009537,2761.574,2771.06200009537,2771.06200009537,2761.574,2771.06200009537,1,2771.06200009537,0,0,NA,"Click To Continue","Continue Button",22,"object-73","BIQ",NA,NA
"11",1695840524813,"27/09/2023 18:48:44",1695826124813,-4,"27/09/2023 10:48:44",144636,5,"task-gjqt",NA,31905757,9434701,NA,"complete","rdlnde","","computer","Desktop or Laptop","Windows 10","Chrome 116.0.0.0","1366x768","1366x619",NA,NA,0,"BIQ (Charlotte)",3,"FGEHDICJBA","Passed AC2","","Spreadsheet1",1,"BIQ","Screen 3","iz3the",3,"response","4",1447.993,2761.574,2771.662,1447.993,2761.574,2771.662,1,1447.993,1323.669,0,NA,"Rating Scale","Rating Scale",2,"object-53","BIQ",NA,NA
"12",1695840524813,"27/09/2023 18:48:44",1695826124813,-4,"27/09/2023 10:48:44",144636,5,"task-gjqt",NA,31905757,9434701,NA,"complete","rdlnde","","computer","Desktop or Laptop","Windows 10","Chrome 116.0.0.0","1366x768","1366x619",NA,NA,0,"BIQ (Charlotte)",3,"FGEHDICJBA","Passed AC2","","Spreadsheet1",1,"BIQ","Screen 3","iz3the",3,"response","5",1885.023,2761.574,2772.06200009537,1885.023,2761.574,2772.06200009537,1,1885.023,887.039000095367,0,NA,"Rating Scale","Rating Scale",9,"object-60","BIQ",NA,NA
"13",1695840524813,"27/09/2023 18:48:44",1695826124813,-4,"27/09/2023 10:48:44",144636,5,"task-gjqt",NA,31905757,9434701,NA,"complete","rdlnde","","computer","Desktop or Laptop","Windows 10","Chrome 116.0.0.0","1366x768","1366x619",NA,NA,0,"BIQ (Charlotte)",3,"FGEHDICJBA","Passed AC2","","Spreadsheet1",1,"BIQ","Screen 3","iz3the",3,"response","5",2274.573,2761.574,2772.36200004768,2274.573,2761.574,2772.36200004768,1,2274.573,497.789000047684,0,NA,"Rating Scale","Rating Scale",16,"object-67","BIQ",NA,NA
"14",1695840524815,"27/09/2023 18:48:44",1695826124815,-4,"27/09/2023 10:48:44",144636,5,"task-gjqt",NA,31905757,9434701,NA,"complete","rdlnde","","computer","Desktop or Laptop","Windows 10","Chrome 116.0.0.0","1366x768","1366x619",NA,NA,0,"BIQ (Charlotte)",3,"FGEHDICJBA","Passed AC2","","Spreadsheet1",NA,"","","",NA,"5","END",NA,NA,NA,NA,NA,NA,0,NA,NA,NA,NA,"","",NA,"","",NA,NA
"1",1695840683564,"27/09/2023 18:51:23",1695826283564,-4,"27/09/2023 10:51:23",144636,5,"task-gjqt",NA,31905852,9434766,NA,"complete","jiznez","3NS0A6KXCA78WWBU0TY9HQIIJDWGZP","computer","Desktop or Laptop","Windows 10","Chrome 116.0.0.0","1366x768","1366x619",NA,NA,0,"BIQ (Charlotte)",3,"HIGJFAEBDC","Passed AC2","","Spreadsheet1",NA,"","","",NA,"5","BEGIN",NA,NA,NA,NA,NA,NA,0,NA,NA,NA,NA,"","",NA,"","",NA,"SUPAMT65847"
"2",1695840687732,"27/09/2023 18:51:27",1695826287732,-4,"27/09/2023 10:51:27",144636,5,"task-gjqt",NA,31905852,9434766,NA,"complete","jiznez","3NS0A6KXCA78WWBU0TY9HQIIJDWGZP","computer","Desktop or Laptop","Windows 10","Chrome 116.0.0.0","1366x768","1366x619",NA,NA,0,"BIQ (Charlotte)",3,"HIGJFAEBDC","Passed AC2","","Spreadsheet1",1,"BIQ","Screen 1","9dh6eq",1,"continue","",4191.42100014305,4179.655,4191.42100014305,4191.42100014305,4179.655,4191.42100014305,1,4191.42100014305,0,0,NA,"Click To Continue","Continue Button",23,"object-48","BIQ",NA,"SUPAMT65847"
"3",1695840687732,"27/09/2023 18:51:27",1695826287732,-4,"27/09/2023 10:51:27",144636,5,"task-gjqt",NA,31905852,9434766,NA,"complete","jiznez","3NS0A6KXCA78WWBU0TY9HQIIJDWGZP","computer","Desktop or Laptop","Windows 10","Chrome 116.0.0.0","1366x768","1366x619",NA,NA,0,"BIQ (Charlotte)",3,"HIGJFAEBDC","Passed AC2","","Spreadsheet1",1,"BIQ","Screen 1","9dh6eq",1,"response","6",1953.835,4179.655,4192.62099995232,1953.835,4179.655,4192.62099995232,1,1953.835,2238.78599995232,0,NA,"Rating Scale","Rating Scale",3,"object-5","BIQ",NA,"SUPAMT65847"
"4",1695840687732,"27/09/2023 18:51:27",1695826287732,-4,"27/09/2023 10:51:27",144636,5,"task-gjqt",NA,31905852,9434766,NA,"complete","jiznez","3NS0A6KXCA78WWBU0TY9HQIIJDWGZP","computer","Desktop or Laptop","Windows 10","Chrome 116.0.0.0","1366x768","1366x619",NA,NA,0,"BIQ (Charlotte)",3,"HIGJFAEBDC","Passed AC2","","Spreadsheet1",1,"BIQ","Screen 1","9dh6eq",1,"response","7",2527.021,4179.655,4192.92100014305,2527.021,4179.655,4192.92100014305,1,2527.021,1665.90000014305,0,NA,"Rating Scale","Rating Scale",10,"object-18","BIQ",NA,"SUPAMT65847"
"5",1695840687733,"27/09/2023 18:51:27",1695826287733,-4,"27/09/2023 10:51:27",144636,5,"task-gjqt",NA,31905852,9434766,NA,"complete","jiznez","3NS0A6KXCA78WWBU0TY9HQIIJDWGZP","computer","Desktop or Laptop","Windows 10","Chrome 116.0.0.0","1366x768","1366x619",NA,NA,0,"BIQ (Charlotte)",3,"HIGJFAEBDC","Passed AC2","","Spreadsheet1",1,"BIQ","Screen 1","9dh6eq",1,"response","7",3409.239,4179.655,4193.12099995232,3409.239,4179.655,4193.12099995232,1,3409.239,783.881999952317,0,NA,"Rating Scale","Rating Scale",17,"object-80","BIQ",NA,"SUPAMT65847"
"6",1695840691797,"27/09/2023 18:51:31",1695826291797,-4,"27/09/2023 10:51:31",144636,5,"task-gjqt",NA,31905852,9434766,NA,"complete","jiznez","3NS0A6KXCA78WWBU0TY9HQIIJDWGZP","computer","Desktop or Laptop","Windows 10","Chrome 116.0.0.0","1366x768","1366x619",NA,NA,0,"BIQ (Charlotte)",3,"HIGJFAEBDC","Passed AC2","","Spreadsheet1",1,"BIQ","Screen 2","o21mwi",2,"continue","",4077.36600004768,4064.988,4077.36600004768,4077.36600004768,4064.988,4077.36600004768,1,4077.36600004768,0,0,NA,"Click To Continue","Continue Button",22,"object-50","BIQ",NA,"SUPAMT65847"
"7",1695840691797,"27/09/2023 18:51:31",1695826291797,-4,"27/09/2023 10:51:31",144636,5,"task-gjqt",NA,31905852,9434766,NA,"complete","jiznez","3NS0A6KXCA78WWBU0TY9HQIIJDWGZP","computer","Desktop or Laptop","Windows 10","Chrome 116.0.0.0","1366x768","1366x619",NA,NA,0,"BIQ (Charlotte)",3,"HIGJFAEBDC","Passed AC2","","Spreadsheet1",1,"BIQ","Screen 2","o21mwi",2,"response","6",1762.94,4064.988,4077.76600014305,1762.94,4064.988,4077.76600014305,1,1762.94,2314.82600014305,0,NA,"Rating Scale","Rating Scale",2,"object-259","BIQ",NA,"SUPAMT65847"
"8",1695840691797,"27/09/2023 18:51:31",1695826291797,-4,"27/09/2023 10:51:31",144636,5,"task-gjqt",NA,31905852,9434766,NA,"complete","jiznez","3NS0A6KXCA78WWBU0TY9HQIIJDWGZP","computer","Desktop or Laptop","Windows 10","Chrome 116.0.0.0","1366x768","1366x619",NA,NA,0,"BIQ (Charlotte)",3,"HIGJFAEBDC","Passed AC2","","Spreadsheet1",1,"BIQ","Screen 2","o21mwi",2,"response","5",2403.264,4064.988,4078.166,2403.264,4064.988,4078.166,1,2403.264,1674.902,0,NA,"Rating Scale","Rating Scale",9,"object-36","BIQ",NA,"SUPAMT65847"
"9",1695840691798,"27/09/2023 18:51:31",1695826291798,-4,"27/09/2023 10:51:31",144636,5,"task-gjqt",NA,31905852,9434766,NA,"complete","jiznez","3NS0A6KXCA78WWBU0TY9HQIIJDWGZP","computer","Desktop or Laptop","Windows 10","Chrome 116.0.0.0","1366x768","1366x619",NA,NA,0,"BIQ (Charlotte)",3,"HIGJFAEBDC","Passed AC2","","Spreadsheet1",1,"BIQ","Screen 2","o21mwi",2,"response","6",3058.206,4064.988,4078.46599995232,3058.206,4064.988,4078.46599995232,1,3058.206,1020.25999995232,0,NA,"Rating Scale","Rating Scale",16,"object-86","BIQ",NA,"SUPAMT65847"
"10",1695840695469,"27/09/2023 18:51:35",1695826295469,-4,"27/09/2023 10:51:35",144636,5,"task-gjqt",NA,31905852,9434766,NA,"complete","jiznez","3NS0A6KXCA78WWBU0TY9HQIIJDWGZP","computer","Desktop or Laptop","Windows 10","Chrome 116.0.0.0","1366x768","1366x619",NA,NA,0,"BIQ (Charlotte)",3,"HIGJFAEBDC","Passed AC2","","Spreadsheet1",1,"BIQ","Screen 3","iz3the",3,"continue","",3684.27800014305,3673.352,3684.27800014305,3684.27800014305,3673.352,3684.27800014305,1,3684.27800014305,0,0,NA,"Click To Continue","Continue Button",22,"object-73","BIQ",NA,"SUPAMT65847"
"11",1695840695472,"27/09/2023 18:51:35",1695826295472,-4,"27/09/2023 10:51:35",144636,5,"task-gjqt",NA,31905852,9434766,NA,"complete","jiznez","3NS0A6KXCA78WWBU0TY9HQIIJDWGZP","computer","Desktop or Laptop","Windows 10","Chrome 116.0.0.0","1366x768","1366x619",NA,NA,0,"BIQ (Charlotte)",3,"HIGJFAEBDC","Passed AC2","","Spreadsheet1",1,"BIQ","Screen 3","iz3the",3,"response","7",1808.894,3673.352,3688.07800009537,1808.894,3673.352,3688.07800009537,1,1808.894,1879.18400009537,0,NA,"Rating Scale","Rating Scale",2,"object-53","BIQ",NA,"SUPAMT65847"
"12",1695840695473,"27/09/2023 18:51:35",1695826295473,-4,"27/09/2023 10:51:35",144636,5,"task-gjqt",NA,31905852,9434766,NA,"complete","jiznez","3NS0A6KXCA78WWBU0TY9HQIIJDWGZP","computer","Desktop or Laptop","Windows 10","Chrome 116.0.0.0","1366x768","1366x619",NA,NA,0,"BIQ (Charlotte)",3,"HIGJFAEBDC","Passed AC2","","Spreadsheet1",1,"BIQ","Screen 3","iz3the",3,"response","6",2418.937,3673.352,3688.57800009537,2418.937,3673.352,3688.57800009537,1,2418.937,1269.64100009537,0,NA,"Rating Scale","Rating Scale",9,"object-60","BIQ",NA,"SUPAMT65847"
"13",1695840695473,"27/09/2023 18:51:35",1695826295473,-4,"27/09/2023 10:51:35",144636,5,"task-gjqt",NA,31905852,9434766,NA,"complete","jiznez","3NS0A6KXCA78WWBU0TY9HQIIJDWGZP","computer","Desktop or Laptop","Windows 10","Chrome 116.0.0.0","1366x768","1366x619",NA,NA,0,"BIQ (Charlotte)",3,"HIGJFAEBDC","Passed AC2","","Spreadsheet1",1,"BIQ","Screen 3","iz3the",3,"response","6",3081.274,3673.352,3689.07800009537,3081.274,3673.352,3689.07800009537,1,3081.274,607.804000095368,0,NA,"Rating Scale","Rating Scale",16,"object-67","BIQ",NA,"SUPAMT65847"
"14",1695840695475,"27/09/2023 18:51:35",1695826295475,-4,"27/09/2023 10:51:35",144636,5,"task-gjqt",NA,31905852,9434766,NA,"complete","jiznez","3NS0A6KXCA78WWBU0TY9HQIIJDWGZP","computer","Desktop or Laptop","Windows 10","Chrome 116.0.0.0","1366x768","1366x619",NA,NA,0,"BIQ (Charlotte)",3,"HIGJFAEBDC","Passed AC2","","Spreadsheet1",NA,"","","",NA,"5","END",NA,NA,NA,NA,NA,NA,0,NA,NA,NA,NA,"","",NA,"","",NA,"SUPAMT65847"
"1",1695840258918,"27/09/2023 18:44:18",1695825858918,-4,"27/09/2023 10:44:18",144636,5,"task-gjqt",NA,31905968,9434753,NA,"complete","ivpjlv","3L6L49WXW6WUD2YLY4PSJXEKSA0456","computer","Desktop or Laptop","Windows 10","Chrome 116.0.0.0","1366x768","1366x619",NA,NA,0,"BIQ (Charlotte)",3,"JAIBHCGDFE","Passed AC2","","Spreadsheet1",NA,"","","",NA,"5","BEGIN",NA,NA,NA,NA,NA,NA,0,NA,NA,NA,NA,"","",NA,"","",NA,"SUPAMT32807"
"2",1695840266464,"27/09/2023 18:44:26",1695825866464,-4,"27/09/2023 10:44:26",144636,5,"task-gjqt",NA,31905968,9434753,NA,"complete","ivpjlv","3L6L49WXW6WUD2YLY4PSJXEKSA0456","computer","Desktop or Laptop","Windows 10","Chrome 116.0.0.0","1366x768","1366x619",NA,NA,0,"BIQ (Charlotte)",3,"JAIBHCGDFE","Passed AC2","","Spreadsheet1",1,"BIQ","Screen 1","9dh6eq",1,"continue","",7558.60999997616,7552.491,7558.60999997616,7558.60999997616,7552.491,7558.60999997616,1,7558.60999997616,0,0,NA,"Click To Continue","Continue Button",23,"object-48","BIQ",NA,"SUPAMT32807"
"3",1695840266464,"27/09/2023 18:44:26",1695825866464,-4,"27/09/2023 10:44:26",144636,5,"task-gjqt",NA,31905968,9434753,NA,"complete","ivpjlv","3L6L49WXW6WUD2YLY4PSJXEKSA0456","computer","Desktop or Laptop","Windows 10","Chrome 116.0.0.0","1366x768","1366x619",NA,NA,0,"BIQ (Charlotte)",3,"JAIBHCGDFE","Passed AC2","","Spreadsheet1",1,"BIQ","Screen 1","9dh6eq",1,"response","6",2222.196,7552.491,7560.31000002384,2222.196,7552.491,7560.31000002384,1,2222.196,5338.11400002384,0,NA,"Rating Scale","Rating Scale",3,"object-5","BIQ",NA,"SUPAMT32807"
"4",1695840266465,"27/09/2023 18:44:26",1695825866465,-4,"27/09/2023 10:44:26",144636,5,"task-gjqt",NA,31905968,9434753,NA,"complete","ivpjlv","3L6L49WXW6WUD2YLY4PSJXEKSA0456","computer","Desktop or Laptop","Windows 10","Chrome 116.0.0.0","1366x768","1366x619",NA,NA,0,"BIQ (Charlotte)",3,"JAIBHCGDFE","Passed AC2","","Spreadsheet1",1,"BIQ","Screen 1","9dh6eq",1,"response","4",3182.638,7552.491,7560.71,3182.638,7552.491,7560.71,1,3182.638,4378.072,0,NA,"Rating Scale","Rating Scale",10,"object-18","BIQ",NA,"SUPAMT32807"
"5",1695840266465,"27/09/2023 18:44:26",1695825866465,-4,"27/09/2023 10:44:26",144636,5,"task-gjqt",NA,31905968,9434753,NA,"complete","ivpjlv","3L6L49WXW6WUD2YLY4PSJXEKSA0456","computer","Desktop or Laptop","Windows 10","Chrome 116.0.0.0","1366x768","1366x619",NA,NA,0,"BIQ (Charlotte)",3,"JAIBHCGDFE","Passed AC2","","Spreadsheet1",1,"BIQ","Screen 1","9dh6eq",1,"response","5",3769.334,7552.491,7561.10999997616,3769.334,7552.491,7561.10999997616,1,3769.334,3791.77599997616,0,NA,"Rating Scale","Rating Scale",17,"object-80","BIQ",NA,"SUPAMT32807"
"6",1695840270367,"27/09/2023 18:44:30",1695825870367,-4,"27/09/2023 10:44:30",144636,5,"task-gjqt",NA,31905968,9434753,NA,"complete","ivpjlv","3L6L49WXW6WUD2YLY4PSJXEKSA0456","computer","Desktop or Laptop","Windows 10","Chrome 116.0.0.0","1366x768","1366x619",NA,NA,0,"BIQ (Charlotte)",3,"JAIBHCGDFE","Passed AC2","","Spreadsheet1",1,"BIQ","Screen 2","o21mwi",2,"continue","",3910.719,3904.729,3910.719,3910.719,3904.729,3910.719,1,3910.719,0,0,NA,"Click To Continue","Continue Button",22,"object-50","BIQ",NA,"SUPAMT32807"
"7",1695840270372,"27/09/2023 18:44:30",1695825870372,-4,"27/09/2023 10:44:30",144636,5,"task-gjqt",NA,31905968,9434753,NA,"complete","ivpjlv","3L6L49WXW6WUD2YLY4PSJXEKSA0456","computer","Desktop or Laptop","Windows 10","Chrome 116.0.0.0","1366x768","1366x619",NA,NA,0,"BIQ (Charlotte)",3,"JAIBHCGDFE","Passed AC2","","Spreadsheet1",1,"BIQ","Screen 2","o21mwi",2,"response","5",1520.583,3904.729,3914.81900002384,1520.583,3904.729,3914.81900002384,1,1520.583,2394.23600002384,0,NA,"Rating Scale","Rating Scale",2,"object-259","BIQ",NA,"SUPAMT32807"
"8",1695840270372,"27/09/2023 18:44:30",1695825870372,-4,"27/09/2023 10:44:30",144636,5,"task-gjqt",NA,31905968,9434753,NA,"complete","ivpjlv","3L6L49WXW6WUD2YLY4PSJXEKSA0456","computer","Desktop or Laptop","Windows 10","Chrome 116.0.0.0","1366x768","1366x619",NA,NA,0,"BIQ (Charlotte)",3,"JAIBHCGDFE","Passed AC2","","Spreadsheet1",1,"BIQ","Screen 2","o21mwi",2,"response","5",2321.641,3904.729,3915.51900001192,2321.641,3904.729,3915.51900001192,1,2321.641,1593.87800001192,0,NA,"Rating Scale","Rating Scale",9,"object-36","BIQ",NA,"SUPAMT32807"
"9",1695840270373,"27/09/2023 18:44:30",1695825870373,-4,"27/09/2023 10:44:30",144636,5,"task-gjqt",NA,31905968,9434753,NA,"complete","ivpjlv","3L6L49WXW6WUD2YLY4PSJXEKSA0456","computer","Desktop or Laptop","Windows 10","Chrome 116.0.0.0","1366x768","1366x619",NA,NA,0,"BIQ (Charlotte)",3,"JAIBHCGDFE","Passed AC2","","Spreadsheet1",1,"BIQ","Screen 2","o21mwi",2,"response","4",3022.724,3904.729,3916.41899998808,3022.724,3904.729,3916.41899998808,1,3022.724,893.69499998808,0,NA,"Rating Scale","Rating Scale",16,"object-86","BIQ",NA,"SUPAMT32807"
"10",1695840274557,"27/09/2023 18:44:34",1695825874557,-4,"27/09/2023 10:44:34",144636,5,"task-gjqt",NA,31905968,9434753,NA,"complete","ivpjlv","3L6L49WXW6WUD2YLY4PSJXEKSA0456","computer","Desktop or Laptop","Windows 10","Chrome 116.0.0.0","1366x768","1366x619",NA,NA,0,"BIQ (Charlotte)",3,"JAIBHCGDFE","Passed AC2","","Spreadsheet1",1,"BIQ","Screen 3","iz3the",3,"continue","",4195.68999998808,4179.995,4195.68999998808,4195.68999998808,4179.995,4195.68999998808,1,4195.68999998808,0,0,NA,"Click To Continue","Continue Button",22,"object-73","BIQ",NA,"SUPAMT32807"
"11",1695840274558,"27/09/2023 18:44:34",1695825874558,-4,"27/09/2023 10:44:34",144636,5,"task-gjqt",NA,31905968,9434753,NA,"complete","ivpjlv","3L6L49WXW6WUD2YLY4PSJXEKSA0456","computer","Desktop or Laptop","Windows 10","Chrome 116.0.0.0","1366x768","1366x619",NA,NA,0,"BIQ (Charlotte)",3,"JAIBHCGDFE","Passed AC2","","Spreadsheet1",1,"BIQ","Screen 3","iz3the",3,"response","6",1744.29,4179.995,4196.68999998808,1744.29,4179.995,4196.68999998808,1,1744.29,2452.39999998808,0,NA,"Rating Scale","Rating Scale",2,"object-53","BIQ",NA,"SUPAMT32807"
"12",1695840274559,"27/09/2023 18:44:34",1695825874559,-4,"27/09/2023 10:44:34",144636,5,"task-gjqt",NA,31905968,9434753,NA,"complete","ivpjlv","3L6L49WXW6WUD2YLY4PSJXEKSA0456","computer","Desktop or Laptop","Windows 10","Chrome 116.0.0.0","1366x768","1366x619",NA,NA,0,"BIQ (Charlotte)",3,"JAIBHCGDFE","Passed AC2","","Spreadsheet1",1,"BIQ","Screen 3","iz3the",3,"response","4",2531.57,4179.995,4197.29000001192,2531.57,4179.995,4197.29000001192,1,2531.57,1665.72000001192,0,NA,"Rating Scale","Rating Scale",9,"object-60","BIQ",NA,"SUPAMT32807"
"13",1695840274559,"27/09/2023 18:44:34",1695825874559,-4,"27/09/2023 10:44:34",144636,5,"task-gjqt",NA,31905968,9434753,NA,"complete","ivpjlv","3L6L49WXW6WUD2YLY4PSJXEKSA0456","computer","Desktop or Laptop","Windows 10","Chrome 116.0.0.0","1366x768","1366x619",NA,NA,0,"BIQ (Charlotte)",3,"JAIBHCGDFE","Passed AC2","","Spreadsheet1",1,"BIQ","Screen 3","iz3the",3,"response","5",3146.685,4179.995,4197.88999997616,3146.685,4179.995,4197.88999997616,1,3146.685,1051.20499997616,0,NA,"Rating Scale","Rating Scale",16,"object-67","BIQ",NA,"SUPAMT32807"
"14",1695840274562,"27/09/2023 18:44:34",1695825874562,-4,"27/09/2023 10:44:34",144636,5,"task-gjqt",NA,31905968,9434753,NA,"complete","ivpjlv","3L6L49WXW6WUD2YLY4PSJXEKSA0456","computer","Desktop or Laptop","Windows 10","Chrome 116.0.0.0","1366x768","1366x619",NA,NA,0,"BIQ (Charlotte)",3,"JAIBHCGDFE","Passed AC2","","Spreadsheet1",NA,"","","",NA,"5","END",NA,NA,NA,NA,NA,NA,0,NA,NA,NA,NA,"","",NA,"","",NA,"SUPAMT32807"
"1",1695840921907,"27/09/2023 18:55:21",1695826521907,-4,"27/09/2023 10:55:21",144636,5,"task-gjqt",NA,31905970,9434661,NA,"complete","jvaotd","30BXRYBRPAWI2X109CWK3M01HCNWHY","computer","Desktop or Laptop","Windows 10","Chrome 116.0.0.0","1366x768","1366x619",NA,NA,0,"BIQ (Charlotte)",3,"EFDGCHBIAJ","Passed AC2","","Spreadsheet1",NA,"","","",NA,"5","BEGIN",NA,NA,NA,NA,NA,NA,0,NA,NA,NA,NA,"","",NA,"","",NA,"SUPAMT41746"
"2",1695841075384,"27/09/2023 18:57:55",1695826675384,-4,"27/09/2023 10:57:55",144636,5,"task-gjqt",NA,31905970,9434661,NA,"complete","jvaotd","30BXRYBRPAWI2X109CWK3M01HCNWHY","computer","Desktop or Laptop","Windows 10","Chrome 116.0.0.0","1366x768","1366x619",NA,NA,0,"BIQ (Charlotte)",3,"EFDGCHBIAJ","Passed AC2","","Spreadsheet1",NA,"","","",NA,"5","BEGIN",NA,NA,NA,NA,NA,NA,0,NA,NA,NA,NA,"","",NA,"","",NA,"SUPAMT41746"
"3",1695841079108,"27/09/2023 18:57:59",1695826679108,-4,"27/09/2023 10:57:59",144636,5,"task-gjqt",NA,31905970,9434661,NA,"complete","jvaotd","30BXRYBRPAWI2X109CWK3M01HCNWHY","computer","Desktop or Laptop","Windows 10","Chrome 116.0.0.0","1366x768","1366x619",NA,NA,0,"BIQ (Charlotte)",3,"EFDGCHBIAJ","Passed AC2","","Spreadsheet1",NA,"","","",NA,"5","BEGIN",NA,NA,NA,NA,NA,NA,0,NA,NA,NA,NA,"","",NA,"","",NA,"SUPAMT41746"
"4",1695841277057,"27/09/2023 19:01:17",1695826877057,-4,"27/09/2023 11:01:17",144636,5,"task-gjqt",NA,31905970,9434661,NA,"complete","jvaotd","30BXRYBRPAWI2X109CWK3M01HCNWHY","computer","Desktop or Laptop","Windows 10","Chrome 116.0.0.0","1366x768","1366x619",NA,NA,0,"BIQ (Charlotte)",3,"EFDGCHBIAJ","Passed AC2","","Spreadsheet1",NA,"","","",NA,"5","BEGIN",NA,NA,NA,NA,NA,NA,0,NA,NA,NA,NA,"","",NA,"","",NA,"SUPAMT41746"
"5",1695841287465,"27/09/2023 19:01:27",1695826887465,-4,"27/09/2023 11:01:27",144636,5,"task-gjqt",NA,31905970,9434661,NA,"complete","jvaotd","30BXRYBRPAWI2X109CWK3M01HCNWHY","computer","Desktop or Laptop","Windows 10","Chrome 116.0.0.0","1366x768","1366x619",NA,NA,0,"BIQ (Charlotte)",3,"EFDGCHBIAJ","Passed AC2","","Spreadsheet1",NA,"","","",NA,"5","BEGIN",NA,NA,NA,NA,NA,NA,0,NA,NA,NA,NA,"","",NA,"","",NA,"SUPAMT41746"
"6",1695841297965,"27/09/2023 19:01:37",1695826897965,-4,"27/09/2023 11:01:37",144636,5,"task-gjqt",NA,31905970,9434661,NA,"complete","jvaotd","30BXRYBRPAWI2X109CWK3M01HCNWHY","computer","Desktop or Laptop","Windows 10","Chrome 116.0.0.0","1366x768","1366x619",NA,NA,0,"BIQ (Charlotte)",3,"EFDGCHBIAJ","Passed AC2","","Spreadsheet1",1,"BIQ","Screen 1","9dh6eq",1,"continue","",10516.2729998093,10504.295,10516.2729998093,10516.2729998093,10504.295,10516.2729998093,1,10516.2729998093,0,0,NA,"Click To Continue","Continue Button",23,"object-48","BIQ",NA,"SUPAMT41746"
"7",1695841297967,"27/09/2023 19:01:37",1695826897967,-4,"27/09/2023 11:01:37",144636,5,"task-gjqt",NA,31905970,9434661,NA,"complete","jvaotd","30BXRYBRPAWI2X109CWK3M01HCNWHY","computer","Desktop or Laptop","Windows 10","Chrome 116.0.0.0","1366x768","1366x619",NA,NA,0,"BIQ (Charlotte)",3,"EFDGCHBIAJ","Passed AC2","","Spreadsheet1",1,"BIQ","Screen 1","9dh6eq",1,"response","5",6001.627,10504.295,10518.4729998569,6001.627,10504.295,10518.4729998569,1,6001.627,4516.84599985695,0,NA,"Rating Scale","Rating Scale",3,"object-5","BIQ",NA,"SUPAMT41746"
"8",1695841297967,"27/09/2023 19:01:37",1695826897967,-4,"27/09/2023 11:01:37",144636,5,"task-gjqt",NA,31905970,9434661,NA,"complete","jvaotd","30BXRYBRPAWI2X109CWK3M01HCNWHY","computer","Desktop or Laptop","Windows 10","Chrome 116.0.0.0","1366x768","1366x619",NA,NA,0,"BIQ (Charlotte)",3,"EFDGCHBIAJ","Passed AC2","","Spreadsheet1",1,"BIQ","Screen 1","9dh6eq",1,"response","3",6659.852,10504.295,10518.7729998093,6659.852,10504.295,10518.7729998093,1,6659.852,3858.92099980926,0,NA,"Rating Scale","Rating Scale",10,"object-18","BIQ",NA,"SUPAMT41746"
"9",1695841297968,"27/09/2023 19:01:37",1695826897968,-4,"27/09/2023 11:01:37",144636,5,"task-gjqt",NA,31905970,9434661,NA,"complete","jvaotd","30BXRYBRPAWI2X109CWK3M01HCNWHY","computer","Desktop or Laptop","Windows 10","Chrome 116.0.0.0","1366x768","1366x619",NA,NA,0,"BIQ (Charlotte)",3,"EFDGCHBIAJ","Passed AC2","","Spreadsheet1",1,"BIQ","Screen 1","9dh6eq",1,"response","5",8187.299,10504.295,10518.9729998569,8187.299,10504.295,10518.9729998569,1,8187.299,2331.67399985695,0,NA,"Rating Scale","Rating Scale",17,"object-80","BIQ",NA,"SUPAMT41746"
"10",1695841301834,"27/09/2023 19:01:41",1695826901834,-4,"27/09/2023 11:01:41",144636,5,"task-gjqt",NA,31905970,9434661,NA,"complete","jvaotd","30BXRYBRPAWI2X109CWK3M01HCNWHY","computer","Desktop or Laptop","Windows 10","Chrome 116.0.0.0","1366x768","1366x619",NA,NA,0,"BIQ (Charlotte)",3,"EFDGCHBIAJ","Passed AC2","","Spreadsheet1",1,"BIQ","Screen 2","o21mwi",2,"continue","",3881.57799995232,3866.083,3881.57799995232,3881.57799995232,3866.083,3881.57799995232,1,3881.57799995232,0,0,NA,"Click To Continue","Continue Button",22,"object-50","BIQ",NA,"SUPAMT41746"
"11",1695841301835,"27/09/2023 19:01:41",1695826901835,-4,"27/09/2023 11:01:41",144636,5,"task-gjqt",NA,31905970,9434661,NA,"complete","jvaotd","30BXRYBRPAWI2X109CWK3M01HCNWHY","computer","Desktop or Laptop","Windows 10","Chrome 116.0.0.0","1366x768","1366x619",NA,NA,0,"BIQ (Charlotte)",3,"EFDGCHBIAJ","Passed AC2","","Spreadsheet1",1,"BIQ","Screen 2","o21mwi",2,"response","5",1534.397,3866.083,3882.07799995232,1534.397,3866.083,3882.07799995232,1,1534.397,2347.68099995232,0,NA,"Rating Scale","Rating Scale",2,"object-259","BIQ",NA,"SUPAMT41746"
"12",1695841301835,"27/09/2023 19:01:41",1695826901835,-4,"27/09/2023 11:01:41",144636,5,"task-gjqt",NA,31905970,9434661,NA,"complete","jvaotd","30BXRYBRPAWI2X109CWK3M01HCNWHY","computer","Desktop or Laptop","Windows 10","Chrome 116.0.0.0","1366x768","1366x619",NA,NA,0,"BIQ (Charlotte)",3,"EFDGCHBIAJ","Passed AC2","","Spreadsheet1",1,"BIQ","Screen 2","o21mwi",2,"response","6",2129.869,3866.083,3882.37799990463,2129.869,3866.083,3882.37799990463,1,2129.869,1752.50899990463,0,NA,"Rating Scale","Rating Scale",9,"object-36","BIQ",NA,"SUPAMT41746"
"13",1695841301835,"27/09/2023 19:01:41",1695826901835,-4,"27/09/2023 11:01:41",144636,5,"task-gjqt",NA,31905970,9434661,NA,"complete","jvaotd","30BXRYBRPAWI2X109CWK3M01HCNWHY","computer","Desktop or Laptop","Windows 10","Chrome 116.0.0.0","1366x768","1366x619",NA,NA,0,"BIQ (Charlotte)",3,"EFDGCHBIAJ","Passed AC2","","Spreadsheet1",1,"BIQ","Screen 2","o21mwi",2,"response","6",2933.207,3866.083,3882.749,2933.207,3866.083,3882.749,1,2933.207,949.542000000001,0,NA,"Rating Scale","Rating Scale",16,"object-86","BIQ",NA,"SUPAMT41746"
"14",1695841305194,"27/09/2023 19:01:45",1695826905194,-4,"27/09/2023 11:01:45",144636,5,"task-gjqt",NA,31905970,9434661,NA,"complete","jvaotd","30BXRYBRPAWI2X109CWK3M01HCNWHY","computer","Desktop or Laptop","Windows 10","Chrome 116.0.0.0","1366x768","1366x619",NA,NA,0,"BIQ (Charlotte)",3,"EFDGCHBIAJ","Passed AC2","","Spreadsheet1",1,"BIQ","Screen 3","iz3the",3,"continue","",3374.89499980926,3358.625,3374.89499980926,3374.89499980926,3358.625,3374.89499980926,1,3374.89499980926,0,0,NA,"Click To Continue","Continue Button",22,"object-73","BIQ",NA,"SUPAMT41746"
"15",1695841305194,"27/09/2023 19:01:45",1695826905194,-4,"27/09/2023 11:01:45",144636,5,"task-gjqt",NA,31905970,9434661,NA,"complete","jvaotd","30BXRYBRPAWI2X109CWK3M01HCNWHY","computer","Desktop or Laptop","Windows 10","Chrome 116.0.0.0","1366x768","1366x619",NA,NA,0,"BIQ (Charlotte)",3,"EFDGCHBIAJ","Passed AC2","","Spreadsheet1",1,"BIQ","Screen 3","iz3the",3,"response","5",1449.622,3358.625,3375.291,1449.622,3358.625,3375.291,1,1449.622,1925.669,0,NA,"Rating Scale","Rating Scale",2,"object-53","BIQ",NA,"SUPAMT41746"
"16",1695841305195,"27/09/2023 19:01:45",1695826905195,-4,"27/09/2023 11:01:45",144636,5,"task-gjqt",NA,31905970,9434661,NA,"complete","jvaotd","30BXRYBRPAWI2X109CWK3M01HCNWHY","computer","Desktop or Laptop","Windows 10","Chrome 116.0.0.0","1366x768","1366x619",NA,NA,0,"BIQ (Charlotte)",3,"EFDGCHBIAJ","Passed AC2","","Spreadsheet1",1,"BIQ","Screen 3","iz3the",3,"response","4",2121.93,3358.625,3375.291,2121.93,3358.625,3375.291,1,2121.93,1253.361,0,NA,"Rating Scale","Rating Scale",9,"object-60","BIQ",NA,"SUPAMT41746"
"17",1695841305195,"27/09/2023 19:01:45",1695826905195,-4,"27/09/2023 11:01:45",144636,5,"task-gjqt",NA,31905970,9434661,NA,"complete","jvaotd","30BXRYBRPAWI2X109CWK3M01HCNWHY","computer","Desktop or Laptop","Windows 10","Chrome 116.0.0.0","1366x768","1366x619",NA,NA,0,"BIQ (Charlotte)",3,"EFDGCHBIAJ","Passed AC2","","Spreadsheet1",1,"BIQ","Screen 3","iz3the",3,"response","4",2560.665,3358.625,3375.291,2560.665,3358.625,3375.291,1,2560.665,814.626,0,NA,"Rating Scale","Rating Scale",16,"object-67","BIQ",NA,"SUPAMT41746"
"18",1695841305196,"27/09/2023 19:01:45",1695826905196,-4,"27/09/2023 11:01:45",144636,5,"task-gjqt",NA,31905970,9434661,NA,"complete","jvaotd","30BXRYBRPAWI2X109CWK3M01HCNWHY","computer","Desktop or Laptop","Windows 10","Chrome 116.0.0.0","1366x768","1366x619",NA,NA,0,"BIQ (Charlotte)",3,"EFDGCHBIAJ","Passed AC2","","Spreadsheet1",NA,"","","",NA,"5","END",NA,NA,NA,NA,NA,NA,0,NA,NA,NA,NA,"","",NA,"","",NA,"SUPAMT41746"
"1",1695851727517,"27/09/2023 21:55:27",1695826527517,-7,"27/09/2023 07:55:27",144636,5,"task-gjqt",NA,31905974,9434773,NA,"complete","amahdm","336KAV9KYWRICCTI5SB11FFF30N2Y1","computer","Desktop or Laptop","Windows 10","Chrome 117.0.0.0","1360x768","1360x651",NA,NA,0,"BIQ (Charlotte)",3,"EFDGCHBIAJ","Passed AC2","","Spreadsheet1",NA,"","","",NA,"5","BEGIN",NA,NA,NA,NA,NA,NA,0,NA,NA,NA,NA,"","",NA,"","",NA,"SUPAMT68806"
"2",1695851760490,"27/09/2023 21:56:00",1695826560490,-7,"27/09/2023 07:56:00",144636,5,"task-gjqt",NA,31905974,9434773,NA,"complete","amahdm","336KAV9KYWRICCTI5SB11FFF30N2Y1","computer","Desktop or Laptop","Windows 10","Chrome 117.0.0.0","1360x768","1360x651",NA,NA,0,"BIQ (Charlotte)",3,"EFDGCHBIAJ","Passed AC2","","Spreadsheet1",1,"BIQ","Screen 1","9dh6eq",1,"continue","",33000.827,32984.16,33000.827,33000.827,32984.16,33000.827,1,33000.827,0,0,NA,"Click To Continue","Continue Button",23,"object-48","BIQ",NA,"SUPAMT68806"
"3",1695851760497,"27/09/2023 21:56:00",1695826560497,-7,"27/09/2023 07:56:00",144636,5,"task-gjqt",NA,31905974,9434773,NA,"complete","amahdm","336KAV9KYWRICCTI5SB11FFF30N2Y1","computer","Desktop or Laptop","Windows 10","Chrome 117.0.0.0","1360x768","1360x651",NA,NA,0,"BIQ (Charlotte)",3,"EFDGCHBIAJ","Passed AC2","","Spreadsheet1",1,"BIQ","Screen 1","9dh6eq",1,"response","6",24919.179,32984.16,33000.827,24919.179,32984.16,33000.827,1,24919.179,8081.648,0,NA,"Rating Scale","Rating Scale",3,"object-5","BIQ",NA,"SUPAMT68806"
"4",1695851760500,"27/09/2023 21:56:00",1695826560500,-7,"27/09/2023 07:56:00",144636,5,"task-gjqt",NA,31905974,9434773,NA,"complete","amahdm","336KAV9KYWRICCTI5SB11FFF30N2Y1","computer","Desktop or Laptop","Windows 10","Chrome 117.0.0.0","1360x768","1360x651",NA,NA,0,"BIQ (Charlotte)",3,"EFDGCHBIAJ","Passed AC2","","Spreadsheet1",1,"BIQ","Screen 1","9dh6eq",1,"response","8",26383.298,32984.16,33000.827,26383.298,32984.16,33000.827,1,26383.298,6617.529,0,NA,"Rating Scale","Rating Scale",10,"object-18","BIQ",NA,"SUPAMT68806"
"5",1695851760502,"27/09/2023 21:56:00",1695826560502,-7,"27/09/2023 07:56:00",144636,5,"task-gjqt",NA,31905974,9434773,NA,"complete","amahdm","336KAV9KYWRICCTI5SB11FFF30N2Y1","computer","Desktop or Laptop","Windows 10","Chrome 117.0.0.0","1360x768","1360x651",NA,NA,0,"BIQ (Charlotte)",3,"EFDGCHBIAJ","Passed AC2","","Spreadsheet1",1,"BIQ","Screen 1","9dh6eq",1,"response","2",31227.387,32984.16,33000.827,31227.387,32984.16,33000.827,1,31227.387,1773.44,0,NA,"Rating Scale","Rating Scale",17,"object-80","BIQ",NA,"SUPAMT68806"
"6",1695851771435,"27/09/2023 21:56:11",1695826571435,-7,"27/09/2023 07:56:11",144636,5,"task-gjqt",NA,31905974,9434773,NA,"complete","amahdm","336KAV9KYWRICCTI5SB11FFF30N2Y1","computer","Desktop or Laptop","Windows 10","Chrome 117.0.0.0","1360x768","1360x651",NA,NA,0,"BIQ (Charlotte)",3,"EFDGCHBIAJ","Passed AC2","","Spreadsheet1",1,"BIQ","Screen 2","o21mwi",2,"continue","",10972.401,10958.276,10972.401,10972.401,10958.276,10972.401,1,10972.401,0,0,NA,"Click To Continue","Continue Button",22,"object-50","BIQ",NA,"SUPAMT68806"
"7",1695851771441,"27/09/2023 21:56:11",1695826571441,-7,"27/09/2023 07:56:11",144636,5,"task-gjqt",NA,31905974,9434773,NA,"complete","amahdm","336KAV9KYWRICCTI5SB11FFF30N2Y1","computer","Desktop or Laptop","Windows 10","Chrome 117.0.0.0","1360x768","1360x651",NA,NA,0,"BIQ (Charlotte)",3,"EFDGCHBIAJ","Passed AC2","","Spreadsheet1",1,"BIQ","Screen 2","o21mwi",2,"response","6",6181.039,10958.276,10974.943,6181.039,10958.276,10974.943,1,6181.039,4793.904,0,NA,"Rating Scale","Rating Scale",2,"object-259","BIQ",NA,"SUPAMT68806"
"8",1695851771443,"27/09/2023 21:56:11",1695826571443,-7,"27/09/2023 07:56:11",144636,5,"task-gjqt",NA,31905974,9434773,NA,"complete","amahdm","336KAV9KYWRICCTI5SB11FFF30N2Y1","computer","Desktop or Laptop","Windows 10","Chrome 117.0.0.0","1360x768","1360x651",NA,NA,0,"BIQ (Charlotte)",3,"EFDGCHBIAJ","Passed AC2","","Spreadsheet1",1,"BIQ","Screen 2","o21mwi",2,"response","4",8250.35,10958.276,10974.943,8250.35,10958.276,10974.943,1,8250.35,2724.593,0,NA,"Rating Scale","Rating Scale",9,"object-36","BIQ",NA,"SUPAMT68806"
"9",1695851771445,"27/09/2023 21:56:11",1695826571445,-7,"27/09/2023 07:56:11",144636,5,"task-gjqt",NA,31905974,9434773,NA,"complete","amahdm","336KAV9KYWRICCTI5SB11FFF30N2Y1","computer","Desktop or Laptop","Windows 10","Chrome 117.0.0.0","1360x768","1360x651",NA,NA,0,"BIQ (Charlotte)",3,"EFDGCHBIAJ","Passed AC2","","Spreadsheet1",1,"BIQ","Screen 2","o21mwi",2,"response","6",9721.81,10958.276,10974.943,9721.81,10958.276,10974.943,1,9721.81,1253.133,0,NA,"Rating Scale","Rating Scale",16,"object-86","BIQ",NA,"SUPAMT68806"
"10",1695851774858,"27/09/2023 21:56:14",1695826574858,-7,"27/09/2023 07:56:14",144636,5,"task-gjqt",NA,31905974,9434773,NA,"complete","amahdm","336KAV9KYWRICCTI5SB11FFF30N2Y1","computer","Desktop or Laptop","Windows 10","Chrome 117.0.0.0","1360x768","1360x651",NA,NA,0,"BIQ (Charlotte)",3,"EFDGCHBIAJ","Passed AC2","","Spreadsheet1",1,"BIQ","Screen 3","iz3the",3,"continue","",3437.32500004768,3426.522,3437.32500004768,3437.32500004768,3426.522,3437.32500004768,1,3437.32500004768,0,0,NA,"Click To Continue","Continue Button",22,"object-73","BIQ",NA,"SUPAMT68806"
"11",1695851774859,"27/09/2023 21:56:14",1695826574859,-7,"27/09/2023 07:56:14",144636,5,"task-gjqt",NA,31905974,9434773,NA,"complete","amahdm","336KAV9KYWRICCTI5SB11FFF30N2Y1","computer","Desktop or Laptop","Windows 10","Chrome 117.0.0.0","1360x768","1360x651",NA,NA,0,"BIQ (Charlotte)",3,"EFDGCHBIAJ","Passed AC2","","Spreadsheet1",1,"BIQ","Screen 3","iz3the",3,"response","6",1571.49,3426.522,3438.92499995232,1571.49,3426.522,3438.92499995232,1,1571.49,1867.43499995232,0,NA,"Rating Scale","Rating Scale",2,"object-53","BIQ",NA,"SUPAMT68806"
"12",1695851774861,"27/09/2023 21:56:14",1695826574861,-7,"27/09/2023 07:56:14",144636,5,"task-gjqt",NA,31905974,9434773,NA,"complete","amahdm","336KAV9KYWRICCTI5SB11FFF30N2Y1","computer","Desktop or Laptop","Windows 10","Chrome 117.0.0.0","1360x768","1360x651",NA,NA,0,"BIQ (Charlotte)",3,"EFDGCHBIAJ","Passed AC2","","Spreadsheet1",1,"BIQ","Screen 3","iz3the",3,"response","7",2206.711,3426.522,3440.32500004768,2206.711,3426.522,3440.32500004768,1,2206.711,1233.61400004768,0,NA,"Rating Scale","Rating Scale",9,"object-60","BIQ",NA,"SUPAMT68806"
"13",1695851774862,"27/09/2023 21:56:14",1695826574862,-7,"27/09/2023 07:56:14",144636,5,"task-gjqt",NA,31905974,9434773,NA,"complete","amahdm","336KAV9KYWRICCTI5SB11FFF30N2Y1","computer","Desktop or Laptop","Windows 10","Chrome 117.0.0.0","1360x768","1360x651",NA,NA,0,"BIQ (Charlotte)",3,"EFDGCHBIAJ","Passed AC2","","Spreadsheet1",1,"BIQ","Screen 3","iz3the",3,"response","6",2824.731,3426.522,3441.92499995232,2824.731,3426.522,3441.92499995232,1,2824.731,617.193999952317,0,NA,"Rating Scale","Rating Scale",16,"object-67","BIQ",NA,"SUPAMT68806"
"14",1695851774877,"27/09/2023 21:56:14",1695826574877,-7,"27/09/2023 07:56:14",144636,5,"task-gjqt",NA,31905974,9434773,NA,"complete","amahdm","336KAV9KYWRICCTI5SB11FFF30N2Y1","computer","Desktop or Laptop","Windows 10","Chrome 117.0.0.0","1360x768","1360x651",NA,NA,0,"BIQ (Charlotte)",3,"EFDGCHBIAJ","Passed AC2","","Spreadsheet1",NA,"","","",NA,"5","END",NA,NA,NA,NA,NA,NA,0,NA,NA,NA,NA,"","",NA,"","",NA,"SUPAMT68806"
"1",1695840943116,"27/09/2023 18:55:43",1695826543116,-4,"27/09/2023 10:55:43",144636,5,"task-gjqt",NA,31905982,9434788,NA,"complete","rqazep","30ZX6P7VFEUSHNYJJSAYRS0RQW9J2J","computer","Desktop or Laptop","Windows 10","Chrome 116.0.0.0","1366x768","1366x619",NA,NA,0,"BIQ (Charlotte)",3,"DECFBGAHJI","Passed AC2","","Spreadsheet1",NA,"","","",NA,"5","BEGIN",NA,NA,NA,NA,NA,NA,0,NA,NA,NA,NA,"","",NA,"","",NA,"SUPAMT37895"
"2",1695841172708,"27/09/2023 18:59:32",1695826772708,-4,"27/09/2023 10:59:32",144636,5,"task-gjqt",NA,31905982,9434788,NA,"complete","rqazep","30ZX6P7VFEUSHNYJJSAYRS0RQW9J2J","computer","Desktop or Laptop","Windows 10","Chrome 116.0.0.0","1366x768","1366x619",NA,NA,0,"BIQ (Charlotte)",3,"DECFBGAHJI","Passed AC2","","Spreadsheet1",1,"BIQ","Screen 1","9dh6eq",1,"continue","",229600.233000143,229595.138,229600.233000143,229600.233000143,229595.138,229600.233000143,1,229600.233000143,0,0,NA,"Click To Continue","Continue Button",23,"object-48","BIQ",NA,"SUPAMT37895"
"3",1695841172710,"27/09/2023 18:59:32",1695826772710,-4,"27/09/2023 10:59:32",144636,5,"task-gjqt",NA,31905982,9434788,NA,"complete","rqazep","30ZX6P7VFEUSHNYJJSAYRS0RQW9J2J","computer","Desktop or Laptop","Windows 10","Chrome 116.0.0.0","1366x768","1366x619",NA,NA,0,"BIQ (Charlotte)",3,"DECFBGAHJI","Passed AC2","","Spreadsheet1",1,"BIQ","Screen 1","9dh6eq",1,"response","4",225013.903,229595.138,229602.833000048,225013.903,229595.138,229602.833000048,1,225013.903,4588.93000004769,0,NA,"Rating Scale","Rating Scale",3,"object-5","BIQ",NA,"SUPAMT37895"
"4",1695841172710,"27/09/2023 18:59:32",1695826772710,-4,"27/09/2023 10:59:32",144636,5,"task-gjqt",NA,31905982,9434788,NA,"complete","rqazep","30ZX6P7VFEUSHNYJJSAYRS0RQW9J2J","computer","Desktop or Laptop","Windows 10","Chrome 116.0.0.0","1366x768","1366x619",NA,NA,0,"BIQ (Charlotte)",3,"DECFBGAHJI","Passed AC2","","Spreadsheet1",1,"BIQ","Screen 1","9dh6eq",1,"response","6",225590.925,229595.138,229603.133,225590.925,229595.138,229603.133,1,225590.925,4012.20800000001,0,NA,"Rating Scale","Rating Scale",10,"object-18","BIQ",NA,"SUPAMT37895"
"5",1695841172710,"27/09/2023 18:59:32",1695826772710,-4,"27/09/2023 10:59:32",144636,5,"task-gjqt",NA,31905982,9434788,NA,"complete","rqazep","30ZX6P7VFEUSHNYJJSAYRS0RQW9J2J","computer","Desktop or Laptop","Windows 10","Chrome 116.0.0.0","1366x768","1366x619",NA,NA,0,"BIQ (Charlotte)",3,"DECFBGAHJI","Passed AC2","","Spreadsheet1",1,"BIQ","Screen 1","9dh6eq",1,"response","5",226350.087,229595.138,229603.333000048,226350.087,229595.138,229603.333000048,1,226350.087,3253.24600004769,0,NA,"Rating Scale","Rating Scale",17,"object-80","BIQ",NA,"SUPAMT37895"
"6",1695841177074,"27/09/2023 18:59:37",1695826777074,-4,"27/09/2023 10:59:37",144636,5,"task-gjqt",NA,31905982,9434788,NA,"complete","rqazep","30ZX6P7VFEUSHNYJJSAYRS0RQW9J2J","computer","Desktop or Laptop","Windows 10","Chrome 116.0.0.0","1366x768","1366x619",NA,NA,0,"BIQ (Charlotte)",3,"DECFBGAHJI","Passed AC2","","Spreadsheet1",1,"BIQ","Screen 2","o21mwi",2,"continue","",4372.39500009536,4367.48300000001,4372.39500009536,4372.39500009536,4367.48300000001,4372.39500009536,1,4372.39500009536,0,0,NA,"Click To Continue","Continue Button",22,"object-50","BIQ",NA,"SUPAMT37895"
"7",1695841177075,"27/09/2023 18:59:37",1695826777075,-4,"27/09/2023 10:59:37",144636,5,"task-gjqt",NA,31905982,9434788,NA,"complete","rqazep","30ZX6P7VFEUSHNYJJSAYRS0RQW9J2J","computer","Desktop or Laptop","Windows 10","Chrome 116.0.0.0","1366x768","1366x619",NA,NA,0,"BIQ (Charlotte)",3,"DECFBGAHJI","Passed AC2","","Spreadsheet1",1,"BIQ","Screen 2","o21mwi",2,"response","5",2058.26999999999,4367.48300000001,4372.89500009536,2058.26999999999,4367.48300000001,4372.89500009536,1,2058.26999999999,2314.62500009537,0,NA,"Rating Scale","Rating Scale",2,"object-259","BIQ",NA,"SUPAMT37895"
"8",1695841177075,"27/09/2023 18:59:37",1695826777075,-4,"27/09/2023 10:59:37",144636,5,"task-gjqt",NA,31905982,9434788,NA,"complete","rqazep","30ZX6P7VFEUSHNYJJSAYRS0RQW9J2J","computer","Desktop or Laptop","Windows 10","Chrome 116.0.0.0","1366x768","1366x619",NA,NA,0,"BIQ (Charlotte)",3,"DECFBGAHJI","Passed AC2","","Spreadsheet1",1,"BIQ","Screen 2","o21mwi",2,"response","6",2749.53399999999,4367.48300000001,4373.495,2749.53399999999,4367.48300000001,4373.495,1,2749.53399999999,1623.96100000001,0,NA,"Rating Scale","Rating Scale",9,"object-36","BIQ",NA,"SUPAMT37895"
"9",1695841177076,"27/09/2023 18:59:37",1695826777076,-4,"27/09/2023 10:59:37",144636,5,"task-gjqt",NA,31905982,9434788,NA,"complete","rqazep","30ZX6P7VFEUSHNYJJSAYRS0RQW9J2J","computer","Desktop or Laptop","Windows 10","Chrome 116.0.0.0","1366x768","1366x619",NA,NA,0,"BIQ (Charlotte)",3,"DECFBGAHJI","Passed AC2","","Spreadsheet1",1,"BIQ","Screen 2","o21mwi",2,"response","5",3477.50200000001,4367.48300000001,4373.79499995231,3477.50200000001,4367.48300000001,4373.79499995231,1,3477.50200000001,896.292999952304,0,NA,"Rating Scale","Rating Scale",16,"object-86","BIQ",NA,"SUPAMT37895"
"10",1695841182418,"27/09/2023 18:59:42",1695826782418,-4,"27/09/2023 10:59:42",144636,5,"task-gjqt",NA,31905982,9434788,NA,"complete","rqazep","30ZX6P7VFEUSHNYJJSAYRS0RQW9J2J","computer","Desktop or Laptop","Windows 10","Chrome 116.0.0.0","1366x768","1366x619",NA,NA,0,"BIQ (Charlotte)",3,"DECFBGAHJI","Passed AC2","","Spreadsheet1",1,"BIQ","Screen 3","iz3the",3,"continue","",5349.11200014304,5333.72199999998,5349.11200014304,5349.11200014304,5333.72199999998,5349.11200014304,1,5349.11200014304,0,0,NA,"Click To Continue","Continue Button",22,"object-73","BIQ",NA,"SUPAMT37895"
"11",1695841182419,"27/09/2023 18:59:42",1695826782419,-4,"27/09/2023 10:59:42",144636,5,"task-gjqt",NA,31905982,9434788,NA,"complete","rqazep","30ZX6P7VFEUSHNYJJSAYRS0RQW9J2J","computer","Desktop or Laptop","Windows 10","Chrome 116.0.0.0","1366x768","1366x619",NA,NA,0,"BIQ (Charlotte)",3,"DECFBGAHJI","Passed AC2","","Spreadsheet1",1,"BIQ","Screen 3","iz3the",3,"response","5",1680.36899999998,5333.72199999998,5349.61200014304,1680.36899999998,5333.72199999998,5349.61200014304,1,1680.36899999998,3669.24300014306,0,NA,"Rating Scale","Rating Scale",2,"object-53","BIQ",NA,"SUPAMT37895"
"12",1695841182419,"27/09/2023 18:59:42",1695826782419,-4,"27/09/2023 10:59:42",144636,5,"task-gjqt",NA,31905982,9434788,NA,"complete","rqazep","30ZX6P7VFEUSHNYJJSAYRS0RQW9J2J","computer","Desktop or Laptop","Windows 10","Chrome 116.0.0.0","1366x768","1366x619",NA,NA,0,"BIQ (Charlotte)",3,"DECFBGAHJI","Passed AC2","","Spreadsheet1",1,"BIQ","Screen 3","iz3the",3,"response","6",2465.07199999999,5333.72199999998,5350.21200004767,2465.07199999999,5333.72199999998,5350.21200004767,1,2465.07199999999,2885.14000004769,0,NA,"Rating Scale","Rating Scale",9,"object-60","BIQ",NA,"SUPAMT37895"
"13",1695841182420,"27/09/2023 18:59:42",1695826782420,-4,"27/09/2023 10:59:42",144636,5,"task-gjqt",NA,31905982,9434788,NA,"complete","rqazep","30ZX6P7VFEUSHNYJJSAYRS0RQW9J2J","computer","Desktop or Laptop","Windows 10","Chrome 116.0.0.0","1366x768","1366x619",NA,NA,0,"BIQ (Charlotte)",3,"DECFBGAHJI","Passed AC2","","Spreadsheet1",1,"BIQ","Screen 3","iz3the",3,"response","5",3037.277,5333.72199999998,5350.38799999998,3037.277,5333.72199999998,5350.38799999998,1,3037.277,2313.11099999998,0,NA,"Rating Scale","Rating Scale",16,"object-67","BIQ",NA,"SUPAMT37895"
"14",1695841182421,"27/09/2023 18:59:42",1695826782421,-4,"27/09/2023 10:59:42",144636,5,"task-gjqt",NA,31905982,9434788,NA,"complete","rqazep","30ZX6P7VFEUSHNYJJSAYRS0RQW9J2J","computer","Desktop or Laptop","Windows 10","Chrome 116.0.0.0","1366x768","1366x619",NA,NA,0,"BIQ (Charlotte)",3,"DECFBGAHJI","Passed AC2","","Spreadsheet1",NA,"","","",NA,"5","END",NA,NA,NA,NA,NA,NA,0,NA,NA,NA,NA,"","",NA,"","",NA,"SUPAMT37895"
"1",1695841069765,"27/09/2023 18:57:49",1695826669765,-4,"27/09/2023 10:57:49",144636,5,"task-gjqt",NA,31906047,9434777,NA,"complete","juggof","3NG53N1RL1IZPD36UMOJYFZ6LVBP8W","computer","Desktop or Laptop","Windows 10","Chrome 116.0.0.0","1366x768","1366x619",NA,NA,0,"BIQ (Charlotte)",3,"ABJCIDHEGF","Passed AC2","","Spreadsheet1",NA,"","","",NA,"5","BEGIN",NA,NA,NA,NA,NA,NA,0,NA,NA,NA,NA,"","",NA,"","",NA,"SUPAMT28732"
"2",1695841080307,"27/09/2023 18:58:00",1695826680307,-4,"27/09/2023 10:58:00",144636,5,"task-gjqt",NA,31906047,9434777,NA,"complete","juggof","3NG53N1RL1IZPD36UMOJYFZ6LVBP8W","computer","Desktop or Laptop","Windows 10","Chrome 116.0.0.0","1366x768","1366x619",NA,NA,0,"BIQ (Charlotte)",3,"ABJCIDHEGF","Passed AC2","","Spreadsheet1",1,"BIQ","Screen 1","9dh6eq",1,"continue","",10557.138,10540.472,10557.138,10557.138,10540.472,10557.138,1,10557.138,0,0,NA,"Click To Continue","Continue Button",23,"object-48","BIQ",NA,"SUPAMT28732"
"3",1695841080309,"27/09/2023 18:58:00",1695826680309,-4,"27/09/2023 10:58:00",144636,5,"task-gjqt",NA,31906047,9434777,NA,"complete","juggof","3NG53N1RL1IZPD36UMOJYFZ6LVBP8W","computer","Desktop or Laptop","Windows 10","Chrome 116.0.0.0","1366x768","1366x619",NA,NA,0,"BIQ (Charlotte)",3,"ABJCIDHEGF","Passed AC2","","Spreadsheet1",1,"BIQ","Screen 1","9dh6eq",1,"response","5",6130.399,10540.472,10557.138,6130.399,10540.472,10557.138,1,6130.399,4426.739,0,NA,"Rating Scale","Rating Scale",3,"object-5","BIQ",NA,"SUPAMT28732"
"4",1695841080309,"27/09/2023 18:58:00",1695826680309,-4,"27/09/2023 10:58:00",144636,5,"task-gjqt",NA,31906047,9434777,NA,"complete","juggof","3NG53N1RL1IZPD36UMOJYFZ6LVBP8W","computer","Desktop or Laptop","Windows 10","Chrome 116.0.0.0","1366x768","1366x619",NA,NA,0,"BIQ (Charlotte)",3,"ABJCIDHEGF","Passed AC2","","Spreadsheet1",1,"BIQ","Screen 1","9dh6eq",1,"response","6",6726.283,10540.472,10557.138,6726.283,10540.472,10557.138,1,6726.283,3830.855,0,NA,"Rating Scale","Rating Scale",10,"object-18","BIQ",NA,"SUPAMT28732"
"5",1695841080310,"27/09/2023 18:58:00",1695826680310,-4,"27/09/2023 10:58:00",144636,5,"task-gjqt",NA,31906047,9434777,NA,"complete","juggof","3NG53N1RL1IZPD36UMOJYFZ6LVBP8W","computer","Desktop or Laptop","Windows 10","Chrome 116.0.0.0","1366x768","1366x619",NA,NA,0,"BIQ (Charlotte)",3,"ABJCIDHEGF","Passed AC2","","Spreadsheet1",1,"BIQ","Screen 1","9dh6eq",1,"response","5",7340.974,10540.472,10557.138,7340.974,10540.472,10557.138,1,7340.974,3216.164,0,NA,"Rating Scale","Rating Scale",17,"object-80","BIQ",NA,"SUPAMT28732"
"6",1695841083729,"27/09/2023 18:58:03",1695826683729,-4,"27/09/2023 10:58:03",144636,5,"task-gjqt",NA,31906047,9434777,NA,"complete","juggof","3NG53N1RL1IZPD36UMOJYFZ6LVBP8W","computer","Desktop or Laptop","Windows 10","Chrome 116.0.0.0","1366x768","1366x619",NA,NA,0,"BIQ (Charlotte)",3,"ABJCIDHEGF","Passed AC2","","Spreadsheet1",1,"BIQ","Screen 2","o21mwi",2,"continue","",3439.914,3434.583,3439.914,3439.914,3434.583,3439.914,1,3439.914,0,0,NA,"Click To Continue","Continue Button",22,"object-50","BIQ",NA,"SUPAMT28732"
"7",1695841083730,"27/09/2023 18:58:03",1695826683730,-4,"27/09/2023 10:58:03",144636,5,"task-gjqt",NA,31906047,9434777,NA,"complete","juggof","3NG53N1RL1IZPD36UMOJYFZ6LVBP8W","computer","Desktop or Laptop","Windows 10","Chrome 116.0.0.0","1366x768","1366x619",NA,NA,0,"BIQ (Charlotte)",3,"ABJCIDHEGF","Passed AC2","","Spreadsheet1",1,"BIQ","Screen 2","o21mwi",2,"response","5",1716.285,3434.583,3441.01400038147,1716.285,3434.583,3441.01400038147,1,1716.285,1724.72900038147,0,NA,"Rating Scale","Rating Scale",2,"object-259","BIQ",NA,"SUPAMT28732"
"8",1695841083731,"27/09/2023 18:58:03",1695826683731,-4,"27/09/2023 10:58:03",144636,5,"task-gjqt",NA,31906047,9434777,NA,"complete","juggof","3NG53N1RL1IZPD36UMOJYFZ6LVBP8W","computer","Desktop or Laptop","Windows 10","Chrome 116.0.0.0","1366x768","1366x619",NA,NA,0,"BIQ (Charlotte)",3,"ABJCIDHEGF","Passed AC2","","Spreadsheet1",1,"BIQ","Screen 2","o21mwi",2,"response","6",2226.24,3434.583,3441.6140002861,2226.24,3434.583,3441.6140002861,1,2226.24,1215.3740002861,0,NA,"Rating Scale","Rating Scale",9,"object-36","BIQ",NA,"SUPAMT28732"
"9",1695841083731,"27/09/2023 18:58:03",1695826683731,-4,"27/09/2023 10:58:03",144636,5,"task-gjqt",NA,31906047,9434777,NA,"complete","juggof","3NG53N1RL1IZPD36UMOJYFZ6LVBP8W","computer","Desktop or Laptop","Windows 10","Chrome 116.0.0.0","1366x768","1366x619",NA,NA,0,"BIQ (Charlotte)",3,"ABJCIDHEGF","Passed AC2","","Spreadsheet1",1,"BIQ","Screen 2","o21mwi",2,"response","5",2845.775,3434.583,3442.21400019074,2845.775,3434.583,3442.21400019074,1,2845.775,596.439000190734,0,NA,"Rating Scale","Rating Scale",16,"object-86","BIQ",NA,"SUPAMT28732"
"10",1695841087027,"27/09/2023 18:58:07",1695826687027,-4,"27/09/2023 10:58:07",144636,5,"task-gjqt",NA,31906047,9434777,NA,"complete","juggof","3NG53N1RL1IZPD36UMOJYFZ6LVBP8W","computer","Desktop or Laptop","Windows 10","Chrome 116.0.0.0","1366x768","1366x619",NA,NA,0,"BIQ (Charlotte)",3,"ABJCIDHEGF","Passed AC2","","Spreadsheet1",1,"BIQ","Screen 3","iz3the",3,"continue","",3300.93100038147,3292.243,3300.93100038147,3300.93100038147,3292.243,3300.93100038147,1,3300.93100038147,0,0,NA,"Click To Continue","Continue Button",22,"object-73","BIQ",NA,"SUPAMT28732"
"11",1695841087028,"27/09/2023 18:58:07",1695826687028,-4,"27/09/2023 10:58:07",144636,5,"task-gjqt",NA,31906047,9434777,NA,"complete","juggof","3NG53N1RL1IZPD36UMOJYFZ6LVBP8W","computer","Desktop or Laptop","Windows 10","Chrome 116.0.0.0","1366x768","1366x619",NA,NA,0,"BIQ (Charlotte)",3,"ABJCIDHEGF","Passed AC2","","Spreadsheet1",1,"BIQ","Screen 3","iz3the",3,"response","5",1673.467,3292.243,3301.73100009537,1673.467,3292.243,3301.73100009537,1,1673.467,1628.26400009537,0,NA,"Rating Scale","Rating Scale",2,"object-53","BIQ",NA,"SUPAMT28732"
"12",1695841087029,"27/09/2023 18:58:07",1695826687029,-4,"27/09/2023 10:58:07",144636,5,"task-gjqt",NA,31906047,9434777,NA,"complete","juggof","3NG53N1RL1IZPD36UMOJYFZ6LVBP8W","computer","Desktop or Laptop","Windows 10","Chrome 116.0.0.0","1366x768","1366x619",NA,NA,0,"BIQ (Charlotte)",3,"ABJCIDHEGF","Passed AC2","","Spreadsheet1",1,"BIQ","Screen 3","iz3the",3,"response","6",2131.286,3292.243,3302.43100038147,2131.286,3292.243,3302.43100038147,1,2131.286,1171.14500038147,0,NA,"Rating Scale","Rating Scale",9,"object-60","BIQ",NA,"SUPAMT28732"
"13",1695841087029,"27/09/2023 18:58:07",1695826687029,-4,"27/09/2023 10:58:07",144636,5,"task-gjqt",NA,31906047,9434777,NA,"complete","juggof","3NG53N1RL1IZPD36UMOJYFZ6LVBP8W","computer","Desktop or Laptop","Windows 10","Chrome 116.0.0.0","1366x768","1366x619",NA,NA,0,"BIQ (Charlotte)",3,"ABJCIDHEGF","Passed AC2","","Spreadsheet1",1,"BIQ","Screen 3","iz3the",3,"response","5",2579.469,3292.243,3303.0310002861,2579.469,3292.243,3303.0310002861,1,2579.469,723.562000286103,0,NA,"Rating Scale","Rating Scale",16,"object-67","BIQ",NA,"SUPAMT28732"
"14",1695841087031,"27/09/2023 18:58:07",1695826687031,-4,"27/09/2023 10:58:07",144636,5,"task-gjqt",NA,31906047,9434777,NA,"complete","juggof","3NG53N1RL1IZPD36UMOJYFZ6LVBP8W","computer","Desktop or Laptop","Windows 10","Chrome 116.0.0.0","1366x768","1366x619",NA,NA,0,"BIQ (Charlotte)",3,"ABJCIDHEGF","Passed AC2","","Spreadsheet1",NA,"","","",NA,"5","END",NA,NA,NA,NA,NA,NA,0,NA,NA,NA,NA,"","",NA,"","",NA,"SUPAMT28732"
"1",1695841306418,"27/09/2023 19:01:46",1695826906418,-4,"27/09/2023 11:01:46",144636,5,"task-gjqt",NA,31906163,9434786,NA,"complete","eilfgx","36DSNE9QZBX6OUNO6Q8VY53UR17JOR","computer","Desktop or Laptop","Windows 10","Chrome 116.0.0.0","1364x768","1282x602",NA,NA,0,"BIQ (Charlotte)",3,"GHFIEJDACB","Failed AC2","Passed AC1","Spreadsheet1",NA,"","","",NA,"5","BEGIN",NA,NA,NA,NA,NA,NA,0,NA,NA,NA,NA,"","",NA,"","",NA,"SUPAMT38095"
"2",1695841314871,"27/09/2023 19:01:54",1695826914871,-4,"27/09/2023 11:01:54",144636,5,"task-gjqt",NA,31906163,9434786,NA,"complete","eilfgx","36DSNE9QZBX6OUNO6Q8VY53UR17JOR","computer","Desktop or Laptop","Windows 10","Chrome 116.0.0.0","1364x768","1282x602",NA,NA,0,"BIQ (Charlotte)",3,"GHFIEJDACB","Failed AC2","Passed AC1","Spreadsheet1",1,"BIQ","Screen 1","9dh6eq",1,"continue","",8470.812,8454.146,8470.812,8470.812,8454.146,8470.812,1,8470.812,0,0,NA,"Click To Continue","Continue Button",23,"object-48","BIQ",NA,"SUPAMT38095"
"3",1695841314872,"27/09/2023 19:01:54",1695826914872,-4,"27/09/2023 11:01:54",144636,5,"task-gjqt",NA,31906163,9434786,NA,"complete","eilfgx","36DSNE9QZBX6OUNO6Q8VY53UR17JOR","computer","Desktop or Laptop","Windows 10","Chrome 116.0.0.0","1364x768","1282x602",NA,NA,0,"BIQ (Charlotte)",3,"GHFIEJDACB","Failed AC2","Passed AC1","Spreadsheet1",1,"BIQ","Screen 1","9dh6eq",1,"response","4",2822.141,8454.146,8470.812,2822.141,8454.146,8470.812,1,2822.141,5648.671,0,NA,"Rating Scale","Rating Scale",3,"object-5","BIQ",NA,"SUPAMT38095"
"4",1695841314872,"27/09/2023 19:01:54",1695826914872,-4,"27/09/2023 11:01:54",144636,5,"task-gjqt",NA,31906163,9434786,NA,"complete","eilfgx","36DSNE9QZBX6OUNO6Q8VY53UR17JOR","computer","Desktop or Laptop","Windows 10","Chrome 116.0.0.0","1364x768","1282x602",NA,NA,0,"BIQ (Charlotte)",3,"GHFIEJDACB","Failed AC2","Passed AC1","Spreadsheet1",1,"BIQ","Screen 1","9dh6eq",1,"response","6",4326.41,8454.146,8470.812,4326.41,8454.146,8470.812,1,4326.41,4144.402,0,NA,"Rating Scale","Rating Scale",10,"object-18","BIQ",NA,"SUPAMT38095"
"5",1695841314872,"27/09/2023 19:01:54",1695826914872,-4,"27/09/2023 11:01:54",144636,5,"task-gjqt",NA,31906163,9434786,NA,"complete","eilfgx","36DSNE9QZBX6OUNO6Q8VY53UR17JOR","computer","Desktop or Laptop","Windows 10","Chrome 116.0.0.0","1364x768","1282x602",NA,NA,0,"BIQ (Charlotte)",3,"GHFIEJDACB","Failed AC2","Passed AC1","Spreadsheet1",1,"BIQ","Screen 1","9dh6eq",1,"response","6",6940.043,8454.146,8470.812,6940.043,8454.146,8470.812,1,6940.043,1530.769,0,NA,"Rating Scale","Rating Scale",17,"object-80","BIQ",NA,"SUPAMT38095"
"6",1695841326550,"27/09/2023 19:02:06",1695826926550,-4,"27/09/2023 11:02:06",144636,5,"task-gjqt",NA,31906163,9434786,NA,"complete","eilfgx","36DSNE9QZBX6OUNO6Q8VY53UR17JOR","computer","Desktop or Laptop","Windows 10","Chrome 116.0.0.0","1364x768","1282x602",NA,NA,0,"BIQ (Charlotte)",3,"GHFIEJDACB","Failed AC2","Passed AC1","Spreadsheet1",1,"BIQ","Screen 2","o21mwi",2,"continue","",11699.5169999285,11692.156,11699.5169999285,11699.5169999285,11692.156,11699.5169999285,1,11699.5169999285,0,0,NA,"Click To Continue","Continue Button",22,"object-50","BIQ",NA,"SUPAMT38095"
"7",1695841326554,"27/09/2023 19:02:06",1695826926554,-4,"27/09/2023 11:02:06",144636,5,"task-gjqt",NA,31906163,9434786,NA,"complete","eilfgx","36DSNE9QZBX6OUNO6Q8VY53UR17JOR","computer","Desktop or Laptop","Windows 10","Chrome 116.0.0.0","1364x768","1282x602",NA,NA,0,"BIQ (Charlotte)",3,"GHFIEJDACB","Failed AC2","Passed AC1","Spreadsheet1",1,"BIQ","Screen 2","o21mwi",2,"response","6",6079.01,11692.156,11703.6169999523,6079.01,11692.156,11703.6169999523,1,6079.01,5624.60699995232,0,NA,"Rating Scale","Rating Scale",2,"object-259","BIQ",NA,"SUPAMT38095"
"8",1695841326554,"27/09/2023 19:02:06",1695826926554,-4,"27/09/2023 11:02:06",144636,5,"task-gjqt",NA,31906163,9434786,NA,"complete","eilfgx","36DSNE9QZBX6OUNO6Q8VY53UR17JOR","computer","Desktop or Laptop","Windows 10","Chrome 116.0.0.0","1364x768","1282x602",NA,NA,0,"BIQ (Charlotte)",3,"GHFIEJDACB","Failed AC2","Passed AC1","Spreadsheet1",1,"BIQ","Screen 2","o21mwi",2,"response","4",7969.405,11692.156,11704.2169999762,7969.405,11692.156,11704.2169999762,1,7969.405,3734.81199997616,0,NA,"Rating Scale","Rating Scale",9,"object-36","BIQ",NA,"SUPAMT38095"
"9",1695841326555,"27/09/2023 19:02:06",1695826926555,-4,"27/09/2023 11:02:06",144636,5,"task-gjqt",NA,31906163,9434786,NA,"complete","eilfgx","36DSNE9QZBX6OUNO6Q8VY53UR17JOR","computer","Desktop or Laptop","Windows 10","Chrome 116.0.0.0","1364x768","1282x602",NA,NA,0,"BIQ (Charlotte)",3,"GHFIEJDACB","Failed AC2","Passed AC1","Spreadsheet1",1,"BIQ","Screen 2","o21mwi",2,"response","8",9947.811,11692.156,11704.7169999762,9947.811,11692.156,11704.7169999762,1,9947.811,1756.90599997616,0,NA,"Rating Scale","Rating Scale",16,"object-86","BIQ",NA,"SUPAMT38095"
"10",1695841335688,"27/09/2023 19:02:15",1695826935688,-4,"27/09/2023 11:02:15",144636,5,"task-gjqt",NA,31906163,9434786,NA,"complete","eilfgx","36DSNE9QZBX6OUNO6Q8VY53UR17JOR","computer","Desktop or Laptop","Windows 10","Chrome 116.0.0.0","1364x768","1282x602",NA,NA,0,"BIQ (Charlotte)",3,"GHFIEJDACB","Failed AC2","Passed AC1","Spreadsheet1",1,"BIQ","Screen 3","iz3the",3,"continue","",9145.36099992847,9132.671,9145.36099992847,9145.36099992847,9132.671,9145.36099992847,1,9145.36099992847,0,0,NA,"Click To Continue","Continue Button",22,"object-73","BIQ",NA,"SUPAMT38095"
"11",1695841335688,"27/09/2023 19:02:15",1695826935688,-4,"27/09/2023 11:02:15",144636,5,"task-gjqt",NA,31906163,9434786,NA,"complete","eilfgx","36DSNE9QZBX6OUNO6Q8VY53UR17JOR","computer","Desktop or Laptop","Windows 10","Chrome 116.0.0.0","1364x768","1282x602",NA,NA,0,"BIQ (Charlotte)",3,"GHFIEJDACB","Failed AC2","Passed AC1","Spreadsheet1",1,"BIQ","Screen 3","iz3the",3,"response","7",3111.266,9132.671,9146.06099997616,3111.266,9132.671,9146.06099997616,1,3111.266,6034.79499997616,0,NA,"Rating Scale","Rating Scale",2,"object-53","BIQ",NA,"SUPAMT38095"
"12",1695841335689,"27/09/2023 19:02:15",1695826935689,-4,"27/09/2023 11:02:15",144636,5,"task-gjqt",NA,31906163,9434786,NA,"complete","eilfgx","36DSNE9QZBX6OUNO6Q8VY53UR17JOR","computer","Desktop or Laptop","Windows 10","Chrome 116.0.0.0","1364x768","1282x602",NA,NA,0,"BIQ (Charlotte)",3,"GHFIEJDACB","Failed AC2","Passed AC1","Spreadsheet1",1,"BIQ","Screen 3","iz3the",3,"response","5",5358.663,9132.671,9146.661,5358.663,9132.671,9146.661,1,5358.663,3787.998,0,NA,"Rating Scale","Rating Scale",9,"object-60","BIQ",NA,"SUPAMT38095"
"13",1695841335689,"27/09/2023 19:02:15",1695826935689,-4,"27/09/2023 11:02:15",144636,5,"task-gjqt",NA,31906163,9434786,NA,"complete","eilfgx","36DSNE9QZBX6OUNO6Q8VY53UR17JOR","computer","Desktop or Laptop","Windows 10","Chrome 116.0.0.0","1364x768","1282x602",NA,NA,0,"BIQ (Charlotte)",3,"GHFIEJDACB","Failed AC2","Passed AC1","Spreadsheet1",1,"BIQ","Screen 3","iz3the",3,"response","7",7315.987,9132.671,9147.06099997616,7315.987,9132.671,9147.06099997616,1,7315.987,1831.07399997616,0,NA,"Rating Scale","Rating Scale",16,"object-67","BIQ",NA,"SUPAMT38095"
"14",1695841335691,"27/09/2023 19:02:15",1695826935691,-4,"27/09/2023 11:02:15",144636,5,"task-gjqt",NA,31906163,9434786,NA,"complete","eilfgx","36DSNE9QZBX6OUNO6Q8VY53UR17JOR","computer","Desktop or Laptop","Windows 10","Chrome 116.0.0.0","1364x768","1282x602",NA,NA,0,"BIQ (Charlotte)",3,"GHFIEJDACB","Failed AC2","Passed AC1","Spreadsheet1",NA,"","","",NA,"5","END",NA,NA,NA,NA,NA,NA,0,NA,NA,NA,NA,"","",NA,"","",NA,"SUPAMT38095"
"1",1695841916559,"27/09/2023 19:11:56",1695827516559,-4,"27/09/2023 11:11:56",144636,5,"task-gjqt",NA,31906475,9434768,NA,"complete","ylvjyp","34S6N1K2Z1I2R3P15YPIUBJLJ5MHLT","computer","Desktop or Laptop","Windows 10","Chrome 116.0.0.0","1366x768","1366x619",NA,NA,0,"BIQ (Charlotte)",3,"IJHAGBFCED","Failed AC2","Passed AC1","Spreadsheet1",NA,"","","",NA,"5","BEGIN",NA,NA,NA,NA,NA,NA,0,NA,NA,NA,NA,"","",NA,"","",NA,"SUPAMT93128"
"2",1695841931991,"27/09/2023 19:12:11",1695827531991,-4,"27/09/2023 11:12:11",144636,5,"task-gjqt",NA,31906475,9434768,NA,"complete","ylvjyp","34S6N1K2Z1I2R3P15YPIUBJLJ5MHLT","computer","Desktop or Laptop","Windows 10","Chrome 116.0.0.0","1366x768","1366x619",NA,NA,0,"BIQ (Charlotte)",3,"IJHAGBFCED","Failed AC2","Passed AC1","Spreadsheet1",1,"BIQ","Screen 1","9dh6eq",1,"continue","",15445.133,15442.183,15445.133,15445.133,15442.183,15445.133,1,15445.133,0,0,NA,"Click To Continue","Continue Button",23,"object-48","BIQ",NA,"SUPAMT93128"
"3",1695841931993,"27/09/2023 19:12:11",1695827531993,-4,"27/09/2023 11:12:11",144636,5,"task-gjqt",NA,31906475,9434768,NA,"complete","ylvjyp","34S6N1K2Z1I2R3P15YPIUBJLJ5MHLT","computer","Desktop or Laptop","Windows 10","Chrome 116.0.0.0","1366x768","1366x619",NA,NA,0,"BIQ (Charlotte)",3,"IJHAGBFCED","Failed AC2","Passed AC1","Spreadsheet1",1,"BIQ","Screen 1","9dh6eq",1,"response","4",1799.865,15442.183,15447.4329999523,1799.865,15442.183,15447.4329999523,1,1799.865,13647.5679999523,0,NA,"Rating Scale","Rating Scale",3,"object-5","BIQ",NA,"SUPAMT93128"
"4",1695841931993,"27/09/2023 19:12:11",1695827531993,-4,"27/09/2023 11:12:11",144636,5,"task-gjqt",NA,31906475,9434768,NA,"complete","ylvjyp","34S6N1K2Z1I2R3P15YPIUBJLJ5MHLT","computer","Desktop or Laptop","Windows 10","Chrome 116.0.0.0","1366x768","1366x619",NA,NA,0,"BIQ (Charlotte)",3,"IJHAGBFCED","Failed AC2","Passed AC1","Spreadsheet1",1,"BIQ","Screen 1","9dh6eq",1,"response","4",2497.326,15442.183,15447.7329999046,2497.326,15442.183,15447.7329999046,1,2497.326,12950.4069999046,0,NA,"Rating Scale","Rating Scale",10,"object-18","BIQ",NA,"SUPAMT93128"
"5",1695841931994,"27/09/2023 19:12:11",1695827531994,-4,"27/09/2023 11:12:11",144636,5,"task-gjqt",NA,31906475,9434768,NA,"complete","ylvjyp","34S6N1K2Z1I2R3P15YPIUBJLJ5MHLT","computer","Desktop or Laptop","Windows 10","Chrome 116.0.0.0","1366x768","1366x619",NA,NA,0,"BIQ (Charlotte)",3,"IJHAGBFCED","Failed AC2","Passed AC1","Spreadsheet1",1,"BIQ","Screen 1","9dh6eq",1,"response","4",4102.986,15442.183,15447.9329999523,4102.986,15442.183,15447.9329999523,1,4102.986,11344.9469999523,0,NA,"Rating Scale","Rating Scale",17,"object-80","BIQ",NA,"SUPAMT93128"
"6",1695841935696,"27/09/2023 19:12:15",1695827535696,-4,"27/09/2023 11:12:15",144636,5,"task-gjqt",NA,31906475,9434768,NA,"complete","ylvjyp","34S6N1K2Z1I2R3P15YPIUBJLJ5MHLT","computer","Desktop or Laptop","Windows 10","Chrome 116.0.0.0","1366x768","1366x619",NA,NA,0,"BIQ (Charlotte)",3,"IJHAGBFCED","Failed AC2","Passed AC1","Spreadsheet1",1,"BIQ","Screen 2","o21mwi",2,"continue","",3707.84999985695,3694.427,3707.84999985695,3707.84999985695,3694.427,3707.84999985695,1,3707.84999985695,0,0,NA,"Click To Continue","Continue Button",22,"object-50","BIQ",NA,"SUPAMT93128"
"7",1695841935696,"27/09/2023 19:12:15",1695827535696,-4,"27/09/2023 11:12:15",144636,5,"task-gjqt",NA,31906475,9434768,NA,"complete","ylvjyp","34S6N1K2Z1I2R3P15YPIUBJLJ5MHLT","computer","Desktop or Laptop","Windows 10","Chrome 116.0.0.0","1366x768","1366x619",NA,NA,0,"BIQ (Charlotte)",3,"IJHAGBFCED","Failed AC2","Passed AC1","Spreadsheet1",1,"BIQ","Screen 2","o21mwi",2,"response","4",1681.956,3694.427,3708.34999985695,1681.956,3694.427,3708.34999985695,1,1681.956,2026.39399985695,0,NA,"Rating Scale","Rating Scale",2,"object-259","BIQ",NA,"SUPAMT93128"
"8",1695841935697,"27/09/2023 19:12:15",1695827535697,-4,"27/09/2023 11:12:15",144636,5,"task-gjqt",NA,31906475,9434768,NA,"complete","ylvjyp","34S6N1K2Z1I2R3P15YPIUBJLJ5MHLT","computer","Desktop or Laptop","Windows 10","Chrome 116.0.0.0","1366x768","1366x619",NA,NA,0,"BIQ (Charlotte)",3,"IJHAGBFCED","Failed AC2","Passed AC1","Spreadsheet1",1,"BIQ","Screen 2","o21mwi",2,"response","4",2381.581,3694.427,3708.74999995232,2381.581,3694.427,3708.74999995232,1,2381.581,1327.16899995232,0,NA,"Rating Scale","Rating Scale",9,"object-36","BIQ",NA,"SUPAMT93128"
"9",1695841935697,"27/09/2023 19:12:15",1695827535697,-4,"27/09/2023 11:12:15",144636,5,"task-gjqt",NA,31906475,9434768,NA,"complete","ylvjyp","34S6N1K2Z1I2R3P15YPIUBJLJ5MHLT","computer","Desktop or Laptop","Windows 10","Chrome 116.0.0.0","1366x768","1366x619",NA,NA,0,"BIQ (Charlotte)",3,"IJHAGBFCED","Failed AC2","Passed AC1","Spreadsheet1",1,"BIQ","Screen 2","o21mwi",2,"response","4",3086.408,3694.427,3709.04999990463,3086.408,3694.427,3709.04999990463,1,3086.408,622.641999904634,0,NA,"Rating Scale","Rating Scale",16,"object-86","BIQ",NA,"SUPAMT93128"
"10",1695841951356,"27/09/2023 19:12:31",1695827551356,-4,"27/09/2023 11:12:31",144636,5,"task-gjqt",NA,31906475,9434768,NA,"complete","ylvjyp","34S6N1K2Z1I2R3P15YPIUBJLJ5MHLT","computer","Desktop or Laptop","Windows 10","Chrome 116.0.0.0","1366x768","1366x619",NA,NA,0,"BIQ (Charlotte)",3,"IJHAGBFCED","Failed AC2","Passed AC1","Spreadsheet1",1,"BIQ","Screen 3","iz3the",3,"continue","",15673.1229999046,15666.627,15673.1229999046,15673.1229999046,15666.627,15673.1229999046,1,15673.1229999046,0,0,NA,"Click To Continue","Continue Button",22,"object-73","BIQ",NA,"SUPAMT93128"
"11",1695841951358,"27/09/2023 19:12:31",1695827551358,-4,"27/09/2023 11:12:31",144636,5,"task-gjqt",NA,31906475,9434768,NA,"complete","ylvjyp","34S6N1K2Z1I2R3P15YPIUBJLJ5MHLT","computer","Desktop or Laptop","Windows 10","Chrome 116.0.0.0","1366x768","1366x619",NA,NA,0,"BIQ (Charlotte)",3,"IJHAGBFCED","Failed AC2","Passed AC1","Spreadsheet1",1,"BIQ","Screen 3","iz3the",3,"response","4",13450.733,15666.627,15676.023,13450.733,15666.627,15676.023,1,13450.733,2225.29,0,NA,"Rating Scale","Rating Scale",2,"object-53","BIQ",NA,"SUPAMT93128"
"12",1695841951359,"27/09/2023 19:12:31",1695827551359,-4,"27/09/2023 11:12:31",144636,5,"task-gjqt",NA,31906475,9434768,NA,"complete","ylvjyp","34S6N1K2Z1I2R3P15YPIUBJLJ5MHLT","computer","Desktop or Laptop","Windows 10","Chrome 116.0.0.0","1366x768","1366x619",NA,NA,0,"BIQ (Charlotte)",3,"IJHAGBFCED","Failed AC2","Passed AC1","Spreadsheet1",1,"BIQ","Screen 3","iz3the",3,"response","4",14247.683,15666.627,15676.523,14247.683,15666.627,15676.523,1,14247.683,1428.84,0,NA,"Rating Scale","Rating Scale",9,"object-60","BIQ",NA,"SUPAMT93128"
"13",1695841951359,"27/09/2023 19:12:31",1695827551359,-4,"27/09/2023 11:12:31",144636,5,"task-gjqt",NA,31906475,9434768,NA,"complete","ylvjyp","34S6N1K2Z1I2R3P15YPIUBJLJ5MHLT","computer","Desktop or Laptop","Windows 10","Chrome 116.0.0.0","1366x768","1366x619",NA,NA,0,"BIQ (Charlotte)",3,"IJHAGBFCED","Failed AC2","Passed AC1","Spreadsheet1",1,"BIQ","Screen 3","iz3the",3,"response","4",14939.076,15666.627,15676.9229998569,14939.076,15666.627,15676.9229998569,1,14939.076,737.846999856949,0,NA,"Rating Scale","Rating Scale",16,"object-67","BIQ",NA,"SUPAMT93128"
"14",1695841951361,"27/09/2023 19:12:31",1695827551361,-4,"27/09/2023 11:12:31",144636,5,"task-gjqt",NA,31906475,9434768,NA,"complete","ylvjyp","34S6N1K2Z1I2R3P15YPIUBJLJ5MHLT","computer","Desktop or Laptop","Windows 10","Chrome 116.0.0.0","1366x768","1366x619",NA,NA,0,"BIQ (Charlotte)",3,"IJHAGBFCED","Failed AC2","Passed AC1","Spreadsheet1",NA,"","","",NA,"5","END",NA,NA,NA,NA,NA,NA,0,NA,NA,NA,NA,"","",NA,"","",NA,"SUPAMT93128"
"1",1695841890869,"27/09/2023 19:11:30",1695827490869,-4,"27/09/2023 11:11:30",144636,5,"task-gjqt",NA,31906570,9435252,NA,"complete","fgfhmm","38BQUHLA92ZWP2T99NLNEXVBVV4MO0","computer","Desktop or Laptop","Windows 10","Chrome 116.0.0.0","1366x768","1366x619",NA,NA,0,"BIQ (Charlotte)",3,"JAIBHCGDFE","Passed AC2","","Spreadsheet1",NA,"","","",NA,"5","BEGIN",NA,NA,NA,NA,NA,NA,0,NA,NA,NA,NA,"","",NA,"","",NA,"SUPAMT69675"
"2",1695841896010,"27/09/2023 19:11:36",1695827496010,-4,"27/09/2023 11:11:36",144636,5,"task-gjqt",NA,31906570,9435252,NA,"complete","fgfhmm","38BQUHLA92ZWP2T99NLNEXVBVV4MO0","computer","Desktop or Laptop","Windows 10","Chrome 116.0.0.0","1366x768","1366x619",NA,NA,0,"BIQ (Charlotte)",3,"JAIBHCGDFE","Passed AC2","","Spreadsheet1",1,"BIQ","Screen 1","9dh6eq",1,"continue","",5168.76800019073,5159.488,5168.76800019073,5168.76800019073,5159.488,5168.76800019073,1,5168.76800019073,0,0,NA,"Click To Continue","Continue Button",23,"object-48","BIQ",NA,"SUPAMT69675"
"3",1695841896010,"27/09/2023 19:11:36",1695827496010,-4,"27/09/2023 11:11:36",144636,5,"task-gjqt",NA,31906570,9435252,NA,"complete","fgfhmm","38BQUHLA92ZWP2T99NLNEXVBVV4MO0","computer","Desktop or Laptop","Windows 10","Chrome 116.0.0.0","1366x768","1366x619",NA,NA,0,"BIQ (Charlotte)",3,"JAIBHCGDFE","Passed AC2","","Spreadsheet1",1,"BIQ","Screen 1","9dh6eq",1,"response","4",1695.9,5159.488,5170.26800019073,1695.9,5159.488,5170.26800019073,1,1695.9,3474.36800019074,0,NA,"Rating Scale","Rating Scale",3,"object-5","BIQ",NA,"SUPAMT69675"
"4",1695841896011,"27/09/2023 19:11:36",1695827496011,-4,"27/09/2023 11:11:36",144636,5,"task-gjqt",NA,31906570,9435252,NA,"complete","fgfhmm","38BQUHLA92ZWP2T99NLNEXVBVV4MO0","computer","Desktop or Laptop","Windows 10","Chrome 116.0.0.0","1366x768","1366x619",NA,NA,0,"BIQ (Charlotte)",3,"JAIBHCGDFE","Passed AC2","","Spreadsheet1",1,"BIQ","Screen 1","9dh6eq",1,"response","6",2237.326,5159.488,5170.76800019073,2237.326,5159.488,5170.76800019073,1,2237.326,2933.44200019073,0,NA,"Rating Scale","Rating Scale",10,"object-18","BIQ",NA,"SUPAMT69675"
"5",1695841896011,"27/09/2023 19:11:36",1695827496011,-4,"27/09/2023 11:11:36",144636,5,"task-gjqt",NA,31906570,9435252,NA,"complete","fgfhmm","38BQUHLA92ZWP2T99NLNEXVBVV4MO0","computer","Desktop or Laptop","Windows 10","Chrome 116.0.0.0","1366x768","1366x619",NA,NA,0,"BIQ (Charlotte)",3,"JAIBHCGDFE","Passed AC2","","Spreadsheet1",1,"BIQ","Screen 1","9dh6eq",1,"response","5",2728.484,5159.488,5170.968,2728.484,5159.488,5170.968,1,2728.484,2442.484,0,NA,"Rating Scale","Rating Scale",17,"object-80","BIQ",NA,"SUPAMT69675"
"6",1695841901028,"27/09/2023 19:11:41",1695827501028,-4,"27/09/2023 11:11:41",144636,5,"task-gjqt",NA,31906570,9435252,NA,"complete","fgfhmm","38BQUHLA92ZWP2T99NLNEXVBVV4MO0","computer","Desktop or Laptop","Windows 10","Chrome 116.0.0.0","1366x768","1366x619",NA,NA,0,"BIQ (Charlotte)",3,"JAIBHCGDFE","Passed AC2","","Spreadsheet1",1,"BIQ","Screen 2","o21mwi",2,"continue","",5028.57999990463,5023.276,5028.57999990463,5028.57999990463,5023.276,5028.57999990463,1,5028.57999990463,0,0,NA,"Click To Continue","Continue Button",22,"object-50","BIQ",NA,"SUPAMT69675"
"7",1695841901031,"27/09/2023 19:11:41",1695827501031,-4,"27/09/2023 11:11:41",144636,5,"task-gjqt",NA,31906570,9435252,NA,"complete","fgfhmm","38BQUHLA92ZWP2T99NLNEXVBVV4MO0","computer","Desktop or Laptop","Windows 10","Chrome 116.0.0.0","1366x768","1366x619",NA,NA,0,"BIQ (Charlotte)",3,"JAIBHCGDFE","Passed AC2","","Spreadsheet1",1,"BIQ","Screen 2","o21mwi",2,"response","6",3194.907,5023.276,5031.6800002861,3194.907,5023.276,5031.6800002861,1,3194.907,1836.7730002861,0,NA,"Rating Scale","Rating Scale",2,"object-259","BIQ",NA,"SUPAMT69675"
"8",1695841901032,"27/09/2023 19:11:41",1695827501032,-4,"27/09/2023 11:11:41",144636,5,"task-gjqt",NA,31906570,9435252,NA,"complete","fgfhmm","38BQUHLA92ZWP2T99NLNEXVBVV4MO0","computer","Desktop or Laptop","Windows 10","Chrome 116.0.0.0","1366x768","1366x619",NA,NA,0,"BIQ (Charlotte)",3,"JAIBHCGDFE","Passed AC2","","Spreadsheet1",1,"BIQ","Screen 2","o21mwi",2,"response","5",3771.686,5023.276,5032.07999990463,3771.686,5023.276,5032.07999990463,1,3771.686,1260.39399990463,0,NA,"Rating Scale","Rating Scale",9,"object-36","BIQ",NA,"SUPAMT69675"
"9",1695841901032,"27/09/2023 19:11:41",1695827501032,-4,"27/09/2023 11:11:41",144636,5,"task-gjqt",NA,31906570,9435252,NA,"complete","fgfhmm","38BQUHLA92ZWP2T99NLNEXVBVV4MO0","computer","Desktop or Laptop","Windows 10","Chrome 116.0.0.0","1366x768","1366x619",NA,NA,0,"BIQ (Charlotte)",3,"JAIBHCGDFE","Passed AC2","","Spreadsheet1",1,"BIQ","Screen 2","o21mwi",2,"response","6",4212.579,5023.276,5032.48,4212.579,5023.276,5032.48,1,4212.579,819.901,0,NA,"Rating Scale","Rating Scale",16,"object-86","BIQ",NA,"SUPAMT69675"
"10",1695841904364,"27/09/2023 19:11:44",1695827504364,-4,"27/09/2023 11:11:44",144636,5,"task-gjqt",NA,31906570,9435252,NA,"complete","fgfhmm","38BQUHLA92ZWP2T99NLNEXVBVV4MO0","computer","Desktop or Laptop","Windows 10","Chrome 116.0.0.0","1366x768","1366x619",NA,NA,0,"BIQ (Charlotte)",3,"JAIBHCGDFE","Passed AC2","","Spreadsheet1",1,"BIQ","Screen 3","iz3the",3,"continue","",3341.30399990463,3327.368,3341.30399990463,3341.30399990463,3327.368,3341.30399990463,1,3341.30399990463,0,0,NA,"Click To Continue","Continue Button",22,"object-73","BIQ",NA,"SUPAMT69675"
"11",1695841904365,"27/09/2023 19:11:44",1695827504365,-4,"27/09/2023 11:11:44",144636,5,"task-gjqt",NA,31906570,9435252,NA,"complete","fgfhmm","38BQUHLA92ZWP2T99NLNEXVBVV4MO0","computer","Desktop or Laptop","Windows 10","Chrome 116.0.0.0","1366x768","1366x619",NA,NA,0,"BIQ (Charlotte)",3,"JAIBHCGDFE","Passed AC2","","Spreadsheet1",1,"BIQ","Screen 3","iz3the",3,"response","6",1144.013,3327.368,3342.00400019073,1144.013,3327.368,3342.00400019073,1,1144.013,2197.99100019074,0,NA,"Rating Scale","Rating Scale",2,"object-53","BIQ",NA,"SUPAMT69675"
"12",1695841904365,"27/09/2023 19:11:44",1695827504365,-4,"27/09/2023 11:11:44",144636,5,"task-gjqt",NA,31906570,9435252,NA,"complete","fgfhmm","38BQUHLA92ZWP2T99NLNEXVBVV4MO0","computer","Desktop or Laptop","Windows 10","Chrome 116.0.0.0","1366x768","1366x619",NA,NA,0,"BIQ (Charlotte)",3,"JAIBHCGDFE","Passed AC2","","Spreadsheet1",1,"BIQ","Screen 3","iz3the",3,"response","7",1884.881,3327.368,3342.4040002861,1884.881,3327.368,3342.4040002861,1,1884.881,1457.5230002861,0,NA,"Rating Scale","Rating Scale",9,"object-60","BIQ",NA,"SUPAMT69675"
"13",1695841904366,"27/09/2023 19:11:44",1695827504366,-4,"27/09/2023 11:11:44",144636,5,"task-gjqt",NA,31906570,9435252,NA,"complete","fgfhmm","38BQUHLA92ZWP2T99NLNEXVBVV4MO0","computer","Desktop or Laptop","Windows 10","Chrome 116.0.0.0","1366x768","1366x619",NA,NA,0,"BIQ (Charlotte)",3,"JAIBHCGDFE","Passed AC2","","Spreadsheet1",1,"BIQ","Screen 3","iz3the",3,"response","6",2784.145,3327.368,3342.9040002861,2784.145,3327.368,3342.9040002861,1,2784.145,558.759000286102,0,NA,"Rating Scale","Rating Scale",16,"object-67","BIQ",NA,"SUPAMT69675"
"14",1695841904368,"27/09/2023 19:11:44",1695827504368,-4,"27/09/2023 11:11:44",144636,5,"task-gjqt",NA,31906570,9435252,NA,"complete","fgfhmm","38BQUHLA92ZWP2T99NLNEXVBVV4MO0","computer","Desktop or Laptop","Windows 10","Chrome 116.0.0.0","1366x768","1366x619",NA,NA,0,"BIQ (Charlotte)",3,"JAIBHCGDFE","Passed AC2","","Spreadsheet1",NA,"","","",NA,"5","END",NA,NA,NA,NA,NA,NA,0,NA,NA,NA,NA,"","",NA,"","",NA,"SUPAMT69675"
"1",1695843319697,"27/09/2023 19:35:19",1695828919697,-4,"27/09/2023 11:35:19",144636,5,"task-gjqt",NA,31907116,9434806,NA,"complete","henypu","","computer","Desktop or Laptop","Windows 10","Chrome 116.0.0.0","1600x900","1600x751",NA,NA,0,"BIQ (Charlotte)",3,"ABJCIDHEGF","Failed AC2","Passed AC1","Spreadsheet1",NA,"","","",NA,"5","BEGIN",NA,NA,NA,NA,NA,NA,0,NA,NA,NA,NA,"","",NA,"","",NA,NA
"2",1695843359132,"27/09/2023 19:35:59",1695828959132,-4,"27/09/2023 11:35:59",144636,5,"task-gjqt",NA,31907116,9434806,NA,"complete","henypu","","computer","Desktop or Laptop","Windows 10","Chrome 116.0.0.0","1600x900","1600x751",NA,NA,0,"BIQ (Charlotte)",3,"ABJCIDHEGF","Failed AC2","Passed AC1","Spreadsheet1",1,"BIQ","Screen 1","9dh6eq",1,"continue","",39447.377,39430.711,39447.377,39447.377,39430.711,39447.377,1,39447.377,0,0,NA,"Click To Continue","Continue Button",23,"object-48","BIQ",NA,NA
