"Event.Index","UTC.Timestamp","UTC.Date.and.Time","Local.Timestamp","Local.Timezone","Local.Date.and.Time","Experiment.ID","Experiment.Version","Tree.Node.Key","Repeat.Key","Schedule.ID","Participant.Private.ID","Participant.Starting.Group","Participant.Status","Participant.Completion.Code","Participant.External.Session.ID","Participant.Device.Type","Participant.Device","Participant.OS","Participant.Browser","Participant.Monitor.Size","Participant.Viewport.Size","Checkpoint","Room.ID","Room.Order","Task.Name","Task.Version","order.ot79","branch.g31k","branch.5gtn","Spreadsheet","Trial.Number","Display","Screen","Screen.ID","Screen.Counter","Response.Type","Response","Onset.Time","Clock.Time","Reaction.Time","Absolute.Onset.Time","Absolute.Clock.Time","Absolute.Reaction.Time","Correct","Response.Onset","Response.Duration","Proportion","Tag","Component.Name","Object.Name","Object.Number","Object.ID","Spreadsheet..display","Manipulation..Spreadsheet","Random_ID"
"1",1695838551452,"27/09/2023 18:15:51",1695824151452,-4,"27/09/2023 10:15:51",144636,5,"task-hbx7",NA,31905040,9434076,NA,"complete","lqhvtm","3T111IHZ5KPKFV2VC6YM36UW6JF9RV","computer","Desktop or Laptop","Windows 10","Chrome 116.0.0.0","1364x768","1364x619",NA,NA,0,"Task Introduction and Instructions (Clone)",9,"ABJCIDHEGF","Passed AC2","","Spreadsheet1",NA,"","","",NA,"5","BEGIN",NA,NA,NA,NA,NA,NA,0,NA,NA,NA,NA,"","",NA,"","",NA,"SUPAMT97235"
"2",1695838616223,"27/09/2023 18:16:56",1695824216223,-4,"27/09/2023 10:16:56",144636,5,"task-hbx7",NA,31905040,9434076,NA,"complete","lqhvtm","3T111IHZ5KPKFV2VC6YM36UW6JF9RV","computer","Desktop or Laptop","Windows 10","Chrome 116.0.0.0","1364x768","1364x619",NA,NA,0,"Task Introduction and Instructions (Clone)",9,"ABJCIDHEGF","Passed AC2","","Spreadsheet1",1,"Task Instructions","Screen 1","anr7sn",1,"continue","",64007.5900000477,63997.827,64007.5900000477,64007.5900000477,63997.827,64007.5900000477,1,64007.5900000477,0,0,NA,"Click To Continue","Continue Button",2,"object-1944","Task Instructions",NA,"SUPAMT97235"
"3",1695838619477,"27/09/2023 18:16:59",1695824219477,-4,"27/09/2023 10:16:59",144636,5,"task-hbx7",NA,31905040,9434076,NA,"complete","lqhvtm","3T111IHZ5KPKFV2VC6YM36UW6JF9RV","computer","Desktop or Laptop","Windows 10","Chrome 116.0.0.0","1364x768","1364x619",NA,NA,0,"Task Introduction and Instructions (Clone)",9,"ABJCIDHEGF","Passed AC2","","Spreadsheet1",1,"Task Instructions","Screen 2","ce2tc8",2,"continue","",3263.37,3246.704,3263.37,3263.37,3246.704,3263.37,1,3263.37,0,0,NA,"Click To Continue","Continue Button",2,"object-7","Task Instructions",NA,"SUPAMT97235"
"4",1695838622628,"27/09/2023 18:17:02",1695824222628,-4,"27/09/2023 10:17:02",144636,5,"task-hbx7",NA,31905040,9434076,NA,"complete","lqhvtm","3T111IHZ5KPKFV2VC6YM36UW6JF9RV","computer","Desktop or Laptop","Windows 10","Chrome 116.0.0.0","1364x768","1364x619",NA,NA,0,"Task Introduction and Instructions (Clone)",9,"ABJCIDHEGF","Passed AC2","","Spreadsheet1",1,"Task Instructions","Screen 5","spepx9",3,"continue","",3168.25900009536,3162.86499999999,3168.25900009536,3168.25900009536,3162.86499999999,3168.25900009536,1,3168.25900009536,0,0,NA,"Click To Continue","Continue Button",2,"object-9","Task Instructions",NA,"SUPAMT97235"
"5",1695838626080,"27/09/2023 18:17:06",1695824226080,-4,"27/09/2023 10:17:06",144636,5,"task-hbx7",NA,31905040,9434076,NA,"complete","lqhvtm","3T111IHZ5KPKFV2VC6YM36UW6JF9RV","computer","Desktop or Laptop","Windows 10","Chrome 116.0.0.0","1364x768","1364x619",NA,NA,0,"Task Introduction and Instructions (Clone)",9,"ABJCIDHEGF","Passed AC2","","Spreadsheet1",1,"Task Instructions","Screen 9","8nvnao",4,"continue","",3457.29399995232,3442.785,3457.29399995232,3457.29399995232,3442.785,3457.29399995232,1,3457.29399995232,0,0,NA,"Click To Continue","Continue Button",2,"object-44","Task Instructions",NA,"SUPAMT97235"
"6",1695838626082,"27/09/2023 18:17:06",1695824226082,-4,"27/09/2023 10:17:06",144636,5,"task-hbx7",NA,31905040,9434076,NA,"complete","lqhvtm","3T111IHZ5KPKFV2VC6YM36UW6JF9RV","computer","Desktop or Laptop","Windows 10","Chrome 116.0.0.0","1364x768","1364x619",NA,NA,0,"Task Introduction and Instructions (Clone)",9,"ABJCIDHEGF","Passed AC2","","Spreadsheet1",NA,"","","",NA,"5","END",NA,NA,NA,NA,NA,NA,0,NA,NA,NA,NA,"","",NA,"","",NA,"SUPAMT97235"
"1",1695838635830,"27/09/2023 18:17:15",1695824235830,-4,"27/09/2023 10:17:15",144636,5,"task-hbx7",NA,31905075,9434100,NA,"complete","lmlvva","3MH9DQ7572BRAXHKU6Z10Y33HVEGUX","computer","Desktop or Laptop","Windows 10","Chrome 116.0.0.0","1280x800","1280x651",NA,NA,0,"Task Introduction and Instructions (Clone)",9,"BCADJEIFHG","Passed AC2","","Spreadsheet1",NA,"","","",NA,"5","BEGIN",NA,NA,NA,NA,NA,NA,0,NA,NA,NA,NA,"","",NA,"","",NA,"SUPAMT66053"
"2",1695838638862,"27/09/2023 18:17:18",1695824238862,-4,"27/09/2023 10:17:18",144636,5,"task-hbx7",NA,31905075,9434100,NA,"complete","lmlvva","3MH9DQ7572BRAXHKU6Z10Y33HVEGUX","computer","Desktop or Laptop","Windows 10","Chrome 116.0.0.0","1280x800","1280x651",NA,NA,0,"Task Introduction and Instructions (Clone)",9,"BCADJEIFHG","Passed AC2","","Spreadsheet1",1,"Task Instructions","Screen 1","anr7sn",1,"continue","",3010.441,2993.775,3010.441,3010.441,2993.775,3010.441,1,3010.441,0,0,NA,"Click To Continue","Continue Button",2,"object-1944","Task Instructions",NA,"SUPAMT66053"
"3",1695838641894,"27/09/2023 18:17:21",1695824241894,-4,"27/09/2023 10:17:21",144636,5,"task-hbx7",NA,31905075,9434100,NA,"complete","lmlvva","3MH9DQ7572BRAXHKU6Z10Y33HVEGUX","computer","Desktop or Laptop","Windows 10","Chrome 116.0.0.0","1280x800","1280x651",NA,NA,0,"Task Introduction and Instructions (Clone)",9,"BCADJEIFHG","Passed AC2","","Spreadsheet1",1,"Task Instructions","Screen 2","ce2tc8",2,"continue","",3049.31700019073,3037.853,3049.31700019073,3049.31700019073,3037.853,3049.31700019073,1,3049.31700019073,0,0,NA,"Click To Continue","Continue Button",2,"object-7","Task Instructions",NA,"SUPAMT66053"
"4",1695838644511,"27/09/2023 18:17:24",1695824244511,-4,"27/09/2023 10:17:24",144636,5,"task-hbx7",NA,31905075,9434100,NA,"complete","lmlvva","3MH9DQ7572BRAXHKU6Z10Y33HVEGUX","computer","Desktop or Laptop","Windows 10","Chrome 116.0.0.0","1280x800","1280x651",NA,NA,0,"Task Introduction and Instructions (Clone)",9,"BCADJEIFHG","Passed AC2","","Spreadsheet1",1,"Task Instructions","Screen 5","spepx9",3,"continue","",2629.26400038147,2621.619,2629.26400038147,2629.26400038147,2621.619,2629.26400038147,1,2629.26400038147,0,0,NA,"Click To Continue","Continue Button",2,"object-9","Task Instructions",NA,"SUPAMT66053"
"5",1695838647365,"27/09/2023 18:17:27",1695824247365,-4,"27/09/2023 10:17:27",144636,5,"task-hbx7",NA,31905075,9434100,NA,"complete","lmlvva","3MH9DQ7572BRAXHKU6Z10Y33HVEGUX","computer","Desktop or Laptop","Windows 10","Chrome 116.0.0.0","1280x800","1280x651",NA,NA,0,"Task Introduction and Instructions (Clone)",9,"BCADJEIFHG","Passed AC2","","Spreadsheet1",1,"Task Instructions","Screen 9","8nvnao",4,"continue","",2860.84500019073,2846.291,2860.84500019073,2860.84500019073,2846.291,2860.84500019073,1,2860.84500019073,0,0,NA,"Click To Continue","Continue Button",2,"object-44","Task Instructions",NA,"SUPAMT66053"
"6",1695838647369,"27/09/2023 18:17:27",1695824247369,-4,"27/09/2023 10:17:27",144636,5,"task-hbx7",NA,31905075,9434100,NA,"complete","lmlvva","3MH9DQ7572BRAXHKU6Z10Y33HVEGUX","computer","Desktop or Laptop","Windows 10","Chrome 116.0.0.0","1280x800","1280x651",NA,NA,0,"Task Introduction and Instructions (Clone)",9,"BCADJEIFHG","Passed AC2","","Spreadsheet1",NA,"","","",NA,"5","END",NA,NA,NA,NA,NA,NA,0,NA,NA,NA,NA,"","",NA,"","",NA,"SUPAMT66053"
"1",1695861420658,"28/09/2023 00:37:00",1695847020658,-4,"27/09/2023 16:37:00",144636,5,"task-hbx7",NA,31905523,9434148,NA,"complete","xtoiqa","3NXNZ5RS1GWAXCIG3S0GYP3W57L79U","computer","Desktop or Laptop","Windows 10","Chrome 116.0.0.0","1280x1024","1280x875",NA,NA,0,"Task Introduction and Instructions (Clone)",9,"DECFBGAHJI","Passed AC2","","Spreadsheet1",NA,"","","",NA,"5","BEGIN",NA,NA,NA,NA,NA,NA,0,NA,NA,NA,NA,"","",NA,"","",NA,"SUPAMT90577"
"2",1695861425235,"28/09/2023 00:37:05",1695847025235,-4,"27/09/2023 16:37:05",144636,5,"task-hbx7",NA,31905523,9434148,NA,"complete","xtoiqa","3NXNZ5RS1GWAXCIG3S0GYP3W57L79U","computer","Desktop or Laptop","Windows 10","Chrome 116.0.0.0","1280x1024","1280x875",NA,NA,0,"Task Introduction and Instructions (Clone)",9,"DECFBGAHJI","Passed AC2","","Spreadsheet1",1,"Task Instructions","Screen 1","anr7sn",1,"continue","",4379.49900004768,4355.931,4379.49900004768,4379.49900004768,4355.931,4379.49900004768,1,4379.49900004768,0,0,NA,"Click To Continue","Continue Button",2,"object-1944","Task Instructions",NA,"SUPAMT90577"
"3",1695861432579,"28/09/2023 00:37:12",1695847032579,-4,"27/09/2023 16:37:12",144636,5,"task-hbx7",NA,31905523,9434148,NA,"complete","xtoiqa","3NXNZ5RS1GWAXCIG3S0GYP3W57L79U","computer","Desktop or Laptop","Windows 10","Chrome 116.0.0.0","1280x1024","1280x875",NA,NA,0,"Task Introduction and Instructions (Clone)",9,"DECFBGAHJI","Passed AC2","","Spreadsheet1",1,"Task Instructions","Screen 2","ce2tc8",2,"continue","",7368.06800004768,7340.273,7368.06800004768,7368.06800004768,7340.273,7368.06800004768,1,7368.06800004768,0,0,NA,"Click To Continue","Continue Button",2,"object-7","Task Instructions",NA,"SUPAMT90577"
"4",1695861437001,"28/09/2023 00:37:17",1695847037001,-4,"27/09/2023 16:37:17",144636,5,"task-hbx7",NA,31905523,9434148,NA,"complete","xtoiqa","3NXNZ5RS1GWAXCIG3S0GYP3W57L79U","computer","Desktop or Laptop","Windows 10","Chrome 116.0.0.0","1280x1024","1280x875",NA,NA,0,"Task Introduction and Instructions (Clone)",9,"DECFBGAHJI","Passed AC2","","Spreadsheet1",1,"Task Instructions","Screen 5","spepx9",3,"continue","",4450.19500014305,4425.916,4450.19500014305,4450.19500014305,4425.916,4450.19500014305,1,4450.19500014305,0,0,NA,"Click To Continue","Continue Button",2,"object-9","Task Instructions",NA,"SUPAMT90577"
"5",1695861441602,"28/09/2023 00:37:21",1695847041602,-4,"27/09/2023 16:37:21",144636,5,"task-hbx7",NA,31905523,9434148,NA,"complete","xtoiqa","3NXNZ5RS1GWAXCIG3S0GYP3W57L79U","computer","Desktop or Laptop","Windows 10","Chrome 116.0.0.0","1280x1024","1280x875",NA,NA,0,"Task Introduction and Instructions (Clone)",9,"DECFBGAHJI","Passed AC2","","Spreadsheet1",1,"Task Instructions","Screen 9","8nvnao",4,"continue","",4624.97900019073,4615.936,4624.97900019073,4624.97900019073,4615.936,4624.97900019073,1,4624.97900019073,0,0,NA,"Click To Continue","Continue Button",2,"object-44","Task Instructions",NA,"SUPAMT90577"
"6",1695861441605,"28/09/2023 00:37:21",1695847041605,-4,"27/09/2023 16:37:21",144636,5,"task-hbx7",NA,31905523,9434148,NA,"complete","xtoiqa","3NXNZ5RS1GWAXCIG3S0GYP3W57L79U","computer","Desktop or Laptop","Windows 10","Chrome 116.0.0.0","1280x1024","1280x875",NA,NA,0,"Task Introduction and Instructions (Clone)",9,"DECFBGAHJI","Passed AC2","","Spreadsheet1",NA,"","","",NA,"5","END",NA,NA,NA,NA,NA,NA,0,NA,NA,NA,NA,"","",NA,"","",NA,"SUPAMT90577"
"1",1695840889144,"27/09/2023 18:54:49",1695826489144,-4,"27/09/2023 10:54:49",144636,5,"task-hbx7",NA,31905953,9434766,NA,"complete","jiznez","3NS0A6KXCA78WWBU0TY9HQIIJDWGZP","computer","Desktop or Laptop","Windows 10","Chrome 116.0.0.0","1366x768","1366x619",NA,NA,0,"Task Introduction and Instructions (Clone)",9,"HIGJFAEBDC","Passed AC2","","Spreadsheet1",NA,"","","",NA,"5","BEGIN",NA,NA,NA,NA,NA,NA,0,NA,NA,NA,NA,"","",NA,"","",NA,"SUPAMT65847"
"2",1695840892465,"27/09/2023 18:54:52",1695826492465,-4,"27/09/2023 10:54:52",144636,5,"task-hbx7",NA,31905953,9434766,NA,"complete","jiznez","3NS0A6KXCA78WWBU0TY9HQIIJDWGZP","computer","Desktop or Laptop","Windows 10","Chrome 116.0.0.0","1366x768","1366x619",NA,NA,0,"Task Introduction and Instructions (Clone)",9,"HIGJFAEBDC","Passed AC2","","Spreadsheet1",1,"Task Instructions","Screen 1","anr7sn",1,"continue","",3193.66100009537,3182.737,3193.66100009537,3193.66100009537,3182.737,3193.66100009537,1,3193.66100009537,0,0,NA,"Click To Continue","Continue Button",2,"object-1944","Task Instructions",NA,"SUPAMT65847"
"3",1695840895759,"27/09/2023 18:54:55",1695826495759,-4,"27/09/2023 10:54:55",144636,5,"task-hbx7",NA,31905953,9434766,NA,"complete","jiznez","3NS0A6KXCA78WWBU0TY9HQIIJDWGZP","computer","Desktop or Laptop","Windows 10","Chrome 116.0.0.0","1366x768","1366x619",NA,NA,0,"Task Introduction and Instructions (Clone)",9,"HIGJFAEBDC","Passed AC2","","Spreadsheet1",1,"Task Instructions","Screen 2","ce2tc8",2,"continue","",3304.92400009537,3288.802,3304.92400009537,3304.92400009537,3288.802,3304.92400009537,1,3304.92400009537,0,0,NA,"Click To Continue","Continue Button",2,"object-7","Task Instructions",NA,"SUPAMT65847"
"4",1695840900582,"27/09/2023 18:55:00",1695826500582,-4,"27/09/2023 10:55:00",144636,5,"task-hbx7",NA,31905953,9434766,NA,"complete","jiznez","3NS0A6KXCA78WWBU0TY9HQIIJDWGZP","computer","Desktop or Laptop","Windows 10","Chrome 116.0.0.0","1366x768","1366x619",NA,NA,0,"Task Introduction and Instructions (Clone)",9,"HIGJFAEBDC","Passed AC2","","Spreadsheet1",1,"Task Instructions","Screen 5","spepx9",3,"continue","",4839.222,4834.004,4839.222,4839.222,4834.004,4839.222,1,4839.222,0,0,NA,"Click To Continue","Continue Button",2,"object-9","Task Instructions",NA,"SUPAMT65847"
"5",1695840905607,"27/09/2023 18:55:05",1695826505607,-4,"27/09/2023 10:55:05",144636,5,"task-hbx7",NA,31905953,9434766,NA,"complete","jiznez","3NS0A6KXCA78WWBU0TY9HQIIJDWGZP","computer","Desktop or Laptop","Windows 10","Chrome 116.0.0.0","1366x768","1366x619",NA,NA,0,"Task Introduction and Instructions (Clone)",9,"HIGJFAEBDC","Passed AC2","","Spreadsheet1",1,"Task Instructions","Screen 9","8nvnao",4,"continue","",5029.718,5025.797,5029.718,5029.718,5025.797,5029.718,1,5029.718,0,0,NA,"Click To Continue","Continue Button",2,"object-44","Task Instructions",NA,"SUPAMT65847"
"6",1695840905608,"27/09/2023 18:55:05",1695826505608,-4,"27/09/2023 10:55:05",144636,5,"task-hbx7",NA,31905953,9434766,NA,"complete","jiznez","3NS0A6KXCA78WWBU0TY9HQIIJDWGZP","computer","Desktop or Laptop","Windows 10","Chrome 116.0.0.0","1366x768","1366x619",NA,NA,0,"Task Introduction and Instructions (Clone)",9,"HIGJFAEBDC","Passed AC2","","Spreadsheet1",NA,"","","",NA,"5","END",NA,NA,NA,NA,NA,NA,0,NA,NA,NA,NA,"","",NA,"","",NA,"SUPAMT65847"
"1",1695840933295,"27/09/2023 18:55:33",1695826533295,-4,"27/09/2023 10:55:33",144636,5,"task-hbx7",NA,31905978,9434701,NA,"complete","rdlnde","","computer","Desktop or Laptop","Windows 10","Chrome 116.0.0.0","1366x768","1366x619",NA,NA,0,"Task Introduction and Instructions (Clone)",9,"FGEHDICJBA","Passed AC2","","Spreadsheet1",NA,"","","",NA,"5","BEGIN",NA,NA,NA,NA,NA,NA,0,NA,NA,NA,NA,"","",NA,"","",NA,"SUPAMT21062"
"2",1695840937613,"27/09/2023 18:55:37",1695826537613,-4,"27/09/2023 10:55:37",144636,5,"task-hbx7",NA,31905978,9434701,NA,"complete","rdlnde","","computer","Desktop or Laptop","Windows 10","Chrome 116.0.0.0","1366x768","1366x619",NA,NA,0,"Task Introduction and Instructions (Clone)",9,"FGEHDICJBA","Passed AC2","","Spreadsheet1",1,"Task Instructions","Screen 1","anr7sn",1,"continue","",4212.206,4195.54,4212.206,4212.206,4195.54,4212.206,1,4212.206,0,0,NA,"Click To Continue","Continue Button",2,"object-1944","Task Instructions",NA,"SUPAMT32911"
"3",1695840940889,"27/09/2023 18:55:40",1695826540889,-4,"27/09/2023 10:55:40",144636,5,"task-hbx7",NA,31905978,9434701,NA,"complete","rdlnde","","computer","Desktop or Laptop","Windows 10","Chrome 116.0.0.0","1366x768","1366x619",NA,NA,0,"Task Introduction and Instructions (Clone)",9,"FGEHDICJBA","Passed AC2","","Spreadsheet1",1,"Task Instructions","Screen 2","ce2tc8",2,"continue","",3294.63399985695,3285.97,3294.63399985695,3294.63399985695,3285.97,3294.63399985695,1,3294.63399985695,0,0,NA,"Click To Continue","Continue Button",2,"object-7","Task Instructions",NA,"SUPAMT88382"
"4",1695840943979,"27/09/2023 18:55:43",1695826543979,-4,"27/09/2023 10:55:43",144636,5,"task-hbx7",NA,31905978,9434701,NA,"complete","rdlnde","","computer","Desktop or Laptop","Windows 10","Chrome 116.0.0.0","1366x768","1366x619",NA,NA,0,"Task Introduction and Instructions (Clone)",9,"FGEHDICJBA","Passed AC2","","Spreadsheet1",1,"Task Instructions","Screen 5","spepx9",3,"continue","",3099.264,3084.709,3099.264,3099.264,3084.709,3099.264,1,3099.264,0,0,NA,"Click To Continue","Continue Button",2,"object-9","Task Instructions",NA,"SUPAMT01788"
"5",1695840947209,"27/09/2023 18:55:47",1695826547209,-4,"27/09/2023 10:55:47",144636,5,"task-hbx7",NA,31905978,9434701,NA,"complete","rdlnde","","computer","Desktop or Laptop","Windows 10","Chrome 116.0.0.0","1366x768","1366x619",NA,NA,0,"Task Introduction and Instructions (Clone)",9,"FGEHDICJBA","Passed AC2","","Spreadsheet1",1,"Task Instructions","Screen 9","8nvnao",4,"continue","",3244.85499995232,3240.709,3244.85499995232,3244.85499995232,3240.709,3244.85499995232,1,3244.85499995232,0,0,NA,"Click To Continue","Continue Button",2,"object-44","Task Instructions",NA,"SUPAMT03784"
"6",1695840947211,"27/09/2023 18:55:47",1695826547211,-4,"27/09/2023 10:55:47",144636,5,"task-hbx7",NA,31905978,9434701,NA,"complete","rdlnde","","computer","Desktop or Laptop","Windows 10","Chrome 116.0.0.0","1366x768","1366x619",NA,NA,0,"Task Introduction and Instructions (Clone)",9,"FGEHDICJBA","Passed AC2","","Spreadsheet1",NA,"","","",NA,"5","END",NA,NA,NA,NA,NA,NA,0,NA,NA,NA,NA,"","",NA,"","",NA,"SUPAMT83214"
"1",1695840317826,"27/09/2023 18:45:17",1695825917826,-4,"27/09/2023 10:45:17",144636,5,"task-hbx7",NA,31906005,9434753,NA,"complete","ivpjlv","3L6L49WXW6WUD2YLY4PSJXEKSA0456","computer","Desktop or Laptop","Windows 10","Chrome 116.0.0.0","1366x768","1366x619",NA,NA,0,"Task Introduction and Instructions (Clone)",9,"JAIBHCGDFE","Passed AC2","","Spreadsheet1",NA,"","","",NA,"5","BEGIN",NA,NA,NA,NA,NA,NA,0,NA,NA,NA,NA,"","",NA,"","",NA,"SUPAMT32807"
"2",1695840322365,"27/09/2023 18:45:22",1695825922365,-4,"27/09/2023 10:45:22",144636,5,"task-hbx7",NA,31906005,9434753,NA,"complete","ivpjlv","3L6L49WXW6WUD2YLY4PSJXEKSA0456","computer","Desktop or Laptop","Windows 10","Chrome 116.0.0.0","1366x768","1366x619",NA,NA,0,"Task Introduction and Instructions (Clone)",9,"JAIBHCGDFE","Passed AC2","","Spreadsheet1",1,"Task Instructions","Screen 1","anr7sn",1,"continue","",4369.34299997616,4363.089,4369.34299997616,4369.34299997616,4363.089,4369.34299997616,1,4369.34299997616,0,0,NA,"Click To Continue","Continue Button",2,"object-1944","Task Instructions",NA,"SUPAMT32807"
"3",1695840327523,"27/09/2023 18:45:27",1695825927523,-4,"27/09/2023 10:45:27",144636,5,"task-hbx7",NA,31906005,9434753,NA,"complete","ivpjlv","3L6L49WXW6WUD2YLY4PSJXEKSA0456","computer","Desktop or Laptop","Windows 10","Chrome 116.0.0.0","1366x768","1366x619",NA,NA,0,"Task Introduction and Instructions (Clone)",9,"JAIBHCGDFE","Passed AC2","","Spreadsheet1",1,"Task Instructions","Screen 2","ce2tc8",2,"continue","",5161.805,5145.139,5161.805,5161.805,5145.139,5161.805,1,5161.805,0,0,NA,"Click To Continue","Continue Button",2,"object-7","Task Instructions",NA,"SUPAMT32807"
"4",1695840332020,"27/09/2023 18:45:32",1695825932020,-4,"27/09/2023 10:45:32",144636,5,"task-hbx7",NA,31906005,9434753,NA,"complete","ivpjlv","3L6L49WXW6WUD2YLY4PSJXEKSA0456","computer","Desktop or Laptop","Windows 10","Chrome 116.0.0.0","1366x768","1366x619",NA,NA,0,"Task Introduction and Instructions (Clone)",9,"JAIBHCGDFE","Passed AC2","","Spreadsheet1",1,"Task Instructions","Screen 5","spepx9",3,"continue","",4516.61499997616,4511.544,4516.61499997616,4516.61499997616,4511.544,4516.61499997616,1,4516.61499997616,0,0,NA,"Click To Continue","Continue Button",2,"object-9","Task Instructions",NA,"SUPAMT32807"
"5",1695840336313,"27/09/2023 18:45:36",1695825936313,-4,"27/09/2023 10:45:36",144636,5,"task-hbx7",NA,31906005,9434753,NA,"complete","ivpjlv","3L6L49WXW6WUD2YLY4PSJXEKSA0456","computer","Desktop or Laptop","Windows 10","Chrome 116.0.0.0","1366x768","1366x619",NA,NA,0,"Task Introduction and Instructions (Clone)",9,"JAIBHCGDFE","Passed AC2","","Spreadsheet1",1,"Task Instructions","Screen 9","8nvnao",4,"continue","",4297.47100001192,4288.7,4297.47100001192,4297.47100001192,4288.7,4297.47100001192,1,4297.47100001192,0,0,NA,"Click To Continue","Continue Button",2,"object-44","Task Instructions",NA,"SUPAMT32807"
"6",1695840336315,"27/09/2023 18:45:36",1695825936315,-4,"27/09/2023 10:45:36",144636,5,"task-hbx7",NA,31906005,9434753,NA,"complete","ivpjlv","3L6L49WXW6WUD2YLY4PSJXEKSA0456","computer","Desktop or Laptop","Windows 10","Chrome 116.0.0.0","1366x768","1366x619",NA,NA,0,"Task Introduction and Instructions (Clone)",9,"JAIBHCGDFE","Passed AC2","","Spreadsheet1",NA,"","","",NA,"5","END",NA,NA,NA,NA,NA,NA,0,NA,NA,NA,NA,"","",NA,"","",NA,"SUPAMT32807"
"1",1695841117022,"27/09/2023 18:58:37",1695826717022,-4,"27/09/2023 10:58:37",144636,5,"task-hbx7",NA,31906079,9434777,NA,"complete","juggof","3NG53N1RL1IZPD36UMOJYFZ6LVBP8W","computer","Desktop or Laptop","Windows 10","Chrome 116.0.0.0","1366x768","1366x619",NA,NA,0,"Task Introduction and Instructions (Clone)",9,"ABJCIDHEGF","Passed AC2","","Spreadsheet1",NA,"","","",NA,"5","BEGIN",NA,NA,NA,NA,NA,NA,0,NA,NA,NA,NA,"","",NA,"","",NA,"SUPAMT28732"
"2",1695841120579,"27/09/2023 18:58:40",1695826720579,-4,"27/09/2023 10:58:40",144636,5,"task-hbx7",NA,31906079,9434777,NA,"complete","juggof","3NG53N1RL1IZPD36UMOJYFZ6LVBP8W","computer","Desktop or Laptop","Windows 10","Chrome 116.0.0.0","1366x768","1366x619",NA,NA,0,"Task Introduction and Instructions (Clone)",9,"ABJCIDHEGF","Passed AC2","","Spreadsheet1",1,"Task Instructions","Screen 1","anr7sn",1,"continue","",3331.75700009537,3327.777,3331.75700009537,3331.75700009537,3327.777,3331.75700009537,1,3331.75700009537,0,0,NA,"Click To Continue","Continue Button",2,"object-1944","Task Instructions",NA,"SUPAMT28732"
"3",1695841123955,"27/09/2023 18:58:43",1695826723955,-4,"27/09/2023 10:58:43",144636,5,"task-hbx7",NA,31906079,9434777,NA,"complete","juggof","3NG53N1RL1IZPD36UMOJYFZ6LVBP8W","computer","Desktop or Laptop","Windows 10","Chrome 116.0.0.0","1366x768","1366x619",NA,NA,0,"Task Introduction and Instructions (Clone)",9,"ABJCIDHEGF","Passed AC2","","Spreadsheet1",1,"Task Instructions","Screen 2","ce2tc8",2,"continue","",3380.27999980927,3370.612,3380.27999980927,3380.27999980927,3370.612,3380.27999980927,1,3380.27999980927,0,0,NA,"Click To Continue","Continue Button",2,"object-7","Task Instructions",NA,"SUPAMT28732"
"4",1695841127166,"27/09/2023 18:58:47",1695826727166,-4,"27/09/2023 10:58:47",144636,5,"task-hbx7",NA,31906079,9434777,NA,"complete","juggof","3NG53N1RL1IZPD36UMOJYFZ6LVBP8W","computer","Desktop or Laptop","Windows 10","Chrome 116.0.0.0","1366x768","1366x619",NA,NA,0,"Task Introduction and Instructions (Clone)",9,"ABJCIDHEGF","Passed AC2","","Spreadsheet1",1,"Task Instructions","Screen 5","spepx9",3,"continue","",3220.56799990463,3210.385,3220.56799990463,3220.56799990463,3210.385,3220.56799990463,1,3220.56799990463,0,0,NA,"Click To Continue","Continue Button",2,"object-9","Task Instructions",NA,"SUPAMT28732"
"5",1695841130374,"27/09/2023 18:58:50",1695826730374,-4,"27/09/2023 10:58:50",144636,5,"task-hbx7",NA,31906079,9434777,NA,"complete","juggof","3NG53N1RL1IZPD36UMOJYFZ6LVBP8W","computer","Desktop or Laptop","Windows 10","Chrome 116.0.0.0","1366x768","1366x619",NA,NA,0,"Task Introduction and Instructions (Clone)",9,"ABJCIDHEGF","Passed AC2","","Spreadsheet1",1,"Task Instructions","Screen 9","8nvnao",4,"continue","",3217.78299980927,3207.894,3217.78299980927,3217.78299980927,3207.894,3217.78299980927,1,3217.78299980927,0,0,NA,"Click To Continue","Continue Button",2,"object-44","Task Instructions",NA,"SUPAMT28732"
"6",1695841130376,"27/09/2023 18:58:50",1695826730376,-4,"27/09/2023 10:58:50",144636,5,"task-hbx7",NA,31906079,9434777,NA,"complete","juggof","3NG53N1RL1IZPD36UMOJYFZ6LVBP8W","computer","Desktop or Laptop","Windows 10","Chrome 116.0.0.0","1366x768","1366x619",NA,NA,0,"Task Introduction and Instructions (Clone)",9,"ABJCIDHEGF","Passed AC2","","Spreadsheet1",NA,"","","",NA,"5","END",NA,NA,NA,NA,NA,NA,0,NA,NA,NA,NA,"","",NA,"","",NA,"SUPAMT28732"
"1",1695862856345,"28/09/2023 01:00:56",1695848456345,-4,"27/09/2023 17:00:56",144636,5,"task-hbx7",NA,31906131,9434789,NA,"complete","vqanwo","3137ONMDKM4AL1KY46KWWGH0V7KEGE","computer","Desktop or Laptop","Windows 10","Chrome 116.0.0.0","1366x768","1366x768",NA,NA,0,"Task Introduction and Instructions (Clone)",9,"BCADJEIFHG","Passed AC2","","Spreadsheet1",NA,"","","",NA,"5","BEGIN",NA,NA,NA,NA,NA,NA,0,NA,NA,NA,NA,"","",NA,"","",NA,"SUPAMT46237"
"2",1695862860528,"28/09/2023 01:01:00",1695848460528,-4,"27/09/2023 17:01:00",144636,5,"task-hbx7",NA,31906131,9434789,NA,"complete","vqanwo","3137ONMDKM4AL1KY46KWWGH0V7KEGE","computer","Desktop or Laptop","Windows 10","Chrome 116.0.0.0","1366x768","1366x768",NA,NA,0,"Task Introduction and Instructions (Clone)",9,"BCADJEIFHG","Passed AC2","","Spreadsheet1",1,"Task Instructions","Screen 1","anr7sn",1,"continue","",4034.34199985695,4009.39,4034.34199985695,4034.34199985695,4009.39,4034.34199985695,1,4034.34199985695,0,0,NA,"Click To Continue","Continue Button",2,"object-1944","Task Instructions",NA,"SUPAMT46237"
"3",1695862876976,"28/09/2023 01:01:16",1695848476976,-4,"27/09/2023 17:01:16",144636,5,"task-hbx7",NA,31906131,9434789,NA,"complete","vqanwo","3137ONMDKM4AL1KY46KWWGH0V7KEGE","computer","Desktop or Laptop","Windows 10","Chrome 116.0.0.0","1366x768","1366x768",NA,NA,0,"Task Introduction and Instructions (Clone)",9,"BCADJEIFHG","Passed AC2","","Spreadsheet1",1,"Task Instructions","Screen 2","ce2tc8",2,"continue","",16472.7519998093,16454.27,16472.7519998093,16472.7519998093,16454.27,16472.7519998093,1,16472.7519998093,0,0,NA,"Click To Continue","Continue Button",2,"object-7","Task Instructions",NA,"SUPAMT46237"
"4",1695862880172,"28/09/2023 01:01:20",1695848480172,-4,"27/09/2023 17:01:20",144636,5,"task-hbx7",NA,31906131,9434789,NA,"complete","vqanwo","3137ONMDKM4AL1KY46KWWGH0V7KEGE","computer","Desktop or Laptop","Windows 10","Chrome 116.0.0.0","1366x768","1366x768",NA,NA,0,"Task Introduction and Instructions (Clone)",9,"BCADJEIFHG","Passed AC2","","Spreadsheet1",1,"Task Instructions","Screen 5","spepx9",3,"continue","",3214.58199995232,3202.314,3214.58199995232,3214.58199995232,3202.314,3214.58199995232,1,3214.58199995232,0,0,NA,"Click To Continue","Continue Button",2,"object-9","Task Instructions",NA,"SUPAMT46237"
"5",1695862890447,"28/09/2023 01:01:30",1695848490447,-4,"27/09/2023 17:01:30",144636,5,"task-hbx7",NA,31906131,9434789,NA,"complete","vqanwo","3137ONMDKM4AL1KY46KWWGH0V7KEGE","computer","Desktop or Laptop","Windows 10","Chrome 116.0.0.0","1366x768","1366x768",NA,NA,0,"Task Introduction and Instructions (Clone)",9,"BCADJEIFHG","Passed AC2","","Spreadsheet1",1,"Task Instructions","Screen 9","8nvnao",4,"continue","",10287.8679998569,10263.063,10287.8679998569,10287.8679998569,10263.063,10287.8679998569,1,10287.8679998569,0,0,NA,"Click To Continue","Continue Button",2,"object-44","Task Instructions",NA,"SUPAMT46237"
"6",1695862890452,"28/09/2023 01:01:30",1695848490452,-4,"27/09/2023 17:01:30",144636,5,"task-hbx7",NA,31906131,9434789,NA,"complete","vqanwo","3137ONMDKM4AL1KY46KWWGH0V7KEGE","computer","Desktop or Laptop","Windows 10","Chrome 116.0.0.0","1366x768","1366x768",NA,NA,0,"Task Introduction and Instructions (Clone)",9,"BCADJEIFHG","Passed AC2","","Spreadsheet1",NA,"","","",NA,"5","END",NA,NA,NA,NA,NA,NA,0,NA,NA,NA,NA,"","",NA,"","",NA,"SUPAMT46237"
"1",1695852209824,"27/09/2023 22:03:29",1695827009824,-7,"27/09/2023 08:03:29",144636,5,"task-hbx7",NA,31906219,9434773,NA,"complete","amahdm","336KAV9KYWRICCTI5SB11FFF30N2Y1","computer","Desktop or Laptop","Windows 10","Chrome 117.0.0.0","1360x768","1360x651",NA,NA,0,"Task Introduction and Instructions (Clone)",9,"EFDGCHBIAJ","Passed AC2","","Spreadsheet1",NA,"","","",NA,"5","BEGIN",NA,NA,NA,NA,NA,NA,0,NA,NA,NA,NA,"","",NA,"","",NA,"SUPAMT68806"
"2",1695852214285,"27/09/2023 22:03:34",1695827014285,-7,"27/09/2023 08:03:34",144636,5,"task-hbx7",NA,31906219,9434773,NA,"complete","amahdm","336KAV9KYWRICCTI5SB11FFF30N2Y1","computer","Desktop or Laptop","Windows 10","Chrome 117.0.0.0","1360x768","1360x651",NA,NA,0,"Task Introduction and Instructions (Clone)",9,"EFDGCHBIAJ","Passed AC2","","Spreadsheet1",1,"Task Instructions","Screen 1","anr7sn",1,"continue","",4359.436,4342.769,4359.436,4359.436,4342.769,4359.436,1,4359.436,0,0,NA,"Click To Continue","Continue Button",2,"object-1944","Task Instructions",NA,"SUPAMT68806"
"3",1695852223356,"27/09/2023 22:03:43",1695827023356,-7,"27/09/2023 08:03:43",144636,5,"task-hbx7",NA,31906219,9434773,NA,"complete","amahdm","336KAV9KYWRICCTI5SB11FFF30N2Y1","computer","Desktop or Laptop","Windows 10","Chrome 117.0.0.0","1360x768","1360x651",NA,NA,0,"Task Introduction and Instructions (Clone)",9,"EFDGCHBIAJ","Passed AC2","","Spreadsheet1",1,"Task Instructions","Screen 2","ce2tc8",2,"continue","",9087.723,9071.056,9087.723,9087.723,9071.056,9087.723,1,9087.723,0,0,NA,"Click To Continue","Continue Button",2,"object-7","Task Instructions",NA,"SUPAMT68806"
"4",1695852227611,"27/09/2023 22:03:47",1695827027611,-7,"27/09/2023 08:03:47",144636,5,"task-hbx7",NA,31906219,9434773,NA,"complete","amahdm","336KAV9KYWRICCTI5SB11FFF30N2Y1","computer","Desktop or Laptop","Windows 10","Chrome 117.0.0.0","1360x768","1360x651",NA,NA,0,"Task Introduction and Instructions (Clone)",9,"EFDGCHBIAJ","Passed AC2","","Spreadsheet1",1,"Task Instructions","Screen 5","spepx9",3,"continue","",4273.95999990463,4261.058,4273.95999990463,4273.95999990463,4261.058,4273.95999990463,1,4273.95999990463,0,0,NA,"Click To Continue","Continue Button",2,"object-9","Task Instructions",NA,"SUPAMT68806"
"5",1695852231675,"27/09/2023 22:03:51",1695827031675,-7,"27/09/2023 08:03:51",144636,5,"task-hbx7",NA,31906219,9434773,NA,"complete","amahdm","336KAV9KYWRICCTI5SB11FFF30N2Y1","computer","Desktop or Laptop","Windows 10","Chrome 117.0.0.0","1360x768","1360x651",NA,NA,0,"Task Introduction and Instructions (Clone)",9,"EFDGCHBIAJ","Passed AC2","","Spreadsheet1",1,"Task Instructions","Screen 9","8nvnao",4,"continue","",4076.60199995232,4060.112,4076.60199995232,4076.60199995232,4060.112,4076.60199995232,1,4076.60199995232,0,0,NA,"Click To Continue","Continue Button",2,"object-44","Task Instructions",NA,"SUPAMT68806"
"6",1695852231681,"27/09/2023 22:03:51",1695827031681,-7,"27/09/2023 08:03:51",144636,5,"task-hbx7",NA,31906219,9434773,NA,"complete","amahdm","336KAV9KYWRICCTI5SB11FFF30N2Y1","computer","Desktop or Laptop","Windows 10","Chrome 117.0.0.0","1360x768","1360x651",NA,NA,0,"Task Introduction and Instructions (Clone)",9,"EFDGCHBIAJ","Passed AC2","","Spreadsheet1",NA,"","","",NA,"5","END",NA,NA,NA,NA,NA,NA,0,NA,NA,NA,NA,"","",NA,"","",NA,"SUPAMT68806"
"1",1695863342784,"28/09/2023 01:09:02",1695848942784,-4,"27/09/2023 17:09:02",144636,5,"task-hbx7",NA,31906386,9434872,NA,"complete","kkwsod","39KFRKBFITUWJJINSQ9Y8SII45HYO1","computer","Desktop or Laptop","Windows 10","Chrome 116.0.0.0","1366x768","1821x825",NA,NA,0,"Task Introduction and Instructions (Clone)",9,"FGEHDICJBA","Failed AC2","Passed AC1","Spreadsheet1",NA,"","","",NA,"5","BEGIN",NA,NA,NA,NA,NA,NA,0,NA,NA,NA,NA,"","",NA,"","",NA,"SUPAMT34408"
"2",1695863346668,"28/09/2023 01:09:06",1695848946668,-4,"27/09/2023 17:09:06",144636,5,"task-hbx7",NA,31906386,9434872,NA,"complete","kkwsod","39KFRKBFITUWJJINSQ9Y8SII45HYO1","computer","Desktop or Laptop","Windows 10","Chrome 116.0.0.0","1366x768","1821x825",NA,NA,0,"Task Introduction and Instructions (Clone)",9,"FGEHDICJBA","Failed AC2","Passed AC1","Spreadsheet1",1,"Task Instructions","Screen 1","anr7sn",1,"continue","",3813.74400009537,3791.034,3813.74400009537,3813.74400009537,3791.034,3813.74400009537,1,3813.74400009537,0,0,NA,"Click To Continue","Continue Button",2,"object-1944","Task Instructions",NA,"SUPAMT34408"
"3",1695863351843,"28/09/2023 01:09:11",1695848951843,-4,"27/09/2023 17:09:11",144636,5,"task-hbx7",NA,31906386,9434872,NA,"complete","kkwsod","39KFRKBFITUWJJINSQ9Y8SII45HYO1","computer","Desktop or Laptop","Windows 10","Chrome 116.0.0.0","1366x768","1821x825",NA,NA,0,"Task Introduction and Instructions (Clone)",9,"FGEHDICJBA","Failed AC2","Passed AC1","Spreadsheet1",1,"Task Instructions","Screen 2","ce2tc8",2,"continue","",5198.41000014305,5172.84,5198.41000014305,5198.41000014305,5172.84,5198.41000014305,1,5198.41000014305,0,0,NA,"Click To Continue","Continue Button",2,"object-7","Task Instructions",NA,"SUPAMT34408"
"4",1695863355302,"28/09/2023 01:09:15",1695848955302,-4,"27/09/2023 17:09:15",144636,5,"task-hbx7",NA,31906386,9434872,NA,"complete","kkwsod","39KFRKBFITUWJJINSQ9Y8SII45HYO1","computer","Desktop or Laptop","Windows 10","Chrome 116.0.0.0","1366x768","1821x825",NA,NA,0,"Task Introduction and Instructions (Clone)",9,"FGEHDICJBA","Failed AC2","Passed AC1","Spreadsheet1",1,"Task Instructions","Screen 5","spepx9",3,"continue","",3484.67000004768,3454.664,3484.67000004768,3484.67000004768,3454.664,3484.67000004768,1,3484.67000004768,0,0,NA,"Click To Continue","Continue Button",2,"object-9","Task Instructions",NA,"SUPAMT34408"
"5",1695863407010,"28/09/2023 01:10:07",1695849007010,-4,"27/09/2023 17:10:07",144636,5,"task-hbx7",NA,31906386,9434872,NA,"complete","kkwsod","39KFRKBFITUWJJINSQ9Y8SII45HYO1","computer","Desktop or Laptop","Windows 10","Chrome 116.0.0.0","1366x768","1821x825",NA,NA,0,"Task Introduction and Instructions (Clone)",9,"FGEHDICJBA","Failed AC2","Passed AC1","Spreadsheet1",1,"Task Instructions","Screen 9","8nvnao",4,"continue","",51737.806,51709.982,51737.806,51737.806,51709.982,51737.806,1,51737.806,0,0,NA,"Click To Continue","Continue Button",2,"object-44","Task Instructions",NA,"SUPAMT34408"
"6",1695863407013,"28/09/2023 01:10:07",1695849007013,-4,"27/09/2023 17:10:07",144636,5,"task-hbx7",NA,31906386,9434872,NA,"complete","kkwsod","39KFRKBFITUWJJINSQ9Y8SII45HYO1","computer","Desktop or Laptop","Windows 10","Chrome 116.0.0.0","1366x768","1821x825",NA,NA,0,"Task Introduction and Instructions (Clone)",9,"FGEHDICJBA","Failed AC2","Passed AC1","Spreadsheet1",NA,"","","",NA,"5","END",NA,NA,NA,NA,NA,NA,0,NA,NA,NA,NA,"","",NA,"","",NA,"SUPAMT34408"
"1",1695841834041,"27/09/2023 19:10:34",1695827434041,-4,"27/09/2023 11:10:34",144636,5,"task-hbx7",NA,31906435,9434786,NA,"complete","eilfgx","36DSNE9QZBX6OUNO6Q8VY53UR17JOR","computer","Desktop or Laptop","Windows 10","Chrome 116.0.0.0","1364x768","1282x602",NA,NA,0,"Task Introduction and Instructions (Clone)",9,"GHFIEJDACB","Failed AC2","Passed AC1","Spreadsheet1",NA,"","","",NA,"5","BEGIN",NA,NA,NA,NA,NA,NA,0,NA,NA,NA,NA,"","",NA,"","",NA,"SUPAMT38095"
"2",1695841840647,"27/09/2023 19:10:40",1695827440647,-4,"27/09/2023 11:10:40",144636,5,"task-hbx7",NA,31906435,9434786,NA,"complete","eilfgx","36DSNE9QZBX6OUNO6Q8VY53UR17JOR","computer","Desktop or Laptop","Windows 10","Chrome 116.0.0.0","1364x768","1282x602",NA,NA,0,"Task Introduction and Instructions (Clone)",9,"GHFIEJDACB","Failed AC2","Passed AC1","Spreadsheet1",1,"Task Instructions","Screen 1","anr7sn",1,"continue","",6532.48900002384,6525.709,6532.48900002384,6532.48900002384,6525.709,6532.48900002384,1,6532.48900002384,0,0,NA,"Click To Continue","Continue Button",2,"object-1944","Task Instructions",NA,"SUPAMT38095"
"3",1695841844166,"27/09/2023 19:10:44",1695827444166,-4,"27/09/2023 11:10:44",144636,5,"task-hbx7",NA,31906435,9434786,NA,"complete","eilfgx","36DSNE9QZBX6OUNO6Q8VY53UR17JOR","computer","Desktop or Laptop","Windows 10","Chrome 116.0.0.0","1364x768","1282x602",NA,NA,0,"Task Introduction and Instructions (Clone)",9,"GHFIEJDACB","Failed AC2","Passed AC1","Spreadsheet1",1,"Task Instructions","Screen 2","ce2tc8",2,"continue","",3525.98000007153,3518.466,3525.98000007153,3525.98000007153,3518.466,3525.98000007153,1,3525.98000007153,0,0,NA,"Click To Continue","Continue Button",2,"object-7","Task Instructions",NA,"SUPAMT38095"
"4",1695841847089,"27/09/2023 19:10:47",1695827447089,-4,"27/09/2023 11:10:47",144636,5,"task-hbx7",NA,31906435,9434786,NA,"complete","eilfgx","36DSNE9QZBX6OUNO6Q8VY53UR17JOR","computer","Desktop or Laptop","Windows 10","Chrome 116.0.0.0","1364x768","1282x602",NA,NA,0,"Task Introduction and Instructions (Clone)",9,"GHFIEJDACB","Failed AC2","Passed AC1","Spreadsheet1",1,"Task Instructions","Screen 5","spepx9",3,"continue","",2930.81400002384,2923.516,2930.81400002384,2930.81400002384,2923.516,2930.81400002384,1,2930.81400002384,0,0,NA,"Click To Continue","Continue Button",2,"object-9","Task Instructions",NA,"SUPAMT38095"
"5",1695841852936,"27/09/2023 19:10:52",1695827452936,-4,"27/09/2023 11:10:52",144636,5,"task-hbx7",NA,31906435,9434786,NA,"complete","eilfgx","36DSNE9QZBX6OUNO6Q8VY53UR17JOR","computer","Desktop or Laptop","Windows 10","Chrome 116.0.0.0","1364x768","1282x602",NA,NA,0,"Task Introduction and Instructions (Clone)",9,"GHFIEJDACB","Failed AC2","Passed AC1","Spreadsheet1",1,"Task Instructions","Screen 9","8nvnao",4,"continue","",5851.79800002384,5838.514,5851.79800002384,5851.79800002384,5838.514,5851.79800002384,1,5851.79800002384,0,0,NA,"Click To Continue","Continue Button",2,"object-44","Task Instructions",NA,"SUPAMT38095"
"6",1695841852939,"27/09/2023 19:10:52",1695827452939,-4,"27/09/2023 11:10:52",144636,5,"task-hbx7",NA,31906435,9434786,NA,"complete","eilfgx","36DSNE9QZBX6OUNO6Q8VY53UR17JOR","computer","Desktop or Laptop","Windows 10","Chrome 116.0.0.0","1364x768","1282x602",NA,NA,0,"Task Introduction and Instructions (Clone)",9,"GHFIEJDACB","Failed AC2","Passed AC1","Spreadsheet1",NA,"","","",NA,"5","END",NA,NA,NA,NA,NA,NA,0,NA,NA,NA,NA,"","",NA,"","",NA,"SUPAMT38095"
"1",1695842077463,"27/09/2023 19:14:37",1695827677463,-4,"27/09/2023 11:14:37",144636,5,"task-hbx7",NA,31906531,9434661,NA,"complete","jvaotd","30BXRYBRPAWI2X109CWK3M01HCNWHY","computer","Desktop or Laptop","Windows 10","Chrome 116.0.0.0","1366x768","1366x619",NA,NA,0,"Task Introduction and Instructions (Clone)",9,"EFDGCHBIAJ","Passed AC2","","Spreadsheet1",NA,"","","",NA,"5","BEGIN",NA,NA,NA,NA,NA,NA,0,NA,NA,NA,NA,"","",NA,"","",NA,"SUPAMT41746"
"2",1695842082376,"27/09/2023 19:14:42",1695827682376,-4,"27/09/2023 11:14:42",144636,5,"task-hbx7",NA,31906531,9434661,NA,"complete","jvaotd","30BXRYBRPAWI2X109CWK3M01HCNWHY","computer","Desktop or Laptop","Windows 10","Chrome 116.0.0.0","1366x768","1366x619",NA,NA,0,"Task Introduction and Instructions (Clone)",9,"EFDGCHBIAJ","Passed AC2","","Spreadsheet1",1,"Task Instructions","Screen 1","anr7sn",1,"continue","",4760.59400014305,4747.725,4760.59400014305,4760.59400014305,4747.725,4760.59400014305,1,4760.59400014305,0,0,NA,"Click To Continue","Continue Button",2,"object-1944","Task Instructions",NA,"SUPAMT41746"
"3",1695842088812,"27/09/2023 19:14:48",1695827688812,-4,"27/09/2023 11:14:48",144636,5,"task-hbx7",NA,31906531,9434661,NA,"complete","jvaotd","30BXRYBRPAWI2X109CWK3M01HCNWHY","computer","Desktop or Laptop","Windows 10","Chrome 116.0.0.0","1366x768","1366x619",NA,NA,0,"Task Introduction and Instructions (Clone)",9,"EFDGCHBIAJ","Passed AC2","","Spreadsheet1",1,"Task Instructions","Screen 2","ce2tc8",2,"continue","",6449.86900014305,6441.458,6449.86900014305,6449.86900014305,6441.458,6449.86900014305,1,6449.86900014305,0,0,NA,"Click To Continue","Continue Button",2,"object-7","Task Instructions",NA,"SUPAMT41746"
"4",1695842092371,"27/09/2023 19:14:52",1695827692371,-4,"27/09/2023 11:14:52",144636,5,"task-hbx7",NA,31906531,9434661,NA,"complete","jvaotd","30BXRYBRPAWI2X109CWK3M01HCNWHY","computer","Desktop or Laptop","Windows 10","Chrome 116.0.0.0","1366x768","1366x619",NA,NA,0,"Task Introduction and Instructions (Clone)",9,"EFDGCHBIAJ","Passed AC2","","Spreadsheet1",1,"Task Instructions","Screen 5","spepx9",3,"continue","",3567.21100009537,3563.957,3567.21100009537,3567.21100009537,3563.957,3567.21100009537,1,3567.21100009537,0,0,NA,"Click To Continue","Continue Button",2,"object-9","Task Instructions",NA,"SUPAMT41746"
"5",1695842095893,"27/09/2023 19:14:55",1695827695893,-4,"27/09/2023 11:14:55",144636,5,"task-hbx7",NA,31906531,9434661,NA,"complete","jvaotd","30BXRYBRPAWI2X109CWK3M01HCNWHY","computer","Desktop or Laptop","Windows 10","Chrome 116.0.0.0","1366x768","1366x619",NA,NA,0,"Task Introduction and Instructions (Clone)",9,"EFDGCHBIAJ","Passed AC2","","Spreadsheet1",1,"Task Instructions","Screen 9","8nvnao",4,"continue","",3525.354,3516.57,3525.354,3525.354,3516.57,3525.354,1,3525.354,0,0,NA,"Click To Continue","Continue Button",2,"object-44","Task Instructions",NA,"SUPAMT41746"
"6",1695842095895,"27/09/2023 19:14:55",1695827695895,-4,"27/09/2023 11:14:55",144636,5,"task-hbx7",NA,31906531,9434661,NA,"complete","jvaotd","30BXRYBRPAWI2X109CWK3M01HCNWHY","computer","Desktop or Laptop","Windows 10","Chrome 116.0.0.0","1366x768","1366x619",NA,NA,0,"Task Introduction and Instructions (Clone)",9,"EFDGCHBIAJ","Passed AC2","","Spreadsheet1",NA,"","","",NA,"5","END",NA,NA,NA,NA,NA,NA,0,NA,NA,NA,NA,"","",NA,"","",NA,"SUPAMT41746"
"1",1695842089549,"27/09/2023 19:14:49",1695827689549,-4,"27/09/2023 11:14:49",144636,5,"task-hbx7",NA,31906536,9434898,NA,"complete","fgfwcs","386PBUZZXLWYI9KRTYS36OZ0WW2JLA","computer","Desktop or Laptop","Windows 10","Chrome 116.0.0.0","1366x768","1327x596",NA,NA,0,"Task Introduction and Instructions (Clone)",9,"HIGJFAEBDC","Passed AC2","","Spreadsheet1",NA,"","","",NA,"5","BEGIN",NA,NA,NA,NA,NA,NA,0,NA,NA,NA,NA,"","",NA,"","",NA,"SUPAMT56321"
"2",1695842102515,"27/09/2023 19:15:02",1695827702515,-4,"27/09/2023 11:15:02",144636,5,"task-hbx7",NA,31906536,9434898,NA,"complete","fgfwcs","386PBUZZXLWYI9KRTYS36OZ0WW2JLA","computer","Desktop or Laptop","Windows 10","Chrome 116.0.0.0","1366x768","1327x596",NA,NA,0,"Task Introduction and Instructions (Clone)",9,"HIGJFAEBDC","Passed AC2","","Spreadsheet1",1,"Task Instructions","Screen 1","anr7sn",1,"continue","",12760.3590001907,12746.177,12760.3590001907,12760.3590001907,12746.177,12760.3590001907,1,12760.3590001907,0,0,NA,"Click To Continue","Continue Button",2,"object-1944","Task Instructions",NA,"SUPAMT56321"
"3",1695842121338,"27/09/2023 19:15:21",1695827721338,-4,"27/09/2023 11:15:21",144636,5,"task-hbx7",NA,31906536,9434898,NA,"complete","fgfwcs","386PBUZZXLWYI9KRTYS36OZ0WW2JLA","computer","Desktop or Laptop","Windows 10","Chrome 116.0.0.0","1366x768","1327x596",NA,NA,0,"Task Introduction and Instructions (Clone)",9,"HIGJFAEBDC","Passed AC2","","Spreadsheet1",1,"Task Instructions","Screen 2","ce2tc8",2,"continue","",18837.482000143,18821.988,18837.482000143,18837.482000143,18821.988,18837.482000143,1,18837.482000143,0,0,NA,"Click To Continue","Continue Button",2,"object-7","Task Instructions",NA,"SUPAMT56321"
"4",1695842125650,"27/09/2023 19:15:25",1695827725650,-4,"27/09/2023 11:15:25",144636,5,"task-hbx7",NA,31906536,9434898,NA,"complete","fgfwcs","386PBUZZXLWYI9KRTYS36OZ0WW2JLA","computer","Desktop or Laptop","Windows 10","Chrome 116.0.0.0","1366x768","1327x596",NA,NA,0,"Task Introduction and Instructions (Clone)",9,"HIGJFAEBDC","Passed AC2","","Spreadsheet1",1,"Task Instructions","Screen 5","spepx9",3,"continue","",4327.09400004768,4320.96,4327.09400004768,4327.09400004768,4320.96,4327.09400004768,1,4327.09400004768,0,0,NA,"Click To Continue","Continue Button",2,"object-9","Task Instructions",NA,"SUPAMT56321"
"5",1695842132874,"27/09/2023 19:15:32",1695827732874,-4,"27/09/2023 11:15:32",144636,5,"task-hbx7",NA,31906536,9434898,NA,"complete","fgfwcs","386PBUZZXLWYI9KRTYS36OZ0WW2JLA","computer","Desktop or Laptop","Windows 10","Chrome 116.0.0.0","1366x768","1327x596",NA,NA,0,"Task Introduction and Instructions (Clone)",9,"HIGJFAEBDC","Passed AC2","","Spreadsheet1",1,"Task Instructions","Screen 9","8nvnao",4,"continue","",7230.53400014305,7217.523,7230.53400014305,7230.53400014305,7217.523,7230.53400014305,1,7230.53400014305,0,0,NA,"Click To Continue","Continue Button",2,"object-44","Task Instructions",NA,"SUPAMT56321"
"6",1695842132877,"27/09/2023 19:15:32",1695827732877,-4,"27/09/2023 11:15:32",144636,5,"task-hbx7",NA,31906536,9434898,NA,"complete","fgfwcs","386PBUZZXLWYI9KRTYS36OZ0WW2JLA","computer","Desktop or Laptop","Windows 10","Chrome 116.0.0.0","1366x768","1327x596",NA,NA,0,"Task Introduction and Instructions (Clone)",9,"HIGJFAEBDC","Passed AC2","","Spreadsheet1",NA,"","","",NA,"5","END",NA,NA,NA,NA,NA,NA,0,NA,NA,NA,NA,"","",NA,"","",NA,"SUPAMT56321"
"1",1695842088168,"27/09/2023 19:14:48",1695827688168,-4,"27/09/2023 11:14:48",144636,5,"task-hbx7",NA,31906537,9434768,NA,"complete","ylvjyp","34S6N1K2Z1I2R3P15YPIUBJLJ5MHLT","computer","Desktop or Laptop","Windows 10","Chrome 116.0.0.0","1366x768","1366x619",NA,NA,0,"Task Introduction and Instructions (Clone)",9,"IJHAGBFCED","Failed AC2","Passed AC1","Spreadsheet1",NA,"","","",NA,"5","BEGIN",NA,NA,NA,NA,NA,NA,0,NA,NA,NA,NA,"","",NA,"","",NA,"SUPAMT93128"
"2",1695842095891,"27/09/2023 19:14:55",1695827695891,-4,"27/09/2023 11:14:55",144636,5,"task-hbx7",NA,31906537,9434768,NA,"complete","ylvjyp","34S6N1K2Z1I2R3P15YPIUBJLJ5MHLT","computer","Desktop or Laptop","Windows 10","Chrome 116.0.0.0","1366x768","1366x619",NA,NA,0,"Task Introduction and Instructions (Clone)",9,"IJHAGBFCED","Failed AC2","Passed AC1","Spreadsheet1",1,"Task Instructions","Screen 1","anr7sn",1,"continue","",7714.53000014305,7710.096,7714.53000014305,7714.53000014305,7710.096,7714.53000014305,1,7714.53000014305,0,0,NA,"Click To Continue","Continue Button",2,"object-1944","Task Instructions",NA,"SUPAMT93128"
"3",1695842098915,"27/09/2023 19:14:58",1695827698915,-4,"27/09/2023 11:14:58",144636,5,"task-hbx7",NA,31906537,9434768,NA,"complete","ylvjyp","34S6N1K2Z1I2R3P15YPIUBJLJ5MHLT","computer","Desktop or Laptop","Windows 10","Chrome 116.0.0.0","1366x768","1366x619",NA,NA,0,"Task Introduction and Instructions (Clone)",9,"IJHAGBFCED","Failed AC2","Passed AC1","Spreadsheet1",1,"Task Instructions","Screen 2","ce2tc8",2,"continue","",3028.73400009537,3017.25,3028.73400009537,3028.73400009537,3017.25,3028.73400009537,1,3028.73400009537,0,0,NA,"Click To Continue","Continue Button",2,"object-7","Task Instructions",NA,"SUPAMT93128"
"4",1695842102100,"27/09/2023 19:15:02",1695827702100,-4,"27/09/2023 11:15:02",144636,5,"task-hbx7",NA,31906537,9434768,NA,"complete","ylvjyp","34S6N1K2Z1I2R3P15YPIUBJLJ5MHLT","computer","Desktop or Laptop","Windows 10","Chrome 116.0.0.0","1366x768","1366x619",NA,NA,0,"Task Introduction and Instructions (Clone)",9,"IJHAGBFCED","Failed AC2","Passed AC1","Spreadsheet1",1,"Task Instructions","Screen 5","spepx9",3,"continue","",3193.58,3181.881,3193.58,3193.58,3181.881,3193.58,1,3193.58,0,0,NA,"Click To Continue","Continue Button",2,"object-9","Task Instructions",NA,"SUPAMT93128"
"5",1695842105450,"27/09/2023 19:15:05",1695827705450,-4,"27/09/2023 11:15:05",144636,5,"task-hbx7",NA,31906537,9434768,NA,"complete","ylvjyp","34S6N1K2Z1I2R3P15YPIUBJLJ5MHLT","computer","Desktop or Laptop","Windows 10","Chrome 116.0.0.0","1366x768","1366x619",NA,NA,0,"Task Introduction and Instructions (Clone)",9,"IJHAGBFCED","Failed AC2","Passed AC1","Spreadsheet1",1,"Task Instructions","Screen 9","8nvnao",4,"continue","",3364.203,3352.233,3364.203,3364.203,3352.233,3364.203,1,3364.203,0,0,NA,"Click To Continue","Continue Button",2,"object-44","Task Instructions",NA,"SUPAMT93128"
"6",1695842105451,"27/09/2023 19:15:05",1695827705451,-4,"27/09/2023 11:15:05",144636,5,"task-hbx7",NA,31906537,9434768,NA,"complete","ylvjyp","34S6N1K2Z1I2R3P15YPIUBJLJ5MHLT","computer","Desktop or Laptop","Windows 10","Chrome 116.0.0.0","1366x768","1366x619",NA,NA,0,"Task Introduction and Instructions (Clone)",9,"IJHAGBFCED","Failed AC2","Passed AC1","Spreadsheet1",NA,"","","",NA,"5","END",NA,NA,NA,NA,NA,NA,0,NA,NA,NA,NA,"","",NA,"","",NA,"SUPAMT93128"
"1",1695841939593,"27/09/2023 19:12:19",1695827539593,-4,"27/09/2023 11:12:19",144636,5,"task-hbx7",NA,31906590,9435252,NA,"complete","fgfhmm","38BQUHLA92ZWP2T99NLNEXVBVV4MO0","computer","Desktop or Laptop","Windows 10","Chrome 116.0.0.0","1366x768","1366x619",NA,NA,0,"Task Introduction and Instructions (Clone)",9,"JAIBHCGDFE","Passed AC2","","Spreadsheet1",NA,"","","",NA,"5","BEGIN",NA,NA,NA,NA,NA,NA,0,NA,NA,NA,NA,"","",NA,"","",NA,"SUPAMT69675"
"2",1695841942485,"27/09/2023 19:12:22",1695827542485,-4,"27/09/2023 11:12:22",144636,5,"task-hbx7",NA,31906590,9435252,NA,"complete","fgfhmm","38BQUHLA92ZWP2T99NLNEXVBVV4MO0","computer","Desktop or Laptop","Windows 10","Chrome 116.0.0.0","1366x768","1366x619",NA,NA,0,"Task Introduction and Instructions (Clone)",9,"JAIBHCGDFE","Passed AC2","","Spreadsheet1",1,"Task Instructions","Screen 1","anr7sn",1,"continue","",2850.76800009537,2847.929,2850.76800009537,2850.76800009537,2847.929,2850.76800009537,1,2850.76800009537,0,0,NA,"Click To Continue","Continue Button",2,"object-1944","Task Instructions",NA,"SUPAMT69675"
"3",1695841945349,"27/09/2023 19:12:25",1695827545349,-4,"27/09/2023 11:12:25",144636,5,"task-hbx7",NA,31906590,9435252,NA,"complete","fgfhmm","38BQUHLA92ZWP2T99NLNEXVBVV4MO0","computer","Desktop or Laptop","Windows 10","Chrome 116.0.0.0","1366x768","1366x619",NA,NA,0,"Task Introduction and Instructions (Clone)",9,"JAIBHCGDFE","Passed AC2","","Spreadsheet1",1,"Task Instructions","Screen 2","ce2tc8",2,"continue","",2867.13899980927,2856.302,2867.13899980927,2867.13899980927,2856.302,2867.13899980927,1,2867.13899980927,0,0,NA,"Click To Continue","Continue Button",2,"object-7","Task Instructions",NA,"SUPAMT69675"
"4",1695841948537,"27/09/2023 19:12:28",1695827548537,-4,"27/09/2023 11:12:28",144636,5,"task-hbx7",NA,31906590,9435252,NA,"complete","fgfhmm","38BQUHLA92ZWP2T99NLNEXVBVV4MO0","computer","Desktop or Laptop","Windows 10","Chrome 116.0.0.0","1366x768","1366x619",NA,NA,0,"Task Introduction and Instructions (Clone)",9,"JAIBHCGDFE","Passed AC2","","Spreadsheet1",1,"Task Instructions","Screen 5","spepx9",3,"continue","",3198.93700019073,3196.671,3198.93700019073,3198.93700019073,3196.671,3198.93700019073,1,3198.93700019073,0,0,NA,"Click To Continue","Continue Button",2,"object-9","Task Instructions",NA,"SUPAMT69675"
"5",1695841951583,"27/09/2023 19:12:31",1695827551583,-4,"27/09/2023 11:12:31",144636,5,"task-hbx7",NA,31906590,9435252,NA,"complete","fgfhmm","38BQUHLA92ZWP2T99NLNEXVBVV4MO0","computer","Desktop or Laptop","Windows 10","Chrome 116.0.0.0","1366x768","1366x619",NA,NA,0,"Task Introduction and Instructions (Clone)",9,"JAIBHCGDFE","Passed AC2","","Spreadsheet1",1,"Task Instructions","Screen 9","8nvnao",4,"continue","",3048.56599990463,3044.312,3048.56599990463,3048.56599990463,3044.312,3048.56599990463,1,3048.56599990463,0,0,NA,"Click To Continue","Continue Button",2,"object-44","Task Instructions",NA,"SUPAMT69675"
"6",1695841951590,"27/09/2023 19:12:31",1695827551590,-4,"27/09/2023 11:12:31",144636,5,"task-hbx7",NA,31906590,9435252,NA,"complete","fgfhmm","38BQUHLA92ZWP2T99NLNEXVBVV4MO0","computer","Desktop or Laptop","Windows 10","Chrome 116.0.0.0","1366x768","1366x619",NA,NA,0,"Task Introduction and Instructions (Clone)",9,"JAIBHCGDFE","Passed AC2","","Spreadsheet1",NA,"","","",NA,"5","END",NA,NA,NA,NA,NA,NA,0,NA,NA,NA,NA,"","",NA,"","",NA,"SUPAMT69675"
"1",1695843138368,"27/09/2023 19:32:18",1695828738368,-4,"27/09/2023 11:32:18",144636,5,"task-hbx7",NA,31906980,9434788,NA,"complete","rqazep","30ZX6P7VFEUSHNYJJSAYRS0RQW9J2J","computer","Desktop or Laptop","Windows 10","Chrome 116.0.0.0","1366x768","1366x619",NA,NA,0,"Task Introduction and Instructions (Clone)",9,"DECFBGAHJI","Passed AC2","","Spreadsheet1",NA,"","","",NA,"5","BEGIN",NA,NA,NA,NA,NA,NA,0,NA,NA,NA,NA,"","",NA,"","",NA,"SUPAMT37895"
"2",1695843141717,"27/09/2023 19:32:21",1695828741717,-4,"27/09/2023 11:32:21",144636,5,"task-hbx7",NA,31906980,9434788,NA,"complete","rqazep","30ZX6P7VFEUSHNYJJSAYRS0RQW9J2J","computer","Desktop or Laptop","Windows 10","Chrome 116.0.0.0","1366x768","1366x619",NA,NA,0,"Task Introduction and Instructions (Clone)",9,"DECFBGAHJI","Passed AC2","","Spreadsheet1",1,"Task Instructions","Screen 1","anr7sn",1,"continue","",3238.28899995232,3231.726,3238.28899995232,3238.28899995232,3231.726,3238.28899995232,1,3238.28899995232,0,0,NA,"Click To Continue","Continue Button",2,"object-1944","Task Instructions",NA,"SUPAMT37895"
"3",1695843144915,"27/09/2023 19:32:24",1695828744915,-4,"27/09/2023 11:32:24",144636,5,"task-hbx7",NA,31906980,9434788,NA,"complete","rqazep","30ZX6P7VFEUSHNYJJSAYRS0RQW9J2J","computer","Desktop or Laptop","Windows 10","Chrome 116.0.0.0","1366x768","1366x619",NA,NA,0,"Task Introduction and Instructions (Clone)",9,"DECFBGAHJI","Passed AC2","","Spreadsheet1",1,"Task Instructions","Screen 2","ce2tc8",2,"continue","",3205.46300004768,3203.097,3205.46300004768,3205.46300004768,3203.097,3205.46300004768,1,3205.46300004768,0,0,NA,"Click To Continue","Continue Button",2,"object-7","Task Instructions",NA,"SUPAMT37895"
"4",1695843148245,"27/09/2023 19:32:28",1695828748245,-4,"27/09/2023 11:32:28",144636,5,"task-hbx7",NA,31906980,9434788,NA,"complete","rqazep","30ZX6P7VFEUSHNYJJSAYRS0RQW9J2J","computer","Desktop or Laptop","Windows 10","Chrome 116.0.0.0","1366x768","1366x619",NA,NA,0,"Task Introduction and Instructions (Clone)",9,"DECFBGAHJI","Passed AC2","","Spreadsheet1",1,"Task Instructions","Screen 5","spepx9",3,"continue","",3331.26600014305,3315.553,3331.26600014305,3331.26600014305,3315.553,3331.26600014305,1,3331.26600014305,0,0,NA,"Click To Continue","Continue Button",2,"object-9","Task Instructions",NA,"SUPAMT37895"
"5",1695843151140,"27/09/2023 19:32:31",1695828751140,-4,"27/09/2023 11:32:31",144636,5,"task-hbx7",NA,31906980,9434788,NA,"complete","rqazep","30ZX6P7VFEUSHNYJJSAYRS0RQW9J2J","computer","Desktop or Laptop","Windows 10","Chrome 116.0.0.0","1366x768","1366x619",NA,NA,0,"Task Introduction and Instructions (Clone)",9,"DECFBGAHJI","Passed AC2","","Spreadsheet1",1,"Task Instructions","Screen 9","8nvnao",4,"continue","",2910.91299995232,2901.554,2910.91299995232,2910.91299995232,2901.554,2910.91299995232,1,2910.91299995232,0,0,NA,"Click To Continue","Continue Button",2,"object-44","Task Instructions",NA,"SUPAMT37895"
"6",1695843151143,"27/09/2023 19:32:31",1695828751143,-4,"27/09/2023 11:32:31",144636,5,"task-hbx7",NA,31906980,9434788,NA,"complete","rqazep","30ZX6P7VFEUSHNYJJSAYRS0RQW9J2J","computer","Desktop or Laptop","Windows 10","Chrome 116.0.0.0","1366x768","1366x619",NA,NA,0,"Task Introduction and Instructions (Clone)",9,"DECFBGAHJI","Passed AC2","","Spreadsheet1",NA,"","","",NA,"5","END",NA,NA,NA,NA,NA,NA,0,NA,NA,NA,NA,"","",NA,"","",NA,"SUPAMT37895"
"1",1695843387771,"27/09/2023 19:36:27",1695828987771,-4,"27/09/2023 11:36:27",144636,5,"task-hbx7",NA,31907156,9434806,NA,"complete","henypu","","computer","Desktop or Laptop","Windows 10","Chrome 116.0.0.0","1600x900","1600x751",NA,NA,0,"Task Introduction and Instructions (Clone)",9,"ABJCIDHEGF","Failed AC2","Passed AC1","Spreadsheet1",NA,"","","",NA,"5","BEGIN",NA,NA,NA,NA,NA,NA,0,NA,NA,NA,NA,"","",NA,"","",NA,NA
"2",1695843391413,"27/09/2023 19:36:31",1695828991413,-4,"27/09/2023 11:36:31",144636,5,"task-hbx7",NA,31907156,9434806,NA,"complete","henypu","","computer","Desktop or Laptop","Windows 10","Chrome 116.0.0.0","1600x900","1600x751",NA,NA,0,"Task Introduction and Instructions (Clone)",9,"ABJCIDHEGF","Failed AC2","Passed AC1","Spreadsheet1",1,"Task Instructions","Screen 1","anr7sn",1,"continue","",3408.13999997616,3396.927,3408.13999997616,3408.13999997616,3396.927,3408.13999997616,1,3408.13999997616,0,0,NA,"Click To Continue","Continue Button",2,"object-1944","Task Instructions",NA,NA
"3",1695843398060,"27/09/2023 19:36:38",1695828998060,-4,"27/09/2023 11:36:38",144636,5,"task-hbx7",NA,31907156,9434806,NA,"complete","henypu","","computer","Desktop or Laptop","Windows 10","Chrome 116.0.0.0","1600x900","1600x751",NA,NA,0,"Task Introduction and Instructions (Clone)",9,"ABJCIDHEGF","Failed AC2","Passed AC1","Spreadsheet1",1,"Task Instructions","Screen 2","ce2tc8",2,"continue","",6659.01299992847,6656.816,6659.01299992847,6659.01299992847,6656.816,6659.01299992847,1,6659.01299992847,0,0,NA,"Click To Continue","Continue Button",2,"object-7","Task Instructions",NA,NA
"4",1695843401018,"27/09/2023 19:36:41",1695829001018,-4,"27/09/2023 11:36:41",144636,5,"task-hbx7",NA,31907156,9434806,NA,"complete","henypu","","computer","Desktop or Laptop","Windows 10","Chrome 116.0.0.0","1600x900","1600x751",NA,NA,0,"Task Introduction and Instructions (Clone)",9,"ABJCIDHEGF","Failed AC2","Passed AC1","Spreadsheet1",1,"Task Instructions","Screen 5","spepx9",3,"continue","",2958.922,2942.256,2958.922,2958.922,2942.256,2958.922,1,2958.922,0,0,NA,"Click To Continue","Continue Button",2,"object-9","Task Instructions",NA,NA
"5",1695843412099,"27/09/2023 19:36:52",1695829012099,-4,"27/09/2023 11:36:52",144636,5,"task-hbx7",NA,31907156,9434806,NA,"complete","henypu","","computer","Desktop or Laptop","Windows 10","Chrome 116.0.0.0","1600x900","1600x751",NA,NA,0,"Task Introduction and Instructions (Clone)",9,"ABJCIDHEGF","Failed AC2","Passed AC1","Spreadsheet1",1,"Task Instructions","Screen 9","8nvnao",4,"continue","",11098.015,11081.349,11098.015,11098.015,11081.349,11098.015,1,11098.015,0,0,NA,"Click To Continue","Continue Button",2,"object-44","Task Instructions",NA,NA
"6",1695843412104,"27/09/2023 19:36:52",1695829012104,-4,"27/09/2023 11:36:52",144636,5,"task-hbx7",NA,31907156,9434806,NA,"complete","henypu","","computer","Desktop or Laptop","Windows 10","Chrome 116.0.0.0","1600x900","1600x751",NA,NA,0,"Task Introduction and Instructions (Clone)",9,"ABJCIDHEGF","Failed AC2","Passed AC1","Spreadsheet1",NA,"","","",NA,"5","END",NA,NA,NA,NA,NA,NA,0,NA,NA,NA,NA,"","",NA,"","",NA,NA
"1",1695865524014,"28/09/2023 01:45:24",1695851124014,-4,"27/09/2023 17:45:24",144636,5,"task-hbx7",NA,31907609,9435859,NA,"complete","mhiuae","3R9WASFE25F2IWFZP9SRZ5I6IZMFZH","computer","Desktop or Laptop","Windows 10","Chrome 116.0.0.0","1366x768","1366x619",NA,NA,0,"Task Introduction and Instructions (Clone)",9,"EFDGCHBIAJ","Passed AC2","","Spreadsheet1",NA,"","","",NA,"5","BEGIN",NA,NA,NA,NA,NA,NA,0,NA,NA,NA,NA,"","",NA,"","",NA,"SUPAMT69504"
"2",1695865527309,"28/09/2023 01:45:27",1695851127309,-4,"27/09/2023 17:45:27",144636,5,"task-hbx7",NA,31907609,9435859,NA,"complete","mhiuae","3R9WASFE25F2IWFZP9SRZ5I6IZMFZH","computer","Desktop or Laptop","Windows 10","Chrome 116.0.0.0","1366x768","1366x619",NA,NA,0,"Task Introduction and Instructions (Clone)",9,"EFDGCHBIAJ","Passed AC2","","Spreadsheet1",1,"Task Instructions","Screen 1","anr7sn",1,"continue","",3273.25499995232,3263.793,3273.25499995232,3273.25499995232,3263.793,3273.25499995232,1,3273.25499995232,0,0,NA,"Click To Continue","Continue Button",2,"object-1944","Task Instructions",NA,"SUPAMT69504"
"3",1695865533355,"28/09/2023 01:45:33",1695851133355,-4,"27/09/2023 17:45:33",144636,5,"task-hbx7",NA,31907609,9435859,NA,"complete","mhiuae","3R9WASFE25F2IWFZP9SRZ5I6IZMFZH","computer","Desktop or Laptop","Windows 10","Chrome 116.0.0.0","1366x768","1366x619",NA,NA,0,"Task Introduction and Instructions (Clone)",9,"EFDGCHBIAJ","Passed AC2","","Spreadsheet1",1,"Task Instructions","Screen 2","ce2tc8",2,"continue","",6055.76199990463,6029.197,6055.76199990463,6055.76199990463,6029.197,6055.76199990463,1,6055.76199990463,0,0,NA,"Click To Continue","Continue Button",2,"object-7","Task Instructions",NA,"SUPAMT69504"
"4",1695865536396,"28/09/2023 01:45:36",1695851136396,-4,"27/09/2023 17:45:36",144636,5,"task-hbx7",NA,31907609,9435859,NA,"complete","mhiuae","3R9WASFE25F2IWFZP9SRZ5I6IZMFZH","computer","Desktop or Laptop","Windows 10","Chrome 116.0.0.0","1366x768","1366x619",NA,NA,0,"Task Introduction and Instructions (Clone)",9,"EFDGCHBIAJ","Passed AC2","","Spreadsheet1",1,"Task Instructions","Screen 5","spepx9",3,"continue","",3067.06499990463,3051.524,3067.06499990463,3067.06499990463,3051.524,3067.06499990463,1,3067.06499990463,0,0,NA,"Click To Continue","Continue Button",2,"object-9","Task Instructions",NA,"SUPAMT69504"
"5",1695865539909,"28/09/2023 01:45:39",1695851139909,-4,"27/09/2023 17:45:39",144636,5,"task-hbx7",NA,31907609,9435859,NA,"complete","mhiuae","3R9WASFE25F2IWFZP9SRZ5I6IZMFZH","computer","Desktop or Laptop","Windows 10","Chrome 116.0.0.0","1366x768","1366x619",NA,NA,0,"Task Introduction and Instructions (Clone)",9,"EFDGCHBIAJ","Passed AC2","","Spreadsheet1",1,"Task Instructions","Screen 9","8nvnao",4,"continue","",3528.84100009537,3517.451,3528.84100009537,3528.84100009537,3517.451,3528.84100009537,1,3528.84100009537,0,0,NA,"Click To Continue","Continue Button",2,"object-44","Task Instructions",NA,"SUPAMT69504"
"6",1695865539911,"28/09/2023 01:45:39",1695851139911,-4,"27/09/2023 17:45:39",144636,5,"task-hbx7",NA,31907609,9435859,NA,"complete","mhiuae","3R9WASFE25F2IWFZP9SRZ5I6IZMFZH","computer","Desktop or Laptop","Windows 10","Chrome 116.0.0.0","1366x768","1366x619",NA,NA,0,"Task Introduction and Instructions (Clone)",9,"EFDGCHBIAJ","Passed AC2","","Spreadsheet1",NA,"","","",NA,"5","END",NA,NA,NA,NA,NA,NA,0,NA,NA,NA,NA,"","",NA,"","",NA,"SUPAMT69504"
"1",1695865554110,"28/09/2023 01:45:54",1695851154110,-4,"27/09/2023 17:45:54",144636,5,"task-hbx7",NA,31907646,9435835,NA,"complete","xnepon","3M0BCWMB81V8BKYE9KMOHBX3MZVWBV","computer","Desktop or Laptop","Windows 10","Chrome 116.0.0.0","1366x768","1366x619",NA,NA,0,"Task Introduction and Instructions (Clone)",9,"DECFBGAHJI","Passed AC2","","Spreadsheet1",NA,"","","",NA,"5","BEGIN",NA,NA,NA,NA,NA,NA,0,NA,NA,NA,NA,"","",NA,"","",NA,"SUPAMT94580"
"2",1695865563100,"28/09/2023 01:46:03",1695851163100,-4,"27/09/2023 17:46:03",144636,5,"task-hbx7",NA,31907646,9435835,NA,"complete","xnepon","3M0BCWMB81V8BKYE9KMOHBX3MZVWBV","computer","Desktop or Laptop","Windows 10","Chrome 116.0.0.0","1366x768","1366x619",NA,NA,0,"Task Introduction and Instructions (Clone)",9,"DECFBGAHJI","Passed AC2","","Spreadsheet1",1,"Task Instructions","Screen 1","anr7sn",1,"continue","",8767.219,8763.664,8767.219,8767.219,8763.664,8767.219,1,8767.219,0,0,NA,"Click To Continue","Continue Button",2,"object-1944","Task Instructions",NA,"SUPAMT94580"
"3",1695865566465,"28/09/2023 01:46:06",1695851166465,-4,"27/09/2023 17:46:06",144636,5,"task-hbx7",NA,31907646,9435835,NA,"complete","xnepon","3M0BCWMB81V8BKYE9KMOHBX3MZVWBV","computer","Desktop or Laptop","Windows 10","Chrome 116.0.0.0","1366x768","1366x619",NA,NA,0,"Task Introduction and Instructions (Clone)",9,"DECFBGAHJI","Passed AC2","","Spreadsheet1",1,"Task Instructions","Screen 2","ce2tc8",2,"continue","",3368.555,3347.366,3368.555,3368.555,3347.366,3368.555,1,3368.555,0,0,NA,"Click To Continue","Continue Button",2,"object-7","Task Instructions",NA,"SUPAMT94580"
"4",1695865569859,"28/09/2023 01:46:09",1695851169859,-4,"27/09/2023 17:46:09",144636,5,"task-hbx7",NA,31907646,9435835,NA,"complete","xnepon","3M0BCWMB81V8BKYE9KMOHBX3MZVWBV","computer","Desktop or Laptop","Windows 10","Chrome 116.0.0.0","1366x768","1366x619",NA,NA,0,"Task Introduction and Instructions (Clone)",9,"DECFBGAHJI","Passed AC2","","Spreadsheet1",1,"Task Instructions","Screen 5","spepx9",3,"continue","",3415.58899985695,3400.19,3415.58899985695,3415.58899985695,3400.19,3415.58899985695,1,3415.58899985695,0,0,NA,"Click To Continue","Continue Button",2,"object-9","Task Instructions",NA,"SUPAMT94580"
"5",1695865575194,"28/09/2023 01:46:15",1695851175194,-4,"27/09/2023 17:46:15",144636,5,"task-hbx7",NA,31907646,9435835,NA,"complete","xnepon","3M0BCWMB81V8BKYE9KMOHBX3MZVWBV","computer","Desktop or Laptop","Windows 10","Chrome 116.0.0.0","1366x768","1366x619",NA,NA,0,"Task Introduction and Instructions (Clone)",9,"DECFBGAHJI","Passed AC2","","Spreadsheet1",1,"Task Instructions","Screen 9","8nvnao",4,"continue","",5349.999,5322.14,5349.999,5349.999,5322.14,5349.999,1,5349.999,0,0,NA,"Click To Continue","Continue Button",2,"object-44","Task Instructions",NA,"SUPAMT94580"
"6",1695865575195,"28/09/2023 01:46:15",1695851175195,-4,"27/09/2023 17:46:15",144636,5,"task-hbx7",NA,31907646,9435835,NA,"complete","xnepon","3M0BCWMB81V8BKYE9KMOHBX3MZVWBV","computer","Desktop or Laptop","Windows 10","Chrome 116.0.0.0","1366x768","1366x619",NA,NA,0,"Task Introduction and Instructions (Clone)",9,"DECFBGAHJI","Passed AC2","","Spreadsheet1",NA,"","","",NA,"5","END",NA,NA,NA,NA,NA,NA,0,NA,NA,NA,NA,"","",NA,"","",NA,"SUPAMT94580"
"1",1695843959466,"27/09/2023 19:45:59",1695829559466,-4,"27/09/2023 11:45:59",144636,5,"task-hbx7",NA,31907700,9435822,NA,"complete","jnaanr","3Y5140Z9D3FSEJFJ380AB4TKOS7PIX","computer","Desktop or Laptop","Windows 10","Chrome 116.0.0.0","1366x768","1366x619",NA,NA,0,"Task Introduction and Instructions (Clone)",9,"CDBEAFJGIH","Passed AC2","","Spreadsheet1",NA,"","","",NA,"5","BEGIN",NA,NA,NA,NA,NA,NA,0,NA,NA,NA,NA,"","",NA,"","",NA,"SUPAMT94387"
"2",1695843963244,"27/09/2023 19:46:03",1695829563244,-4,"27/09/2023 11:46:03",144636,5,"task-hbx7",NA,31907700,9435822,NA,"complete","jnaanr","3Y5140Z9D3FSEJFJ380AB4TKOS7PIX","computer","Desktop or Laptop","Windows 10","Chrome 116.0.0.0","1366x768","1366x619",NA,NA,0,"Task Introduction and Instructions (Clone)",9,"CDBEAFJGIH","Passed AC2","","Spreadsheet1",1,"Task Instructions","Screen 1","anr7sn",1,"continue","",3746.01799995232,3738.971,3746.01799995232,3746.01799995232,3738.971,3746.01799995232,1,3746.01799995232,0,0,NA,"Click To Continue","Continue Button",2,"object-1944","Task Instructions",NA,"SUPAMT94387"
"3",1695843966251,"27/09/2023 19:46:06",1695829566251,-4,"27/09/2023 11:46:06",144636,5,"task-hbx7",NA,31907700,9435822,NA,"complete","jnaanr","3Y5140Z9D3FSEJFJ380AB4TKOS7PIX","computer","Desktop or Laptop","Windows 10","Chrome 116.0.0.0","1366x768","1366x619",NA,NA,0,"Task Introduction and Instructions (Clone)",9,"CDBEAFJGIH","Passed AC2","","Spreadsheet1",1,"Task Instructions","Screen 2","ce2tc8",2,"continue","",3013.506,2996.84,3013.506,3013.506,2996.84,3013.506,1,3013.506,0,0,NA,"Click To Continue","Continue Button",2,"object-7","Task Instructions",NA,"SUPAMT94387"
"4",1695843969622,"27/09/2023 19:46:09",1695829569622,-4,"27/09/2023 11:46:09",144636,5,"task-hbx7",NA,31907700,9435822,NA,"complete","jnaanr","3Y5140Z9D3FSEJFJ380AB4TKOS7PIX","computer","Desktop or Laptop","Windows 10","Chrome 116.0.0.0","1366x768","1366x619",NA,NA,0,"Task Introduction and Instructions (Clone)",9,"CDBEAFJGIH","Passed AC2","","Spreadsheet1",1,"Task Instructions","Screen 5","spepx9",3,"continue","",3388.70699995232,3379.951,3388.70699995232,3388.70699995232,3379.951,3388.70699995232,1,3388.70699995232,0,0,NA,"Click To Continue","Continue Button",2,"object-9","Task Instructions",NA,"SUPAMT94387"
"5",1695843972649,"27/09/2023 19:46:12",1695829572649,-4,"27/09/2023 11:46:12",144636,5,"task-hbx7",NA,31907700,9435822,NA,"complete","jnaanr","3Y5140Z9D3FSEJFJ380AB4TKOS7PIX","computer","Desktop or Laptop","Windows 10","Chrome 116.0.0.0","1366x768","1366x619",NA,NA,0,"Task Introduction and Instructions (Clone)",9,"CDBEAFJGIH","Passed AC2","","Spreadsheet1",1,"Task Instructions","Screen 9","8nvnao",4,"continue","",3035.35599985695,3030.124,3035.35599985695,3035.35599985695,3030.124,3035.35599985695,1,3035.35599985695,0,0,NA,"Click To Continue","Continue Button",2,"object-44","Task Instructions",NA,"SUPAMT94387"
"6",1695843972651,"27/09/2023 19:46:12",1695829572651,-4,"27/09/2023 11:46:12",144636,5,"task-hbx7",NA,31907700,9435822,NA,"complete","jnaanr","3Y5140Z9D3FSEJFJ380AB4TKOS7PIX","computer","Desktop or Laptop","Windows 10","Chrome 116.0.0.0","1366x768","1366x619",NA,NA,0,"Task Introduction and Instructions (Clone)",9,"CDBEAFJGIH","Passed AC2","","Spreadsheet1",NA,"","","",NA,"5","END",NA,NA,NA,NA,NA,NA,0,NA,NA,NA,NA,"","",NA,"","",NA,"SUPAMT94387"
"1",1695844210137,"27/09/2023 19:50:10",1695829810137,-4,"27/09/2023 11:50:10",144636,5,"task-hbx7",NA,31907944,9435866,NA,"complete","esrdgj","3U84XHCDIICSKGIA5SW881LFT9HZ4H","computer","Desktop or Laptop","Windows 10","Chrome 117.0.0.0","1280x800","1280x651",NA,NA,0,"Task Introduction and Instructions (Clone)",9,"FGEHDICJBA","Passed AC2","","Spreadsheet1",NA,"","","",NA,"5","BEGIN",NA,NA,NA,NA,NA,NA,0,NA,NA,NA,NA,"","",NA,"","",NA,"SUPAMT21062"
"2",1695844214088,"27/09/2023 19:50:14",1695829814088,-4,"27/09/2023 11:50:14",144636,5,"task-hbx7",NA,31907944,9435866,NA,"complete","esrdgj","3U84XHCDIICSKGIA5SW881LFT9HZ4H","computer","Desktop or Laptop","Windows 10","Chrome 117.0.0.0","1280x800","1280x651",NA,NA,0,"Task Introduction and Instructions (Clone)",9,"FGEHDICJBA","Passed AC2","","Spreadsheet1",1,"Task Instructions","Screen 1","anr7sn",1,"continue","",3845.23599997616,3830.364,3845.23599997616,3845.23599997616,3830.364,3845.23599997616,1,3845.23599997616,0,0,NA,"Click To Continue","Continue Button",2,"object-1944","Task Instructions",NA,"SUPAMT21062"
"3",1695844217364,"27/09/2023 19:50:17",1695829817364,-4,"27/09/2023 11:50:17",144636,5,"task-hbx7",NA,31907944,9435866,NA,"complete","esrdgj","3U84XHCDIICSKGIA5SW881LFT9HZ4H","computer","Desktop or Laptop","Windows 10","Chrome 117.0.0.0","1280x800","1280x651",NA,NA,0,"Task Introduction and Instructions (Clone)",9,"FGEHDICJBA","Passed AC2","","Spreadsheet1",1,"Task Instructions","Screen 2","ce2tc8",2,"continue","",3289.487,3258.237,3289.487,3289.487,3258.237,3289.487,1,3289.487,0,0,NA,"Click To Continue","Continue Button",2,"object-7","Task Instructions",NA,"SUPAMT21062"
"4",1695844221201,"27/09/2023 19:50:21",1695829821201,-4,"27/09/2023 11:50:21",144636,5,"task-hbx7",NA,31907944,9435866,NA,"complete","esrdgj","3U84XHCDIICSKGIA5SW881LFT9HZ4H","computer","Desktop or Laptop","Windows 10","Chrome 117.0.0.0","1280x800","1280x651",NA,NA,0,"Task Introduction and Instructions (Clone)",9,"FGEHDICJBA","Passed AC2","","Spreadsheet1",1,"Task Instructions","Screen 5","spepx9",3,"continue","",3869.93499998808,3865.217,3869.93499998808,3869.93499998808,3865.217,3869.93499998808,1,3869.93499998808,0,0,NA,"Click To Continue","Continue Button",2,"object-9","Task Instructions",NA,"SUPAMT21062"
"5",1695844224587,"27/09/2023 19:50:24",1695829824587,-4,"27/09/2023 11:50:24",144636,5,"task-hbx7",NA,31907944,9435866,NA,"complete","esrdgj","3U84XHCDIICSKGIA5SW881LFT9HZ4H","computer","Desktop or Laptop","Windows 10","Chrome 117.0.0.0","1280x800","1280x651",NA,NA,0,"Task Introduction and Instructions (Clone)",9,"FGEHDICJBA","Passed AC2","","Spreadsheet1",1,"Task Instructions","Screen 9","8nvnao",4,"continue","",3390.31799995232,3370.039,3390.31799995232,3390.31799995232,3370.039,3390.31799995232,1,3390.31799995232,0,0,NA,"Click To Continue","Continue Button",2,"object-44","Task Instructions",NA,"SUPAMT21062"
"6",1695844224595,"27/09/2023 19:50:24",1695829824595,-4,"27/09/2023 11:50:24",144636,5,"task-hbx7",NA,31907944,9435866,NA,"complete","esrdgj","3U84XHCDIICSKGIA5SW881LFT9HZ4H","computer","Desktop or Laptop","Windows 10","Chrome 117.0.0.0","1280x800","1280x651",NA,NA,0,"Task Introduction and Instructions (Clone)",9,"FGEHDICJBA","Passed AC2","","Spreadsheet1",NA,"","","",NA,"5","END",NA,NA,NA,NA,NA,NA,0,NA,NA,NA,NA,"","",NA,"","",NA,"SUPAMT21062"
"1",1695848173079,"27/09/2023 20:56:13",1695830173079,-5,"27/09/2023 10:56:13",144636,5,"task-hbx7",NA,31908265,9436155,NA,"complete","vlmsxe","3634BBTX0UTGN6QPP545ZAFGMMLIFO","computer","Desktop or Laptop","Windows 10","Chrome 117.0.0.0","1366x768","1366x651",NA,NA,0,"Task Introduction and Instructions (Clone)",9,"BCADJEIFHG","Passed AC2","","Spreadsheet1",NA,"","","",NA,"5","BEGIN",NA,NA,NA,NA,NA,NA,0,NA,NA,NA,NA,"","",NA,"","",NA,"SUPAMT45961"
"2",1695848177915,"27/09/2023 20:56:17",1695830177915,-5,"27/09/2023 10:56:17",144636,5,"task-hbx7",NA,31908265,9436155,NA,"complete","vlmsxe","3634BBTX0UTGN6QPP545ZAFGMMLIFO","computer","Desktop or Laptop","Windows 10","Chrome 117.0.0.0","1366x768","1366x651",NA,NA,0,"Task Introduction and Instructions (Clone)",9,"BCADJEIFHG","Passed AC2","","Spreadsheet1",1,"Task Instructions","Screen 1","anr7sn",1,"continue","",4808,4796.128,4808,4808,4796.128,4808,1,4808,0,0,NA,"Click To Continue","Continue Button",2,"object-1944","Task Instructions",NA,"SUPAMT45961"
"3",1695848181011,"27/09/2023 20:56:21",1695830181011,-5,"27/09/2023 10:56:21",144636,5,"task-hbx7",NA,31908265,9436155,NA,"complete","vlmsxe","3634BBTX0UTGN6QPP545ZAFGMMLIFO","computer","Desktop or Laptop","Windows 10","Chrome 117.0.0.0","1366x768","1366x651",NA,NA,0,"Task Introduction and Instructions (Clone)",9,"BCADJEIFHG","Passed AC2","","Spreadsheet1",1,"Task Instructions","Screen 2","ce2tc8",2,"continue","",3107.372,3092.258,3107.372,3107.372,3092.258,3107.372,1,3107.372,0,0,NA,"Click To Continue","Continue Button",2,"object-7","Task Instructions",NA,"SUPAMT45961"
"4",1695848184498,"27/09/2023 20:56:24",1695830184498,-5,"27/09/2023 10:56:24",144636,5,"task-hbx7",NA,31908265,9436155,NA,"complete","vlmsxe","3634BBTX0UTGN6QPP545ZAFGMMLIFO","computer","Desktop or Laptop","Windows 10","Chrome 117.0.0.0","1366x768","1366x651",NA,NA,0,"Task Introduction and Instructions (Clone)",9,"BCADJEIFHG","Passed AC2","","Spreadsheet1",1,"Task Instructions","Screen 5","spepx9",3,"continue","",3502.51400000037,3494.028,3502.51400000037,3502.51400000037,3494.028,3502.51400000037,1,3502.51400000037,0,0,NA,"Click To Continue","Continue Button",2,"object-9","Task Instructions",NA,"SUPAMT45961"
"5",1695848187602,"27/09/2023 20:56:27",1695830187602,-5,"27/09/2023 10:56:27",144636,5,"task-hbx7",NA,31908265,9436155,NA,"complete","vlmsxe","3634BBTX0UTGN6QPP545ZAFGMMLIFO","computer","Desktop or Laptop","Windows 10","Chrome 117.0.0.0","1366x768","1366x651",NA,NA,0,"Task Introduction and Instructions (Clone)",9,"BCADJEIFHG","Passed AC2","","Spreadsheet1",1,"Task Instructions","Screen 9","8nvnao",4,"continue","",3112.18599999963,3110.525,3112.18599999963,3112.18599999963,3110.525,3112.18599999963,1,3112.18599999963,0,0,NA,"Click To Continue","Continue Button",2,"object-44","Task Instructions",NA,"SUPAMT45961"
"6",1695848187604,"27/09/2023 20:56:27",1695830187604,-5,"27/09/2023 10:56:27",144636,5,"task-hbx7",NA,31908265,9436155,NA,"complete","vlmsxe","3634BBTX0UTGN6QPP545ZAFGMMLIFO","computer","Desktop or Laptop","Windows 10","Chrome 117.0.0.0","1366x768","1366x651",NA,NA,0,"Task Introduction and Instructions (Clone)",9,"BCADJEIFHG","Passed AC2","","Spreadsheet1",NA,"","","",NA,"5","END",NA,NA,NA,NA,NA,NA,0,NA,NA,NA,NA,"","",NA,"","",NA,"SUPAMT45961"
"1",1695844587889,"27/09/2023 19:56:27",1695830187889,-4,"27/09/2023 11:56:27",144636,5,"task-hbx7",NA,31908278,9436072,NA,"complete","kqvuiv","3QXNC7EIPOUWF1IWITF7JAT9XUG09Q","computer","Desktop or Laptop","Windows 10","Chrome 116.0.0.0","1366x768","1366x619",NA,NA,0,"Task Introduction and Instructions (Clone)",9,"IJHAGBFCED","Passed AC2","","Spreadsheet1",NA,"","","",NA,"5","BEGIN",NA,NA,NA,NA,NA,NA,0,NA,NA,NA,NA,"","",NA,"","",NA,"SUPAMT03784"
"2",1695844600315,"27/09/2023 19:56:40",1695830200315,-4,"27/09/2023 11:56:40",144636,5,"task-hbx7",NA,31908278,9436072,NA,"complete","kqvuiv","3QXNC7EIPOUWF1IWITF7JAT9XUG09Q","computer","Desktop or Laptop","Windows 10","Chrome 116.0.0.0","1366x768","1366x619",NA,NA,0,"Task Introduction and Instructions (Clone)",9,"IJHAGBFCED","Passed AC2","","Spreadsheet1",1,"Task Instructions","Screen 1","anr7sn",1,"continue","",12182.7980000477,12173.835,12182.7980000477,12182.7980000477,12173.835,12182.7980000477,1,12182.7980000477,0,0,NA,"Click To Continue","Continue Button",2,"object-1944","Task Instructions",NA,"SUPAMT03784"
"3",1695844604191,"27/09/2023 19:56:44",1695830204191,-4,"27/09/2023 11:56:44",144636,5,"task-hbx7",NA,31908278,9436072,NA,"complete","kqvuiv","3QXNC7EIPOUWF1IWITF7JAT9XUG09Q","computer","Desktop or Laptop","Windows 10","Chrome 116.0.0.0","1366x768","1366x619",NA,NA,0,"Task Introduction and Instructions (Clone)",9,"IJHAGBFCED","Passed AC2","","Spreadsheet1",1,"Task Instructions","Screen 2","ce2tc8",2,"continue","",3884.86299990463,3880.864,3884.86299990463,3884.86299990463,3880.864,3884.86299990463,1,3884.86299990463,0,0,NA,"Click To Continue","Continue Button",2,"object-7","Task Instructions",NA,"SUPAMT03784"
"4",1695844607153,"27/09/2023 19:56:47",1695830207153,-4,"27/09/2023 11:56:47",144636,5,"task-hbx7",NA,31908278,9436072,NA,"complete","kqvuiv","3QXNC7EIPOUWF1IWITF7JAT9XUG09Q","computer","Desktop or Laptop","Windows 10","Chrome 116.0.0.0","1366x768","1366x619",NA,NA,0,"Task Introduction and Instructions (Clone)",9,"IJHAGBFCED","Passed AC2","","Spreadsheet1",1,"Task Instructions","Screen 5","spepx9",3,"continue","",2966.09900004768,2950.627,2966.09900004768,2966.09900004768,2950.627,2966.09900004768,1,2966.09900004768,0,0,NA,"Click To Continue","Continue Button",2,"object-9","Task Instructions",NA,"SUPAMT03784"
"5",1695844610113,"27/09/2023 19:56:50",1695830210113,-4,"27/09/2023 11:56:50",144636,5,"task-hbx7",NA,31908278,9436072,NA,"complete","kqvuiv","3QXNC7EIPOUWF1IWITF7JAT9XUG09Q","computer","Desktop or Laptop","Windows 10","Chrome 116.0.0.0","1366x768","1366x619",NA,NA,0,"Task Introduction and Instructions (Clone)",9,"IJHAGBFCED","Passed AC2","","Spreadsheet1",1,"Task Instructions","Screen 9","8nvnao",4,"continue","",2975.67199985695,2961.061,2975.67199985695,2975.67199985695,2961.061,2975.67199985695,1,2975.67199985695,0,0,NA,"Click To Continue","Continue Button",2,"object-44","Task Instructions",NA,"SUPAMT03784"
"6",1695844610115,"27/09/2023 19:56:50",1695830210115,-4,"27/09/2023 11:56:50",144636,5,"task-hbx7",NA,31908278,9436072,NA,"complete","kqvuiv","3QXNC7EIPOUWF1IWITF7JAT9XUG09Q","computer","Desktop or Laptop","Windows 10","Chrome 116.0.0.0","1366x768","1366x619",NA,NA,0,"Task Introduction and Instructions (Clone)",9,"IJHAGBFCED","Passed AC2","","Spreadsheet1",NA,"","","",NA,"5","END",NA,NA,NA,NA,NA,NA,0,NA,NA,NA,NA,"","",NA,"","",NA,"SUPAMT03784"
"1",1695851823535,"27/09/2023 21:57:03",1695830223535,-6,"27/09/2023 09:57:03",144636,5,"task-hbx7",NA,31908306,9435777,NA,"complete","ysbynr","3NPFYT4IZI3JR1BFZBAOK527BESGXO","computer","Desktop or Laptop","Windows 10","Chrome 119.0.0.0","1536x864","1536x747",NA,NA,0,"Task Introduction and Instructions (Clone)",9,"BCADJEIFHG","Passed AC2","","Spreadsheet1",NA,"","","",NA,"5","BEGIN",NA,NA,NA,NA,NA,NA,0,NA,NA,NA,NA,"","",NA,"","",NA,"SUPAMT87285"
"2",1695851828176,"27/09/2023 21:57:08",1695830228176,-6,"27/09/2023 09:57:08",144636,5,"task-hbx7",NA,31908306,9435777,NA,"complete","ysbynr","3NPFYT4IZI3JR1BFZBAOK527BESGXO","computer","Desktop or Laptop","Windows 10","Chrome 119.0.0.0","1536x864","1536x747",NA,NA,0,"Task Introduction and Instructions (Clone)",9,"BCADJEIFHG","Passed AC2","","Spreadsheet1",1,"Task Instructions","Screen 1","anr7sn",1,"continue","",4621.5,4593.75,4621.5,4621.5,4593.75,4621.5,1,4621.5,0,0,NA,"Click To Continue","Continue Button",2,"object-1944","Task Instructions",NA,"SUPAMT87285"
"3",1695851835641,"27/09/2023 21:57:15",1695830235641,-6,"27/09/2023 09:57:15",144636,5,"task-hbx7",NA,31908306,9435777,NA,"complete","ysbynr","3NPFYT4IZI3JR1BFZBAOK527BESGXO","computer","Desktop or Laptop","Windows 10","Chrome 119.0.0.0","1536x864","1536x747",NA,NA,0,"Task Introduction and Instructions (Clone)",9,"BCADJEIFHG","Passed AC2","","Spreadsheet1",1,"Task Instructions","Screen 2","ce2tc8",2,"continue","",7493.75,7468.75,7493.75,7493.75,7468.75,7493.75,1,7493.75,0,0,NA,"Click To Continue","Continue Button",2,"object-7","Task Instructions",NA,"SUPAMT87285"
"4",1695851840347,"27/09/2023 21:57:20",1695830240347,-6,"27/09/2023 09:57:20",144636,5,"task-hbx7",NA,31908306,9435777,NA,"complete","ysbynr","3NPFYT4IZI3JR1BFZBAOK527BESGXO","computer","Desktop or Laptop","Windows 10","Chrome 119.0.0.0","1536x864","1536x747",NA,NA,0,"Task Introduction and Instructions (Clone)",9,"BCADJEIFHG","Passed AC2","","Spreadsheet1",1,"Task Instructions","Screen 5","spepx9",3,"continue","",4731,4718.75,4731,4731,4718.75,4731,1,4731,0,0,NA,"Click To Continue","Continue Button",2,"object-9","Task Instructions",NA,"SUPAMT87285"
"5",1695851848389,"27/09/2023 21:57:28",1695830248389,-6,"27/09/2023 09:57:28",144636,5,"task-hbx7",NA,31908306,9435777,NA,"complete","ysbynr","3NPFYT4IZI3JR1BFZBAOK527BESGXO","computer","Desktop or Laptop","Windows 10","Chrome 119.0.0.0","1536x864","1536x747",NA,NA,0,"Task Introduction and Instructions (Clone)",9,"BCADJEIFHG","Passed AC2","","Spreadsheet1",1,"Task Instructions","Screen 9","8nvnao",4,"continue","",8053.25,8031.25,8053.25,8053.25,8031.25,8053.25,1,8053.25,0,0,NA,"Click To Continue","Continue Button",2,"object-44","Task Instructions",NA,"SUPAMT87285"
"6",1695851848395,"27/09/2023 21:57:28",1695830248395,-6,"27/09/2023 09:57:28",144636,5,"task-hbx7",NA,31908306,9435777,NA,"complete","ysbynr","3NPFYT4IZI3JR1BFZBAOK527BESGXO","computer","Desktop or Laptop","Windows 10","Chrome 119.0.0.0","1536x864","1536x747",NA,NA,0,"Task Introduction and Instructions (Clone)",9,"BCADJEIFHG","Passed AC2","","Spreadsheet1",NA,"","","",NA,"5","END",NA,NA,NA,NA,NA,NA,0,NA,NA,NA,NA,"","",NA,"","",NA,"SUPAMT87285"
"1",1695844692788,"27/09/2023 19:58:12",1695830292788,-4,"27/09/2023 11:58:12",144636,5,"task-hbx7",NA,31908349,9436086,NA,"complete","satyms","","computer","Desktop or Laptop","Windows 10","Chrome 115.0.0.0","1280x1024","1280x875",NA,NA,0,"Task Introduction and Instructions (Clone)",9,"JAIBHCGDFE","Passed AC2","","Spreadsheet1",NA,"","","",NA,"5","BEGIN",NA,NA,NA,NA,NA,NA,0,NA,NA,NA,NA,"","",NA,"","",NA,NA
"2",1695844699795,"27/09/2023 19:58:19",1695830299795,-4,"27/09/2023 11:58:19",144636,5,"task-hbx7",NA,31908349,9436086,NA,"complete","satyms","","computer","Desktop or Laptop","Windows 10","Chrome 115.0.0.0","1280x1024","1280x875",NA,NA,0,"Task Introduction and Instructions (Clone)",9,"JAIBHCGDFE","Passed AC2","","Spreadsheet1",1,"Task Instructions","Screen 1","anr7sn",1,"continue","",6773.81300009537,6761.513,6773.81300009537,6773.81300009537,6761.513,6773.81300009537,1,6773.81300009537,0,0,NA,"Click To Continue","Continue Button",2,"object-1944","Task Instructions",NA,NA
"3",1695844720912,"27/09/2023 19:58:40",1695830320912,-4,"27/09/2023 11:58:40",144636,5,"task-hbx7",NA,31908349,9436086,NA,"complete","satyms","","computer","Desktop or Laptop","Windows 10","Chrome 115.0.0.0","1280x1024","1280x875",NA,NA,0,"Task Introduction and Instructions (Clone)",9,"JAIBHCGDFE","Passed AC2","","Spreadsheet1",1,"Task Instructions","Screen 2","ce2tc8",2,"continue","",21129.4,21118.042,21129.4,21129.4,21118.042,21129.4,1,21129.4,0,0,NA,"Click To Continue","Continue Button",2,"object-7","Task Instructions",NA,NA
"4",1695844724528,"27/09/2023 19:58:44",1695830324528,-4,"27/09/2023 11:58:44",144636,5,"task-hbx7",NA,31908349,9436086,NA,"complete","satyms","","computer","Desktop or Laptop","Windows 10","Chrome 115.0.0.0","1280x1024","1280x875",NA,NA,0,"Task Introduction and Instructions (Clone)",9,"JAIBHCGDFE","Passed AC2","","Spreadsheet1",1,"Task Instructions","Screen 5","spepx9",3,"continue","",3627.25800009537,3617.94,3627.25800009537,3627.25800009537,3617.94,3627.25800009537,1,3627.25800009537,0,0,NA,"Click To Continue","Continue Button",2,"object-9","Task Instructions",NA,NA
"5",1695844728913,"27/09/2023 19:58:48",1695830328913,-4,"27/09/2023 11:58:48",144636,5,"task-hbx7",NA,31908349,9436086,NA,"complete","satyms","","computer","Desktop or Laptop","Windows 10","Chrome 115.0.0.0","1280x1024","1280x875",NA,NA,0,"Task Introduction and Instructions (Clone)",9,"JAIBHCGDFE","Passed AC2","","Spreadsheet1",1,"Task Instructions","Screen 9","8nvnao",4,"continue","",4394.51800038147,4385.985,4394.51800038147,4394.51800038147,4385.985,4394.51800038147,1,4394.51800038147,0,0,NA,"Click To Continue","Continue Button",2,"object-44","Task Instructions",NA,NA
"6",1695844728919,"27/09/2023 19:58:48",1695830328919,-4,"27/09/2023 11:58:48",144636,5,"task-hbx7",NA,31908349,9436086,NA,"complete","satyms","","computer","Desktop or Laptop","Windows 10","Chrome 115.0.0.0","1280x1024","1280x875",NA,NA,0,"Task Introduction and Instructions (Clone)",9,"JAIBHCGDFE","Passed AC2","","Spreadsheet1",NA,"","","",NA,"5","END",NA,NA,NA,NA,NA,NA,0,NA,NA,NA,NA,"","",NA,"","",NA,NA
"1",1695844708530,"27/09/2023 19:58:28",1695830308530,-4,"27/09/2023 11:58:28",144636,5,"task-hbx7",NA,31908364,9436115,NA,"complete","sbvvev","","computer","Desktop or Laptop","Windows 10","Chrome 115.0.0.0","1280x1024","1280x875",NA,NA,0,"Task Introduction and Instructions (Clone)",9,"ABJCIDHEGF","Passed AC2","","Spreadsheet1",NA,"","","",NA,"5","BEGIN",NA,NA,NA,NA,NA,NA,0,NA,NA,NA,NA,"","",NA,"","",NA,NA
"2",1695844886029,"27/09/2023 20:01:26",1695830486029,-4,"27/09/2023 12:01:26",144636,5,"task-hbx7",NA,31908364,9436115,NA,"complete","sbvvev","","computer","Desktop or Laptop","Windows 10","Chrome 115.0.0.0","1280x1024","1280x875",NA,NA,0,"Task Introduction and Instructions (Clone)",9,"ABJCIDHEGF","Passed AC2","","Spreadsheet1",1,"Task Instructions","Screen 1","anr7sn",1,"continue","",177429.254,177412.588,177429.254,177429.254,177412.588,177429.254,1,177429.254,0,0,NA,"Click To Continue","Continue Button",2,"object-1944","Task Instructions",NA,NA
"3",1695844901414,"27/09/2023 20:01:41",1695830501414,-4,"27/09/2023 12:01:41",144636,5,"task-hbx7",NA,31908364,9436115,NA,"complete","sbvvev","","computer","Desktop or Laptop","Windows 10","Chrome 115.0.0.0","1280x1024","1280x875",NA,NA,0,"Task Introduction and Instructions (Clone)",9,"ABJCIDHEGF","Passed AC2","","Spreadsheet1",1,"Task Instructions","Screen 2","ce2tc8",2,"continue","",15402.508,15393.81,15402.508,15402.508,15393.81,15402.508,1,15402.508,0,0,NA,"Click To Continue","Continue Button",2,"object-7","Task Instructions",NA,NA
"4",1695844915644,"27/09/2023 20:01:55",1695830515644,-4,"27/09/2023 12:01:55",144636,5,"task-hbx7",NA,31908364,9436115,NA,"complete","sbvvev","","computer","Desktop or Laptop","Windows 10","Chrome 115.0.0.0","1280x1024","1280x875",NA,NA,0,"Task Introduction and Instructions (Clone)",9,"ABJCIDHEGF","Passed AC2","","Spreadsheet1",1,"Task Instructions","Screen 5","spepx9",3,"continue","",14238.7980003815,14234.308,14238.7980003815,14238.7980003815,14234.308,14238.7980003815,1,14238.7980003815,0,0,NA,"Click To Continue","Continue Button",2,"object-9","Task Instructions",NA,NA
"5",1695844919507,"27/09/2023 20:01:59",1695830519507,-4,"27/09/2023 12:01:59",144636,5,"task-hbx7",NA,31908364,9436115,NA,"complete","sbvvev","","computer","Desktop or Laptop","Windows 10","Chrome 115.0.0.0","1280x1024","1280x875",NA,NA,0,"Task Introduction and Instructions (Clone)",9,"ABJCIDHEGF","Passed AC2","","Spreadsheet1",1,"Task Instructions","Screen 9","8nvnao",4,"continue","",3867.99000038148,3856.89000000001,3867.99000038148,3867.99000038148,3856.89000000001,3867.99000038148,1,3867.99000038148,0,0,NA,"Click To Continue","Continue Button",2,"object-44","Task Instructions",NA,NA
"6",1695844919510,"27/09/2023 20:01:59",1695830519510,-4,"27/09/2023 12:01:59",144636,5,"task-hbx7",NA,31908364,9436115,NA,"complete","sbvvev","","computer","Desktop or Laptop","Windows 10","Chrome 115.0.0.0","1280x1024","1280x875",NA,NA,0,"Task Introduction and Instructions (Clone)",9,"ABJCIDHEGF","Passed AC2","","Spreadsheet1",NA,"","","",NA,"5","END",NA,NA,NA,NA,NA,NA,0,NA,NA,NA,NA,"","",NA,"","",NA,NA
"1",1695844954699,"27/09/2023 20:02:34",1695830554699,-4,"27/09/2023 12:02:34",144636,5,"task-hbx7",NA,31908594,9436061,NA,"complete","dishqi","","computer","Desktop or Laptop","Windows 10","Chrome 117.0.0.0","1366x768","1366x619",NA,NA,0,"Task Introduction and Instructions (Clone)",9,"CDBEAFJGIH","Passed AC2","","Spreadsheet1",NA,"","","",NA,"5","BEGIN",NA,NA,NA,NA,NA,NA,0,NA,NA,NA,NA,"","",NA,"","",NA,NA
"2",1695845012280,"27/09/2023 20:03:32",1695830612280,-4,"27/09/2023 12:03:32",144636,5,"task-hbx7",NA,31908594,9436061,NA,"complete","dishqi","","computer","Desktop or Laptop","Windows 10","Chrome 117.0.0.0","1366x768","1366x619",NA,NA,0,"Task Introduction and Instructions (Clone)",9,"CDBEAFJGIH","Passed AC2","","Spreadsheet1",1,"Task Instructions","Screen 1","anr7sn",1,"continue","",57342.151,57332.749,57342.151,57342.151,57332.749,57342.151,1,57342.151,0,0,NA,"Click To Continue","Continue Button",2,"object-1944","Task Instructions",NA,NA
"3",1695845073121,"27/09/2023 20:04:33",1695830673121,-4,"27/09/2023 12:04:33",144636,5,"task-hbx7",NA,31908594,9436061,NA,"complete","dishqi","","computer","Desktop or Laptop","Windows 10","Chrome 117.0.0.0","1366x768","1366x619",NA,NA,0,"Task Introduction and Instructions (Clone)",9,"CDBEAFJGIH","Passed AC2","","Spreadsheet1",1,"Task Instructions","Screen 2","ce2tc8",2,"continue","",60848.2019999523,60837.404,60848.2019999523,60848.2019999523,60837.404,60848.2019999523,1,60848.2019999523,0,0,NA,"Click To Continue","Continue Button",2,"object-7","Task Instructions",NA,NA
"4",1695845076310,"27/09/2023 20:04:36",1695830676310,-4,"27/09/2023 12:04:36",144636,5,"task-hbx7",NA,31908594,9436061,NA,"complete","dishqi","","computer","Desktop or Laptop","Windows 10","Chrome 117.0.0.0","1366x768","1366x619",NA,NA,0,"Task Introduction and Instructions (Clone)",9,"CDBEAFJGIH","Passed AC2","","Spreadsheet1",1,"Task Instructions","Screen 5","spepx9",3,"continue","",3200.59800002385,3182.565,3200.59800002385,3200.59800002385,3182.565,3200.59800002385,1,3200.59800002385,0,0,NA,"Click To Continue","Continue Button",2,"object-9","Task Instructions",NA,NA
"5",1695845079390,"27/09/2023 20:04:39",1695830679390,-4,"27/09/2023 12:04:39",144636,5,"task-hbx7",NA,31908594,9436061,NA,"complete","dishqi","","computer","Desktop or Laptop","Windows 10","Chrome 117.0.0.0","1366x768","1366x619",NA,NA,0,"Task Introduction and Instructions (Clone)",9,"CDBEAFJGIH","Passed AC2","","Spreadsheet1",1,"Task Instructions","Screen 9","8nvnao",4,"continue","",3097.73299995232,3093.435,3097.73299995232,3097.73299995232,3093.435,3097.73299995232,1,3097.73299995232,0,0,NA,"Click To Continue","Continue Button",2,"object-44","Task Instructions",NA,NA
"6",1695845079393,"27/09/2023 20:04:39",1695830679393,-4,"27/09/2023 12:04:39",144636,5,"task-hbx7",NA,31908594,9436061,NA,"complete","dishqi","","computer","Desktop or Laptop","Windows 10","Chrome 117.0.0.0","1366x768","1366x619",NA,NA,0,"Task Introduction and Instructions (Clone)",9,"CDBEAFJGIH","Passed AC2","","Spreadsheet1",NA,"","","",NA,"5","END",NA,NA,NA,NA,NA,NA,0,NA,NA,NA,NA,"","",NA,"","",NA,NA
"1",1695845255338,"27/09/2023 20:07:35",1695830855338,-4,"27/09/2023 12:07:35",144636,5,"task-hbx7",NA,31908986,9434867,NA,"complete","mjkstf","3QBD8R3Z27IGLC433JLRS3EB9564OC","computer","Desktop or Laptop","Windows 10","Chrome 116.0.0.0","1366x768","1366x619",NA,NA,0,"Task Introduction and Instructions (Clone)",9,"DECFBGAHJI","Passed AC2","","Spreadsheet1",NA,"","","",NA,"5","BEGIN",NA,NA,NA,NA,NA,NA,0,NA,NA,NA,NA,"","",NA,"","",NA,"SUPAMT52075"
"2",1695845259840,"27/09/2023 20:07:39",1695830859840,-4,"27/09/2023 12:07:39",144636,5,"task-hbx7",NA,31908986,9434867,NA,"complete","mjkstf","3QBD8R3Z27IGLC433JLRS3EB9564OC","computer","Desktop or Laptop","Windows 10","Chrome 116.0.0.0","1366x768","1366x619",NA,NA,0,"Task Introduction and Instructions (Clone)",9,"DECFBGAHJI","Passed AC2","","Spreadsheet1",1,"Task Instructions","Screen 1","anr7sn",1,"continue","",4468.743,4452.077,4468.743,4468.743,4452.077,4468.743,1,4468.743,0,0,NA,"Click To Continue","Continue Button",2,"object-1944","Task Instructions",NA,"SUPAMT52075"
"3",1695845264244,"27/09/2023 20:07:44",1695830864244,-4,"27/09/2023 12:07:44",144636,5,"task-hbx7",NA,31908986,9434867,NA,"complete","mjkstf","3QBD8R3Z27IGLC433JLRS3EB9564OC","computer","Desktop or Laptop","Windows 10","Chrome 116.0.0.0","1366x768","1366x619",NA,NA,0,"Task Introduction and Instructions (Clone)",9,"DECFBGAHJI","Passed AC2","","Spreadsheet1",1,"Task Instructions","Screen 2","ce2tc8",2,"continue","",4423.31499980926,4409.274,4423.31499980926,4423.31499980926,4409.274,4423.31499980926,1,4423.31499980926,0,0,NA,"Click To Continue","Continue Button",2,"object-7","Task Instructions",NA,"SUPAMT52075"
"4",1695845267869,"27/09/2023 20:07:47",1695830867869,-4,"27/09/2023 12:07:47",144636,5,"task-hbx7",NA,31908986,9434867,NA,"complete","mjkstf","3QBD8R3Z27IGLC433JLRS3EB9564OC","computer","Desktop or Laptop","Windows 10","Chrome 116.0.0.0","1366x768","1366x619",NA,NA,0,"Task Introduction and Instructions (Clone)",9,"DECFBGAHJI","Passed AC2","","Spreadsheet1",1,"Task Instructions","Screen 5","spepx9",3,"continue","",3638.64100019074,3626.8,3638.64100019074,3638.64100019074,3626.8,3638.64100019074,1,3638.64100019074,0,0,NA,"Click To Continue","Continue Button",2,"object-9","Task Instructions",NA,"SUPAMT52075"
"5",1695845273108,"27/09/2023 20:07:53",1695830873108,-4,"27/09/2023 12:07:53",144636,5,"task-hbx7",NA,31908986,9434867,NA,"complete","mjkstf","3QBD8R3Z27IGLC433JLRS3EB9564OC","computer","Desktop or Laptop","Windows 10","Chrome 116.0.0.0","1366x768","1366x619",NA,NA,0,"Task Introduction and Instructions (Clone)",9,"DECFBGAHJI","Passed AC2","","Spreadsheet1",1,"Task Instructions","Screen 9","8nvnao",4,"continue","",5250.94100009537,5246.432,5250.94100009537,5250.94100009537,5246.432,5250.94100009537,1,5250.94100009537,0,0,NA,"Click To Continue","Continue Button",2,"object-44","Task Instructions",NA,"SUPAMT52075"
"6",1695845273110,"27/09/2023 20:07:53",1695830873110,-4,"27/09/2023 12:07:53",144636,5,"task-hbx7",NA,31908986,9434867,NA,"complete","mjkstf","3QBD8R3Z27IGLC433JLRS3EB9564OC","computer","Desktop or Laptop","Windows 10","Chrome 116.0.0.0","1366x768","1366x619",NA,NA,0,"Task Introduction and Instructions (Clone)",9,"DECFBGAHJI","Passed AC2","","Spreadsheet1",NA,"","","",NA,"5","END",NA,NA,NA,NA,NA,NA,0,NA,NA,NA,NA,"","",NA,"","",NA,"SUPAMT52075"
"1",1695849263861,"27/09/2023 21:14:23",1695831263861,-5,"27/09/2023 11:14:23",144636,5,"task-hbx7",NA,31909088,9435951,NA,"complete","jxynvv","38SKSKU7R7W2NY0LBG73UNK0JI8ILU","computer","Desktop or Laptop","Windows 8.1","Chrome 109.0.0.0","1280x720","1163x527",NA,NA,0,"Task Introduction and Instructions (Clone)",9,"HIGJFAEBDC","Passed AC2","","Spreadsheet1",NA,"","","",NA,"5","BEGIN",NA,NA,NA,NA,NA,NA,0,NA,NA,NA,NA,"","",NA,"","",NA,"SUPAMT88382"
"2",1695849316727,"27/09/2023 21:15:16",1695831316727,-5,"27/09/2023 11:15:16",144636,5,"task-hbx7",NA,31909088,9435951,NA,"complete","jxynvv","38SKSKU7R7W2NY0LBG73UNK0JI8ILU","computer","Desktop or Laptop","Windows 8.1","Chrome 109.0.0.0","1280x720","1163x527",NA,NA,0,"Task Introduction and Instructions (Clone)",9,"HIGJFAEBDC","Passed AC2","","Spreadsheet1",1,"Task Instructions","Screen 1","anr7sn",1,"continue","",52802.183000143,52792.01,52802.183000143,52802.183000143,52792.01,52802.183000143,1,52802.183000143,0,0,NA,"Click To Continue","Continue Button",2,"object-1944","Task Instructions",NA,"SUPAMT88382"
"3",1695849328753,"27/09/2023 21:15:28",1695831328753,-5,"27/09/2023 11:15:28",144636,5,"task-hbx7",NA,31909088,9435951,NA,"complete","jxynvv","38SKSKU7R7W2NY0LBG73UNK0JI8ILU","computer","Desktop or Laptop","Windows 8.1","Chrome 109.0.0.0","1280x720","1163x527",NA,NA,0,"Task Introduction and Instructions (Clone)",9,"HIGJFAEBDC","Passed AC2","","Spreadsheet1",1,"Task Instructions","Screen 2","ce2tc8",2,"continue","",12036.9730000954,12027.317,12036.9730000954,12036.9730000954,12027.317,12036.9730000954,1,12036.9730000954,0,0,NA,"Click To Continue","Continue Button",2,"object-7","Task Instructions",NA,"SUPAMT88382"
"4",1695849336209,"27/09/2023 21:15:36",1695831336209,-5,"27/09/2023 11:15:36",144636,5,"task-hbx7",NA,31909088,9435951,NA,"complete","jxynvv","38SKSKU7R7W2NY0LBG73UNK0JI8ILU","computer","Desktop or Laptop","Windows 8.1","Chrome 109.0.0.0","1280x720","1163x527",NA,NA,0,"Task Introduction and Instructions (Clone)",9,"HIGJFAEBDC","Passed AC2","","Spreadsheet1",1,"Task Instructions","Screen 5","spepx9",3,"continue","",7465.35600014305,7443.59199999999,7465.35600014305,7465.35600014305,7443.59199999999,7465.35600014305,1,7465.35600014305,0,0,NA,"Click To Continue","Continue Button",2,"object-9","Task Instructions",NA,"SUPAMT88382"
"5",1695849378452,"27/09/2023 21:16:18",1695831378452,-5,"27/09/2023 11:16:18",144636,5,"task-hbx7",NA,31909088,9435951,NA,"complete","jxynvv","38SKSKU7R7W2NY0LBG73UNK0JI8ILU","computer","Desktop or Laptop","Windows 8.1","Chrome 109.0.0.0","1280x720","1163x527",NA,NA,0,"Task Introduction and Instructions (Clone)",9,"HIGJFAEBDC","Passed AC2","","Spreadsheet1",1,"Task Instructions","Screen 9","8nvnao",4,"continue","",42244.164,42212.567,42244.164,42244.164,42212.567,42244.164,1,42244.164,0,0,NA,"Click To Continue","Continue Button",2,"object-44","Task Instructions",NA,"SUPAMT88382"
"6",1695849378459,"27/09/2023 21:16:18",1695831378459,-5,"27/09/2023 11:16:18",144636,5,"task-hbx7",NA,31909088,9435951,NA,"complete","jxynvv","38SKSKU7R7W2NY0LBG73UNK0JI8ILU","computer","Desktop or Laptop","Windows 8.1","Chrome 109.0.0.0","1280x720","1163x527",NA,NA,0,"Task Introduction and Instructions (Clone)",9,"HIGJFAEBDC","Passed AC2","","Spreadsheet1",NA,"","","",NA,"5","END",NA,NA,NA,NA,NA,NA,0,NA,NA,NA,NA,"","",NA,"","",NA,"SUPAMT88382"
"1",1695846048374,"27/09/2023 20:20:48",1695831648374,-4,"27/09/2023 12:20:48",144636,5,"task-hbx7",NA,31909288,9436079,NA,"complete","pbzwgc","3FDJT1UU7A7FR4NOJWC8QE3GPW3K5P","computer","Desktop or Laptop","Windows 10","Chrome 116.0.0.0","1280x1024","1280x875",NA,NA,0,"Task Introduction and Instructions (Clone)",9,"FGEHDICJBA","Passed AC2","","Spreadsheet1",NA,"","","",NA,"5","BEGIN",NA,NA,NA,NA,NA,NA,0,NA,NA,NA,NA,"","",NA,"","",NA,"SUPAMT83214"
"2",1695846070255,"27/09/2023 20:21:10",1695831670255,-4,"27/09/2023 12:21:10",144636,5,"task-hbx7",NA,31909288,9436079,NA,"complete","pbzwgc","3FDJT1UU7A7FR4NOJWC8QE3GPW3K5P","computer","Desktop or Laptop","Windows 10","Chrome 116.0.0.0","1280x1024","1280x875",NA,NA,0,"Task Introduction and Instructions (Clone)",9,"FGEHDICJBA","Passed AC2","","Spreadsheet1",1,"Task Instructions","Screen 1","anr7sn",1,"continue","",21696.4750002861,21686.588,21696.4750002861,21696.4750002861,21686.588,21696.4750002861,1,21696.4750002861,0,0,NA,"Click To Continue","Continue Button",2,"object-1944","Task Instructions",NA,"SUPAMT83214"
"3",1695846073587,"27/09/2023 20:21:13",1695831673587,-4,"27/09/2023 12:21:13",144636,5,"task-hbx7",NA,31909288,9436079,NA,"complete","pbzwgc","3FDJT1UU7A7FR4NOJWC8QE3GPW3K5P","computer","Desktop or Laptop","Windows 10","Chrome 116.0.0.0","1280x1024","1280x875",NA,NA,0,"Task Introduction and Instructions (Clone)",9,"FGEHDICJBA","Passed AC2","","Spreadsheet1",1,"Task Instructions","Screen 2","ce2tc8",2,"continue","",3342.98700019074,3332.602,3342.98700019074,3342.98700019074,3332.602,3342.98700019074,1,3342.98700019074,0,0,NA,"Click To Continue","Continue Button",2,"object-7","Task Instructions",NA,"SUPAMT83214"
"4",1695846078590,"27/09/2023 20:21:18",1695831678590,-4,"27/09/2023 12:21:18",144636,5,"task-hbx7",NA,31909288,9436079,NA,"complete","pbzwgc","3FDJT1UU7A7FR4NOJWC8QE3GPW3K5P","computer","Desktop or Laptop","Windows 10","Chrome 116.0.0.0","1280x1024","1280x875",NA,NA,0,"Task Introduction and Instructions (Clone)",9,"FGEHDICJBA","Passed AC2","","Spreadsheet1",1,"Task Instructions","Screen 5","spepx9",3,"continue","",5012.585,5002.207,5012.585,5012.585,5002.207,5012.585,1,5012.585,0,0,NA,"Click To Continue","Continue Button",2,"object-9","Task Instructions",NA,"SUPAMT83214"
"5",1695846087819,"27/09/2023 20:21:27",1695831687819,-4,"27/09/2023 12:21:27",144636,5,"task-hbx7",NA,31909288,9436079,NA,"complete","pbzwgc","3FDJT1UU7A7FR4NOJWC8QE3GPW3K5P","computer","Desktop or Laptop","Windows 10","Chrome 116.0.0.0","1280x1024","1280x875",NA,NA,0,"Task Introduction and Instructions (Clone)",9,"FGEHDICJBA","Passed AC2","","Spreadsheet1",1,"Task Instructions","Screen 9","8nvnao",4,"continue","",9239.47800038147,9230.162,9239.47800038147,9239.47800038147,9230.162,9239.47800038147,1,9239.47800038147,0,0,NA,"Click To Continue","Continue Button",2,"object-44","Task Instructions",NA,"SUPAMT83214"
