"Event.Index","UTC.Timestamp","UTC.Date.and.Time","Local.Timestamp","Local.Timezone","Local.Date.and.Time","Experiment.ID","Experiment.Version","Tree.Node.Key","Repeat.Key","Schedule.ID","Participant.Private.ID","Participant.Starting.Group","Participant.Status","Participant.Completion.Code","Participant.External.Session.ID","Participant.Device.Type","Participant.Device","Participant.OS","Participant.Browser","Participant.Monitor.Size","Participant.Viewport.Size","Checkpoint","Room.ID","Room.Order","Task.Name","Task.Version","order.ot79","branch.g31k","branch.5gtn","Spreadsheet","Trial.Number","Display","Screen","Screen.ID","Screen.Counter","Response.Type","Response","Onset.Time","Clock.Time","Reaction.Time","Absolute.Onset.Time","Absolute.Clock.Time","Absolute.Reaction.Time","Correct","Response.Onset","Response.Duration","Proportion","Tag","Component.Name","Object.Name","Object.Number","Object.ID","Spreadsheet..display","Manipulation..Spreadsheet","Random_ID"
"1",1695817962738,"27/09/2023 12:32:42",1695803562738,-4,"27/09/2023 04:32:42",144636,3,"task-hbx7",NA,31894361,9431509,NA,"complete","osbhtc","3RYC5T2D79S57II2TVUJPWUBBMLRPU","computer","Desktop or Laptop","Windows 10","Chrome 116.0.0.0","1536x864","1536x747",NA,NA,0,"Task Introduction and Instructions (Clone)",9,"ABJCIDHEGF","Passed AC2","","Spreadsheet1",NA,"","","",NA,"5","BEGIN",NA,NA,NA,NA,NA,NA,0,NA,NA,NA,NA,"","",NA,"","",NA,"SUPAMT38416"
"2",1695817969180,"27/09/2023 12:32:49",1695803569180,-4,"27/09/2023 04:32:49",144636,3,"task-hbx7",NA,31894361,9431509,NA,"complete","osbhtc","3RYC5T2D79S57II2TVUJPWUBBMLRPU","computer","Desktop or Laptop","Windows 10","Chrome 116.0.0.0","1536x864","1536x747",NA,NA,0,"Task Introduction and Instructions (Clone)",9,"ABJCIDHEGF","Passed AC2","","Spreadsheet1",1,"Task Instructions","Screen 1","anr7sn",1,"continue","",6352.114,6335.503,6352.114,6352.114,6335.503,6352.114,1,6352.114,0,0,NA,"Click To Continue","Continue Button",2,"object-1944","Task Instructions",NA,"SUPAMT38416"
"3",1695817980786,"27/09/2023 12:33:00",1695803580786,-4,"27/09/2023 04:33:00",144636,3,"task-hbx7",NA,31894361,9431509,NA,"complete","osbhtc","3RYC5T2D79S57II2TVUJPWUBBMLRPU","computer","Desktop or Laptop","Windows 10","Chrome 116.0.0.0","1536x864","1536x747",NA,NA,0,"Task Introduction and Instructions (Clone)",9,"ABJCIDHEGF","Passed AC2","","Spreadsheet1",1,"Task Instructions","Screen 2","ce2tc8",2,"continue","",11623.611,11614.495,11623.611,11623.611,11614.495,11623.611,1,11623.611,0,0,NA,"Click To Continue","Continue Button",2,"object-7","Task Instructions",NA,"SUPAMT38416"
"4",1695817993338,"27/09/2023 12:33:13",1695803593338,-4,"27/09/2023 04:33:13",144636,3,"task-hbx7",NA,31894361,9431509,NA,"complete","osbhtc","3RYC5T2D79S57II2TVUJPWUBBMLRPU","computer","Desktop or Laptop","Windows 10","Chrome 116.0.0.0","1536x864","1536x747",NA,NA,0,"Task Introduction and Instructions (Clone)",9,"ABJCIDHEGF","Passed AC2","","Spreadsheet1",1,"Task Instructions","Screen 5","spepx9",3,"continue","",12560.3160000477,12552.113,12560.3160000477,12560.3160000477,12552.113,12560.3160000477,1,12560.3160000477,0,0,NA,"Click To Continue","Continue Button",2,"object-9","Task Instructions",NA,"SUPAMT38416"
"5",1695817997457,"27/09/2023 12:33:17",1695803597457,-4,"27/09/2023 04:33:17",144636,3,"task-hbx7",NA,31894361,9431509,NA,"complete","osbhtc","3RYC5T2D79S57II2TVUJPWUBBMLRPU","computer","Desktop or Laptop","Windows 10","Chrome 116.0.0.0","1536x864","1536x747",NA,NA,0,"Task Introduction and Instructions (Clone)",9,"ABJCIDHEGF","Passed AC2","","Spreadsheet1",1,"Task Instructions","Screen 9","8nvnao",4,"continue","",4128.003,4123.637,4128.003,4128.003,4123.637,4128.003,1,4128.003,0,0,NA,"Click To Continue","Continue Button",2,"object-44","Task Instructions",NA,"SUPAMT38416"
"6",1695817997460,"27/09/2023 12:33:17",1695803597460,-4,"27/09/2023 04:33:17",144636,3,"task-hbx7",NA,31894361,9431509,NA,"complete","osbhtc","3RYC5T2D79S57II2TVUJPWUBBMLRPU","computer","Desktop or Laptop","Windows 10","Chrome 116.0.0.0","1536x864","1536x747",NA,NA,0,"Task Introduction and Instructions (Clone)",9,"ABJCIDHEGF","Passed AC2","","Spreadsheet1",NA,"","","",NA,"5","END",NA,NA,NA,NA,NA,NA,0,NA,NA,NA,NA,"","",NA,"","",NA,"SUPAMT38416"
"1",1695821808065,"27/09/2023 13:36:48",1695803808065,-5,"27/09/2023 03:36:48",144636,3,"task-hbx7",NA,31894490,9431510,NA,"complete","vcnpts","3FIJLY1B60384SDT20UP87GS8YAFPN","computer","Desktop or Laptop","Windows 10","Chrome 117.0.0.0","1536x960","1536x835",NA,NA,0,"Task Introduction and Instructions (Clone)",9,"BCADJEIFHG","Passed AC2","","Spreadsheet1",NA,"","","",NA,"5","BEGIN",NA,NA,NA,NA,NA,NA,0,NA,NA,NA,NA,"","",NA,"","",NA,"SUPAMT74201"
"2",1695821811484,"27/09/2023 13:36:51",1695803811484,-5,"27/09/2023 03:36:51",144636,3,"task-hbx7",NA,31894490,9431510,NA,"complete","vcnpts","3FIJLY1B60384SDT20UP87GS8YAFPN","computer","Desktop or Laptop","Windows 10","Chrome 117.0.0.0","1536x960","1536x835",NA,NA,0,"Task Introduction and Instructions (Clone)",9,"BCADJEIFHG","Passed AC2","","Spreadsheet1",1,"Task Instructions","Screen 1","anr7sn",1,"continue","",2797.06099998808,2793.693,2797.06099998808,2797.06099998808,2793.693,2797.06099998808,1,2797.06099998808,0,0,NA,"Click To Continue","Continue Button",2,"object-1944","Task Instructions",NA,"SUPAMT74201"
"3",1695821815566,"27/09/2023 13:36:55",1695803815566,-5,"27/09/2023 03:36:55",144636,3,"task-hbx7",NA,31894490,9431510,NA,"complete","vcnpts","3FIJLY1B60384SDT20UP87GS8YAFPN","computer","Desktop or Laptop","Windows 10","Chrome 117.0.0.0","1536x960","1536x835",NA,NA,0,"Task Introduction and Instructions (Clone)",9,"BCADJEIFHG","Passed AC2","","Spreadsheet1",1,"Task Instructions","Screen 2","ce2tc8",2,"continue","",4084.586,4078.521,4084.586,4084.586,4078.521,4084.586,1,4084.586,0,0,NA,"Click To Continue","Continue Button",2,"object-7","Task Instructions",NA,"SUPAMT74201"
"4",1695821820555,"27/09/2023 13:37:00",1695803820555,-5,"27/09/2023 03:37:00",144636,3,"task-hbx7",NA,31894490,9431510,NA,"complete","vcnpts","3FIJLY1B60384SDT20UP87GS8YAFPN","computer","Desktop or Laptop","Windows 10","Chrome 117.0.0.0","1536x960","1536x835",NA,NA,0,"Task Introduction and Instructions (Clone)",9,"BCADJEIFHG","Passed AC2","","Spreadsheet1",1,"Task Instructions","Screen 5","spepx9",3,"continue","",4995.54699997616,4993.404,4995.54699997616,4995.54699997616,4993.404,4995.54699997616,1,4995.54699997616,0,0,NA,"Click To Continue","Continue Button",2,"object-9","Task Instructions",NA,"SUPAMT74201"
"5",1695821823612,"27/09/2023 13:37:03",1695803823612,-5,"27/09/2023 03:37:03",144636,3,"task-hbx7",NA,31894490,9431510,NA,"complete","vcnpts","3FIJLY1B60384SDT20UP87GS8YAFPN","computer","Desktop or Laptop","Windows 10","Chrome 117.0.0.0","1536x960","1536x835",NA,NA,0,"Task Introduction and Instructions (Clone)",9,"BCADJEIFHG","Passed AC2","","Spreadsheet1",1,"Task Instructions","Screen 9","8nvnao",4,"continue","",3058.743,3054.331,3058.743,3058.743,3054.331,3058.743,1,3058.743,0,0,NA,"Click To Continue","Continue Button",2,"object-44","Task Instructions",NA,"SUPAMT74201"
"6",1695821823615,"27/09/2023 13:37:03",1695803823615,-5,"27/09/2023 03:37:03",144636,3,"task-hbx7",NA,31894490,9431510,NA,"complete","vcnpts","3FIJLY1B60384SDT20UP87GS8YAFPN","computer","Desktop or Laptop","Windows 10","Chrome 117.0.0.0","1536x960","1536x835",NA,NA,0,"Task Introduction and Instructions (Clone)",9,"BCADJEIFHG","Passed AC2","","Spreadsheet1",NA,"","","",NA,"5","END",NA,NA,NA,NA,NA,NA,0,NA,NA,NA,NA,"","",NA,"","",NA,"SUPAMT74201"
"1",1695818122208,"27/09/2023 12:35:22",1695803722208,-4,"27/09/2023 04:35:22",144636,3,"task-hbx7",NA,31894452,9431522,NA,"complete","umrsqi","","computer","Desktop or Laptop","Windows 10","Chrome 116.0.0.0","1280x1024","1280x875",NA,NA,0,"Task Introduction and Instructions (Clone)",9,"DECFBGAHJI","Passed AC2","","Spreadsheet1",NA,"","","",NA,"5","BEGIN",NA,NA,NA,NA,NA,NA,0,NA,NA,NA,NA,"","",NA,"","",NA,"SUPAMT41548"
"2",1695818126131,"27/09/2023 12:35:26",1695803726131,-4,"27/09/2023 04:35:26",144636,3,"task-hbx7",NA,31894452,9431522,NA,"complete","umrsqi","","computer","Desktop or Laptop","Windows 10","Chrome 116.0.0.0","1280x1024","1280x875",NA,NA,0,"Task Introduction and Instructions (Clone)",9,"DECFBGAHJI","Passed AC2","","Spreadsheet1",1,"Task Instructions","Screen 1","anr7sn",1,"continue","",3826.85900004768,3823.19,3826.85900004768,3826.85900004768,3823.19,3826.85900004768,1,3826.85900004768,0,0,NA,"Click To Continue","Continue Button",2,"object-1944","Task Instructions",NA,"SUPAMT08809"
"3",1695818130288,"27/09/2023 12:35:30",1695803730288,-4,"27/09/2023 04:35:30",144636,3,"task-hbx7",NA,31894452,9431522,NA,"complete","umrsqi","","computer","Desktop or Laptop","Windows 10","Chrome 116.0.0.0","1280x1024","1280x875",NA,NA,0,"Task Introduction and Instructions (Clone)",9,"DECFBGAHJI","Passed AC2","","Spreadsheet1",1,"Task Instructions","Screen 2","ce2tc8",2,"continue","",4160.66900004768,4149.327,4160.66900004768,4160.66900004768,4149.327,4160.66900004768,1,4160.66900004768,0,0,NA,"Click To Continue","Continue Button",2,"object-7","Task Instructions",NA,"SUPAMT51662"
"4",1695818133776,"27/09/2023 12:35:33",1695803733776,-4,"27/09/2023 04:35:33",144636,3,"task-hbx7",NA,31894452,9431522,NA,"complete","umrsqi","","computer","Desktop or Laptop","Windows 10","Chrome 116.0.0.0","1280x1024","1280x875",NA,NA,0,"Task Introduction and Instructions (Clone)",9,"DECFBGAHJI","Passed AC2","","Spreadsheet1",1,"Task Instructions","Screen 5","spepx9",3,"continue","",3499.142,3483.455,3499.142,3499.142,3483.455,3499.142,1,3499.142,0,0,NA,"Click To Continue","Continue Button",2,"object-9","Task Instructions",NA,"SUPAMT01609"
"5",1695818137513,"27/09/2023 12:35:37",1695803737513,-4,"27/09/2023 04:35:37",144636,3,"task-hbx7",NA,31894452,9431522,NA,"complete","umrsqi","","computer","Desktop or Laptop","Windows 10","Chrome 116.0.0.0","1280x1024","1280x875",NA,NA,0,"Task Introduction and Instructions (Clone)",9,"DECFBGAHJI","Passed AC2","","Spreadsheet1",1,"Task Instructions","Screen 9","8nvnao",4,"continue","",3752.88700004768,3737.552,3752.88700004768,3752.88700004768,3737.552,3752.88700004768,1,3752.88700004768,0,0,NA,"Click To Continue","Continue Button",2,"object-44","Task Instructions",NA,"SUPAMT95465"
"6",1695818137515,"27/09/2023 12:35:37",1695803737515,-4,"27/09/2023 04:35:37",144636,3,"task-hbx7",NA,31894452,9431522,NA,"complete","umrsqi","","computer","Desktop or Laptop","Windows 10","Chrome 116.0.0.0","1280x1024","1280x875",NA,NA,0,"Task Introduction and Instructions (Clone)",9,"DECFBGAHJI","Passed AC2","","Spreadsheet1",NA,"","","",NA,"5","END",NA,NA,NA,NA,NA,NA,0,NA,NA,NA,NA,"","",NA,"","",NA,"SUPAMT13138"
"1",1695818126205,"27/09/2023 12:35:26",1695803726205,-4,"27/09/2023 04:35:26",144636,3,"task-hbx7",NA,31894453,9431511,NA,"complete","kxxpyk","3ZSY5X72N3ANMI61EVH40WPL1HPROD","computer","Desktop or Laptop","Windows 10","Chrome 117.0.0.0","1600x900","1600x751",NA,NA,0,"Task Introduction and Instructions (Clone)",9,"CDBEAFJGIH","Passed AC2","","Spreadsheet1",NA,"","","",NA,"5","BEGIN",NA,NA,NA,NA,NA,NA,0,NA,NA,NA,NA,"","",NA,"","",NA,"SUPAMT02681"
"2",1695818130526,"27/09/2023 12:35:30",1695803730526,-4,"27/09/2023 04:35:30",144636,3,"task-hbx7",NA,31894453,9431511,NA,"complete","kxxpyk","3ZSY5X72N3ANMI61EVH40WPL1HPROD","computer","Desktop or Laptop","Windows 10","Chrome 117.0.0.0","1600x900","1600x751",NA,NA,0,"Task Introduction and Instructions (Clone)",9,"CDBEAFJGIH","Passed AC2","","Spreadsheet1",1,"Task Instructions","Screen 1","anr7sn",1,"continue","",4166.5,4149.834,4166.5,4166.5,4149.834,4166.5,1,4166.5,0,0,NA,"Click To Continue","Continue Button",2,"object-1944","Task Instructions",NA,"SUPAMT02681"
"3",1695818138806,"27/09/2023 12:35:38",1695803738806,-4,"27/09/2023 04:35:38",144636,3,"task-hbx7",NA,31894453,9431511,NA,"complete","kxxpyk","3ZSY5X72N3ANMI61EVH40WPL1HPROD","computer","Desktop or Laptop","Windows 10","Chrome 117.0.0.0","1600x900","1600x751",NA,NA,0,"Task Introduction and Instructions (Clone)",9,"CDBEAFJGIH","Passed AC2","","Spreadsheet1",1,"Task Instructions","Screen 2","ce2tc8",2,"continue","",8298.678,8283.002,8298.678,8298.678,8283.002,8298.678,1,8298.678,0,0,NA,"Click To Continue","Continue Button",2,"object-7","Task Instructions",NA,"SUPAMT02681"
"4",1695818143506,"27/09/2023 12:35:43",1695803743506,-4,"27/09/2023 04:35:43",144636,3,"task-hbx7",NA,31894453,9431511,NA,"complete","kxxpyk","3ZSY5X72N3ANMI61EVH40WPL1HPROD","computer","Desktop or Laptop","Windows 10","Chrome 117.0.0.0","1600x900","1600x751",NA,NA,0,"Task Introduction and Instructions (Clone)",9,"CDBEAFJGIH","Passed AC2","","Spreadsheet1",1,"Task Instructions","Screen 5","spepx9",3,"continue","",4715.676,4699.812,4715.676,4715.676,4699.812,4715.676,1,4715.676,0,0,NA,"Click To Continue","Continue Button",2,"object-9","Task Instructions",NA,"SUPAMT02681"
"5",1695818148927,"27/09/2023 12:35:48",1695803748927,-4,"27/09/2023 04:35:48",144636,3,"task-hbx7",NA,31894453,9431511,NA,"complete","kxxpyk","3ZSY5X72N3ANMI61EVH40WPL1HPROD","computer","Desktop or Laptop","Windows 10","Chrome 117.0.0.0","1600x900","1600x751",NA,NA,0,"Task Introduction and Instructions (Clone)",9,"CDBEAFJGIH","Passed AC2","","Spreadsheet1",1,"Task Instructions","Screen 9","8nvnao",4,"continue","",5433.116,5416.45,5433.116,5433.116,5416.45,5433.116,1,5433.116,0,0,NA,"Click To Continue","Continue Button",2,"object-44","Task Instructions",NA,"SUPAMT02681"
"6",1695818148932,"27/09/2023 12:35:48",1695803748932,-4,"27/09/2023 04:35:48",144636,3,"task-hbx7",NA,31894453,9431511,NA,"complete","kxxpyk","3ZSY5X72N3ANMI61EVH40WPL1HPROD","computer","Desktop or Laptop","Windows 10","Chrome 117.0.0.0","1600x900","1600x751",NA,NA,0,"Task Introduction and Instructions (Clone)",9,"CDBEAFJGIH","Passed AC2","","Spreadsheet1",NA,"","","",NA,"5","END",NA,NA,NA,NA,NA,NA,0,NA,NA,NA,NA,"","",NA,"","",NA,"SUPAMT02681"
"1",1695839938246,"27/09/2023 18:38:58",1695825538246,-4,"27/09/2023 10:38:58",144636,3,"task-hbx7",NA,31894522,9431516,NA,"complete","uybgfq","","computer","Desktop or Laptop","Windows 10","Chrome 116.0.0.0","1280x1024","1280x875",NA,NA,0,"Task Introduction and Instructions (Clone)",9,"EFDGCHBIAJ","Passed AC2","","Spreadsheet1",NA,"","","",NA,"5","BEGIN",NA,NA,NA,NA,NA,NA,0,NA,NA,NA,NA,"","",NA,"","",NA,"SUPAMT33233"
"2",1695839941674,"27/09/2023 18:39:01",1695825541674,-4,"27/09/2023 10:39:01",144636,3,"task-hbx7",NA,31894522,9431516,NA,"complete","uybgfq","","computer","Desktop or Laptop","Windows 10","Chrome 116.0.0.0","1280x1024","1280x875",NA,NA,0,"Task Introduction and Instructions (Clone)",9,"EFDGCHBIAJ","Passed AC2","","Spreadsheet1",1,"Task Instructions","Screen 1","anr7sn",1,"continue","",3263.75000014305,3235.463,3263.75000014305,3263.75000014305,3235.463,3263.75000014305,1,3263.75000014305,0,0,NA,"Click To Continue","Continue Button",2,"object-1944","Task Instructions",NA,"SUPAMT62860"
"3",1695839945871,"27/09/2023 18:39:05",1695825545871,-4,"27/09/2023 10:39:05",144636,3,"task-hbx7",NA,31894522,9431516,NA,"complete","uybgfq","","computer","Desktop or Laptop","Windows 10","Chrome 116.0.0.0","1280x1024","1280x875",NA,NA,0,"Task Introduction and Instructions (Clone)",9,"EFDGCHBIAJ","Passed AC2","","Spreadsheet1",1,"Task Instructions","Screen 2","ce2tc8",2,"continue","",4225.187,4207.534,4225.187,4225.187,4207.534,4225.187,1,4225.187,0,0,NA,"Click To Continue","Continue Button",2,"object-7","Task Instructions",NA,"SUPAMT59227"
"4",1695839949136,"27/09/2023 18:39:09",1695825549136,-4,"27/09/2023 10:39:09",144636,3,"task-hbx7",NA,31894522,9431516,NA,"complete","uybgfq","","computer","Desktop or Laptop","Windows 10","Chrome 116.0.0.0","1280x1024","1280x875",NA,NA,0,"Task Introduction and Instructions (Clone)",9,"EFDGCHBIAJ","Passed AC2","","Spreadsheet1",1,"Task Instructions","Screen 5","spepx9",3,"continue","",3283.35300004768,3267.223,3283.35300004768,3283.35300004768,3267.223,3283.35300004768,1,3283.35300004768,0,0,NA,"Click To Continue","Continue Button",2,"object-9","Task Instructions",NA,"SUPAMT56785"
"5",1695839952265,"27/09/2023 18:39:12",1695825552265,-4,"27/09/2023 10:39:12",144636,3,"task-hbx7",NA,31894522,9431516,NA,"complete","uybgfq","","computer","Desktop or Laptop","Windows 10","Chrome 116.0.0.0","1280x1024","1280x875",NA,NA,0,"Task Introduction and Instructions (Clone)",9,"EFDGCHBIAJ","Passed AC2","","Spreadsheet1",1,"Task Instructions","Screen 9","8nvnao",4,"continue","",3144.33000009537,3115.77,3144.33000009537,3144.33000009537,3115.77,3144.33000009537,1,3144.33000009537,0,0,NA,"Click To Continue","Continue Button",2,"object-44","Task Instructions",NA,"SUPAMT80130"
"6",1695839952266,"27/09/2023 18:39:12",1695825552266,-4,"27/09/2023 10:39:12",144636,3,"task-hbx7",NA,31894522,9431516,NA,"complete","uybgfq","","computer","Desktop or Laptop","Windows 10","Chrome 116.0.0.0","1280x1024","1280x875",NA,NA,0,"Task Introduction and Instructions (Clone)",9,"EFDGCHBIAJ","Passed AC2","","Spreadsheet1",NA,"","","",NA,"5","END",NA,NA,NA,NA,NA,NA,0,NA,NA,NA,NA,"","",NA,"","",NA,"SUPAMT90670"
"1",1695818422818,"27/09/2023 12:40:22",1695804022818,-4,"27/09/2023 04:40:22",144636,3,"task-hbx7",NA,31894527,9431524,NA,"rejected - time limit reached","","3NPI0JQDAU4INXVUXKZEPBVTZ7IPT5","computer","Desktop or Laptop","Windows 10","Chrome 116.0.0.0","1366x768","1366x619",NA,NA,0,"Task Introduction and Instructions (Clone)",9,"HIGJFAEBDC","Passed AC2","","Spreadsheet1",NA,"","","",NA,"5","BEGIN",NA,NA,NA,NA,NA,NA,0,NA,NA,NA,NA,"","",NA,"","",NA,"SUPAMT54374"
"2",1695818428603,"27/09/2023 12:40:28",1695804028603,-4,"27/09/2023 04:40:28",144636,3,"task-hbx7",NA,31894527,9431524,NA,"rejected - time limit reached","","3NPI0JQDAU4INXVUXKZEPBVTZ7IPT5","computer","Desktop or Laptop","Windows 10","Chrome 116.0.0.0","1366x768","1366x619",NA,NA,0,"Task Introduction and Instructions (Clone)",9,"HIGJFAEBDC","Passed AC2","","Spreadsheet1",1,"Task Instructions","Screen 1","anr7sn",1,"continue","",5749.819,5733.153,5749.819,5749.819,5733.153,5749.819,1,5749.819,0,0,NA,"Click To Continue","Continue Button",2,"object-1944","Task Instructions",NA,"SUPAMT54374"
"3",1695818434024,"27/09/2023 12:40:34",1695804034024,-4,"27/09/2023 04:40:34",144636,3,"task-hbx7",NA,31894527,9431524,NA,"rejected - time limit reached","","3NPI0JQDAU4INXVUXKZEPBVTZ7IPT5","computer","Desktop or Laptop","Windows 10","Chrome 116.0.0.0","1366x768","1366x619",NA,NA,0,"Task Introduction and Instructions (Clone)",9,"HIGJFAEBDC","Passed AC2","","Spreadsheet1",1,"Task Instructions","Screen 2","ce2tc8",2,"continue","",5439.87900009537,5426.598,5439.87900009537,5439.87900009537,5426.598,5439.87900009537,1,5439.87900009537,0,0,NA,"Click To Continue","Continue Button",2,"object-7","Task Instructions",NA,"SUPAMT54374"
"4",1695818437922,"27/09/2023 12:40:37",1695804037922,-4,"27/09/2023 04:40:37",144636,3,"task-hbx7",NA,31894527,9431524,NA,"rejected - time limit reached","","3NPI0JQDAU4INXVUXKZEPBVTZ7IPT5","computer","Desktop or Laptop","Windows 10","Chrome 116.0.0.0","1366x768","1366x619",NA,NA,0,"Task Introduction and Instructions (Clone)",9,"HIGJFAEBDC","Passed AC2","","Spreadsheet1",1,"Task Instructions","Screen 5","spepx9",3,"continue","",3912.28100009537,3896.196,3912.28100009537,3912.28100009537,3896.196,3912.28100009537,1,3912.28100009537,0,0,NA,"Click To Continue","Continue Button",2,"object-9","Task Instructions",NA,"SUPAMT54374"
"5",1695818441729,"27/09/2023 12:40:41",1695804041729,-4,"27/09/2023 04:40:41",144636,3,"task-hbx7",NA,31894527,9431524,NA,"rejected - time limit reached","","3NPI0JQDAU4INXVUXKZEPBVTZ7IPT5","computer","Desktop or Laptop","Windows 10","Chrome 116.0.0.0","1366x768","1366x619",NA,NA,0,"Task Introduction and Instructions (Clone)",9,"HIGJFAEBDC","Passed AC2","","Spreadsheet1",1,"Task Instructions","Screen 9","8nvnao",4,"continue","",3823.08500009537,3815.918,3823.08500009537,3823.08500009537,3815.918,3823.08500009537,1,3823.08500009537,0,0,NA,"Click To Continue","Continue Button",2,"object-44","Task Instructions",NA,"SUPAMT54374"
"6",1695818441732,"27/09/2023 12:40:41",1695804041732,-4,"27/09/2023 04:40:41",144636,3,"task-hbx7",NA,31894527,9431524,NA,"rejected - time limit reached","","3NPI0JQDAU4INXVUXKZEPBVTZ7IPT5","computer","Desktop or Laptop","Windows 10","Chrome 116.0.0.0","1366x768","1366x619",NA,NA,0,"Task Introduction and Instructions (Clone)",9,"HIGJFAEBDC","Passed AC2","","Spreadsheet1",NA,"","","",NA,"5","END",NA,NA,NA,NA,NA,NA,0,NA,NA,NA,NA,"","",NA,"","",NA,"SUPAMT54374"
"1",1695818800644,"27/09/2023 12:46:40",1695804400644,-4,"27/09/2023 04:46:40",144636,3,"task-hbx7",NA,31894677,9431515,NA,"complete","ospqgx","","computer","Desktop or Laptop","Windows 10","Chrome 116.0.0.0","1440x900","1440x783",NA,NA,0,"Task Introduction and Instructions (Clone)",9,"FGEHDICJBA","Passed AC2","","Spreadsheet1",NA,"","","",NA,"5","BEGIN",NA,NA,NA,NA,NA,NA,0,NA,NA,NA,NA,"","",NA,"","",NA,NA
"2",1695818807521,"27/09/2023 12:46:47",1695804407521,-4,"27/09/2023 04:46:47",144636,3,"task-hbx7",NA,31894677,9431515,NA,"complete","ospqgx","","computer","Desktop or Laptop","Windows 10","Chrome 116.0.0.0","1440x900","1440x783",NA,NA,0,"Task Introduction and Instructions (Clone)",9,"FGEHDICJBA","Passed AC2","","Spreadsheet1",1,"Task Instructions","Screen 1","anr7sn",1,"continue","",6571.346,6555.122,6571.346,6571.346,6555.122,6571.346,1,6571.346,0,0,NA,"Click To Continue","Continue Button",2,"object-1944","Task Instructions",NA,NA
"3",1695818946441,"27/09/2023 12:49:06",1695804546441,-4,"27/09/2023 04:49:06",144636,3,"task-hbx7",NA,31894677,9431515,NA,"complete","ospqgx","","computer","Desktop or Laptop","Windows 10","Chrome 116.0.0.0","1440x900","1440x783",NA,NA,0,"Task Introduction and Instructions (Clone)",9,"FGEHDICJBA","Passed AC2","","Spreadsheet1",1,"Task Instructions","Screen 2","ce2tc8",2,"continue","",138937.123999619,138923.799,138937.123999619,138937.123999619,138923.799,138937.123999619,1,138937.123999619,0,0,NA,"Click To Continue","Continue Button",2,"object-7","Task Instructions",NA,NA
"4",1695818957770,"27/09/2023 12:49:17",1695804557770,-4,"27/09/2023 04:49:17",144636,3,"task-hbx7",NA,31894677,9431515,NA,"complete","ospqgx","","computer","Desktop or Laptop","Windows 10","Chrome 116.0.0.0","1440x900","1440x783",NA,NA,0,"Task Introduction and Instructions (Clone)",9,"FGEHDICJBA","Passed AC2","","Spreadsheet1",1,"Task Instructions","Screen 5","spepx9",3,"continue","",11342.224999237,11334.447,11342.224999237,11342.224999237,11334.447,11342.224999237,1,11342.224999237,0,0,NA,"Click To Continue","Continue Button",2,"object-9","Task Instructions",NA,NA
"5",1695819000385,"27/09/2023 12:50:00",1695804600385,-4,"27/09/2023 04:50:00",144636,3,"task-hbx7",NA,31894677,9431515,NA,"complete","ospqgx","","computer","Desktop or Laptop","Windows 10","Chrome 116.0.0.0","1440x900","1440x783",NA,NA,0,"Task Introduction and Instructions (Clone)",9,"FGEHDICJBA","Passed AC2","","Spreadsheet1",1,"Task Instructions","Screen 9","8nvnao",4,"continue","",42623.0780003815,42608.407,42623.0780003815,42623.0780003815,42608.407,42623.0780003815,1,42623.0780003815,0,0,NA,"Click To Continue","Continue Button",2,"object-44","Task Instructions",NA,NA
"6",1695819000404,"27/09/2023 12:50:00",1695804600404,-4,"27/09/2023 04:50:00",144636,3,"task-hbx7",NA,31894677,9431515,NA,"complete","ospqgx","","computer","Desktop or Laptop","Windows 10","Chrome 116.0.0.0","1440x900","1440x783",NA,NA,0,"Task Introduction and Instructions (Clone)",9,"FGEHDICJBA","Passed AC2","","Spreadsheet1",NA,"","","",NA,"5","END",NA,NA,NA,NA,NA,NA,0,NA,NA,NA,NA,"","",NA,"","",NA,NA
"1",1695821975324,"27/09/2023 13:39:35",1695803975324,-5,"27/09/2023 03:39:35",144636,3,"task-hbx7",NA,31894546,9431537,NA,"complete","xjuqtc","3FDJT1UU7A7FR4NOJWC8QE3GPUQK58","computer","Desktop or Laptop","Windows 10","Chrome 116.0.0.0","1366x768","1366x651",NA,NA,0,"Task Introduction and Instructions (Clone)",9,"IJHAGBFCED","Passed AC2","","Spreadsheet1",NA,"","","",NA,"5","BEGIN",NA,NA,NA,NA,NA,NA,0,NA,NA,NA,NA,"","",NA,"","",NA,"SUPAMT83502"
"2",1695821984933,"27/09/2023 13:39:44",1695803984933,-5,"27/09/2023 03:39:44",144636,3,"task-hbx7",NA,31894546,9431537,NA,"complete","xjuqtc","3FDJT1UU7A7FR4NOJWC8QE3GPUQK58","computer","Desktop or Laptop","Windows 10","Chrome 116.0.0.0","1366x768","1366x651",NA,NA,0,"Task Introduction and Instructions (Clone)",9,"IJHAGBFCED","Passed AC2","","Spreadsheet1",1,"Task Instructions","Screen 1","anr7sn",1,"continue","",9510.41599990463,9506.115,9510.41599990463,9510.41599990463,9506.115,9510.41599990463,1,9510.41599990463,0,0,NA,"Click To Continue","Continue Button",2,"object-1944","Task Instructions",NA,"SUPAMT83502"
"3",1695821988651,"27/09/2023 13:39:48",1695803988651,-5,"27/09/2023 03:39:48",144636,3,"task-hbx7",NA,31894546,9431537,NA,"complete","xjuqtc","3FDJT1UU7A7FR4NOJWC8QE3GPUQK58","computer","Desktop or Laptop","Windows 10","Chrome 116.0.0.0","1366x768","1366x651",NA,NA,0,"Task Introduction and Instructions (Clone)",9,"IJHAGBFCED","Passed AC2","","Spreadsheet1",1,"Task Instructions","Screen 2","ce2tc8",2,"continue","",3723.30099990463,3714.4,3723.30099990463,3723.30099990463,3714.4,3723.30099990463,1,3723.30099990463,0,0,NA,"Click To Continue","Continue Button",2,"object-7","Task Instructions",NA,"SUPAMT83502"
"4",1695821992271,"27/09/2023 13:39:52",1695803992271,-5,"27/09/2023 03:39:52",144636,3,"task-hbx7",NA,31894546,9431537,NA,"complete","xjuqtc","3FDJT1UU7A7FR4NOJWC8QE3GPUQK58","computer","Desktop or Laptop","Windows 10","Chrome 116.0.0.0","1366x768","1366x651",NA,NA,0,"Task Introduction and Instructions (Clone)",9,"IJHAGBFCED","Passed AC2","","Spreadsheet1",1,"Task Instructions","Screen 5","spepx9",3,"continue","",3628.60099995232,3614.131,3628.60099995232,3628.60099995232,3614.131,3628.60099995232,1,3628.60099995232,0,0,NA,"Click To Continue","Continue Button",2,"object-9","Task Instructions",NA,"SUPAMT83502"
"5",1695821997123,"27/09/2023 13:39:57",1695803997123,-5,"27/09/2023 03:39:57",144636,3,"task-hbx7",NA,31894546,9431537,NA,"complete","xjuqtc","3FDJT1UU7A7FR4NOJWC8QE3GPUQK58","computer","Desktop or Laptop","Windows 10","Chrome 116.0.0.0","1366x768","1366x651",NA,NA,0,"Task Introduction and Instructions (Clone)",9,"IJHAGBFCED","Passed AC2","","Spreadsheet1",1,"Task Instructions","Screen 9","8nvnao",4,"continue","",4866.67,4856.077,4866.67,4866.67,4856.077,4866.67,1,4866.67,0,0,NA,"Click To Continue","Continue Button",2,"object-44","Task Instructions",NA,"SUPAMT83502"
"6",1695821997126,"27/09/2023 13:39:57",1695803997126,-5,"27/09/2023 03:39:57",144636,3,"task-hbx7",NA,31894546,9431537,NA,"complete","xjuqtc","3FDJT1UU7A7FR4NOJWC8QE3GPUQK58","computer","Desktop or Laptop","Windows 10","Chrome 116.0.0.0","1366x768","1366x651",NA,NA,0,"Task Introduction and Instructions (Clone)",9,"IJHAGBFCED","Passed AC2","","Spreadsheet1",NA,"","","",NA,"5","END",NA,NA,NA,NA,NA,NA,0,NA,NA,NA,NA,"","",NA,"","",NA,"SUPAMT83502"
"1",1695818793262,"27/09/2023 12:46:33",1695804393262,-4,"27/09/2023 04:46:33",144636,3,"task-hbx7",NA,31894675,9431555,NA,"complete","sxmyof","354P56DE9Q2S2REFCY07FK8MXUY7SR","computer","Desktop or Laptop","Windows 10","Chrome 116.0.0.0","1536x864","1536x747",NA,NA,0,"Task Introduction and Instructions (Clone)",9,"JAIBHCGDFE","Passed AC2","","Spreadsheet1",NA,"","","",NA,"5","BEGIN",NA,NA,NA,NA,NA,NA,0,NA,NA,NA,NA,"","",NA,"","",NA,"SUPAMT29912"
"2",1695818799365,"27/09/2023 12:46:39",1695804399365,-4,"27/09/2023 04:46:39",144636,3,"task-hbx7",NA,31894675,9431555,NA,"complete","sxmyof","354P56DE9Q2S2REFCY07FK8MXUY7SR","computer","Desktop or Laptop","Windows 10","Chrome 116.0.0.0","1536x864","1536x747",NA,NA,0,"Task Introduction and Instructions (Clone)",9,"JAIBHCGDFE","Passed AC2","","Spreadsheet1",1,"Task Instructions","Screen 1","anr7sn",1,"continue","",6000.635,5986.312,6000.635,6000.635,5986.312,6000.635,1,6000.635,0,0,NA,"Click To Continue","Continue Button",2,"object-1944","Task Instructions",NA,"SUPAMT29912"
"3",1695818804807,"27/09/2023 12:46:44",1695804404807,-4,"27/09/2023 04:46:44",144636,3,"task-hbx7",NA,31894675,9431555,NA,"complete","sxmyof","354P56DE9Q2S2REFCY07FK8MXUY7SR","computer","Desktop or Laptop","Windows 10","Chrome 116.0.0.0","1536x864","1536x747",NA,NA,0,"Task Introduction and Instructions (Clone)",9,"JAIBHCGDFE","Passed AC2","","Spreadsheet1",1,"Task Instructions","Screen 2","ce2tc8",2,"continue","",5457.71400009537,5444.603,5457.71400009537,5457.71400009537,5444.603,5457.71400009537,1,5457.71400009537,0,0,NA,"Click To Continue","Continue Button",2,"object-7","Task Instructions",NA,"SUPAMT29912"
"4",1695818808991,"27/09/2023 12:46:48",1695804408991,-4,"27/09/2023 04:46:48",144636,3,"task-hbx7",NA,31894675,9431555,NA,"complete","sxmyof","354P56DE9Q2S2REFCY07FK8MXUY7SR","computer","Desktop or Laptop","Windows 10","Chrome 116.0.0.0","1536x864","1536x747",NA,NA,0,"Task Introduction and Instructions (Clone)",9,"JAIBHCGDFE","Passed AC2","","Spreadsheet1",1,"Task Instructions","Screen 5","spepx9",3,"continue","",4197.211,4193.293,4197.211,4197.211,4193.293,4197.211,1,4197.211,0,0,NA,"Click To Continue","Continue Button",2,"object-9","Task Instructions",NA,"SUPAMT29912"
"5",1695818812334,"27/09/2023 12:46:52",1695804412334,-4,"27/09/2023 04:46:52",144636,3,"task-hbx7",NA,31894675,9431555,NA,"complete","sxmyof","354P56DE9Q2S2REFCY07FK8MXUY7SR","computer","Desktop or Laptop","Windows 10","Chrome 116.0.0.0","1536x864","1536x747",NA,NA,0,"Task Introduction and Instructions (Clone)",9,"JAIBHCGDFE","Passed AC2","","Spreadsheet1",1,"Task Instructions","Screen 9","8nvnao",4,"continue","",3347.31800009537,3337.015,3347.31800009537,3347.31800009537,3337.015,3347.31800009537,1,3347.31800009537,0,0,NA,"Click To Continue","Continue Button",2,"object-44","Task Instructions",NA,"SUPAMT29912"
"6",1695818812336,"27/09/2023 12:46:52",1695804412336,-4,"27/09/2023 04:46:52",144636,3,"task-hbx7",NA,31894675,9431555,NA,"complete","sxmyof","354P56DE9Q2S2REFCY07FK8MXUY7SR","computer","Desktop or Laptop","Windows 10","Chrome 116.0.0.0","1536x864","1536x747",NA,NA,0,"Task Introduction and Instructions (Clone)",9,"JAIBHCGDFE","Passed AC2","","Spreadsheet1",NA,"","","",NA,"5","END",NA,NA,NA,NA,NA,NA,0,NA,NA,NA,NA,"","",NA,"","",NA,"SUPAMT29912"
"1",1695819132143,"27/09/2023 12:52:12",1695804732143,-4,"27/09/2023 04:52:12",144636,3,"task-hbx7",NA,31894865,9431579,NA,"complete","cezdrw","3XIQGXAUMI70Y80E686UESPEC90X7P","computer","Desktop or Laptop","Windows 10","Chrome 114.0.0.0","1366x768","1366x625",NA,NA,0,"Task Introduction and Instructions (Clone)",9,"CDBEAFJGIH","Passed AC2","","Spreadsheet1",NA,"","","",NA,"5","BEGIN",NA,NA,NA,NA,NA,NA,0,NA,NA,NA,NA,"","",NA,"","",NA,"SUPAMT08809"
"2",1695819136324,"27/09/2023 12:52:16",1695804736324,-4,"27/09/2023 04:52:16",144636,3,"task-hbx7",NA,31894865,9431579,NA,"complete","cezdrw","3XIQGXAUMI70Y80E686UESPEC90X7P","computer","Desktop or Laptop","Windows 10","Chrome 114.0.0.0","1366x768","1366x625",NA,NA,0,"Task Introduction and Instructions (Clone)",9,"CDBEAFJGIH","Passed AC2","","Spreadsheet1",1,"Task Instructions","Screen 1","anr7sn",1,"continue","",3952.01099923706,3945.543,3952.01099923706,3952.01099923706,3945.543,3952.01099923706,1,3952.01099923706,0,0,NA,"Click To Continue","Continue Button",2,"object-1944","Task Instructions",NA,"SUPAMT08809"
"3",1695819140464,"27/09/2023 12:52:20",1695804740464,-4,"27/09/2023 04:52:20",144636,3,"task-hbx7",NA,31894865,9431579,NA,"complete","cezdrw","3XIQGXAUMI70Y80E686UESPEC90X7P","computer","Desktop or Laptop","Windows 10","Chrome 114.0.0.0","1366x768","1366x625",NA,NA,0,"Task Introduction and Instructions (Clone)",9,"CDBEAFJGIH","Passed AC2","","Spreadsheet1",1,"Task Instructions","Screen 2","ce2tc8",2,"continue","",4147.46799923706,4137.36,4147.46799923706,4147.46799923706,4137.36,4147.46799923706,1,4147.46799923706,0,0,NA,"Click To Continue","Continue Button",2,"object-7","Task Instructions",NA,"SUPAMT08809"
"4",1695819144143,"27/09/2023 12:52:24",1695804744143,-4,"27/09/2023 04:52:24",144636,3,"task-hbx7",NA,31894865,9431579,NA,"complete","cezdrw","3XIQGXAUMI70Y80E686UESPEC90X7P","computer","Desktop or Laptop","Windows 10","Chrome 114.0.0.0","1366x768","1366x625",NA,NA,0,"Task Introduction and Instructions (Clone)",9,"CDBEAFJGIH","Passed AC2","","Spreadsheet1",1,"Task Instructions","Screen 5","spepx9",3,"continue","",3689.50799980927,3686.73,3689.50799980927,3689.50799980927,3686.73,3689.50799980927,1,3689.50799980927,0,0,NA,"Click To Continue","Continue Button",2,"object-9","Task Instructions",NA,"SUPAMT08809"
"5",1695819150096,"27/09/2023 12:52:30",1695804750096,-4,"27/09/2023 04:52:30",144636,3,"task-hbx7",NA,31894865,9431579,NA,"complete","cezdrw","3XIQGXAUMI70Y80E686UESPEC90X7P","computer","Desktop or Laptop","Windows 10","Chrome 114.0.0.0","1366x768","1366x625",NA,NA,0,"Task Introduction and Instructions (Clone)",9,"CDBEAFJGIH","Passed AC2","","Spreadsheet1",1,"Task Instructions","Screen 9","8nvnao",4,"continue","",5953.136,5936.47,5953.136,5953.136,5936.47,5953.136,1,5953.136,0,0,NA,"Click To Continue","Continue Button",2,"object-44","Task Instructions",NA,"SUPAMT08809"
"6",1695819150102,"27/09/2023 12:52:30",1695804750102,-4,"27/09/2023 04:52:30",144636,3,"task-hbx7",NA,31894865,9431579,NA,"complete","cezdrw","3XIQGXAUMI70Y80E686UESPEC90X7P","computer","Desktop or Laptop","Windows 10","Chrome 114.0.0.0","1366x768","1366x625",NA,NA,0,"Task Introduction and Instructions (Clone)",9,"CDBEAFJGIH","Passed AC2","","Spreadsheet1",NA,"","","",NA,"5","END",NA,NA,NA,NA,NA,NA,0,NA,NA,NA,NA,"","",NA,"","",NA,"SUPAMT08809"
"1",1695819258387,"27/09/2023 12:54:18",1695804858387,-4,"27/09/2023 04:54:18",144636,3,"task-hbx7",NA,31894897,9431541,NA,"complete","xfhrha","38F71OA9GZV2JPGGAK2XR3MX3TZMFY","computer","Desktop or Laptop","Windows 10","Chrome 116.0.0.0","1364x768","1364x651",NA,NA,0,"Task Introduction and Instructions (Clone)",9,"BCADJEIFHG","Passed AC2","","Spreadsheet1",NA,"","","",NA,"5","BEGIN",NA,NA,NA,NA,NA,NA,0,NA,NA,NA,NA,"","",NA,"","",NA,"SUPAMT63428"
"2",1695819262556,"27/09/2023 12:54:22",1695804862556,-4,"27/09/2023 04:54:22",144636,3,"task-hbx7",NA,31894897,9431541,NA,"complete","xfhrha","38F71OA9GZV2JPGGAK2XR3MX3TZMFY","computer","Desktop or Laptop","Windows 10","Chrome 116.0.0.0","1364x768","1364x651",NA,NA,0,"Task Introduction and Instructions (Clone)",9,"BCADJEIFHG","Passed AC2","","Spreadsheet1",1,"Task Instructions","Screen 1","anr7sn",1,"continue","",4137.341,4120.675,4137.341,4137.341,4120.675,4137.341,1,4137.341,0,0,NA,"Click To Continue","Continue Button",2,"object-1944","Task Instructions",NA,"SUPAMT63428"
"3",1695819268375,"27/09/2023 12:54:28",1695804868375,-4,"27/09/2023 04:54:28",144636,3,"task-hbx7",NA,31894897,9431541,NA,"complete","xfhrha","38F71OA9GZV2JPGGAK2XR3MX3TZMFY","computer","Desktop or Laptop","Windows 10","Chrome 116.0.0.0","1364x768","1364x651",NA,NA,0,"Task Introduction and Instructions (Clone)",9,"BCADJEIFHG","Passed AC2","","Spreadsheet1",1,"Task Instructions","Screen 2","ce2tc8",2,"continue","",5837.05599985695,5823.019,5837.05599985695,5837.05599985695,5823.019,5837.05599985695,1,5837.05599985695,0,0,NA,"Click To Continue","Continue Button",2,"object-7","Task Instructions",NA,"SUPAMT63428"
"4",1695819271679,"27/09/2023 12:54:31",1695804871679,-4,"27/09/2023 04:54:31",144636,3,"task-hbx7",NA,31894897,9431541,NA,"complete","xfhrha","38F71OA9GZV2JPGGAK2XR3MX3TZMFY","computer","Desktop or Laptop","Windows 10","Chrome 116.0.0.0","1364x768","1364x651",NA,NA,0,"Task Introduction and Instructions (Clone)",9,"BCADJEIFHG","Passed AC2","","Spreadsheet1",1,"Task Instructions","Screen 5","spepx9",3,"continue","",3317.277,3300.611,3317.277,3317.277,3300.611,3317.277,1,3317.277,0,0,NA,"Click To Continue","Continue Button",2,"object-9","Task Instructions",NA,"SUPAMT63428"
"5",1695819274485,"27/09/2023 12:54:34",1695804874485,-4,"27/09/2023 04:54:34",144636,3,"task-hbx7",NA,31894897,9431541,NA,"complete","xfhrha","38F71OA9GZV2JPGGAK2XR3MX3TZMFY","computer","Desktop or Laptop","Windows 10","Chrome 116.0.0.0","1364x768","1364x651",NA,NA,0,"Task Introduction and Instructions (Clone)",9,"BCADJEIFHG","Passed AC2","","Spreadsheet1",1,"Task Instructions","Screen 9","8nvnao",4,"continue","",2823.32599995232,2818.702,2823.32599995232,2823.32599995232,2818.702,2823.32599995232,1,2823.32599995232,0,0,NA,"Click To Continue","Continue Button",2,"object-44","Task Instructions",NA,"SUPAMT63428"
"6",1695819274487,"27/09/2023 12:54:34",1695804874487,-4,"27/09/2023 04:54:34",144636,3,"task-hbx7",NA,31894897,9431541,NA,"complete","xfhrha","38F71OA9GZV2JPGGAK2XR3MX3TZMFY","computer","Desktop or Laptop","Windows 10","Chrome 116.0.0.0","1364x768","1364x651",NA,NA,0,"Task Introduction and Instructions (Clone)",9,"BCADJEIFHG","Passed AC2","","Spreadsheet1",NA,"","","",NA,"5","END",NA,NA,NA,NA,NA,NA,0,NA,NA,NA,NA,"","",NA,"","",NA,"SUPAMT63428"
"1",1695819336890,"27/09/2023 12:55:36",1695804936890,-4,"27/09/2023 04:55:36",144636,3,"task-hbx7",NA,31894941,9431531,NA,"complete","fusbxb","3TXWC2NHN5PWGA28RVYRTGZSSKMS9O","computer","Desktop or Laptop","Windows 10","Chrome 116.0.0.0","1364x768","1515x687",NA,NA,0,"Task Introduction and Instructions (Clone)",9,"GHFIEJDACB","Passed AC2","","Spreadsheet1",NA,"","","",NA,"5","BEGIN",NA,NA,NA,NA,NA,NA,0,NA,NA,NA,NA,"","",NA,"","",NA,"SUPAMT53839"
"2",1695819360406,"27/09/2023 12:56:00",1695804960406,-4,"27/09/2023 04:56:00",144636,3,"task-hbx7",NA,31894941,9431531,NA,"complete","fusbxb","3TXWC2NHN5PWGA28RVYRTGZSSKMS9O","computer","Desktop or Laptop","Windows 10","Chrome 116.0.0.0","1364x768","1515x687",NA,NA,0,"Task Introduction and Instructions (Clone)",9,"GHFIEJDACB","Passed AC2","","Spreadsheet1",1,"Task Instructions","Screen 1","anr7sn",1,"continue","",23218.75,23187.5,23218.75,23218.75,23187.5,23218.75,1,23218.75,0,0,NA,"Click To Continue","Continue Button",2,"object-1944","Task Instructions",NA,"SUPAMT53839"
"3",1695819381641,"27/09/2023 12:56:21",1695804981641,-4,"27/09/2023 04:56:21",144636,3,"task-hbx7",NA,31894941,9431531,NA,"complete","fusbxb","3TXWC2NHN5PWGA28RVYRTGZSSKMS9O","computer","Desktop or Laptop","Windows 10","Chrome 116.0.0.0","1364x768","1515x687",NA,NA,0,"Task Introduction and Instructions (Clone)",9,"GHFIEJDACB","Passed AC2","","Spreadsheet1",1,"Task Instructions","Screen 2","ce2tc8",2,"continue","",21271.25,21250,21271.25,21271.25,21250,21271.25,1,21271.25,0,0,NA,"Click To Continue","Continue Button",2,"object-7","Task Instructions",NA,"SUPAMT53839"
"4",1695819386506,"27/09/2023 12:56:26",1695804986506,-4,"27/09/2023 04:56:26",144636,3,"task-hbx7",NA,31894941,9431531,NA,"complete","fusbxb","3TXWC2NHN5PWGA28RVYRTGZSSKMS9O","computer","Desktop or Laptop","Windows 10","Chrome 116.0.0.0","1364x768","1515x687",NA,NA,0,"Task Introduction and Instructions (Clone)",9,"GHFIEJDACB","Passed AC2","","Spreadsheet1",1,"Task Instructions","Screen 5","spepx9",3,"continue","",4887.25,4875,4887.25,4887.25,4875,4887.25,1,4887.25,0,0,NA,"Click To Continue","Continue Button",2,"object-9","Task Instructions",NA,"SUPAMT53839"
"5",1695819392016,"27/09/2023 12:56:32",1695804992016,-4,"27/09/2023 04:56:32",144636,3,"task-hbx7",NA,31894941,9431531,NA,"complete","fusbxb","3TXWC2NHN5PWGA28RVYRTGZSSKMS9O","computer","Desktop or Laptop","Windows 10","Chrome 116.0.0.0","1364x768","1515x687",NA,NA,0,"Task Introduction and Instructions (Clone)",9,"GHFIEJDACB","Passed AC2","","Spreadsheet1",1,"Task Instructions","Screen 9","8nvnao",4,"continue","",5523.25,5500,5523.25,5523.25,5500,5523.25,1,5523.25,0,0,NA,"Click To Continue","Continue Button",2,"object-44","Task Instructions",NA,"SUPAMT53839"
"6",1695819392027,"27/09/2023 12:56:32",1695804992027,-4,"27/09/2023 04:56:32",144636,3,"task-hbx7",NA,31894941,9431531,NA,"complete","fusbxb","3TXWC2NHN5PWGA28RVYRTGZSSKMS9O","computer","Desktop or Laptop","Windows 10","Chrome 116.0.0.0","1364x768","1515x687",NA,NA,0,"Task Introduction and Instructions (Clone)",9,"GHFIEJDACB","Passed AC2","","Spreadsheet1",NA,"","","",NA,"5","END",NA,NA,NA,NA,NA,NA,0,NA,NA,NA,NA,"","",NA,"","",NA,"SUPAMT53839"
"1",1695820014046,"27/09/2023 13:06:54",1695805614046,-4,"27/09/2023 05:06:54",144636,3,"task-hbx7",NA,31895242,9431580,NA,"complete","rlziyp","3TVSS0C0E7Z876SV96D9H53PS4LWT7","computer","Desktop or Laptop","Windows 10","Chrome 116.0.0.0","1280x720","1280x571",NA,NA,0,"Task Introduction and Instructions (Clone)",9,"GHFIEJDACB","Passed AC2","","Spreadsheet1",NA,"","","",NA,"5","BEGIN",NA,NA,NA,NA,NA,NA,0,NA,NA,NA,NA,"","",NA,"","",NA,"SUPAMT51662"
"2",1695820021632,"27/09/2023 13:07:01",1695805621632,-4,"27/09/2023 05:07:01",144636,3,"task-hbx7",NA,31895242,9431580,NA,"complete","rlziyp","3TVSS0C0E7Z876SV96D9H53PS4LWT7","computer","Desktop or Laptop","Windows 10","Chrome 116.0.0.0","1280x720","1280x571",NA,NA,0,"Task Introduction and Instructions (Clone)",9,"GHFIEJDACB","Passed AC2","","Spreadsheet1",1,"Task Instructions","Screen 1","anr7sn",1,"continue","",7262.25,7250,7262.25,7262.25,7250,7262.25,1,7262.25,0,0,NA,"Click To Continue","Continue Button",2,"object-1944","Task Instructions",NA,"SUPAMT51662"
"3",1695820032507,"27/09/2023 13:07:12",1695805632507,-4,"27/09/2023 05:07:12",144636,3,"task-hbx7",NA,31895242,9431580,NA,"complete","rlziyp","3TVSS0C0E7Z876SV96D9H53PS4LWT7","computer","Desktop or Laptop","Windows 10","Chrome 116.0.0.0","1280x720","1280x571",NA,NA,0,"Task Introduction and Instructions (Clone)",9,"GHFIEJDACB","Passed AC2","","Spreadsheet1",1,"Task Instructions","Screen 2","ce2tc8",2,"continue","",10888.25,10875,10888.25,10888.25,10875,10888.25,1,10888.25,0,0,NA,"Click To Continue","Continue Button",2,"object-7","Task Instructions",NA,"SUPAMT51662"
"4",1695820039710,"27/09/2023 13:07:19",1695805639710,-4,"27/09/2023 05:07:19",144636,3,"task-hbx7",NA,31895242,9431580,NA,"complete","rlziyp","3TVSS0C0E7Z876SV96D9H53PS4LWT7","computer","Desktop or Laptop","Windows 10","Chrome 116.0.0.0","1280x720","1280x571",NA,NA,0,"Task Introduction and Instructions (Clone)",9,"GHFIEJDACB","Passed AC2","","Spreadsheet1",1,"Task Instructions","Screen 5","spepx9",3,"continue","",7216.25,7187.5,7216.25,7216.25,7187.5,7216.25,1,7216.25,0,0,NA,"Click To Continue","Continue Button",2,"object-9","Task Instructions",NA,"SUPAMT51662"
"5",1695820044912,"27/09/2023 13:07:24",1695805644912,-4,"27/09/2023 05:07:24",144636,3,"task-hbx7",NA,31895242,9431580,NA,"complete","rlziyp","3TVSS0C0E7Z876SV96D9H53PS4LWT7","computer","Desktop or Laptop","Windows 10","Chrome 116.0.0.0","1280x720","1280x571",NA,NA,0,"Task Introduction and Instructions (Clone)",9,"GHFIEJDACB","Passed AC2","","Spreadsheet1",1,"Task Instructions","Screen 9","8nvnao",4,"continue","",5230.75,5218.75,5230.75,5230.75,5218.75,5230.75,1,5230.75,0,0,NA,"Click To Continue","Continue Button",2,"object-44","Task Instructions",NA,"SUPAMT51662"
"6",1695820044916,"27/09/2023 13:07:24",1695805644916,-4,"27/09/2023 05:07:24",144636,3,"task-hbx7",NA,31895242,9431580,NA,"complete","rlziyp","3TVSS0C0E7Z876SV96D9H53PS4LWT7","computer","Desktop or Laptop","Windows 10","Chrome 116.0.0.0","1280x720","1280x571",NA,NA,0,"Task Introduction and Instructions (Clone)",9,"GHFIEJDACB","Passed AC2","","Spreadsheet1",NA,"","","",NA,"5","END",NA,NA,NA,NA,NA,NA,0,NA,NA,NA,NA,"","",NA,"","",NA,"SUPAMT51662"
"1",1695823624338,"27/09/2023 14:07:04",1695805624338,-5,"27/09/2023 04:07:04",144636,3,"task-hbx7",NA,31895246,9431569,NA,"complete","akgoar","3RSDURM96GLA7S5YYC623GO402YEYY","computer","Desktop or Laptop","Windows 10","Chrome 116.0.0.0","1536x864","1536x747",NA,NA,0,"Task Introduction and Instructions (Clone)",9,"ABJCIDHEGF","Passed AC2","","Spreadsheet1",NA,"","","",NA,"5","BEGIN",NA,NA,NA,NA,NA,NA,0,NA,NA,NA,NA,"","",NA,"","",NA,"SUPAMT07312"
"2",1695823632051,"27/09/2023 14:07:12",1695805632051,-5,"27/09/2023 04:07:12",144636,3,"task-hbx7",NA,31895246,9431569,NA,"complete","akgoar","3RSDURM96GLA7S5YYC623GO402YEYY","computer","Desktop or Laptop","Windows 10","Chrome 116.0.0.0","1536x864","1536x747",NA,NA,0,"Task Introduction and Instructions (Clone)",9,"ABJCIDHEGF","Passed AC2","","Spreadsheet1",1,"Task Instructions","Screen 1","anr7sn",1,"continue","",7406.25,7375,7406.25,7406.25,7375,7406.25,1,7406.25,0,0,NA,"Click To Continue","Continue Button",2,"object-1944","Task Instructions",NA,"SUPAMT07312"
"3",1695823639578,"27/09/2023 14:07:19",1695805639578,-5,"27/09/2023 04:07:19",144636,3,"task-hbx7",NA,31895246,9431569,NA,"complete","akgoar","3RSDURM96GLA7S5YYC623GO402YEYY","computer","Desktop or Laptop","Windows 10","Chrome 116.0.0.0","1536x864","1536x747",NA,NA,0,"Task Introduction and Instructions (Clone)",9,"ABJCIDHEGF","Passed AC2","","Spreadsheet1",1,"Task Instructions","Screen 2","ce2tc8",2,"continue","",7562.5,7531.25,7562.5,7562.5,7531.25,7562.5,1,7562.5,0,0,NA,"Click To Continue","Continue Button",2,"object-7","Task Instructions",NA,"SUPAMT07312"
"4",1695823645815,"27/09/2023 14:07:25",1695805645815,-5,"27/09/2023 04:07:25",144636,3,"task-hbx7",NA,31895246,9431569,NA,"complete","akgoar","3RSDURM96GLA7S5YYC623GO402YEYY","computer","Desktop or Laptop","Windows 10","Chrome 116.0.0.0","1536x864","1536x747",NA,NA,0,"Task Introduction and Instructions (Clone)",9,"ABJCIDHEGF","Passed AC2","","Spreadsheet1",1,"Task Instructions","Screen 5","spepx9",3,"continue","",6271.5,6250,6271.5,6271.5,6250,6271.5,1,6271.5,0,0,NA,"Click To Continue","Continue Button",2,"object-9","Task Instructions",NA,"SUPAMT07312"
"5",1695823649733,"27/09/2023 14:07:29",1695805649733,-5,"27/09/2023 04:07:29",144636,3,"task-hbx7",NA,31895246,9431569,NA,"complete","akgoar","3RSDURM96GLA7S5YYC623GO402YEYY","computer","Desktop or Laptop","Windows 10","Chrome 116.0.0.0","1536x864","1536x747",NA,NA,0,"Task Introduction and Instructions (Clone)",9,"ABJCIDHEGF","Passed AC2","","Spreadsheet1",1,"Task Instructions","Screen 9","8nvnao",4,"continue","",3937.5,3906.25,3937.5,3937.5,3906.25,3937.5,1,3937.5,0,0,NA,"Click To Continue","Continue Button",2,"object-44","Task Instructions",NA,"SUPAMT07312"
"6",1695823649743,"27/09/2023 14:07:29",1695805649743,-5,"27/09/2023 04:07:29",144636,3,"task-hbx7",NA,31895246,9431569,NA,"complete","akgoar","3RSDURM96GLA7S5YYC623GO402YEYY","computer","Desktop or Laptop","Windows 10","Chrome 116.0.0.0","1536x864","1536x747",NA,NA,0,"Task Introduction and Instructions (Clone)",9,"ABJCIDHEGF","Passed AC2","","Spreadsheet1",NA,"","","",NA,"5","END",NA,NA,NA,NA,NA,NA,0,NA,NA,NA,NA,"","",NA,"","",NA,"SUPAMT07312"
"1",1695773089798,"27/09/2023 00:04:49",1695758689798,-4,"26/09/2023 16:04:49",144636,3,"task-hbx7",NA,31896392,9431577,NA,"complete","zrecny","3JZQSN0I3W92RFKUZH42EY2077OGFL","computer","Desktop or Laptop","Windows 10","Chrome 116.0.0.0","1920x1080","1920x963",NA,NA,0,"Task Introduction and Instructions (Clone)",9,"DECFBGAHJI","Passed AC2","","Spreadsheet1",NA,"","","",NA,"5","BEGIN",NA,NA,NA,NA,NA,NA,0,NA,NA,NA,NA,"","",NA,"","",NA,"SUPAMT41548"
"2",1695773105111,"27/09/2023 00:05:05",1695758705111,-4,"26/09/2023 16:05:05",144636,3,"task-hbx7",NA,31896392,9431577,NA,"complete","zrecny","3JZQSN0I3W92RFKUZH42EY2077OGFL","computer","Desktop or Laptop","Windows 10","Chrome 116.0.0.0","1920x1080","1920x963",NA,NA,0,"Task Introduction and Instructions (Clone)",9,"DECFBGAHJI","Passed AC2","","Spreadsheet1",1,"Task Instructions","Screen 1","anr7sn",1,"continue","",15121.3089999762,15110.949,15121.3089999762,15121.3089999762,15110.949,15121.3089999762,1,15121.3089999762,0,0,NA,"Click To Continue","Continue Button",2,"object-1944","Task Instructions",NA,"SUPAMT41548"
"3",1695773148889,"27/09/2023 00:05:48",1695758748889,-4,"26/09/2023 16:05:48",144636,3,"task-hbx7",NA,31896392,9431577,NA,"complete","zrecny","3JZQSN0I3W92RFKUZH42EY2077OGFL","computer","Desktop or Laptop","Windows 10","Chrome 116.0.0.0","1920x1080","1920x963",NA,NA,0,"Task Introduction and Instructions (Clone)",9,"DECFBGAHJI","Passed AC2","","Spreadsheet1",1,"Task Instructions","Screen 2","ce2tc8",2,"continue","",43787.8599999762,43778.992,43787.8599999762,43787.8599999762,43778.992,43787.8599999762,1,43787.8599999762,0,0,NA,"Click To Continue","Continue Button",2,"object-7","Task Instructions",NA,"SUPAMT41548"
"4",1695773165024,"27/09/2023 00:06:05",1695758765024,-4,"26/09/2023 16:06:05",144636,3,"task-hbx7",NA,31896392,9431577,NA,"complete","zrecny","3JZQSN0I3W92RFKUZH42EY2077OGFL","computer","Desktop or Laptop","Windows 10","Chrome 116.0.0.0","1920x1080","1920x963",NA,NA,0,"Task Introduction and Instructions (Clone)",9,"DECFBGAHJI","Passed AC2","","Spreadsheet1",1,"Task Instructions","Screen 5","spepx9",3,"continue","",16143.742,16127.076,16143.742,16143.742,16127.076,16143.742,1,16143.742,0,0,NA,"Click To Continue","Continue Button",2,"object-9","Task Instructions",NA,"SUPAMT41548"
"5",1695773169296,"27/09/2023 00:06:09",1695758769296,-4,"26/09/2023 16:06:09",144636,3,"task-hbx7",NA,31896392,9431577,NA,"complete","zrecny","3JZQSN0I3W92RFKUZH42EY2077OGFL","computer","Desktop or Laptop","Windows 10","Chrome 116.0.0.0","1920x1080","1920x963",NA,NA,0,"Task Introduction and Instructions (Clone)",9,"DECFBGAHJI","Passed AC2","","Spreadsheet1",1,"Task Instructions","Screen 9","8nvnao",4,"continue","",4289.21800000001,4272.55200000001,4289.21800000001,4289.21800000001,4272.55200000001,4289.21800000001,1,4289.21800000001,0,0,NA,"Click To Continue","Continue Button",2,"object-44","Task Instructions",NA,"SUPAMT41548"
"6",1695773169304,"27/09/2023 00:06:09",1695758769304,-4,"26/09/2023 16:06:09",144636,3,"task-hbx7",NA,31896392,9431577,NA,"complete","zrecny","3JZQSN0I3W92RFKUZH42EY2077OGFL","computer","Desktop or Laptop","Windows 10","Chrome 116.0.0.0","1920x1080","1920x963",NA,NA,0,"Task Introduction and Instructions (Clone)",9,"DECFBGAHJI","Passed AC2","","Spreadsheet1",NA,"","","",NA,"5","END",NA,NA,NA,NA,NA,NA,0,NA,NA,NA,NA,"","",NA,"","",NA,"SUPAMT41548"
"1",1695842595723,"27/09/2023 19:23:15",1695828195723,-4,"27/09/2023 11:23:15",144636,3,"task-hbx7",NA,31896564,9431584,NA,"complete","uaqyto","3OSWBBLG1KWGFH1OXL9GEKZAYK4DXZ","computer","Desktop or Laptop","Windows 10","Chrome 116.0.0.0","1920x1080","1920x963",NA,NA,0,"Task Introduction and Instructions (Clone)",9,"BCADJEIFHG","Passed AC2","","Spreadsheet1",NA,"","","",NA,"5","BEGIN",NA,NA,NA,NA,NA,NA,0,NA,NA,NA,NA,"","",NA,"","",NA,"SUPAMT01609"
"2",1695842604310,"27/09/2023 19:23:24",1695828204310,-4,"27/09/2023 11:23:24",144636,3,"task-hbx7",NA,31896564,9431584,NA,"complete","uaqyto","3OSWBBLG1KWGFH1OXL9GEKZAYK4DXZ","computer","Desktop or Laptop","Windows 10","Chrome 116.0.0.0","1920x1080","1920x963",NA,NA,0,"Task Introduction and Instructions (Clone)",9,"BCADJEIFHG","Passed AC2","","Spreadsheet1",1,"Task Instructions","Screen 1","anr7sn",1,"continue","",8396.06499995232,8387.358,8396.06499995232,8396.06499995232,8387.358,8396.06499995232,1,8396.06499995232,0,0,NA,"Click To Continue","Continue Button",2,"object-1944","Task Instructions",NA,"SUPAMT01609"
"3",1695842617444,"27/09/2023 19:23:37",1695828217444,-4,"27/09/2023 11:23:37",144636,3,"task-hbx7",NA,31896564,9431584,NA,"complete","uaqyto","3OSWBBLG1KWGFH1OXL9GEKZAYK4DXZ","computer","Desktop or Laptop","Windows 10","Chrome 116.0.0.0","1920x1080","1920x963",NA,NA,0,"Task Introduction and Instructions (Clone)",9,"BCADJEIFHG","Passed AC2","","Spreadsheet1",1,"Task Instructions","Screen 2","ce2tc8",2,"continue","",13143.7069999523,13127.538,13143.7069999523,13143.7069999523,13127.538,13143.7069999523,1,13143.7069999523,0,0,NA,"Click To Continue","Continue Button",2,"object-7","Task Instructions",NA,"SUPAMT01609"
"4",1695842622804,"27/09/2023 19:23:42",1695828222804,-4,"27/09/2023 11:23:42",144636,3,"task-hbx7",NA,31896564,9431584,NA,"complete","uaqyto","3OSWBBLG1KWGFH1OXL9GEKZAYK4DXZ","computer","Desktop or Laptop","Windows 10","Chrome 116.0.0.0","1920x1080","1920x963",NA,NA,0,"Task Introduction and Instructions (Clone)",9,"BCADJEIFHG","Passed AC2","","Spreadsheet1",1,"Task Instructions","Screen 5","spepx9",3,"continue","",5375.46899996424,5368.826,5375.46899996424,5375.46899996424,5368.826,5375.46899996424,1,5375.46899996424,0,0,NA,"Click To Continue","Continue Button",2,"object-9","Task Instructions",NA,"SUPAMT01609"
"5",1695842639341,"27/09/2023 19:23:59",1695828239341,-4,"27/09/2023 11:23:59",144636,3,"task-hbx7",NA,31896564,9431584,NA,"complete","uaqyto","3OSWBBLG1KWGFH1OXL9GEKZAYK4DXZ","computer","Desktop or Laptop","Windows 10","Chrome 116.0.0.0","1920x1080","1920x963",NA,NA,0,"Task Introduction and Instructions (Clone)",9,"BCADJEIFHG","Passed AC2","","Spreadsheet1",1,"Task Instructions","Screen 9","8nvnao",4,"continue","",16543.8429999523,16534.081,16543.8429999523,16543.8429999523,16534.081,16543.8429999523,1,16543.8429999523,0,0,NA,"Click To Continue","Continue Button",2,"object-44","Task Instructions",NA,"SUPAMT01609"
"6",1695842639346,"27/09/2023 19:23:59",1695828239346,-4,"27/09/2023 11:23:59",144636,3,"task-hbx7",NA,31896564,9431584,NA,"complete","uaqyto","3OSWBBLG1KWGFH1OXL9GEKZAYK4DXZ","computer","Desktop or Laptop","Windows 10","Chrome 116.0.0.0","1920x1080","1920x963",NA,NA,0,"Task Introduction and Instructions (Clone)",9,"BCADJEIFHG","Passed AC2","","Spreadsheet1",NA,"","","",NA,"5","END",NA,NA,NA,NA,NA,NA,0,NA,NA,NA,NA,"","",NA,"","",NA,"SUPAMT01609"
"1",1695819167083,"27/09/2023 12:52:47",1695804767083,-4,"27/09/2023 04:52:47",144636,3,"task-hbx7",NA,31894841,9431590,NA,"complete","kejgck","39ASUFLU636L7NFOTGK0K2HVYW4EXS","computer","Desktop or Laptop","Windows 10","Chrome 116.0.0.0","1364x768","1345x602",NA,NA,0,"Task Introduction and Instructions (Clone)",9,"DECFBGAHJI","Passed AC2","","Spreadsheet1",NA,"","","",NA,"5","BEGIN",NA,NA,NA,NA,NA,NA,0,NA,NA,NA,NA,"","",NA,"","",NA,"SUPAMT13138"
"2",1695819174696,"27/09/2023 12:52:54",1695804774696,-4,"27/09/2023 04:52:54",144636,3,"task-hbx7",NA,31894841,9431590,NA,"complete","kejgck","39ASUFLU636L7NFOTGK0K2HVYW4EXS","computer","Desktop or Laptop","Windows 10","Chrome 116.0.0.0","1364x768","1345x602",NA,NA,0,"Task Introduction and Instructions (Clone)",9,"DECFBGAHJI","Passed AC2","","Spreadsheet1",1,"Task Instructions","Screen 1","anr7sn",1,"continue","",7321,7312.5,7321,7321,7312.5,7321,1,7321,0,0,NA,"Click To Continue","Continue Button",2,"object-1944","Task Instructions",NA,"SUPAMT13138"
"3",1695819190319,"27/09/2023 12:53:10",1695804790319,-4,"27/09/2023 04:53:10",144636,3,"task-hbx7",NA,31894841,9431590,NA,"complete","kejgck","39ASUFLU636L7NFOTGK0K2HVYW4EXS","computer","Desktop or Laptop","Windows 10","Chrome 116.0.0.0","1364x768","1345x602",NA,NA,0,"Task Introduction and Instructions (Clone)",9,"DECFBGAHJI","Passed AC2","","Spreadsheet1",1,"Task Instructions","Screen 2","ce2tc8",2,"continue","",15625,15593.75,15625,15625,15593.75,15625,1,15625,0,0,NA,"Click To Continue","Continue Button",2,"object-7","Task Instructions",NA,"SUPAMT13138"
"4",1695819218803,"27/09/2023 12:53:38",1695804818803,-4,"27/09/2023 04:53:38",144636,3,"task-hbx7",NA,31894841,9431590,NA,"complete","kejgck","39ASUFLU636L7NFOTGK0K2HVYW4EXS","computer","Desktop or Laptop","Windows 10","Chrome 116.0.0.0","1364x768","1345x602",NA,NA,0,"Task Introduction and Instructions (Clone)",9,"DECFBGAHJI","Passed AC2","","Spreadsheet1",1,"Task Instructions","Screen 5","spepx9",3,"continue","",28521.75,28500,28521.75,28521.75,28500,28521.75,1,28521.75,0,0,NA,"Click To Continue","Continue Button",2,"object-9","Task Instructions",NA,"SUPAMT13138"
"5",1695819227603,"27/09/2023 12:53:47",1695804827603,-4,"27/09/2023 04:53:47",144636,3,"task-hbx7",NA,31894841,9431590,NA,"complete","kejgck","39ASUFLU636L7NFOTGK0K2HVYW4EXS","computer","Desktop or Laptop","Windows 10","Chrome 116.0.0.0","1364x768","1345x602",NA,NA,0,"Task Introduction and Instructions (Clone)",9,"DECFBGAHJI","Passed AC2","","Spreadsheet1",1,"Task Instructions","Screen 9","8nvnao",4,"continue","",8821.75,8812.5,8821.75,8821.75,8812.5,8821.75,1,8821.75,0,0,NA,"Click To Continue","Continue Button",2,"object-44","Task Instructions",NA,"SUPAMT13138"
"6",1695819227610,"27/09/2023 12:53:47",1695804827610,-4,"27/09/2023 04:53:47",144636,3,"task-hbx7",NA,31894841,9431590,NA,"complete","kejgck","39ASUFLU636L7NFOTGK0K2HVYW4EXS","computer","Desktop or Laptop","Windows 10","Chrome 116.0.0.0","1364x768","1345x602",NA,NA,0,"Task Introduction and Instructions (Clone)",9,"DECFBGAHJI","Passed AC2","","Spreadsheet1",NA,"","","",NA,"5","END",NA,NA,NA,NA,NA,NA,0,NA,NA,NA,NA,"","",NA,"","",NA,"SUPAMT13138"
"1",1695819447517,"27/09/2023 12:57:27",1695805047517,-4,"27/09/2023 04:57:27",144636,3,"task-hbx7",NA,31895059,9431620,NA,"complete","knrkgh","39DD6S19JVAACIF3UY8LHNX66W2EZP","computer","Desktop or Laptop","Windows 10","Chrome 114.0.0.0","1366x768","1366x625",NA,NA,0,"Task Introduction and Instructions (Clone)",9,"CDBEAFJGIH","Passed AC2","","Spreadsheet1",NA,"","","",NA,"5","BEGIN",NA,NA,NA,NA,NA,NA,0,NA,NA,NA,NA,"","",NA,"","",NA,"SUPAMT11912"
"2",1695819451766,"27/09/2023 12:57:31",1695805051766,-4,"27/09/2023 04:57:31",144636,3,"task-hbx7",NA,31895059,9431620,NA,"complete","knrkgh","39DD6S19JVAACIF3UY8LHNX66W2EZP","computer","Desktop or Laptop","Windows 10","Chrome 114.0.0.0","1366x768","1366x625",NA,NA,0,"Task Introduction and Instructions (Clone)",9,"CDBEAFJGIH","Passed AC2","","Spreadsheet1",1,"Task Instructions","Screen 1","anr7sn",1,"continue","",4030.86200076294,4026.851,4030.86200076294,4030.86200076294,4026.851,4030.86200076294,1,4030.86200076294,0,0,NA,"Click To Continue","Continue Button",2,"object-1944","Task Instructions",NA,"SUPAMT11912"
"3",1695819479971,"27/09/2023 12:57:59",1695805079971,-4,"27/09/2023 04:57:59",144636,3,"task-hbx7",NA,31895059,9431620,NA,"complete","knrkgh","39DD6S19JVAACIF3UY8LHNX66W2EZP","computer","Desktop or Laptop","Windows 10","Chrome 114.0.0.0","1366x768","1366x625",NA,NA,0,"Task Introduction and Instructions (Clone)",9,"CDBEAFJGIH","Passed AC2","","Spreadsheet1",1,"Task Instructions","Screen 2","ce2tc8",2,"continue","",28210.2110005722,28195.591,28210.2110005722,28210.2110005722,28195.591,28210.2110005722,1,28210.2110005722,0,0,NA,"Click To Continue","Continue Button",2,"object-7","Task Instructions",NA,"SUPAMT11912"
"4",1695819484579,"27/09/2023 12:58:04",1695805084579,-4,"27/09/2023 04:58:04",144636,3,"task-hbx7",NA,31895059,9431620,NA,"complete","knrkgh","39DD6S19JVAACIF3UY8LHNX66W2EZP","computer","Desktop or Laptop","Windows 10","Chrome 114.0.0.0","1366x768","1366x625",NA,NA,0,"Task Introduction and Instructions (Clone)",9,"CDBEAFJGIH","Passed AC2","","Spreadsheet1",1,"Task Instructions","Screen 5","spepx9",3,"continue","",4620.996,4604.33,4620.996,4620.996,4604.33,4620.996,1,4620.996,0,0,NA,"Click To Continue","Continue Button",2,"object-9","Task Instructions",NA,"SUPAMT11912"
"5",1695819488130,"27/09/2023 12:58:08",1695805088130,-4,"27/09/2023 04:58:08",144636,3,"task-hbx7",NA,31895059,9431620,NA,"complete","knrkgh","39DD6S19JVAACIF3UY8LHNX66W2EZP","computer","Desktop or Laptop","Windows 10","Chrome 114.0.0.0","1366x768","1366x625",NA,NA,0,"Task Introduction and Instructions (Clone)",9,"CDBEAFJGIH","Passed AC2","","Spreadsheet1",1,"Task Instructions","Screen 9","8nvnao",4,"continue","",3568.7900005722,3565.559,3568.7900005722,3568.7900005722,3565.559,3568.7900005722,1,3568.7900005722,0,0,NA,"Click To Continue","Continue Button",2,"object-44","Task Instructions",NA,"SUPAMT11912"
"6",1695819488132,"27/09/2023 12:58:08",1695805088132,-4,"27/09/2023 04:58:08",144636,3,"task-hbx7",NA,31895059,9431620,NA,"complete","knrkgh","39DD6S19JVAACIF3UY8LHNX66W2EZP","computer","Desktop or Laptop","Windows 10","Chrome 114.0.0.0","1366x768","1366x625",NA,NA,0,"Task Introduction and Instructions (Clone)",9,"CDBEAFJGIH","Passed AC2","","Spreadsheet1",NA,"","","",NA,"5","END",NA,NA,NA,NA,NA,NA,0,NA,NA,NA,NA,"","",NA,"","",NA,"SUPAMT11912"
"1",1695830540746,"27/09/2023 16:02:20",1695805340746,-7,"27/09/2023 02:02:20",144636,3,"task-hbx7",NA,31895142,9431654,NA,"complete","tuqcyj","37QW5D2ZRMLW25JYM3SDTK4H8E88SJ","computer","Desktop or Laptop","Windows 10","Chrome 109.0.0.0","1280x1024","1280x881",NA,NA,0,"Task Introduction and Instructions (Clone)",9,"EFDGCHBIAJ","Passed AC2","","Spreadsheet1",NA,"","","",NA,"5","BEGIN",NA,NA,NA,NA,NA,NA,0,NA,NA,NA,NA,"","",NA,"","",NA,"SUPAMT59227"
"2",1695830576151,"27/09/2023 16:02:56",1695805376151,-7,"27/09/2023 02:02:56",144636,3,"task-hbx7",NA,31895142,9431654,NA,"complete","tuqcyj","37QW5D2ZRMLW25JYM3SDTK4H8E88SJ","computer","Desktop or Laptop","Windows 10","Chrome 109.0.0.0","1280x1024","1280x881",NA,NA,0,"Task Introduction and Instructions (Clone)",9,"EFDGCHBIAJ","Passed AC2","","Spreadsheet1",1,"Task Instructions","Screen 1","anr7sn",1,"continue","",35125,35093.75,35125,35125,35093.75,35125,1,35125,0,0,NA,"Click To Continue","Continue Button",2,"object-1944","Task Instructions",NA,"SUPAMT59227"
"3",1695830579628,"27/09/2023 16:02:59",1695805379628,-7,"27/09/2023 02:02:59",144636,3,"task-hbx7",NA,31895142,9431654,NA,"complete","tuqcyj","37QW5D2ZRMLW25JYM3SDTK4H8E88SJ","computer","Desktop or Laptop","Windows 10","Chrome 109.0.0.0","1280x1024","1280x881",NA,NA,0,"Task Introduction and Instructions (Clone)",9,"EFDGCHBIAJ","Passed AC2","","Spreadsheet1",1,"Task Instructions","Screen 2","ce2tc8",2,"continue","",3509.25,3500,3509.25,3509.25,3500,3509.25,1,3509.25,0,0,NA,"Click To Continue","Continue Button",2,"object-7","Task Instructions",NA,"SUPAMT59227"
"4",1695830582821,"27/09/2023 16:03:02",1695805382821,-7,"27/09/2023 02:03:02",144636,3,"task-hbx7",NA,31895142,9431654,NA,"complete","tuqcyj","37QW5D2ZRMLW25JYM3SDTK4H8E88SJ","computer","Desktop or Laptop","Windows 10","Chrome 109.0.0.0","1280x1024","1280x881",NA,NA,0,"Task Introduction and Instructions (Clone)",9,"EFDGCHBIAJ","Passed AC2","","Spreadsheet1",1,"Task Instructions","Screen 5","spepx9",3,"continue","",3202.25,3187.5,3202.25,3202.25,3187.5,3202.25,1,3202.25,0,0,NA,"Click To Continue","Continue Button",2,"object-9","Task Instructions",NA,"SUPAMT59227"
"5",1695830586498,"27/09/2023 16:03:06",1695805386498,-7,"27/09/2023 02:03:06",144636,3,"task-hbx7",NA,31895142,9431654,NA,"complete","tuqcyj","37QW5D2ZRMLW25JYM3SDTK4H8E88SJ","computer","Desktop or Laptop","Windows 10","Chrome 109.0.0.0","1280x1024","1280x881",NA,NA,0,"Task Introduction and Instructions (Clone)",9,"EFDGCHBIAJ","Passed AC2","","Spreadsheet1",1,"Task Instructions","Screen 9","8nvnao",4,"continue","",3691.75,3687.5,3691.75,3691.75,3687.5,3691.75,1,3691.75,0,0,NA,"Click To Continue","Continue Button",2,"object-44","Task Instructions",NA,"SUPAMT59227"
"6",1695830586512,"27/09/2023 16:03:06",1695805386512,-7,"27/09/2023 02:03:06",144636,3,"task-hbx7",NA,31895142,9431654,NA,"complete","tuqcyj","37QW5D2ZRMLW25JYM3SDTK4H8E88SJ","computer","Desktop or Laptop","Windows 10","Chrome 109.0.0.0","1280x1024","1280x881",NA,NA,0,"Task Introduction and Instructions (Clone)",9,"EFDGCHBIAJ","Passed AC2","","Spreadsheet1",NA,"","","",NA,"5","END",NA,NA,NA,NA,NA,NA,0,NA,NA,NA,NA,"","",NA,"","",NA,"SUPAMT59227"
"1",1695830620484,"27/09/2023 16:03:40",1695805420484,-7,"27/09/2023 02:03:40",144636,3,"task-hbx7",NA,31895173,9431601,NA,"complete","tsebzf","3GA6AFUKOUNLBZZCZSLIYPP4JHVH3B","computer","Desktop or Laptop","Windows 10","Chrome 117.0.0.0","1280x768","1280x619",NA,NA,0,"Task Introduction and Instructions (Clone)",9,"FGEHDICJBA","Passed AC2","","Spreadsheet1",NA,"","","",NA,"5","BEGIN",NA,NA,NA,NA,NA,NA,0,NA,NA,NA,NA,"","",NA,"","",NA,"SUPAMT44011"
"2",1695830624418,"27/09/2023 16:03:44",1695805424418,-7,"27/09/2023 02:03:44",144636,3,"task-hbx7",NA,31895173,9431601,NA,"complete","tsebzf","3GA6AFUKOUNLBZZCZSLIYPP4JHVH3B","computer","Desktop or Laptop","Windows 10","Chrome 117.0.0.0","1280x768","1280x619",NA,NA,0,"Task Introduction and Instructions (Clone)",9,"FGEHDICJBA","Passed AC2","","Spreadsheet1",1,"Task Instructions","Screen 1","anr7sn",1,"continue","",3737.75,3718.75,3737.75,3737.75,3718.75,3737.75,1,3737.75,0,0,NA,"Click To Continue","Continue Button",2,"object-1944","Task Instructions",NA,"SUPAMT44011"
"3",1695830627686,"27/09/2023 16:03:47",1695805427686,-7,"27/09/2023 02:03:47",144636,3,"task-hbx7",NA,31895173,9431601,NA,"complete","tsebzf","3GA6AFUKOUNLBZZCZSLIYPP4JHVH3B","computer","Desktop or Laptop","Windows 10","Chrome 117.0.0.0","1280x768","1280x619",NA,NA,0,"Task Introduction and Instructions (Clone)",9,"FGEHDICJBA","Passed AC2","","Spreadsheet1",1,"Task Instructions","Screen 2","ce2tc8",2,"continue","",3281.25,3250,3281.25,3281.25,3250,3281.25,1,3281.25,0,0,NA,"Click To Continue","Continue Button",2,"object-7","Task Instructions",NA,"SUPAMT44011"
"4",1695830637423,"27/09/2023 16:03:57",1695805437423,-7,"27/09/2023 02:03:57",144636,3,"task-hbx7",NA,31895173,9431601,NA,"complete","tsebzf","3GA6AFUKOUNLBZZCZSLIYPP4JHVH3B","computer","Desktop or Laptop","Windows 10","Chrome 117.0.0.0","1280x768","1280x619",NA,NA,0,"Task Introduction and Instructions (Clone)",9,"FGEHDICJBA","Passed AC2","","Spreadsheet1",1,"Task Instructions","Screen 5","spepx9",3,"continue","",9774,9750,9774,9774,9750,9774,1,9774,0,0,NA,"Click To Continue","Continue Button",2,"object-9","Task Instructions",NA,"SUPAMT44011"
"5",1695830642875,"27/09/2023 16:04:02",1695805442875,-7,"27/09/2023 02:04:02",144636,3,"task-hbx7",NA,31895173,9431601,NA,"complete","tsebzf","3GA6AFUKOUNLBZZCZSLIYPP4JHVH3B","computer","Desktop or Laptop","Windows 10","Chrome 117.0.0.0","1280x768","1280x619",NA,NA,0,"Task Introduction and Instructions (Clone)",9,"FGEHDICJBA","Passed AC2","","Spreadsheet1",1,"Task Instructions","Screen 9","8nvnao",4,"continue","",5468.75,5437.5,5468.75,5468.75,5437.5,5468.75,1,5468.75,0,0,NA,"Click To Continue","Continue Button",2,"object-44","Task Instructions",NA,"SUPAMT44011"
"6",1695830642885,"27/09/2023 16:04:02",1695805442885,-7,"27/09/2023 02:04:02",144636,3,"task-hbx7",NA,31895173,9431601,NA,"complete","tsebzf","3GA6AFUKOUNLBZZCZSLIYPP4JHVH3B","computer","Desktop or Laptop","Windows 10","Chrome 117.0.0.0","1280x768","1280x619",NA,NA,0,"Task Introduction and Instructions (Clone)",9,"FGEHDICJBA","Passed AC2","","Spreadsheet1",NA,"","","",NA,"5","END",NA,NA,NA,NA,NA,NA,0,NA,NA,NA,NA,"","",NA,"","",NA,"SUPAMT44011"
"1",1695819934537,"27/09/2023 13:05:34",1695805534537,-4,"27/09/2023 05:05:34",144636,3,"task-hbx7",NA,31895209,9431587,NA,"rejected - time limit reached","","3QY7M81QHDLUE8177PR5OYHCG0LK7N","computer","Desktop or Laptop","Windows 10","Chrome 117.0.0.0","1366x768","1366x619",NA,NA,0,"Task Introduction and Instructions (Clone)",9,"ABJCIDHEGF","Passed AC2","","Spreadsheet1",NA,"","","",NA,"5","BEGIN",NA,NA,NA,NA,NA,NA,0,NA,NA,NA,NA,"","",NA,"","",NA,"SUPAMT95465"
"2",1695819939440,"27/09/2023 13:05:39",1695805539440,-4,"27/09/2023 05:05:39",144636,3,"task-hbx7",NA,31895209,9431587,NA,"rejected - time limit reached","","3QY7M81QHDLUE8177PR5OYHCG0LK7N","computer","Desktop or Laptop","Windows 10","Chrome 117.0.0.0","1366x768","1366x619",NA,NA,0,"Task Introduction and Instructions (Clone)",9,"ABJCIDHEGF","Passed AC2","","Spreadsheet1",1,"Task Instructions","Screen 1","anr7sn",1,"continue","",4579.188,4566.484,4579.188,4579.188,4566.484,4579.188,1,4579.188,0,0,NA,"Click To Continue","Continue Button",2,"object-1944","Task Instructions",NA,"SUPAMT95465"
"3",1695819945597,"27/09/2023 13:05:45",1695805545597,-4,"27/09/2023 05:05:45",144636,3,"task-hbx7",NA,31895209,9431587,NA,"rejected - time limit reached","","3QY7M81QHDLUE8177PR5OYHCG0LK7N","computer","Desktop or Laptop","Windows 10","Chrome 117.0.0.0","1366x768","1366x619",NA,NA,0,"Task Introduction and Instructions (Clone)",9,"ABJCIDHEGF","Passed AC2","","Spreadsheet1",1,"Task Instructions","Screen 2","ce2tc8",2,"continue","",6169.704,6166.42,6169.704,6169.704,6166.42,6169.704,1,6169.704,0,0,NA,"Click To Continue","Continue Button",2,"object-7","Task Instructions",NA,"SUPAMT95465"
"4",1695819952934,"27/09/2023 13:05:52",1695805552934,-4,"27/09/2023 05:05:52",144636,3,"task-hbx7",NA,31895209,9431587,NA,"rejected - time limit reached","","3QY7M81QHDLUE8177PR5OYHCG0LK7N","computer","Desktop or Laptop","Windows 10","Chrome 117.0.0.0","1366x768","1366x619",NA,NA,0,"Task Introduction and Instructions (Clone)",9,"ABJCIDHEGF","Passed AC2","","Spreadsheet1",1,"Task Instructions","Screen 5","spepx9",3,"continue","",7340.284,7333.04,7340.284,7340.284,7333.04,7340.284,1,7340.284,0,0,NA,"Click To Continue","Continue Button",2,"object-9","Task Instructions",NA,"SUPAMT95465"
"5",1695819956694,"27/09/2023 13:05:56",1695805556694,-4,"27/09/2023 05:05:56",144636,3,"task-hbx7",NA,31895209,9431587,NA,"rejected - time limit reached","","3QY7M81QHDLUE8177PR5OYHCG0LK7N","computer","Desktop or Laptop","Windows 10","Chrome 117.0.0.0","1366x768","1366x619",NA,NA,0,"Task Introduction and Instructions (Clone)",9,"ABJCIDHEGF","Passed AC2","","Spreadsheet1",1,"Task Instructions","Screen 9","8nvnao",4,"continue","",3766.516,3749.85,3766.516,3766.516,3749.85,3766.516,1,3766.516,0,0,NA,"Click To Continue","Continue Button",2,"object-44","Task Instructions",NA,"SUPAMT95465"
"6",1695819956698,"27/09/2023 13:05:56",1695805556698,-4,"27/09/2023 05:05:56",144636,3,"task-hbx7",NA,31895209,9431587,NA,"rejected - time limit reached","","3QY7M81QHDLUE8177PR5OYHCG0LK7N","computer","Desktop or Laptop","Windows 10","Chrome 117.0.0.0","1366x768","1366x619",NA,NA,0,"Task Introduction and Instructions (Clone)",9,"ABJCIDHEGF","Passed AC2","","Spreadsheet1",NA,"","","",NA,"5","END",NA,NA,NA,NA,NA,NA,0,NA,NA,NA,NA,"","",NA,"","",NA,"SUPAMT95465"
"1",1695820162571,"27/09/2023 13:09:22",1695805762571,-4,"27/09/2023 05:09:22",144636,3,"task-hbx7",NA,31895293,9431652,NA,"complete","zdycad","30MVJZJNHSC3H7JI41PD1F85W1C9JS","computer","Desktop or Laptop","Windows 10","Chrome 116.0.0.0","1366x768","1366x619",NA,NA,0,"Task Introduction and Instructions (Clone)",9,"FGEHDICJBA","Passed AC2","","Spreadsheet1",NA,"","","",NA,"5","BEGIN",NA,NA,NA,NA,NA,NA,0,NA,NA,NA,NA,"","",NA,"","",NA,"SUPAMT62860"
"2",1695820167512,"27/09/2023 13:09:27",1695805767512,-4,"27/09/2023 05:09:27",144636,3,"task-hbx7",NA,31895293,9431652,NA,"complete","zdycad","30MVJZJNHSC3H7JI41PD1F85W1C9JS","computer","Desktop or Laptop","Windows 10","Chrome 116.0.0.0","1366x768","1366x619",NA,NA,0,"Task Introduction and Instructions (Clone)",9,"FGEHDICJBA","Passed AC2","","Spreadsheet1",1,"Task Instructions","Screen 1","anr7sn",1,"continue","",4272,4250,4272,4272,4250,4272,1,4272,0,0,NA,"Click To Continue","Continue Button",2,"object-1944","Task Instructions",NA,"SUPAMT62860"
"3",1695820175397,"27/09/2023 13:09:35",1695805775397,-4,"27/09/2023 05:09:35",144636,3,"task-hbx7",NA,31895293,9431652,NA,"complete","zdycad","30MVJZJNHSC3H7JI41PD1F85W1C9JS","computer","Desktop or Laptop","Windows 10","Chrome 116.0.0.0","1366x768","1366x619",NA,NA,0,"Task Introduction and Instructions (Clone)",9,"FGEHDICJBA","Passed AC2","","Spreadsheet1",1,"Task Instructions","Screen 2","ce2tc8",2,"continue","",7906.25,7875,7906.25,7906.25,7875,7906.25,1,7906.25,0,0,NA,"Click To Continue","Continue Button",2,"object-7","Task Instructions",NA,"SUPAMT62860"
"4",1695820184323,"27/09/2023 13:09:44",1695805784323,-4,"27/09/2023 05:09:44",144636,3,"task-hbx7",NA,31895293,9431652,NA,"complete","zdycad","30MVJZJNHSC3H7JI41PD1F85W1C9JS","computer","Desktop or Laptop","Windows 10","Chrome 116.0.0.0","1366x768","1366x619",NA,NA,0,"Task Introduction and Instructions (Clone)",9,"FGEHDICJBA","Passed AC2","","Spreadsheet1",1,"Task Instructions","Screen 5","spepx9",3,"continue","",8959,8937.5,8959,8959,8937.5,8959,1,8959,0,0,NA,"Click To Continue","Continue Button",2,"object-9","Task Instructions",NA,"SUPAMT62860"
"5",1695820191626,"27/09/2023 13:09:51",1695805791626,-4,"27/09/2023 05:09:51",144636,3,"task-hbx7",NA,31895293,9431652,NA,"complete","zdycad","30MVJZJNHSC3H7JI41PD1F85W1C9JS","computer","Desktop or Laptop","Windows 10","Chrome 116.0.0.0","1366x768","1366x619",NA,NA,0,"Task Introduction and Instructions (Clone)",9,"FGEHDICJBA","Passed AC2","","Spreadsheet1",1,"Task Instructions","Screen 9","8nvnao",4,"continue","",7312.5,7281.25,7312.5,7312.5,7281.25,7312.5,1,7312.5,0,0,NA,"Click To Continue","Continue Button",2,"object-44","Task Instructions",NA,"SUPAMT62860"
"6",1695820191639,"27/09/2023 13:09:51",1695805791639,-4,"27/09/2023 05:09:51",144636,3,"task-hbx7",NA,31895293,9431652,NA,"complete","zdycad","30MVJZJNHSC3H7JI41PD1F85W1C9JS","computer","Desktop or Laptop","Windows 10","Chrome 116.0.0.0","1366x768","1366x619",NA,NA,0,"Task Introduction and Instructions (Clone)",9,"FGEHDICJBA","Passed AC2","","Spreadsheet1",NA,"","","",NA,"5","END",NA,NA,NA,NA,NA,NA,0,NA,NA,NA,NA,"","",NA,"","",NA,"SUPAMT62860"
"1",1695820330743,"27/09/2023 13:12:10",1695805930743,-4,"27/09/2023 05:12:10",144636,3,"task-hbx7",NA,31895350,9431617,NA,"complete","nbswcc","3NAPMVF0Z2EZXSXHIJL1O2VIZ0127L","computer","Desktop or Laptop","Windows 10","Chrome 116.0.0.0","1024x768","1024x619",NA,NA,0,"Task Introduction and Instructions (Clone)",9,"IJHAGBFCED","Passed AC2","","Spreadsheet1",NA,"","","",NA,"5","BEGIN",NA,NA,NA,NA,NA,NA,0,NA,NA,NA,NA,"","",NA,"","",NA,"SUPAMT73724"
"2",1695820334606,"27/09/2023 13:12:14",1695805934606,-4,"27/09/2023 05:12:14",144636,3,"task-hbx7",NA,31895350,9431617,NA,"complete","nbswcc","3NAPMVF0Z2EZXSXHIJL1O2VIZ0127L","computer","Desktop or Laptop","Windows 10","Chrome 116.0.0.0","1024x768","1024x619",NA,NA,0,"Task Introduction and Instructions (Clone)",9,"IJHAGBFCED","Passed AC2","","Spreadsheet1",1,"Task Instructions","Screen 1","anr7sn",1,"continue","",3625,3593.75,3625,3625,3593.75,3625,1,3625,0,0,NA,"Click To Continue","Continue Button",2,"object-1944","Task Instructions",NA,"SUPAMT73724"
"3",1695820347250,"27/09/2023 13:12:27",1695805947250,-4,"27/09/2023 05:12:27",144636,3,"task-hbx7",NA,31895350,9431617,NA,"complete","nbswcc","3NAPMVF0Z2EZXSXHIJL1O2VIZ0127L","computer","Desktop or Laptop","Windows 10","Chrome 116.0.0.0","1024x768","1024x619",NA,NA,0,"Task Introduction and Instructions (Clone)",9,"IJHAGBFCED","Passed AC2","","Spreadsheet1",1,"Task Instructions","Screen 2","ce2tc8",2,"continue","",12680,12656.25,12680,12680,12656.25,12680,1,12680,0,0,NA,"Click To Continue","Continue Button",2,"object-7","Task Instructions",NA,"SUPAMT73724"
"4",1695820353242,"27/09/2023 13:12:33",1695805953242,-4,"27/09/2023 05:12:33",144636,3,"task-hbx7",NA,31895350,9431617,NA,"complete","nbswcc","3NAPMVF0Z2EZXSXHIJL1O2VIZ0127L","computer","Desktop or Laptop","Windows 10","Chrome 116.0.0.0","1024x768","1024x619",NA,NA,0,"Task Introduction and Instructions (Clone)",9,"IJHAGBFCED","Passed AC2","","Spreadsheet1",1,"Task Instructions","Screen 5","spepx9",3,"continue","",6015.75,6000,6015.75,6015.75,6000,6015.75,1,6015.75,0,0,NA,"Click To Continue","Continue Button",2,"object-9","Task Instructions",NA,"SUPAMT73724"
"5",1695820382263,"27/09/2023 13:13:02",1695805982263,-4,"27/09/2023 05:13:02",144636,3,"task-hbx7",NA,31895350,9431617,NA,"complete","nbswcc","3NAPMVF0Z2EZXSXHIJL1O2VIZ0127L","computer","Desktop or Laptop","Windows 10","Chrome 116.0.0.0","1024x768","1024x619",NA,NA,0,"Task Introduction and Instructions (Clone)",9,"IJHAGBFCED","Passed AC2","","Spreadsheet1",1,"Task Instructions","Screen 9","8nvnao",4,"continue","",29031.25,29000,29031.25,29031.25,29000,29031.25,1,29031.25,0,0,NA,"Click To Continue","Continue Button",2,"object-44","Task Instructions",NA,"SUPAMT73724"
"6",1695820382268,"27/09/2023 13:13:02",1695805982268,-4,"27/09/2023 05:13:02",144636,3,"task-hbx7",NA,31895350,9431617,NA,"complete","nbswcc","3NAPMVF0Z2EZXSXHIJL1O2VIZ0127L","computer","Desktop or Laptop","Windows 10","Chrome 116.0.0.0","1024x768","1024x619",NA,NA,0,"Task Introduction and Instructions (Clone)",9,"IJHAGBFCED","Passed AC2","","Spreadsheet1",NA,"","","",NA,"5","END",NA,NA,NA,NA,NA,NA,0,NA,NA,NA,NA,"","",NA,"","",NA,"SUPAMT73724"
"1",1695820393180,"27/09/2023 13:13:13",1695805993180,-4,"27/09/2023 05:13:13",144636,3,"task-hbx7",NA,31895376,9431691,NA,"complete","fusczk","3QY5DC2MXXJLWXLPJMTJID3RGF2FUJ","computer","Desktop or Laptop","Windows 10","Chrome 116.0.0.0","1280x800","1280x651",NA,NA,0,"Task Introduction and Instructions (Clone)",9,"JAIBHCGDFE","Passed AC2","","Spreadsheet1",NA,"","","",NA,"5","BEGIN",NA,NA,NA,NA,NA,NA,0,NA,NA,NA,NA,"","",NA,"","",NA,"SUPAMT17915"
"2",1695820402829,"27/09/2023 13:13:22",1695806002829,-4,"27/09/2023 05:13:22",144636,3,"task-hbx7",NA,31895376,9431691,NA,"complete","fusczk","3QY5DC2MXXJLWXLPJMTJID3RGF2FUJ","computer","Desktop or Laptop","Windows 10","Chrome 116.0.0.0","1280x800","1280x651",NA,NA,0,"Task Introduction and Instructions (Clone)",9,"JAIBHCGDFE","Passed AC2","","Spreadsheet1",1,"Task Instructions","Screen 1","anr7sn",1,"continue","",9457.94100038147,9445.212,9457.94100038147,9457.94100038147,9445.212,9457.94100038147,1,9457.94100038147,0,0,NA,"Click To Continue","Continue Button",2,"object-1944","Task Instructions",NA,"SUPAMT17915"
"3",1695820408325,"27/09/2023 13:13:28",1695806008325,-4,"27/09/2023 05:13:28",144636,3,"task-hbx7",NA,31895376,9431691,NA,"complete","fusczk","3QY5DC2MXXJLWXLPJMTJID3RGF2FUJ","computer","Desktop or Laptop","Windows 10","Chrome 116.0.0.0","1280x800","1280x651",NA,NA,0,"Task Introduction and Instructions (Clone)",9,"JAIBHCGDFE","Passed AC2","","Spreadsheet1",1,"Task Instructions","Screen 2","ce2tc8",2,"continue","",5509.22900038147,5505.677,5509.22900038147,5509.22900038147,5505.677,5509.22900038147,1,5509.22900038147,0,0,NA,"Click To Continue","Continue Button",2,"object-7","Task Instructions",NA,"SUPAMT17915"
"4",1695820412174,"27/09/2023 13:13:32",1695806012174,-4,"27/09/2023 05:13:32",144636,3,"task-hbx7",NA,31895376,9431691,NA,"complete","fusczk","3QY5DC2MXXJLWXLPJMTJID3RGF2FUJ","computer","Desktop or Laptop","Windows 10","Chrome 116.0.0.0","1280x800","1280x651",NA,NA,0,"Task Introduction and Instructions (Clone)",9,"JAIBHCGDFE","Passed AC2","","Spreadsheet1",1,"Task Instructions","Screen 5","spepx9",3,"continue","",3852.55200038147,3842.49,3852.55200038147,3852.55200038147,3842.49,3852.55200038147,1,3852.55200038147,0,0,NA,"Click To Continue","Continue Button",2,"object-9","Task Instructions",NA,"SUPAMT17915"
"5",1695820422271,"27/09/2023 13:13:42",1695806022271,-4,"27/09/2023 05:13:42",144636,3,"task-hbx7",NA,31895376,9431691,NA,"complete","fusczk","3QY5DC2MXXJLWXLPJMTJID3RGF2FUJ","computer","Desktop or Laptop","Windows 10","Chrome 116.0.0.0","1280x800","1280x651",NA,NA,0,"Task Introduction and Instructions (Clone)",9,"JAIBHCGDFE","Passed AC2","","Spreadsheet1",1,"Task Instructions","Screen 9","8nvnao",4,"continue","",10106.0620003815,10100.859,10106.0620003815,10106.0620003815,10100.859,10106.0620003815,1,10106.0620003815,0,0,NA,"Click To Continue","Continue Button",2,"object-44","Task Instructions",NA,"SUPAMT17915"
"6",1695820422275,"27/09/2023 13:13:42",1695806022275,-4,"27/09/2023 05:13:42",144636,3,"task-hbx7",NA,31895376,9431691,NA,"complete","fusczk","3QY5DC2MXXJLWXLPJMTJID3RGF2FUJ","computer","Desktop or Laptop","Windows 10","Chrome 116.0.0.0","1280x800","1280x651",NA,NA,0,"Task Introduction and Instructions (Clone)",9,"JAIBHCGDFE","Passed AC2","","Spreadsheet1",NA,"","","",NA,"5","END",NA,NA,NA,NA,NA,NA,0,NA,NA,NA,NA,"","",NA,"","",NA,"SUPAMT17915"
"1",1695824057738,"27/09/2023 14:14:17",1695806057738,-5,"27/09/2023 04:14:17",144636,3,"task-hbx7",NA,31895398,9431680,NA,"complete","pwtein","3SNVL38CIAR0QPW3Y6ZG4K9QHBCCK8","computer","Desktop or Laptop","Windows 10","Chrome 116.0.0.0","1920x1080","1920x963",NA,NA,0,"Task Introduction and Instructions (Clone)",9,"IJHAGBFCED","Failed AC2","Passed AC1","Spreadsheet1",NA,"","","",NA,"5","BEGIN",NA,NA,NA,NA,NA,NA,0,NA,NA,NA,NA,"","",NA,"","",NA,"SUPAMT21106"
"2",1695820459374,"27/09/2023 13:14:19",1695806059374,-4,"27/09/2023 05:14:19",144636,3,"task-hbx7",NA,31895398,9431680,NA,"complete","pwtein","3SNVL38CIAR0QPW3Y6ZG4K9QHBCCK8","computer","Desktop or Laptop","Windows 10","Chrome 116.0.0.0","1366x768","1366x651",NA,NA,0,"Task Introduction and Instructions (Clone)",9,"IJHAGBFCED","Failed AC2","Passed AC1","Spreadsheet1",NA,"","","",NA,"5","BEGIN",NA,NA,NA,NA,NA,NA,0,NA,NA,NA,NA,"","",NA,"","",NA,"SUPAMT21106"
"3",1695820462623,"27/09/2023 13:14:22",1695806062623,-4,"27/09/2023 05:14:22",144636,3,"task-hbx7",NA,31895398,9431680,NA,"complete","pwtein","3SNVL38CIAR0QPW3Y6ZG4K9QHBCCK8","computer","Desktop or Laptop","Windows 10","Chrome 116.0.0.0","1366x768","1366x651",NA,NA,0,"Task Introduction and Instructions (Clone)",9,"IJHAGBFCED","Failed AC2","Passed AC1","Spreadsheet1",1,"Task Instructions","Screen 1","anr7sn",1,"continue","",3215.103,3206.298,3215.103,3215.103,3206.298,3215.103,1,3215.103,0,0,NA,"Click To Continue","Continue Button",2,"object-1944","Task Instructions",NA,"SUPAMT21106"
"4",1695824063430,"27/09/2023 14:14:23",1695806063430,-5,"27/09/2023 04:14:23",144636,3,"task-hbx7",NA,31895398,9431680,NA,"complete","pwtein","3SNVL38CIAR0QPW3Y6ZG4K9QHBCCK8","computer","Desktop or Laptop","Windows 10","Chrome 116.0.0.0","1920x1080","1920x963",NA,NA,0,"Task Introduction and Instructions (Clone)",9,"IJHAGBFCED","Failed AC2","Passed AC1","Spreadsheet1",1,"Task Instructions","Screen 1","anr7sn",1,"continue","",7639.581,7625.265,7639.581,7639.581,7625.265,7639.581,1,7639.581,0,0,NA,"Click To Continue","Continue Button",2,"object-1944","Task Instructions",NA,"SUPAMT21106"
"5",1695820465517,"27/09/2023 13:14:25",1695806065517,-4,"27/09/2023 05:14:25",144636,3,"task-hbx7",NA,31895398,9431680,NA,"complete","pwtein","3SNVL38CIAR0QPW3Y6ZG4K9QHBCCK8","computer","Desktop or Laptop","Windows 10","Chrome 116.0.0.0","1366x768","1366x651",NA,NA,0,"Task Introduction and Instructions (Clone)",9,"IJHAGBFCED","Failed AC2","Passed AC1","Spreadsheet1",1,"Task Instructions","Screen 2","ce2tc8",2,"continue","",2903.60500019074,2889.102,2903.60500019074,2903.60500019074,2889.102,2903.60500019074,1,2903.60500019074,0,0,NA,"Click To Continue","Continue Button",2,"object-7","Task Instructions",NA,"SUPAMT21106"
"6",1695824068729,"27/09/2023 14:14:28",1695806068729,-5,"27/09/2023 04:14:28",144636,3,"task-hbx7",NA,31895398,9431680,NA,"complete","pwtein","3SNVL38CIAR0QPW3Y6ZG4K9QHBCCK8","computer","Desktop or Laptop","Windows 10","Chrome 116.0.0.0","1920x1080","1920x963",NA,NA,0,"Task Introduction and Instructions (Clone)",9,"IJHAGBFCED","Failed AC2","Passed AC1","Spreadsheet1",1,"Task Instructions","Screen 2","ce2tc8",2,"continue","",5318.53499995232,5315.993,5318.53499995232,5318.53499995232,5315.993,5318.53499995232,1,5318.53499995232,0,0,NA,"Click To Continue","Continue Button",2,"object-7","Task Instructions",NA,"SUPAMT21106"
"7",1695820468909,"27/09/2023 13:14:28",1695806068909,-4,"27/09/2023 05:14:28",144636,3,"task-hbx7",NA,31895398,9431680,NA,"complete","pwtein","3SNVL38CIAR0QPW3Y6ZG4K9QHBCCK8","computer","Desktop or Laptop","Windows 10","Chrome 116.0.0.0","1366x768","1366x651",NA,NA,0,"Task Introduction and Instructions (Clone)",9,"IJHAGBFCED","Failed AC2","Passed AC1","Spreadsheet1",1,"Task Instructions","Screen 5","spepx9",3,"continue","",3406.90300004768,3392.244,3406.90300004768,3406.90300004768,3392.244,3406.90300004768,1,3406.90300004768,0,0,NA,"Click To Continue","Continue Button",2,"object-9","Task Instructions",NA,"SUPAMT21106"
"8",1695824072156,"27/09/2023 14:14:32",1695806072156,-5,"27/09/2023 04:14:32",144636,3,"task-hbx7",NA,31895398,9431680,NA,"complete","pwtein","3SNVL38CIAR0QPW3Y6ZG4K9QHBCCK8","computer","Desktop or Laptop","Windows 10","Chrome 116.0.0.0","1920x1080","1920x963",NA,NA,0,"Task Introduction and Instructions (Clone)",9,"IJHAGBFCED","Failed AC2","Passed AC1","Spreadsheet1",1,"Task Instructions","Screen 5","spepx9",3,"continue","",3426.54199995232,3422.962,3426.54199995232,3426.54199995232,3422.962,3426.54199995232,1,3426.54199995232,0,0,NA,"Click To Continue","Continue Button",2,"object-9","Task Instructions",NA,"SUPAMT21106"
"9",1695820472189,"27/09/2023 13:14:32",1695806072189,-4,"27/09/2023 05:14:32",144636,3,"task-hbx7",NA,31895398,9431680,NA,"complete","pwtein","3SNVL38CIAR0QPW3Y6ZG4K9QHBCCK8","computer","Desktop or Laptop","Windows 10","Chrome 116.0.0.0","1366x768","1366x651",NA,NA,0,"Task Introduction and Instructions (Clone)",9,"IJHAGBFCED","Failed AC2","Passed AC1","Spreadsheet1",1,"Task Instructions","Screen 9","8nvnao",4,"continue","",3294.55900014305,3287.552,3294.55900014305,3294.55900014305,3287.552,3294.55900014305,1,3294.55900014305,0,0,NA,"Click To Continue","Continue Button",2,"object-44","Task Instructions",NA,"SUPAMT21106"
"10",1695820472194,"27/09/2023 13:14:32",1695806072194,-4,"27/09/2023 05:14:32",144636,3,"task-hbx7",NA,31895398,9431680,NA,"complete","pwtein","3SNVL38CIAR0QPW3Y6ZG4K9QHBCCK8","computer","Desktop or Laptop","Windows 10","Chrome 116.0.0.0","1366x768","1366x651",NA,NA,0,"Task Introduction and Instructions (Clone)",9,"IJHAGBFCED","Failed AC2","Passed AC1","Spreadsheet1",NA,"","","",NA,"5","END",NA,NA,NA,NA,NA,NA,0,NA,NA,NA,NA,"","",NA,"","",NA,"SUPAMT21106"
"11",1695824075221,"27/09/2023 14:14:35",1695806075221,-5,"27/09/2023 04:14:35",144636,3,"task-hbx7",NA,31895398,9431680,NA,"complete","pwtein","3SNVL38CIAR0QPW3Y6ZG4K9QHBCCK8","computer","Desktop or Laptop","Windows 10","Chrome 116.0.0.0","1920x1080","1920x963",NA,NA,0,"Task Introduction and Instructions (Clone)",9,"IJHAGBFCED","Failed AC2","Passed AC1","Spreadsheet1",1,"Task Instructions","Screen 9","8nvnao",4,"continue","",3068.68000009537,3058.367,3068.68000009537,3068.68000009537,3058.367,3068.68000009537,1,3068.68000009537,0,0,NA,"Click To Continue","Continue Button",2,"object-44","Task Instructions",NA,"SUPAMT21106"
"12",1695824075223,"27/09/2023 14:14:35",1695806075223,-5,"27/09/2023 04:14:35",144636,3,"task-hbx7",NA,31895398,9431680,NA,"complete","pwtein","3SNVL38CIAR0QPW3Y6ZG4K9QHBCCK8","computer","Desktop or Laptop","Windows 10","Chrome 116.0.0.0","1920x1080","1920x963",NA,NA,0,"Task Introduction and Instructions (Clone)",9,"IJHAGBFCED","Failed AC2","Passed AC1","Spreadsheet1",NA,"","","",NA,"5","END",NA,NA,NA,NA,NA,NA,0,NA,NA,NA,NA,"","",NA,"","",NA,"SUPAMT21106"
"1",1695820525432,"27/09/2023 13:15:25",1695806125432,-4,"27/09/2023 05:15:25",144636,3,"task-hbx7",NA,31895436,9431674,NA,"complete","zgzpql","3O6CYIULEJ0N7J7K9B3JM1PRBIVWU1","computer","Desktop or Laptop","Windows 8.1","Chrome 109.0.0.0","1366x768","1366x625",NA,NA,0,"Task Introduction and Instructions (Clone)",9,"HIGJFAEBDC","Passed AC2","","Spreadsheet1",NA,"","","",NA,"5","BEGIN",NA,NA,NA,NA,NA,NA,0,NA,NA,NA,NA,"","",NA,"","",NA,"SUPAMT80130"
"2",1695820530690,"27/09/2023 13:15:30",1695806130690,-4,"27/09/2023 05:15:30",144636,3,"task-hbx7",NA,31895436,9431674,NA,"complete","zgzpql","3O6CYIULEJ0N7J7K9B3JM1PRBIVWU1","computer","Desktop or Laptop","Windows 8.1","Chrome 109.0.0.0","1366x768","1366x625",NA,NA,0,"Task Introduction and Instructions (Clone)",9,"HIGJFAEBDC","Passed AC2","","Spreadsheet1",1,"Task Instructions","Screen 1","anr7sn",1,"continue","",5031.25,5000,5031.25,5031.25,5000,5031.25,1,5031.25,0,0,NA,"Click To Continue","Continue Button",2,"object-1944","Task Instructions",NA,"SUPAMT80130"
"3",1695820540011,"27/09/2023 13:15:40",1695806140011,-4,"27/09/2023 05:15:40",144636,3,"task-hbx7",NA,31895436,9431674,NA,"complete","zgzpql","3O6CYIULEJ0N7J7K9B3JM1PRBIVWU1","computer","Desktop or Laptop","Windows 8.1","Chrome 109.0.0.0","1366x768","1366x625",NA,NA,0,"Task Introduction and Instructions (Clone)",9,"HIGJFAEBDC","Passed AC2","","Spreadsheet1",1,"Task Instructions","Screen 2","ce2tc8",2,"continue","",9343.75,9312.5,9343.75,9343.75,9312.5,9343.75,1,9343.75,0,0,NA,"Click To Continue","Continue Button",2,"object-7","Task Instructions",NA,"SUPAMT80130"
"4",1695820543421,"27/09/2023 13:15:43",1695806143421,-4,"27/09/2023 05:15:43",144636,3,"task-hbx7",NA,31895436,9431674,NA,"complete","zgzpql","3O6CYIULEJ0N7J7K9B3JM1PRBIVWU1","computer","Desktop or Laptop","Windows 8.1","Chrome 109.0.0.0","1366x768","1366x625",NA,NA,0,"Task Introduction and Instructions (Clone)",9,"HIGJFAEBDC","Passed AC2","","Spreadsheet1",1,"Task Instructions","Screen 5","spepx9",3,"continue","",3451.25,3437.5,3451.25,3451.25,3437.5,3451.25,1,3451.25,0,0,NA,"Click To Continue","Continue Button",2,"object-9","Task Instructions",NA,"SUPAMT80130"
"5",1695820546733,"27/09/2023 13:15:46",1695806146733,-4,"27/09/2023 05:15:46",144636,3,"task-hbx7",NA,31895436,9431674,NA,"complete","zgzpql","3O6CYIULEJ0N7J7K9B3JM1PRBIVWU1","computer","Desktop or Laptop","Windows 8.1","Chrome 109.0.0.0","1366x768","1366x625",NA,NA,0,"Task Introduction and Instructions (Clone)",9,"HIGJFAEBDC","Passed AC2","","Spreadsheet1",1,"Task Instructions","Screen 9","8nvnao",4,"continue","",3312.5,3281.25,3312.5,3312.5,3281.25,3312.5,1,3312.5,0,0,NA,"Click To Continue","Continue Button",2,"object-44","Task Instructions",NA,"SUPAMT80130"
"6",1695820546738,"27/09/2023 13:15:46",1695806146738,-4,"27/09/2023 05:15:46",144636,3,"task-hbx7",NA,31895436,9431674,NA,"complete","zgzpql","3O6CYIULEJ0N7J7K9B3JM1PRBIVWU1","computer","Desktop or Laptop","Windows 8.1","Chrome 109.0.0.0","1366x768","1366x625",NA,NA,0,"Task Introduction and Instructions (Clone)",9,"HIGJFAEBDC","Passed AC2","","Spreadsheet1",NA,"","","",NA,"5","END",NA,NA,NA,NA,NA,NA,0,NA,NA,NA,NA,"","",NA,"","",NA,"SUPAMT80130"
"1",1695840719065,"27/09/2023 18:51:59",1695826319065,-4,"27/09/2023 10:51:59",144636,3,"task-hbx7",NA,31895484,9431624,NA,"complete","gytvmm","3R0T90IZ1YBVO30K8FE16SHXAUXCG7","computer","Desktop or Laptop","Windows 10","Chrome 116.0.0.0","1600x900","1405x766",NA,NA,0,"Task Introduction and Instructions (Clone)",9,"HIGJFAEBDC","Passed AC2","","Spreadsheet1",NA,"","","",NA,"5","BEGIN",NA,NA,NA,NA,NA,NA,0,NA,NA,NA,NA,"","",NA,"","",NA,"SUPAMT33233"
"2",1695840724805,"27/09/2023 18:52:04",1695826324805,-4,"27/09/2023 10:52:04",144636,3,"task-hbx7",NA,31895484,9431624,NA,"complete","gytvmm","3R0T90IZ1YBVO30K8FE16SHXAUXCG7","computer","Desktop or Laptop","Windows 10","Chrome 116.0.0.0","1600x900","1405x766",NA,NA,0,"Task Introduction and Instructions (Clone)",9,"HIGJFAEBDC","Passed AC2","","Spreadsheet1",1,"Task Instructions","Screen 1","anr7sn",1,"continue","",5697.41399996424,5689.885,5697.41399996424,5697.41399996424,5689.885,5697.41399996424,1,5697.41399996424,0,0,NA,"Click To Continue","Continue Button",2,"object-1944","Task Instructions",NA,"SUPAMT33233"
"3",1695840755732,"27/09/2023 18:52:35",1695826355732,-4,"27/09/2023 10:52:35",144636,3,"task-hbx7",NA,31895484,9431624,NA,"complete","gytvmm","3R0T90IZ1YBVO30K8FE16SHXAUXCG7","computer","Desktop or Laptop","Windows 10","Chrome 116.0.0.0","1600x900","1405x766",NA,NA,0,"Task Introduction and Instructions (Clone)",9,"HIGJFAEBDC","Passed AC2","","Spreadsheet1",1,"Task Instructions","Screen 2","ce2tc8",2,"continue","",30934.429,30920.418,30934.429,30934.429,30920.418,30934.429,1,30934.429,0,0,NA,"Click To Continue","Continue Button",2,"object-7","Task Instructions",NA,"SUPAMT33233"
"4",1695840760596,"27/09/2023 18:52:40",1695826360596,-4,"27/09/2023 10:52:40",144636,3,"task-hbx7",NA,31895484,9431624,NA,"complete","gytvmm","3R0T90IZ1YBVO30K8FE16SHXAUXCG7","computer","Desktop or Laptop","Windows 10","Chrome 116.0.0.0","1600x900","1405x766",NA,NA,0,"Task Introduction and Instructions (Clone)",9,"HIGJFAEBDC","Passed AC2","","Spreadsheet1",1,"Task Instructions","Screen 5","spepx9",3,"continue","",4878.11099996424,4867.037,4878.11099996424,4878.11099996424,4867.037,4878.11099996424,1,4878.11099996424,0,0,NA,"Click To Continue","Continue Button",2,"object-9","Task Instructions",NA,"SUPAMT33233"
"5",1695840765883,"27/09/2023 18:52:45",1695826365883,-4,"27/09/2023 10:52:45",144636,3,"task-hbx7",NA,31895484,9431624,NA,"complete","gytvmm","3R0T90IZ1YBVO30K8FE16SHXAUXCG7","computer","Desktop or Laptop","Windows 10","Chrome 116.0.0.0","1600x900","1405x766",NA,NA,0,"Task Introduction and Instructions (Clone)",9,"HIGJFAEBDC","Passed AC2","","Spreadsheet1",1,"Task Instructions","Screen 9","8nvnao",4,"continue","",5298.27399995232,5289.231,5298.27399995232,5298.27399995232,5289.231,5298.27399995232,1,5298.27399995232,0,0,NA,"Click To Continue","Continue Button",2,"object-44","Task Instructions",NA,"SUPAMT33233"
"6",1695840765891,"27/09/2023 18:52:45",1695826365891,-4,"27/09/2023 10:52:45",144636,3,"task-hbx7",NA,31895484,9431624,NA,"complete","gytvmm","3R0T90IZ1YBVO30K8FE16SHXAUXCG7","computer","Desktop or Laptop","Windows 10","Chrome 116.0.0.0","1600x900","1405x766",NA,NA,0,"Task Introduction and Instructions (Clone)",9,"HIGJFAEBDC","Passed AC2","","Spreadsheet1",NA,"","","",NA,"5","END",NA,NA,NA,NA,NA,NA,0,NA,NA,NA,NA,"","",NA,"","",NA,"SUPAMT33233"
"1",1695820930818,"27/09/2023 13:22:10",1695806530818,-4,"27/09/2023 05:22:10",144636,3,"task-hbx7",NA,31895786,9431600,NA,"complete","slufzm","3EJPLAJKESF6Z3MOOGPN5Z5TPYG6ZY","computer","Desktop or Laptop","Windows 10","Chrome 116.0.0.0","1536x864","1536x715",NA,NA,0,"Task Introduction and Instructions (Clone)",9,"EFDGCHBIAJ","Passed AC2","","Spreadsheet1",NA,"","","",NA,"5","BEGIN",NA,NA,NA,NA,NA,NA,0,NA,NA,NA,NA,"","",NA,"","",NA,"SUPAMT09500"
"2",1695820937197,"27/09/2023 13:22:17",1695806537197,-4,"27/09/2023 05:22:17",144636,3,"task-hbx7",NA,31895786,9431600,NA,"complete","slufzm","3EJPLAJKESF6Z3MOOGPN5Z5TPYG6ZY","computer","Desktop or Laptop","Windows 10","Chrome 116.0.0.0","1536x864","1536x715",NA,NA,0,"Task Introduction and Instructions (Clone)",9,"EFDGCHBIAJ","Passed AC2","","Spreadsheet1",1,"Task Instructions","Screen 1","anr7sn",1,"continue","",6149.5,6125,6149.5,6149.5,6125,6149.5,1,6149.5,0,0,NA,"Click To Continue","Continue Button",2,"object-1944","Task Instructions",NA,"SUPAMT09500"
"3",1695820940694,"27/09/2023 13:22:20",1695806540694,-4,"27/09/2023 05:22:20",144636,3,"task-hbx7",NA,31895786,9431600,NA,"complete","slufzm","3EJPLAJKESF6Z3MOOGPN5Z5TPYG6ZY","computer","Desktop or Laptop","Windows 10","Chrome 116.0.0.0","1536x864","1536x715",NA,NA,0,"Task Introduction and Instructions (Clone)",9,"EFDGCHBIAJ","Passed AC2","","Spreadsheet1",1,"Task Instructions","Screen 2","ce2tc8",2,"continue","",3523.5,3500,3523.5,3523.5,3500,3523.5,1,3523.5,0,0,NA,"Click To Continue","Continue Button",2,"object-7","Task Instructions",NA,"SUPAMT09500"
"4",1695820943775,"27/09/2023 13:22:23",1695806543775,-4,"27/09/2023 05:22:23",144636,3,"task-hbx7",NA,31895786,9431600,NA,"complete","slufzm","3EJPLAJKESF6Z3MOOGPN5Z5TPYG6ZY","computer","Desktop or Laptop","Windows 10","Chrome 116.0.0.0","1536x864","1536x715",NA,NA,0,"Task Introduction and Instructions (Clone)",9,"EFDGCHBIAJ","Passed AC2","","Spreadsheet1",1,"Task Instructions","Screen 5","spepx9",3,"continue","",3093.75,3062.5,3093.75,3093.75,3062.5,3093.75,1,3093.75,0,0,NA,"Click To Continue","Continue Button",2,"object-9","Task Instructions",NA,"SUPAMT09500"
"5",1695820955407,"27/09/2023 13:22:35",1695806555407,-4,"27/09/2023 05:22:35",144636,3,"task-hbx7",NA,31895786,9431600,NA,"complete","slufzm","3EJPLAJKESF6Z3MOOGPN5Z5TPYG6ZY","computer","Desktop or Laptop","Windows 10","Chrome 116.0.0.0","1536x864","1536x715",NA,NA,0,"Task Introduction and Instructions (Clone)",9,"EFDGCHBIAJ","Passed AC2","","Spreadsheet1",1,"Task Instructions","Screen 9","8nvnao",4,"continue","",11674,11656.25,11674,11674,11656.25,11674,1,11674,0,0,NA,"Click To Continue","Continue Button",2,"object-44","Task Instructions",NA,"SUPAMT09500"
"6",1695820955418,"27/09/2023 13:22:35",1695806555418,-4,"27/09/2023 05:22:35",144636,3,"task-hbx7",NA,31895786,9431600,NA,"complete","slufzm","3EJPLAJKESF6Z3MOOGPN5Z5TPYG6ZY","computer","Desktop or Laptop","Windows 10","Chrome 116.0.0.0","1536x864","1536x715",NA,NA,0,"Task Introduction and Instructions (Clone)",9,"EFDGCHBIAJ","Passed AC2","","Spreadsheet1",NA,"","","",NA,"5","END",NA,NA,NA,NA,NA,NA,0,NA,NA,NA,NA,"","",NA,"","",NA,"SUPAMT09500"
"1",1695821379223,"27/09/2023 13:29:39",1695806979223,-4,"27/09/2023 05:29:39",144636,3,"task-hbx7",NA,31896013,9431669,NA,"complete","cbtqng","3ERMJ6L4D4RP4W1AS14L3B9G55K7MJ","computer","Desktop or Laptop","Windows 10","Chrome 116.0.0.0","1024x768","1024x768",NA,NA,0,"Task Introduction and Instructions (Clone)",9,"GHFIEJDACB","Passed AC2","","Spreadsheet1",NA,"","","",NA,"5","BEGIN",NA,NA,NA,NA,NA,NA,0,NA,NA,NA,NA,"","",NA,"","",NA,"SUPAMT56785"
"2",1695821386745,"27/09/2023 13:29:46",1695806986745,-4,"27/09/2023 05:29:46",144636,3,"task-hbx7",NA,31896013,9431669,NA,"complete","cbtqng","3ERMJ6L4D4RP4W1AS14L3B9G55K7MJ","computer","Desktop or Laptop","Windows 10","Chrome 116.0.0.0","1024x768","1024x768",NA,NA,0,"Task Introduction and Instructions (Clone)",9,"GHFIEJDACB","Passed AC2","","Spreadsheet1",1,"Task Instructions","Screen 1","anr7sn",1,"continue","",6813.952,6799.728,6813.952,6813.952,6799.728,6813.952,1,6813.952,0,0,NA,"Click To Continue","Continue Button",2,"object-1944","Task Instructions",NA,"SUPAMT56785"
"3",1695821403108,"27/09/2023 13:30:03",1695807003108,-4,"27/09/2023 05:30:03",144636,3,"task-hbx7",NA,31896013,9431669,NA,"complete","cbtqng","3ERMJ6L4D4RP4W1AS14L3B9G55K7MJ","computer","Desktop or Laptop","Windows 10","Chrome 116.0.0.0","1024x768","1024x768",NA,NA,0,"Task Introduction and Instructions (Clone)",9,"GHFIEJDACB","Passed AC2","","Spreadsheet1",1,"Task Instructions","Screen 2","ce2tc8",2,"continue","",16377.224,16366.012,16377.224,16377.224,16366.012,16377.224,1,16377.224,0,0,NA,"Click To Continue","Continue Button",2,"object-7","Task Instructions",NA,"SUPAMT56785"
"4",1695821497938,"27/09/2023 13:31:37",1695807097938,-4,"27/09/2023 05:31:37",144636,3,"task-hbx7",NA,31896013,9431669,NA,"complete","cbtqng","3ERMJ6L4D4RP4W1AS14L3B9G55K7MJ","computer","Desktop or Laptop","Windows 10","Chrome 116.0.0.0","1024x768","1024x768",NA,NA,0,"Task Introduction and Instructions (Clone)",9,"GHFIEJDACB","Passed AC2","","Spreadsheet1",1,"Task Instructions","Screen 5","spepx9",3,"continue","",94843.212,94829.54,94843.212,94843.212,94829.54,94843.212,1,94843.212,0,0,NA,"Click To Continue","Continue Button",2,"object-9","Task Instructions",NA,"SUPAMT56785"
"5",1695821658929,"27/09/2023 13:34:18",1695807258929,-4,"27/09/2023 05:34:18",144636,3,"task-hbx7",NA,31896013,9431669,NA,"complete","cbtqng","3ERMJ6L4D4RP4W1AS14L3B9G55K7MJ","computer","Desktop or Laptop","Windows 10","Chrome 116.0.0.0","1024x768","1024x768",NA,NA,0,"Task Introduction and Instructions (Clone)",9,"GHFIEJDACB","Passed AC2","","Spreadsheet1",1,"Task Instructions","Screen 9","8nvnao",4,"continue","",161002.672,160993.56,161002.672,161002.672,160993.56,161002.672,1,161002.672,0,0,NA,"Click To Continue","Continue Button",2,"object-44","Task Instructions",NA,"SUPAMT56785"
"6",1695821658932,"27/09/2023 13:34:18",1695807258932,-4,"27/09/2023 05:34:18",144636,3,"task-hbx7",NA,31896013,9431669,NA,"complete","cbtqng","3ERMJ6L4D4RP4W1AS14L3B9G55K7MJ","computer","Desktop or Laptop","Windows 10","Chrome 116.0.0.0","1024x768","1024x768",NA,NA,0,"Task Introduction and Instructions (Clone)",9,"GHFIEJDACB","Passed AC2","","Spreadsheet1",NA,"","","",NA,"5","END",NA,NA,NA,NA,NA,NA,0,NA,NA,NA,NA,"","",NA,"","",NA,"SUPAMT56785"
"1",1695781918219,"27/09/2023 02:31:58",1695767518219,-4,"26/09/2023 18:31:58",144636,3,"task-hbx7",NA,31896177,9431597,NA,"complete","plrbli","3VSOLARPKH8SWTHT1GXQL8RG04O398","computer","Desktop or Laptop","Windows 10","Chrome 116.0.0.0","1920x1080","1920x963",NA,NA,0,"Task Introduction and Instructions (Clone)",9,"JAIBHCGDFE","Passed AC2","","Spreadsheet1",NA,"","","",NA,"5","BEGIN",NA,NA,NA,NA,NA,NA,0,NA,NA,NA,NA,"","",NA,"","",NA,"SUPAMT94776"
"2",1695781926955,"27/09/2023 02:32:06",1695767526955,-4,"26/09/2023 18:32:06",144636,3,"task-hbx7",NA,31896177,9431597,NA,"complete","plrbli","3VSOLARPKH8SWTHT1GXQL8RG04O398","computer","Desktop or Laptop","Windows 10","Chrome 116.0.0.0","1920x1080","1920x963",NA,NA,0,"Task Introduction and Instructions (Clone)",9,"JAIBHCGDFE","Passed AC2","","Spreadsheet1",1,"Task Instructions","Screen 1","anr7sn",1,"continue","",8607.20499998808,8595.928,8607.20499998808,8607.20499998808,8595.928,8607.20499998808,1,8607.20499998808,0,0,NA,"Click To Continue","Continue Button",2,"object-1944","Task Instructions",NA,"SUPAMT94776"
