"Event.Index","UTC.Timestamp","UTC.Date.and.Time","Local.Timestamp","Local.Timezone","Local.Date.and.Time","Experiment.ID","Experiment.Version","Tree.Node.Key","Repeat.Key","Schedule.ID","Participant.Private.ID","Participant.Starting.Group","Participant.Status","Participant.Completion.Code","Participant.External.Session.ID","Participant.Device.Type","Participant.Device","Participant.OS","Participant.Browser","Participant.Monitor.Size","Participant.Viewport.Size","Checkpoint","Room.ID","Room.Order","Task.Name","Task.Version","order.ot79","branch.g31k","branch.5gtn","Spreadsheet","Trial.Number","Display","Screen","Screen.ID","Screen.Counter","Response.Type","Response","Onset.Time","Clock.Time","Reaction.Time","Absolute.Onset.Time","Absolute.Clock.Time","Absolute.Reaction.Time","Correct","Response.Onset","Response.Duration","Proportion","Tag","Component.Name","Object.Name","Object.Number","Object.ID","Spreadsheet..display","Manipulation..Spreadsheet","Random_ID"
"1",1695817937405,"27/09/2023 12:32:17",1695803537405,-4,"27/09/2023 04:32:17",144636,3,"task-gjqt",NA,31894347,9431509,NA,"complete","osbhtc","3RYC5T2D79S57II2TVUJPWUBBMLRPU","computer","Desktop or Laptop","Windows 10","Chrome 116.0.0.0","1536x864","1536x747",NA,NA,0,"BIQ (Charlotte)",3,"ABJCIDHEGF","Passed AC2","","Spreadsheet1",NA,"","","",NA,"5","BEGIN",NA,NA,NA,NA,NA,NA,0,NA,NA,NA,NA,"","",NA,"","",NA,"SUPAMT38416"
"2",1695817941635,"27/09/2023 12:32:21",1695803541635,-4,"27/09/2023 04:32:21",144636,3,"task-gjqt",NA,31894347,9431509,NA,"complete","osbhtc","3RYC5T2D79S57II2TVUJPWUBBMLRPU","computer","Desktop or Laptop","Windows 10","Chrome 116.0.0.0","1536x864","1536x747",NA,NA,0,"BIQ (Charlotte)",3,"ABJCIDHEGF","Passed AC2","","Spreadsheet1",1,"BIQ","Screen 1","9dh6eq",1,"continue","",4242.90099995232,4238.337,4242.90099995232,4242.90099995232,4238.337,4242.90099995232,1,4242.90099995232,0,0,NA,"Click To Continue","Continue Button",23,"object-48","BIQ",NA,"SUPAMT38416"
"3",1695817941636,"27/09/2023 12:32:21",1695803541636,-4,"27/09/2023 04:32:21",144636,3,"task-gjqt",NA,31894347,9431509,NA,"complete","osbhtc","3RYC5T2D79S57II2TVUJPWUBBMLRPU","computer","Desktop or Laptop","Windows 10","Chrome 116.0.0.0","1536x864","1536x747",NA,NA,0,"BIQ (Charlotte)",3,"ABJCIDHEGF","Passed AC2","","Spreadsheet1",1,"BIQ","Screen 1","9dh6eq",1,"response","5",1570.582,4238.337,4244.50100009537,1570.582,4238.337,4244.50100009537,1,1570.582,2673.91900009537,0,NA,"Rating Scale","Rating Scale",3,"object-5","BIQ",NA,"SUPAMT38416"
"4",1695817941636,"27/09/2023 12:32:21",1695803541636,-4,"27/09/2023 04:32:21",144636,3,"task-gjqt",NA,31894347,9431509,NA,"complete","osbhtc","3RYC5T2D79S57II2TVUJPWUBBMLRPU","computer","Desktop or Laptop","Windows 10","Chrome 116.0.0.0","1536x864","1536x747",NA,NA,0,"BIQ (Charlotte)",3,"ABJCIDHEGF","Passed AC2","","Spreadsheet1",1,"BIQ","Screen 1","9dh6eq",1,"response","4",2111.744,4238.337,4244.80100004768,2111.744,4238.337,4244.80100004768,1,2111.744,2133.05700004768,0,NA,"Rating Scale","Rating Scale",10,"object-18","BIQ",NA,"SUPAMT38416"
"5",1695817941636,"27/09/2023 12:32:21",1695803541636,-4,"27/09/2023 04:32:21",144636,3,"task-gjqt",NA,31894347,9431509,NA,"complete","osbhtc","3RYC5T2D79S57II2TVUJPWUBBMLRPU","computer","Desktop or Laptop","Windows 10","Chrome 116.0.0.0","1536x864","1536x747",NA,NA,0,"BIQ (Charlotte)",3,"ABJCIDHEGF","Passed AC2","","Spreadsheet1",1,"BIQ","Screen 1","9dh6eq",1,"response","5",2629.2,4238.337,4245.101,2629.2,4238.337,4245.101,1,2629.2,1615.901,0,NA,"Rating Scale","Rating Scale",17,"object-80","BIQ",NA,"SUPAMT38416"
"6",1695817945729,"27/09/2023 12:32:25",1695803545729,-4,"27/09/2023 04:32:25",144636,3,"task-gjqt",NA,31894347,9431509,NA,"complete","osbhtc","3RYC5T2D79S57II2TVUJPWUBBMLRPU","computer","Desktop or Laptop","Windows 10","Chrome 116.0.0.0","1536x864","1536x747",NA,NA,0,"BIQ (Charlotte)",3,"ABJCIDHEGF","Passed AC2","","Spreadsheet1",1,"BIQ","Screen 2","o21mwi",2,"continue","",4097.981,4081.315,4097.981,4097.981,4081.315,4097.981,1,4097.981,0,0,NA,"Click To Continue","Continue Button",22,"object-50","BIQ",NA,"SUPAMT38416"
"7",1695817945730,"27/09/2023 12:32:25",1695803545730,-4,"27/09/2023 04:32:25",144636,3,"task-gjqt",NA,31894347,9431509,NA,"complete","osbhtc","3RYC5T2D79S57II2TVUJPWUBBMLRPU","computer","Desktop or Laptop","Windows 10","Chrome 116.0.0.0","1536x864","1536x747",NA,NA,0,"BIQ (Charlotte)",3,"ABJCIDHEGF","Passed AC2","","Spreadsheet1",1,"BIQ","Screen 2","o21mwi",2,"response","5",1341.944,4081.315,4097.981,1341.944,4081.315,4097.981,1,1341.944,2756.037,0,NA,"Rating Scale","Rating Scale",2,"object-259","BIQ",NA,"SUPAMT38416"
"8",1695817945730,"27/09/2023 12:32:25",1695803545730,-4,"27/09/2023 04:32:25",144636,3,"task-gjqt",NA,31894347,9431509,NA,"complete","osbhtc","3RYC5T2D79S57II2TVUJPWUBBMLRPU","computer","Desktop or Laptop","Windows 10","Chrome 116.0.0.0","1536x864","1536x747",NA,NA,0,"BIQ (Charlotte)",3,"ABJCIDHEGF","Passed AC2","","Spreadsheet1",1,"BIQ","Screen 2","o21mwi",2,"response","4",3113.331,4081.315,4097.981,3113.331,4081.315,4097.981,1,3113.331,984.65,0,NA,"Rating Scale","Rating Scale",9,"object-36","BIQ",NA,"SUPAMT38416"
"9",1695817945731,"27/09/2023 12:32:25",1695803545731,-4,"27/09/2023 04:32:25",144636,3,"task-gjqt",NA,31894347,9431509,NA,"complete","osbhtc","3RYC5T2D79S57II2TVUJPWUBBMLRPU","computer","Desktop or Laptop","Windows 10","Chrome 116.0.0.0","1536x864","1536x747",NA,NA,0,"BIQ (Charlotte)",3,"ABJCIDHEGF","Passed AC2","","Spreadsheet1",1,"BIQ","Screen 2","o21mwi",2,"response","5",3711.24,4081.315,4097.981,3711.24,4081.315,4097.981,1,3711.24,386.740999999998,0,NA,"Rating Scale","Rating Scale",16,"object-86","BIQ",NA,"SUPAMT38416"
"10",1695817948554,"27/09/2023 12:32:28",1695803548554,-4,"27/09/2023 04:32:28",144636,3,"task-gjqt",NA,31894347,9431509,NA,"complete","osbhtc","3RYC5T2D79S57II2TVUJPWUBBMLRPU","computer","Desktop or Laptop","Windows 10","Chrome 116.0.0.0","1536x864","1536x747",NA,NA,0,"BIQ (Charlotte)",3,"ABJCIDHEGF","Passed AC2","","Spreadsheet1",1,"BIQ","Screen 3","iz3the",3,"continue","",2842.54900014305,2829.194,2842.54900014305,2842.54900014305,2829.194,2842.54900014305,1,2842.54900014305,0,0,NA,"Click To Continue","Continue Button",22,"object-73","BIQ",NA,"SUPAMT38416"
"11",1695817948557,"27/09/2023 12:32:28",1695803548557,-4,"27/09/2023 04:32:28",144636,3,"task-gjqt",NA,31894347,9431509,NA,"complete","osbhtc","3RYC5T2D79S57II2TVUJPWUBBMLRPU","computer","Desktop or Laptop","Windows 10","Chrome 116.0.0.0","1536x864","1536x747",NA,NA,0,"BIQ (Charlotte)",3,"ABJCIDHEGF","Passed AC2","","Spreadsheet1",1,"BIQ","Screen 3","iz3the",3,"response","5",1363.567,2829.194,2845.86,1363.567,2829.194,2845.86,1,1363.567,1482.293,0,NA,"Rating Scale","Rating Scale",2,"object-53","BIQ",NA,"SUPAMT38416"
"12",1695817948558,"27/09/2023 12:32:28",1695803548558,-4,"27/09/2023 04:32:28",144636,3,"task-gjqt",NA,31894347,9431509,NA,"complete","osbhtc","3RYC5T2D79S57II2TVUJPWUBBMLRPU","computer","Desktop or Laptop","Windows 10","Chrome 116.0.0.0","1536x864","1536x747",NA,NA,0,"BIQ (Charlotte)",3,"ABJCIDHEGF","Passed AC2","","Spreadsheet1",1,"BIQ","Screen 3","iz3the",3,"response","4",1749.774,2829.194,2845.86,1749.774,2829.194,2845.86,1,1749.774,1096.086,0,NA,"Rating Scale","Rating Scale",9,"object-60","BIQ",NA,"SUPAMT38416"
"13",1695817948558,"27/09/2023 12:32:28",1695803548558,-4,"27/09/2023 04:32:28",144636,3,"task-gjqt",NA,31894347,9431509,NA,"complete","osbhtc","3RYC5T2D79S57II2TVUJPWUBBMLRPU","computer","Desktop or Laptop","Windows 10","Chrome 116.0.0.0","1536x864","1536x747",NA,NA,0,"BIQ (Charlotte)",3,"ABJCIDHEGF","Passed AC2","","Spreadsheet1",1,"BIQ","Screen 3","iz3the",3,"response","5",2133.36,2829.194,2845.86,2133.36,2829.194,2845.86,1,2133.36,712.500000000002,0,NA,"Rating Scale","Rating Scale",16,"object-67","BIQ",NA,"SUPAMT38416"
"14",1695817948560,"27/09/2023 12:32:28",1695803548560,-4,"27/09/2023 04:32:28",144636,3,"task-gjqt",NA,31894347,9431509,NA,"complete","osbhtc","3RYC5T2D79S57II2TVUJPWUBBMLRPU","computer","Desktop or Laptop","Windows 10","Chrome 116.0.0.0","1536x864","1536x747",NA,NA,0,"BIQ (Charlotte)",3,"ABJCIDHEGF","Passed AC2","","Spreadsheet1",NA,"","","",NA,"5","END",NA,NA,NA,NA,NA,NA,0,NA,NA,NA,NA,"","",NA,"","",NA,"SUPAMT38416"
"1",1695821615390,"27/09/2023 13:33:35",1695803615390,-5,"27/09/2023 03:33:35",144636,3,"task-gjqt",NA,31894387,9431510,NA,"complete","vcnpts","3FIJLY1B60384SDT20UP87GS8YAFPN","computer","Desktop or Laptop","Windows 10","Chrome 117.0.0.0","1536x960","1536x835",NA,NA,0,"BIQ (Charlotte)",3,"BCADJEIFHG","Passed AC2","","Spreadsheet1",NA,"","","",NA,"5","BEGIN",NA,NA,NA,NA,NA,NA,0,NA,NA,NA,NA,"","",NA,"","",NA,"SUPAMT74201"
"2",1695821641727,"27/09/2023 13:34:01",1695803641727,-5,"27/09/2023 03:34:01",144636,3,"task-gjqt",NA,31894387,9431510,NA,"complete","vcnpts","3FIJLY1B60384SDT20UP87GS8YAFPN","computer","Desktop or Laptop","Windows 10","Chrome 117.0.0.0","1536x960","1536x835",NA,NA,0,"BIQ (Charlotte)",3,"BCADJEIFHG","Passed AC2","","Spreadsheet1",1,"BIQ","Screen 1","9dh6eq",1,"continue","",26338.157,26332.097,26338.157,26338.157,26332.097,26338.157,1,26338.157,0,0,NA,"Click To Continue","Continue Button",23,"object-48","BIQ",NA,"SUPAMT74201"
"3",1695821641729,"27/09/2023 13:34:01",1695803641729,-5,"27/09/2023 03:34:01",144636,3,"task-gjqt",NA,31894387,9431510,NA,"complete","vcnpts","3FIJLY1B60384SDT20UP87GS8YAFPN","computer","Desktop or Laptop","Windows 10","Chrome 117.0.0.0","1536x960","1536x835",NA,NA,0,"BIQ (Charlotte)",3,"BCADJEIFHG","Passed AC2","","Spreadsheet1",1,"BIQ","Screen 1","9dh6eq",1,"response","7",9806.283,26332.097,26338.157,9806.283,26332.097,26338.157,1,9806.283,16531.874,0,NA,"Rating Scale","Rating Scale",3,"object-5","BIQ",NA,"SUPAMT74201"
"4",1695821641729,"27/09/2023 13:34:01",1695803641729,-5,"27/09/2023 03:34:01",144636,3,"task-gjqt",NA,31894387,9431510,NA,"complete","vcnpts","3FIJLY1B60384SDT20UP87GS8YAFPN","computer","Desktop or Laptop","Windows 10","Chrome 117.0.0.0","1536x960","1536x835",NA,NA,0,"BIQ (Charlotte)",3,"BCADJEIFHG","Passed AC2","","Spreadsheet1",1,"BIQ","Screen 1","9dh6eq",1,"response","7",13448.385,26332.097,26338.157,13448.385,26332.097,26338.157,1,13448.385,12889.772,0,NA,"Rating Scale","Rating Scale",10,"object-18","BIQ",NA,"SUPAMT74201"
"5",1695821641729,"27/09/2023 13:34:01",1695803641729,-5,"27/09/2023 03:34:01",144636,3,"task-gjqt",NA,31894387,9431510,NA,"complete","vcnpts","3FIJLY1B60384SDT20UP87GS8YAFPN","computer","Desktop or Laptop","Windows 10","Chrome 117.0.0.0","1536x960","1536x835",NA,NA,0,"BIQ (Charlotte)",3,"BCADJEIFHG","Passed AC2","","Spreadsheet1",1,"BIQ","Screen 1","9dh6eq",1,"response","1",22253.781,26332.097,26338.157,22253.781,26332.097,26338.157,1,22253.781,4084.376,0,NA,"Rating Scale","Rating Scale",17,"object-80","BIQ",NA,"SUPAMT74201"
"6",1695821655847,"27/09/2023 13:34:15",1695803655847,-5,"27/09/2023 03:34:15",144636,3,"task-gjqt",NA,31894387,9431510,NA,"complete","vcnpts","3FIJLY1B60384SDT20UP87GS8YAFPN","computer","Desktop or Laptop","Windows 10","Chrome 117.0.0.0","1536x960","1536x835",NA,NA,0,"BIQ (Charlotte)",3,"BCADJEIFHG","Passed AC2","","Spreadsheet1",1,"BIQ","Screen 2","o21mwi",2,"continue","",14129.5130000179,14126.072,14129.5130000179,14129.5130000179,14126.072,14129.5130000179,1,14129.5130000179,0,0,NA,"Click To Continue","Continue Button",22,"object-50","BIQ",NA,"SUPAMT74201"
"7",1695821655849,"27/09/2023 13:34:15",1695803655849,-5,"27/09/2023 03:34:15",144636,3,"task-gjqt",NA,31894387,9431510,NA,"complete","vcnpts","3FIJLY1B60384SDT20UP87GS8YAFPN","computer","Desktop or Laptop","Windows 10","Chrome 117.0.0.0","1536x960","1536x835",NA,NA,0,"BIQ (Charlotte)",3,"BCADJEIFHG","Passed AC2","","Spreadsheet1",1,"BIQ","Screen 2","o21mwi",2,"response","8",3745.158,14126.072,14131.6130000119,3745.158,14126.072,14131.6130000119,1,3745.158,10386.4550000119,0,NA,"Rating Scale","Rating Scale",2,"object-259","BIQ",NA,"SUPAMT74201"
"8",1695821655850,"27/09/2023 13:34:15",1695803655850,-5,"27/09/2023 03:34:15",144636,3,"task-gjqt",NA,31894387,9431510,NA,"complete","vcnpts","3FIJLY1B60384SDT20UP87GS8YAFPN","computer","Desktop or Laptop","Windows 10","Chrome 117.0.0.0","1536x960","1536x835",NA,NA,0,"BIQ (Charlotte)",3,"BCADJEIFHG","Passed AC2","","Spreadsheet1",1,"BIQ","Screen 2","o21mwi",2,"response","1",7399.345,14126.072,14132.0130000179,7399.345,14126.072,14132.0130000179,1,7399.345,6732.66800001788,0,NA,"Rating Scale","Rating Scale",9,"object-36","BIQ",NA,"SUPAMT74201"
"9",1695821655850,"27/09/2023 13:34:15",1695803655850,-5,"27/09/2023 03:34:15",144636,3,"task-gjqt",NA,31894387,9431510,NA,"complete","vcnpts","3FIJLY1B60384SDT20UP87GS8YAFPN","computer","Desktop or Laptop","Windows 10","Chrome 117.0.0.0","1536x960","1536x835",NA,NA,0,"BIQ (Charlotte)",3,"BCADJEIFHG","Passed AC2","","Spreadsheet1",1,"BIQ","Screen 2","o21mwi",2,"response","1",13223.102,14126.072,14132.128,13223.102,14126.072,14132.128,1,13223.102,909.025999999998,0,NA,"Rating Scale","Rating Scale",16,"object-86","BIQ",NA,"SUPAMT74201"
"10",1695821666222,"27/09/2023 13:34:26",1695803666222,-5,"27/09/2023 03:34:26",144636,3,"task-gjqt",NA,31894387,9431510,NA,"complete","vcnpts","3FIJLY1B60384SDT20UP87GS8YAFPN","computer","Desktop or Laptop","Windows 10","Chrome 117.0.0.0","1536x960","1536x835",NA,NA,0,"BIQ (Charlotte)",3,"BCADJEIFHG","Passed AC2","","Spreadsheet1",1,"BIQ","Screen 3","iz3the",3,"continue","",10378.241,10374.837,10378.241,10378.241,10374.837,10378.241,1,10378.241,0,0,NA,"Click To Continue","Continue Button",22,"object-73","BIQ",NA,"SUPAMT74201"
"11",1695821666224,"27/09/2023 13:34:26",1695803666224,-5,"27/09/2023 03:34:26",144636,3,"task-gjqt",NA,31894387,9431510,NA,"complete","vcnpts","3FIJLY1B60384SDT20UP87GS8YAFPN","computer","Desktop or Laptop","Windows 10","Chrome 117.0.0.0","1536x960","1536x835",NA,NA,0,"BIQ (Charlotte)",3,"BCADJEIFHG","Passed AC2","","Spreadsheet1",1,"BIQ","Screen 3","iz3the",3,"response","0",2908.897,10374.837,10380.141000006,2908.897,10374.837,10380.141000006,1,2908.897,7471.24400000596,0,NA,"Rating Scale","Rating Scale",2,"object-53","BIQ",NA,"SUPAMT74201"
"12",1695821666224,"27/09/2023 13:34:26",1695803666224,-5,"27/09/2023 03:34:26",144636,3,"task-gjqt",NA,31894387,9431510,NA,"complete","vcnpts","3FIJLY1B60384SDT20UP87GS8YAFPN","computer","Desktop or Laptop","Windows 10","Chrome 117.0.0.0","1536x960","1536x835",NA,NA,0,"BIQ (Charlotte)",3,"BCADJEIFHG","Passed AC2","","Spreadsheet1",1,"BIQ","Screen 3","iz3the",3,"response","0",4145.045,10374.837,10380.5410000119,4145.045,10374.837,10380.5410000119,1,4145.045,6235.49600001192,0,NA,"Rating Scale","Rating Scale",9,"object-60","BIQ",NA,"SUPAMT74201"
"13",1695821666224,"27/09/2023 13:34:26",1695803666224,-5,"27/09/2023 03:34:26",144636,3,"task-gjqt",NA,31894387,9431510,NA,"complete","vcnpts","3FIJLY1B60384SDT20UP87GS8YAFPN","computer","Desktop or Laptop","Windows 10","Chrome 117.0.0.0","1536x960","1536x835",NA,NA,0,"BIQ (Charlotte)",3,"BCADJEIFHG","Passed AC2","","Spreadsheet1",1,"BIQ","Screen 3","iz3the",3,"response","8",9423.41800000001,10374.837,10380.741,9423.41800000001,10374.837,10380.741,1,9423.41800000001,957.322999999997,0,NA,"Rating Scale","Rating Scale",16,"object-67","BIQ",NA,"SUPAMT74201"
"14",1695821666227,"27/09/2023 13:34:26",1695803666227,-5,"27/09/2023 03:34:26",144636,3,"task-gjqt",NA,31894387,9431510,NA,"complete","vcnpts","3FIJLY1B60384SDT20UP87GS8YAFPN","computer","Desktop or Laptop","Windows 10","Chrome 117.0.0.0","1536x960","1536x835",NA,NA,0,"BIQ (Charlotte)",3,"BCADJEIFHG","Passed AC2","","Spreadsheet1",NA,"","","",NA,"5","END",NA,NA,NA,NA,NA,NA,0,NA,NA,NA,NA,"","",NA,"","",NA,"SUPAMT74201"
"1",1695839454379,"27/09/2023 18:30:54",1695825054379,-4,"27/09/2023 10:30:54",144636,3,"task-gjqt",NA,31894291,9431516,NA,"complete","uybgfq","","computer","Desktop or Laptop","Windows 10","Chrome 116.0.0.0","1280x1024","1280x875",NA,NA,0,"BIQ (Charlotte)",3,"EFDGCHBIAJ","Passed AC2","","Spreadsheet1",NA,"","","",NA,"5","BEGIN",NA,NA,NA,NA,NA,NA,0,NA,NA,NA,NA,"","",NA,"","",NA,"SUPAMT80130"
"2",1695839591377,"27/09/2023 18:33:11",1695825191377,-4,"27/09/2023 10:33:11",144636,3,"task-gjqt",NA,31894291,9431516,NA,"complete","uybgfq","","computer","Desktop or Laptop","Windows 10","Chrome 116.0.0.0","1280x1024","1280x875",NA,NA,0,"BIQ (Charlotte)",3,"EFDGCHBIAJ","Passed AC2","","Spreadsheet1",1,"BIQ","Screen 1","9dh6eq",1,"continue","",137033.250999905,137024.888,137033.250999905,137033.250999905,137024.888,137033.250999905,1,137033.250999905,0,0,NA,"Click To Continue","Continue Button",23,"object-48","BIQ",NA,"SUPAMT90670"
"3",1695839591386,"27/09/2023 18:33:11",1695825191386,-4,"27/09/2023 10:33:11",144636,3,"task-gjqt",NA,31894291,9431516,NA,"complete","uybgfq","","computer","Desktop or Laptop","Windows 10","Chrome 116.0.0.0","1280x1024","1280x875",NA,NA,0,"BIQ (Charlotte)",3,"EFDGCHBIAJ","Passed AC2","","Spreadsheet1",1,"BIQ","Screen 1","9dh6eq",1,"response","4",1562.812,137024.888,137044.250999905,1562.812,137024.888,137044.250999905,1,1562.812,135481.438999905,0,NA,"Rating Scale","Rating Scale",3,"object-5","BIQ",NA,"SUPAMT17915"
"4",1695839591386,"27/09/2023 18:33:11",1695825191386,-4,"27/09/2023 10:33:11",144636,3,"task-gjqt",NA,31894291,9431516,NA,"complete","uybgfq","","computer","Desktop or Laptop","Windows 10","Chrome 116.0.0.0","1280x1024","1280x875",NA,NA,0,"BIQ (Charlotte)",3,"EFDGCHBIAJ","Passed AC2","","Spreadsheet1",1,"BIQ","Screen 1","9dh6eq",1,"response","5",2043.502,137024.888,137044.651,2043.502,137024.888,137044.651,1,2043.502,135001.149,0,NA,"Rating Scale","Rating Scale",10,"object-18","BIQ",NA,"SUPAMT06491"
"5",1695839591386,"27/09/2023 18:33:11",1695825191386,-4,"27/09/2023 10:33:11",144636,3,"task-gjqt",NA,31894291,9431516,NA,"complete","uybgfq","","computer","Desktop or Laptop","Windows 10","Chrome 116.0.0.0","1280x1024","1280x875",NA,NA,0,"BIQ (Charlotte)",3,"EFDGCHBIAJ","Passed AC2","","Spreadsheet1",1,"BIQ","Screen 1","9dh6eq",1,"response","6",2525.728,137024.888,137044.950999952,2525.728,137024.888,137044.950999952,1,2525.728,134519.222999952,0,NA,"Rating Scale","Rating Scale",17,"object-80","BIQ",NA,"SUPAMT87900"
"6",1695839595117,"27/09/2023 18:33:15",1695825195117,-4,"27/09/2023 10:33:15",144636,3,"task-gjqt",NA,31894291,9431516,NA,"complete","uybgfq","","computer","Desktop or Laptop","Windows 10","Chrome 116.0.0.0","1280x1024","1280x875",NA,NA,0,"BIQ (Charlotte)",3,"EFDGCHBIAJ","Passed AC2","","Spreadsheet1",1,"BIQ","Screen 2","o21mwi",2,"continue","",3751.36299990464,3731.641,3751.36299990464,3751.36299990464,3731.641,3751.36299990464,1,3751.36299990464,0,0,NA,"Click To Continue","Continue Button",22,"object-50","BIQ",NA,NA
"7",1695839595118,"27/09/2023 18:33:15",1695825195118,-4,"27/09/2023 10:33:15",144636,3,"task-gjqt",NA,31894291,9431516,NA,"complete","uybgfq","","computer","Desktop or Laptop","Windows 10","Chrome 116.0.0.0","1280x1024","1280x875",NA,NA,0,"BIQ (Charlotte)",3,"EFDGCHBIAJ","Passed AC2","","Spreadsheet1",1,"BIQ","Screen 2","o21mwi",2,"response","6",1771.304,3731.641,3751.76300000001,1771.304,3731.641,3751.76300000001,1,1771.304,1980.459,0,NA,"Rating Scale","Rating Scale",2,"object-259","BIQ",NA,NA
"8",1695839595118,"27/09/2023 18:33:15",1695825195118,-4,"27/09/2023 10:33:15",144636,3,"task-gjqt",NA,31894291,9431516,NA,"complete","uybgfq","","computer","Desktop or Laptop","Windows 10","Chrome 116.0.0.0","1280x1024","1280x875",NA,NA,0,"BIQ (Charlotte)",3,"EFDGCHBIAJ","Passed AC2","","Spreadsheet1",1,"BIQ","Screen 2","o21mwi",2,"response","5",2253.01500000001,3731.641,3752.16300009537,2253.01500000001,3731.641,3752.16300009537,1,2253.01500000001,1499.14800009536,0,NA,"Rating Scale","Rating Scale",9,"object-36","BIQ",NA,NA
"9",1695839595119,"27/09/2023 18:33:15",1695825195119,-4,"27/09/2023 10:33:15",144636,3,"task-gjqt",NA,31894291,9431516,NA,"complete","uybgfq","","computer","Desktop or Laptop","Windows 10","Chrome 116.0.0.0","1280x1024","1280x875",NA,NA,0,"BIQ (Charlotte)",3,"EFDGCHBIAJ","Passed AC2","","Spreadsheet1",1,"BIQ","Screen 2","o21mwi",2,"response","6",2644.23800000001,3731.641,3752.66300009537,2644.23800000001,3731.641,3752.66300009537,1,2644.23800000001,1108.42500009536,0,NA,"Rating Scale","Rating Scale",16,"object-86","BIQ",NA,NA
"10",1695839598991,"27/09/2023 18:33:18",1695825198991,-4,"27/09/2023 10:33:18",144636,3,"task-gjqt",NA,31894291,9431516,NA,"complete","uybgfq","","computer","Desktop or Laptop","Windows 10","Chrome 116.0.0.0","1280x1024","1280x875",NA,NA,0,"BIQ (Charlotte)",3,"EFDGCHBIAJ","Passed AC2","","Spreadsheet1",1,"BIQ","Screen 3","iz3the",3,"continue","",3893.02200009537,3863.217,3893.02200009537,3893.02200009537,3863.217,3893.02200009537,1,3893.02200009537,0,0,NA,"Click To Continue","Continue Button",22,"object-73","BIQ",NA,NA
"11",1695839598992,"27/09/2023 18:33:18",1695825198992,-4,"27/09/2023 10:33:18",144636,3,"task-gjqt",NA,31894291,9431516,NA,"complete","uybgfq","","computer","Desktop or Laptop","Windows 10","Chrome 116.0.0.0","1280x1024","1280x875",NA,NA,0,"BIQ (Charlotte)",3,"EFDGCHBIAJ","Passed AC2","","Spreadsheet1",1,"BIQ","Screen 3","iz3the",3,"response","5",1418.14300000001,3863.217,3893.82200004769,1418.14300000001,3863.217,3893.82200004769,1,1418.14300000001,2475.67900004768,0,NA,"Rating Scale","Rating Scale",2,"object-53","BIQ",NA,NA
"12",1695839598992,"27/09/2023 18:33:18",1695825198992,-4,"27/09/2023 10:33:18",144636,3,"task-gjqt",NA,31894291,9431516,NA,"complete","uybgfq","","computer","Desktop or Laptop","Windows 10","Chrome 116.0.0.0","1280x1024","1280x875",NA,NA,0,"BIQ (Charlotte)",3,"EFDGCHBIAJ","Passed AC2","","Spreadsheet1",1,"BIQ","Screen 3","iz3the",3,"response","6",1811.52499999999,3863.217,3894.46600000001,1811.52499999999,3863.217,3894.46600000001,1,1811.52499999999,2082.94100000002,0,NA,"Rating Scale","Rating Scale",9,"object-60","BIQ",NA,NA
"13",1695839598993,"27/09/2023 18:33:18",1695825198993,-4,"27/09/2023 10:33:18",144636,3,"task-gjqt",NA,31894291,9431516,NA,"complete","uybgfq","","computer","Desktop or Laptop","Windows 10","Chrome 116.0.0.0","1280x1024","1280x875",NA,NA,0,"BIQ (Charlotte)",3,"EFDGCHBIAJ","Passed AC2","","Spreadsheet1",1,"BIQ","Screen 3","iz3the",3,"response","5",2450.57800000001,3863.217,3894.46600000001,2450.57800000001,3863.217,3894.46600000001,1,2450.57800000001,1443.88800000001,0,NA,"Rating Scale","Rating Scale",16,"object-67","BIQ",NA,NA
"14",1695839598995,"27/09/2023 18:33:18",1695825198995,-4,"27/09/2023 10:33:18",144636,3,"task-gjqt",NA,31894291,9431516,NA,"complete","uybgfq","","computer","Desktop or Laptop","Windows 10","Chrome 116.0.0.0","1280x1024","1280x875",NA,NA,0,"BIQ (Charlotte)",3,"EFDGCHBIAJ","Passed AC2","","Spreadsheet1",NA,"","","",NA,"5","END",NA,NA,NA,NA,NA,NA,0,NA,NA,NA,NA,"","",NA,"","",NA,NA
"1",1695817839635,"27/09/2023 12:30:39",1695803439635,-4,"27/09/2023 04:30:39",144636,3,"task-gjqt",NA,31894299,9431515,NA,"complete","ospqgx","","computer","Desktop or Laptop","Windows 10","Chrome 116.0.0.0","1440x900","1440x783",NA,NA,0,"BIQ (Charlotte)",3,"FGEHDICJBA","Passed AC2","","Spreadsheet1",NA,"","","",NA,"5","BEGIN",NA,NA,NA,NA,NA,NA,0,NA,NA,NA,NA,"","",NA,"","",NA,NA
"2",1695817860033,"27/09/2023 12:31:00",1695803460033,-4,"27/09/2023 04:31:00",144636,3,"task-gjqt",NA,31894299,9431515,NA,"complete","ospqgx","","computer","Desktop or Laptop","Windows 10","Chrome 116.0.0.0","1440x900","1440x783",NA,NA,0,"BIQ (Charlotte)",3,"FGEHDICJBA","Passed AC2","","Spreadsheet1",1,"BIQ","Screen 1","9dh6eq",1,"continue","",20422.8779988556,20418.522,20422.8779988556,20422.8779988556,20418.522,20422.8779988556,1,20422.8779988556,0,0,NA,"Click To Continue","Continue Button",23,"object-48","BIQ",NA,NA
"3",1695817860039,"27/09/2023 12:31:00",1695803460039,-4,"27/09/2023 04:31:00",144636,3,"task-gjqt",NA,31894299,9431515,NA,"complete","ospqgx","","computer","Desktop or Laptop","Windows 10","Chrome 116.0.0.0","1440x900","1440x783",NA,NA,0,"BIQ (Charlotte)",3,"FGEHDICJBA","Passed AC2","","Spreadsheet1",1,"BIQ","Screen 1","9dh6eq",1,"response","6",5633.581,20418.522,20428.9779992371,5633.581,20418.522,20428.9779992371,1,5633.581,14795.3969992371,0,NA,"Rating Scale","Rating Scale",3,"object-5","BIQ",NA,NA
"4",1695817860039,"27/09/2023 12:31:00",1695803460039,-4,"27/09/2023 04:31:00",144636,3,"task-gjqt",NA,31894299,9431515,NA,"complete","ospqgx","","computer","Desktop or Laptop","Windows 10","Chrome 116.0.0.0","1440x900","1440x783",NA,NA,0,"BIQ (Charlotte)",3,"FGEHDICJBA","Passed AC2","","Spreadsheet1",1,"BIQ","Screen 1","9dh6eq",1,"response","4",7229.815,20418.522,20429.5779996185,7229.815,20418.522,20429.5779996185,1,7229.815,13199.7629996185,0,NA,"Rating Scale","Rating Scale",10,"object-18","BIQ",NA,NA
"5",1695817860040,"27/09/2023 12:31:00",1695803460040,-4,"27/09/2023 04:31:00",144636,3,"task-gjqt",NA,31894299,9431515,NA,"complete","ospqgx","","computer","Desktop or Laptop","Windows 10","Chrome 116.0.0.0","1440x900","1440x783",NA,NA,0,"BIQ (Charlotte)",3,"FGEHDICJBA","Passed AC2","","Spreadsheet1",1,"BIQ","Screen 1","9dh6eq",1,"response","3",17396.992,20418.522,20429.9779992371,17396.992,20418.522,20429.9779992371,1,17396.992,3032.98599923706,0,NA,"Rating Scale","Rating Scale",17,"object-80","BIQ",NA,NA
"6",1695817877528,"27/09/2023 12:31:17",1695803477528,-4,"27/09/2023 04:31:17",144636,3,"task-gjqt",NA,31894299,9431515,NA,"complete","ospqgx","","computer","Desktop or Laptop","Windows 10","Chrome 116.0.0.0","1440x900","1440x783",NA,NA,0,"BIQ (Charlotte)",3,"FGEHDICJBA","Passed AC2","","Spreadsheet1",1,"BIQ","Screen 2","o21mwi",2,"continue","",17499.4559992371,17494.431,17499.4559992371,17499.4559992371,17494.431,17499.4559992371,1,17499.4559992371,0,0,NA,"Click To Continue","Continue Button",22,"object-50","BIQ",NA,NA
"7",1695817877531,"27/09/2023 12:31:17",1695803477531,-4,"27/09/2023 04:31:17",144636,3,"task-gjqt",NA,31894299,9431515,NA,"complete","ospqgx","","computer","Desktop or Laptop","Windows 10","Chrome 116.0.0.0","1440x900","1440x783",NA,NA,0,"BIQ (Charlotte)",3,"FGEHDICJBA","Passed AC2","","Spreadsheet1",1,"BIQ","Screen 2","o21mwi",2,"response","4",10211.723,17494.431,17502.7560003815,10211.723,17494.431,17502.7560003815,1,10211.723,7291.03300038147,0,NA,"Rating Scale","Rating Scale",2,"object-259","BIQ",NA,NA
"8",1695817877531,"27/09/2023 12:31:17",1695803477531,-4,"27/09/2023 04:31:17",144636,3,"task-gjqt",NA,31894299,9431515,NA,"complete","ospqgx","","computer","Desktop or Laptop","Windows 10","Chrome 116.0.0.0","1440x900","1440x783",NA,NA,0,"BIQ (Charlotte)",3,"FGEHDICJBA","Passed AC2","","Spreadsheet1",1,"BIQ","Screen 2","o21mwi",2,"response","4",12363.475,17494.431,17503.3559988556,12363.475,17494.431,17503.3559988556,1,12363.475,5139.88099885559,0,NA,"Rating Scale","Rating Scale",9,"object-36","BIQ",NA,NA
"9",1695817877532,"27/09/2023 12:31:17",1695803477532,-4,"27/09/2023 04:31:17",144636,3,"task-gjqt",NA,31894299,9431515,NA,"complete","ospqgx","","computer","Desktop or Laptop","Windows 10","Chrome 116.0.0.0","1440x900","1440x783",NA,NA,0,"BIQ (Charlotte)",3,"FGEHDICJBA","Passed AC2","","Spreadsheet1",1,"BIQ","Screen 2","o21mwi",2,"response","3",16843.975,17494.431,17503.7560003815,16843.975,17494.431,17503.7560003815,1,16843.975,659.781000381467,0,NA,"Rating Scale","Rating Scale",16,"object-86","BIQ",NA,NA
"10",1695817894739,"27/09/2023 12:31:34",1695803494739,-4,"27/09/2023 04:31:34",144636,3,"task-gjqt",NA,31894299,9431515,NA,"complete","ospqgx","","computer","Desktop or Laptop","Windows 10","Chrome 116.0.0.0","1440x900","1440x783",NA,NA,0,"BIQ (Charlotte)",3,"FGEHDICJBA","Passed AC2","","Spreadsheet1",1,"BIQ","Screen 3","iz3the",3,"continue","",17216.3250003815,17204.995,17216.3250003815,17216.3250003815,17204.995,17216.3250003815,1,17216.3250003815,0,0,NA,"Click To Continue","Continue Button",22,"object-73","BIQ",NA,NA
"11",1695817894743,"27/09/2023 12:31:34",1695803494743,-4,"27/09/2023 04:31:34",144636,3,"task-gjqt",NA,31894299,9431515,NA,"complete","ospqgx","","computer","Desktop or Laptop","Windows 10","Chrome 116.0.0.0","1440x900","1440x783",NA,NA,0,"BIQ (Charlotte)",3,"FGEHDICJBA","Passed AC2","","Spreadsheet1",1,"BIQ","Screen 3","iz3the",3,"response","6",12954.323,17204.995,17219.9249988556,12954.323,17204.995,17219.9249988556,1,12954.323,4265.60199885559,0,NA,"Rating Scale","Rating Scale",2,"object-53","BIQ",NA,NA
"12",1695817894743,"27/09/2023 12:31:34",1695803494743,-4,"27/09/2023 04:31:34",144636,3,"task-gjqt",NA,31894299,9431515,NA,"complete","ospqgx","","computer","Desktop or Laptop","Windows 10","Chrome 116.0.0.0","1440x900","1440x783",NA,NA,0,"BIQ (Charlotte)",3,"FGEHDICJBA","Passed AC2","","Spreadsheet1",1,"BIQ","Screen 3","iz3the",3,"response","5",13713.487,17204.995,17221.0249992371,13713.487,17204.995,17221.0249992371,1,13713.487,3507.53799923706,0,NA,"Rating Scale","Rating Scale",9,"object-60","BIQ",NA,NA
"13",1695817894744,"27/09/2023 12:31:34",1695803494744,-4,"27/09/2023 04:31:34",144636,3,"task-gjqt",NA,31894299,9431515,NA,"complete","ospqgx","","computer","Desktop or Laptop","Windows 10","Chrome 116.0.0.0","1440x900","1440x783",NA,NA,0,"BIQ (Charlotte)",3,"FGEHDICJBA","Passed AC2","","Spreadsheet1",1,"BIQ","Screen 3","iz3the",3,"response","5",16225.541,17204.995,17221.4249988556,16225.541,17204.995,17221.4249988556,1,16225.541,995.883998855592,0,NA,"Rating Scale","Rating Scale",16,"object-67","BIQ",NA,NA
"14",1695817894746,"27/09/2023 12:31:34",1695803494746,-4,"27/09/2023 04:31:34",144636,3,"task-gjqt",NA,31894299,9431515,NA,"complete","ospqgx","","computer","Desktop or Laptop","Windows 10","Chrome 116.0.0.0","1440x900","1440x783",NA,NA,0,"BIQ (Charlotte)",3,"FGEHDICJBA","Passed AC2","","Spreadsheet1",NA,"","","",NA,"5","END",NA,NA,NA,NA,NA,NA,0,NA,NA,NA,NA,"","",NA,"","",NA,NA
"1",1695817894992,"27/09/2023 12:31:34",1695803494992,-4,"27/09/2023 04:31:34",144636,3,"task-gjqt",NA,31894327,9431522,NA,"complete","umrsqi","","computer","Desktop or Laptop","Windows 10","Chrome 116.0.0.0","1280x1024","1280x875",NA,NA,0,"BIQ (Charlotte)",3,"DECFBGAHJI","Passed AC2","","Spreadsheet1",NA,"","","",NA,"5","BEGIN",NA,NA,NA,NA,NA,NA,0,NA,NA,NA,NA,"","",NA,"","",NA,NA
"2",1695817902006,"27/09/2023 12:31:42",1695803502006,-4,"27/09/2023 04:31:42",144636,3,"task-gjqt",NA,31894327,9431522,NA,"complete","umrsqi","","computer","Desktop or Laptop","Windows 10","Chrome 116.0.0.0","1280x1024","1280x875",NA,NA,0,"BIQ (Charlotte)",3,"DECFBGAHJI","Passed AC2","","Spreadsheet1",1,"BIQ","Screen 1","9dh6eq",1,"continue","",7023.11100004768,7012.006,7023.11100004768,7023.11100004768,7012.006,7023.11100004768,1,7023.11100004768,0,0,NA,"Click To Continue","Continue Button",23,"object-48","BIQ",NA,NA
"3",1695817902007,"27/09/2023 12:31:42",1695803502007,-4,"27/09/2023 04:31:42",144636,3,"task-gjqt",NA,31894327,9431522,NA,"complete","umrsqi","","computer","Desktop or Laptop","Windows 10","Chrome 116.0.0.0","1280x1024","1280x875",NA,NA,0,"BIQ (Charlotte)",3,"DECFBGAHJI","Passed AC2","","Spreadsheet1",1,"BIQ","Screen 1","9dh6eq",1,"response","4",1816.979,7012.006,7027.81100009537,1816.979,7012.006,7027.81100009537,1,1816.979,5210.83200009537,0,NA,"Rating Scale","Rating Scale",3,"object-5","BIQ",NA,NA
"4",1695817902007,"27/09/2023 12:31:42",1695803502007,-4,"27/09/2023 04:31:42",144636,3,"task-gjqt",NA,31894327,9431522,NA,"complete","umrsqi","","computer","Desktop or Laptop","Windows 10","Chrome 116.0.0.0","1280x1024","1280x875",NA,NA,0,"BIQ (Charlotte)",3,"DECFBGAHJI","Passed AC2","","Spreadsheet1",1,"BIQ","Screen 1","9dh6eq",1,"response","5",2584.926,7012.006,7028.11100004768,2584.926,7012.006,7028.11100004768,1,2584.926,4443.18500004768,0,NA,"Rating Scale","Rating Scale",10,"object-18","BIQ",NA,NA
"5",1695817902007,"27/09/2023 12:31:42",1695803502007,-4,"27/09/2023 04:31:42",144636,3,"task-gjqt",NA,31894327,9431522,NA,"complete","umrsqi","","computer","Desktop or Laptop","Windows 10","Chrome 116.0.0.0","1280x1024","1280x875",NA,NA,0,"BIQ (Charlotte)",3,"DECFBGAHJI","Passed AC2","","Spreadsheet1",1,"BIQ","Screen 1","9dh6eq",1,"response","4",3504.029,7012.006,7028.411,3504.029,7012.006,7028.411,1,3504.029,3524.382,0,NA,"Rating Scale","Rating Scale",17,"object-80","BIQ",NA,NA
"6",1695817905311,"27/09/2023 12:31:45",1695803505311,-4,"27/09/2023 04:31:45",144636,3,"task-gjqt",NA,31894327,9431522,NA,"complete","umrsqi","","computer","Desktop or Laptop","Windows 10","Chrome 116.0.0.0","1280x1024","1280x875",NA,NA,0,"BIQ (Charlotte)",3,"DECFBGAHJI","Passed AC2","","Spreadsheet1",1,"BIQ","Screen 2","o21mwi",2,"continue","",3320.10500004768,3313.883,3320.10500004768,3320.10500004768,3313.883,3320.10500004768,1,3320.10500004768,0,0,NA,"Click To Continue","Continue Button",22,"object-50","BIQ",NA,NA
"7",1695817905313,"27/09/2023 12:31:45",1695803505313,-4,"27/09/2023 04:31:45",144636,3,"task-gjqt",NA,31894327,9431522,NA,"complete","umrsqi","","computer","Desktop or Laptop","Windows 10","Chrome 116.0.0.0","1280x1024","1280x875",NA,NA,0,"BIQ (Charlotte)",3,"DECFBGAHJI","Passed AC2","","Spreadsheet1",1,"BIQ","Screen 2","o21mwi",2,"response","6",1607.06,3313.883,3322.30500009537,1607.06,3313.883,3322.30500009537,1,1607.06,1715.24500009537,0,NA,"Rating Scale","Rating Scale",2,"object-259","BIQ",NA,NA
"8",1695817905313,"27/09/2023 12:31:45",1695803505313,-4,"27/09/2023 04:31:45",144636,3,"task-gjqt",NA,31894327,9431522,NA,"complete","umrsqi","","computer","Desktop or Laptop","Windows 10","Chrome 116.0.0.0","1280x1024","1280x875",NA,NA,0,"BIQ (Charlotte)",3,"DECFBGAHJI","Passed AC2","","Spreadsheet1",1,"BIQ","Screen 2","o21mwi",2,"response","4",2273.479,3313.883,3322.60500004768,2273.479,3313.883,3322.60500004768,1,2273.479,1049.12600004768,0,NA,"Rating Scale","Rating Scale",9,"object-36","BIQ",NA,NA
"9",1695817905314,"27/09/2023 12:31:45",1695803505314,-4,"27/09/2023 04:31:45",144636,3,"task-gjqt",NA,31894327,9431522,NA,"complete","umrsqi","","computer","Desktop or Laptop","Windows 10","Chrome 116.0.0.0","1280x1024","1280x875",NA,NA,0,"BIQ (Charlotte)",3,"DECFBGAHJI","Passed AC2","","Spreadsheet1",1,"BIQ","Screen 2","o21mwi",2,"response","5",2849.563,3313.883,3323.00500014305,2849.563,3313.883,3323.00500014305,1,2849.563,473.442000143052,0,NA,"Rating Scale","Rating Scale",16,"object-86","BIQ",NA,NA
"10",1695817908367,"27/09/2023 12:31:48",1695803508367,-4,"27/09/2023 04:31:48",144636,3,"task-gjqt",NA,31894327,9431522,NA,"complete","umrsqi","","computer","Desktop or Laptop","Windows 10","Chrome 116.0.0.0","1280x1024","1280x875",NA,NA,0,"BIQ (Charlotte)",3,"DECFBGAHJI","Passed AC2","","Spreadsheet1",1,"BIQ","Screen 3","iz3the",3,"continue","",3062.62200014305,3053.829,3062.62200014305,3062.62200014305,3053.829,3062.62200014305,1,3062.62200014305,0,0,NA,"Click To Continue","Continue Button",22,"object-73","BIQ",NA,NA
"11",1695817908368,"27/09/2023 12:31:48",1695803508368,-4,"27/09/2023 04:31:48",144636,3,"task-gjqt",NA,31894327,9431522,NA,"complete","umrsqi","","computer","Desktop or Laptop","Windows 10","Chrome 116.0.0.0","1280x1024","1280x875",NA,NA,0,"BIQ (Charlotte)",3,"DECFBGAHJI","Passed AC2","","Spreadsheet1",1,"BIQ","Screen 3","iz3the",3,"response","3",1412.419,3053.829,3063.022,1412.419,3053.829,3063.022,1,1412.419,1650.603,0,NA,"Rating Scale","Rating Scale",2,"object-53","BIQ",NA,NA
"12",1695817908368,"27/09/2023 12:31:48",1695803508368,-4,"27/09/2023 04:31:48",144636,3,"task-gjqt",NA,31894327,9431522,NA,"complete","umrsqi","","computer","Desktop or Laptop","Windows 10","Chrome 116.0.0.0","1280x1024","1280x875",NA,NA,0,"BIQ (Charlotte)",3,"DECFBGAHJI","Passed AC2","","Spreadsheet1",1,"BIQ","Screen 3","iz3the",3,"response","4",1856.813,3053.829,3063.42200009537,1856.813,3053.829,3063.42200009537,1,1856.813,1206.60900009537,0,NA,"Rating Scale","Rating Scale",9,"object-60","BIQ",NA,NA
"13",1695817908368,"27/09/2023 12:31:48",1695803508368,-4,"27/09/2023 04:31:48",144636,3,"task-gjqt",NA,31894327,9431522,NA,"complete","umrsqi","","computer","Desktop or Laptop","Windows 10","Chrome 116.0.0.0","1280x1024","1280x875",NA,NA,0,"BIQ (Charlotte)",3,"DECFBGAHJI","Passed AC2","","Spreadsheet1",1,"BIQ","Screen 3","iz3the",3,"response","5",2472.249,3053.829,3063.72200004768,2472.249,3053.829,3063.72200004768,1,2472.249,591.473000047683,0,NA,"Rating Scale","Rating Scale",16,"object-67","BIQ",NA,NA
"14",1695817908370,"27/09/2023 12:31:48",1695803508370,-4,"27/09/2023 04:31:48",144636,3,"task-gjqt",NA,31894327,9431522,NA,"complete","umrsqi","","computer","Desktop or Laptop","Windows 10","Chrome 116.0.0.0","1280x1024","1280x875",NA,NA,0,"BIQ (Charlotte)",3,"DECFBGAHJI","Passed AC2","","Spreadsheet1",NA,"","","",NA,"5","END",NA,NA,NA,NA,NA,NA,0,NA,NA,NA,NA,"","",NA,"","",NA,NA
"1",1695817956545,"27/09/2023 12:32:36",1695803556545,-4,"27/09/2023 04:32:36",144636,3,"task-gjqt",NA,31894358,9431511,NA,"complete","kxxpyk","3ZSY5X72N3ANMI61EVH40WPL1HPROD","computer","Desktop or Laptop","Windows 10","Chrome 117.0.0.0","1600x900","1600x751",NA,NA,0,"BIQ (Charlotte)",3,"CDBEAFJGIH","Passed AC2","","Spreadsheet1",NA,"","","",NA,"5","BEGIN",NA,NA,NA,NA,NA,NA,0,NA,NA,NA,NA,"","",NA,"","",NA,"SUPAMT02681"
"2",1695817966379,"27/09/2023 12:32:46",1695803566379,-4,"27/09/2023 04:32:46",144636,3,"task-gjqt",NA,31894358,9431511,NA,"complete","kxxpyk","3ZSY5X72N3ANMI61EVH40WPL1HPROD","computer","Desktop or Laptop","Windows 10","Chrome 117.0.0.0","1600x900","1600x751",NA,NA,0,"BIQ (Charlotte)",3,"CDBEAFJGIH","Passed AC2","","Spreadsheet1",1,"BIQ","Screen 1","9dh6eq",1,"continue","",9847.052,9832.94,9847.052,9847.052,9832.94,9847.052,1,9847.052,0,0,NA,"Click To Continue","Continue Button",23,"object-48","BIQ",NA,"SUPAMT02681"
"3",1695817966380,"27/09/2023 12:32:46",1695803566380,-4,"27/09/2023 04:32:46",144636,3,"task-gjqt",NA,31894358,9431511,NA,"complete","kxxpyk","3ZSY5X72N3ANMI61EVH40WPL1HPROD","computer","Desktop or Laptop","Windows 10","Chrome 117.0.0.0","1600x900","1600x751",NA,NA,0,"BIQ (Charlotte)",3,"CDBEAFJGIH","Passed AC2","","Spreadsheet1",1,"BIQ","Screen 1","9dh6eq",1,"response","6",1866.592,9832.94,9848.052,1866.592,9832.94,9848.052,1,1866.592,7981.46,0,NA,"Rating Scale","Rating Scale",3,"object-5","BIQ",NA,"SUPAMT02681"
"4",1695817966380,"27/09/2023 12:32:46",1695803566380,-4,"27/09/2023 04:32:46",144636,3,"task-gjqt",NA,31894358,9431511,NA,"complete","kxxpyk","3ZSY5X72N3ANMI61EVH40WPL1HPROD","computer","Desktop or Laptop","Windows 10","Chrome 117.0.0.0","1600x900","1600x751",NA,NA,0,"BIQ (Charlotte)",3,"CDBEAFJGIH","Passed AC2","","Spreadsheet1",1,"BIQ","Screen 1","9dh6eq",1,"response","4",2499.9,9832.94,9849.052,2499.9,9832.94,9849.052,1,2499.9,7349.152,0,NA,"Rating Scale","Rating Scale",10,"object-18","BIQ",NA,"SUPAMT02681"
"5",1695817966380,"27/09/2023 12:32:46",1695803566380,-4,"27/09/2023 04:32:46",144636,3,"task-gjqt",NA,31894358,9431511,NA,"complete","kxxpyk","3ZSY5X72N3ANMI61EVH40WPL1HPROD","computer","Desktop or Laptop","Windows 10","Chrome 117.0.0.0","1600x900","1600x751",NA,NA,0,"BIQ (Charlotte)",3,"CDBEAFJGIH","Passed AC2","","Spreadsheet1",1,"BIQ","Screen 1","9dh6eq",1,"response","5",4366.492,9832.94,9849.052,4366.492,9832.94,9849.052,1,4366.492,5482.56,0,NA,"Rating Scale","Rating Scale",17,"object-80","BIQ",NA,"SUPAMT02681"
"6",1695817969965,"27/09/2023 12:32:49",1695803569965,-4,"27/09/2023 04:32:49",144636,3,"task-gjqt",NA,31894358,9431511,NA,"complete","kxxpyk","3ZSY5X72N3ANMI61EVH40WPL1HPROD","computer","Desktop or Laptop","Windows 10","Chrome 117.0.0.0","1600x900","1600x751",NA,NA,0,"BIQ (Charlotte)",3,"CDBEAFJGIH","Passed AC2","","Spreadsheet1",1,"BIQ","Screen 2","o21mwi",2,"continue","",3599.856,3583.19,3599.856,3599.856,3583.19,3599.856,1,3599.856,0,0,NA,"Click To Continue","Continue Button",22,"object-50","BIQ",NA,"SUPAMT02681"
"7",1695817969968,"27/09/2023 12:32:49",1695803569968,-4,"27/09/2023 04:32:49",144636,3,"task-gjqt",NA,31894358,9431511,NA,"complete","kxxpyk","3ZSY5X72N3ANMI61EVH40WPL1HPROD","computer","Desktop or Laptop","Windows 10","Chrome 117.0.0.0","1600x900","1600x751",NA,NA,0,"BIQ (Charlotte)",3,"CDBEAFJGIH","Passed AC2","","Spreadsheet1",1,"BIQ","Screen 2","o21mwi",2,"response","5",1599.936,3583.19,3599.856,1599.936,3583.19,3599.856,1,1599.936,1999.92,0,NA,"Rating Scale","Rating Scale",2,"object-259","BIQ",NA,"SUPAMT02681"
"8",1695817969969,"27/09/2023 12:32:49",1695803569969,-4,"27/09/2023 04:32:49",144636,3,"task-gjqt",NA,31894358,9431511,NA,"complete","kxxpyk","3ZSY5X72N3ANMI61EVH40WPL1HPROD","computer","Desktop or Laptop","Windows 10","Chrome 117.0.0.0","1600x900","1600x751",NA,NA,0,"BIQ (Charlotte)",3,"CDBEAFJGIH","Passed AC2","","Spreadsheet1",1,"BIQ","Screen 2","o21mwi",2,"response","2",2283.242,3583.19,3599.856,2283.242,3583.19,3599.856,1,2283.242,1316.614,0,NA,"Rating Scale","Rating Scale",9,"object-36","BIQ",NA,"SUPAMT02681"
"9",1695817969969,"27/09/2023 12:32:49",1695803569969,-4,"27/09/2023 04:32:49",144636,3,"task-gjqt",NA,31894358,9431511,NA,"complete","kxxpyk","3ZSY5X72N3ANMI61EVH40WPL1HPROD","computer","Desktop or Laptop","Windows 10","Chrome 117.0.0.0","1600x900","1600x751",NA,NA,0,"BIQ (Charlotte)",3,"CDBEAFJGIH","Passed AC2","","Spreadsheet1",1,"BIQ","Screen 2","o21mwi",2,"response","4",2983.214,3583.19,3599.856,2983.214,3583.19,3599.856,1,2983.214,616.642000000002,0,NA,"Rating Scale","Rating Scale",16,"object-86","BIQ",NA,"SUPAMT02681"
"10",1695817973985,"27/09/2023 12:32:53",1695803573985,-4,"27/09/2023 04:32:53",144636,3,"task-gjqt",NA,31894358,9431511,NA,"complete","kxxpyk","3ZSY5X72N3ANMI61EVH40WPL1HPROD","computer","Desktop or Laptop","Windows 10","Chrome 117.0.0.0","1600x900","1600x751",NA,NA,0,"BIQ (Charlotte)",3,"CDBEAFJGIH","Passed AC2","","Spreadsheet1",1,"BIQ","Screen 3","iz3the",3,"continue","",4033.172,4016.506,4033.172,4033.172,4016.506,4033.172,1,4033.172,0,0,NA,"Click To Continue","Continue Button",22,"object-73","BIQ",NA,"SUPAMT02681"
"11",1695817973986,"27/09/2023 12:32:53",1695803573986,-4,"27/09/2023 04:32:53",144636,3,"task-gjqt",NA,31894358,9431511,NA,"complete","kxxpyk","3ZSY5X72N3ANMI61EVH40WPL1HPROD","computer","Desktop or Laptop","Windows 10","Chrome 117.0.0.0","1600x900","1600x751",NA,NA,0,"BIQ (Charlotte)",3,"CDBEAFJGIH","Passed AC2","","Spreadsheet1",1,"BIQ","Screen 3","iz3the",3,"response","5",2033.252,4016.506,4033.172,2033.252,4016.506,4033.172,1,2033.252,1999.91999999999,0,NA,"Rating Scale","Rating Scale",2,"object-53","BIQ",NA,"SUPAMT02681"
"12",1695817973987,"27/09/2023 12:32:53",1695803573987,-4,"27/09/2023 04:32:53",144636,3,"task-gjqt",NA,31894358,9431511,NA,"complete","kxxpyk","3ZSY5X72N3ANMI61EVH40WPL1HPROD","computer","Desktop or Laptop","Windows 10","Chrome 117.0.0.0","1600x900","1600x751",NA,NA,0,"BIQ (Charlotte)",3,"CDBEAFJGIH","Passed AC2","","Spreadsheet1",1,"BIQ","Screen 3","iz3the",3,"response","2",2816.554,4016.506,4033.172,2816.554,4016.506,4033.172,1,2816.554,1216.61799999999,0,NA,"Rating Scale","Rating Scale",9,"object-60","BIQ",NA,"SUPAMT02681"
"13",1695817973988,"27/09/2023 12:32:53",1695803573988,-4,"27/09/2023 04:32:53",144636,3,"task-gjqt",NA,31894358,9431511,NA,"complete","kxxpyk","3ZSY5X72N3ANMI61EVH40WPL1HPROD","computer","Desktop or Laptop","Windows 10","Chrome 117.0.0.0","1600x900","1600x751",NA,NA,0,"BIQ (Charlotte)",3,"CDBEAFJGIH","Passed AC2","","Spreadsheet1",1,"BIQ","Screen 3","iz3the",3,"response","5",3383.198,4016.506,4033.172,3383.198,4016.506,4033.172,1,3383.198,649.973999999995,0,NA,"Rating Scale","Rating Scale",16,"object-67","BIQ",NA,"SUPAMT02681"
"14",1695817973992,"27/09/2023 12:32:53",1695803573992,-4,"27/09/2023 04:32:53",144636,3,"task-gjqt",NA,31894358,9431511,NA,"complete","kxxpyk","3ZSY5X72N3ANMI61EVH40WPL1HPROD","computer","Desktop or Laptop","Windows 10","Chrome 117.0.0.0","1600x900","1600x751",NA,NA,0,"BIQ (Charlotte)",3,"CDBEAFJGIH","Passed AC2","","Spreadsheet1",NA,"","","",NA,"5","END",NA,NA,NA,NA,NA,NA,0,NA,NA,NA,NA,"","",NA,"","",NA,"SUPAMT02681"
"1",1695818142447,"27/09/2023 12:35:42",1695803742447,-4,"27/09/2023 04:35:42",144636,3,"task-gjqt",NA,31894395,9431524,NA,"rejected - time limit reached","","3NPI0JQDAU4INXVUXKZEPBVTZ7IPT5","computer","Desktop or Laptop","Windows 10","Chrome 116.0.0.0","1366x768","1366x619",NA,NA,0,"BIQ (Charlotte)",3,"HIGJFAEBDC","Passed AC2","","Spreadsheet1",NA,"","","",NA,"5","BEGIN",NA,NA,NA,NA,NA,NA,0,NA,NA,NA,NA,"","",NA,"","",NA,"SUPAMT54374"
"2",1695818159197,"27/09/2023 12:35:59",1695803759197,-4,"27/09/2023 04:35:59",144636,3,"task-gjqt",NA,31894395,9431524,NA,"rejected - time limit reached","","3NPI0JQDAU4INXVUXKZEPBVTZ7IPT5","computer","Desktop or Laptop","Windows 10","Chrome 116.0.0.0","1366x768","1366x619",NA,NA,0,"BIQ (Charlotte)",3,"HIGJFAEBDC","Passed AC2","","Spreadsheet1",1,"BIQ","Screen 1","9dh6eq",1,"continue","",18622.5,18615.276,18622.5,18622.5,18615.276,18622.5,1,18622.5,0,0,NA,"Click To Continue","Continue Button",23,"object-48","BIQ",NA,"SUPAMT54374"
"3",1695818159200,"27/09/2023 12:35:59",1695803759200,-4,"27/09/2023 04:35:59",144636,3,"task-gjqt",NA,31894395,9431524,NA,"rejected - time limit reached","","3NPI0JQDAU4INXVUXKZEPBVTZ7IPT5","computer","Desktop or Laptop","Windows 10","Chrome 116.0.0.0","1366x768","1366x619",NA,NA,0,"BIQ (Charlotte)",3,"HIGJFAEBDC","Passed AC2","","Spreadsheet1",1,"BIQ","Screen 1","9dh6eq",1,"response","0",11673.226,18615.276,18626.3999998569,11673.226,18615.276,18626.3999998569,1,11673.226,6953.17399985695,0,NA,"Rating Scale","Rating Scale",3,"object-5","BIQ",NA,"SUPAMT54374"
"4",1695818159200,"27/09/2023 12:35:59",1695803759200,-4,"27/09/2023 04:35:59",144636,3,"task-gjqt",NA,31894395,9431524,NA,"rejected - time limit reached","","3NPI0JQDAU4INXVUXKZEPBVTZ7IPT5","computer","Desktop or Laptop","Windows 10","Chrome 116.0.0.0","1366x768","1366x619",NA,NA,0,"BIQ (Charlotte)",3,"HIGJFAEBDC","Passed AC2","","Spreadsheet1",1,"BIQ","Screen 1","9dh6eq",1,"response","0",12693.832,18615.276,18626.8999998569,12693.832,18615.276,18626.8999998569,1,12693.832,5933.06799985695,0,NA,"Rating Scale","Rating Scale",10,"object-18","BIQ",NA,"SUPAMT54374"
"5",1695818159200,"27/09/2023 12:35:59",1695803759200,-4,"27/09/2023 04:35:59",144636,3,"task-gjqt",NA,31894395,9431524,NA,"rejected - time limit reached","","3NPI0JQDAU4INXVUXKZEPBVTZ7IPT5","computer","Desktop or Laptop","Windows 10","Chrome 116.0.0.0","1366x768","1366x619",NA,NA,0,"BIQ (Charlotte)",3,"HIGJFAEBDC","Passed AC2","","Spreadsheet1",1,"BIQ","Screen 1","9dh6eq",1,"response","0",17737.915,18615.276,18627.2000000477,17737.915,18615.276,18627.2000000477,1,17737.915,889.285000047683,0,NA,"Rating Scale","Rating Scale",17,"object-80","BIQ",NA,"SUPAMT54374"
"6",1695818167237,"27/09/2023 12:36:07",1695803767237,-4,"27/09/2023 04:36:07",144636,3,"task-gjqt",NA,31894395,9431524,NA,"rejected - time limit reached","","3NPI0JQDAU4INXVUXKZEPBVTZ7IPT5","computer","Desktop or Laptop","Windows 10","Chrome 116.0.0.0","1366x768","1366x619",NA,NA,0,"BIQ (Charlotte)",3,"HIGJFAEBDC","Passed AC2","","Spreadsheet1",1,"BIQ","Screen 2","o21mwi",2,"continue","",8048.224,8033.724,8048.224,8048.224,8033.724,8048.224,1,8048.224,0,0,NA,"Click To Continue","Continue Button",22,"object-50","BIQ",NA,"SUPAMT54374"
"7",1695818167238,"27/09/2023 12:36:07",1695803767238,-4,"27/09/2023 04:36:07",144636,3,"task-gjqt",NA,31894395,9431524,NA,"rejected - time limit reached","","3NPI0JQDAU4INXVUXKZEPBVTZ7IPT5","computer","Desktop or Laptop","Windows 10","Chrome 116.0.0.0","1366x768","1366x619",NA,NA,0,"BIQ (Charlotte)",3,"HIGJFAEBDC","Passed AC2","","Spreadsheet1",1,"BIQ","Screen 2","o21mwi",2,"response","1",2316.958,8033.724,8048.92400004768,2316.958,8033.724,8048.92400004768,1,2316.958,5731.96600004768,0,NA,"Rating Scale","Rating Scale",2,"object-259","BIQ",NA,"SUPAMT54374"
"8",1695818167238,"27/09/2023 12:36:07",1695803767238,-4,"27/09/2023 04:36:07",144636,3,"task-gjqt",NA,31894395,9431524,NA,"rejected - time limit reached","","3NPI0JQDAU4INXVUXKZEPBVTZ7IPT5","computer","Desktop or Laptop","Windows 10","Chrome 116.0.0.0","1366x768","1366x619",NA,NA,0,"BIQ (Charlotte)",3,"HIGJFAEBDC","Passed AC2","","Spreadsheet1",1,"BIQ","Screen 2","o21mwi",2,"response","0",6772.227,8033.724,8049.52399995231,6772.227,8033.724,8049.52399995231,1,6772.227,1277.29699995232,0,NA,"Rating Scale","Rating Scale",9,"object-36","BIQ",NA,"SUPAMT54374"
"9",1695818167238,"27/09/2023 12:36:07",1695803767238,-4,"27/09/2023 04:36:07",144636,3,"task-gjqt",NA,31894395,9431524,NA,"rejected - time limit reached","","3NPI0JQDAU4INXVUXKZEPBVTZ7IPT5","computer","Desktop or Laptop","Windows 10","Chrome 116.0.0.0","1366x768","1366x619",NA,NA,0,"BIQ (Charlotte)",3,"HIGJFAEBDC","Passed AC2","","Spreadsheet1",1,"BIQ","Screen 2","o21mwi",2,"response","0",5780.547,8033.724,8050.02399995231,5780.547,8033.724,8050.02399995231,1,5780.547,2269.47699995232,0,NA,"Rating Scale","Rating Scale",16,"object-86","BIQ",NA,"SUPAMT54374"
"10",1695818174413,"27/09/2023 12:36:14",1695803774413,-4,"27/09/2023 04:36:14",144636,3,"task-gjqt",NA,31894395,9431524,NA,"rejected - time limit reached","","3NPI0JQDAU4INXVUXKZEPBVTZ7IPT5","computer","Desktop or Laptop","Windows 10","Chrome 116.0.0.0","1366x768","1366x619",NA,NA,0,"BIQ (Charlotte)",3,"HIGJFAEBDC","Passed AC2","","Spreadsheet1",1,"BIQ","Screen 3","iz3the",3,"continue","",7191.20000004768,7174.821,7191.20000004768,7191.20000004768,7174.821,7191.20000004768,1,7191.20000004768,0,0,NA,"Click To Continue","Continue Button",22,"object-73","BIQ",NA,"SUPAMT54374"
"11",1695818174417,"27/09/2023 12:36:14",1695803774417,-4,"27/09/2023 04:36:14",144636,3,"task-gjqt",NA,31894395,9431524,NA,"rejected - time limit reached","","3NPI0JQDAU4INXVUXKZEPBVTZ7IPT5","computer","Desktop or Laptop","Windows 10","Chrome 116.0.0.0","1366x768","1366x619",NA,NA,0,"BIQ (Charlotte)",3,"HIGJFAEBDC","Passed AC2","","Spreadsheet1",1,"BIQ","Screen 3","iz3the",3,"response","1",5158.404,7174.821,7191.48700000001,5158.404,7174.821,7191.48700000001,1,5158.404,2033.08300000001,0,NA,"Rating Scale","Rating Scale",2,"object-53","BIQ",NA,"SUPAMT54374"
"12",1695818174418,"27/09/2023 12:36:14",1695803774418,-4,"27/09/2023 04:36:14",144636,3,"task-gjqt",NA,31894395,9431524,NA,"rejected - time limit reached","","3NPI0JQDAU4INXVUXKZEPBVTZ7IPT5","computer","Desktop or Laptop","Windows 10","Chrome 116.0.0.0","1366x768","1366x619",NA,NA,0,"BIQ (Charlotte)",3,"HIGJFAEBDC","Passed AC2","","Spreadsheet1",1,"BIQ","Screen 3","iz3the",3,"response","0",4316.988,7174.821,7191.48700000001,4316.988,7174.821,7191.48700000001,1,4316.988,2874.49900000001,0,NA,"Rating Scale","Rating Scale",9,"object-60","BIQ",NA,"SUPAMT54374"
"13",1695818174418,"27/09/2023 12:36:14",1695803774418,-4,"27/09/2023 04:36:14",144636,3,"task-gjqt",NA,31894395,9431524,NA,"rejected - time limit reached","","3NPI0JQDAU4INXVUXKZEPBVTZ7IPT5","computer","Desktop or Laptop","Windows 10","Chrome 116.0.0.0","1366x768","1366x619",NA,NA,0,"BIQ (Charlotte)",3,"HIGJFAEBDC","Passed AC2","","Spreadsheet1",1,"BIQ","Screen 3","iz3the",3,"response","0",6095.405,7174.821,7191.48700000001,6095.405,7174.821,7191.48700000001,1,6095.405,1096.08200000001,0,NA,"Rating Scale","Rating Scale",16,"object-67","BIQ",NA,"SUPAMT54374"
"14",1695818174420,"27/09/2023 12:36:14",1695803774420,-4,"27/09/2023 04:36:14",144636,3,"task-gjqt",NA,31894395,9431524,NA,"rejected - time limit reached","","3NPI0JQDAU4INXVUXKZEPBVTZ7IPT5","computer","Desktop or Laptop","Windows 10","Chrome 116.0.0.0","1366x768","1366x619",NA,NA,0,"BIQ (Charlotte)",3,"HIGJFAEBDC","Passed AC2","","Spreadsheet1",NA,"","","",NA,"5","END",NA,NA,NA,NA,NA,NA,0,NA,NA,NA,NA,"","",NA,"","",NA,"SUPAMT54374"
"1",1695821700716,"27/09/2023 13:35:00",1695803700716,-5,"27/09/2023 03:35:00",144636,3,"task-gjqt",NA,31894435,9431537,NA,"complete","xjuqtc","3FDJT1UU7A7FR4NOJWC8QE3GPUQK58","computer","Desktop or Laptop","Windows 10","Chrome 116.0.0.0","1366x768","1366x651",NA,NA,0,"BIQ (Charlotte)",3,"IJHAGBFCED","Passed AC2","","Spreadsheet1",NA,"","","",NA,"5","BEGIN",NA,NA,NA,NA,NA,NA,0,NA,NA,NA,NA,"","",NA,"","",NA,"SUPAMT83502"
"2",1695821709213,"27/09/2023 13:35:09",1695803709213,-5,"27/09/2023 03:35:09",144636,3,"task-gjqt",NA,31894435,9431537,NA,"complete","xjuqtc","3FDJT1UU7A7FR4NOJWC8QE3GPUQK58","computer","Desktop or Laptop","Windows 10","Chrome 116.0.0.0","1366x768","1366x651",NA,NA,0,"BIQ (Charlotte)",3,"IJHAGBFCED","Passed AC2","","Spreadsheet1",1,"BIQ","Screen 1","9dh6eq",1,"continue","",8517.685,8501.019,8517.685,8517.685,8501.019,8517.685,1,8517.685,0,0,NA,"Click To Continue","Continue Button",23,"object-48","BIQ",NA,"SUPAMT83502"
"3",1695821709214,"27/09/2023 13:35:09",1695803709214,-5,"27/09/2023 03:35:09",144636,3,"task-gjqt",NA,31894435,9431537,NA,"complete","xjuqtc","3FDJT1UU7A7FR4NOJWC8QE3GPUQK58","computer","Desktop or Laptop","Windows 10","Chrome 116.0.0.0","1366x768","1366x651",NA,NA,0,"BIQ (Charlotte)",3,"IJHAGBFCED","Passed AC2","","Spreadsheet1",1,"BIQ","Screen 1","9dh6eq",1,"response","5",3187.567,8501.019,8517.685,3187.567,8501.019,8517.685,1,3187.567,5330.118,0,NA,"Rating Scale","Rating Scale",3,"object-5","BIQ",NA,"SUPAMT83502"
"4",1695821709214,"27/09/2023 13:35:09",1695803709214,-5,"27/09/2023 03:35:09",144636,3,"task-gjqt",NA,31894435,9431537,NA,"complete","xjuqtc","3FDJT1UU7A7FR4NOJWC8QE3GPUQK58","computer","Desktop or Laptop","Windows 10","Chrome 116.0.0.0","1366x768","1366x651",NA,NA,0,"BIQ (Charlotte)",3,"IJHAGBFCED","Passed AC2","","Spreadsheet1",1,"BIQ","Screen 1","9dh6eq",1,"response","6",5943.151,8501.019,8517.685,5943.151,8501.019,8517.685,1,5943.151,2574.534,0,NA,"Rating Scale","Rating Scale",10,"object-18","BIQ",NA,"SUPAMT83502"
"5",1695821709214,"27/09/2023 13:35:09",1695803709214,-5,"27/09/2023 03:35:09",144636,3,"task-gjqt",NA,31894435,9431537,NA,"complete","xjuqtc","3FDJT1UU7A7FR4NOJWC8QE3GPUQK58","computer","Desktop or Laptop","Windows 10","Chrome 116.0.0.0","1366x768","1366x651",NA,NA,0,"BIQ (Charlotte)",3,"IJHAGBFCED","Passed AC2","","Spreadsheet1",1,"BIQ","Screen 1","9dh6eq",1,"response","5",7202.465,8501.019,8517.685,7202.465,8501.019,8517.685,1,7202.465,1315.22,0,NA,"Rating Scale","Rating Scale",17,"object-80","BIQ",NA,"SUPAMT83502"
"6",1695821718107,"27/09/2023 13:35:18",1695803718107,-5,"27/09/2023 03:35:18",144636,3,"task-gjqt",NA,31894435,9431537,NA,"complete","xjuqtc","3FDJT1UU7A7FR4NOJWC8QE3GPUQK58","computer","Desktop or Laptop","Windows 10","Chrome 116.0.0.0","1366x768","1366x651",NA,NA,0,"BIQ (Charlotte)",3,"IJHAGBFCED","Passed AC2","","Spreadsheet1",1,"BIQ","Screen 2","o21mwi",2,"continue","",8912.151,8902.541,8912.151,8912.151,8902.541,8912.151,1,8912.151,0,0,NA,"Click To Continue","Continue Button",22,"object-50","BIQ",NA,"SUPAMT83502"
"7",1695821718112,"27/09/2023 13:35:18",1695803718112,-5,"27/09/2023 03:35:18",144636,3,"task-gjqt",NA,31894435,9431537,NA,"complete","xjuqtc","3FDJT1UU7A7FR4NOJWC8QE3GPUQK58","computer","Desktop or Laptop","Windows 10","Chrome 116.0.0.0","1366x768","1366x651",NA,NA,0,"BIQ (Charlotte)",3,"IJHAGBFCED","Passed AC2","","Spreadsheet1",1,"BIQ","Screen 2","o21mwi",2,"response","5",5791.4,8902.541,8912.151,5791.4,8902.541,8912.151,1,5791.4,3120.751,0,NA,"Rating Scale","Rating Scale",2,"object-259","BIQ",NA,"SUPAMT83502"
"8",1695821718113,"27/09/2023 13:35:18",1695803718113,-5,"27/09/2023 03:35:18",144636,3,"task-gjqt",NA,31894435,9431537,NA,"complete","xjuqtc","3FDJT1UU7A7FR4NOJWC8QE3GPUQK58","computer","Desktop or Laptop","Windows 10","Chrome 116.0.0.0","1366x768","1366x651",NA,NA,0,"BIQ (Charlotte)",3,"IJHAGBFCED","Passed AC2","","Spreadsheet1",1,"BIQ","Screen 2","o21mwi",2,"response","6",6568.579,8902.541,8912.151,6568.579,8902.541,8912.151,1,6568.579,2343.572,0,NA,"Rating Scale","Rating Scale",9,"object-36","BIQ",NA,"SUPAMT83502"
"9",1695821718113,"27/09/2023 13:35:18",1695803718113,-5,"27/09/2023 03:35:18",144636,3,"task-gjqt",NA,31894435,9431537,NA,"complete","xjuqtc","3FDJT1UU7A7FR4NOJWC8QE3GPUQK58","computer","Desktop or Laptop","Windows 10","Chrome 116.0.0.0","1366x768","1366x651",NA,NA,0,"BIQ (Charlotte)",3,"IJHAGBFCED","Passed AC2","","Spreadsheet1",1,"BIQ","Screen 2","o21mwi",2,"response","7",7449.663,8902.541,8912.151,7449.663,8902.541,8912.151,1,7449.663,1462.488,0,NA,"Rating Scale","Rating Scale",16,"object-86","BIQ",NA,"SUPAMT83502"
"10",1695821721835,"27/09/2023 13:35:21",1695803721835,-5,"27/09/2023 03:35:21",144636,3,"task-gjqt",NA,31894435,9431537,NA,"complete","xjuqtc","3FDJT1UU7A7FR4NOJWC8QE3GPUQK58","computer","Desktop or Laptop","Windows 10","Chrome 116.0.0.0","1366x768","1366x651",NA,NA,0,"BIQ (Charlotte)",3,"IJHAGBFCED","Passed AC2","","Spreadsheet1",1,"BIQ","Screen 3","iz3the",3,"continue","",3737.633,3720.967,3737.633,3737.633,3720.967,3737.633,1,3737.633,0,0,NA,"Click To Continue","Continue Button",22,"object-73","BIQ",NA,"SUPAMT83502"
"11",1695821721835,"27/09/2023 13:35:21",1695803721835,-5,"27/09/2023 03:35:21",144636,3,"task-gjqt",NA,31894435,9431537,NA,"complete","xjuqtc","3FDJT1UU7A7FR4NOJWC8QE3GPUQK58","computer","Desktop or Laptop","Windows 10","Chrome 116.0.0.0","1366x768","1366x651",NA,NA,0,"BIQ (Charlotte)",3,"IJHAGBFCED","Passed AC2","","Spreadsheet1",1,"BIQ","Screen 3","iz3the",3,"response","5",1408.438,3720.967,3737.633,1408.438,3720.967,3737.633,1,1408.438,2329.195,0,NA,"Rating Scale","Rating Scale",2,"object-53","BIQ",NA,"SUPAMT83502"
"12",1695821721836,"27/09/2023 13:35:21",1695803721836,-5,"27/09/2023 03:35:21",144636,3,"task-gjqt",NA,31894435,9431537,NA,"complete","xjuqtc","3FDJT1UU7A7FR4NOJWC8QE3GPUQK58","computer","Desktop or Laptop","Windows 10","Chrome 116.0.0.0","1366x768","1366x651",NA,NA,0,"BIQ (Charlotte)",3,"IJHAGBFCED","Passed AC2","","Spreadsheet1",1,"BIQ","Screen 3","iz3the",3,"response","7",2114.162,3720.967,3737.633,2114.162,3720.967,3737.633,1,2114.162,1623.471,0,NA,"Rating Scale","Rating Scale",9,"object-60","BIQ",NA,"SUPAMT83502"
"13",1695821721836,"27/09/2023 13:35:21",1695803721836,-5,"27/09/2023 03:35:21",144636,3,"task-gjqt",NA,31894435,9431537,NA,"complete","xjuqtc","3FDJT1UU7A7FR4NOJWC8QE3GPUQK58","computer","Desktop or Laptop","Windows 10","Chrome 116.0.0.0","1366x768","1366x651",NA,NA,0,"BIQ (Charlotte)",3,"IJHAGBFCED","Passed AC2","","Spreadsheet1",1,"BIQ","Screen 3","iz3the",3,"response","6",2712.057,3720.967,3737.633,2712.057,3720.967,3737.633,1,2712.057,1025.576,0,NA,"Rating Scale","Rating Scale",16,"object-67","BIQ",NA,"SUPAMT83502"
"14",1695821721838,"27/09/2023 13:35:21",1695803721838,-5,"27/09/2023 03:35:21",144636,3,"task-gjqt",NA,31894435,9431537,NA,"complete","xjuqtc","3FDJT1UU7A7FR4NOJWC8QE3GPUQK58","computer","Desktop or Laptop","Windows 10","Chrome 116.0.0.0","1366x768","1366x651",NA,NA,0,"BIQ (Charlotte)",3,"IJHAGBFCED","Passed AC2","","Spreadsheet1",NA,"","","",NA,"5","END",NA,NA,NA,NA,NA,NA,0,NA,NA,NA,NA,"","",NA,"","",NA,"SUPAMT83502"
"1",1695818112213,"27/09/2023 12:35:12",1695803712213,-4,"27/09/2023 04:35:12",144636,3,"task-gjqt",NA,31894442,9431531,NA,"complete","fusbxb","3TXWC2NHN5PWGA28RVYRTGZSSKMS9O","computer","Desktop or Laptop","Windows 10","Chrome 116.0.0.0","1364x768","1515x687",NA,NA,0,"BIQ (Charlotte)",3,"GHFIEJDACB","Passed AC2","","Spreadsheet1",NA,"","","",NA,"5","BEGIN",NA,NA,NA,NA,NA,NA,0,NA,NA,NA,NA,"","",NA,"","",NA,"SUPAMT53839"
"2",1695818128118,"27/09/2023 12:35:28",1695803728118,-4,"27/09/2023 04:35:28",144636,3,"task-gjqt",NA,31894442,9431531,NA,"complete","fusbxb","3TXWC2NHN5PWGA28RVYRTGZSSKMS9O","computer","Desktop or Laptop","Windows 10","Chrome 116.0.0.0","1364x768","1515x687",NA,NA,0,"BIQ (Charlotte)",3,"GHFIEJDACB","Passed AC2","","Spreadsheet1",1,"BIQ","Screen 1","9dh6eq",1,"continue","",15960,15937.5,15960,15960,15937.5,15960,1,15960,0,0,NA,"Click To Continue","Continue Button",23,"object-48","BIQ",NA,"SUPAMT53839"
"3",1695818128122,"27/09/2023 12:35:28",1695803728122,-4,"27/09/2023 04:35:28",144636,3,"task-gjqt",NA,31894442,9431531,NA,"complete","fusbxb","3TXWC2NHN5PWGA28RVYRTGZSSKMS9O","computer","Desktop or Laptop","Windows 10","Chrome 116.0.0.0","1364x768","1515x687",NA,NA,0,"BIQ (Charlotte)",3,"GHFIEJDACB","Passed AC2","","Spreadsheet1",1,"BIQ","Screen 1","9dh6eq",1,"response","4",10687.5,15937.5,15967,10687.5,15937.5,15967,1,10687.5,5279.5,0,NA,"Rating Scale","Rating Scale",3,"object-5","BIQ",NA,"SUPAMT53839"
"4",1695818128122,"27/09/2023 12:35:28",1695803728122,-4,"27/09/2023 04:35:28",144636,3,"task-gjqt",NA,31894442,9431531,NA,"complete","fusbxb","3TXWC2NHN5PWGA28RVYRTGZSSKMS9O","computer","Desktop or Laptop","Windows 10","Chrome 116.0.0.0","1364x768","1515x687",NA,NA,0,"BIQ (Charlotte)",3,"GHFIEJDACB","Passed AC2","","Spreadsheet1",1,"BIQ","Screen 1","9dh6eq",1,"response","5",11750,15937.5,15968,11750,15937.5,15968,1,11750,4218,0,NA,"Rating Scale","Rating Scale",10,"object-18","BIQ",NA,"SUPAMT53839"
"5",1695818128123,"27/09/2023 12:35:28",1695803728123,-4,"27/09/2023 04:35:28",144636,3,"task-gjqt",NA,31894442,9431531,NA,"complete","fusbxb","3TXWC2NHN5PWGA28RVYRTGZSSKMS9O","computer","Desktop or Laptop","Windows 10","Chrome 116.0.0.0","1364x768","1515x687",NA,NA,0,"BIQ (Charlotte)",3,"GHFIEJDACB","Passed AC2","","Spreadsheet1",1,"BIQ","Screen 1","9dh6eq",1,"response","6",13187.5,15937.5,15968,13187.5,15937.5,15968,1,13187.5,2780.5,0,NA,"Rating Scale","Rating Scale",17,"object-80","BIQ",NA,"SUPAMT53839"
"6",1695818132986,"27/09/2023 12:35:32",1695803732986,-4,"27/09/2023 04:35:32",144636,3,"task-gjqt",NA,31894442,9431531,NA,"complete","fusbxb","3TXWC2NHN5PWGA28RVYRTGZSSKMS9O","computer","Desktop or Laptop","Windows 10","Chrome 116.0.0.0","1364x768","1515x687",NA,NA,0,"BIQ (Charlotte)",3,"GHFIEJDACB","Passed AC2","","Spreadsheet1",1,"BIQ","Screen 2","o21mwi",2,"continue","",4894.5,4875,4894.5,4894.5,4875,4894.5,1,4894.5,0,0,NA,"Click To Continue","Continue Button",22,"object-50","BIQ",NA,"SUPAMT53839"
"7",1695818132987,"27/09/2023 12:35:32",1695803732987,-4,"27/09/2023 04:35:32",144636,3,"task-gjqt",NA,31894442,9431531,NA,"complete","fusbxb","3TXWC2NHN5PWGA28RVYRTGZSSKMS9O","computer","Desktop or Laptop","Windows 10","Chrome 116.0.0.0","1364x768","1515x687",NA,NA,0,"BIQ (Charlotte)",3,"GHFIEJDACB","Passed AC2","","Spreadsheet1",1,"BIQ","Screen 2","o21mwi",2,"response","5",2218.75,4875,4895.5,2218.75,4875,4895.5,1,2218.75,2676.75,0,NA,"Rating Scale","Rating Scale",2,"object-259","BIQ",NA,"SUPAMT53839"
"8",1695818132987,"27/09/2023 12:35:32",1695803732987,-4,"27/09/2023 04:35:32",144636,3,"task-gjqt",NA,31894442,9431531,NA,"complete","fusbxb","3TXWC2NHN5PWGA28RVYRTGZSSKMS9O","computer","Desktop or Laptop","Windows 10","Chrome 116.0.0.0","1364x768","1515x687",NA,NA,0,"BIQ (Charlotte)",3,"GHFIEJDACB","Passed AC2","","Spreadsheet1",1,"BIQ","Screen 2","o21mwi",2,"response","4",3093.75,4875,4895.5,3093.75,4875,4895.5,1,3093.75,1801.75,0,NA,"Rating Scale","Rating Scale",9,"object-36","BIQ",NA,"SUPAMT53839"
"9",1695818132988,"27/09/2023 12:35:32",1695803732988,-4,"27/09/2023 04:35:32",144636,3,"task-gjqt",NA,31894442,9431531,NA,"complete","fusbxb","3TXWC2NHN5PWGA28RVYRTGZSSKMS9O","computer","Desktop or Laptop","Windows 10","Chrome 116.0.0.0","1364x768","1515x687",NA,NA,0,"BIQ (Charlotte)",3,"GHFIEJDACB","Passed AC2","","Spreadsheet1",1,"BIQ","Screen 2","o21mwi",2,"response","6",3875,4875,4896.5,3875,4875,4896.5,1,3875,1021.5,0,NA,"Rating Scale","Rating Scale",16,"object-86","BIQ",NA,"SUPAMT53839"
"10",1695818137495,"27/09/2023 12:35:37",1695803737495,-4,"27/09/2023 04:35:37",144636,3,"task-gjqt",NA,31894442,9431531,NA,"complete","fusbxb","3TXWC2NHN5PWGA28RVYRTGZSSKMS9O","computer","Desktop or Laptop","Windows 10","Chrome 116.0.0.0","1364x768","1515x687",NA,NA,0,"BIQ (Charlotte)",3,"GHFIEJDACB","Passed AC2","","Spreadsheet1",1,"BIQ","Screen 3","iz3the",3,"continue","",4527.5,4500,4527.5,4527.5,4500,4527.5,1,4527.5,0,0,NA,"Click To Continue","Continue Button",22,"object-73","BIQ",NA,"SUPAMT53839"
"11",1695818137495,"27/09/2023 12:35:37",1695803737495,-4,"27/09/2023 04:35:37",144636,3,"task-gjqt",NA,31894442,9431531,NA,"complete","fusbxb","3TXWC2NHN5PWGA28RVYRTGZSSKMS9O","computer","Desktop or Laptop","Windows 10","Chrome 116.0.0.0","1364x768","1515x687",NA,NA,0,"BIQ (Charlotte)",3,"GHFIEJDACB","Passed AC2","","Spreadsheet1",1,"BIQ","Screen 3","iz3the",3,"response","5",1937.5,4500,4528.5,1937.5,4500,4528.5,1,1937.5,2591,0,NA,"Rating Scale","Rating Scale",2,"object-53","BIQ",NA,"SUPAMT53839"
"12",1695818137496,"27/09/2023 12:35:37",1695803737496,-4,"27/09/2023 04:35:37",144636,3,"task-gjqt",NA,31894442,9431531,NA,"complete","fusbxb","3TXWC2NHN5PWGA28RVYRTGZSSKMS9O","computer","Desktop or Laptop","Windows 10","Chrome 116.0.0.0","1364x768","1515x687",NA,NA,0,"BIQ (Charlotte)",3,"GHFIEJDACB","Passed AC2","","Spreadsheet1",1,"BIQ","Screen 3","iz3the",3,"response","7",2562.5,4500,4528.5,2562.5,4500,4528.5,1,2562.5,1966,0,NA,"Rating Scale","Rating Scale",9,"object-60","BIQ",NA,"SUPAMT53839"
"13",1695818137496,"27/09/2023 12:35:37",1695803737496,-4,"27/09/2023 04:35:37",144636,3,"task-gjqt",NA,31894442,9431531,NA,"complete","fusbxb","3TXWC2NHN5PWGA28RVYRTGZSSKMS9O","computer","Desktop or Laptop","Windows 10","Chrome 116.0.0.0","1364x768","1515x687",NA,NA,0,"BIQ (Charlotte)",3,"GHFIEJDACB","Passed AC2","","Spreadsheet1",1,"BIQ","Screen 3","iz3the",3,"response","4",3500,4500,4529.5,3500,4500,4529.5,1,3500,1029.5,0,NA,"Rating Scale","Rating Scale",16,"object-67","BIQ",NA,"SUPAMT53839"
"14",1695818137498,"27/09/2023 12:35:37",1695803737498,-4,"27/09/2023 04:35:37",144636,3,"task-gjqt",NA,31894442,9431531,NA,"complete","fusbxb","3TXWC2NHN5PWGA28RVYRTGZSSKMS9O","computer","Desktop or Laptop","Windows 10","Chrome 116.0.0.0","1364x768","1515x687",NA,NA,0,"BIQ (Charlotte)",3,"GHFIEJDACB","Passed AC2","","Spreadsheet1",NA,"","","",NA,"5","END",NA,NA,NA,NA,NA,NA,0,NA,NA,NA,NA,"","",NA,"","",NA,"SUPAMT53839"
"1",1695818396088,"27/09/2023 12:39:56",1695803996088,-4,"27/09/2023 04:39:56",144636,3,"task-gjqt",NA,31894559,9431555,NA,"complete","sxmyof","354P56DE9Q2S2REFCY07FK8MXUY7SR","computer","Desktop or Laptop","Windows 10","Chrome 116.0.0.0","1536x864","1536x747",NA,NA,0,"BIQ (Charlotte)",3,"JAIBHCGDFE","Passed AC2","","Spreadsheet1",NA,"","","",NA,"5","BEGIN",NA,NA,NA,NA,NA,NA,0,NA,NA,NA,NA,"","",NA,"","",NA,"SUPAMT29912"
"2",1695818445718,"27/09/2023 12:40:45",1695804045718,-4,"27/09/2023 04:40:45",144636,3,"task-gjqt",NA,31894559,9431555,NA,"complete","sxmyof","354P56DE9Q2S2REFCY07FK8MXUY7SR","computer","Desktop or Laptop","Windows 10","Chrome 116.0.0.0","1536x864","1536x747",NA,NA,0,"BIQ (Charlotte)",3,"JAIBHCGDFE","Passed AC2","","Spreadsheet1",1,"BIQ","Screen 1","9dh6eq",1,"continue","",49656.0419999523,49652.403,49656.0419999523,49656.0419999523,49652.403,49656.0419999523,1,49656.0419999523,0,0,NA,"Click To Continue","Continue Button",23,"object-48","BIQ",NA,"SUPAMT29912"
"3",1695818445720,"27/09/2023 12:40:45",1695804045720,-4,"27/09/2023 04:40:45",144636,3,"task-gjqt",NA,31894559,9431555,NA,"complete","sxmyof","354P56DE9Q2S2REFCY07FK8MXUY7SR","computer","Desktop or Laptop","Windows 10","Chrome 116.0.0.0","1536x864","1536x747",NA,NA,0,"BIQ (Charlotte)",3,"JAIBHCGDFE","Passed AC2","","Spreadsheet1",1,"BIQ","Screen 1","9dh6eq",1,"response","4",48177.373,49652.403,49659.242,48177.373,49652.403,49659.242,1,48177.373,1481.869,0,NA,"Rating Scale","Rating Scale",3,"object-5","BIQ",NA,"SUPAMT29912"
"4",1695818445720,"27/09/2023 12:40:45",1695804045720,-4,"27/09/2023 04:40:45",144636,3,"task-gjqt",NA,31894559,9431555,NA,"complete","sxmyof","354P56DE9Q2S2REFCY07FK8MXUY7SR","computer","Desktop or Laptop","Windows 10","Chrome 116.0.0.0","1536x864","1536x747",NA,NA,0,"BIQ (Charlotte)",3,"JAIBHCGDFE","Passed AC2","","Spreadsheet1",1,"BIQ","Screen 1","9dh6eq",1,"response","5",48725.49,49652.403,49659.6419998569,48725.49,49652.403,49659.6419998569,1,48725.49,934.151999856949,0,NA,"Rating Scale","Rating Scale",10,"object-18","BIQ",NA,"SUPAMT29912"
"5",1695818445721,"27/09/2023 12:40:45",1695804045721,-4,"27/09/2023 04:40:45",144636,3,"task-gjqt",NA,31894559,9431555,NA,"complete","sxmyof","354P56DE9Q2S2REFCY07FK8MXUY7SR","computer","Desktop or Laptop","Windows 10","Chrome 116.0.0.0","1536x864","1536x747",NA,NA,0,"BIQ (Charlotte)",3,"JAIBHCGDFE","Passed AC2","","Spreadsheet1",1,"BIQ","Screen 1","9dh6eq",1,"response","4",49325.582,49652.403,49660.0419999523,49325.582,49652.403,49660.0419999523,1,49325.582,334.45999995232,0,NA,"Rating Scale","Rating Scale",17,"object-80","BIQ",NA,"SUPAMT29912"
"6",1695818449076,"27/09/2023 12:40:49",1695804049076,-4,"27/09/2023 04:40:49",144636,3,"task-gjqt",NA,31894559,9431555,NA,"complete","sxmyof","354P56DE9Q2S2REFCY07FK8MXUY7SR","computer","Desktop or Laptop","Windows 10","Chrome 116.0.0.0","1536x864","1536x747",NA,NA,0,"BIQ (Charlotte)",3,"JAIBHCGDFE","Passed AC2","","Spreadsheet1",1,"BIQ","Screen 2","o21mwi",2,"continue","",3362.839,3358.443,3362.839,3362.839,3358.443,3362.839,1,3362.839,0,0,NA,"Click To Continue","Continue Button",22,"object-50","BIQ",NA,"SUPAMT29912"
"7",1695818449077,"27/09/2023 12:40:49",1695804049077,-4,"27/09/2023 04:40:49",144636,3,"task-gjqt",NA,31894559,9431555,NA,"complete","sxmyof","354P56DE9Q2S2REFCY07FK8MXUY7SR","computer","Desktop or Laptop","Windows 10","Chrome 116.0.0.0","1536x864","1536x747",NA,NA,0,"BIQ (Charlotte)",3,"JAIBHCGDFE","Passed AC2","","Spreadsheet1",1,"BIQ","Screen 2","o21mwi",2,"response","5",1524.783,3358.443,3363.23899985695,1524.783,3358.443,3363.23899985695,1,1524.783,1838.45599985695,0,NA,"Rating Scale","Rating Scale",2,"object-259","BIQ",NA,"SUPAMT29912"
"8",1695818449077,"27/09/2023 12:40:49",1695804049077,-4,"27/09/2023 04:40:49",144636,3,"task-gjqt",NA,31894559,9431555,NA,"complete","sxmyof","354P56DE9Q2S2REFCY07FK8MXUY7SR","computer","Desktop or Laptop","Windows 10","Chrome 116.0.0.0","1536x864","1536x747",NA,NA,0,"BIQ (Charlotte)",3,"JAIBHCGDFE","Passed AC2","","Spreadsheet1",1,"BIQ","Screen 2","o21mwi",2,"response","4",1970.635,3358.443,3363.73899985695,1970.635,3358.443,3363.73899985695,1,1970.635,1393.10399985695,0,NA,"Rating Scale","Rating Scale",9,"object-36","BIQ",NA,"SUPAMT29912"
"9",1695818449077,"27/09/2023 12:40:49",1695804049077,-4,"27/09/2023 04:40:49",144636,3,"task-gjqt",NA,31894559,9431555,NA,"complete","sxmyof","354P56DE9Q2S2REFCY07FK8MXUY7SR","computer","Desktop or Laptop","Windows 10","Chrome 116.0.0.0","1536x864","1536x747",NA,NA,0,"BIQ (Charlotte)",3,"JAIBHCGDFE","Passed AC2","","Spreadsheet1",1,"BIQ","Screen 2","o21mwi",2,"response","5",2788.078,3358.443,3364.13899995232,2788.078,3358.443,3364.13899995232,1,2788.078,576.060999952315,0,NA,"Rating Scale","Rating Scale",16,"object-86","BIQ",NA,"SUPAMT29912"
"10",1695818451884,"27/09/2023 12:40:51",1695804051884,-4,"27/09/2023 04:40:51",144636,3,"task-gjqt",NA,31894559,9431555,NA,"complete","sxmyof","354P56DE9Q2S2REFCY07FK8MXUY7SR","computer","Desktop or Laptop","Windows 10","Chrome 116.0.0.0","1536x864","1536x747",NA,NA,0,"BIQ (Charlotte)",3,"JAIBHCGDFE","Passed AC2","","Spreadsheet1",1,"BIQ","Screen 3","iz3the",3,"continue","",2812.09600004768,2809.456,2812.09600004768,2812.09600004768,2809.456,2812.09600004768,1,2812.09600004768,0,0,NA,"Click To Continue","Continue Button",22,"object-73","BIQ",NA,"SUPAMT29912"
"11",1695818451885,"27/09/2023 12:40:51",1695804051885,-4,"27/09/2023 04:40:51",144636,3,"task-gjqt",NA,31894559,9431555,NA,"complete","sxmyof","354P56DE9Q2S2REFCY07FK8MXUY7SR","computer","Desktop or Laptop","Windows 10","Chrome 116.0.0.0","1536x864","1536x747",NA,NA,0,"BIQ (Charlotte)",3,"JAIBHCGDFE","Passed AC2","","Spreadsheet1",1,"BIQ","Screen 3","iz3the",3,"response","5",1214.371,2809.456,2812.896,1214.371,2809.456,2812.896,1,1214.371,1598.525,0,NA,"Rating Scale","Rating Scale",2,"object-53","BIQ",NA,"SUPAMT29912"
"12",1695818451885,"27/09/2023 12:40:51",1695804051885,-4,"27/09/2023 04:40:51",144636,3,"task-gjqt",NA,31894559,9431555,NA,"complete","sxmyof","354P56DE9Q2S2REFCY07FK8MXUY7SR","computer","Desktop or Laptop","Windows 10","Chrome 116.0.0.0","1536x864","1536x747",NA,NA,0,"BIQ (Charlotte)",3,"JAIBHCGDFE","Passed AC2","","Spreadsheet1",1,"BIQ","Screen 3","iz3the",3,"response","4",1736.779,2809.456,2813.396,1736.779,2809.456,2813.396,1,1736.779,1076.617,0,NA,"Rating Scale","Rating Scale",9,"object-60","BIQ",NA,"SUPAMT29912"
"13",1695818451885,"27/09/2023 12:40:51",1695804051885,-4,"27/09/2023 04:40:51",144636,3,"task-gjqt",NA,31894559,9431555,NA,"complete","sxmyof","354P56DE9Q2S2REFCY07FK8MXUY7SR","computer","Desktop or Laptop","Windows 10","Chrome 116.0.0.0","1536x864","1536x747",NA,NA,0,"BIQ (Charlotte)",3,"JAIBHCGDFE","Passed AC2","","Spreadsheet1",1,"BIQ","Screen 3","iz3the",3,"response","5",2268.031,2809.456,2813.79599985695,2268.031,2809.456,2813.79599985695,1,2268.031,545.764999856947,0,NA,"Rating Scale","Rating Scale",16,"object-67","BIQ",NA,"SUPAMT29912"
"14",1695818451887,"27/09/2023 12:40:51",1695804051887,-4,"27/09/2023 04:40:51",144636,3,"task-gjqt",NA,31894559,9431555,NA,"complete","sxmyof","354P56DE9Q2S2REFCY07FK8MXUY7SR","computer","Desktop or Laptop","Windows 10","Chrome 116.0.0.0","1536x864","1536x747",NA,NA,0,"BIQ (Charlotte)",3,"JAIBHCGDFE","Passed AC2","","Spreadsheet1",NA,"","","",NA,"5","END",NA,NA,NA,NA,NA,NA,0,NA,NA,NA,NA,"","",NA,"","",NA,"SUPAMT29912"
"1",1695818976249,"27/09/2023 12:49:36",1695804576249,-4,"27/09/2023 04:49:36",144636,3,"task-gjqt",NA,31894775,9431579,NA,"complete","cezdrw","3XIQGXAUMI70Y80E686UESPEC90X7P","computer","Desktop or Laptop","Windows 10","Chrome 114.0.0.0","1366x768","1366x625",NA,NA,0,"BIQ (Charlotte)",3,"CDBEAFJGIH","Passed AC2","","Spreadsheet1",NA,"","","",NA,"5","BEGIN",NA,NA,NA,NA,NA,NA,0,NA,NA,NA,NA,"","",NA,"","",NA,"SUPAMT08809"
"2",1695818985550,"27/09/2023 12:49:45",1695804585550,-4,"27/09/2023 04:49:45",144636,3,"task-gjqt",NA,31894775,9431579,NA,"complete","cezdrw","3XIQGXAUMI70Y80E686UESPEC90X7P","computer","Desktop or Laptop","Windows 10","Chrome 114.0.0.0","1366x768","1366x625",NA,NA,0,"BIQ (Charlotte)",3,"CDBEAFJGIH","Passed AC2","","Spreadsheet1",1,"BIQ","Screen 1","9dh6eq",1,"continue","",9312.678,9296.012,9312.678,9312.678,9296.012,9312.678,1,9312.678,0,0,NA,"Click To Continue","Continue Button",23,"object-48","BIQ",NA,"SUPAMT08809"
"3",1695818985551,"27/09/2023 12:49:45",1695804585551,-4,"27/09/2023 04:49:45",144636,3,"task-gjqt",NA,31894775,9431579,NA,"complete","cezdrw","3XIQGXAUMI70Y80E686UESPEC90X7P","computer","Desktop or Laptop","Windows 10","Chrome 114.0.0.0","1366x768","1366x625",NA,NA,0,"BIQ (Charlotte)",3,"CDBEAFJGIH","Passed AC2","","Spreadsheet1",1,"BIQ","Screen 1","9dh6eq",1,"response","8",3403.722,9296.012,9312.678,3403.722,9296.012,9312.678,1,3403.722,5908.956,0,NA,"Rating Scale","Rating Scale",3,"object-5","BIQ",NA,"SUPAMT08809"
"4",1695818985551,"27/09/2023 12:49:45",1695804585551,-4,"27/09/2023 04:49:45",144636,3,"task-gjqt",NA,31894775,9431579,NA,"complete","cezdrw","3XIQGXAUMI70Y80E686UESPEC90X7P","computer","Desktop or Laptop","Windows 10","Chrome 114.0.0.0","1366x768","1366x625",NA,NA,0,"BIQ (Charlotte)",3,"CDBEAFJGIH","Passed AC2","","Spreadsheet1",1,"BIQ","Screen 1","9dh6eq",1,"response","6",4083.425,9296.012,9312.678,4083.425,9296.012,9312.678,1,4083.425,5229.253,0,NA,"Rating Scale","Rating Scale",10,"object-18","BIQ",NA,"SUPAMT08809"
"5",1695818985552,"27/09/2023 12:49:45",1695804585552,-4,"27/09/2023 04:49:45",144636,3,"task-gjqt",NA,31894775,9431579,NA,"complete","cezdrw","3XIQGXAUMI70Y80E686UESPEC90X7P","computer","Desktop or Laptop","Windows 10","Chrome 114.0.0.0","1366x768","1366x625",NA,NA,0,"BIQ (Charlotte)",3,"CDBEAFJGIH","Passed AC2","","Spreadsheet1",1,"BIQ","Screen 1","9dh6eq",1,"response","7",4723.807,9296.012,9312.678,4723.807,9296.012,9312.678,1,4723.807,4588.871,0,NA,"Rating Scale","Rating Scale",17,"object-80","BIQ",NA,"SUPAMT08809"
"6",1695818991011,"27/09/2023 12:49:51",1695804591011,-4,"27/09/2023 04:49:51",144636,3,"task-gjqt",NA,31894775,9431579,NA,"complete","cezdrw","3XIQGXAUMI70Y80E686UESPEC90X7P","computer","Desktop or Laptop","Windows 10","Chrome 114.0.0.0","1366x768","1366x625",NA,NA,0,"BIQ (Charlotte)",3,"CDBEAFJGIH","Passed AC2","","Spreadsheet1",1,"BIQ","Screen 2","o21mwi",2,"continue","",5480.60899923706,5475.215,5480.60899923706,5480.60899923706,5475.215,5480.60899923706,1,5480.60899923706,0,0,NA,"Click To Continue","Continue Button",22,"object-50","BIQ",NA,"SUPAMT08809"
"7",1695818991015,"27/09/2023 12:49:51",1695804591015,-4,"27/09/2023 04:49:51",144636,3,"task-gjqt",NA,31894775,9431579,NA,"complete","cezdrw","3XIQGXAUMI70Y80E686UESPEC90X7P","computer","Desktop or Laptop","Windows 10","Chrome 114.0.0.0","1366x768","1366x625",NA,NA,0,"BIQ (Charlotte)",3,"CDBEAFJGIH","Passed AC2","","Spreadsheet1",1,"BIQ","Screen 2","o21mwi",2,"response","7",2212.383,5475.215,5484.40899942779,2212.383,5475.215,5484.40899942779,1,2212.383,3272.02599942779,0,NA,"Rating Scale","Rating Scale",2,"object-259","BIQ",NA,"SUPAMT08809"
"8",1695818991016,"27/09/2023 12:49:51",1695804591016,-4,"27/09/2023 04:49:51",144636,3,"task-gjqt",NA,31894775,9431579,NA,"complete","cezdrw","3XIQGXAUMI70Y80E686UESPEC90X7P","computer","Desktop or Laptop","Windows 10","Chrome 114.0.0.0","1366x768","1366x625",NA,NA,0,"BIQ (Charlotte)",3,"CDBEAFJGIH","Passed AC2","","Spreadsheet1",1,"BIQ","Screen 2","o21mwi",2,"response","6",2939.459,5475.215,5484.90899942779,2939.459,5475.215,5484.90899942779,1,2939.459,2545.44999942779,0,NA,"Rating Scale","Rating Scale",9,"object-36","BIQ",NA,"SUPAMT08809"
"9",1695818991016,"27/09/2023 12:49:51",1695804591016,-4,"27/09/2023 04:49:51",144636,3,"task-gjqt",NA,31894775,9431579,NA,"complete","cezdrw","3XIQGXAUMI70Y80E686UESPEC90X7P","computer","Desktop or Laptop","Windows 10","Chrome 114.0.0.0","1366x768","1366x625",NA,NA,0,"BIQ (Charlotte)",3,"CDBEAFJGIH","Passed AC2","","Spreadsheet1",1,"BIQ","Screen 2","o21mwi",2,"response","8",3921.282,5475.215,5485.50899980926,3921.282,5475.215,5485.50899980926,1,3921.282,1564.22699980926,0,NA,"Rating Scale","Rating Scale",16,"object-86","BIQ",NA,"SUPAMT08809"
"10",1695818996850,"27/09/2023 12:49:56",1695804596850,-4,"27/09/2023 04:49:56",144636,3,"task-gjqt",NA,31894775,9431579,NA,"complete","cezdrw","3XIQGXAUMI70Y80E686UESPEC90X7P","computer","Desktop or Laptop","Windows 10","Chrome 114.0.0.0","1366x768","1366x625",NA,NA,0,"BIQ (Charlotte)",3,"CDBEAFJGIH","Passed AC2","","Spreadsheet1",1,"BIQ","Screen 3","iz3the",3,"continue","",5842.786,5826.12,5842.786,5842.786,5826.12,5842.786,1,5842.786,0,0,NA,"Click To Continue","Continue Button",22,"object-73","BIQ",NA,"SUPAMT08809"
"11",1695818996851,"27/09/2023 12:49:56",1695804596851,-4,"27/09/2023 04:49:56",144636,3,"task-gjqt",NA,31894775,9431579,NA,"complete","cezdrw","3XIQGXAUMI70Y80E686UESPEC90X7P","computer","Desktop or Laptop","Windows 10","Chrome 114.0.0.0","1366x768","1366x625",NA,NA,0,"BIQ (Charlotte)",3,"CDBEAFJGIH","Passed AC2","","Spreadsheet1",1,"BIQ","Screen 3","iz3the",3,"response","6",2963.6,5826.12,5842.786,2963.6,5826.12,5842.786,1,2963.6,2879.186,0,NA,"Rating Scale","Rating Scale",2,"object-53","BIQ",NA,"SUPAMT08809"
"12",1695818996851,"27/09/2023 12:49:56",1695804596851,-4,"27/09/2023 04:49:56",144636,3,"task-gjqt",NA,31894775,9431579,NA,"complete","cezdrw","3XIQGXAUMI70Y80E686UESPEC90X7P","computer","Desktop or Laptop","Windows 10","Chrome 114.0.0.0","1366x768","1366x625",NA,NA,0,"BIQ (Charlotte)",3,"CDBEAFJGIH","Passed AC2","","Spreadsheet1",1,"BIQ","Screen 3","iz3the",3,"response","4",4401.132,5826.12,5842.786,4401.132,5826.12,5842.786,1,4401.132,1441.654,0,NA,"Rating Scale","Rating Scale",9,"object-60","BIQ",NA,"SUPAMT08809"
"13",1695818996852,"27/09/2023 12:49:56",1695804596852,-4,"27/09/2023 04:49:56",144636,3,"task-gjqt",NA,31894775,9431579,NA,"complete","cezdrw","3XIQGXAUMI70Y80E686UESPEC90X7P","computer","Desktop or Laptop","Windows 10","Chrome 114.0.0.0","1366x768","1366x625",NA,NA,0,"BIQ (Charlotte)",3,"CDBEAFJGIH","Passed AC2","","Spreadsheet1",1,"BIQ","Screen 3","iz3the",3,"response","6",4970.931,5826.12,5842.786,4970.931,5826.12,5842.786,1,4970.931,871.855000000003,0,NA,"Rating Scale","Rating Scale",16,"object-67","BIQ",NA,"SUPAMT08809"
"14",1695818996857,"27/09/2023 12:49:56",1695804596857,-4,"27/09/2023 04:49:56",144636,3,"task-gjqt",NA,31894775,9431579,NA,"complete","cezdrw","3XIQGXAUMI70Y80E686UESPEC90X7P","computer","Desktop or Laptop","Windows 10","Chrome 114.0.0.0","1366x768","1366x625",NA,NA,0,"BIQ (Charlotte)",3,"CDBEAFJGIH","Passed AC2","","Spreadsheet1",NA,"","","",NA,"5","END",NA,NA,NA,NA,NA,NA,0,NA,NA,NA,NA,"","",NA,"","",NA,"SUPAMT08809"
"1",1695819059864,"27/09/2023 12:50:59",1695804659864,-4,"27/09/2023 04:50:59",144636,3,"task-gjqt",NA,31894783,9431541,NA,"complete","xfhrha","38F71OA9GZV2JPGGAK2XR3MX3TZMFY","computer","Desktop or Laptop","Windows 10","Chrome 116.0.0.0","1364x768","1364x651",NA,NA,0,"BIQ (Charlotte)",3,"BCADJEIFHG","Passed AC2","","Spreadsheet1",NA,"","","",NA,"5","BEGIN",NA,NA,NA,NA,NA,NA,0,NA,NA,NA,NA,"","",NA,"","",NA,"SUPAMT63428"
"2",1695819095206,"27/09/2023 12:51:35",1695804695206,-4,"27/09/2023 04:51:35",144636,3,"task-gjqt",NA,31894783,9431541,NA,"complete","xfhrha","38F71OA9GZV2JPGGAK2XR3MX3TZMFY","computer","Desktop or Laptop","Windows 10","Chrome 116.0.0.0","1364x768","1364x651",NA,NA,0,"BIQ (Charlotte)",3,"BCADJEIFHG","Passed AC2","","Spreadsheet1",1,"BIQ","Screen 1","9dh6eq",1,"continue","",40526.1999998093,40514.225,40526.1999998093,40526.1999998093,40514.225,40526.1999998093,1,40526.1999998093,0,0,NA,"Click To Continue","Continue Button",23,"object-48","BIQ",NA,"SUPAMT63428"
"3",1695819095209,"27/09/2023 12:51:35",1695804695209,-4,"27/09/2023 04:51:35",144636,3,"task-gjqt",NA,31894783,9431541,NA,"complete","xfhrha","38F71OA9GZV2JPGGAK2XR3MX3TZMFY","computer","Desktop or Laptop","Windows 10","Chrome 116.0.0.0","1364x768","1364x651",NA,NA,0,"BIQ (Charlotte)",3,"BCADJEIFHG","Passed AC2","","Spreadsheet1",1,"BIQ","Screen 1","9dh6eq",1,"response","4",35707.072,40514.225,40529.7999999523,35707.072,40514.225,40529.7999999523,1,35707.072,4822.72799995232,0,NA,"Rating Scale","Rating Scale",3,"object-5","BIQ",NA,"SUPAMT63428"
"4",1695819095210,"27/09/2023 12:51:35",1695804695210,-4,"27/09/2023 04:51:35",144636,3,"task-gjqt",NA,31894783,9431541,NA,"complete","xfhrha","38F71OA9GZV2JPGGAK2XR3MX3TZMFY","computer","Desktop or Laptop","Windows 10","Chrome 116.0.0.0","1364x768","1364x651",NA,NA,0,"BIQ (Charlotte)",3,"BCADJEIFHG","Passed AC2","","Spreadsheet1",1,"BIQ","Screen 1","9dh6eq",1,"response","3",37514.94,40514.225,40530.5,37514.94,40514.225,40530.5,1,37514.94,3015.56,0,NA,"Rating Scale","Rating Scale",10,"object-18","BIQ",NA,"SUPAMT63428"
"5",1695819095210,"27/09/2023 12:51:35",1695804695210,-4,"27/09/2023 04:51:35",144636,3,"task-gjqt",NA,31894783,9431541,NA,"complete","xfhrha","38F71OA9GZV2JPGGAK2XR3MX3TZMFY","computer","Desktop or Laptop","Windows 10","Chrome 116.0.0.0","1364x768","1364x651",NA,NA,0,"BIQ (Charlotte)",3,"BCADJEIFHG","Passed AC2","","Spreadsheet1",1,"BIQ","Screen 1","9dh6eq",1,"response","6",39187.984,40514.225,40530.891,39187.984,40514.225,40530.891,1,39187.984,1342.907,0,NA,"Rating Scale","Rating Scale",17,"object-80","BIQ",NA,"SUPAMT63428"
"6",1695819102336,"27/09/2023 12:51:42",1695804702336,-4,"27/09/2023 04:51:42",144636,3,"task-gjqt",NA,31894783,9431541,NA,"complete","xfhrha","38F71OA9GZV2JPGGAK2XR3MX3TZMFY","computer","Desktop or Laptop","Windows 10","Chrome 116.0.0.0","1364x768","1364x651",NA,NA,0,"BIQ (Charlotte)",3,"BCADJEIFHG","Passed AC2","","Spreadsheet1",1,"BIQ","Screen 2","o21mwi",2,"continue","",7141.17499985695,7135.778,7141.17499985695,7141.17499985695,7135.778,7141.17499985695,1,7141.17499985695,0,0,NA,"Click To Continue","Continue Button",22,"object-50","BIQ",NA,"SUPAMT63428"
"7",1695819102337,"27/09/2023 12:51:42",1695804702337,-4,"27/09/2023 04:51:42",144636,3,"task-gjqt",NA,31894783,9431541,NA,"complete","xfhrha","38F71OA9GZV2JPGGAK2XR3MX3TZMFY","computer","Desktop or Laptop","Windows 10","Chrome 116.0.0.0","1364x768","1364x651",NA,NA,0,"BIQ (Charlotte)",3,"BCADJEIFHG","Passed AC2","","Spreadsheet1",1,"BIQ","Screen 2","o21mwi",2,"response","4",2851.313,7135.778,7141.87499990463,2851.313,7135.778,7141.87499990463,1,2851.313,4290.56199990463,0,NA,"Rating Scale","Rating Scale",2,"object-259","BIQ",NA,"SUPAMT63428"
"8",1695819102337,"27/09/2023 12:51:42",1695804702337,-4,"27/09/2023 04:51:42",144636,3,"task-gjqt",NA,31894783,9431541,NA,"complete","xfhrha","38F71OA9GZV2JPGGAK2XR3MX3TZMFY","computer","Desktop or Laptop","Windows 10","Chrome 116.0.0.0","1364x768","1364x651",NA,NA,0,"BIQ (Charlotte)",3,"BCADJEIFHG","Passed AC2","","Spreadsheet1",1,"BIQ","Screen 2","o21mwi",2,"response","2",4185.093,7135.778,7142.275,4185.093,7135.778,7142.275,1,4185.093,2957.182,0,NA,"Rating Scale","Rating Scale",9,"object-36","BIQ",NA,"SUPAMT63428"
"9",1695819102338,"27/09/2023 12:51:42",1695804702338,-4,"27/09/2023 04:51:42",144636,3,"task-gjqt",NA,31894783,9431541,NA,"complete","xfhrha","38F71OA9GZV2JPGGAK2XR3MX3TZMFY","computer","Desktop or Laptop","Windows 10","Chrome 116.0.0.0","1364x768","1364x651",NA,NA,0,"BIQ (Charlotte)",3,"BCADJEIFHG","Passed AC2","","Spreadsheet1",1,"BIQ","Screen 2","o21mwi",2,"response","7",6573.003,7135.778,7142.67499985695,6573.003,7135.778,7142.67499985695,1,6573.003,569.671999856946,0,NA,"Rating Scale","Rating Scale",16,"object-86","BIQ",NA,"SUPAMT63428"
"10",1695819110376,"27/09/2023 12:51:50",1695804710376,-4,"27/09/2023 04:51:50",144636,3,"task-gjqt",NA,31894783,9431541,NA,"complete","xfhrha","38F71OA9GZV2JPGGAK2XR3MX3TZMFY","computer","Desktop or Laptop","Windows 10","Chrome 116.0.0.0","1364x768","1364x651",NA,NA,0,"BIQ (Charlotte)",3,"BCADJEIFHG","Passed AC2","","Spreadsheet1",1,"BIQ","Screen 3","iz3the",3,"continue","",8044.997,8037.342,8044.997,8044.997,8037.342,8044.997,1,8044.997,0,0,NA,"Click To Continue","Continue Button",22,"object-73","BIQ",NA,"SUPAMT63428"
"11",1695819110380,"27/09/2023 12:51:50",1695804710380,-4,"27/09/2023 04:51:50",144636,3,"task-gjqt",NA,31894783,9431541,NA,"complete","xfhrha","38F71OA9GZV2JPGGAK2XR3MX3TZMFY","computer","Desktop or Laptop","Windows 10","Chrome 116.0.0.0","1364x768","1364x651",NA,NA,0,"BIQ (Charlotte)",3,"BCADJEIFHG","Passed AC2","","Spreadsheet1",1,"BIQ","Screen 3","iz3the",3,"response","8",2990.609,8037.342,8049.09699990464,2990.609,8037.342,8049.09699990464,1,2990.609,5058.48799990463,0,NA,"Rating Scale","Rating Scale",2,"object-53","BIQ",NA,"SUPAMT63428"
"12",1695819110381,"27/09/2023 12:51:50",1695804710381,-4,"27/09/2023 04:51:50",144636,3,"task-gjqt",NA,31894783,9431541,NA,"complete","xfhrha","38F71OA9GZV2JPGGAK2XR3MX3TZMFY","computer","Desktop or Laptop","Windows 10","Chrome 116.0.0.0","1364x768","1364x651",NA,NA,0,"BIQ (Charlotte)",3,"BCADJEIFHG","Passed AC2","","Spreadsheet1",1,"BIQ","Screen 3","iz3the",3,"response","8",4997.291,8037.342,8049.997,4997.291,8037.342,8049.997,1,4997.291,3052.706,0,NA,"Rating Scale","Rating Scale",9,"object-60","BIQ",NA,"SUPAMT63428"
"13",1695819110381,"27/09/2023 12:51:50",1695804710381,-4,"27/09/2023 04:51:50",144636,3,"task-gjqt",NA,31894783,9431541,NA,"complete","xfhrha","38F71OA9GZV2JPGGAK2XR3MX3TZMFY","computer","Desktop or Laptop","Windows 10","Chrome 116.0.0.0","1364x768","1364x651",NA,NA,0,"BIQ (Charlotte)",3,"BCADJEIFHG","Passed AC2","","Spreadsheet1",1,"BIQ","Screen 3","iz3the",3,"response","8",5759.36500000001,8037.342,8050.59699990464,5759.36500000001,8037.342,8050.59699990464,1,5759.36500000001,2291.23199990463,0,NA,"Rating Scale","Rating Scale",16,"object-67","BIQ",NA,"SUPAMT63428"
"14",1695819110384,"27/09/2023 12:51:50",1695804710384,-4,"27/09/2023 04:51:50",144636,3,"task-gjqt",NA,31894783,9431541,NA,"complete","xfhrha","38F71OA9GZV2JPGGAK2XR3MX3TZMFY","computer","Desktop or Laptop","Windows 10","Chrome 116.0.0.0","1364x768","1364x651",NA,NA,0,"BIQ (Charlotte)",3,"BCADJEIFHG","Passed AC2","","Spreadsheet1",NA,"","","",NA,"5","END",NA,NA,NA,NA,NA,NA,0,NA,NA,NA,NA,"","",NA,"","",NA,"SUPAMT63428"
"15",1695819170564,"27/09/2023 12:52:50",1695804770564,-4,"27/09/2023 04:52:50",144636,3,"task-gjqt",NA,31894783,9431541,NA,"complete","xfhrha","38F71OA9GZV2JPGGAK2XR3MX3TZMFY","computer","Desktop or Laptop","Windows 10","Chrome 116.0.0.0","1364x768","1364x651",NA,NA,0,"BIQ (Charlotte)",3,"BCADJEIFHG","Passed AC2","","Spreadsheet1",NA,"","","",NA,"5","BEGIN",NA,NA,NA,NA,NA,NA,0,NA,NA,NA,NA,"","",NA,"","",NA,"SUPAMT63428"
"16",1695819170568,"27/09/2023 12:52:50",1695804770568,-4,"27/09/2023 04:52:50",144636,3,"task-gjqt",NA,31894783,9431541,NA,"complete","xfhrha","38F71OA9GZV2JPGGAK2XR3MX3TZMFY","computer","Desktop or Laptop","Windows 10","Chrome 116.0.0.0","1364x768","1364x651",NA,NA,0,"BIQ (Charlotte)",3,"BCADJEIFHG","Passed AC2","","Spreadsheet1",NA,"","","",NA,"5","END",NA,NA,NA,NA,NA,NA,0,NA,NA,NA,NA,"","",NA,"","",NA,"SUPAMT63428"
"1",1695819236676,"27/09/2023 12:53:56",1695804836676,-4,"27/09/2023 04:53:56",144636,3,"task-gjqt",NA,31894886,9431580,NA,"complete","rlziyp","3TVSS0C0E7Z876SV96D9H53PS4LWT7","computer","Desktop or Laptop","Windows 10","Chrome 116.0.0.0","1280x720","1280x571",NA,NA,0,"BIQ (Charlotte)",3,"GHFIEJDACB","Passed AC2","","Spreadsheet1",NA,"","","",NA,"5","BEGIN",NA,NA,NA,NA,NA,NA,0,NA,NA,NA,NA,"","",NA,"","",NA,"SUPAMT51662"
"2",1695819306218,"27/09/2023 12:55:06",1695804906218,-4,"27/09/2023 04:55:06",144636,3,"task-gjqt",NA,31894886,9431580,NA,"complete","rlziyp","3TVSS0C0E7Z876SV96D9H53PS4LWT7","computer","Desktop or Laptop","Windows 10","Chrome 116.0.0.0","1280x720","1280x571",NA,NA,0,"BIQ (Charlotte)",3,"GHFIEJDACB","Passed AC2","","Spreadsheet1",1,"BIQ","Screen 1","9dh6eq",1,"continue","",69562,69531.25,69562,69562,69531.25,69562,1,69562,0,0,NA,"Click To Continue","Continue Button",23,"object-48","BIQ",NA,"SUPAMT51662"
"3",1695819306223,"27/09/2023 12:55:06",1695804906223,-4,"27/09/2023 04:55:06",144636,3,"task-gjqt",NA,31894886,9431580,NA,"complete","rlziyp","3TVSS0C0E7Z876SV96D9H53PS4LWT7","computer","Desktop or Laptop","Windows 10","Chrome 116.0.0.0","1280x720","1280x571",NA,NA,0,"BIQ (Charlotte)",3,"GHFIEJDACB","Passed AC2","","Spreadsheet1",1,"BIQ","Screen 1","9dh6eq",1,"response","5",30781.25,69531.25,69562.5,30781.25,69531.25,69562.5,1,30781.25,38781.25,0,NA,"Rating Scale","Rating Scale",3,"object-5","BIQ",NA,"SUPAMT51662"
"4",1695819306224,"27/09/2023 12:55:06",1695804906224,-4,"27/09/2023 04:55:06",144636,3,"task-gjqt",NA,31894886,9431580,NA,"complete","rlziyp","3TVSS0C0E7Z876SV96D9H53PS4LWT7","computer","Desktop or Laptop","Windows 10","Chrome 116.0.0.0","1280x720","1280x571",NA,NA,0,"BIQ (Charlotte)",3,"GHFIEJDACB","Passed AC2","","Spreadsheet1",1,"BIQ","Screen 1","9dh6eq",1,"response","4",32500,69531.25,69562.5,32500,69531.25,69562.5,1,32500,37062.5,0,NA,"Rating Scale","Rating Scale",10,"object-18","BIQ",NA,"SUPAMT51662"
"5",1695819306225,"27/09/2023 12:55:06",1695804906225,-4,"27/09/2023 04:55:06",144636,3,"task-gjqt",NA,31894886,9431580,NA,"complete","rlziyp","3TVSS0C0E7Z876SV96D9H53PS4LWT7","computer","Desktop or Laptop","Windows 10","Chrome 116.0.0.0","1280x720","1280x571",NA,NA,0,"BIQ (Charlotte)",3,"GHFIEJDACB","Passed AC2","","Spreadsheet1",1,"BIQ","Screen 1","9dh6eq",1,"response","3",55218.75,69531.25,69562.5,55218.75,69531.25,69562.5,1,55218.75,14343.75,0,NA,"Rating Scale","Rating Scale",17,"object-80","BIQ",NA,"SUPAMT51662"
"6",1695819338771,"27/09/2023 12:55:38",1695804938771,-4,"27/09/2023 04:55:38",144636,3,"task-gjqt",NA,31894886,9431580,NA,"complete","rlziyp","3TVSS0C0E7Z876SV96D9H53PS4LWT7","computer","Desktop or Laptop","Windows 10","Chrome 116.0.0.0","1280x720","1280x571",NA,NA,0,"BIQ (Charlotte)",3,"GHFIEJDACB","Passed AC2","","Spreadsheet1",1,"BIQ","Screen 2","o21mwi",2,"continue","",32589.75,32562.5,32589.75,32589.75,32562.5,32589.75,1,32589.75,0,0,NA,"Click To Continue","Continue Button",22,"object-50","BIQ",NA,"SUPAMT51662"
"7",1695819338775,"27/09/2023 12:55:38",1695804938775,-4,"27/09/2023 04:55:38",144636,3,"task-gjqt",NA,31894886,9431580,NA,"complete","rlziyp","3TVSS0C0E7Z876SV96D9H53PS4LWT7","computer","Desktop or Laptop","Windows 10","Chrome 116.0.0.0","1280x720","1280x571",NA,NA,0,"BIQ (Charlotte)",3,"GHFIEJDACB","Passed AC2","","Spreadsheet1",1,"BIQ","Screen 2","o21mwi",2,"response","4",4218.75,32562.5,32593.75,4218.75,32562.5,32593.75,1,4218.75,28375,0,NA,"Rating Scale","Rating Scale",2,"object-259","BIQ",NA,"SUPAMT51662"
"8",1695819338775,"27/09/2023 12:55:38",1695804938775,-4,"27/09/2023 04:55:38",144636,3,"task-gjqt",NA,31894886,9431580,NA,"complete","rlziyp","3TVSS0C0E7Z876SV96D9H53PS4LWT7","computer","Desktop or Laptop","Windows 10","Chrome 116.0.0.0","1280x720","1280x571",NA,NA,0,"BIQ (Charlotte)",3,"GHFIEJDACB","Passed AC2","","Spreadsheet1",1,"BIQ","Screen 2","o21mwi",2,"response","3",5062.5,32562.5,32593.75,5062.5,32562.5,32593.75,1,5062.5,27531.25,0,NA,"Rating Scale","Rating Scale",9,"object-36","BIQ",NA,"SUPAMT51662"
"9",1695819338776,"27/09/2023 12:55:38",1695804938776,-4,"27/09/2023 04:55:38",144636,3,"task-gjqt",NA,31894886,9431580,NA,"complete","rlziyp","3TVSS0C0E7Z876SV96D9H53PS4LWT7","computer","Desktop or Laptop","Windows 10","Chrome 116.0.0.0","1280x720","1280x571",NA,NA,0,"BIQ (Charlotte)",3,"GHFIEJDACB","Passed AC2","","Spreadsheet1",1,"BIQ","Screen 2","o21mwi",2,"response","5",17125,32562.5,32593.75,17125,32562.5,32593.75,1,17125,15468.75,0,NA,"Rating Scale","Rating Scale",16,"object-86","BIQ",NA,"SUPAMT51662"
"10",1695819354690,"27/09/2023 12:55:54",1695804954690,-4,"27/09/2023 04:55:54",144636,3,"task-gjqt",NA,31894886,9431580,NA,"complete","rlziyp","3TVSS0C0E7Z876SV96D9H53PS4LWT7","computer","Desktop or Laptop","Windows 10","Chrome 116.0.0.0","1280x720","1280x571",NA,NA,0,"BIQ (Charlotte)",3,"GHFIEJDACB","Passed AC2","","Spreadsheet1",1,"BIQ","Screen 3","iz3the",3,"continue","",15937.5,15906.25,15937.5,15937.5,15906.25,15937.5,1,15937.5,0,0,NA,"Click To Continue","Continue Button",22,"object-73","BIQ",NA,"SUPAMT51662"
"11",1695819354706,"27/09/2023 12:55:54",1695804954706,-4,"27/09/2023 04:55:54",144636,3,"task-gjqt",NA,31894886,9431580,NA,"complete","rlziyp","3TVSS0C0E7Z876SV96D9H53PS4LWT7","computer","Desktop or Laptop","Windows 10","Chrome 116.0.0.0","1280x720","1280x571",NA,NA,0,"BIQ (Charlotte)",3,"GHFIEJDACB","Passed AC2","","Spreadsheet1",1,"BIQ","Screen 3","iz3the",3,"response","5",3093.75,15906.25,15937.5,3093.75,15906.25,15937.5,1,3093.75,12843.75,0,NA,"Rating Scale","Rating Scale",2,"object-53","BIQ",NA,"SUPAMT51662"
"12",1695819354707,"27/09/2023 12:55:54",1695804954707,-4,"27/09/2023 04:55:54",144636,3,"task-gjqt",NA,31894886,9431580,NA,"complete","rlziyp","3TVSS0C0E7Z876SV96D9H53PS4LWT7","computer","Desktop or Laptop","Windows 10","Chrome 116.0.0.0","1280x720","1280x571",NA,NA,0,"BIQ (Charlotte)",3,"GHFIEJDACB","Passed AC2","","Spreadsheet1",1,"BIQ","Screen 3","iz3the",3,"response","5",4218.75,15906.25,15937.5,4218.75,15906.25,15937.5,1,4218.75,11718.75,0,NA,"Rating Scale","Rating Scale",9,"object-60","BIQ",NA,"SUPAMT51662"
"13",1695819354709,"27/09/2023 12:55:54",1695804954709,-4,"27/09/2023 04:55:54",144636,3,"task-gjqt",NA,31894886,9431580,NA,"complete","rlziyp","3TVSS0C0E7Z876SV96D9H53PS4LWT7","computer","Desktop or Laptop","Windows 10","Chrome 116.0.0.0","1280x720","1280x571",NA,NA,0,"BIQ (Charlotte)",3,"GHFIEJDACB","Passed AC2","","Spreadsheet1",1,"BIQ","Screen 3","iz3the",3,"response","4",5000,15906.25,15937.5,5000,15906.25,15937.5,1,5000,10937.5,0,NA,"Rating Scale","Rating Scale",16,"object-67","BIQ",NA,"SUPAMT51662"
"14",1695819354717,"27/09/2023 12:55:54",1695804954717,-4,"27/09/2023 04:55:54",144636,3,"task-gjqt",NA,31894886,9431580,NA,"complete","rlziyp","3TVSS0C0E7Z876SV96D9H53PS4LWT7","computer","Desktop or Laptop","Windows 10","Chrome 116.0.0.0","1280x720","1280x571",NA,NA,0,"BIQ (Charlotte)",3,"GHFIEJDACB","Passed AC2","","Spreadsheet1",NA,"","","",NA,"5","END",NA,NA,NA,NA,NA,NA,0,NA,NA,NA,NA,"","",NA,"","",NA,"SUPAMT51662"
"1",1695823536339,"27/09/2023 14:05:36",1695805536339,-5,"27/09/2023 04:05:36",144636,3,"task-gjqt",NA,31895208,9431569,NA,"complete","akgoar","3RSDURM96GLA7S5YYC623GO402YEYY","computer","Desktop or Laptop","Windows 10","Chrome 116.0.0.0","1536x864","1536x747",NA,NA,0,"BIQ (Charlotte)",3,"ABJCIDHEGF","Passed AC2","","Spreadsheet1",NA,"","","",NA,"5","BEGIN",NA,NA,NA,NA,NA,NA,0,NA,NA,NA,NA,"","",NA,"","",NA,"SUPAMT07312"
"2",1695823556798,"27/09/2023 14:05:56",1695805556798,-5,"27/09/2023 04:05:56",144636,3,"task-gjqt",NA,31895208,9431569,NA,"complete","akgoar","3RSDURM96GLA7S5YYC623GO402YEYY","computer","Desktop or Laptop","Windows 10","Chrome 116.0.0.0","1536x864","1536x747",NA,NA,0,"BIQ (Charlotte)",3,"ABJCIDHEGF","Passed AC2","","Spreadsheet1",1,"BIQ","Screen 1","9dh6eq",1,"continue","",20499.5,20468.75,20499.5,20499.5,20468.75,20499.5,1,20499.5,0,0,NA,"Click To Continue","Continue Button",23,"object-48","BIQ",NA,"SUPAMT07312"
"3",1695823556801,"27/09/2023 14:05:56",1695805556801,-5,"27/09/2023 04:05:56",144636,3,"task-gjqt",NA,31895208,9431569,NA,"complete","akgoar","3RSDURM96GLA7S5YYC623GO402YEYY","computer","Desktop or Laptop","Windows 10","Chrome 116.0.0.0","1536x864","1536x747",NA,NA,0,"BIQ (Charlotte)",3,"ABJCIDHEGF","Passed AC2","","Spreadsheet1",1,"BIQ","Screen 1","9dh6eq",1,"response","0",14062.5,20468.75,20500,14062.5,20468.75,20500,1,14062.5,6437.5,0,NA,"Rating Scale","Rating Scale",3,"object-5","BIQ",NA,"SUPAMT07312"
"4",1695823556801,"27/09/2023 14:05:56",1695805556801,-5,"27/09/2023 04:05:56",144636,3,"task-gjqt",NA,31895208,9431569,NA,"complete","akgoar","3RSDURM96GLA7S5YYC623GO402YEYY","computer","Desktop or Laptop","Windows 10","Chrome 116.0.0.0","1536x864","1536x747",NA,NA,0,"BIQ (Charlotte)",3,"ABJCIDHEGF","Passed AC2","","Spreadsheet1",1,"BIQ","Screen 1","9dh6eq",1,"response","1",14781.25,20468.75,20500,14781.25,20468.75,20500,1,14781.25,5718.75,0,NA,"Rating Scale","Rating Scale",10,"object-18","BIQ",NA,"SUPAMT07312"
"5",1695823556802,"27/09/2023 14:05:56",1695805556802,-5,"27/09/2023 04:05:56",144636,3,"task-gjqt",NA,31895208,9431569,NA,"complete","akgoar","3RSDURM96GLA7S5YYC623GO402YEYY","computer","Desktop or Laptop","Windows 10","Chrome 116.0.0.0","1536x864","1536x747",NA,NA,0,"BIQ (Charlotte)",3,"ABJCIDHEGF","Passed AC2","","Spreadsheet1",1,"BIQ","Screen 1","9dh6eq",1,"response","2",15562.5,20468.75,20500,15562.5,20468.75,20500,1,15562.5,4937.5,0,NA,"Rating Scale","Rating Scale",17,"object-80","BIQ",NA,"SUPAMT07312"
"6",1695823570388,"27/09/2023 14:06:10",1695805570388,-5,"27/09/2023 04:06:10",144636,3,"task-gjqt",NA,31895208,9431569,NA,"complete","akgoar","3RSDURM96GLA7S5YYC623GO402YEYY","computer","Desktop or Laptop","Windows 10","Chrome 116.0.0.0","1536x864","1536x747",NA,NA,0,"BIQ (Charlotte)",3,"ABJCIDHEGF","Passed AC2","","Spreadsheet1",1,"BIQ","Screen 2","o21mwi",2,"continue","",13623.75,13593.75,13623.75,13623.75,13593.75,13623.75,1,13623.75,0,0,NA,"Click To Continue","Continue Button",22,"object-50","BIQ",NA,"SUPAMT07312"
"7",1695823570394,"27/09/2023 14:06:10",1695805570394,-5,"27/09/2023 04:06:10",144636,3,"task-gjqt",NA,31895208,9431569,NA,"complete","akgoar","3RSDURM96GLA7S5YYC623GO402YEYY","computer","Desktop or Laptop","Windows 10","Chrome 116.0.0.0","1536x864","1536x747",NA,NA,0,"BIQ (Charlotte)",3,"ABJCIDHEGF","Passed AC2","","Spreadsheet1",1,"BIQ","Screen 2","o21mwi",2,"response","1",11031.25,13593.75,13625,11031.25,13593.75,13625,1,11031.25,2593.75,0,NA,"Rating Scale","Rating Scale",2,"object-259","BIQ",NA,"SUPAMT07312"
"8",1695823570394,"27/09/2023 14:06:10",1695805570394,-5,"27/09/2023 04:06:10",144636,3,"task-gjqt",NA,31895208,9431569,NA,"complete","akgoar","3RSDURM96GLA7S5YYC623GO402YEYY","computer","Desktop or Laptop","Windows 10","Chrome 116.0.0.0","1536x864","1536x747",NA,NA,0,"BIQ (Charlotte)",3,"ABJCIDHEGF","Passed AC2","","Spreadsheet1",1,"BIQ","Screen 2","o21mwi",2,"response","1",12000,13593.75,13625,12000,13593.75,13625,1,12000,1625,0,NA,"Rating Scale","Rating Scale",9,"object-36","BIQ",NA,"SUPAMT07312"
"9",1695823570395,"27/09/2023 14:06:10",1695805570395,-5,"27/09/2023 04:06:10",144636,3,"task-gjqt",NA,31895208,9431569,NA,"complete","akgoar","3RSDURM96GLA7S5YYC623GO402YEYY","computer","Desktop or Laptop","Windows 10","Chrome 116.0.0.0","1536x864","1536x747",NA,NA,0,"BIQ (Charlotte)",3,"ABJCIDHEGF","Passed AC2","","Spreadsheet1",1,"BIQ","Screen 2","o21mwi",2,"response","1",12625,13593.75,13625,12625,13593.75,13625,1,12625,1000,0,NA,"Rating Scale","Rating Scale",16,"object-86","BIQ",NA,"SUPAMT07312"
