"Event.Index","UTC.Timestamp","UTC.Date.and.Time","Local.Timestamp","Local.Timezone","Local.Date.and.Time","Experiment.ID","Experiment.Version","Tree.Node.Key","Repeat.Key","Schedule.ID","Participant.Private.ID","Participant.Starting.Group","Participant.Status","Participant.Completion.Code","Participant.External.Session.ID","Participant.Device.Type","Participant.Device","Participant.OS","Participant.Browser","Participant.Monitor.Size","Participant.Viewport.Size","Checkpoint","Room.ID","Room.Order","Task.Name","Task.Version","order.ot79","branch.g31k","branch.5gtn","Spreadsheet","Trial.Number","Display","Screen","Screen.ID","Screen.Counter","Response.Type","Response","Onset.Time","Clock.Time","Reaction.Time","Absolute.Onset.Time","Absolute.Clock.Time","Absolute.Reaction.Time","Correct","Response.Onset","Response.Duration","Proportion","Tag","Component.Name","Object.Name","Object.Number","Object.ID","Spreadsheet..display","Manipulation..Spreadsheet","Random_ID"
1,1701279410795,"29/11/2023 17:36:50",1701279410795,0,"29/11/2023 17:36:50",154366,3,"task-gjqt",NA,33302778,9860482,NA,"complete",NA,"656773d7099cebee231fd9fb","computer","Desktop or Laptop","Mac OS 10.15.7","Chrome 119.0.0.0","1440x900","1092x681",NA,NA,0,"BIQ (Charlotte)",3,"ABJCIDHEGF","Passed AC2",NA,"Spreadsheet1",NA,"","","",NA,"5","BEGIN",NA,NA,NA,NA,NA,NA,0,NA,NA,NA,NA,"","",NA,"","",NA,"SUPPRF08618"
2,1701279430684,"29/11/2023 17:37:10",1701279430684,0,"29/11/2023 17:37:10",154366,3,"task-gjqt",NA,33302778,9860482,NA,"complete",NA,"656773d7099cebee231fd9fb","computer","Desktop or Laptop","Mac OS 10.15.7","Chrome 119.0.0.0","1440x900","1092x681",NA,NA,0,"BIQ (Charlotte)",3,"ABJCIDHEGF","Passed AC2",NA,"Spreadsheet1",1,"BIQ","Screen 1","9dh6eq",1,"continue","",19913.246,19900.732,19913.246,19913.246,19900.732,19913.246,1,19913.246,0,0,NA,"Click To Continue","Continue Button",23,"object-48","BIQ",NA,"SUPPRF08618"
3,1701279430686,"29/11/2023 17:37:10",1701279430686,0,"29/11/2023 17:37:10",154366,3,"task-gjqt",NA,33302778,9860482,NA,"complete",NA,"656773d7099cebee231fd9fb","computer","Desktop or Laptop","Mac OS 10.15.7","Chrome 119.0.0.0","1440x900","1092x681",NA,NA,0,"BIQ (Charlotte)",3,"ABJCIDHEGF","Passed AC2",NA,"Spreadsheet1",1,"BIQ","Screen 1","9dh6eq",1,"response","4",8099.676,19900.732,19916.0460000119,8099.676,19900.732,19916.0460000119,1,8099.676,11816.3700000119,0,NA,"Rating Scale","Rating Scale",3,"object-5","BIQ",NA,"SUPPRF08618"
4,1701279430687,"29/11/2023 17:37:10",1701279430687,0,"29/11/2023 17:37:10",154366,3,"task-gjqt",NA,33302778,9860482,NA,"complete",NA,"656773d7099cebee231fd9fb","computer","Desktop or Laptop","Mac OS 10.15.7","Chrome 119.0.0.0","1440x900","1092x681",NA,NA,0,"BIQ (Charlotte)",3,"ABJCIDHEGF","Passed AC2",NA,"Spreadsheet1",1,"BIQ","Screen 1","9dh6eq",1,"response","2",13700.217,19900.732,19916.4460000179,13700.217,19900.732,19916.4460000179,1,13700.217,6216.22900001788,0,NA,"Rating Scale","Rating Scale",10,"object-18","BIQ",NA,"SUPPRF08618"
5,1701279430687,"29/11/2023 17:37:10",1701279430687,0,"29/11/2023 17:37:10",154366,3,"task-gjqt",NA,33302778,9860482,NA,"complete",NA,"656773d7099cebee231fd9fb","computer","Desktop or Laptop","Mac OS 10.15.7","Chrome 119.0.0.0","1440x900","1092x681",NA,NA,0,"BIQ (Charlotte)",3,"ABJCIDHEGF","Passed AC2",NA,"Spreadsheet1",1,"BIQ","Screen 1","9dh6eq",1,"response","7",19167.428,19900.732,19916.9460000179,19167.428,19900.732,19916.9460000179,1,19167.428,749.518000017881,0,NA,"Rating Scale","Rating Scale",17,"object-80","BIQ",NA,"SUPPRF08618"
6,1701279447995,"29/11/2023 17:37:27",1701279447995,0,"29/11/2023 17:37:27",154366,3,"task-gjqt",NA,33302778,9860482,NA,"complete",NA,"656773d7099cebee231fd9fb","computer","Desktop or Laptop","Mac OS 10.15.7","Chrome 119.0.0.0","1440x900","1092x681",NA,NA,0,"BIQ (Charlotte)",3,"ABJCIDHEGF","Passed AC2",NA,"Spreadsheet1",1,"BIQ","Screen 2","o21mwi",2,"continue","",17325.014,17316.729,17325.014,17325.014,17316.729,17325.014,1,17325.014,0,0,NA,"Click To Continue","Continue Button",22,"object-50","BIQ",NA,"SUPPRF08618"
7,1701279447998,"29/11/2023 17:37:27",1701279447998,0,"29/11/2023 17:37:27",154366,3,"task-gjqt",NA,33302778,9860482,NA,"complete",NA,"656773d7099cebee231fd9fb","computer","Desktop or Laptop","Mac OS 10.15.7","Chrome 119.0.0.0","1440x900","1092x681",NA,NA,0,"BIQ (Charlotte)",3,"ABJCIDHEGF","Passed AC2",NA,"Spreadsheet1",1,"BIQ","Screen 2","o21mwi",2,"response","6",3966.508,17316.729,17327.613999994,3966.508,17316.729,17327.613999994,1,3966.508,13361.105999994,0,NA,"Rating Scale","Rating Scale",2,"object-259","BIQ",NA,"SUPPRF08618"
8,1701279447998,"29/11/2023 17:37:27",1701279447998,0,"29/11/2023 17:37:27",154366,3,"task-gjqt",NA,33302778,9860482,NA,"complete",NA,"656773d7099cebee231fd9fb","computer","Desktop or Laptop","Mac OS 10.15.7","Chrome 119.0.0.0","1440x900","1092x681",NA,NA,0,"BIQ (Charlotte)",3,"ABJCIDHEGF","Passed AC2",NA,"Spreadsheet1",1,"BIQ","Screen 2","o21mwi",2,"response","7",8516.326,17316.729,17328.113999994,8516.326,17316.729,17328.113999994,1,8516.326,8811.78799999404,0,NA,"Rating Scale","Rating Scale",9,"object-36","BIQ",NA,"SUPPRF08618"
9,1701279447999,"29/11/2023 17:37:27",1701279447999,0,"29/11/2023 17:37:27",154366,3,"task-gjqt",NA,33302778,9860482,NA,"complete",NA,"656773d7099cebee231fd9fb","computer","Desktop or Laptop","Mac OS 10.15.7","Chrome 119.0.0.0","1440x900","1092x681",NA,NA,0,"BIQ (Charlotte)",3,"ABJCIDHEGF","Passed AC2",NA,"Spreadsheet1",1,"BIQ","Screen 2","o21mwi",2,"response","7",16266.771,17316.729,17328.514,16266.771,17316.729,17328.514,1,16266.771,1061.743,0,NA,"Rating Scale","Rating Scale",16,"object-86","BIQ",NA,"SUPPRF08618"
10,1701279458111,"29/11/2023 17:37:38",1701279458111,0,"29/11/2023 17:37:38",154366,3,"task-gjqt",NA,33302778,9860482,NA,"complete",NA,"656773d7099cebee231fd9fb","computer","Desktop or Laptop","Mac OS 10.15.7","Chrome 119.0.0.0","1440x900","1092x681",NA,NA,0,"BIQ (Charlotte)",3,"ABJCIDHEGF","Passed AC2",NA,"Spreadsheet1",1,"BIQ","Screen 3","iz3the",3,"continue","",10124.4850000179,10117.018,10124.4850000179,10124.4850000179,10117.018,10124.4850000179,1,10124.4850000179,0,0,NA,"Click To Continue","Continue Button",22,"object-73","BIQ",NA,"SUPPRF08618"
11,1701279458114,"29/11/2023 17:37:38",1701279458114,0,"29/11/2023 17:37:38",154366,3,"task-gjqt",NA,33302778,9860482,NA,"complete",NA,"656773d7099cebee231fd9fb","computer","Desktop or Laptop","Mac OS 10.15.7","Chrome 119.0.0.0","1440x900","1092x681",NA,NA,0,"BIQ (Charlotte)",3,"ABJCIDHEGF","Passed AC2",NA,"Spreadsheet1",1,"BIQ","Screen 3","iz3the",3,"response","1",5200.548,10117.018,10127.384999994,5200.548,10117.018,10127.384999994,1,5200.548,4926.83699999404,0,NA,"Rating Scale","Rating Scale",2,"object-53","BIQ",NA,"SUPPRF08618"
12,1701279458115,"29/11/2023 17:37:38",1701279458115,0,"29/11/2023 17:37:38",154366,3,"task-gjqt",NA,33302778,9860482,NA,"complete",NA,"656773d7099cebee231fd9fb","computer","Desktop or Laptop","Mac OS 10.15.7","Chrome 119.0.0.0","1440x900","1092x681",NA,NA,0,"BIQ (Charlotte)",3,"ABJCIDHEGF","Passed AC2",NA,"Spreadsheet1",1,"BIQ","Screen 3","iz3the",3,"response","5",7733.78000000001,10117.018,10128.0850000119,7733.78000000001,10117.018,10128.0850000119,1,7733.78000000001,2394.30500001192,0,NA,"Rating Scale","Rating Scale",9,"object-60","BIQ",NA,"SUPPRF08618"
13,1701279458115,"29/11/2023 17:37:38",1701279458115,0,"29/11/2023 17:37:38",154366,3,"task-gjqt",NA,33302778,9860482,NA,"complete",NA,"656773d7099cebee231fd9fb","computer","Desktop or Laptop","Mac OS 10.15.7","Chrome 119.0.0.0","1440x900","1092x681",NA,NA,0,"BIQ (Charlotte)",3,"ABJCIDHEGF","Passed AC2",NA,"Spreadsheet1",1,"BIQ","Screen 3","iz3the",3,"response","8",9333.716,10117.018,10128.685000006,9333.716,10117.018,10128.685000006,1,9333.716,794.969000005964,0,NA,"Rating Scale","Rating Scale",16,"object-67","BIQ",NA,"SUPPRF08618"
14,1701279458121,"29/11/2023 17:37:38",1701279458121,0,"29/11/2023 17:37:38",154366,3,"task-gjqt",NA,33302778,9860482,NA,"complete",NA,"656773d7099cebee231fd9fb","computer","Desktop or Laptop","Mac OS 10.15.7","Chrome 119.0.0.0","1440x900","1092x681",NA,NA,0,"BIQ (Charlotte)",3,"ABJCIDHEGF","Passed AC2",NA,"Spreadsheet1",NA,"","","",NA,"5","END",NA,NA,NA,NA,NA,NA,0,NA,NA,NA,NA,"","",NA,"","",NA,"SUPPRF08618"
1,1701281302489,"29/11/2023 18:08:22",1701281302489,0,"29/11/2023 18:08:22",154366,3,"task-gjqt",NA,33303511,9860753,NA,"complete",NA,"65677c149b3b22c39c0b7b43","computer","Desktop or Laptop","Mac OS 10.15.7","Chrome 119.0.0.0","1512x982","1512x824",NA,NA,0,"BIQ (Charlotte)",3,"DECFBGAHJI","Passed AC2",NA,"Spreadsheet1",NA,"","","",NA,"5","BEGIN",NA,NA,NA,NA,NA,NA,0,NA,NA,NA,NA,"","",NA,"","",NA,"SUPPRF47263"
2,1701281329486,"29/11/2023 18:08:49",1701281329486,0,"29/11/2023 18:08:49",154366,3,"task-gjqt",NA,33303511,9860753,NA,"complete",NA,"65677c149b3b22c39c0b7b43","computer","Desktop or Laptop","Mac OS 10.15.7","Chrome 119.0.0.0","1512x982","1512x824",NA,NA,0,"BIQ (Charlotte)",3,"DECFBGAHJI","Passed AC2",NA,"Spreadsheet1",1,"BIQ","Screen 1","9dh6eq",1,"continue","",26999.99,26991.657,26999.99,26999.99,26991.657,26999.99,1,26999.99,0,0,NA,"Click To Continue","Continue Button",23,"object-48","BIQ",NA,"SUPPRF47263"
3,1701281329489,"29/11/2023 18:08:49",1701281329489,0,"29/11/2023 18:08:49",154366,3,"task-gjqt",NA,33303511,9860753,NA,"complete",NA,"65677c149b3b22c39c0b7b43","computer","Desktop or Laptop","Mac OS 10.15.7","Chrome 119.0.0.0","1512x982","1512x824",NA,NA,0,"BIQ (Charlotte)",3,"DECFBGAHJI","Passed AC2",NA,"Spreadsheet1",1,"BIQ","Screen 1","9dh6eq",1,"response","2",19283.265,26991.657,26999.99,19283.265,26991.657,26999.99,1,19283.265,7716.725,0,NA,"Rating Scale","Rating Scale",3,"object-5","BIQ",NA,"SUPPRF47263"
4,1701281329489,"29/11/2023 18:08:49",1701281329489,0,"29/11/2023 18:08:49",154366,3,"task-gjqt",NA,33303511,9860753,NA,"complete",NA,"65677c149b3b22c39c0b7b43","computer","Desktop or Laptop","Mac OS 10.15.7","Chrome 119.0.0.0","1512x982","1512x824",NA,NA,0,"BIQ (Charlotte)",3,"DECFBGAHJI","Passed AC2",NA,"Spreadsheet1",1,"BIQ","Screen 1","9dh6eq",1,"response","2",22291.845,26991.657,26999.99,22291.845,26991.657,26999.99,1,22291.845,4708.145,0,NA,"Rating Scale","Rating Scale",10,"object-18","BIQ",NA,"SUPPRF47263"
5,1701281329490,"29/11/2023 18:08:49",1701281329490,0,"29/11/2023 18:08:49",154366,3,"task-gjqt",NA,33303511,9860753,NA,"complete",NA,"65677c149b3b22c39c0b7b43","computer","Desktop or Laptop","Mac OS 10.15.7","Chrome 119.0.0.0","1512x982","1512x824",NA,NA,0,"BIQ (Charlotte)",3,"DECFBGAHJI","Passed AC2",NA,"Spreadsheet1",1,"BIQ","Screen 1","9dh6eq",1,"response","6",25375.055,26991.657,26999.99,25375.055,26991.657,26999.99,1,25375.055,1624.935,0,NA,"Rating Scale","Rating Scale",17,"object-80","BIQ",NA,"SUPPRF47263"
6,1701281347066,"29/11/2023 18:09:07",1701281347066,0,"29/11/2023 18:09:07",154366,3,"task-gjqt",NA,33303511,9860753,NA,"complete",NA,"65677c149b3b22c39c0b7b43","computer","Desktop or Laptop","Mac OS 10.15.7","Chrome 119.0.0.0","1512x982","1512x824",NA,NA,0,"BIQ (Charlotte)",3,"DECFBGAHJI","Passed AC2",NA,"Spreadsheet1",1,"BIQ","Screen 2","o21mwi",2,"continue","",17591.664,17583.331,17591.664,17591.664,17583.331,17591.664,1,17591.664,0,0,NA,"Click To Continue","Continue Button",22,"object-50","BIQ",NA,"SUPPRF47263"
7,1701281347070,"29/11/2023 18:09:07",1701281347070,0,"29/11/2023 18:09:07",154366,3,"task-gjqt",NA,33303511,9860753,NA,"complete",NA,"65677c149b3b22c39c0b7b43","computer","Desktop or Laptop","Mac OS 10.15.7","Chrome 119.0.0.0","1512x982","1512x824",NA,NA,0,"BIQ (Charlotte)",3,"DECFBGAHJI","Passed AC2",NA,"Spreadsheet1",1,"BIQ","Screen 2","o21mwi",2,"response","2",6816.727,17583.331,17591.664,6816.727,17583.331,17591.664,1,6816.727,10774.937,0,NA,"Rating Scale","Rating Scale",2,"object-259","BIQ",NA,"SUPPRF47263"
8,1701281347070,"29/11/2023 18:09:07",1701281347070,0,"29/11/2023 18:09:07",154366,3,"task-gjqt",NA,33303511,9860753,NA,"complete",NA,"65677c149b3b22c39c0b7b43","computer","Desktop or Laptop","Mac OS 10.15.7","Chrome 119.0.0.0","1512x982","1512x824",NA,NA,0,"BIQ (Charlotte)",3,"DECFBGAHJI","Passed AC2",NA,"Spreadsheet1",1,"BIQ","Screen 2","o21mwi",2,"response","6",10916.563,17583.331,17591.664,10916.563,17583.331,17591.664,1,10916.563,6675.101,0,NA,"Rating Scale","Rating Scale",9,"object-36","BIQ",NA,"SUPPRF47263"
9,1701281347070,"29/11/2023 18:09:07",1701281347070,0,"29/11/2023 18:09:07",154366,3,"task-gjqt",NA,33303511,9860753,NA,"complete",NA,"65677c149b3b22c39c0b7b43","computer","Desktop or Laptop","Mac OS 10.15.7","Chrome 119.0.0.0","1512x982","1512x824",NA,NA,0,"BIQ (Charlotte)",3,"DECFBGAHJI","Passed AC2",NA,"Spreadsheet1",1,"BIQ","Screen 2","o21mwi",2,"response","7",13266.469,17583.331,17591.664,13266.469,17583.331,17591.664,1,13266.469,4325.195,0,NA,"Rating Scale","Rating Scale",16,"object-86","BIQ",NA,"SUPPRF47263"
10,1701281368647,"29/11/2023 18:09:28",1701281368647,0,"29/11/2023 18:09:28",154366,3,"task-gjqt",NA,33303511,9860753,NA,"complete",NA,"65677c149b3b22c39c0b7b43","computer","Desktop or Laptop","Mac OS 10.15.7","Chrome 119.0.0.0","1512x982","1512x824",NA,NA,0,"BIQ (Charlotte)",3,"DECFBGAHJI","Passed AC2",NA,"Spreadsheet1",1,"BIQ","Screen 3","iz3the",3,"continue","",21590.2960000022,21583.171,21590.2960000022,21590.2960000022,21583.171,21590.2960000022,1,21590.2960000022,0,0,NA,"Click To Continue","Continue Button",22,"object-73","BIQ",NA,"SUPPRF47263"
11,1701281368650,"29/11/2023 18:09:28",1701281368650,0,"29/11/2023 18:09:28",154366,3,"task-gjqt",NA,33303511,9860753,NA,"complete",NA,"65677c149b3b22c39c0b7b43","computer","Desktop or Laptop","Mac OS 10.15.7","Chrome 119.0.0.0","1512x982","1512x824",NA,NA,0,"BIQ (Charlotte)",3,"DECFBGAHJI","Passed AC2",NA,"Spreadsheet1",1,"BIQ","Screen 3","iz3the",3,"response","3",11333.247,21583.171,21591.504,11333.247,21583.171,21591.504,1,11333.247,10258.257,0,NA,"Rating Scale","Rating Scale",2,"object-53","BIQ",NA,"SUPPRF47263"
12,1701281368651,"29/11/2023 18:09:28",1701281368651,0,"29/11/2023 18:09:28",154366,3,"task-gjqt",NA,33303511,9860753,NA,"complete",NA,"65677c149b3b22c39c0b7b43","computer","Desktop or Laptop","Mac OS 10.15.7","Chrome 119.0.0.0","1512x982","1512x824",NA,NA,0,"BIQ (Charlotte)",3,"DECFBGAHJI","Passed AC2",NA,"Spreadsheet1",1,"BIQ","Screen 3","iz3the",3,"response","6",14958.102,21583.171,21591.504,14958.102,21583.171,21591.504,1,14958.102,6633.40199999999,0,NA,"Rating Scale","Rating Scale",9,"object-60","BIQ",NA,"SUPPRF47263"
13,1701281368651,"29/11/2023 18:09:28",1701281368651,0,"29/11/2023 18:09:28",154366,3,"task-gjqt",NA,33303511,9860753,NA,"complete",NA,"65677c149b3b22c39c0b7b43","computer","Desktop or Laptop","Mac OS 10.15.7","Chrome 119.0.0.0","1512x982","1512x824",NA,NA,0,"BIQ (Charlotte)",3,"DECFBGAHJI","Passed AC2",NA,"Spreadsheet1",1,"BIQ","Screen 3","iz3the",3,"response","4",18858.28,21583.171,21591.504,18858.28,21583.171,21591.504,1,18858.28,2733.22399999999,0,NA,"Rating Scale","Rating Scale",16,"object-67","BIQ",NA,"SUPPRF47263"
14,1701281368657,"29/11/2023 18:09:28",1701281368657,0,"29/11/2023 18:09:28",154366,3,"task-gjqt",NA,33303511,9860753,NA,"complete",NA,"65677c149b3b22c39c0b7b43","computer","Desktop or Laptop","Mac OS 10.15.7","Chrome 119.0.0.0","1512x982","1512x824",NA,NA,0,"BIQ (Charlotte)",3,"DECFBGAHJI","Passed AC2",NA,"Spreadsheet1",NA,"","","",NA,"5","END",NA,NA,NA,NA,NA,NA,0,NA,NA,NA,NA,"","",NA,"","",NA,"SUPPRF47263"
1,1701281721411,"29/11/2023 18:15:21",1701281721411,0,"29/11/2023 18:15:21",154366,3,"task-gjqt",NA,33303681,9860848,NA,"complete",NA,"65677f11e0560086db012bb5","computer","Desktop or Laptop","Windows 10","Chrome 119.0.0.0","1920x1080","1920x923",NA,NA,0,"BIQ (Charlotte)",3,"FGEHDICJBA","Passed AC2",NA,"Spreadsheet1",NA,"","","",NA,"5","BEGIN",NA,NA,NA,NA,NA,NA,0,NA,NA,NA,NA,"","",NA,"","",NA,"SUPPRF80291"
2,1701281778083,"29/11/2023 18:16:18",1701281778083,0,"29/11/2023 18:16:18",154366,3,"task-gjqt",NA,33303681,9860848,NA,"complete",NA,"65677f11e0560086db012bb5","computer","Desktop or Laptop","Windows 10","Chrome 119.0.0.0","1920x1080","1920x923",NA,NA,0,"BIQ (Charlotte)",3,"FGEHDICJBA","Passed AC2",NA,"Spreadsheet1",1,"BIQ","Screen 1","9dh6eq",1,"continue","",56677.6730000238,56671.068,56677.6730000238,56677.6730000238,56671.068,56677.6730000238,1,56677.6730000238,0,0,NA,"Click To Continue","Continue Button",23,"object-48","BIQ",NA,"SUPPRF80291"
3,1701281778086,"29/11/2023 18:16:18",1701281778086,0,"29/11/2023 18:16:18",154366,3,"task-gjqt",NA,33303681,9860848,NA,"complete",NA,"65677f11e0560086db012bb5","computer","Desktop or Laptop","Windows 10","Chrome 119.0.0.0","1920x1080","1920x923",NA,NA,0,"BIQ (Charlotte)",3,"FGEHDICJBA","Passed AC2",NA,"Spreadsheet1",1,"BIQ","Screen 1","9dh6eq",1,"response","2",24014.372,56671.068,56679.475,24014.372,56671.068,56679.475,1,24014.372,32665.103,0,NA,"Rating Scale","Rating Scale",3,"object-5","BIQ",NA,"SUPPRF80291"
4,1701281778087,"29/11/2023 18:16:18",1701281778087,0,"29/11/2023 18:16:18",154366,3,"task-gjqt",NA,33303681,9860848,NA,"complete",NA,"65677f11e0560086db012bb5","computer","Desktop or Laptop","Windows 10","Chrome 119.0.0.0","1920x1080","1920x923",NA,NA,0,"BIQ (Charlotte)",3,"FGEHDICJBA","Passed AC2",NA,"Spreadsheet1",1,"BIQ","Screen 1","9dh6eq",1,"response","7",42507.458,56671.068,56679.475,42507.458,56671.068,56679.475,1,42507.458,14172.017,0,NA,"Rating Scale","Rating Scale",10,"object-18","BIQ",NA,"SUPPRF80291"
5,1701281778087,"29/11/2023 18:16:18",1701281778087,0,"29/11/2023 18:16:18",154366,3,"task-gjqt",NA,33303681,9860848,NA,"complete",NA,"65677f11e0560086db012bb5","computer","Desktop or Laptop","Windows 10","Chrome 119.0.0.0","1920x1080","1920x923",NA,NA,0,"BIQ (Charlotte)",3,"FGEHDICJBA","Passed AC2",NA,"Spreadsheet1",1,"BIQ","Screen 1","9dh6eq",1,"response","4",55795.205,56671.068,56679.475,55795.205,56671.068,56679.475,1,55795.205,884.270000000004,0,NA,"Rating Scale","Rating Scale",17,"object-80","BIQ",NA,"SUPPRF80291"
6,1701281851985,"29/11/2023 18:17:31",1701281851985,0,"29/11/2023 18:17:31",154366,3,"task-gjqt",NA,33303681,9860848,NA,"complete",NA,"65677f11e0560086db012bb5","computer","Desktop or Laptop","Windows 10","Chrome 119.0.0.0","1920x1080","1920x923",NA,NA,0,"BIQ (Charlotte)",3,"FGEHDICJBA","Passed AC2",NA,"Spreadsheet1",1,"BIQ","Screen 2","o21mwi",2,"continue","",73909.3050000715,73904.067,73909.3050000715,73909.3050000715,73904.067,73909.3050000715,1,73909.3050000715,0,0,NA,"Click To Continue","Continue Button",22,"object-50","BIQ",NA,"SUPPRF80291"
7,1701281851986,"29/11/2023 18:17:31",1701281851986,0,"29/11/2023 18:17:31",154366,3,"task-gjqt",NA,33303681,9860848,NA,"complete",NA,"65677f11e0560086db012bb5","computer","Desktop or Laptop","Windows 10","Chrome 119.0.0.0","1920x1080","1920x923",NA,NA,0,"BIQ (Charlotte)",3,"FGEHDICJBA","Passed AC2",NA,"Spreadsheet1",1,"BIQ","Screen 2","o21mwi",2,"response","6",14355.427,73904.067,73910.9050000954,14355.427,73904.067,73910.9050000954,1,14355.427,59555.4780000954,0,NA,"Rating Scale","Rating Scale",2,"object-259","BIQ",NA,"SUPPRF80291"
8,1701281851986,"29/11/2023 18:17:31",1701281851986,0,"29/11/2023 18:17:31",154366,3,"task-gjqt",NA,33303681,9860848,NA,"complete",NA,"65677f11e0560086db012bb5","computer","Desktop or Laptop","Windows 10","Chrome 119.0.0.0","1920x1080","1920x923",NA,NA,0,"BIQ (Charlotte)",3,"FGEHDICJBA","Passed AC2",NA,"Spreadsheet1",1,"BIQ","Screen 2","o21mwi",2,"response","2",40980.863,73904.067,73911.1050000238,40980.863,73904.067,73911.1050000238,1,40980.863,32930.2420000239,0,NA,"Rating Scale","Rating Scale",9,"object-36","BIQ",NA,"SUPPRF80291"
9,1701281851987,"29/11/2023 18:17:31",1701281851987,0,"29/11/2023 18:17:31",154366,3,"task-gjqt",NA,33303681,9860848,NA,"complete",NA,"65677f11e0560086db012bb5","computer","Desktop or Laptop","Windows 10","Chrome 119.0.0.0","1920x1080","1920x923",NA,NA,0,"BIQ (Charlotte)",3,"FGEHDICJBA","Passed AC2",NA,"Spreadsheet1",1,"BIQ","Screen 2","o21mwi",2,"response","5",49088.951,73904.067,73911.2050000477,49088.951,73904.067,73911.2050000477,1,49088.951,24822.2540000477,0,NA,"Rating Scale","Rating Scale",16,"object-86","BIQ",NA,"SUPPRF80291"
10,1701281874850,"29/11/2023 18:17:54",1701281874850,0,"29/11/2023 18:17:54",154366,3,"task-gjqt",NA,33303681,9860848,NA,"complete",NA,"65677f11e0560086db012bb5","computer","Desktop or Laptop","Windows 10","Chrome 119.0.0.0","1920x1080","1920x923",NA,NA,0,"BIQ (Charlotte)",3,"FGEHDICJBA","Passed AC2",NA,"Spreadsheet1",1,"BIQ","Screen 3","iz3the",3,"continue","",22870.8380000954,22863.56,22870.8380000954,22870.8380000954,22863.56,22870.8380000954,1,22870.8380000954,0,0,NA,"Click To Continue","Continue Button",22,"object-73","BIQ",NA,"SUPPRF80291"
11,1701281874852,"29/11/2023 18:17:54",1701281874852,0,"29/11/2023 18:17:54",154366,3,"task-gjqt",NA,33303681,9860848,NA,"complete",NA,"65677f11e0560086db012bb5","computer","Desktop or Laptop","Windows 10","Chrome 119.0.0.0","1920x1080","1920x923",NA,NA,0,"BIQ (Charlotte)",3,"FGEHDICJBA","Passed AC2",NA,"Spreadsheet1",1,"BIQ","Screen 3","iz3the",3,"response","0",8975.25599999999,22863.56,22871.88,8975.25599999999,22863.56,22871.88,1,8975.25599999999,13896.624,0,NA,"Rating Scale","Rating Scale",2,"object-53","BIQ",NA,"SUPPRF80291"
12,1701281874852,"29/11/2023 18:17:54",1701281874852,0,"29/11/2023 18:17:54",154366,3,"task-gjqt",NA,33303681,9860848,NA,"complete",NA,"65677f11e0560086db012bb5","computer","Desktop or Laptop","Windows 10","Chrome 119.0.0.0","1920x1080","1920x923",NA,NA,0,"BIQ (Charlotte)",3,"FGEHDICJBA","Passed AC2",NA,"Spreadsheet1",1,"BIQ","Screen 3","iz3the",3,"response","2",15081.164,22863.56,22871.88,15081.164,22863.56,22871.88,1,15081.164,7790.71600000001,0,NA,"Rating Scale","Rating Scale",9,"object-60","BIQ",NA,"SUPPRF80291"
13,1701281874853,"29/11/2023 18:17:54",1701281874853,0,"29/11/2023 18:17:54",154366,3,"task-gjqt",NA,33303681,9860848,NA,"complete",NA,"65677f11e0560086db012bb5","computer","Desktop or Laptop","Windows 10","Chrome 119.0.0.0","1920x1080","1920x923",NA,NA,0,"BIQ (Charlotte)",3,"FGEHDICJBA","Passed AC2",NA,"Spreadsheet1",1,"BIQ","Screen 3","iz3the",3,"response","0",21312.116,22863.56,22871.88,21312.116,22863.56,22871.88,1,21312.116,1559.764,0,NA,"Rating Scale","Rating Scale",16,"object-67","BIQ",NA,"SUPPRF80291"
14,1701281874856,"29/11/2023 18:17:54",1701281874856,0,"29/11/2023 18:17:54",154366,3,"task-gjqt",NA,33303681,9860848,NA,"complete",NA,"65677f11e0560086db012bb5","computer","Desktop or Laptop","Windows 10","Chrome 119.0.0.0","1920x1080","1920x923",NA,NA,0,"BIQ (Charlotte)",3,"FGEHDICJBA","Passed AC2",NA,"Spreadsheet1",NA,"","","",NA,"5","END",NA,NA,NA,NA,NA,NA,0,NA,NA,NA,NA,"","",NA,"","",NA,"SUPPRF80291"
1,1701282278641,"29/11/2023 18:24:38",1701282278641,0,"29/11/2023 18:24:38",154366,3,"task-gjqt",NA,33303872,9860857,NA,"complete",NA,"65677eb013b2b84a4b31ef67","computer","Desktop or Laptop","Windows 10","Chrome 119.0.0.0","2560x1440","2560x1361",NA,NA,0,"BIQ (Charlotte)",3,"HIGJFAEBDC","Passed AC2",NA,"Spreadsheet1",NA,"","","",NA,"5","BEGIN",NA,NA,NA,NA,NA,NA,0,NA,NA,NA,NA,"","",NA,"","",NA,"SUPPRF42417"
2,1701282321794,"29/11/2023 18:25:21",1701282321794,0,"29/11/2023 18:25:21",154366,3,"task-gjqt",NA,33303872,9860857,NA,"complete",NA,"65677eb013b2b84a4b31ef67","computer","Desktop or Laptop","Windows 10","Chrome 119.0.0.0","2560x1440","2560x1361",NA,NA,0,"BIQ (Charlotte)",3,"HIGJFAEBDC","Passed AC2",NA,"Spreadsheet1",1,"BIQ","Screen 1","9dh6eq",1,"continue","",43154.295,43150.129,43154.295,43154.295,43150.129,43154.295,1,43154.295,0,0,NA,"Click To Continue","Continue Button",23,"object-48","BIQ",NA,"SUPPRF42417"
3,1701282321797,"29/11/2023 18:25:21",1701282321797,0,"29/11/2023 18:25:21",154366,3,"task-gjqt",NA,33303872,9860857,NA,"complete",NA,"65677eb013b2b84a4b31ef67","computer","Desktop or Laptop","Windows 10","Chrome 119.0.0.0","2560x1440","2560x1361",NA,NA,0,"BIQ (Charlotte)",3,"HIGJFAEBDC","Passed AC2",NA,"Spreadsheet1",1,"BIQ","Screen 1","9dh6eq",1,"response","7",31208.432,43150.129,43154.295,31208.432,43150.129,43154.295,1,31208.432,11945.863,0,NA,"Rating Scale","Rating Scale",3,"object-5","BIQ",NA,"SUPPRF42417"
4,1701282321797,"29/11/2023 18:25:21",1701282321797,0,"29/11/2023 18:25:21",154366,3,"task-gjqt",NA,33303872,9860857,NA,"complete",NA,"65677eb013b2b84a4b31ef67","computer","Desktop or Laptop","Windows 10","Chrome 119.0.0.0","2560x1440","2560x1361",NA,NA,0,"BIQ (Charlotte)",3,"HIGJFAEBDC","Passed AC2",NA,"Spreadsheet1",1,"BIQ","Screen 1","9dh6eq",1,"response","8",37379.282,43150.129,43154.295,37379.282,43150.129,43154.295,1,37379.282,5775.013,0,NA,"Rating Scale","Rating Scale",10,"object-18","BIQ",NA,"SUPPRF42417"
5,1701282321797,"29/11/2023 18:25:21",1701282321797,0,"29/11/2023 18:25:21",154366,3,"task-gjqt",NA,33303872,9860857,NA,"complete",NA,"65677eb013b2b84a4b31ef67","computer","Desktop or Laptop","Windows 10","Chrome 119.0.0.0","2560x1440","2560x1361",NA,NA,0,"BIQ (Charlotte)",3,"HIGJFAEBDC","Passed AC2",NA,"Spreadsheet1",1,"BIQ","Screen 1","9dh6eq",1,"response","0",41816.793,43150.129,43154.295,41816.793,43150.129,43154.295,1,41816.793,1337.502,0,NA,"Rating Scale","Rating Scale",17,"object-80","BIQ",NA,"SUPPRF42417"
6,1701282350448,"29/11/2023 18:25:50",1701282350448,0,"29/11/2023 18:25:50",154366,3,"task-gjqt",NA,33303872,9860857,NA,"complete",NA,"65677eb013b2b84a4b31ef67","computer","Desktop or Laptop","Windows 10","Chrome 119.0.0.0","2560x1440","2560x1361",NA,NA,0,"BIQ (Charlotte)",3,"HIGJFAEBDC","Passed AC2",NA,"Spreadsheet1",1,"BIQ","Screen 2","o21mwi",2,"continue","",28660.7899999762,28658.41,28660.7899999762,28660.7899999762,28658.41,28660.7899999762,1,28660.7899999762,0,0,NA,"Click To Continue","Continue Button",22,"object-50","BIQ",NA,"SUPPRF42417"
7,1701282350449,"29/11/2023 18:25:50",1701282350449,0,"29/11/2023 18:25:50",154366,3,"task-gjqt",NA,33303872,9860857,NA,"complete",NA,"65677eb013b2b84a4b31ef67","computer","Desktop or Laptop","Windows 10","Chrome 119.0.0.0","2560x1440","2560x1361",NA,NA,0,"BIQ (Charlotte)",3,"HIGJFAEBDC","Passed AC2",NA,"Spreadsheet1",1,"BIQ","Screen 2","o21mwi",2,"response","7",7950.022,28658.41,28661.89,7950.022,28658.41,28661.89,1,7950.022,20711.868,0,NA,"Rating Scale","Rating Scale",2,"object-259","BIQ",NA,"SUPPRF42417"
8,1701282350450,"29/11/2023 18:25:50",1701282350450,0,"29/11/2023 18:25:50",154366,3,"task-gjqt",NA,33303872,9860857,NA,"complete",NA,"65677eb013b2b84a4b31ef67","computer","Desktop or Laptop","Windows 10","Chrome 119.0.0.0","2560x1440","2560x1361",NA,NA,0,"BIQ (Charlotte)",3,"HIGJFAEBDC","Passed AC2",NA,"Spreadsheet1",1,"BIQ","Screen 2","o21mwi",2,"response","2",19562.551,28658.41,28662.0899999881,19562.551,28658.41,28662.0899999881,1,19562.551,9099.53899998808,0,NA,"Rating Scale","Rating Scale",9,"object-36","BIQ",NA,"SUPPRF42417"
9,1701282350450,"29/11/2023 18:25:50",1701282350450,0,"29/11/2023 18:25:50",154366,3,"task-gjqt",NA,33303872,9860857,NA,"complete",NA,"65677eb013b2b84a4b31ef67","computer","Desktop or Laptop","Windows 10","Chrome 119.0.0.0","2560x1440","2560x1361",NA,NA,0,"BIQ (Charlotte)",3,"HIGJFAEBDC","Passed AC2",NA,"Spreadsheet1",1,"BIQ","Screen 2","o21mwi",2,"response","0",28212.577,28658.41,28662.1900000119,28212.577,28658.41,28662.1900000119,1,28212.577,449.613000011916,0,NA,"Rating Scale","Rating Scale",16,"object-86","BIQ",NA,"SUPPRF42417"
10,1701282376531,"29/11/2023 18:26:16",1701282376531,0,"29/11/2023 18:26:16",154366,3,"task-gjqt",NA,33303872,9860857,NA,"complete",NA,"65677eb013b2b84a4b31ef67","computer","Desktop or Laptop","Windows 10","Chrome 119.0.0.0","2560x1440","2560x1361",NA,NA,0,"BIQ (Charlotte)",3,"HIGJFAEBDC","Passed AC2",NA,"Spreadsheet1",1,"BIQ","Screen 3","iz3the",3,"continue","",26084.7800000119,26083.404,26084.7800000119,26084.7800000119,26083.404,26084.7800000119,1,26084.7800000119,0,0,NA,"Click To Continue","Continue Button",22,"object-73","BIQ",NA,"SUPPRF42417"
11,1701282376532,"29/11/2023 18:26:16",1701282376532,0,"29/11/2023 18:26:16",154366,3,"task-gjqt",NA,33303872,9860857,NA,"complete",NA,"65677eb013b2b84a4b31ef67","computer","Desktop or Laptop","Windows 10","Chrome 119.0.0.0","2560x1440","2560x1361",NA,NA,0,"BIQ (Charlotte)",3,"HIGJFAEBDC","Passed AC2",NA,"Spreadsheet1",1,"BIQ","Screen 3","iz3the",3,"response","0",6087.51699999999,26083.404,26086.0799999642,6087.51699999999,26083.404,26086.0799999642,1,6087.51699999999,19998.5629999642,0,NA,"Rating Scale","Rating Scale",2,"object-53","BIQ",NA,"SUPPRF42417"
12,1701282376532,"29/11/2023 18:26:16",1701282376532,0,"29/11/2023 18:26:16",154366,3,"task-gjqt",NA,33303872,9860857,NA,"complete",NA,"65677eb013b2b84a4b31ef67","computer","Desktop or Laptop","Windows 10","Chrome 119.0.0.0","2560x1440","2560x1361",NA,NA,0,"BIQ (Charlotte)",3,"HIGJFAEBDC","Passed AC2",NA,"Spreadsheet1",1,"BIQ","Screen 3","iz3the",3,"response","0",14370.877,26083.404,26086.3799999762,14370.877,26083.404,26086.3799999762,1,14370.877,11715.5029999762,0,NA,"Rating Scale","Rating Scale",9,"object-60","BIQ",NA,"SUPPRF42417"
13,1701282376532,"29/11/2023 18:26:16",1701282376532,0,"29/11/2023 18:26:16",154366,3,"task-gjqt",NA,33303872,9860857,NA,"complete",NA,"65677eb013b2b84a4b31ef67","computer","Desktop or Laptop","Windows 10","Chrome 119.0.0.0","2560x1440","2560x1361",NA,NA,0,"BIQ (Charlotte)",3,"HIGJFAEBDC","Passed AC2",NA,"Spreadsheet1",1,"BIQ","Screen 3","iz3the",3,"response","0",25479.233,26083.404,26086.48,25479.233,26083.404,26086.48,1,25479.233,607.247000000003,0,NA,"Rating Scale","Rating Scale",16,"object-67","BIQ",NA,"SUPPRF42417"
14,1701282376535,"29/11/2023 18:26:16",1701282376535,0,"29/11/2023 18:26:16",154366,3,"task-gjqt",NA,33303872,9860857,NA,"complete",NA,"65677eb013b2b84a4b31ef67","computer","Desktop or Laptop","Windows 10","Chrome 119.0.0.0","2560x1440","2560x1361",NA,NA,0,"BIQ (Charlotte)",3,"HIGJFAEBDC","Passed AC2",NA,"Spreadsheet1",NA,"","","",NA,"5","END",NA,NA,NA,NA,NA,NA,0,NA,NA,NA,NA,"","",NA,"","",NA,"SUPPRF42417"
1,1701283285342,"29/11/2023 18:41:25",1701283285342,0,"29/11/2023 18:41:25",154366,3,"task-gjqt",NA,33304406,9861027,NA,"complete",NA,"6567847a53d73d303b831be3","computer","Desktop or Laptop","Mac OS 10.15.7","Chrome 117.0.0.0","1440x900","1440x783",NA,NA,0,"BIQ (Charlotte)",3,"JAIBHCGDFE","Passed AC2",NA,"Spreadsheet1",NA,"","","",NA,"5","BEGIN",NA,NA,NA,NA,NA,NA,0,NA,NA,NA,NA,"","",NA,"","",NA,"SUPPRF79567"
2,1701283293776,"29/11/2023 18:41:33",1701283293776,0,"29/11/2023 18:41:33",154366,3,"task-gjqt",NA,33304406,9861027,NA,"complete",NA,"6567847a53d73d303b831be3","computer","Desktop or Laptop","Mac OS 10.15.7","Chrome 117.0.0.0","1440x900","1440x783",NA,NA,0,"BIQ (Charlotte)",3,"JAIBHCGDFE","Passed AC2",NA,"Spreadsheet1",1,"BIQ","Screen 1","9dh6eq",1,"continue","",8456.80899990463,8450.417,8456.80899990463,8456.80899990463,8450.417,8456.80899990463,1,8456.80899990463,0,0,NA,"Click To Continue","Continue Button",23,"object-48","BIQ",NA,"SUPPRF79567"
3,1701283293777,"29/11/2023 18:41:33",1701283293777,0,"29/11/2023 18:41:33",154366,3,"task-gjqt",NA,33304406,9861027,NA,"complete",NA,"6567847a53d73d303b831be3","computer","Desktop or Laptop","Mac OS 10.15.7","Chrome 117.0.0.0","1440x900","1440x783",NA,NA,0,"BIQ (Charlotte)",3,"JAIBHCGDFE","Passed AC2",NA,"Spreadsheet1",1,"BIQ","Screen 1","9dh6eq",1,"response","3",1266.616,8450.417,8457.60899985695,1266.616,8450.417,8457.60899985695,1,1266.616,7190.99299985695,0,NA,"Rating Scale","Rating Scale",3,"object-5","BIQ",NA,"SUPPRF79567"
4,1701283293777,"29/11/2023 18:41:33",1701283293777,0,"29/11/2023 18:41:33",154366,3,"task-gjqt",NA,33304406,9861027,NA,"complete",NA,"6567847a53d73d303b831be3","computer","Desktop or Laptop","Mac OS 10.15.7","Chrome 117.0.0.0","1440x900","1440x783",NA,NA,0,"BIQ (Charlotte)",3,"JAIBHCGDFE","Passed AC2",NA,"Spreadsheet1",1,"BIQ","Screen 1","9dh6eq",1,"response","2",1783.262,8450.417,8457.80899990463,1783.262,8450.417,8457.80899990463,1,1783.262,6674.54699990463,0,NA,"Rating Scale","Rating Scale",10,"object-18","BIQ",NA,"SUPPRF79567"
5,1701283293777,"29/11/2023 18:41:33",1701283293777,0,"29/11/2023 18:41:33",154366,3,"task-gjqt",NA,33304406,9861027,NA,"complete",NA,"6567847a53d73d303b831be3","computer","Desktop or Laptop","Mac OS 10.15.7","Chrome 117.0.0.0","1440x900","1440x783",NA,NA,0,"BIQ (Charlotte)",3,"JAIBHCGDFE","Passed AC2",NA,"Spreadsheet1",1,"BIQ","Screen 1","9dh6eq",1,"response","5",2999.88,8450.417,8457.90899980927,2999.88,8450.417,8457.90899980927,1,2999.88,5458.02899980927,0,NA,"Rating Scale","Rating Scale",17,"object-80","BIQ",NA,"SUPPRF79567"
6,1701283297859,"29/11/2023 18:41:37",1701283297859,0,"29/11/2023 18:41:37",154366,3,"task-gjqt",NA,33304406,9861027,NA,"complete",NA,"6567847a53d73d303b831be3","computer","Desktop or Laptop","Mac OS 10.15.7","Chrome 117.0.0.0","1440x900","1440x783",NA,NA,0,"BIQ (Charlotte)",3,"JAIBHCGDFE","Passed AC2",NA,"Spreadsheet1",1,"BIQ","Screen 2","o21mwi",2,"continue","",4089.49199980926,4083.17,4089.49199980926,4089.49199980926,4083.17,4089.49199980926,1,4089.49199980926,0,0,NA,"Click To Continue","Continue Button",22,"object-50","BIQ",NA,"SUPPRF79567"
7,1701283297860,"29/11/2023 18:41:37",1701283297860,0,"29/11/2023 18:41:37",154366,3,"task-gjqt",NA,33304406,9861027,NA,"complete",NA,"6567847a53d73d303b831be3","computer","Desktop or Laptop","Mac OS 10.15.7","Chrome 117.0.0.0","1440x900","1440x783",NA,NA,0,"BIQ (Charlotte)",3,"JAIBHCGDFE","Passed AC2",NA,"Spreadsheet1",1,"BIQ","Screen 2","o21mwi",2,"response","3",1516.606,4083.17,4090.69199985695,1516.606,4083.17,4090.69199985695,1,1516.606,2574.08599985695,0,NA,"Rating Scale","Rating Scale",2,"object-259","BIQ",NA,"SUPPRF79567"
8,1701283297860,"29/11/2023 18:41:37",1701283297860,0,"29/11/2023 18:41:37",154366,3,"task-gjqt",NA,33304406,9861027,NA,"complete",NA,"6567847a53d73d303b831be3","computer","Desktop or Laptop","Mac OS 10.15.7","Chrome 117.0.0.0","1440x900","1440x783",NA,NA,0,"BIQ (Charlotte)",3,"JAIBHCGDFE","Passed AC2",NA,"Spreadsheet1",1,"BIQ","Screen 2","o21mwi",2,"response","2",2416.57,4083.17,4090.89199990463,2416.57,4083.17,4090.89199990463,1,2416.57,1674.32199990463,0,NA,"Rating Scale","Rating Scale",9,"object-36","BIQ",NA,"SUPPRF79567"
9,1701283297860,"29/11/2023 18:41:37",1701283297860,0,"29/11/2023 18:41:37",154366,3,"task-gjqt",NA,33304406,9861027,NA,"complete",NA,"6567847a53d73d303b831be3","computer","Desktop or Laptop","Mac OS 10.15.7","Chrome 117.0.0.0","1440x900","1440x783",NA,NA,0,"BIQ (Charlotte)",3,"JAIBHCGDFE","Passed AC2",NA,"Spreadsheet1",1,"BIQ","Screen 2","o21mwi",2,"response","6",3549.858,4083.17,4091.09199995232,3549.858,4083.17,4091.09199995232,1,3549.858,541.233999952316,0,NA,"Rating Scale","Rating Scale",16,"object-86","BIQ",NA,"SUPPRF79567"
10,1701283301126,"29/11/2023 18:41:41",1701283301126,0,"29/11/2023 18:41:41",154366,3,"task-gjqt",NA,33304406,9861027,NA,"complete",NA,"6567847a53d73d303b831be3","computer","Desktop or Laptop","Mac OS 10.15.7","Chrome 117.0.0.0","1440x900","1440x783",NA,NA,0,"BIQ (Charlotte)",3,"JAIBHCGDFE","Passed AC2",NA,"Spreadsheet1",1,"BIQ","Screen 3","iz3the",3,"continue","",3273.52199985695,3267.488,3273.52199985695,3273.52199985695,3267.488,3273.52199985695,1,3273.52199985695,0,0,NA,"Click To Continue","Continue Button",22,"object-73","BIQ",NA,"SUPPRF79567"
11,1701283301126,"29/11/2023 18:41:41",1701283301126,0,"29/11/2023 18:41:41",154366,3,"task-gjqt",NA,33304406,9861027,NA,"complete",NA,"6567847a53d73d303b831be3","computer","Desktop or Laptop","Mac OS 10.15.7","Chrome 117.0.0.0","1440x900","1440x783",NA,NA,0,"BIQ (Charlotte)",3,"JAIBHCGDFE","Passed AC2",NA,"Spreadsheet1",1,"BIQ","Screen 3","iz3the",3,"response","4",1149.954,3267.488,3273.82199980926,1149.954,3267.488,3273.82199980926,1,1149.954,2123.86799980926,0,NA,"Rating Scale","Rating Scale",2,"object-53","BIQ",NA,"SUPPRF79567"
12,1701283301126,"29/11/2023 18:41:41",1701283301126,0,"29/11/2023 18:41:41",154366,3,"task-gjqt",NA,33304406,9861027,NA,"complete",NA,"6567847a53d73d303b831be3","computer","Desktop or Laptop","Mac OS 10.15.7","Chrome 117.0.0.0","1440x900","1440x783",NA,NA,0,"BIQ (Charlotte)",3,"JAIBHCGDFE","Passed AC2",NA,"Spreadsheet1",1,"BIQ","Screen 3","iz3the",3,"response","3",1699.932,3267.488,3273.92199995232,1699.932,3267.488,3273.92199995232,1,1699.932,1573.98999995232,0,NA,"Rating Scale","Rating Scale",9,"object-60","BIQ",NA,"SUPPRF79567"
13,1701283301126,"29/11/2023 18:41:41",1701283301126,0,"29/11/2023 18:41:41",154366,3,"task-gjqt",NA,33304406,9861027,NA,"complete",NA,"6567847a53d73d303b831be3","computer","Desktop or Laptop","Mac OS 10.15.7","Chrome 117.0.0.0","1440x900","1440x783",NA,NA,0,"BIQ (Charlotte)",3,"JAIBHCGDFE","Passed AC2",NA,"Spreadsheet1",1,"BIQ","Screen 3","iz3the",3,"response","5",2383.238,3267.488,3274.122,2383.238,3267.488,3274.122,1,2383.238,890.884,0,NA,"Rating Scale","Rating Scale",16,"object-67","BIQ",NA,"SUPPRF79567"
14,1701283301129,"29/11/2023 18:41:41",1701283301129,0,"29/11/2023 18:41:41",154366,3,"task-gjqt",NA,33304406,9861027,NA,"complete",NA,"6567847a53d73d303b831be3","computer","Desktop or Laptop","Mac OS 10.15.7","Chrome 117.0.0.0","1440x900","1440x783",NA,NA,0,"BIQ (Charlotte)",3,"JAIBHCGDFE","Passed AC2",NA,"Spreadsheet1",NA,"","","",NA,"5","END",NA,NA,NA,NA,NA,NA,0,NA,NA,NA,NA,"","",NA,"","",NA,"SUPPRF79567"
1,1701284251684,"29/11/2023 18:57:31",1701262651684,-6,"29/11/2023 06:57:31",154366,3,"task-gjqt",NA,33304965,9861115,NA,"complete",NA,"6567879ce5d47bbeacb317a6","computer","Desktop or Laptop","Mac OS 10.15.7","Chrome 119.0.0.0","1440x900","1416x677",NA,NA,0,"BIQ (Charlotte)",3,"BCADJEIFHG","Passed AC2",NA,"Spreadsheet1",NA,"","","",NA,"5","BEGIN",NA,NA,NA,NA,NA,NA,0,NA,NA,NA,NA,"","",NA,"","",NA,"SUPPRF79528"
2,1701284289451,"29/11/2023 18:58:09",1701262689451,-6,"29/11/2023 06:58:09",154366,3,"task-gjqt",NA,33304965,9861115,NA,"complete",NA,"6567879ce5d47bbeacb317a6","computer","Desktop or Laptop","Mac OS 10.15.7","Chrome 119.0.0.0","1440x900","1416x677",NA,NA,0,"BIQ (Charlotte)",3,"BCADJEIFHG","Passed AC2",NA,"Spreadsheet1",1,"BIQ","Screen 1","9dh6eq",1,"continue","",37779.5470000179,37766.206,37779.5470000179,37779.5470000179,37766.206,37779.5470000179,1,37779.5470000179,0,0,NA,"Click To Continue","Continue Button",23,"object-48","BIQ",NA,"SUPPRF79528"
3,1701284289453,"29/11/2023 18:58:09",1701262689453,-6,"29/11/2023 06:58:09",154366,3,"task-gjqt",NA,33304965,9861115,NA,"complete",NA,"6567879ce5d47bbeacb317a6","computer","Desktop or Laptop","Mac OS 10.15.7","Chrome 119.0.0.0","1440x900","1416x677",NA,NA,0,"BIQ (Charlotte)",3,"BCADJEIFHG","Passed AC2",NA,"Spreadsheet1",1,"BIQ","Screen 1","9dh6eq",1,"response","5",20483.039,37766.206,37782.347,20483.039,37766.206,37782.347,1,20483.039,17299.308,0,NA,"Rating Scale","Rating Scale",3,"object-5","BIQ",NA,"SUPPRF79528"
4,1701284289454,"29/11/2023 18:58:09",1701262689454,-6,"29/11/2023 06:58:09",154366,3,"task-gjqt",NA,33304965,9861115,NA,"complete",NA,"6567879ce5d47bbeacb317a6","computer","Desktop or Laptop","Mac OS 10.15.7","Chrome 119.0.0.0","1440x900","1416x677",NA,NA,0,"BIQ (Charlotte)",3,"BCADJEIFHG","Passed AC2",NA,"Spreadsheet1",1,"BIQ","Screen 1","9dh6eq",1,"response","7",30066.251,37766.206,37782.747000006,30066.251,37766.206,37782.747000006,1,30066.251,7716.49600000596,0,NA,"Rating Scale","Rating Scale",10,"object-18","BIQ",NA,"SUPPRF79528"
5,1701284289454,"29/11/2023 18:58:09",1701262689454,-6,"29/11/2023 06:58:09",154366,3,"task-gjqt",NA,33304965,9861115,NA,"complete",NA,"6567879ce5d47bbeacb317a6","computer","Desktop or Laptop","Mac OS 10.15.7","Chrome 119.0.0.0","1440x900","1416x677",NA,NA,0,"BIQ (Charlotte)",3,"BCADJEIFHG","Passed AC2",NA,"Spreadsheet1",1,"BIQ","Screen 1","9dh6eq",1,"response","1",35016.316,37766.206,37782.872,35016.316,37766.206,37782.872,1,35016.316,2766.556,0,NA,"Rating Scale","Rating Scale",17,"object-80","BIQ",NA,"SUPPRF79528"
6,1701284323442,"29/11/2023 18:58:43",1701262723442,-6,"29/11/2023 06:58:43",154366,3,"task-gjqt",NA,33304965,9861115,NA,"complete",NA,"6567879ce5d47bbeacb317a6","computer","Desktop or Laptop","Mac OS 10.15.7","Chrome 119.0.0.0","1440x900","1416x677",NA,NA,0,"BIQ (Charlotte)",3,"BCADJEIFHG","Passed AC2",NA,"Spreadsheet1",1,"BIQ","Screen 2","o21mwi",2,"continue","",34004.3410000179,33999.69,34004.3410000179,34004.3410000179,33999.69,34004.3410000179,1,34004.3410000179,0,0,NA,"Click To Continue","Continue Button",22,"object-50","BIQ",NA,"SUPPRF79528"
7,1701284323445,"29/11/2023 18:58:43",1701262723445,-6,"29/11/2023 06:58:43",154366,3,"task-gjqt",NA,33304965,9861115,NA,"complete",NA,"6567879ce5d47bbeacb317a6","computer","Desktop or Laptop","Mac OS 10.15.7","Chrome 119.0.0.0","1440x900","1416x677",NA,NA,0,"BIQ (Charlotte)",3,"BCADJEIFHG","Passed AC2",NA,"Spreadsheet1",1,"BIQ","Screen 2","o21mwi",2,"response","8",17499.825,33999.69,34007.240999994,17499.825,33999.69,34007.240999994,1,17499.825,16507.415999994,0,NA,"Rating Scale","Rating Scale",2,"object-259","BIQ",NA,"SUPPRF79528"
8,1701284323446,"29/11/2023 18:58:43",1701262723446,-6,"29/11/2023 06:58:43",154366,3,"task-gjqt",NA,33304965,9861115,NA,"complete",NA,"6567879ce5d47bbeacb317a6","computer","Desktop or Laptop","Mac OS 10.15.7","Chrome 119.0.0.0","1440x900","1416x677",NA,NA,0,"BIQ (Charlotte)",3,"BCADJEIFHG","Passed AC2",NA,"Spreadsheet1",1,"BIQ","Screen 2","o21mwi",2,"response","0",22416.295,33999.69,34007.9410000119,22416.295,33999.69,34007.9410000119,1,22416.295,11591.6460000119,0,NA,"Rating Scale","Rating Scale",9,"object-36","BIQ",NA,"SUPPRF79528"
9,1701284323446,"29/11/2023 18:58:43",1701262723446,-6,"29/11/2023 06:58:43",154366,3,"task-gjqt",NA,33304965,9861115,NA,"complete",NA,"6567879ce5d47bbeacb317a6","computer","Desktop or Laptop","Mac OS 10.15.7","Chrome 119.0.0.0","1440x900","1416x677",NA,NA,0,"BIQ (Charlotte)",3,"BCADJEIFHG","Passed AC2",NA,"Spreadsheet1",1,"BIQ","Screen 2","o21mwi",2,"response","0",30316.241,33999.69,34008.4410000119,30316.241,33999.69,34008.4410000119,1,30316.241,3692.20000001192,0,NA,"Rating Scale","Rating Scale",16,"object-86","BIQ",NA,"SUPPRF79528"
10,1701284342183,"29/11/2023 18:59:02",1701262742183,-6,"29/11/2023 06:59:02",154366,3,"task-gjqt",NA,33304965,9861115,NA,"complete",NA,"6567879ce5d47bbeacb317a6","computer","Desktop or Laptop","Mac OS 10.15.7","Chrome 119.0.0.0","1440x900","1416x677",NA,NA,0,"BIQ (Charlotte)",3,"BCADJEIFHG","Passed AC2",NA,"Spreadsheet1",1,"BIQ","Screen 3","iz3the",3,"continue","",18745.851000006,18732.846,18745.851000006,18745.851000006,18732.846,18745.851000006,1,18745.851000006,0,0,NA,"Click To Continue","Continue Button",22,"object-73","BIQ",NA,"SUPPRF79528"
11,1701284342185,"29/11/2023 18:59:02",1701262742185,-6,"29/11/2023 06:59:02",154366,3,"task-gjqt",NA,33304965,9861115,NA,"complete",NA,"6567879ce5d47bbeacb317a6","computer","Desktop or Laptop","Mac OS 10.15.7","Chrome 119.0.0.0","1440x900","1416x677",NA,NA,0,"BIQ (Charlotte)",3,"BCADJEIFHG","Passed AC2",NA,"Spreadsheet1",1,"BIQ","Screen 3","iz3the",3,"response","0",4783.14200000001,18732.846,18747.851000006,4783.14200000001,18732.846,18747.851000006,1,4783.14200000001,13964.709000006,0,NA,"Rating Scale","Rating Scale",2,"object-53","BIQ",NA,"SUPPRF79528"
12,1701284342186,"29/11/2023 18:59:02",1701262742186,-6,"29/11/2023 06:59:02",154366,3,"task-gjqt",NA,33304965,9861115,NA,"complete",NA,"6567879ce5d47bbeacb317a6","computer","Desktop or Laptop","Mac OS 10.15.7","Chrome 119.0.0.0","1440x900","1416x677",NA,NA,0,"BIQ (Charlotte)",3,"BCADJEIFHG","Passed AC2",NA,"Spreadsheet1",1,"BIQ","Screen 3","iz3the",3,"response","0",13316.396,18732.846,18748.351000006,13316.396,18732.846,18748.351000006,1,13316.396,5431.95500000595,0,NA,"Rating Scale","Rating Scale",9,"object-60","BIQ",NA,"SUPPRF79528"
13,1701284342186,"29/11/2023 18:59:02",1701262742186,-6,"29/11/2023 06:59:02",154366,3,"task-gjqt",NA,33304965,9861115,NA,"complete",NA,"6567879ce5d47bbeacb317a6","computer","Desktop or Laptop","Mac OS 10.15.7","Chrome 119.0.0.0","1440x900","1416x677",NA,NA,0,"BIQ (Charlotte)",3,"BCADJEIFHG","Passed AC2",NA,"Spreadsheet1",1,"BIQ","Screen 3","iz3the",3,"response","1",17299.57,18732.846,18748.7510000119,17299.57,18732.846,18748.7510000119,1,17299.57,1449.18100001191,0,NA,"Rating Scale","Rating Scale",16,"object-67","BIQ",NA,"SUPPRF79528"
14,1701284342191,"29/11/2023 18:59:02",1701262742191,-6,"29/11/2023 06:59:02",154366,3,"task-gjqt",NA,33304965,9861115,NA,"complete",NA,"6567879ce5d47bbeacb317a6","computer","Desktop or Laptop","Mac OS 10.15.7","Chrome 119.0.0.0","1440x900","1416x677",NA,NA,0,"BIQ (Charlotte)",3,"BCADJEIFHG","Passed AC2",NA,"Spreadsheet1",NA,"","","",NA,"5","END",NA,NA,NA,NA,NA,NA,0,NA,NA,NA,NA,"","",NA,"","",NA,"SUPPRF79528"
1,1701285184554,"29/11/2023 19:13:04",1701285184554,0,"29/11/2023 19:13:04",154366,3,"task-gjqt",NA,33305757,9861336,NA,"complete",NA,"65678c1c21dd37d57dd05676","computer","Desktop or Laptop","Mac OS 10.15.7","Chrome 119.0.0.0","1440x900","1440x779",NA,NA,0,"BIQ (Charlotte)",3,"DECFBGAHJI","Passed AC2",NA,"Spreadsheet1",NA,"","","",NA,"5","BEGIN",NA,NA,NA,NA,NA,NA,0,NA,NA,NA,NA,"","",NA,"","",NA,"SUPPRF39307"
2,1701285210603,"29/11/2023 19:13:30",1701285210603,0,"29/11/2023 19:13:30",154366,3,"task-gjqt",NA,33305757,9861336,NA,"complete",NA,"65678c1c21dd37d57dd05676","computer","Desktop or Laptop","Mac OS 10.15.7","Chrome 119.0.0.0","1440x900","1440x779",NA,NA,0,"BIQ (Charlotte)",3,"DECFBGAHJI","Passed AC2",NA,"Spreadsheet1",1,"BIQ","Screen 1","9dh6eq",1,"continue","",26061.8689996185,26049.915,26061.8689996185,26061.8689996185,26049.915,26061.8689996185,1,26061.8689996185,0,0,NA,"Click To Continue","Continue Button",23,"object-48","BIQ",NA,"SUPPRF39307"
3,1701285210606,"29/11/2023 19:13:30",1701285210606,0,"29/11/2023 19:13:30",154366,3,"task-gjqt",NA,33305757,9861336,NA,"complete",NA,"65678c1c21dd37d57dd05676","computer","Desktop or Laptop","Mac OS 10.15.7","Chrome 119.0.0.0","1440x900","1440x779",NA,NA,0,"BIQ (Charlotte)",3,"DECFBGAHJI","Passed AC2",NA,"Spreadsheet1",1,"BIQ","Screen 1","9dh6eq",1,"response","2",11383.096,26049.915,26065.5690003815,11383.096,26049.915,26065.5690003815,1,11383.096,14682.4730003815,0,NA,"Rating Scale","Rating Scale",3,"object-5","BIQ",NA,"SUPPRF39307"
4,1701285210606,"29/11/2023 19:13:30",1701285210606,0,"29/11/2023 19:13:30",154366,3,"task-gjqt",NA,33305757,9861336,NA,"complete",NA,"65678c1c21dd37d57dd05676","computer","Desktop or Laptop","Mac OS 10.15.7","Chrome 119.0.0.0","1440x900","1440x779",NA,NA,0,"BIQ (Charlotte)",3,"DECFBGAHJI","Passed AC2",NA,"Spreadsheet1",1,"BIQ","Screen 1","9dh6eq",1,"response","1",20716.795,26049.915,26065.969,20716.795,26049.915,26065.969,1,20716.795,5349.174,0,NA,"Rating Scale","Rating Scale",10,"object-18","BIQ",NA,"SUPPRF39307"
5,1701285210606,"29/11/2023 19:13:30",1701285210606,0,"29/11/2023 19:13:30",154366,3,"task-gjqt",NA,33305757,9861336,NA,"complete",NA,"65678c1c21dd37d57dd05676","computer","Desktop or Laptop","Mac OS 10.15.7","Chrome 119.0.0.0","1440x900","1440x779",NA,NA,0,"BIQ (Charlotte)",3,"DECFBGAHJI","Passed AC2",NA,"Spreadsheet1",1,"BIQ","Screen 1","9dh6eq",1,"response","3",24349.983,26049.915,26066.2690001907,24349.983,26049.915,26066.2690001907,1,24349.983,1716.28600019074,0,NA,"Rating Scale","Rating Scale",17,"object-80","BIQ",NA,"SUPPRF39307"
6,1701285231065,"29/11/2023 19:13:51",1701285231065,0,"29/11/2023 19:13:51",154366,3,"task-gjqt",NA,33305757,9861336,NA,"complete",NA,"65678c1c21dd37d57dd05676","computer","Desktop or Laptop","Mac OS 10.15.7","Chrome 119.0.0.0","1440x900","1440x779",NA,NA,0,"BIQ (Charlotte)",3,"DECFBGAHJI","Passed AC2",NA,"Spreadsheet1",1,"BIQ","Screen 2","o21mwi",2,"continue","",20474.6540003815,20467.21,20474.6540003815,20474.6540003815,20467.21,20474.6540003815,1,20474.6540003815,0,0,NA,"Click To Continue","Continue Button",22,"object-50","BIQ",NA,"SUPPRF39307"
7,1701285231068,"29/11/2023 19:13:51",1701285231068,0,"29/11/2023 19:13:51",154366,3,"task-gjqt",NA,33305757,9861336,NA,"complete",NA,"65678c1c21dd37d57dd05676","computer","Desktop or Laptop","Mac OS 10.15.7","Chrome 119.0.0.0","1440x900","1440x779",NA,NA,0,"BIQ (Charlotte)",3,"DECFBGAHJI","Passed AC2",NA,"Spreadsheet1",1,"BIQ","Screen 2","o21mwi",2,"response","6",5433.597,20467.21,20478.1540003815,5433.597,20467.21,20478.1540003815,1,5433.597,15044.5570003815,0,NA,"Rating Scale","Rating Scale",2,"object-259","BIQ",NA,"SUPPRF39307"
8,1701285231069,"29/11/2023 19:13:51",1701285231069,0,"29/11/2023 19:13:51",154366,3,"task-gjqt",NA,33305757,9861336,NA,"complete",NA,"65678c1c21dd37d57dd05676","computer","Desktop or Laptop","Mac OS 10.15.7","Chrome 119.0.0.0","1440x900","1440x779",NA,NA,0,"BIQ (Charlotte)",3,"DECFBGAHJI","Passed AC2",NA,"Spreadsheet1",1,"BIQ","Screen 2","o21mwi",2,"response","2",13050.343,20467.21,20478.9539996185,13050.343,20467.21,20478.9539996185,1,13050.343,7428.61099961853,0,NA,"Rating Scale","Rating Scale",9,"object-36","BIQ",NA,"SUPPRF39307"
9,1701285231069,"29/11/2023 19:13:51",1701285231069,0,"29/11/2023 19:13:51",154366,3,"task-gjqt",NA,33305757,9861336,NA,"complete",NA,"65678c1c21dd37d57dd05676","computer","Desktop or Laptop","Mac OS 10.15.7","Chrome 119.0.0.0","1440x900","1440x779",NA,NA,0,"BIQ (Charlotte)",3,"DECFBGAHJI","Passed AC2",NA,"Spreadsheet1",1,"BIQ","Screen 2","o21mwi",2,"response","0",18300.133,20467.21,20479.3540001907,18300.133,20467.21,20479.3540001907,1,18300.133,2179.22100019074,0,NA,"Rating Scale","Rating Scale",16,"object-86","BIQ",NA,"SUPPRF39307"
10,1701285242696,"29/11/2023 19:14:02",1701285242696,0,"29/11/2023 19:14:02",154366,3,"task-gjqt",NA,33305757,9861336,NA,"complete",NA,"65678c1c21dd37d57dd05676","computer","Desktop or Laptop","Mac OS 10.15.7","Chrome 119.0.0.0","1440x900","1440x779",NA,NA,0,"BIQ (Charlotte)",3,"DECFBGAHJI","Passed AC2",NA,"Spreadsheet1",1,"BIQ","Screen 3","iz3the",3,"continue","",11639.1440001907,11633.4,11639.1440001907,11639.1440001907,11633.4,11639.1440001907,1,11639.1440001907,0,0,NA,"Click To Continue","Continue Button",22,"object-73","BIQ",NA,"SUPPRF39307"
11,1701285242698,"29/11/2023 19:14:02",1701285242698,0,"29/11/2023 19:14:02",154366,3,"task-gjqt",NA,33305757,9861336,NA,"complete",NA,"65678c1c21dd37d57dd05676","computer","Desktop or Laptop","Mac OS 10.15.7","Chrome 119.0.0.0","1440x900","1440x779",NA,NA,0,"BIQ (Charlotte)",3,"DECFBGAHJI","Passed AC2",NA,"Spreadsheet1",1,"BIQ","Screen 3","iz3the",3,"response","0",4566.484,11633.4,11641.1440001907,4566.484,11633.4,11641.1440001907,1,4566.484,7074.66000019074,0,NA,"Rating Scale","Rating Scale",2,"object-53","BIQ",NA,"SUPPRF39307"
12,1701285242698,"29/11/2023 19:14:02",1701285242698,0,"29/11/2023 19:14:02",154366,3,"task-gjqt",NA,33305757,9861336,NA,"complete",NA,"65678c1c21dd37d57dd05676","computer","Desktop or Laptop","Mac OS 10.15.7","Chrome 119.0.0.0","1440x900","1440x779",NA,NA,0,"BIQ (Charlotte)",3,"DECFBGAHJI","Passed AC2",NA,"Spreadsheet1",1,"BIQ","Screen 3","iz3the",3,"response","2",7449.702,11633.4,11641.4440003815,7449.702,11633.4,11641.4440003815,1,7449.702,4191.74200038147,0,NA,"Rating Scale","Rating Scale",9,"object-60","BIQ",NA,"SUPPRF39307"
13,1701285242699,"29/11/2023 19:14:02",1701285242699,0,"29/11/2023 19:14:02",154366,3,"task-gjqt",NA,33305757,9861336,NA,"complete",NA,"65678c1c21dd37d57dd05676","computer","Desktop or Laptop","Mac OS 10.15.7","Chrome 119.0.0.0","1440x900","1440x779",NA,NA,0,"BIQ (Charlotte)",3,"DECFBGAHJI","Passed AC2",NA,"Spreadsheet1",1,"BIQ","Screen 3","iz3the",3,"response","0",10750.102,11633.4,11641.844,10750.102,11633.4,11641.844,1,10750.102,891.741999999998,0,NA,"Rating Scale","Rating Scale",16,"object-67","BIQ",NA,"SUPPRF39307"
14,1701285242703,"29/11/2023 19:14:02",1701285242703,0,"29/11/2023 19:14:02",154366,3,"task-gjqt",NA,33305757,9861336,NA,"complete",NA,"65678c1c21dd37d57dd05676","computer","Desktop or Laptop","Mac OS 10.15.7","Chrome 119.0.0.0","1440x900","1440x779",NA,NA,0,"BIQ (Charlotte)",3,"DECFBGAHJI","Passed AC2",NA,"Spreadsheet1",NA,"","","",NA,"5","END",NA,NA,NA,NA,NA,NA,0,NA,NA,NA,NA,"","",NA,"","",NA,"SUPPRF39307"
1,1701285543882,"29/11/2023 19:19:03",1701263943882,-6,"29/11/2023 07:19:03",154366,3,"task-gjqt",NA,33305982,9861333,NA,"complete",NA,"65678bbcbfc497603a098e9f","computer","Desktop or Laptop","Windows 10","Chrome 119.0.0.0","1442x757","1440x753",NA,NA,0,"BIQ (Charlotte)",3,"CDBEAFJGIH","Passed AC2",NA,"Spreadsheet1",NA,"","","",NA,"5","BEGIN",NA,NA,NA,NA,NA,NA,0,NA,NA,NA,NA,"","",NA,"","",NA,"SUPPRF16774"
2,1701285649051,"29/11/2023 19:20:49",1701264049051,-6,"29/11/2023 07:20:49",154366,3,"task-gjqt",NA,33305982,9861333,NA,"complete",NA,"65678bbcbfc497603a098e9f","computer","Desktop or Laptop","Windows 10","Chrome 119.0.0.0","1442x757","1440x753",NA,NA,0,"BIQ (Charlotte)",3,"CDBEAFJGIH","Passed AC2",NA,"Spreadsheet1",1,"BIQ","Screen 1","9dh6eq",1,"continue","",105193,105182,105193,105193,105182,105193,1,105193,0,0,NA,"Click To Continue","Continue Button",23,"object-48","BIQ",NA,"SUPPRF16774"
3,1701285649054,"29/11/2023 19:20:49",1701264049054,-6,"29/11/2023 07:20:49",154366,3,"task-gjqt",NA,33305982,9861333,NA,"complete",NA,"65678bbcbfc497603a098e9f","computer","Desktop or Laptop","Windows 10","Chrome 119.0.0.0","1442x757","1440x753",NA,NA,0,"BIQ (Charlotte)",3,"CDBEAFJGIH","Passed AC2",NA,"Spreadsheet1",1,"BIQ","Screen 1","9dh6eq",1,"response","5",102298,105182,105197,102298,105182,105197,1,102298,2899,0,NA,"Rating Scale","Rating Scale",3,"object-5","BIQ",NA,"SUPPRF16774"
4,1701285649054,"29/11/2023 19:20:49",1701264049054,-6,"29/11/2023 07:20:49",154366,3,"task-gjqt",NA,33305982,9861333,NA,"complete",NA,"65678bbcbfc497603a098e9f","computer","Desktop or Laptop","Windows 10","Chrome 119.0.0.0","1442x757","1440x753",NA,NA,0,"BIQ (Charlotte)",3,"CDBEAFJGIH","Passed AC2",NA,"Spreadsheet1",1,"BIQ","Screen 1","9dh6eq",1,"response","3",104081,105182,105197,104081,105182,105197,1,104081,1116,0,NA,"Rating Scale","Rating Scale",10,"object-18","BIQ",NA,"SUPPRF16774"
5,1701285649055,"29/11/2023 19:20:49",1701264049055,-6,"29/11/2023 07:20:49",154366,3,"task-gjqt",NA,33305982,9861333,NA,"complete",NA,"65678bbcbfc497603a098e9f","computer","Desktop or Laptop","Windows 10","Chrome 119.0.0.0","1442x757","1440x753",NA,NA,0,"BIQ (Charlotte)",3,"CDBEAFJGIH","Passed AC2",NA,"Spreadsheet1",1,"BIQ","Screen 1","9dh6eq",1,"response","4",104681,105182,105198,104681,105182,105198,1,104681,517,0,NA,"Rating Scale","Rating Scale",17,"object-80","BIQ",NA,"SUPPRF16774"
6,1701285656249,"29/11/2023 19:20:56",1701264056249,-6,"29/11/2023 07:20:56",154366,3,"task-gjqt",NA,33305982,9861333,NA,"complete",NA,"65678bbcbfc497603a098e9f","computer","Desktop or Laptop","Windows 10","Chrome 119.0.0.0","1442x757","1440x753",NA,NA,0,"BIQ (Charlotte)",3,"CDBEAFJGIH","Passed AC2",NA,"Spreadsheet1",1,"BIQ","Screen 2","o21mwi",2,"continue","",7211,7199,7211,7211,7199,7211,1,7211,0,0,NA,"Click To Continue","Continue Button",22,"object-50","BIQ",NA,"SUPPRF16774"
7,1701285656250,"29/11/2023 19:20:56",1701264056250,-6,"29/11/2023 07:20:56",154366,3,"task-gjqt",NA,33305982,9861333,NA,"complete",NA,"65678bbcbfc497603a098e9f","computer","Desktop or Laptop","Windows 10","Chrome 119.0.0.0","1442x757","1440x753",NA,NA,0,"BIQ (Charlotte)",3,"CDBEAFJGIH","Passed AC2",NA,"Spreadsheet1",1,"BIQ","Screen 2","o21mwi",2,"response","3",1466,7199,7211,1466,7199,7211,1,1466,5745,0,NA,"Rating Scale","Rating Scale",2,"object-259","BIQ",NA,"SUPPRF16774"
8,1701285656250,"29/11/2023 19:20:56",1701264056250,-6,"29/11/2023 07:20:56",154366,3,"task-gjqt",NA,33305982,9861333,NA,"complete",NA,"65678bbcbfc497603a098e9f","computer","Desktop or Laptop","Windows 10","Chrome 119.0.0.0","1442x757","1440x753",NA,NA,0,"BIQ (Charlotte)",3,"CDBEAFJGIH","Passed AC2",NA,"Spreadsheet1",1,"BIQ","Screen 2","o21mwi",2,"response","4",2200,7199,7211,2200,7199,7211,1,2200,5011,0,NA,"Rating Scale","Rating Scale",9,"object-36","BIQ",NA,"SUPPRF16774"
9,1701285656251,"29/11/2023 19:20:56",1701264056251,-6,"29/11/2023 07:20:56",154366,3,"task-gjqt",NA,33305982,9861333,NA,"complete",NA,"65678bbcbfc497603a098e9f","computer","Desktop or Laptop","Windows 10","Chrome 119.0.0.0","1442x757","1440x753",NA,NA,0,"BIQ (Charlotte)",3,"CDBEAFJGIH","Passed AC2",NA,"Spreadsheet1",1,"BIQ","Screen 2","o21mwi",2,"response","5",2849,7199,7212,2849,7199,7212,1,2849,4363,0,NA,"Rating Scale","Rating Scale",16,"object-86","BIQ",NA,"SUPPRF16774"
10,1701285660242,"29/11/2023 19:21:00",1701264060242,-6,"29/11/2023 07:21:00",154366,3,"task-gjqt",NA,33305982,9861333,NA,"complete",NA,"65678bbcbfc497603a098e9f","computer","Desktop or Laptop","Windows 10","Chrome 119.0.0.0","1442x757","1440x753",NA,NA,0,"BIQ (Charlotte)",3,"CDBEAFJGIH","Passed AC2",NA,"Spreadsheet1",1,"BIQ","Screen 3","iz3the",3,"continue","",4004,4000,4004,4004,4000,4004,1,4004,0,0,NA,"Click To Continue","Continue Button",22,"object-73","BIQ",NA,"SUPPRF16774"
11,1701285660248,"29/11/2023 19:21:00",1701264060248,-6,"29/11/2023 07:21:00",154366,3,"task-gjqt",NA,33305982,9861333,NA,"complete",NA,"65678bbcbfc497603a098e9f","computer","Desktop or Laptop","Windows 10","Chrome 119.0.0.0","1442x757","1440x753",NA,NA,0,"BIQ (Charlotte)",3,"CDBEAFJGIH","Passed AC2",NA,"Spreadsheet1",1,"BIQ","Screen 3","iz3the",3,"response","3",1884,4000,4011,1884,4000,4011,1,1884,2127,0,NA,"Rating Scale","Rating Scale",2,"object-53","BIQ",NA,"SUPPRF16774"
12,1701285660249,"29/11/2023 19:21:00",1701264060249,-6,"29/11/2023 07:21:00",154366,3,"task-gjqt",NA,33305982,9861333,NA,"complete",NA,"65678bbcbfc497603a098e9f","computer","Desktop or Laptop","Windows 10","Chrome 119.0.0.0","1442x757","1440x753",NA,NA,0,"BIQ (Charlotte)",3,"CDBEAFJGIH","Passed AC2",NA,"Spreadsheet1",1,"BIQ","Screen 3","iz3the",3,"response","4",2717,4000,4012,2717,4000,4012,1,2717,1295,0,NA,"Rating Scale","Rating Scale",9,"object-60","BIQ",NA,"SUPPRF16774"
13,1701285660250,"29/11/2023 19:21:00",1701264060250,-6,"29/11/2023 07:21:00",154366,3,"task-gjqt",NA,33305982,9861333,NA,"complete",NA,"65678bbcbfc497603a098e9f","computer","Desktop or Laptop","Windows 10","Chrome 119.0.0.0","1442x757","1440x753",NA,NA,0,"BIQ (Charlotte)",3,"CDBEAFJGIH","Passed AC2",NA,"Spreadsheet1",1,"BIQ","Screen 3","iz3the",3,"response","5",3300,4000,4012,3300,4000,4012,1,3300,712,0,NA,"Rating Scale","Rating Scale",16,"object-67","BIQ",NA,"SUPPRF16774"
14,1701285660258,"29/11/2023 19:21:00",1701264060258,-6,"29/11/2023 07:21:00",154366,3,"task-gjqt",NA,33305982,9861333,NA,"complete",NA,"65678bbcbfc497603a098e9f","computer","Desktop or Laptop","Windows 10","Chrome 119.0.0.0","1442x757","1440x753",NA,NA,0,"BIQ (Charlotte)",3,"CDBEAFJGIH","Passed AC2",NA,"Spreadsheet1",NA,"","","",NA,"5","END",NA,NA,NA,NA,NA,NA,0,NA,NA,NA,NA,"","",NA,"","",NA,"SUPPRF16774"
1,1701285747774,"29/11/2023 19:22:27",1701256947774,-8,"29/11/2023 03:22:27",154366,3,"task-gjqt",NA,33306128,9861419,NA,"complete",NA,"65678e9eab63379c5388dfa4","computer","Desktop or Laptop","Windows 10","Chrome 119.0.0.0","1927x943","1920x941",NA,NA,0,"BIQ (Charlotte)",3,"EFDGCHBIAJ","Passed AC2",NA,"Spreadsheet1",NA,"","","",NA,"5","BEGIN",NA,NA,NA,NA,NA,NA,0,NA,NA,NA,NA,"","",NA,"","",NA,"SUPPRF50800"
2,1701285805136,"29/11/2023 19:23:25",1701257005136,-8,"29/11/2023 03:23:25",154366,3,"task-gjqt",NA,33306128,9861419,NA,"complete",NA,"65678e9eab63379c5388dfa4","computer","Desktop or Laptop","Windows 10","Chrome 119.0.0.0","1927x943","1920x941",NA,NA,0,"BIQ (Charlotte)",3,"EFDGCHBIAJ","Passed AC2",NA,"Spreadsheet1",1,"BIQ","Screen 1","9dh6eq",1,"continue","",57367,57363,57367,57367,57363,57367,1,57367,0,0,NA,"Click To Continue","Continue Button",23,"object-48","BIQ",NA,"SUPPRF50800"
3,1701285805138,"29/11/2023 19:23:25",1701257005138,-8,"29/11/2023 03:23:25",154366,3,"task-gjqt",NA,33306128,9861419,NA,"complete",NA,"65678e9eab63379c5388dfa4","computer","Desktop or Laptop","Windows 10","Chrome 119.0.0.0","1927x943","1920x941",NA,NA,0,"BIQ (Charlotte)",3,"EFDGCHBIAJ","Passed AC2",NA,"Spreadsheet1",1,"BIQ","Screen 1","9dh6eq",1,"response","6",28948,57363,57370,28948,57363,57370,1,28948,28422,0,NA,"Rating Scale","Rating Scale",3,"object-5","BIQ",NA,"SUPPRF50800"
4,1701285805138,"29/11/2023 19:23:25",1701257005138,-8,"29/11/2023 03:23:25",154366,3,"task-gjqt",NA,33306128,9861419,NA,"complete",NA,"65678e9eab63379c5388dfa4","computer","Desktop or Laptop","Windows 10","Chrome 119.0.0.0","1927x943","1920x941",NA,NA,0,"BIQ (Charlotte)",3,"EFDGCHBIAJ","Passed AC2",NA,"Spreadsheet1",1,"BIQ","Screen 1","9dh6eq",1,"response","8",38848,57363,57370,38848,57363,57370,1,38848,18522,0,NA,"Rating Scale","Rating Scale",10,"object-18","BIQ",NA,"SUPPRF50800"
5,1701285805138,"29/11/2023 19:23:25",1701257005138,-8,"29/11/2023 03:23:25",154366,3,"task-gjqt",NA,33306128,9861419,NA,"complete",NA,"65678e9eab63379c5388dfa4","computer","Desktop or Laptop","Windows 10","Chrome 119.0.0.0","1927x943","1920x941",NA,NA,0,"BIQ (Charlotte)",3,"EFDGCHBIAJ","Passed AC2",NA,"Spreadsheet1",1,"BIQ","Screen 1","9dh6eq",1,"response","2",54047,57363,57370,54047,57363,57370,1,54047,3323,0,NA,"Rating Scale","Rating Scale",17,"object-80","BIQ",NA,"SUPPRF50800"
6,1701285867419,"29/11/2023 19:24:27",1701257067419,-8,"29/11/2023 03:24:27",154366,3,"task-gjqt",NA,33306128,9861419,NA,"complete",NA,"65678e9eab63379c5388dfa4","computer","Desktop or Laptop","Windows 10","Chrome 119.0.0.0","1927x943","1920x941",NA,NA,0,"BIQ (Charlotte)",3,"EFDGCHBIAJ","Passed AC2",NA,"Spreadsheet1",1,"BIQ","Screen 2","o21mwi",2,"continue","",62289,62280,62289,62289,62280,62289,1,62289,0,0,NA,"Click To Continue","Continue Button",22,"object-50","BIQ",NA,"SUPPRF50800"
7,1701285867421,"29/11/2023 19:24:27",1701257067421,-8,"29/11/2023 03:24:27",154366,3,"task-gjqt",NA,33306128,9861419,NA,"complete",NA,"65678e9eab63379c5388dfa4","computer","Desktop or Laptop","Windows 10","Chrome 119.0.0.0","1927x943","1920x941",NA,NA,0,"BIQ (Charlotte)",3,"EFDGCHBIAJ","Passed AC2",NA,"Spreadsheet1",1,"BIQ","Screen 2","o21mwi",2,"response","7",9733,62280,62292,9733,62280,62292,1,9733,52559,0,NA,"Rating Scale","Rating Scale",2,"object-259","BIQ",NA,"SUPPRF50800"
8,1701285867421,"29/11/2023 19:24:27",1701257067421,-8,"29/11/2023 03:24:27",154366,3,"task-gjqt",NA,33306128,9861419,NA,"complete",NA,"65678e9eab63379c5388dfa4","computer","Desktop or Laptop","Windows 10","Chrome 119.0.0.0","1927x943","1920x941",NA,NA,0,"BIQ (Charlotte)",3,"EFDGCHBIAJ","Passed AC2",NA,"Spreadsheet1",1,"BIQ","Screen 2","o21mwi",2,"response","1",42698,62280,62292,42698,62280,62292,1,42698,19594,0,NA,"Rating Scale","Rating Scale",9,"object-36","BIQ",NA,"SUPPRF50800"
9,1701285867422,"29/11/2023 19:24:27",1701257067422,-8,"29/11/2023 03:24:27",154366,3,"task-gjqt",NA,33306128,9861419,NA,"complete",NA,"65678e9eab63379c5388dfa4","computer","Desktop or Laptop","Windows 10","Chrome 119.0.0.0","1927x943","1920x941",NA,NA,0,"BIQ (Charlotte)",3,"EFDGCHBIAJ","Passed AC2",NA,"Spreadsheet1",1,"BIQ","Screen 2","o21mwi",2,"response","1",60080,62280,62292,60080,62280,62292,1,60080,2212,0,NA,"Rating Scale","Rating Scale",16,"object-86","BIQ",NA,"SUPPRF50800"
10,1701285886740,"29/11/2023 19:24:46",1701257086740,-8,"29/11/2023 03:24:46",154366,3,"task-gjqt",NA,33306128,9861419,NA,"complete",NA,"65678e9eab63379c5388dfa4","computer","Desktop or Laptop","Windows 10","Chrome 119.0.0.0","1927x943","1920x941",NA,NA,0,"BIQ (Charlotte)",3,"EFDGCHBIAJ","Passed AC2",NA,"Spreadsheet1",1,"BIQ","Screen 3","iz3the",3,"continue","",19330,19316,19330,19330,19316,19330,1,19330,0,0,NA,"Click To Continue","Continue Button",22,"object-73","BIQ",NA,"SUPPRF50800"
11,1701285886741,"29/11/2023 19:24:46",1701257086741,-8,"29/11/2023 03:24:46",154366,3,"task-gjqt",NA,33306128,9861419,NA,"complete",NA,"65678e9eab63379c5388dfa4","computer","Desktop or Laptop","Windows 10","Chrome 119.0.0.0","1927x943","1920x941",NA,NA,0,"BIQ (Charlotte)",3,"EFDGCHBIAJ","Passed AC2",NA,"Spreadsheet1",1,"BIQ","Screen 3","iz3the",3,"response","0",9316,19316,19331,9316,19316,19331,1,9316,10015,0,NA,"Rating Scale","Rating Scale",2,"object-53","BIQ",NA,"SUPPRF50800"
12,1701285886741,"29/11/2023 19:24:46",1701257086741,-8,"29/11/2023 03:24:46",154366,3,"task-gjqt",NA,33306128,9861419,NA,"complete",NA,"65678e9eab63379c5388dfa4","computer","Desktop or Laptop","Windows 10","Chrome 119.0.0.0","1927x943","1920x941",NA,NA,0,"BIQ (Charlotte)",3,"EFDGCHBIAJ","Passed AC2",NA,"Spreadsheet1",1,"BIQ","Screen 3","iz3the",3,"response","1",14099,19316,19332,14099,19316,19332,1,14099,5233,0,NA,"Rating Scale","Rating Scale",9,"object-60","BIQ",NA,"SUPPRF50800"
13,1701285886741,"29/11/2023 19:24:46",1701257086741,-8,"29/11/2023 03:24:46",154366,3,"task-gjqt",NA,33306128,9861419,NA,"complete",NA,"65678e9eab63379c5388dfa4","computer","Desktop or Laptop","Windows 10","Chrome 119.0.0.0","1927x943","1920x941",NA,NA,0,"BIQ (Charlotte)",3,"EFDGCHBIAJ","Passed AC2",NA,"Spreadsheet1",1,"BIQ","Screen 3","iz3the",3,"response","0",18432,19316,19332,18432,19316,19332,1,18432,900,0,NA,"Rating Scale","Rating Scale",16,"object-67","BIQ",NA,"SUPPRF50800"
14,1701285886745,"29/11/2023 19:24:46",1701257086745,-8,"29/11/2023 03:24:46",154366,3,"task-gjqt",NA,33306128,9861419,NA,"complete",NA,"65678e9eab63379c5388dfa4","computer","Desktop or Laptop","Windows 10","Chrome 119.0.0.0","1927x943","1920x941",NA,NA,0,"BIQ (Charlotte)",3,"EFDGCHBIAJ","Passed AC2",NA,"Spreadsheet1",NA,"","","",NA,"5","END",NA,NA,NA,NA,NA,NA,0,NA,NA,NA,NA,"","",NA,"","",NA,"SUPPRF50800"
1,1701286689800,"29/11/2023 19:38:09",1701268689800,-5,"29/11/2023 09:38:09",154366,3,"task-gjqt",NA,33306657,9861535,NA,"complete",NA,"656791bfcfaa2c35b71a697e","computer","Desktop or Laptop","Mac OS 10.15.7","Chrome 118.0.0.0","1440x900","1440x815",NA,NA,0,"BIQ (Charlotte)",3,"GHFIEJDACB","Passed AC2",NA,"Spreadsheet1",NA,"","","",NA,"5","BEGIN",NA,NA,NA,NA,NA,NA,0,NA,NA,NA,NA,"","",NA,"","",NA,"SUPPRF59946"
2,1701286729088,"29/11/2023 19:38:49",1701268729088,-5,"29/11/2023 09:38:49",154366,3,"task-gjqt",NA,33306657,9861535,NA,"complete",NA,"656791bfcfaa2c35b71a697e","computer","Desktop or Laptop","Mac OS 10.15.7","Chrome 118.0.0.0","1440x900","789x731",NA,NA,0,"BIQ (Charlotte)",3,"GHFIEJDACB","Passed AC2",NA,"Spreadsheet1",1,"BIQ","Screen 1","9dh6eq",1,"continue","",39309.5969999046,39296.755,39309.5969999046,39309.5969999046,39296.755,39309.5969999046,1,39309.5969999046,0,0,NA,"Click To Continue","Continue Button",23,"object-48","BIQ",NA,"SUPPRF59946"
3,1701286729090,"29/11/2023 19:38:49",1701268729090,-5,"29/11/2023 09:38:49",154366,3,"task-gjqt",NA,33306657,9861535,NA,"complete",NA,"656791bfcfaa2c35b71a697e","computer","Desktop or Laptop","Mac OS 10.15.7","Chrome 118.0.0.0","1440x900","789x731",NA,NA,0,"BIQ (Charlotte)",3,"GHFIEJDACB","Passed AC2",NA,"Spreadsheet1",1,"BIQ","Screen 1","9dh6eq",1,"response","1",7898.507,39296.755,39312.6969998093,7898.507,39296.755,39312.6969998093,1,7898.507,31414.1899998093,0,NA,"Rating Scale","Rating Scale",3,"object-5","BIQ",NA,"SUPPRF59946"
4,1701286729090,"29/11/2023 19:38:49",1701268729090,-5,"29/11/2023 09:38:49",154366,3,"task-gjqt",NA,33306657,9861535,NA,"complete",NA,"656791bfcfaa2c35b71a697e","computer","Desktop or Laptop","Mac OS 10.15.7","Chrome 118.0.0.0","1440x900","789x731",NA,NA,0,"BIQ (Charlotte)",3,"GHFIEJDACB","Passed AC2",NA,"Spreadsheet1",1,"BIQ","Screen 1","9dh6eq",1,"response","7",24149.072,39296.755,39313.0969999046,24149.072,39296.755,39313.0969999046,1,24149.072,15164.0249999046,0,NA,"Rating Scale","Rating Scale",10,"object-18","BIQ",NA,"SUPPRF59946"
5,1701286729090,"29/11/2023 19:38:49",1701268729090,-5,"29/11/2023 09:38:49",154366,3,"task-gjqt",NA,33306657,9861535,NA,"complete",NA,"656791bfcfaa2c35b71a697e","computer","Desktop or Laptop","Mac OS 10.15.7","Chrome 118.0.0.0","1440x900","789x731",NA,NA,0,"BIQ (Charlotte)",3,"GHFIEJDACB","Passed AC2",NA,"Spreadsheet1",1,"BIQ","Screen 1","9dh6eq",1,"response","5",38096.803,39296.755,39313.3970000954,38096.803,39296.755,39313.3970000954,1,38096.803,1216.59400009537,0,NA,"Rating Scale","Rating Scale",17,"object-80","BIQ",NA,"SUPPRF59946"
6,1701286763497,"29/11/2023 19:39:23",1701268763497,-5,"29/11/2023 09:39:23",154366,3,"task-gjqt",NA,33306657,9861535,NA,"complete",NA,"656791bfcfaa2c35b71a697e","computer","Desktop or Laptop","Mac OS 10.15.7","Chrome 118.0.0.0","1440x900","789x731",NA,NA,0,"BIQ (Charlotte)",3,"GHFIEJDACB","Passed AC2",NA,"Spreadsheet1",1,"BIQ","Screen 2","o21mwi",2,"continue","",34423.0419997139,34410.198,34423.0419997139,34423.0419997139,34410.198,34423.0419997139,1,34423.0419997139,0,0,NA,"Click To Continue","Continue Button",22,"object-50","BIQ",NA,"SUPPRF59946"
7,1701286763501,"29/11/2023 19:39:23",1701268763501,-5,"29/11/2023 09:39:23",154366,3,"task-gjqt",NA,33306657,9861535,NA,"complete",NA,"656791bfcfaa2c35b71a697e","computer","Desktop or Laptop","Mac OS 10.15.7","Chrome 118.0.0.0","1440x900","789x731",NA,NA,0,"BIQ (Charlotte)",3,"GHFIEJDACB","Passed AC2",NA,"Spreadsheet1",1,"BIQ","Screen 2","o21mwi",2,"response","7",6581.827,34410.198,34426.6420000954,6581.827,34410.198,34426.6420000954,1,6581.827,27844.8150000954,0,NA,"Rating Scale","Rating Scale",2,"object-259","BIQ",NA,"SUPPRF59946"
8,1701286763501,"29/11/2023 19:39:23",1701268763501,-5,"29/11/2023 09:39:23",154366,3,"task-gjqt",NA,33306657,9861535,NA,"complete",NA,"656791bfcfaa2c35b71a697e","computer","Desktop or Laptop","Mac OS 10.15.7","Chrome 118.0.0.0","1440x900","789x731",NA,NA,0,"BIQ (Charlotte)",3,"GHFIEJDACB","Passed AC2",NA,"Spreadsheet1",1,"BIQ","Screen 2","o21mwi",2,"response","7",14104.549,34410.198,34426.864,14104.549,34410.198,34426.864,1,14104.549,20322.315,0,NA,"Rating Scale","Rating Scale",9,"object-36","BIQ",NA,"SUPPRF59946"
9,1701286763502,"29/11/2023 19:39:23",1701268763502,-5,"29/11/2023 09:39:23",154366,3,"task-gjqt",NA,33306657,9861535,NA,"complete",NA,"656791bfcfaa2c35b71a697e","computer","Desktop or Laptop","Mac OS 10.15.7","Chrome 118.0.0.0","1440x900","789x731",NA,NA,0,"BIQ (Charlotte)",3,"GHFIEJDACB","Passed AC2",NA,"Spreadsheet1",1,"BIQ","Screen 2","o21mwi",2,"response","2",32560.272,34410.198,34426.864,32560.272,34410.198,34426.864,1,32560.272,1866.59200000002,0,NA,"Rating Scale","Rating Scale",16,"object-86","BIQ",NA,"SUPPRF59946"
10,1701286776898,"29/11/2023 19:39:36",1701268776898,-5,"29/11/2023 09:39:36",154366,3,"task-gjqt",NA,33306657,9861535,NA,"complete",NA,"656791bfcfaa2c35b71a697e","computer","Desktop or Laptop","Mac OS 10.15.7","Chrome 118.0.0.0","1440x900","789x731",NA,NA,0,"BIQ (Charlotte)",3,"GHFIEJDACB","Passed AC2",NA,"Spreadsheet1",1,"BIQ","Screen 3","iz3the",3,"continue","",13413.9440000954,13405.844,13413.9440000954,13413.9440000954,13405.844,13413.9440000954,1,13413.9440000954,0,0,NA,"Click To Continue","Continue Button",22,"object-73","BIQ",NA,"SUPPRF59946"
11,1701286776900,"29/11/2023 19:39:36",1701268776900,-5,"29/11/2023 09:39:36",154366,3,"task-gjqt",NA,33306657,9861535,NA,"complete",NA,"656791bfcfaa2c35b71a697e","computer","Desktop or Laptop","Mac OS 10.15.7","Chrome 118.0.0.0","1440x900","789x731",NA,NA,0,"BIQ (Charlotte)",3,"GHFIEJDACB","Passed AC2",NA,"Spreadsheet1",1,"BIQ","Screen 3","iz3the",3,"response","2",4816.47399999999,13405.844,13416.1439999046,4816.47399999999,13405.844,13416.1439999046,1,4816.47399999999,8599.66999990464,0,NA,"Rating Scale","Rating Scale",2,"object-53","BIQ",NA,"SUPPRF59946"
12,1701286776901,"29/11/2023 19:39:36",1701268776901,-5,"29/11/2023 09:39:36",154366,3,"task-gjqt",NA,33306657,9861535,NA,"complete",NA,"656791bfcfaa2c35b71a697e","computer","Desktop or Laptop","Mac OS 10.15.7","Chrome 118.0.0.0","1440x900","789x731",NA,NA,0,"BIQ (Charlotte)",3,"GHFIEJDACB","Passed AC2",NA,"Spreadsheet1",1,"BIQ","Screen 3","iz3the",3,"response","1",8872.692,13405.844,13416.544,8872.692,13405.844,13416.544,1,8872.692,4543.852,0,NA,"Rating Scale","Rating Scale",9,"object-60","BIQ",NA,"SUPPRF59946"
13,1701286776901,"29/11/2023 19:39:36",1701268776901,-5,"29/11/2023 09:39:36",154366,3,"task-gjqt",NA,33306657,9861535,NA,"complete",NA,"656791bfcfaa2c35b71a697e","computer","Desktop or Laptop","Mac OS 10.15.7","Chrome 118.0.0.0","1440x900","789x731",NA,NA,0,"BIQ (Charlotte)",3,"GHFIEJDACB","Passed AC2",NA,"Spreadsheet1",1,"BIQ","Screen 3","iz3the",3,"response","8",12555.878,13405.844,13417.044,12555.878,13405.844,13417.044,1,12555.878,861.165999999997,0,NA,"Rating Scale","Rating Scale",16,"object-67","BIQ",NA,"SUPPRF59946"
14,1701286776906,"29/11/2023 19:39:36",1701268776906,-5,"29/11/2023 09:39:36",154366,3,"task-gjqt",NA,33306657,9861535,NA,"complete",NA,"656791bfcfaa2c35b71a697e","computer","Desktop or Laptop","Mac OS 10.15.7","Chrome 118.0.0.0","1440x900","789x731",NA,NA,0,"BIQ (Charlotte)",3,"GHFIEJDACB","Passed AC2",NA,"Spreadsheet1",NA,"","","",NA,"5","END",NA,NA,NA,NA,NA,NA,0,NA,NA,NA,NA,"","",NA,"","",NA,"SUPPRF59946"
1,1701286964470,"29/11/2023 19:42:44",1701286964470,0,"29/11/2023 19:42:44",154366,3,"task-gjqt",NA,33306921,9861596,NA,"complete",NA,"65679361965e6ca688f5576f","computer","Desktop or Laptop","Linux x86_64","Chrome 119.0.0.0","432x984","852x1691",NA,NA,0,"BIQ (Charlotte)",3,"HIGJFAEBDC","Passed AC2",NA,"Spreadsheet1",NA,"","","",NA,"5","BEGIN",NA,NA,NA,NA,NA,NA,0,NA,NA,NA,NA,"","",NA,"","",NA,"SUPPRF47480"
2,1701286998195,"29/11/2023 19:43:18",1701286998195,0,"29/11/2023 19:43:18",154366,3,"task-gjqt",NA,33306921,9861596,NA,"complete",NA,"65679361965e6ca688f5576f","computer","Desktop or Laptop","Linux x86_64","Chrome 119.0.0.0","432x984","852x1691",NA,NA,0,"BIQ (Charlotte)",3,"HIGJFAEBDC","Passed AC2",NA,"Spreadsheet1",1,"BIQ","Screen 1","9dh6eq",1,"continue","",33745.2730000477,33730.199,33745.2730000477,33745.2730000477,33730.199,33745.2730000477,1,33745.2730000477,0,0,NA,"Click To Continue","Continue Button",23,"object-48","BIQ",NA,"SUPPRF47480"
3,1701286998199,"29/11/2023 19:43:18",1701286998199,0,"29/11/2023 19:43:18",154366,3,"task-gjqt",NA,33306921,9861596,NA,"complete",NA,"65679361965e6ca688f5576f","computer","Desktop or Laptop","Linux x86_64","Chrome 119.0.0.0","432x984","852x1691",NA,NA,0,"BIQ (Charlotte)",3,"HIGJFAEBDC","Passed AC2",NA,"Spreadsheet1",1,"BIQ","Screen 1","9dh6eq",1,"response","6",14629.943,33730.199,33746.855,14629.943,33730.199,33746.855,1,14629.943,19116.912,0,NA,"Rating Scale","Rating Scale",3,"object-5","BIQ",NA,"SUPPRF47480"
4,1701286998200,"29/11/2023 19:43:18",1701286998200,0,"29/11/2023 19:43:18",154366,3,"task-gjqt",NA,33306921,9861596,NA,"complete",NA,"65679361965e6ca688f5576f","computer","Desktop or Laptop","Linux x86_64","Chrome 119.0.0.0","432x984","852x1691",NA,NA,0,"BIQ (Charlotte)",3,"HIGJFAEBDC","Passed AC2",NA,"Spreadsheet1",1,"BIQ","Screen 1","9dh6eq",1,"response","2",25484.989,33730.199,33746.855,25484.989,33730.199,33746.855,1,25484.989,8261.86599999999,0,NA,"Rating Scale","Rating Scale",10,"object-18","BIQ",NA,"SUPPRF47480"
5,1701286998200,"29/11/2023 19:43:18",1701286998200,0,"29/11/2023 19:43:18",154366,3,"task-gjqt",NA,33306921,9861596,NA,"complete",NA,"65679361965e6ca688f5576f","computer","Desktop or Laptop","Linux x86_64","Chrome 119.0.0.0","432x984","852x1691",NA,NA,0,"BIQ (Charlotte)",3,"HIGJFAEBDC","Passed AC2",NA,"Spreadsheet1",1,"BIQ","Screen 1","9dh6eq",1,"response","3",29632.639,33730.199,33746.855,29632.639,33730.199,33746.855,1,29632.639,4114.21599999999,0,NA,"Rating Scale","Rating Scale",17,"object-80","BIQ",NA,"SUPPRF47480"
6,1701287026580,"29/11/2023 19:43:46",1701287026580,0,"29/11/2023 19:43:46",154366,3,"task-gjqt",NA,33306921,9861596,NA,"complete",NA,"65679361965e6ca688f5576f","computer","Desktop or Laptop","Linux x86_64","Chrome 119.0.0.0","432x984","852x1691",NA,NA,0,"BIQ (Charlotte)",3,"HIGJFAEBDC","Passed AC2",NA,"Spreadsheet1",1,"BIQ","Screen 2","o21mwi",2,"continue","",28400.174,28383.513,28400.174,28400.174,28383.513,28400.174,1,28400.174,0,0,NA,"Click To Continue","Continue Button",22,"object-50","BIQ",NA,"SUPPRF47480"
7,1701287026590,"29/11/2023 19:43:46",1701287026590,0,"29/11/2023 19:43:46",154366,3,"task-gjqt",NA,33306921,9861596,NA,"complete",NA,"65679361965e6ca688f5576f","computer","Desktop or Laptop","Linux x86_64","Chrome 119.0.0.0","432x984","852x1691",NA,NA,0,"BIQ (Charlotte)",3,"HIGJFAEBDC","Passed AC2",NA,"Spreadsheet1",1,"BIQ","Screen 2","o21mwi",2,"response","3",16582.5,28383.513,28400.174,16582.5,28383.513,28400.174,1,16582.5,11817.674,0,NA,"Rating Scale","Rating Scale",2,"object-259","BIQ",NA,"SUPPRF47480"
8,1701287026591,"29/11/2023 19:43:46",1701287026591,0,"29/11/2023 19:43:46",154366,3,"task-gjqt",NA,33306921,9861596,NA,"complete",NA,"65679361965e6ca688f5576f","computer","Desktop or Laptop","Linux x86_64","Chrome 119.0.0.0","432x984","852x1691",NA,NA,0,"BIQ (Charlotte)",3,"HIGJFAEBDC","Passed AC2",NA,"Spreadsheet1",1,"BIQ","Screen 2","o21mwi",2,"response","2",19866.749,28383.513,28400.174,19866.749,28383.513,28400.174,1,19866.749,8533.425,0,NA,"Rating Scale","Rating Scale",9,"object-36","BIQ",NA,"SUPPRF47480"
9,1701287026593,"29/11/2023 19:43:46",1701287026593,0,"29/11/2023 19:43:46",154366,3,"task-gjqt",NA,33306921,9861596,NA,"complete",NA,"65679361965e6ca688f5576f","computer","Desktop or Laptop","Linux x86_64","Chrome 119.0.0.0","432x984","852x1691",NA,NA,0,"BIQ (Charlotte)",3,"HIGJFAEBDC","Passed AC2",NA,"Spreadsheet1",1,"BIQ","Screen 2","o21mwi",2,"response","4",27511.514,28383.513,28400.174,27511.514,28383.513,28400.174,1,27511.514,888.660000000003,0,NA,"Rating Scale","Rating Scale",16,"object-86","BIQ",NA,"SUPPRF47480"
10,1701287042072,"29/11/2023 19:44:02",1701287042072,0,"29/11/2023 19:44:02",154366,3,"task-gjqt",NA,33306921,9861596,NA,"complete",NA,"65679361965e6ca688f5576f","computer","Desktop or Laptop","Linux x86_64","Chrome 119.0.0.0","432x984","852x1691",NA,NA,0,"BIQ (Charlotte)",3,"HIGJFAEBDC","Passed AC2",NA,"Spreadsheet1",1,"BIQ","Screen 3","iz3the",3,"continue","",15507.511,15490.86,15507.511,15507.511,15490.86,15507.511,1,15507.511,0,0,NA,"Click To Continue","Continue Button",22,"object-73","BIQ",NA,"SUPPRF47480"
11,1701287042076,"29/11/2023 19:44:02",1701287042076,0,"29/11/2023 19:44:02",154366,3,"task-gjqt",NA,33306921,9861596,NA,"complete",NA,"65679361965e6ca688f5576f","computer","Desktop or Laptop","Linux x86_64","Chrome 119.0.0.0","432x984","852x1691",NA,NA,0,"BIQ (Charlotte)",3,"HIGJFAEBDC","Passed AC2",NA,"Spreadsheet1",1,"BIQ","Screen 3","iz3the",3,"response","1",5181.19299999999,15490.86,15507.511,5181.19299999999,15490.86,15507.511,1,5181.19299999999,10326.318,0,NA,"Rating Scale","Rating Scale",2,"object-53","BIQ",NA,"SUPPRF47480"
12,1701287042077,"29/11/2023 19:44:02",1701287042077,0,"29/11/2023 19:44:02",154366,3,"task-gjqt",NA,33306921,9861596,NA,"complete",NA,"65679361965e6ca688f5576f","computer","Desktop or Laptop","Linux x86_64","Chrome 119.0.0.0","432x984","852x1691",NA,NA,0,"BIQ (Charlotte)",3,"HIGJFAEBDC","Passed AC2",NA,"Spreadsheet1",1,"BIQ","Screen 3","iz3the",3,"response","2",10860.727,15490.86,15507.511,10860.727,15490.86,15507.511,1,10860.727,4646.784,0,NA,"Rating Scale","Rating Scale",9,"object-60","BIQ",NA,"SUPPRF47480"
13,1701287042078,"29/11/2023 19:44:02",1701287042078,0,"29/11/2023 19:44:02",154366,3,"task-gjqt",NA,33306921,9861596,NA,"complete",NA,"65679361965e6ca688f5576f","computer","Desktop or Laptop","Linux x86_64","Chrome 119.0.0.0","432x984","852x1691",NA,NA,0,"BIQ (Charlotte)",3,"HIGJFAEBDC","Passed AC2",NA,"Spreadsheet1",1,"BIQ","Screen 3","iz3the",3,"response","1",15041.609,15490.86,15507.511,15041.609,15490.86,15507.511,1,15041.609,465.901999999987,0,NA,"Rating Scale","Rating Scale",16,"object-67","BIQ",NA,"SUPPRF47480"
14,1701287042084,"29/11/2023 19:44:02",1701287042084,0,"29/11/2023 19:44:02",154366,3,"task-gjqt",NA,33306921,9861596,NA,"complete",NA,"65679361965e6ca688f5576f","computer","Desktop or Laptop","Linux x86_64","Chrome 119.0.0.0","432x984","852x1691",NA,NA,0,"BIQ (Charlotte)",3,"HIGJFAEBDC","Passed AC2",NA,"Spreadsheet1",NA,"","","",NA,"5","END",NA,NA,NA,NA,NA,NA,0,NA,NA,NA,NA,"","",NA,"","",NA,"SUPPRF47480"
1,1701287374887,"29/11/2023 19:49:34",1701290974887,1,"29/11/2023 21:49:34",154366,3,"task-gjqt",NA,33307237,9861681,NA,"complete",NA,"6567932ae5d47bbeacb31a17","computer","Desktop or Laptop","Mac OS 10.15.4","Chrome 88.0.4324.96","1440x900","1209x713",NA,NA,0,"BIQ (Charlotte)",3,"IJHAGBFCED","Passed AC2",NA,"Spreadsheet1",NA,"","","",NA,"5","BEGIN",NA,NA,NA,NA,NA,NA,0,NA,NA,NA,NA,"","",NA,"","",NA,"SUPPRF13830"
2,1701287402127,"29/11/2023 19:50:02",1701291002127,1,"29/11/2023 21:50:02",154366,3,"task-gjqt",NA,33307237,9861681,NA,"complete",NA,"6567932ae5d47bbeacb31a17","computer","Desktop or Laptop","Mac OS 10.15.4","Chrome 88.0.4324.96","1440x900","1209x713",NA,NA,0,"BIQ (Charlotte)",3,"IJHAGBFCED","Passed AC2",NA,"Spreadsheet1",1,"BIQ","Screen 1","9dh6eq",1,"continue","",27250.256,27239.376,27250.256,27250.256,27239.376,27250.256,1,27250.256,0,0,NA,"Click To Continue","Continue Button",23,"object-48","BIQ",NA,"SUPPRF13830"
3,1701287402131,"29/11/2023 19:50:02",1701291002131,1,"29/11/2023 21:50:02",154366,3,"task-gjqt",NA,33307237,9861681,NA,"complete",NA,"6567932ae5d47bbeacb31a17","computer","Desktop or Laptop","Mac OS 10.15.4","Chrome 88.0.4324.96","1440x900","1209x713",NA,NA,0,"BIQ (Charlotte)",3,"IJHAGBFCED","Passed AC2",NA,"Spreadsheet1",1,"BIQ","Screen 1","9dh6eq",1,"response","4",10093.653,27239.376,27256.087,10093.653,27239.376,27256.087,1,10093.653,17162.434,0,NA,"Rating Scale","Rating Scale",3,"object-5","BIQ",NA,"SUPPRF13830"
4,1701287402131,"29/11/2023 19:50:02",1701291002131,1,"29/11/2023 21:50:02",154366,3,"task-gjqt",NA,33307237,9861681,NA,"complete",NA,"6567932ae5d47bbeacb31a17","computer","Desktop or Laptop","Mac OS 10.15.4","Chrome 88.0.4324.96","1440x900","1209x713",NA,NA,0,"BIQ (Charlotte)",3,"IJHAGBFCED","Passed AC2",NA,"Spreadsheet1",1,"BIQ","Screen 1","9dh6eq",1,"response","4",21557.636,27239.376,27256.087,21557.636,27239.376,27256.087,1,21557.636,5698.451,0,NA,"Rating Scale","Rating Scale",10,"object-18","BIQ",NA,"SUPPRF13830"
5,1701287402132,"29/11/2023 19:50:02",1701291002132,1,"29/11/2023 21:50:02",154366,3,"task-gjqt",NA,33307237,9861681,NA,"complete",NA,"6567932ae5d47bbeacb31a17","computer","Desktop or Laptop","Mac OS 10.15.4","Chrome 88.0.4324.96","1440x900","1209x713",NA,NA,0,"BIQ (Charlotte)",3,"IJHAGBFCED","Passed AC2",NA,"Spreadsheet1",1,"BIQ","Screen 1","9dh6eq",1,"response","3",25401.166,27239.376,27256.087,25401.166,27239.376,27256.087,1,25401.166,1854.921,0,NA,"Rating Scale","Rating Scale",17,"object-80","BIQ",NA,"SUPPRF13830"
6,1701287422489,"29/11/2023 19:50:22",1701291022489,1,"29/11/2023 21:50:22",154366,3,"task-gjqt",NA,33307237,9861681,NA,"complete",NA,"6567932ae5d47bbeacb31a17","computer","Desktop or Laptop","Mac OS 10.15.4","Chrome 88.0.4324.96","1440x900","1209x713",NA,NA,0,"BIQ (Charlotte)",3,"IJHAGBFCED","Passed AC2",NA,"Spreadsheet1",1,"BIQ","Screen 2","o21mwi",2,"continue","",20378.3800000001,20371.074,20378.3800000001,20378.3800000001,20371.074,20378.3800000001,1,20378.3800000001,0,0,NA,"Click To Continue","Continue Button",22,"object-50","BIQ",NA,"SUPPRF13830"
7,1701287422492,"29/11/2023 19:50:22",1701291022492,1,"29/11/2023 21:50:22",154366,3,"task-gjqt",NA,33307237,9861681,NA,"complete",NA,"6567932ae5d47bbeacb31a17","computer","Desktop or Laptop","Mac OS 10.15.4","Chrome 88.0.4324.96","1440x900","1209x713",NA,NA,0,"BIQ (Charlotte)",3,"IJHAGBFCED","Passed AC2",NA,"Spreadsheet1",1,"BIQ","Screen 2","o21mwi",2,"response","6",7002.067,20371.074,20381.5400000001,7002.067,20371.074,20381.5400000001,1,7002.067,13379.473,0,NA,"Rating Scale","Rating Scale",2,"object-259","BIQ",NA,"SUPPRF13830"
8,1701287422492,"29/11/2023 19:50:22",1701291022492,1,"29/11/2023 21:50:22",154366,3,"task-gjqt",NA,33307237,9861681,NA,"complete",NA,"6567932ae5d47bbeacb31a17","computer","Desktop or Laptop","Mac OS 10.15.4","Chrome 88.0.4324.96","1440x900","1209x713",NA,NA,0,"BIQ (Charlotte)",3,"IJHAGBFCED","Passed AC2",NA,"Spreadsheet1",1,"BIQ","Screen 2","o21mwi",2,"response","4",13586.408,20371.074,20381.9350000001,13586.408,20371.074,20381.9350000001,1,13586.408,6795.52700000007,0,NA,"Rating Scale","Rating Scale",9,"object-36","BIQ",NA,"SUPPRF13830"
9,1701287422493,"29/11/2023 19:50:22",1701291022493,1,"29/11/2023 21:50:22",154366,3,"task-gjqt",NA,33307237,9861681,NA,"complete",NA,"6567932ae5d47bbeacb31a17","computer","Desktop or Laptop","Mac OS 10.15.4","Chrome 88.0.4324.96","1440x900","1209x713",NA,NA,0,"BIQ (Charlotte)",3,"IJHAGBFCED","Passed AC2",NA,"Spreadsheet1",1,"BIQ","Screen 2","o21mwi",2,"response","2",19769.478,20371.074,20382.705,19769.478,20371.074,20382.705,1,19769.478,613.226999999955,0,NA,"Rating Scale","Rating Scale",16,"object-86","BIQ",NA,"SUPPRF13830"
10,1701287435329,"29/11/2023 19:50:35",1701291035329,1,"29/11/2023 21:50:35",154366,3,"task-gjqt",NA,33307237,9861681,NA,"complete",NA,"6567932ae5d47bbeacb31a17","computer","Desktop or Laptop","Mac OS 10.15.4","Chrome 88.0.4324.96","1440x900","1209x713",NA,NA,0,"BIQ (Charlotte)",3,"IJHAGBFCED","Passed AC2",NA,"Spreadsheet1",1,"BIQ","Screen 3","iz3the",3,"continue","",12847.7710000001,12834.259,12847.7710000001,12847.7710000001,12834.259,12847.7710000001,1,12847.7710000001,0,0,NA,"Click To Continue","Continue Button",22,"object-73","BIQ",NA,"SUPPRF13830"
11,1701287435333,"29/11/2023 19:50:35",1701291035333,1,"29/11/2023 21:50:35",154366,3,"task-gjqt",NA,33307237,9861681,NA,"complete",NA,"6567932ae5d47bbeacb31a17","computer","Desktop or Laptop","Mac OS 10.15.4","Chrome 88.0.4324.96","1440x900","1209x713",NA,NA,0,"BIQ (Charlotte)",3,"IJHAGBFCED","Passed AC2",NA,"Spreadsheet1",1,"BIQ","Screen 3","iz3the",3,"response","2",3726.764,12834.259,12850.97,3726.764,12834.259,12850.97,1,3726.764,9124.20599999999,0,NA,"Rating Scale","Rating Scale",2,"object-53","BIQ",NA,"SUPPRF13830"
12,1701287435333,"29/11/2023 19:50:35",1701291035333,1,"29/11/2023 21:50:35",154366,3,"task-gjqt",NA,33307237,9861681,NA,"complete",NA,"6567932ae5d47bbeacb31a17","computer","Desktop or Laptop","Mac OS 10.15.4","Chrome 88.0.4324.96","1440x900","1209x713",NA,NA,0,"BIQ (Charlotte)",3,"IJHAGBFCED","Passed AC2",NA,"Spreadsheet1",1,"BIQ","Screen 3","iz3the",3,"response","5",7737.404,12834.259,12850.97,7737.404,12834.259,12850.97,1,7737.404,5113.56599999999,0,NA,"Rating Scale","Rating Scale",9,"object-60","BIQ",NA,"SUPPRF13830"
13,1701287435334,"29/11/2023 19:50:35",1701291035334,1,"29/11/2023 21:50:35",154366,3,"task-gjqt",NA,33307237,9861681,NA,"complete",NA,"6567932ae5d47bbeacb31a17","computer","Desktop or Laptop","Mac OS 10.15.4","Chrome 88.0.4324.96","1440x900","1209x713",NA,NA,0,"BIQ (Charlotte)",3,"IJHAGBFCED","Passed AC2",NA,"Spreadsheet1",1,"BIQ","Screen 3","iz3the",3,"response","5",10895.783,12834.259,12850.97,10895.783,12834.259,12850.97,1,10895.783,1955.18699999999,0,NA,"Rating Scale","Rating Scale",16,"object-67","BIQ",NA,"SUPPRF13830"
14,1701287435337,"29/11/2023 19:50:35",1701291035337,1,"29/11/2023 21:50:35",154366,3,"task-gjqt",NA,33307237,9861681,NA,"complete",NA,"6567932ae5d47bbeacb31a17","computer","Desktop or Laptop","Mac OS 10.15.4","Chrome 88.0.4324.96","1440x900","1209x713",NA,NA,0,"BIQ (Charlotte)",3,"IJHAGBFCED","Passed AC2",NA,"Spreadsheet1",NA,"","","",NA,"5","END",NA,NA,NA,NA,NA,NA,0,NA,NA,NA,NA,"","",NA,"","",NA,"SUPPRF13830"
1,1701287888645,"29/11/2023 19:58:08",1701269888645,-5,"29/11/2023 09:58:08",154366,3,"task-gjqt",NA,33307684,9861729,NA,"complete",NA,"656794a49c446679ee5a9458","computer","Desktop or Laptop","Windows 10","Chrome 119.0.0.0","1366x768","1366x641",NA,NA,0,"BIQ (Charlotte)",3,"ABJCIDHEGF","Passed AC2",NA,"Spreadsheet1",NA,"","","",NA,"5","BEGIN",NA,NA,NA,NA,NA,NA,0,NA,NA,NA,NA,"","",NA,"","",NA,"SUPPRF78219"
2,1701287911252,"29/11/2023 19:58:31",1701269911252,-5,"29/11/2023 09:58:31",154366,3,"task-gjqt",NA,33307684,9861729,NA,"complete",NA,"656794a49c446679ee5a9458","computer","Desktop or Laptop","Windows 10","Chrome 119.0.0.0","1366x768","1366x641",NA,NA,0,"BIQ (Charlotte)",3,"ABJCIDHEGF","Passed AC2",NA,"Spreadsheet1",1,"BIQ","Screen 1","9dh6eq",1,"continue","",22623.288,22606.47,22623.288,22623.288,22606.47,22623.288,1,22623.288,0,0,NA,"Click To Continue","Continue Button",23,"object-48","BIQ",NA,"SUPPRF78219"
3,1701287911255,"29/11/2023 19:58:31",1701269911255,-5,"29/11/2023 09:58:31",154366,3,"task-gjqt",NA,33307684,9861729,NA,"complete",NA,"656794a49c446679ee5a9458","computer","Desktop or Laptop","Windows 10","Chrome 119.0.0.0","1366x768","1366x641",NA,NA,0,"BIQ (Charlotte)",3,"ABJCIDHEGF","Passed AC2",NA,"Spreadsheet1",1,"BIQ","Screen 1","9dh6eq",1,"response","6",8479.461,22606.47,22623.288,8479.461,22606.47,22623.288,1,8479.461,14143.827,0,NA,"Rating Scale","Rating Scale",3,"object-5","BIQ",NA,"SUPPRF78219"
4,1701287911256,"29/11/2023 19:58:31",1701269911256,-5,"29/11/2023 09:58:31",154366,3,"task-gjqt",NA,33307684,9861729,NA,"complete",NA,"656794a49c446679ee5a9458","computer","Desktop or Laptop","Windows 10","Chrome 119.0.0.0","1366x768","1366x641",NA,NA,0,"BIQ (Charlotte)",3,"ABJCIDHEGF","Passed AC2",NA,"Spreadsheet1",1,"BIQ","Screen 1","9dh6eq",1,"response","6",18241.831,22606.47,22623.288,18241.831,22606.47,22623.288,1,18241.831,4381.457,0,NA,"Rating Scale","Rating Scale",10,"object-18","BIQ",NA,"SUPPRF78219"
5,1701287911257,"29/11/2023 19:58:31",1701269911257,-5,"29/11/2023 09:58:31",154366,3,"task-gjqt",NA,33307684,9861729,NA,"complete",NA,"656794a49c446679ee5a9458","computer","Desktop or Laptop","Windows 10","Chrome 119.0.0.0","1366x768","1366x641",NA,NA,0,"BIQ (Charlotte)",3,"ABJCIDHEGF","Passed AC2",NA,"Spreadsheet1",1,"BIQ","Screen 1","9dh6eq",1,"response","3",21356.875,22606.47,22623.288,21356.875,22606.47,22623.288,1,21356.875,1266.413,0,NA,"Rating Scale","Rating Scale",17,"object-80","BIQ",NA,"SUPPRF78219"
6,1701287928938,"29/11/2023 19:58:48",1701269928938,-5,"29/11/2023 09:58:48",154366,3,"task-gjqt",NA,33307684,9861729,NA,"complete",NA,"656794a49c446679ee5a9458","computer","Desktop or Laptop","Windows 10","Chrome 119.0.0.0","1366x768","1366x641",NA,NA,0,"BIQ (Charlotte)",3,"ABJCIDHEGF","Passed AC2",NA,"Spreadsheet1",1,"BIQ","Screen 2","o21mwi",2,"continue","",17708.607,17691.914,17708.607,17708.607,17691.914,17708.607,1,17708.607,0,0,NA,"Click To Continue","Continue Button",22,"object-50","BIQ",NA,"SUPPRF78219"
7,1701287928945,"29/11/2023 19:58:48",1701269928945,-5,"29/11/2023 09:58:48",154366,3,"task-gjqt",NA,33307684,9861729,NA,"complete",NA,"656794a49c446679ee5a9458","computer","Desktop or Laptop","Windows 10","Chrome 119.0.0.0","1366x768","1366x641",NA,NA,0,"BIQ (Charlotte)",3,"ABJCIDHEGF","Passed AC2",NA,"Spreadsheet1",1,"BIQ","Screen 2","o21mwi",2,"response","7",5114.36,17691.914,17708.607,5114.36,17691.914,17708.607,1,5114.36,12594.247,0,NA,"Rating Scale","Rating Scale",2,"object-259","BIQ",NA,"SUPPRF78219"
8,1701287928946,"29/11/2023 19:58:48",1701269928946,-5,"29/11/2023 09:58:48",154366,3,"task-gjqt",NA,33307684,9861729,NA,"complete",NA,"656794a49c446679ee5a9458","computer","Desktop or Laptop","Windows 10","Chrome 119.0.0.0","1366x768","1366x641",NA,NA,0,"BIQ (Charlotte)",3,"ABJCIDHEGF","Passed AC2",NA,"Spreadsheet1",1,"BIQ","Screen 2","o21mwi",2,"response","4",10462.016,17691.914,17708.607,10462.016,17691.914,17708.607,1,10462.016,7246.59099999999,0,NA,"Rating Scale","Rating Scale",9,"object-36","BIQ",NA,"SUPPRF78219"
9,1701287928948,"29/11/2023 19:58:48",1701269928948,-5,"29/11/2023 09:58:48",154366,3,"task-gjqt",NA,33307684,9861729,NA,"complete",NA,"656794a49c446679ee5a9458","computer","Desktop or Laptop","Windows 10","Chrome 119.0.0.0","1366x768","1366x641",NA,NA,0,"BIQ (Charlotte)",3,"ABJCIDHEGF","Passed AC2",NA,"Spreadsheet1",1,"BIQ","Screen 2","o21mwi",2,"response","2",16325.702,17691.914,17708.607,16325.702,17691.914,17708.607,1,16325.702,1382.905,0,NA,"Rating Scale","Rating Scale",16,"object-86","BIQ",NA,"SUPPRF78219"
10,1701287940998,"29/11/2023 19:59:00",1701269940998,-5,"29/11/2023 09:59:00",154366,3,"task-gjqt",NA,33307684,9861729,NA,"complete",NA,"656794a49c446679ee5a9458","computer","Desktop or Laptop","Windows 10","Chrome 119.0.0.0","1366x768","1366x641",NA,NA,0,"BIQ (Charlotte)",3,"ABJCIDHEGF","Passed AC2",NA,"Spreadsheet1",1,"BIQ","Screen 3","iz3the",3,"continue","",12077.2269999523,12061.272,12077.2269999523,12077.2269999523,12061.272,12077.2269999523,1,12077.2269999523,0,0,NA,"Click To Continue","Continue Button",22,"object-73","BIQ",NA,"SUPPRF78219"
11,1701287941003,"29/11/2023 19:59:01",1701269941003,-5,"29/11/2023 09:59:01",154366,3,"task-gjqt",NA,33307684,9861729,NA,"complete",NA,"656794a49c446679ee5a9458","computer","Desktop or Laptop","Windows 10","Chrome 119.0.0.0","1366x768","1366x641",NA,NA,0,"BIQ (Charlotte)",3,"ABJCIDHEGF","Passed AC2",NA,"Spreadsheet1",1,"BIQ","Screen 3","iz3the",3,"response","0",6163.868,12061.272,12077.999,6163.868,12061.272,12077.999,1,6163.868,5914.131,0,NA,"Rating Scale","Rating Scale",2,"object-53","BIQ",NA,"SUPPRF78219"
12,1701287941005,"29/11/2023 19:59:01",1701269941005,-5,"29/11/2023 09:59:01",154366,3,"task-gjqt",NA,33307684,9861729,NA,"complete",NA,"656794a49c446679ee5a9458","computer","Desktop or Laptop","Windows 10","Chrome 119.0.0.0","1366x768","1366x641",NA,NA,0,"BIQ (Charlotte)",3,"ABJCIDHEGF","Passed AC2",NA,"Spreadsheet1",1,"BIQ","Screen 3","iz3the",3,"response","0",9195.92200000001,12061.272,12077.999,9195.92200000001,12061.272,12077.999,1,9195.92200000001,2882.077,0,NA,"Rating Scale","Rating Scale",9,"object-60","BIQ",NA,"SUPPRF78219"
13,1701287941007,"29/11/2023 19:59:01",1701269941007,-5,"29/11/2023 09:59:01",154366,3,"task-gjqt",NA,33307684,9861729,NA,"complete",NA,"656794a49c446679ee5a9458","computer","Desktop or Laptop","Windows 10","Chrome 119.0.0.0","1366x768","1366x641",NA,NA,0,"BIQ (Charlotte)",3,"ABJCIDHEGF","Passed AC2",NA,"Spreadsheet1",1,"BIQ","Screen 3","iz3the",3,"response","6",10978.266,12061.272,12077.999,10978.266,12061.272,12077.999,1,10978.266,1099.733,0,NA,"Rating Scale","Rating Scale",16,"object-67","BIQ",NA,"SUPPRF78219"
14,1701287941016,"29/11/2023 19:59:01",1701269941016,-5,"29/11/2023 09:59:01",154366,3,"task-gjqt",NA,33307684,9861729,NA,"complete",NA,"656794a49c446679ee5a9458","computer","Desktop or Laptop","Windows 10","Chrome 119.0.0.0","1366x768","1366x641",NA,NA,0,"BIQ (Charlotte)",3,"ABJCIDHEGF","Passed AC2",NA,"Spreadsheet1",NA,"","","",NA,"5","END",NA,NA,NA,NA,NA,NA,0,NA,NA,NA,NA,"","",NA,"","",NA,"SUPPRF78219"
1,1701288148664,"29/11/2023 20:02:28",1701291748664,1,"29/11/2023 22:02:28",154366,3,"task-gjqt",NA,33308013,9861784,NA,"rejected - time limit reached",NA,"656795b3f2b91aefa2713f07","computer","Desktop or Laptop","Windows 10","Chrome 119.0.0.0","1280x720","1280x563",NA,NA,0,"BIQ (Charlotte)",3,"CDBEAFJGIH","Passed AC2",NA,"Spreadsheet1",NA,"","","",NA,"5","BEGIN",NA,NA,NA,NA,NA,NA,0,NA,NA,NA,NA,"","",NA,"","",NA,"SUPPRF54499"
2,1701288198575,"29/11/2023 20:03:18",1701291798575,1,"29/11/2023 22:03:18",154366,3,"task-gjqt",NA,33308013,9861784,NA,"rejected - time limit reached",NA,"656795b3f2b91aefa2713f07","computer","Desktop or Laptop","Windows 10","Chrome 119.0.0.0","1280x720","1280x563",NA,NA,0,"BIQ (Charlotte)",3,"CDBEAFJGIH","Passed AC2",NA,"Spreadsheet1",1,"BIQ","Screen 1","9dh6eq",1,"continue","",49926.4960000003,49913.966,49926.4960000003,49926.4960000003,49913.966,49926.4960000003,1,49926.4960000003,0,0,NA,"Click To Continue","Continue Button",23,"object-48","BIQ",NA,"SUPPRF54499"
3,1701288198581,"29/11/2023 20:03:18",1701291798581,1,"29/11/2023 22:03:18",154366,3,"task-gjqt",NA,33308013,9861784,NA,"rejected - time limit reached",NA,"656795b3f2b91aefa2713f07","computer","Desktop or Laptop","Windows 10","Chrome 119.0.0.0","1280x720","1280x563",NA,NA,0,"BIQ (Charlotte)",3,"CDBEAFJGIH","Passed AC2",NA,"Spreadsheet1",1,"BIQ","Screen 1","9dh6eq",1,"response","6",14463.882,49913.966,49930.262,14463.882,49913.966,49930.262,1,14463.882,35466.38,0,NA,"Rating Scale","Rating Scale",3,"object-5","BIQ",NA,"SUPPRF54499"
4,1701288198582,"29/11/2023 20:03:18",1701291798582,1,"29/11/2023 22:03:18",154366,3,"task-gjqt",NA,33308013,9861784,NA,"rejected - time limit reached",NA,"656795b3f2b91aefa2713f07","computer","Desktop or Laptop","Windows 10","Chrome 119.0.0.0","1280x720","1280x563",NA,NA,0,"BIQ (Charlotte)",3,"CDBEAFJGIH","Passed AC2",NA,"Spreadsheet1",1,"BIQ","Screen 1","9dh6eq",1,"response","8",41164.222,49913.966,49930.262,41164.222,49913.966,49930.262,1,41164.222,8766.04,0,NA,"Rating Scale","Rating Scale",10,"object-18","BIQ",NA,"SUPPRF54499"
5,1701288198583,"29/11/2023 20:03:18",1701291798583,1,"29/11/2023 22:03:18",154366,3,"task-gjqt",NA,33308013,9861784,NA,"rejected - time limit reached",NA,"656795b3f2b91aefa2713f07","computer","Desktop or Laptop","Windows 10","Chrome 119.0.0.0","1280x720","1280x563",NA,NA,0,"BIQ (Charlotte)",3,"CDBEAFJGIH","Passed AC2",NA,"Spreadsheet1",1,"BIQ","Screen 1","9dh6eq",1,"response","0",48864.278,49913.966,49930.262,48864.278,49913.966,49930.262,1,48864.278,1065.98399999999,0,NA,"Rating Scale","Rating Scale",17,"object-80","BIQ",NA,"SUPPRF54499"
6,1701288224648,"29/11/2023 20:03:44",1701291824648,1,"29/11/2023 22:03:44",154366,3,"task-gjqt",NA,33308013,9861784,NA,"rejected - time limit reached",NA,"656795b3f2b91aefa2713f07","computer","Desktop or Laptop","Windows 10","Chrome 119.0.0.0","1280x720","1280x563",NA,NA,0,"BIQ (Charlotte)",3,"CDBEAFJGIH","Passed AC2",NA,"Spreadsheet1",1,"BIQ","Screen 2","o21mwi",2,"continue","",26098.9300000002,26083.569,26098.9300000002,26098.9300000002,26083.569,26098.9300000002,1,26098.9300000002,0,0,NA,"Click To Continue","Continue Button",22,"object-50","BIQ",NA,"SUPPRF54499"
7,1701288230687,"29/11/2023 20:03:50",1701291830687,1,"29/11/2023 22:03:50",154366,3,"task-gjqt",NA,33308013,9861784,NA,"rejected - time limit reached",NA,"656795b3f2b91aefa2713f07","computer","Desktop or Laptop","Windows 10","Chrome 119.0.0.0","1280x720","1280x563",NA,NA,0,"BIQ (Charlotte)",3,"CDBEAFJGIH","Passed AC2",NA,"Spreadsheet1",1,"BIQ","Screen 2","o21mwi",2,"continue","",32138.73,32133.646,32138.73,32138.73,32133.646,32138.73,1,32138.73,0,0,NA,"Click To Continue","Continue Button",22,"object-50","BIQ",NA,"SUPPRF54499"
8,1701288230688,"29/11/2023 20:03:50",1701291830688,1,"29/11/2023 22:03:50",154366,3,"task-gjqt",NA,33308013,9861784,NA,"rejected - time limit reached",NA,"656795b3f2b91aefa2713f07","computer","Desktop or Laptop","Windows 10","Chrome 119.0.0.0","1280x720","1280x563",NA,NA,0,"BIQ (Charlotte)",3,"CDBEAFJGIH","Passed AC2",NA,"Spreadsheet1",1,"BIQ","Screen 2","o21mwi",2,"response","8",7750.30700000001,32133.646,32139.8300000001,7750.30700000001,32133.646,32139.8300000001,1,7750.30700000001,24389.5230000001,0,NA,"Rating Scale","Rating Scale",2,"object-259","BIQ",NA,"SUPPRF54499"
9,1701288230689,"29/11/2023 20:03:50",1701291830689,1,"29/11/2023 22:03:50",154366,3,"task-gjqt",NA,33308013,9861784,NA,"rejected - time limit reached",NA,"656795b3f2b91aefa2713f07","computer","Desktop or Laptop","Windows 10","Chrome 119.0.0.0","1280x720","1280x563",NA,NA,0,"BIQ (Charlotte)",3,"CDBEAFJGIH","Passed AC2",NA,"Spreadsheet1",1,"BIQ","Screen 2","o21mwi",2,"response","0",31166.978,32133.646,32140.6299999999,31166.978,32133.646,32140.6299999999,1,31166.978,973.6519999999,0,NA,"Rating Scale","Rating Scale",9,"object-36","BIQ",NA,"SUPPRF54499"
10,1701288230690,"29/11/2023 20:03:50",1701291830690,1,"29/11/2023 22:03:50",154366,3,"task-gjqt",NA,33308013,9861784,NA,"rejected - time limit reached",NA,"656795b3f2b91aefa2713f07","computer","Desktop or Laptop","Windows 10","Chrome 119.0.0.0","1280x720","1280x563",NA,NA,0,"BIQ (Charlotte)",3,"CDBEAFJGIH","Passed AC2",NA,"Spreadsheet1",1,"BIQ","Screen 2","o21mwi",2,"response","0",25000.062,32133.646,32141.6299999999,25000.062,32133.646,32141.6299999999,1,25000.062,7141.56799999991,0,NA,"Rating Scale","Rating Scale",16,"object-86","BIQ",NA,"SUPPRF54499"
11,1701288246880,"29/11/2023 20:04:06",1701291846880,1,"29/11/2023 22:04:06",154366,3,"task-gjqt",NA,33308013,9861784,NA,"rejected - time limit reached",NA,"656795b3f2b91aefa2713f07","computer","Desktop or Laptop","Windows 10","Chrome 119.0.0.0","1280x720","1280x563",NA,NA,0,"BIQ (Charlotte)",3,"CDBEAFJGIH","Passed AC2",NA,"Spreadsheet1",1,"BIQ","Screen 3","iz3the",3,"continue","",16197.4839999999,16183.343,16197.4839999999,16197.4839999999,16183.343,16197.4839999999,1,16197.4839999999,0,0,NA,"Click To Continue","Continue Button",22,"object-73","BIQ",NA,"SUPPRF54499"
