"Event.Index","UTC.Timestamp","UTC.Date.and.Time","Local.Timestamp","Local.Timezone","Local.Date.and.Time","Experiment.ID","Experiment.Version","Tree.Node.Key","Repeat.Key","Schedule.ID","Participant.Private.ID","Participant.Starting.Group","Participant.Status","Participant.Completion.Code","Participant.External.Session.ID","Participant.Device.Type","Participant.Device","Participant.OS","Participant.Browser","Participant.Monitor.Size","Participant.Viewport.Size","Checkpoint","Room.ID","Room.Order","Task.Name","Task.Version","order.ot79","branch.g31k","branch.5gtn","counterbalance.af8t","Spreadsheet","Trial.Number","Display","Screen","Screen.ID","Screen.Counter","Response.Type","Response","Onset.Time","Clock.Time","Reaction.Time","Absolute.Onset.Time","Absolute.Clock.Time","Absolute.Reaction.Time","Correct","Response.Onset","Response.Duration","Proportion","Tag","Component.Name","Object.Name","Object.Number","Object.ID","Spreadsheet..display","Manipulation..Spreadsheet","Random_ID"
"1",1702488347461,"13/12/2023 17:25:47",1702488347461,0,"13/12/2023 17:25:47",157047,5,"task-psw4",NA,33645583,9958209,NA,"complete",NA,"6579e646f74df15ba94f1587","computer","Desktop or Laptop","Mac OS 10.15.7","Chrome 119.0.0.0","1710x1107","1710x886",NA,NA,0,"Task",1,"ABJCIDHEGF","Passed AC2","","Self_focused_attention_first","Spreadsheet1",NA,"","","",NA,"5","BEGIN",NA,NA,NA,NA,NA,NA,0,NA,NA,NA,NA,"","",NA,"","",NA,"SUPPRF51148"
"2",1702488350903,"13/12/2023 17:25:50",1702488350903,0,"13/12/2023 17:25:50",157047,5,"task-psw4",NA,33645583,9958209,NA,"complete",NA,"6579e646f74df15ba94f1587","computer","Desktop or Laptop","Mac OS 10.15.7","Chrome 119.0.0.0","1710x1107","1710x886",NA,NA,0,"Task",1,"ABJCIDHEGF","Passed AC2","","Self_focused_attention_first","Spreadsheet1",1,"Task Instructions","Screen 1","anr7sn",1,"continue","",3287.37200001192,3283.202,3287.37200001192,3287.37200001192,3283.202,3287.37200001192,1,3287.37200001192,0,0,NA,"Click To Continue","Continue Button",2,"object-1944","Task Instructions",NA,"SUPPRF51148"
"3",1702488354848,"13/12/2023 17:25:54",1702488354848,0,"13/12/2023 17:25:54",157047,5,"task-psw4",NA,33645583,9958209,NA,"complete",NA,"6579e646f74df15ba94f1587","computer","Desktop or Laptop","Mac OS 10.15.7","Chrome 119.0.0.0","1710x1107","1710x886",NA,NA,0,"Task",1,"ABJCIDHEGF","Passed AC2","","Self_focused_attention_first","Spreadsheet1",1,"Task Instructions","Screen 2","ce2tc8",2,"continue","",3949.26999997616,3933.176,3949.26999997616,3949.26999997616,3933.176,3949.26999997616,1,3949.26999997616,0,0,NA,"Click To Continue","Continue Button",2,"object-7","Task Instructions",NA,"SUPPRF51148"
"4",1702488357560,"13/12/2023 17:25:57",1702488357560,0,"13/12/2023 17:25:57",157047,5,"task-psw4",NA,33645583,9958209,NA,"complete",NA,"6579e646f74df15ba94f1587","computer","Desktop or Laptop","Mac OS 10.15.7","Chrome 119.0.0.0","1710x1107","1710x886",NA,NA,0,"Task",1,"ABJCIDHEGF","Passed AC2","","Self_focused_attention_first","Spreadsheet1",1,"Task Instructions","Screen 3","1qtc8v",3,"continue","",2728.49400001192,2716.976,2728.49400001192,2728.49400001192,2716.976,2728.49400001192,1,2728.49400001192,0,0,NA,"Click To Continue","Continue Button",2,"object-52","Task Instructions",NA,"SUPPRF51148"
"5",1702488360200,"13/12/2023 17:26:00",1702488360200,0,"13/12/2023 17:26:00",157047,5,"task-psw4",NA,33645583,9958209,NA,"complete",NA,"6579e646f74df15ba94f1587","computer","Desktop or Laptop","Mac OS 10.15.7","Chrome 119.0.0.0","1710x1107","1710x886",NA,NA,0,"Task",1,"ABJCIDHEGF","Passed AC2","","Self_focused_attention_first","Spreadsheet1",1,"Task Instructions","Screen 4","spepx9",4,"continue","",2649.894,2633.228,2649.894,2649.894,2633.228,2649.894,1,2649.894,0,0,NA,"Click To Continue","Continue Button",2,"object-9","Task Instructions",NA,"SUPPRF51148"
"6",1702488362582,"13/12/2023 17:26:02",1702488362582,0,"13/12/2023 17:26:02",157047,5,"task-psw4",NA,33645583,9958209,NA,"complete",NA,"6579e646f74df15ba94f1587","computer","Desktop or Laptop","Mac OS 10.15.7","Chrome 119.0.0.0","1710x1107","1710x886",NA,NA,0,"Task",1,"ABJCIDHEGF","Passed AC2","","Self_focused_attention_first","Spreadsheet1",1,"Task Instructions","Screen 5","8nvnao",5,"continue","",2399.904,2383.238,2399.904,2399.904,2383.238,2399.904,1,2399.904,0,0,NA,"Click To Continue","Continue Button",2,"object-44","Task Instructions",NA,"SUPPRF51148"
"7",1702488362585,"13/12/2023 17:26:02",1702488362585,0,"13/12/2023 17:26:02",157047,5,"task-psw4",NA,33645583,9958209,NA,"complete",NA,"6579e646f74df15ba94f1587","computer","Desktop or Laptop","Mac OS 10.15.7","Chrome 119.0.0.0","1710x1107","1710x886",NA,NA,0,"Task",1,"ABJCIDHEGF","Passed AC2","","Self_focused_attention_first","Spreadsheet1",NA,"","","",NA,"5","END",NA,NA,NA,NA,NA,NA,0,NA,NA,NA,NA,"","",NA,"","",NA,"SUPPRF51148"
"1",1702488879605,"13/12/2023 17:34:39",1702488879605,0,"13/12/2023 17:34:39",157047,5,"task-psw4",NA,33645914,9958278,NA,"complete",NA,"6579e7aa4b52396e491c9cc6","computer","Desktop or Laptop","Linux x86_64","Chrome 119.0.0.0","1205x753","1205x618",NA,NA,0,"Task",1,"BCADJEIFHG","Passed AC2","","External_attention_first","Spreadsheet1",NA,"","","",NA,"5","BEGIN",NA,NA,NA,NA,NA,NA,0,NA,NA,NA,NA,"","",NA,"","",NA,"SUPPRF08809"
"2",1702489067335,"13/12/2023 17:37:47",1702489067335,0,"13/12/2023 17:37:47",157047,5,"task-psw4",NA,33645914,9958278,NA,"complete",NA,"6579e7aa4b52396e491c9cc6","computer","Desktop or Laptop","Linux x86_64","Chrome 119.0.0.0","1205x753","1205x618",NA,NA,0,"Task",1,"BCADJEIFHG","Passed AC2","","External_attention_first","Spreadsheet1",1,"Task Instructions","Screen 1","anr7sn",1,"continue","",187616.639,187600.054,187616.639,187616.639,187600.054,187616.639,1,187616.639,0,0,NA,"Click To Continue","Continue Button",2,"object-1944","Task Instructions",NA,"SUPPRF08809"
"3",1702489071597,"13/12/2023 17:37:51",1702489071597,0,"13/12/2023 17:37:51",157047,5,"task-psw4",NA,33645914,9958278,NA,"complete",NA,"6579e7aa4b52396e491c9cc6","computer","Desktop or Laptop","Linux x86_64","Chrome 119.0.0.0","1205x753","1205x618",NA,NA,0,"Task",1,"BCADJEIFHG","Passed AC2","","External_attention_first","Spreadsheet1",1,"Task Instructions","Screen 2","ce2tc8",2,"continue","",4298.51999999999,4281.867,4298.51999999999,4298.51999999999,4281.867,4298.51999999999,1,4298.51999999999,0,0,NA,"Click To Continue","Continue Button",2,"object-7","Task Instructions",NA,"SUPPRF08809"
"4",1702489074071,"13/12/2023 17:37:54",1702489074071,0,"13/12/2023 17:37:54",157047,5,"task-psw4",NA,33645914,9958278,NA,"complete",NA,"6579e7aa4b52396e491c9cc6","computer","Desktop or Laptop","Linux x86_64","Chrome 119.0.0.0","1205x753","1205x618",NA,NA,0,"Task",1,"BCADJEIFHG","Passed AC2","","External_attention_first","Spreadsheet1",1,"Task Instructions","Screen 3","1qtc8v",3,"continue","",2501.38399998809,2487.245,2501.38399998809,2501.38399998809,2487.245,2501.38399998809,1,2501.38399998809,0,0,NA,"Click To Continue","Continue Button",2,"object-52","Task Instructions",NA,"SUPPRF08809"
"5",1702489076493,"13/12/2023 17:37:56",1702489076493,0,"13/12/2023 17:37:56",157047,5,"task-psw4",NA,33645914,9958278,NA,"complete",NA,"6579e7aa4b52396e491c9cc6","computer","Desktop or Laptop","Linux x86_64","Chrome 119.0.0.0","1205x753","1205x618",NA,NA,0,"Task",1,"BCADJEIFHG","Passed AC2","","External_attention_first","Spreadsheet1",1,"Task Instructions","Screen 4","spepx9",4,"continue","",2423.723,2407.05600000001,2423.723,2423.723,2407.05600000001,2423.723,1,2423.723,0,0,NA,"Click To Continue","Continue Button",2,"object-9","Task Instructions",NA,"SUPPRF08809"
"6",1702489079113,"13/12/2023 17:37:59",1702489079113,0,"13/12/2023 17:37:59",157047,5,"task-psw4",NA,33645914,9958278,NA,"complete",NA,"6579e7aa4b52396e491c9cc6","computer","Desktop or Laptop","Linux x86_64","Chrome 119.0.0.0","1205x753","1205x618",NA,NA,0,"Task",1,"BCADJEIFHG","Passed AC2","","External_attention_first","Spreadsheet1",1,"Task Instructions","Screen 5","8nvnao",5,"continue","",2641.08499999999,2624.47099999999,2641.08499999999,2641.08499999999,2624.47099999999,2641.08499999999,1,2641.08499999999,0,0,NA,"Click To Continue","Continue Button",2,"object-44","Task Instructions",NA,"SUPPRF08809"
"7",1702489079125,"13/12/2023 17:37:59",1702489079125,0,"13/12/2023 17:37:59",157047,5,"task-psw4",NA,33645914,9958278,NA,"complete",NA,"6579e7aa4b52396e491c9cc6","computer","Desktop or Laptop","Linux x86_64","Chrome 119.0.0.0","1205x753","1205x618",NA,NA,0,"Task",1,"BCADJEIFHG","Passed AC2","","External_attention_first","Spreadsheet1",NA,"","","",NA,"5","END",NA,NA,NA,NA,NA,NA,0,NA,NA,NA,NA,"","",NA,"","",NA,"SUPPRF08809"
"1",1702489763830,"13/12/2023 17:49:23",1702489763830,0,"13/12/2023 17:49:23",157047,5,"task-psw4",NA,33646319,9958307,NA,"complete",NA,"6579e89cc6dc7b0ff36ab9aa","computer","Desktop or Laptop","Mac OS 10.15.7","Chrome 120.0.0.0","1440x900","1440x813",NA,NA,0,"Task",1,"DECFBGAHJI","Passed AC2","","Self_focused_attention_first","Spreadsheet1",NA,"","","",NA,"5","BEGIN",NA,NA,NA,NA,NA,NA,0,NA,NA,NA,NA,"","",NA,"","",NA,"SUPPRF66414"
"2",1702489767341,"13/12/2023 17:49:27",1702489767341,0,"13/12/2023 17:49:27",157047,5,"task-psw4",NA,33646319,9958307,NA,"complete",NA,"6579e89cc6dc7b0ff36ab9aa","computer","Desktop or Laptop","Mac OS 10.15.7","Chrome 120.0.0.0","1440x900","1440x813",NA,NA,0,"Task",1,"DECFBGAHJI","Passed AC2","","Self_focused_attention_first","Spreadsheet1",1,"Task Instructions","Screen 1","anr7sn",1,"continue","",3475.7,3467.5,3475.7,3475.7,3467.5,3475.7,1,3475.7,0,0,NA,"Click To Continue","Continue Button",2,"object-1944","Task Instructions",NA,"SUPPRF66414"
"3",1702489778974,"13/12/2023 17:49:38",1702489778974,0,"13/12/2023 17:49:38",157047,5,"task-psw4",NA,33646319,9958307,NA,"complete",NA,"6579e89cc6dc7b0ff36ab9aa","computer","Desktop or Laptop","Mac OS 10.15.7","Chrome 120.0.0.0","1440x900","1440x813",NA,NA,0,"Task",1,"DECFBGAHJI","Passed AC2","","Self_focused_attention_first","Spreadsheet1",1,"Task Instructions","Screen 2","ce2tc8",2,"continue","",11642.3000000238,11633.7,11642.3000000238,11642.3000000238,11633.7,11642.3000000238,1,11642.3000000238,0,0,NA,"Click To Continue","Continue Button",2,"object-7","Task Instructions",NA,"SUPPRF66414"
"4",1702489781789,"13/12/2023 17:49:41",1702489781789,0,"13/12/2023 17:49:41",157047,5,"task-psw4",NA,33646319,9958307,NA,"complete",NA,"6579e89cc6dc7b0ff36ab9aa","computer","Desktop or Laptop","Mac OS 10.15.7","Chrome 120.0.0.0","1440x900","1440x813",NA,NA,0,"Task",1,"DECFBGAHJI","Passed AC2","","Self_focused_attention_first","Spreadsheet1",1,"Task Instructions","Screen 3","1qtc8v",3,"continue","",2824,2816.5,2824,2824,2816.5,2824,1,2824,0,0,NA,"Click To Continue","Continue Button",2,"object-52","Task Instructions",NA,"SUPPRF66414"
"5",1702489784273,"13/12/2023 17:49:44",1702489784273,0,"13/12/2023 17:49:44",157047,5,"task-psw4",NA,33646319,9958307,NA,"complete",NA,"6579e89cc6dc7b0ff36ab9aa","computer","Desktop or Laptop","Mac OS 10.15.7","Chrome 120.0.0.0","1440x900","1440x813",NA,NA,0,"Task",1,"DECFBGAHJI","Passed AC2","","Self_focused_attention_first","Spreadsheet1",1,"Task Instructions","Screen 4","spepx9",4,"continue","",2491.60000002384,2483.2,2491.60000002384,2491.60000002384,2483.2,2491.60000002384,1,2491.60000002384,0,0,NA,"Click To Continue","Continue Button",2,"object-9","Task Instructions",NA,"SUPPRF66414"
"6",1702489786807,"13/12/2023 17:49:46",1702489786807,0,"13/12/2023 17:49:46",157047,5,"task-psw4",NA,33646319,9958307,NA,"complete",NA,"6579e89cc6dc7b0ff36ab9aa","computer","Desktop or Laptop","Mac OS 10.15.7","Chrome 120.0.0.0","1440x900","1440x813",NA,NA,0,"Task",1,"DECFBGAHJI","Passed AC2","","Self_focused_attention_first","Spreadsheet1",1,"Task Instructions","Screen 5","8nvnao",5,"continue","",2542.59999995232,2534.1,2542.59999995232,2542.59999995232,2534.1,2542.59999995232,1,2542.59999995232,0,0,NA,"Click To Continue","Continue Button",2,"object-44","Task Instructions",NA,"SUPPRF66414"
"7",1702489786811,"13/12/2023 17:49:46",1702489786811,0,"13/12/2023 17:49:46",157047,5,"task-psw4",NA,33646319,9958307,NA,"complete",NA,"6579e89cc6dc7b0ff36ab9aa","computer","Desktop or Laptop","Mac OS 10.15.7","Chrome 120.0.0.0","1440x900","1440x813",NA,NA,0,"Task",1,"DECFBGAHJI","Passed AC2","","Self_focused_attention_first","Spreadsheet1",NA,"","","",NA,"5","END",NA,NA,NA,NA,NA,NA,0,NA,NA,NA,NA,"","",NA,"","",NA,"SUPPRF66414"
"1",1702489216113,"13/12/2023 17:40:16",1702489216113,0,"13/12/2023 17:40:16",157047,5,"task-psw4",NA,33646080,9958344,NA,"complete",NA,"6579ea92ae350e915f9413a3","computer","Desktop or Laptop","Chromium OS 14541.0.0","Chrome 118.0.0.0","1366x768","1366x644",NA,NA,0,"Task",1,"CDBEAFJGIH","Passed AC2","","External_attention_first","Spreadsheet1",NA,"","","",NA,"5","BEGIN",NA,NA,NA,NA,NA,NA,0,NA,NA,NA,NA,"","",NA,"","",NA,"SUPPRF71393"
"2",1702489219533,"13/12/2023 17:40:19",1702489219533,0,"13/12/2023 17:40:19",157047,5,"task-psw4",NA,33646080,9958344,NA,"complete",NA,"6579ea92ae350e915f9413a3","computer","Desktop or Laptop","Chromium OS 14541.0.0","Chrome 118.0.0.0","1366x768","1366x644",NA,NA,0,"Task",1,"CDBEAFJGIH","Passed AC2","","External_attention_first","Spreadsheet1",1,"Task Instructions","Screen 1","anr7sn",1,"continue","",3149.66,3132.996,3149.66,3149.66,3132.996,3149.66,1,3149.66,0,0,NA,"Click To Continue","Continue Button",2,"object-1944","Task Instructions",NA,"SUPPRF71393"
"3",1702489263327,"13/12/2023 17:41:03",1702489263327,0,"13/12/2023 17:41:03",157047,5,"task-psw4",NA,33646080,9958344,NA,"complete",NA,"6579ea92ae350e915f9413a3","computer","Desktop or Laptop","Chromium OS 14541.0.0","Chrome 118.0.0.0","1366x768","1366x644",NA,NA,0,"Task",1,"CDBEAFJGIH","Passed AC2","","External_attention_first","Spreadsheet1",1,"Task Instructions","Screen 2","ce2tc8",2,"continue","",43811.0799999285,43795.465,43811.0799999285,43811.0799999285,43795.465,43811.0799999285,1,43811.0799999285,0,0,NA,"Click To Continue","Continue Button",2,"object-7","Task Instructions",NA,"SUPPRF71393"
"4",1702489266258,"13/12/2023 17:41:06",1702489266258,0,"13/12/2023 17:41:06",157047,5,"task-psw4",NA,33646080,9958344,NA,"complete",NA,"6579ea92ae350e915f9413a3","computer","Desktop or Laptop","Chromium OS 14541.0.0","Chrome 118.0.0.0","1366x768","1366x644",NA,NA,0,"Task",1,"CDBEAFJGIH","Passed AC2","","External_attention_first","Spreadsheet1",1,"Task Instructions","Screen 3","1qtc8v",3,"continue","",2946.915,2932.991,2946.915,2946.915,2932.991,2946.915,1,2946.915,0,0,NA,"Click To Continue","Continue Button",2,"object-52","Task Instructions",NA,"SUPPRF71393"
"5",1702489274618,"13/12/2023 17:41:14",1702489274618,0,"13/12/2023 17:41:14",157047,5,"task-psw4",NA,33646080,9958344,NA,"complete",NA,"6579ea92ae350e915f9413a3","computer","Desktop or Laptop","Chromium OS 14541.0.0","Chrome 118.0.0.0","1366x768","1366x644",NA,NA,0,"Task",1,"CDBEAFJGIH","Passed AC2","","External_attention_first","Spreadsheet1",1,"Task Instructions","Screen 4","spepx9",4,"continue","",8374.22399995232,8365.497,8374.22399995232,8374.22399995232,8365.497,8374.22399995232,1,8374.22399995232,0,0,NA,"Click To Continue","Continue Button",2,"object-9","Task Instructions",NA,"SUPPRF71393"
"6",1702489277286,"13/12/2023 17:41:17",1702489277286,0,"13/12/2023 17:41:17",157047,5,"task-psw4",NA,33646080,9958344,NA,"complete",NA,"6579ea92ae350e915f9413a3","computer","Desktop or Laptop","Chromium OS 14541.0.0","Chrome 118.0.0.0","1366x768","1366x644",NA,NA,0,"Task",1,"CDBEAFJGIH","Passed AC2","","External_attention_first","Spreadsheet1",1,"Task Instructions","Screen 5","8nvnao",5,"continue","",2676.32699997616,2666.718,2676.32699997616,2676.32699997616,2666.718,2676.32699997616,1,2676.32699997616,0,0,NA,"Click To Continue","Continue Button",2,"object-44","Task Instructions",NA,"SUPPRF71393"
"7",1702489277289,"13/12/2023 17:41:17",1702489277289,0,"13/12/2023 17:41:17",157047,5,"task-psw4",NA,33646080,9958344,NA,"complete",NA,"6579ea92ae350e915f9413a3","computer","Desktop or Laptop","Chromium OS 14541.0.0","Chrome 118.0.0.0","1366x768","1366x644",NA,NA,0,"Task",1,"CDBEAFJGIH","Passed AC2","","External_attention_first","Spreadsheet1",NA,"","","",NA,"5","END",NA,NA,NA,NA,NA,NA,0,NA,NA,NA,NA,"","",NA,"","",NA,"SUPPRF71393"
"1",1702489815201,"13/12/2023 17:50:15",1702489815201,0,"13/12/2023 17:50:15",157047,5,"task-psw4",NA,33646350,9958387,NA,"complete",NA,"6579ecf0453e501981a47e1d","computer","Desktop or Laptop","Windows 10","Chrome 120.0.0.0","2560x1440","2560x1323",NA,NA,0,"Task",1,"EFDGCHBIAJ","Passed AC2","","External_attention_first","Spreadsheet1",NA,"","","",NA,"5","BEGIN",NA,NA,NA,NA,NA,NA,0,NA,NA,NA,NA,"","",NA,"","",NA,"SUPPRF30141"
"2",1702489818444,"13/12/2023 17:50:18",1702489818444,0,"13/12/2023 17:50:18",157047,5,"task-psw4",NA,33646350,9958387,NA,"complete",NA,"6579ecf0453e501981a47e1d","computer","Desktop or Laptop","Windows 10","Chrome 120.0.0.0","2560x1440","2560x1323",NA,NA,0,"Task",1,"EFDGCHBIAJ","Passed AC2","","External_attention_first","Spreadsheet1",1,"Task Instructions","Screen 1","anr7sn",1,"continue","",3113.30000019073,3109,3113.30000019073,3113.30000019073,3109,3113.30000019073,1,3113.30000019073,0,0,NA,"Click To Continue","Continue Button",2,"object-1944","Task Instructions",NA,"SUPPRF30141"
"3",1702489968267,"13/12/2023 17:52:48",1702489968267,0,"13/12/2023 17:52:48",157047,5,"task-psw4",NA,33646350,9958387,NA,"complete",NA,"6579ecf0453e501981a47e1d","computer","Desktop or Laptop","Windows 10","Chrome 120.0.0.0","2560x1440","2560x1323",NA,NA,0,"Task",1,"EFDGCHBIAJ","Passed AC2","","External_attention_first","Spreadsheet1",1,"Task Instructions","Screen 2","ce2tc8",2,"continue","",149827.4,149821.3,149827.4,149827.4,149821.3,149827.4,1,149827.4,0,0,NA,"Click To Continue","Continue Button",2,"object-7","Task Instructions",NA,"SUPPRF30141"
"4",1702489972707,"13/12/2023 17:52:52",1702489972707,0,"13/12/2023 17:52:52",157047,5,"task-psw4",NA,33646350,9958387,NA,"complete",NA,"6579ecf0453e501981a47e1d","computer","Desktop or Laptop","Windows 10","Chrome 120.0.0.0","2560x1440","2560x1323",NA,NA,0,"Task",1,"EFDGCHBIAJ","Passed AC2","","External_attention_first","Spreadsheet1",1,"Task Instructions","Screen 3","1qtc8v",3,"continue","",4446.10000009538,4442.30000000002,4446.10000009538,4446.10000009538,4442.30000000002,4446.10000009538,1,4446.10000009538,0,0,NA,"Click To Continue","Continue Button",2,"object-52","Task Instructions",NA,"SUPPRF30141"
"5",1702489987399,"13/12/2023 17:53:07",1702489987399,0,"13/12/2023 17:53:07",157047,5,"task-psw4",NA,33646350,9958387,NA,"complete",NA,"6579ecf0453e501981a47e1d","computer","Desktop or Laptop","Windows 10","Chrome 120.0.0.0","2560x1440","2560x1323",NA,NA,0,"Task",1,"EFDGCHBIAJ","Passed AC2","","External_attention_first","Spreadsheet1",1,"Task Instructions","Screen 4","spepx9",4,"continue","",14695.8000000954,14690.6,14695.8000000954,14695.8000000954,14690.6,14695.8000000954,1,14695.8000000954,0,0,NA,"Click To Continue","Continue Button",2,"object-9","Task Instructions",NA,"SUPPRF30141"
"6",1702489991764,"13/12/2023 17:53:11",1702489991764,0,"13/12/2023 17:53:11",157047,5,"task-psw4",NA,33646350,9958387,NA,"complete",NA,"6579ecf0453e501981a47e1d","computer","Desktop or Laptop","Windows 10","Chrome 120.0.0.0","2560x1440","2560x1323",NA,NA,0,"Task",1,"EFDGCHBIAJ","Passed AC2","","External_attention_first","Spreadsheet1",1,"Task Instructions","Screen 5","8nvnao",5,"continue","",4370.40000014304,4369.59999999998,4370.40000014304,4370.40000014304,4369.59999999998,4370.40000014304,1,4370.40000014304,0,0,NA,"Click To Continue","Continue Button",2,"object-44","Task Instructions",NA,"SUPPRF30141"
"7",1702489991767,"13/12/2023 17:53:11",1702489991767,0,"13/12/2023 17:53:11",157047,5,"task-psw4",NA,33646350,9958387,NA,"complete",NA,"6579ecf0453e501981a47e1d","computer","Desktop or Laptop","Windows 10","Chrome 120.0.0.0","2560x1440","2560x1323",NA,NA,0,"Task",1,"EFDGCHBIAJ","Passed AC2","","External_attention_first","Spreadsheet1",NA,"","","",NA,"5","END",NA,NA,NA,NA,NA,NA,0,NA,NA,NA,NA,"","",NA,"","",NA,"SUPPRF30141"
"1",1702490227165,"13/12/2023 17:57:07",1702490227165,0,"13/12/2023 17:57:07",157047,5,"task-psw4",NA,33646516,9958403,NA,"complete",NA,"6579ede741c407c8885ec577","computer","Desktop or Laptop","Windows 10","Chrome 120.0.0.0","1280x720","1280x720",NA,NA,0,"Task",1,"FGEHDICJBA","Passed AC2","","Self_focused_attention_first","Spreadsheet1",NA,"","","",NA,"5","BEGIN",NA,NA,NA,NA,NA,NA,0,NA,NA,NA,NA,"","",NA,"","",NA,"SUPPRF78779"
"2",1702490230307,"13/12/2023 17:57:10",1702490230307,0,"13/12/2023 17:57:10",157047,5,"task-psw4",NA,33646516,9958403,NA,"complete",NA,"6579ede741c407c8885ec577","computer","Desktop or Laptop","Windows 10","Chrome 120.0.0.0","1280x720","1280x720",NA,NA,0,"Task",1,"FGEHDICJBA","Passed AC2","","Self_focused_attention_first","Spreadsheet1",1,"Task Instructions","Screen 1","anr7sn",1,"continue","",3078.29999992847,3066.3,3078.29999992847,3078.29999992847,3066.3,3078.29999992847,1,3078.29999992847,0,0,NA,"Click To Continue","Continue Button",2,"object-1944","Task Instructions",NA,"SUPPRF78779"
"3",1702490236676,"13/12/2023 17:57:16",1702490236676,0,"13/12/2023 17:57:16",157047,5,"task-psw4",NA,33646516,9958403,NA,"complete",NA,"6579ede741c407c8885ec577","computer","Desktop or Laptop","Windows 10","Chrome 120.0.0.0","1280x720","1280x720",NA,NA,0,"Task",1,"FGEHDICJBA","Passed AC2","","Self_focused_attention_first","Spreadsheet1",1,"Task Instructions","Screen 2","ce2tc8",2,"continue","",6381.90000002384,6365.7,6381.90000002384,6381.90000002384,6365.7,6381.90000002384,1,6381.90000002384,0,0,NA,"Click To Continue","Continue Button",2,"object-7","Task Instructions",NA,"SUPPRF78779"
"4",1702490240649,"13/12/2023 17:57:20",1702490240649,0,"13/12/2023 17:57:20",157047,5,"task-psw4",NA,33646516,9958403,NA,"complete",NA,"6579ede741c407c8885ec577","computer","Desktop or Laptop","Windows 10","Chrome 120.0.0.0","1280x720","1280x720",NA,NA,0,"Task",1,"FGEHDICJBA","Passed AC2","","Self_focused_attention_first","Spreadsheet1",1,"Task Instructions","Screen 3","1qtc8v",3,"continue","",3989.6,3983.2,3989.6,3989.6,3983.2,3989.6,1,3989.6,0,0,NA,"Click To Continue","Continue Button",2,"object-52","Task Instructions",NA,"SUPPRF78779"
"5",1702490243475,"13/12/2023 17:57:23",1702490243475,0,"13/12/2023 17:57:23",157047,5,"task-psw4",NA,33646516,9958403,NA,"complete",NA,"6579ede741c407c8885ec577","computer","Desktop or Laptop","Windows 10","Chrome 120.0.0.0","1280x720","1280x720",NA,NA,0,"Task",1,"FGEHDICJBA","Passed AC2","","Self_focused_attention_first","Spreadsheet1",1,"Task Instructions","Screen 4","spepx9",4,"continue","",2832.09999992847,2816.2,2832.09999992847,2832.09999992847,2816.2,2832.09999992847,1,2832.09999992847,0,0,NA,"Click To Continue","Continue Button",2,"object-9","Task Instructions",NA,"SUPPRF78779"
"6",1702490246459,"13/12/2023 17:57:26",1702490246459,0,"13/12/2023 17:57:26",157047,5,"task-psw4",NA,33646516,9958403,NA,"complete",NA,"6579ede741c407c8885ec577","computer","Desktop or Laptop","Windows 10","Chrome 120.0.0.0","1280x720","1280x720",NA,NA,0,"Task",1,"FGEHDICJBA","Passed AC2","","Self_focused_attention_first","Spreadsheet1",1,"Task Instructions","Screen 5","8nvnao",5,"continue","",2999.3,2982.7,2999.3,2999.3,2982.7,2999.3,1,2999.3,0,0,NA,"Click To Continue","Continue Button",2,"object-44","Task Instructions",NA,"SUPPRF78779"
"7",1702490246462,"13/12/2023 17:57:26",1702490246462,0,"13/12/2023 17:57:26",157047,5,"task-psw4",NA,33646516,9958403,NA,"complete",NA,"6579ede741c407c8885ec577","computer","Desktop or Laptop","Windows 10","Chrome 120.0.0.0","1280x720","1280x720",NA,NA,0,"Task",1,"FGEHDICJBA","Passed AC2","","Self_focused_attention_first","Spreadsheet1",NA,"","","",NA,"5","END",NA,NA,NA,NA,NA,NA,0,NA,NA,NA,NA,"","",NA,"","",NA,"SUPPRF78779"
"1",1702490881610,"13/12/2023 18:08:01",1702490881610,0,"13/12/2023 18:08:01",157047,5,"task-psw4",NA,33646744,9958457,NA,"complete",NA,"6579f1191916bca7b797b451","computer","Desktop or Laptop","Mac OS 10.15.7","Chrome 120.0.0.0","1440x900","1440x815",NA,NA,0,"Task",1,"GHFIEJDACB","Passed AC2","","External_attention_first","Spreadsheet1",NA,"","","",NA,"5","BEGIN",NA,NA,NA,NA,NA,NA,0,NA,NA,NA,NA,"","",NA,"","",NA,"SUPPRF37742"
"2",1702490884571,"13/12/2023 18:08:04",1702490884571,0,"13/12/2023 18:08:04",157047,5,"task-psw4",NA,33646744,9958457,NA,"complete",NA,"6579f1191916bca7b797b451","computer","Desktop or Laptop","Mac OS 10.15.7","Chrome 120.0.0.0","1440x900","1440x815",NA,NA,0,"Task",1,"GHFIEJDACB","Passed AC2","","External_attention_first","Spreadsheet1",1,"Task Instructions","Screen 1","anr7sn",1,"continue","",2933.3,2916.6,2933.3,2933.3,2916.6,2933.3,1,2933.3,0,0,NA,"Click To Continue","Continue Button",2,"object-1944","Task Instructions",NA,"SUPPRF37742"
"3",1702490891376,"13/12/2023 18:08:11",1702490891376,0,"13/12/2023 18:08:11",157047,5,"task-psw4",NA,33646744,9958457,NA,"complete",NA,"6579f1191916bca7b797b451","computer","Desktop or Laptop","Mac OS 10.15.7","Chrome 120.0.0.0","1440x900","1440x815",NA,NA,0,"Task",1,"GHFIEJDACB","Passed AC2","","External_attention_first","Spreadsheet1",1,"Task Instructions","Screen 2","ce2tc8",2,"continue","",6822.70000000019,6816.7,6822.70000000019,6822.70000000019,6816.7,6822.70000000019,1,6822.70000000019,0,0,NA,"Click To Continue","Continue Button",2,"object-7","Task Instructions",NA,"SUPPRF37742"
"4",1702490894358,"13/12/2023 18:08:14",1702490894358,0,"13/12/2023 18:08:14",157047,5,"task-psw4",NA,33646744,9958457,NA,"complete",NA,"6579f1191916bca7b797b451","computer","Desktop or Laptop","Mac OS 10.15.7","Chrome 120.0.0.0","1440x900","1440x815",NA,NA,0,"Task",1,"GHFIEJDACB","Passed AC2","","External_attention_first","Spreadsheet1",1,"Task Instructions","Screen 3","1qtc8v",3,"continue","",2983.1,2966.5,2983.1,2983.1,2966.5,2983.1,1,2983.1,0,0,NA,"Click To Continue","Continue Button",2,"object-52","Task Instructions",NA,"SUPPRF37742"
"5",1702490896938,"13/12/2023 18:08:16",1702490896938,0,"13/12/2023 18:08:16",157047,5,"task-psw4",NA,33646744,9958457,NA,"complete",NA,"6579f1191916bca7b797b451","computer","Desktop or Laptop","Mac OS 10.15.7","Chrome 120.0.0.0","1440x900","1440x815",NA,NA,0,"Task",1,"GHFIEJDACB","Passed AC2","","External_attention_first","Spreadsheet1",1,"Task Instructions","Screen 4","spepx9",4,"continue","",2600.2,2583.6,2600.2,2600.2,2583.6,2600.2,1,2600.2,0,0,NA,"Click To Continue","Continue Button",2,"object-9","Task Instructions",NA,"SUPPRF37742"
"6",1702490899408,"13/12/2023 18:08:19",1702490899408,0,"13/12/2023 18:08:19",157047,5,"task-psw4",NA,33646744,9958457,NA,"complete",NA,"6579f1191916bca7b797b451","computer","Desktop or Laptop","Mac OS 10.15.7","Chrome 120.0.0.0","1440x900","1440x815",NA,NA,0,"Task",1,"GHFIEJDACB","Passed AC2","","External_attention_first","Spreadsheet1",1,"Task Instructions","Screen 5","8nvnao",5,"continue","",2487.59999999991,2483.3,2487.59999999991,2487.59999999991,2483.3,2487.59999999991,1,2487.59999999991,0,0,NA,"Click To Continue","Continue Button",2,"object-44","Task Instructions",NA,"SUPPRF37742"
"7",1702490899411,"13/12/2023 18:08:19",1702490899411,0,"13/12/2023 18:08:19",157047,5,"task-psw4",NA,33646744,9958457,NA,"complete",NA,"6579f1191916bca7b797b451","computer","Desktop or Laptop","Mac OS 10.15.7","Chrome 120.0.0.0","1440x900","1440x815",NA,NA,0,"Task",1,"GHFIEJDACB","Passed AC2","","External_attention_first","Spreadsheet1",NA,"","","",NA,"5","END",NA,NA,NA,NA,NA,NA,0,NA,NA,NA,NA,"","",NA,"","",NA,"SUPPRF37742"
"1",1702491386256,"13/12/2023 18:16:26",1702491386256,0,"13/12/2023 18:16:26",157047,5,"task-psw4",NA,33646925,9958474,NA,"complete",NA,"6579f21df61fd8d35f99f228","computer","Desktop or Laptop","Windows 10","Chrome 120.0.0.0","1366x768","1366x611",NA,NA,0,"Task",1,"HIGJFAEBDC","Passed AC2","","Self_focused_attention_first","Spreadsheet1",NA,"","","",NA,"5","BEGIN",NA,NA,NA,NA,NA,NA,0,NA,NA,NA,NA,"","",NA,"","",NA,"SUPPRF23841"
"2",1702491389736,"13/12/2023 18:16:29",1702491389736,0,"13/12/2023 18:16:29",157047,5,"task-psw4",NA,33646925,9958474,NA,"complete",NA,"6579f21df61fd8d35f99f228","computer","Desktop or Laptop","Windows 10","Chrome 120.0.0.0","1366x768","1366x611",NA,NA,0,"Task",1,"HIGJFAEBDC","Passed AC2","","Self_focused_attention_first","Spreadsheet1",1,"Task Instructions","Screen 1","anr7sn",1,"continue","",3354.60000014305,3346.8,3354.60000014305,3354.60000014305,3346.8,3354.60000014305,1,3354.60000014305,0,0,NA,"Click To Continue","Continue Button",2,"object-1944","Task Instructions",NA,"SUPPRF23841"
"3",1702491398801,"13/12/2023 18:16:38",1702491398801,0,"13/12/2023 18:16:38",157047,5,"task-psw4",NA,33646925,9958474,NA,"complete",NA,"6579f21df61fd8d35f99f228","computer","Desktop or Laptop","Windows 10","Chrome 120.0.0.0","1366x768","1366x611",NA,NA,0,"Task",1,"HIGJFAEBDC","Passed AC2","","Self_focused_attention_first","Spreadsheet1",1,"Task Instructions","Screen 2","ce2tc8",2,"continue","",9074.10000009537,9057.7,9074.10000009537,9074.10000009537,9057.7,9074.10000009537,1,9074.10000009537,0,0,NA,"Click To Continue","Continue Button",2,"object-7","Task Instructions",NA,"SUPPRF23841"
"4",1702491401834,"13/12/2023 18:16:41",1702491401834,0,"13/12/2023 18:16:41",157047,5,"task-psw4",NA,33646925,9958474,NA,"complete",NA,"6579f21df61fd8d35f99f228","computer","Desktop or Laptop","Windows 10","Chrome 120.0.0.0","1366x768","1366x611",NA,NA,0,"Task",1,"HIGJFAEBDC","Passed AC2","","Self_focused_attention_first","Spreadsheet1",1,"Task Instructions","Screen 3","1qtc8v",3,"continue","",3047.1,3030.3,3047.1,3047.1,3030.3,3047.1,1,3047.1,0,0,NA,"Click To Continue","Continue Button",2,"object-52","Task Instructions",NA,"SUPPRF23841"
"5",1702491405298,"13/12/2023 18:16:45",1702491405298,0,"13/12/2023 18:16:45",157047,5,"task-psw4",NA,33646925,9958474,NA,"complete",NA,"6579f21df61fd8d35f99f228","computer","Desktop or Laptop","Windows 10","Chrome 120.0.0.0","1366x768","1366x611",NA,NA,0,"Task",1,"HIGJFAEBDC","Passed AC2","","Self_focused_attention_first","Spreadsheet1",1,"Task Instructions","Screen 4","spepx9",4,"continue","",3483.10000009537,3479.8,3483.10000009537,3483.10000009537,3479.8,3483.10000009537,1,3483.10000009537,0,0,NA,"Click To Continue","Continue Button",2,"object-9","Task Instructions",NA,"SUPPRF23841"
"6",1702491408612,"13/12/2023 18:16:48",1702491408612,0,"13/12/2023 18:16:48",157047,5,"task-psw4",NA,33646925,9958474,NA,"complete",NA,"6579f21df61fd8d35f99f228","computer","Desktop or Laptop","Windows 10","Chrome 120.0.0.0","1366x768","1366x611",NA,NA,0,"Task",1,"HIGJFAEBDC","Passed AC2","","Self_focused_attention_first","Spreadsheet1",1,"Task Instructions","Screen 5","8nvnao",5,"continue","",3317.4,3313.5,3317.4,3317.4,3313.5,3317.4,1,3317.4,0,0,NA,"Click To Continue","Continue Button",2,"object-44","Task Instructions",NA,"SUPPRF23841"
"7",1702491408629,"13/12/2023 18:16:48",1702491408629,0,"13/12/2023 18:16:48",157047,5,"task-psw4",NA,33646925,9958474,NA,"complete",NA,"6579f21df61fd8d35f99f228","computer","Desktop or Laptop","Windows 10","Chrome 120.0.0.0","1366x768","1366x611",NA,NA,0,"Task",1,"HIGJFAEBDC","Passed AC2","","Self_focused_attention_first","Spreadsheet1",NA,"","","",NA,"5","END",NA,NA,NA,NA,NA,NA,0,NA,NA,NA,NA,"","",NA,"","",NA,"SUPPRF23841"
"1",1702491672427,"13/12/2023 18:21:12",1702491672427,0,"13/12/2023 18:21:12",157047,5,"task-psw4",NA,33647039,9958507,NA,"complete",NA,"6579f394d70dff89928ee832","computer","Desktop or Laptop","Windows 10","Chrome 120.0.0.0","1440x960","1440x825",NA,NA,0,"Task",1,"IJHAGBFCED","Passed AC2","","Self_focused_attention_first","Spreadsheet1",NA,"","","",NA,"5","BEGIN",NA,NA,NA,NA,NA,NA,0,NA,NA,NA,NA,"","",NA,"","",NA,"SUPPRF21120"
"2",1702491675676,"13/12/2023 18:21:15",1702491675676,0,"13/12/2023 18:21:15",157047,5,"task-psw4",NA,33647039,9958507,NA,"complete",NA,"6579f394d70dff89928ee832","computer","Desktop or Laptop","Windows 10","Chrome 120.0.0.0","1440x960","1440x825",NA,NA,0,"Task",1,"IJHAGBFCED","Passed AC2","","Self_focused_attention_first","Spreadsheet1",1,"Task Instructions","Screen 1","anr7sn",1,"continue","",3176.00000000056,3166.8,3176.00000000056,3176.00000000056,3166.8,3176.00000000056,1,3176.00000000056,0,0,NA,"Click To Continue","Continue Button",2,"object-1944","Task Instructions",NA,"SUPPRF21120"
"3",1702491686243,"13/12/2023 18:21:26",1702491686243,0,"13/12/2023 18:21:26",157047,5,"task-psw4",NA,33647039,9958507,NA,"complete",NA,"6579f394d70dff89928ee832","computer","Desktop or Laptop","Windows 10","Chrome 120.0.0.0","1440x960","1440x825",NA,NA,0,"Task",1,"IJHAGBFCED","Passed AC2","","Self_focused_attention_first","Spreadsheet1",1,"Task Instructions","Screen 2","ce2tc8",2,"continue","",10575.7000000006,10566.7,10575.7000000006,10575.7000000006,10566.7,10575.7000000006,1,10575.7000000006,0,0,NA,"Click To Continue","Continue Button",2,"object-7","Task Instructions",NA,"SUPPRF21120"
"4",1702491688791,"13/12/2023 18:21:28",1702491688791,0,"13/12/2023 18:21:28",157047,5,"task-psw4",NA,33647039,9958507,NA,"complete",NA,"6579f394d70dff89928ee832","computer","Desktop or Laptop","Windows 10","Chrome 120.0.0.0","1440x960","1440x825",NA,NA,0,"Task",1,"IJHAGBFCED","Passed AC2","","Self_focused_attention_first","Spreadsheet1",1,"Task Instructions","Screen 3","1qtc8v",3,"continue","",2558.10000000019,2549.8,2558.10000000019,2558.10000000019,2549.8,2558.10000000019,1,2558.10000000019,0,0,NA,"Click To Continue","Continue Button",2,"object-52","Task Instructions",NA,"SUPPRF21120"
"5",1702491691305,"13/12/2023 18:21:31",1702491691305,0,"13/12/2023 18:21:31",157047,5,"task-psw4",NA,33647039,9958507,NA,"complete",NA,"6579f394d70dff89928ee832","computer","Desktop or Laptop","Windows 10","Chrome 120.0.0.0","1440x960","1440x825",NA,NA,0,"Task",1,"IJHAGBFCED","Passed AC2","","Self_focused_attention_first","Spreadsheet1",1,"Task Instructions","Screen 4","spepx9",4,"continue","",2522.20000000056,2516.8,2522.20000000056,2522.20000000056,2516.8,2522.20000000056,1,2522.20000000056,0,0,NA,"Click To Continue","Continue Button",2,"object-9","Task Instructions",NA,"SUPPRF21120"
"6",1702491693860,"13/12/2023 18:21:33",1702491693860,0,"13/12/2023 18:21:33",157047,5,"task-psw4",NA,33647039,9958507,NA,"complete",NA,"6579f394d70dff89928ee832","computer","Desktop or Laptop","Windows 10","Chrome 120.0.0.0","1440x960","1440x825",NA,NA,0,"Task",1,"IJHAGBFCED","Passed AC2","","Self_focused_attention_first","Spreadsheet1",1,"Task Instructions","Screen 5","8nvnao",5,"continue","",2560.50000000019,2549.9,2560.50000000019,2560.50000000019,2549.9,2560.50000000019,1,2560.50000000019,0,0,NA,"Click To Continue","Continue Button",2,"object-44","Task Instructions",NA,"SUPPRF21120"
"7",1702491693864,"13/12/2023 18:21:33",1702491693864,0,"13/12/2023 18:21:33",157047,5,"task-psw4",NA,33647039,9958507,NA,"complete",NA,"6579f394d70dff89928ee832","computer","Desktop or Laptop","Windows 10","Chrome 120.0.0.0","1440x960","1440x825",NA,NA,0,"Task",1,"IJHAGBFCED","Passed AC2","","Self_focused_attention_first","Spreadsheet1",NA,"","","",NA,"5","END",NA,NA,NA,NA,NA,NA,0,NA,NA,NA,NA,"","",NA,"","",NA,"SUPPRF21120"
"1",1702492265542,"13/12/2023 18:31:05",1702492265542,0,"13/12/2023 18:31:05",157047,5,"task-psw4",NA,33647269,9958550,NA,"complete",NA,"6579f4c9a63d54420e4e3405","computer","Desktop or Laptop","Mac OS 10.15.7","Chrome 120.0.0.0","1440x900","1800x911",NA,NA,0,"Task",1,"BCADJEIFHG","Passed AC2","","External_attention_first","Spreadsheet1",NA,"","","",NA,"5","BEGIN",NA,NA,NA,NA,NA,NA,0,NA,NA,NA,NA,"","",NA,"","",NA,"SUPPRF76142"
"2",1702492269049,"13/12/2023 18:31:09",1702492269049,0,"13/12/2023 18:31:09",157047,5,"task-psw4",NA,33647269,9958550,NA,"complete",NA,"6579f4c9a63d54420e4e3405","computer","Desktop or Laptop","Mac OS 10.15.7","Chrome 120.0.0.0","1440x900","1800x911",NA,NA,0,"Task",1,"BCADJEIFHG","Passed AC2","","External_attention_first","Spreadsheet1",1,"Task Instructions","Screen 1","anr7sn",1,"continue","",3426.89999999851,3416.7,3426.89999999851,3426.89999999851,3416.7,3426.89999999851,1,3426.89999999851,0,0,NA,"Click To Continue","Continue Button",2,"object-1944","Task Instructions",NA,"SUPPRF76142"
"3",1702492284167,"13/12/2023 18:31:24",1702492284167,0,"13/12/2023 18:31:24",157047,5,"task-psw4",NA,33647269,9958550,NA,"complete",NA,"6579f4c9a63d54420e4e3405","computer","Desktop or Laptop","Mac OS 10.15.7","Chrome 120.0.0.0","1440x900","1800x911",NA,NA,0,"Task",1,"BCADJEIFHG","Passed AC2","","External_attention_first","Spreadsheet1",1,"Task Instructions","Screen 2","ce2tc8",2,"continue","",15127.6999999985,15118,15127.6999999985,15127.6999999985,15118,15127.6999999985,1,15127.6999999985,0,0,NA,"Click To Continue","Continue Button",2,"object-7","Task Instructions",NA,"SUPPRF76142"
"4",1702492288981,"13/12/2023 18:31:28",1702492288981,0,"13/12/2023 18:31:28",157047,5,"task-psw4",NA,33647269,9958550,NA,"complete",NA,"6579f4c9a63d54420e4e3405","computer","Desktop or Laptop","Mac OS 10.15.7","Chrome 120.0.0.0","1440x900","1800x911",NA,NA,0,"Task",1,"BCADJEIFHG","Passed AC2","","External_attention_first","Spreadsheet1",1,"Task Instructions","Screen 3","1qtc8v",3,"continue","",4823.69999999851,4816.8,4823.69999999851,4823.69999999851,4816.8,4823.69999999851,1,4823.69999999851,0,0,NA,"Click To Continue","Continue Button",2,"object-52","Task Instructions",NA,"SUPPRF76142"
"5",1702492291582,"13/12/2023 18:31:31",1702492291582,0,"13/12/2023 18:31:31",157047,5,"task-psw4",NA,33647269,9958550,NA,"complete",NA,"6579f4c9a63d54420e4e3405","computer","Desktop or Laptop","Mac OS 10.15.7","Chrome 120.0.0.0","1440x900","1800x911",NA,NA,0,"Task",1,"BCADJEIFHG","Passed AC2","","External_attention_first","Spreadsheet1",1,"Task Instructions","Screen 4","spepx9",4,"continue","",2608.39999999851,2600.5,2608.39999999851,2608.39999999851,2600.5,2608.39999999851,1,2608.39999999851,0,0,NA,"Click To Continue","Continue Button",2,"object-9","Task Instructions",NA,"SUPPRF76142"
"6",1702492294567,"13/12/2023 18:31:34",1702492294567,0,"13/12/2023 18:31:34",157047,5,"task-psw4",NA,33647269,9958550,NA,"complete",NA,"6579f4c9a63d54420e4e3405","computer","Desktop or Laptop","Mac OS 10.15.7","Chrome 120.0.0.0","1440x900","1800x911",NA,NA,0,"Task",1,"BCADJEIFHG","Passed AC2","","External_attention_first","Spreadsheet1",1,"Task Instructions","Screen 5","8nvnao",5,"continue","",2992,2983.4,2992,2992,2983.4,2992,1,2992,0,0,NA,"Click To Continue","Continue Button",2,"object-44","Task Instructions",NA,"SUPPRF76142"
"7",1702492294574,"13/12/2023 18:31:34",1702492294574,0,"13/12/2023 18:31:34",157047,5,"task-psw4",NA,33647269,9958550,NA,"complete",NA,"6579f4c9a63d54420e4e3405","computer","Desktop or Laptop","Mac OS 10.15.7","Chrome 120.0.0.0","1440x900","1800x911",NA,NA,0,"Task",1,"BCADJEIFHG","Passed AC2","","External_attention_first","Spreadsheet1",NA,"","","",NA,"5","END",NA,NA,NA,NA,NA,NA,0,NA,NA,NA,NA,"","",NA,"","",NA,"SUPPRF76142"
"1",1702492340257,"13/12/2023 18:32:20",1702492340257,0,"13/12/2023 18:32:20",157047,5,"task-psw4",NA,33647306,9958565,NA,"complete",NA,"6579f6656ceae4a140d7284a","computer","Desktop or Laptop","Mac OS 10.15.7","Chrome 120.0.0.0","1440x900","1440x739",NA,NA,0,"Task",1,"CDBEAFJGIH","Passed AC2","","External_attention_first","Spreadsheet1",NA,"","","",NA,"5","BEGIN",NA,NA,NA,NA,NA,NA,0,NA,NA,NA,NA,"","",NA,"","",NA,"SUPPRF14695"
"2",1702492344419,"13/12/2023 18:32:24",1702492344419,0,"13/12/2023 18:32:24",157047,5,"task-psw4",NA,33647306,9958565,NA,"complete",NA,"6579f6656ceae4a140d7284a","computer","Desktop or Laptop","Mac OS 10.15.7","Chrome 120.0.0.0","1440x900","1440x739",NA,NA,0,"Task",1,"CDBEAFJGIH","Passed AC2","","External_attention_first","Spreadsheet1",1,"Task Instructions","Screen 1","anr7sn",1,"continue","",4006.89999999553,3997.2,4006.89999999553,4006.89999999553,3997.2,4006.89999999553,1,4006.89999999553,0,0,NA,"Click To Continue","Continue Button",2,"object-1944","Task Instructions",NA,"SUPPRF14695"
"3",1702492351015,"13/12/2023 18:32:31",1702492351015,0,"13/12/2023 18:32:31",157047,5,"task-psw4",NA,33647306,9958565,NA,"complete",NA,"6579f6656ceae4a140d7284a","computer","Desktop or Laptop","Mac OS 10.15.7","Chrome 120.0.0.0","1440x900","1440x739",NA,NA,0,"Task",1,"CDBEAFJGIH","Passed AC2","","External_attention_first","Spreadsheet1",1,"Task Instructions","Screen 2","ce2tc8",2,"continue","",6606.89999999851,6595.7,6606.89999999851,6606.89999999851,6595.7,6606.89999999851,1,6606.89999999851,0,0,NA,"Click To Continue","Continue Button",2,"object-7","Task Instructions",NA,"SUPPRF14695"
"4",1702492353487,"13/12/2023 18:32:33",1702492353487,0,"13/12/2023 18:32:33",157047,5,"task-psw4",NA,33647306,9958565,NA,"complete",NA,"6579f6656ceae4a140d7284a","computer","Desktop or Laptop","Mac OS 10.15.7","Chrome 120.0.0.0","1440x900","1440x739",NA,NA,0,"Task",1,"CDBEAFJGIH","Passed AC2","","External_attention_first","Spreadsheet1",1,"Task Instructions","Screen 3","1qtc8v",3,"continue","",2481.5,2464.9,2481.5,2481.5,2464.9,2481.5,1,2481.5,0,0,NA,"Click To Continue","Continue Button",2,"object-52","Task Instructions",NA,"SUPPRF14695"
"5",1702492355999,"13/12/2023 18:32:35",1702492355999,0,"13/12/2023 18:32:35",157047,5,"task-psw4",NA,33647306,9958565,NA,"complete",NA,"6579f6656ceae4a140d7284a","computer","Desktop or Laptop","Mac OS 10.15.7","Chrome 120.0.0.0","1440x900","1440x739",NA,NA,0,"Task",1,"CDBEAFJGIH","Passed AC2","","External_attention_first","Spreadsheet1",1,"Task Instructions","Screen 4","spepx9",4,"continue","",2530.4,2514.9,2530.4,2530.4,2514.9,2530.4,1,2530.4,0,0,NA,"Click To Continue","Continue Button",2,"object-9","Task Instructions",NA,"SUPPRF14695"
"6",1702492358371,"13/12/2023 18:32:38",1702492358371,0,"13/12/2023 18:32:38",157047,5,"task-psw4",NA,33647306,9958565,NA,"complete",NA,"6579f6656ceae4a140d7284a","computer","Desktop or Laptop","Mac OS 10.15.7","Chrome 120.0.0.0","1440x900","1440x739",NA,NA,0,"Task",1,"CDBEAFJGIH","Passed AC2","","External_attention_first","Spreadsheet1",1,"Task Instructions","Screen 5","8nvnao",5,"continue","",2387.29999999702,2382.1,2387.29999999702,2387.29999999702,2382.1,2387.29999999702,1,2387.29999999702,0,0,NA,"Click To Continue","Continue Button",2,"object-44","Task Instructions",NA,"SUPPRF14695"
"7",1702492358374,"13/12/2023 18:32:38",1702492358374,0,"13/12/2023 18:32:38",157047,5,"task-psw4",NA,33647306,9958565,NA,"complete",NA,"6579f6656ceae4a140d7284a","computer","Desktop or Laptop","Mac OS 10.15.7","Chrome 120.0.0.0","1440x900","1440x739",NA,NA,0,"Task",1,"CDBEAFJGIH","Passed AC2","","External_attention_first","Spreadsheet1",NA,"","","",NA,"5","END",NA,NA,NA,NA,NA,NA,0,NA,NA,NA,NA,"","",NA,"","",NA,"SUPPRF14695"
"1",1702492899595,"13/12/2023 18:41:39",1702492899595,0,"13/12/2023 18:41:39",157047,5,"task-psw4",NA,33647508,9958617,NA,"complete",NA,"6579f7be45eebb6b2b8eea0f","computer","Desktop or Laptop","Windows 10","Chrome 120.0.0.0","1536x864","1536x747",NA,NA,0,"Task",1,"DECFBGAHJI","Passed AC2","","Self_focused_attention_first","Spreadsheet1",NA,"","","",NA,"5","BEGIN",NA,NA,NA,NA,NA,NA,0,NA,NA,NA,NA,"","",NA,"","",NA,"SUPPRF33974"
"2",1702492902894,"13/12/2023 18:41:42",1702492902894,0,"13/12/2023 18:41:42",157047,5,"task-psw4",NA,33647508,9958617,NA,"complete",NA,"6579f7be45eebb6b2b8eea0f","computer","Desktop or Laptop","Windows 10","Chrome 120.0.0.0","1536x864","1536x747",NA,NA,0,"Task",1,"DECFBGAHJI","Passed AC2","","Self_focused_attention_first","Spreadsheet1",1,"Task Instructions","Screen 1","anr7sn",1,"continue","",3254.30000001788,3250,3254.30000001788,3254.30000001788,3250,3254.30000001788,1,3254.30000001788,0,0,NA,"Click To Continue","Continue Button",2,"object-1944","Task Instructions",NA,"SUPPRF33974"
"3",1702492906591,"13/12/2023 18:41:46",1702492906591,0,"13/12/2023 18:41:46",157047,5,"task-psw4",NA,33647508,9958617,NA,"complete",NA,"6579f7be45eebb6b2b8eea0f","computer","Desktop or Laptop","Windows 10","Chrome 120.0.0.0","1536x864","1536x747",NA,NA,0,"Task",1,"DECFBGAHJI","Passed AC2","","Self_focused_attention_first","Spreadsheet1",1,"Task Instructions","Screen 2","ce2tc8",2,"continue","",3700,3683.3,3700,3700,3683.3,3700,1,3700,0,0,NA,"Click To Continue","Continue Button",2,"object-7","Task Instructions",NA,"SUPPRF33974"
"4",1702492912015,"13/12/2023 18:41:52",1702492912015,0,"13/12/2023 18:41:52",157047,5,"task-psw4",NA,33647508,9958617,NA,"complete",NA,"6579f7be45eebb6b2b8eea0f","computer","Desktop or Laptop","Windows 10","Chrome 120.0.0.0","1536x864","1536x747",NA,NA,0,"Task",1,"DECFBGAHJI","Passed AC2","","Self_focused_attention_first","Spreadsheet1",1,"Task Instructions","Screen 3","1qtc8v",3,"continue","",5441.3,5433.4,5441.3,5441.3,5433.4,5441.3,1,5441.3,0,0,NA,"Click To Continue","Continue Button",2,"object-52","Task Instructions",NA,"SUPPRF33974"
"5",1702492959120,"13/12/2023 18:42:39",1702492959120,0,"13/12/2023 18:42:39",157047,5,"task-psw4",NA,33647508,9958617,NA,"complete",NA,"6579f7be45eebb6b2b8eea0f","computer","Desktop or Laptop","Windows 10","Chrome 120.0.0.0","1536x864","1536x747",NA,NA,0,"Task",1,"DECFBGAHJI","Passed AC2","","Self_focused_attention_first","Spreadsheet1",1,"Task Instructions","Screen 4","spepx9",4,"continue","",47108.4,47099.9,47108.4,47108.4,47099.9,47108.4,1,47108.4,0,0,NA,"Click To Continue","Continue Button",2,"object-9","Task Instructions",NA,"SUPPRF33974"
"6",1702492970528,"13/12/2023 18:42:50",1702492970528,0,"13/12/2023 18:42:50",157047,5,"task-psw4",NA,33647508,9958617,NA,"complete",NA,"6579f7be45eebb6b2b8eea0f","computer","Desktop or Laptop","Windows 10","Chrome 120.0.0.0","1536x864","1536x747",NA,NA,0,"Task",1,"DECFBGAHJI","Passed AC2","","Self_focused_attention_first","Spreadsheet1",1,"Task Instructions","Screen 5","8nvnao",5,"continue","",11416.5,11400,11416.5,11416.5,11400,11416.5,1,11416.5,0,0,NA,"Click To Continue","Continue Button",2,"object-44","Task Instructions",NA,"SUPPRF33974"
"7",1702492970533,"13/12/2023 18:42:50",1702492970533,0,"13/12/2023 18:42:50",157047,5,"task-psw4",NA,33647508,9958617,NA,"complete",NA,"6579f7be45eebb6b2b8eea0f","computer","Desktop or Laptop","Windows 10","Chrome 120.0.0.0","1536x864","1536x747",NA,NA,0,"Task",1,"DECFBGAHJI","Passed AC2","","Self_focused_attention_first","Spreadsheet1",NA,"","","",NA,"5","END",NA,NA,NA,NA,NA,NA,0,NA,NA,NA,NA,"","",NA,"","",NA,"SUPPRF33974"
"1",1702493226924,"13/12/2023 18:47:06",1702493226924,0,"13/12/2023 18:47:06",157047,5,"task-psw4",NA,33647638,9958623,NA,"complete",NA,"6579f88fa880780f5ec4dcd3","computer","Desktop or Laptop","Windows 10","Chrome 120.0.0.0","1536x864","1536x730",NA,NA,0,"Task",1,"EFDGCHBIAJ","Passed AC2","","External_attention_first","Spreadsheet1",NA,"","","",NA,"5","BEGIN",NA,NA,NA,NA,NA,NA,0,NA,NA,NA,NA,"","",NA,"","",NA,"SUPPRF61954"
"2",1702493231926,"13/12/2023 18:47:11",1702493231926,0,"13/12/2023 18:47:11",157047,5,"task-psw4",NA,33647638,9958623,NA,"complete",NA,"6579f88fa880780f5ec4dcd3","computer","Desktop or Laptop","Windows 10","Chrome 120.0.0.0","1536x864","1536x730",NA,NA,0,"Task",1,"EFDGCHBIAJ","Passed AC2","","External_attention_first","Spreadsheet1",1,"Task Instructions","Screen 1","anr7sn",1,"continue","",4961.1,4958,4961.1,4961.1,4958,4961.1,1,4961.1,0,0,NA,"Click To Continue","Continue Button",2,"object-1944","Task Instructions",NA,"SUPPRF61954"
"3",1702493235060,"13/12/2023 18:47:15",1702493235060,0,"13/12/2023 18:47:15",157047,5,"task-psw4",NA,33647638,9958623,NA,"complete",NA,"6579f88fa880780f5ec4dcd3","computer","Desktop or Laptop","Windows 10","Chrome 120.0.0.0","1536x864","1536x730",NA,NA,0,"Task",1,"EFDGCHBIAJ","Passed AC2","","External_attention_first","Spreadsheet1",1,"Task Instructions","Screen 2","ce2tc8",2,"continue","",3137.40000000075,3136.3,3137.40000000075,3137.40000000075,3136.3,3137.40000000075,1,3137.40000000075,0,0,NA,"Click To Continue","Continue Button",2,"object-7","Task Instructions",NA,"SUPPRF61954"
"4",1702493238755,"13/12/2023 18:47:18",1702493238755,0,"13/12/2023 18:47:18",157047,5,"task-psw4",NA,33647638,9958623,NA,"complete",NA,"6579f88fa880780f5ec4dcd3","computer","Desktop or Laptop","Windows 10","Chrome 120.0.0.0","1536x864","1536x730",NA,NA,0,"Task",1,"EFDGCHBIAJ","Passed AC2","","External_attention_first","Spreadsheet1",1,"Task Instructions","Screen 3","1qtc8v",3,"continue","",3695.90000000149,3693.6,3695.90000000149,3695.90000000149,3693.6,3695.90000000149,1,3695.90000000149,0,0,NA,"Click To Continue","Continue Button",2,"object-52","Task Instructions",NA,"SUPPRF61954"
"5",1702493243290,"13/12/2023 18:47:23",1702493243290,0,"13/12/2023 18:47:23",157047,5,"task-psw4",NA,33647638,9958623,NA,"complete",NA,"6579f88fa880780f5ec4dcd3","computer","Desktop or Laptop","Windows 10","Chrome 120.0.0.0","1536x864","1536x730",NA,NA,0,"Task",1,"EFDGCHBIAJ","Passed AC2","","External_attention_first","Spreadsheet1",1,"Task Instructions","Screen 4","spepx9",4,"continue","",4537.10000000224,4533.7,4537.10000000224,4537.10000000224,4533.7,4537.10000000224,1,4537.10000000224,0,0,NA,"Click To Continue","Continue Button",2,"object-9","Task Instructions",NA,"SUPPRF61954"
"6",1702493246011,"13/12/2023 18:47:26",1702493246011,0,"13/12/2023 18:47:26",157047,5,"task-psw4",NA,33647638,9958623,NA,"complete",NA,"6579f88fa880780f5ec4dcd3","computer","Desktop or Laptop","Windows 10","Chrome 120.0.0.0","1536x864","1536x730",NA,NA,0,"Task",1,"EFDGCHBIAJ","Passed AC2","","External_attention_first","Spreadsheet1",1,"Task Instructions","Screen 5","8nvnao",5,"continue","",2724.20000000298,2720.3,2724.20000000298,2724.20000000298,2720.3,2724.20000000298,1,2724.20000000298,0,0,NA,"Click To Continue","Continue Button",2,"object-44","Task Instructions",NA,"SUPPRF61954"
"7",1702493246012,"13/12/2023 18:47:26",1702493246012,0,"13/12/2023 18:47:26",157047,5,"task-psw4",NA,33647638,9958623,NA,"complete",NA,"6579f88fa880780f5ec4dcd3","computer","Desktop or Laptop","Windows 10","Chrome 120.0.0.0","1536x864","1536x730",NA,NA,0,"Task",1,"EFDGCHBIAJ","Passed AC2","","External_attention_first","Spreadsheet1",NA,"","","",NA,"5","END",NA,NA,NA,NA,NA,NA,0,NA,NA,NA,NA,"","",NA,"","",NA,"SUPPRF61954"
"1",1702494280570,"13/12/2023 19:04:40",1702476280570,-5,"13/12/2023 09:04:40",157047,5,"task-psw4",NA,33647977,9958649,NA,"complete",NA,"6579f9f657e6bd9df97dc5f6","computer","Desktop or Laptop","Chromium OS 14541.0.0","Chrome 118.0.0.0","1366x768","1366x612",NA,NA,0,"Task",1,"FGEHDICJBA","Passed AC2","","Self_focused_attention_first","Spreadsheet1",NA,"","","",NA,"5","BEGIN",NA,NA,NA,NA,NA,NA,0,NA,NA,NA,NA,"","",NA,"","",NA,"SUPPRF49764"
"2",1702494289752,"13/12/2023 19:04:49",1702476289752,-5,"13/12/2023 09:04:49",157047,5,"task-psw4",NA,33647977,9958649,NA,"complete",NA,"6579f9f657e6bd9df97dc5f6","computer","Desktop or Laptop","Chromium OS 14541.0.0","Chrome 118.0.0.0","1366x768","1366x612",NA,NA,0,"Task",1,"FGEHDICJBA","Passed AC2","","Self_focused_attention_first","Spreadsheet1",1,"Task Instructions","Screen 1","anr7sn",1,"continue","",8599.68,8566.348,8599.68,8599.68,8566.348,8599.68,1,8599.68,0,0,NA,"Click To Continue","Continue Button",2,"object-1944","Task Instructions",NA,"SUPPRF49764"
"3",1702494299243,"13/12/2023 19:04:59",1702476299243,-5,"13/12/2023 09:04:59",157047,5,"task-psw4",NA,33647977,9958649,NA,"complete",NA,"6579f9f657e6bd9df97dc5f6","computer","Desktop or Laptop","Chromium OS 14541.0.0","Chrome 118.0.0.0","1366x768","1366x612",NA,NA,0,"Task",1,"FGEHDICJBA","Passed AC2","","Self_focused_attention_first","Spreadsheet1",1,"Task Instructions","Screen 2","ce2tc8",2,"continue","",9532.966,9499.634,9532.966,9532.966,9499.634,9532.966,1,9532.966,0,0,NA,"Click To Continue","Continue Button",2,"object-7","Task Instructions",NA,"SUPPRF49764"
"4",1702494303991,"13/12/2023 19:05:03",1702476303991,-5,"13/12/2023 09:05:03",157047,5,"task-psw4",NA,33647977,9958649,NA,"complete",NA,"6579f9f657e6bd9df97dc5f6","computer","Desktop or Laptop","Chromium OS 14541.0.0","Chrome 118.0.0.0","1366x768","1366x612",NA,NA,0,"Task",1,"FGEHDICJBA","Passed AC2","","Self_focused_attention_first","Spreadsheet1",1,"Task Instructions","Screen 3","1qtc8v",3,"continue","",4782.19000000074,4766.496,4782.19000000074,4782.19000000074,4766.496,4782.19000000074,1,4782.19000000074,0,0,NA,"Click To Continue","Continue Button",2,"object-52","Task Instructions",NA,"SUPPRF49764"
"5",1702494309047,"13/12/2023 19:05:09",1702476309047,-5,"13/12/2023 09:05:09",157047,5,"task-psw4",NA,33647977,9958649,NA,"complete",NA,"6579f9f657e6bd9df97dc5f6","computer","Desktop or Laptop","Chromium OS 14541.0.0","Chrome 118.0.0.0","1366x768","1366x612",NA,NA,0,"Task",1,"FGEHDICJBA","Passed AC2","","Self_focused_attention_first","Spreadsheet1",1,"Task Instructions","Screen 4","spepx9",4,"continue","",5071.79400000037,5066.464,5071.79400000037,5071.79400000037,5066.464,5071.79400000037,1,5071.79400000037,0,0,NA,"Click To Continue","Continue Button",2,"object-9","Task Instructions",NA,"SUPPRF49764"
"6",1702494311677,"13/12/2023 19:05:11",1702476311677,-5,"13/12/2023 09:05:11",157047,5,"task-psw4",NA,33647977,9958649,NA,"complete",NA,"6579f9f657e6bd9df97dc5f6","computer","Desktop or Laptop","Chromium OS 14541.0.0","Chrome 118.0.0.0","1366x768","1366x612",NA,NA,0,"Task",1,"FGEHDICJBA","Passed AC2","","Self_focused_attention_first","Spreadsheet1",1,"Task Instructions","Screen 5","8nvnao",5,"continue","",2633.23299999999,2599.901,2633.23299999999,2633.23299999999,2599.901,2633.23299999999,1,2633.23299999999,0,0,NA,"Click To Continue","Continue Button",2,"object-44","Task Instructions",NA,"SUPPRF49764"
"7",1702494311690,"13/12/2023 19:05:11",1702476311690,-5,"13/12/2023 09:05:11",157047,5,"task-psw4",NA,33647977,9958649,NA,"complete",NA,"6579f9f657e6bd9df97dc5f6","computer","Desktop or Laptop","Chromium OS 14541.0.0","Chrome 118.0.0.0","1366x768","1366x612",NA,NA,0,"Task",1,"FGEHDICJBA","Passed AC2","","Self_focused_attention_first","Spreadsheet1",NA,"","","",NA,"5","END",NA,NA,NA,NA,NA,NA,0,NA,NA,NA,NA,"","",NA,"","",NA,"SUPPRF49764"
"1",1702494383237,"13/12/2023 19:06:23",1702476383237,-5,"13/12/2023 09:06:23",157047,5,"task-psw4",NA,33648000,9958700,NA,"complete",NA,"6579fd63922f0206731c9fcd","computer","Desktop or Laptop","Windows 10","Chrome 120.0.0.0","1280x720","1280x632",NA,NA,0,"Task",1,"GHFIEJDACB","Passed AC2","","External_attention_first","Spreadsheet1",NA,"","","",NA,"5","BEGIN",NA,NA,NA,NA,NA,NA,0,NA,NA,NA,NA,"","",NA,"","",NA,"SUPPRF92791"
"2",1702494388111,"13/12/2023 19:06:28",1702476388111,-5,"13/12/2023 09:06:28",157047,5,"task-psw4",NA,33648000,9958700,NA,"complete",NA,"6579fd63922f0206731c9fcd","computer","Desktop or Laptop","Windows 10","Chrome 120.0.0.0","1280x720","1280x632",NA,NA,0,"Task",1,"GHFIEJDACB","Passed AC2","","External_attention_first","Spreadsheet1",1,"Task Instructions","Screen 1","anr7sn",1,"continue","",3731.8,3715.3,3731.8,3731.8,3715.3,3731.8,1,3731.8,0,0,NA,"Click To Continue","Continue Button",2,"object-1944","Task Instructions",NA,"SUPPRF92791"
"3",1702494395154,"13/12/2023 19:06:35",1702476395154,-5,"13/12/2023 09:06:35",157047,5,"task-psw4",NA,33648000,9958700,NA,"complete",NA,"6579fd63922f0206731c9fcd","computer","Desktop or Laptop","Windows 10","Chrome 120.0.0.0","1280x720","1280x632",NA,NA,0,"Task",1,"GHFIEJDACB","Passed AC2","","External_attention_first","Spreadsheet1",1,"Task Instructions","Screen 2","ce2tc8",2,"continue","",7063.50000000149,7047.8,7063.50000000149,7063.50000000149,7047.8,7063.50000000149,1,7063.50000000149,0,0,NA,"Click To Continue","Continue Button",2,"object-7","Task Instructions",NA,"SUPPRF92791"
"4",1702494398601,"13/12/2023 19:06:38",1702476398601,-5,"13/12/2023 09:06:38",157047,5,"task-psw4",NA,33648000,9958700,NA,"complete",NA,"6579fd63922f0206731c9fcd","computer","Desktop or Laptop","Windows 10","Chrome 120.0.0.0","1280x720","1280x632",NA,NA,0,"Task",1,"GHFIEJDACB","Passed AC2","","External_attention_first","Spreadsheet1",1,"Task Instructions","Screen 3","1qtc8v",3,"continue","",3462.30000000298,3449.4,3462.30000000298,3462.30000000298,3449.4,3462.30000000298,1,3462.30000000298,0,0,NA,"Click To Continue","Continue Button",2,"object-52","Task Instructions",NA,"SUPPRF92791"
"5",1702494401824,"13/12/2023 19:06:41",1702476401824,-5,"13/12/2023 09:06:41",157047,5,"task-psw4",NA,33648000,9958700,NA,"complete",NA,"6579fd63922f0206731c9fcd","computer","Desktop or Laptop","Windows 10","Chrome 120.0.0.0","1280x720","1280x632",NA,NA,0,"Task",1,"GHFIEJDACB","Passed AC2","","External_attention_first","Spreadsheet1",1,"Task Instructions","Screen 4","spepx9",4,"continue","",3236.30000000149,3231.8,3236.30000000149,3236.30000000149,3231.8,3236.30000000149,1,3236.30000000149,0,0,NA,"Click To Continue","Continue Button",2,"object-9","Task Instructions",NA,"SUPPRF92791"
"6",1702494412478,"13/12/2023 19:06:52",1702476412478,-5,"13/12/2023 09:06:52",157047,5,"task-psw4",NA,33648000,9958700,NA,"complete",NA,"6579fd63922f0206731c9fcd","computer","Desktop or Laptop","Windows 10","Chrome 120.0.0.0","1280x720","1280x632",NA,NA,0,"Task",1,"GHFIEJDACB","Passed AC2","","External_attention_first","Spreadsheet1",1,"Task Instructions","Screen 5","8nvnao",5,"continue","",10657.7999999985,10646.1,10657.7999999985,10657.7999999985,10646.1,10657.7999999985,1,10657.7999999985,0,0,NA,"Click To Continue","Continue Button",2,"object-44","Task Instructions",NA,"SUPPRF92791"
"7",1702494412488,"13/12/2023 19:06:52",1702476412488,-5,"13/12/2023 09:06:52",157047,5,"task-psw4",NA,33648000,9958700,NA,"complete",NA,"6579fd63922f0206731c9fcd","computer","Desktop or Laptop","Windows 10","Chrome 120.0.0.0","1280x720","1280x632",NA,NA,0,"Task",1,"GHFIEJDACB","Passed AC2","","External_attention_first","Spreadsheet1",NA,"","","",NA,"5","END",NA,NA,NA,NA,NA,NA,0,NA,NA,NA,NA,"","",NA,"","",NA,"SUPPRF92791"
"1",1702494694591,"13/12/2023 19:11:34",1702476694591,-5,"13/12/2023 09:11:34",157047,5,"task-psw4",NA,33648128,9958736,NA,"complete",NA,"6579ffbfd8a48d68d1907fc0","computer","Desktop or Laptop","Windows 10","Chrome 120.0.0.0","1600x900","1600x751",NA,NA,0,"Task",1,"HIGJFAEBDC","Passed AC2","","Self_focused_attention_first","Spreadsheet1",NA,"","","",NA,"5","BEGIN",NA,NA,NA,NA,NA,NA,0,NA,NA,NA,NA,"","",NA,"","",NA,"SUPPRF64663"
"2",1702494698280,"13/12/2023 19:11:38",1702476698280,-5,"13/12/2023 09:11:38",157047,5,"task-psw4",NA,33648128,9958736,NA,"complete",NA,"6579ffbfd8a48d68d1907fc0","computer","Desktop or Laptop","Windows 10","Chrome 120.0.0.0","1600x900","1600x751",NA,NA,0,"Task",1,"HIGJFAEBDC","Passed AC2","","Self_focused_attention_first","Spreadsheet1",1,"Task Instructions","Screen 1","anr7sn",1,"continue","",3550.2,3533.5,3550.2,3550.2,3533.5,3550.2,1,3550.2,0,0,NA,"Click To Continue","Continue Button",2,"object-1944","Task Instructions",NA,"SUPPRF64663"
"3",1702494707204,"13/12/2023 19:11:47",1702476707204,-5,"13/12/2023 09:11:47",157047,5,"task-psw4",NA,33648128,9958736,NA,"complete",NA,"6579ffbfd8a48d68d1907fc0","computer","Desktop or Laptop","Windows 10","Chrome 120.0.0.0","1600x900","1600x751",NA,NA,0,"Task",1,"HIGJFAEBDC","Passed AC2","","Self_focused_attention_first","Spreadsheet1",1,"Task Instructions","Screen 2","ce2tc8",2,"continue","",8943.39999998808,8933.3,8943.39999998808,8943.39999998808,8933.3,8943.39999998808,1,8943.39999998808,0,0,NA,"Click To Continue","Continue Button",2,"object-7","Task Instructions",NA,"SUPPRF64663"
"4",1702494709939,"13/12/2023 19:11:49",1702476709939,-5,"13/12/2023 09:11:49",157047,5,"task-psw4",NA,33648128,9958736,NA,"complete",NA,"6579ffbfd8a48d68d1907fc0","computer","Desktop or Laptop","Windows 10","Chrome 120.0.0.0","1600x900","1600x751",NA,NA,0,"Task",1,"HIGJFAEBDC","Passed AC2","","Self_focused_attention_first","Spreadsheet1",1,"Task Instructions","Screen 3","1qtc8v",3,"continue","",2744.79999999106,2733.5,2744.79999999106,2744.79999999106,2733.5,2744.79999999106,1,2744.79999999106,0,0,NA,"Click To Continue","Continue Button",2,"object-52","Task Instructions",NA,"SUPPRF64663"
"5",1702494712619,"13/12/2023 19:11:52",1702476712619,-5,"13/12/2023 09:11:52",157047,5,"task-psw4",NA,33648128,9958736,NA,"complete",NA,"6579ffbfd8a48d68d1907fc0","computer","Desktop or Laptop","Windows 10","Chrome 120.0.0.0","1600x900","1600x751",NA,NA,0,"Task",1,"HIGJFAEBDC","Passed AC2","","Self_focused_attention_first","Spreadsheet1",1,"Task Instructions","Screen 4","spepx9",4,"continue","",2691.59999998808,2683.1,2691.59999998808,2691.59999998808,2683.1,2691.59999998808,1,2691.59999998808,0,0,NA,"Click To Continue","Continue Button",2,"object-9","Task Instructions",NA,"SUPPRF64663"
"6",1702494715253,"13/12/2023 19:11:55",1702476715253,-5,"13/12/2023 09:11:55",157047,5,"task-psw4",NA,33648128,9958736,NA,"complete",NA,"6579ffbfd8a48d68d1907fc0","computer","Desktop or Laptop","Windows 10","Chrome 120.0.0.0","1600x900","1600x751",NA,NA,0,"Task",1,"HIGJFAEBDC","Passed AC2","","Self_focused_attention_first","Spreadsheet1",1,"Task Instructions","Screen 5","8nvnao",5,"continue","",2642.49999998808,2633.3,2642.49999998808,2642.49999998808,2633.3,2642.49999998808,1,2642.49999998808,0,0,NA,"Click To Continue","Continue Button",2,"object-44","Task Instructions",NA,"SUPPRF64663"
"7",1702494715258,"13/12/2023 19:11:55",1702476715258,-5,"13/12/2023 09:11:55",157047,5,"task-psw4",NA,33648128,9958736,NA,"complete",NA,"6579ffbfd8a48d68d1907fc0","computer","Desktop or Laptop","Windows 10","Chrome 120.0.0.0","1600x900","1600x751",NA,NA,0,"Task",1,"HIGJFAEBDC","Passed AC2","","Self_focused_attention_first","Spreadsheet1",NA,"","","",NA,"5","END",NA,NA,NA,NA,NA,NA,0,NA,NA,NA,NA,"","",NA,"","",NA,"SUPPRF64663"
"1",1702495961842,"13/12/2023 19:32:41",1702499561842,1,"13/12/2023 21:32:41",157047,5,"task-psw4",NA,33648480,9958759,NA,"complete",NA,"6579ffca36fd1eb86db52566","computer","Desktop or Laptop","Windows 10","Chrome 120.0.0.0","1600x900","1600x773",NA,NA,0,"Task",1,"IJHAGBFCED","Passed AC2","","Self_focused_attention_first","Spreadsheet1",NA,"","","",NA,"5","BEGIN",NA,NA,NA,NA,NA,NA,0,NA,NA,NA,NA,"","",NA,"","",NA,"SUPPRF09275"
"2",1702495970542,"13/12/2023 19:32:50",1702499570542,1,"13/12/2023 21:32:50",157047,5,"task-psw4",NA,33648480,9958759,NA,"complete",NA,"6579ffca36fd1eb86db52566","computer","Desktop or Laptop","Windows 10","Chrome 120.0.0.0","1600x900","1600x773",NA,NA,0,"Task",1,"IJHAGBFCED","Passed AC2","","Self_focused_attention_first","Spreadsheet1",1,"Task Instructions","Screen 1","anr7sn",1,"continue","",6582.39999999404,6567.4,6582.39999999404,6582.39999999404,6567.4,6582.39999999404,1,6582.39999999404,0,0,NA,"Click To Continue","Continue Button",2,"object-1944","Task Instructions",NA,"SUPPRF09275"
"3",1702495978369,"13/12/2023 19:32:58",1702499578369,1,"13/12/2023 21:32:58",157047,5,"task-psw4",NA,33648480,9958759,NA,"complete",NA,"6579ffca36fd1eb86db52566","computer","Desktop or Laptop","Windows 10","Chrome 120.0.0.0","1600x900","1600x773",NA,NA,0,"Task",1,"IJHAGBFCED","Passed AC2","","Self_focused_attention_first","Spreadsheet1",1,"Task Instructions","Screen 2","ce2tc8",2,"continue","",7842.49999999404,7834.2,7842.49999999404,7842.49999999404,7834.2,7842.49999999404,1,7842.49999999404,0,0,NA,"Click To Continue","Continue Button",2,"object-7","Task Instructions",NA,"SUPPRF09275"
"4",1702495982238,"13/12/2023 19:33:02",1702499582238,1,"13/12/2023 21:33:02",157047,5,"task-psw4",NA,33648480,9958759,NA,"complete",NA,"6579ffca36fd1eb86db52566","computer","Desktop or Laptop","Windows 10","Chrome 120.0.0.0","1600x900","1600x773",NA,NA,0,"Task",1,"IJHAGBFCED","Passed AC2","","Self_focused_attention_first","Spreadsheet1",1,"Task Instructions","Screen 3","1qtc8v",3,"continue","",3877.79999999404,3867,3877.79999999404,3877.79999999404,3867,3877.79999999404,1,3877.79999999404,0,0,NA,"Click To Continue","Continue Button",2,"object-52","Task Instructions",NA,"SUPPRF09275"
"5",1702495986669,"13/12/2023 19:33:06",1702499586669,1,"13/12/2023 21:33:06",157047,5,"task-psw4",NA,33648480,9958759,NA,"complete",NA,"6579ffca36fd1eb86db52566","computer","Desktop or Laptop","Windows 10","Chrome 120.0.0.0","1600x900","1600x773",NA,NA,0,"Task",1,"IJHAGBFCED","Passed AC2","","Self_focused_attention_first","Spreadsheet1",1,"Task Instructions","Screen 4","spepx9",4,"continue","",4441.90000000298,4433.8,4441.90000000298,4441.90000000298,4433.8,4441.90000000298,1,4441.90000000298,0,0,NA,"Click To Continue","Continue Button",2,"object-9","Task Instructions",NA,"SUPPRF09275"
"6",1702495990650,"13/12/2023 19:33:10",1702499590650,1,"13/12/2023 21:33:10",157047,5,"task-psw4",NA,33648480,9958759,NA,"complete",NA,"6579ffca36fd1eb86db52566","computer","Desktop or Laptop","Windows 10","Chrome 120.0.0.0","1600x900","1600x773",NA,NA,0,"Task",1,"IJHAGBFCED","Passed AC2","","Self_focused_attention_first","Spreadsheet1",1,"Task Instructions","Screen 5","8nvnao",5,"continue","",3989.4,3983.8,3989.4,3989.4,3983.8,3989.4,1,3989.4,0,0,NA,"Click To Continue","Continue Button",2,"object-44","Task Instructions",NA,"SUPPRF09275"
"7",1702495990664,"13/12/2023 19:33:10",1702499590664,1,"13/12/2023 21:33:10",157047,5,"task-psw4",NA,33648480,9958759,NA,"complete",NA,"6579ffca36fd1eb86db52566","computer","Desktop or Laptop","Windows 10","Chrome 120.0.0.0","1600x900","1600x773",NA,NA,0,"Task",1,"IJHAGBFCED","Passed AC2","","Self_focused_attention_first","Spreadsheet1",NA,"","","",NA,"5","END",NA,NA,NA,NA,NA,NA,0,NA,NA,NA,NA,"","",NA,"","",NA,"SUPPRF09275"
"1",1702496111767,"13/12/2023 19:35:11",1702474511767,-6,"13/12/2023 07:35:11",157047,5,"task-psw4",NA,33648539,9958818,NA,"complete",NA,"657a041e453e501981a48244","computer","Desktop or Laptop","Mac OS 10.15.7","Chrome 111.0.0.0","1440x900","1440x821",NA,NA,0,"Task",1,"BCADJEIFHG","Passed AC2","","External_attention_first","Spreadsheet1",NA,"","","",NA,"5","BEGIN",NA,NA,NA,NA,NA,NA,0,NA,NA,NA,NA,"","",NA,"","",NA,"SUPPRF96766"
"2",1702496116220,"13/12/2023 19:35:16",1702474516220,-6,"13/12/2023 07:35:16",157047,5,"task-psw4",NA,33648539,9958818,NA,"complete",NA,"657a041e453e501981a48244","computer","Desktop or Laptop","Mac OS 10.15.7","Chrome 111.0.0.0","1440x900","1440x821",NA,NA,0,"Task",1,"BCADJEIFHG","Passed AC2","","External_attention_first","Spreadsheet1",1,"Task Instructions","Screen 1","anr7sn",1,"continue","",3783.182,3766.516,3783.182,3783.182,3766.516,3783.182,1,3783.182,0,0,NA,"Click To Continue","Continue Button",2,"object-1944","Task Instructions",NA,"SUPPRF96766"
"3",1702496125069,"13/12/2023 19:35:25",1702474525069,-6,"13/12/2023 07:35:25",157047,5,"task-psw4",NA,33648539,9958818,NA,"complete",NA,"657a041e453e501981a48244","computer","Desktop or Laptop","Mac OS 10.15.7","Chrome 111.0.0.0","1440x900","1440x821",NA,NA,0,"Task",1,"BCADJEIFHG","Passed AC2","","External_attention_first","Spreadsheet1",1,"Task Instructions","Screen 2","ce2tc8",2,"continue","",8866.864,8850.198,8866.864,8866.864,8850.198,8866.864,1,8866.864,0,0,NA,"Click To Continue","Continue Button",2,"object-7","Task Instructions",NA,"SUPPRF96766"
"4",1702496128390,"13/12/2023 19:35:28",1702474528390,-6,"13/12/2023 07:35:28",157047,5,"task-psw4",NA,33648539,9958818,NA,"complete",NA,"657a041e453e501981a48244","computer","Desktop or Laptop","Mac OS 10.15.7","Chrome 111.0.0.0","1440x900","1440x821",NA,NA,0,"Task",1,"BCADJEIFHG","Passed AC2","","External_attention_first","Spreadsheet1",1,"Task Instructions","Screen 3","1qtc8v",3,"continue","",3333.795,3317.129,3333.795,3333.795,3317.129,3333.795,1,3333.795,0,0,NA,"Click To Continue","Continue Button",2,"object-52","Task Instructions",NA,"SUPPRF96766"
"5",1702496131493,"13/12/2023 19:35:31",1702474531493,-6,"13/12/2023 07:35:31",157047,5,"task-psw4",NA,33648539,9958818,NA,"complete",NA,"657a041e453e501981a48244","computer","Desktop or Laptop","Mac OS 10.15.7","Chrome 111.0.0.0","1440x900","1440x821",NA,NA,0,"Task",1,"BCADJEIFHG","Passed AC2","","External_attention_first","Spreadsheet1",1,"Task Instructions","Screen 4","spepx9",4,"continue","",3123.98800014305,3116.542,3123.98800014305,3123.98800014305,3116.542,3123.98800014305,1,3123.98800014305,0,0,NA,"Click To Continue","Continue Button",2,"object-9","Task Instructions",NA,"SUPPRF96766"
"6",1702496134771,"13/12/2023 19:35:34",1702474534771,-6,"13/12/2023 07:35:34",157047,5,"task-psw4",NA,33648539,9958818,NA,"complete",NA,"657a041e453e501981a48244","computer","Desktop or Laptop","Mac OS 10.15.7","Chrome 111.0.0.0","1440x900","1440x821",NA,NA,0,"Task",1,"BCADJEIFHG","Passed AC2","","External_attention_first","Spreadsheet1",1,"Task Instructions","Screen 5","8nvnao",5,"continue","",3283.202,3266.536,3283.202,3283.202,3266.536,3283.202,1,3283.202,0,0,NA,"Click To Continue","Continue Button",2,"object-44","Task Instructions",NA,"SUPPRF96766"
"7",1702496134774,"13/12/2023 19:35:34",1702474534774,-6,"13/12/2023 07:35:34",157047,5,"task-psw4",NA,33648539,9958818,NA,"complete",NA,"657a041e453e501981a48244","computer","Desktop or Laptop","Mac OS 10.15.7","Chrome 111.0.0.0","1440x900","1440x821",NA,NA,0,"Task",1,"BCADJEIFHG","Passed AC2","","External_attention_first","Spreadsheet1",NA,"","","",NA,"5","END",NA,NA,NA,NA,NA,NA,0,NA,NA,NA,NA,"","",NA,"","",NA,"SUPPRF96766"
"1",1702496359858,"13/12/2023 19:39:19",1702474759858,-6,"13/12/2023 07:39:19",157047,5,"task-psw4",NA,33648600,9958835,NA,"complete",NA,"657a03f251784acbbc968334","computer","Desktop or Laptop","Windows 10","Chrome 120.0.0.0","1536x864","1536x730",NA,NA,0,"Task",1,"CDBEAFJGIH","Passed AC2","","Self_focused_attention_first","Spreadsheet1",NA,"","","",NA,"5","BEGIN",NA,NA,NA,NA,NA,NA,0,NA,NA,NA,NA,"","",NA,"","",NA,"SUPPRF15646"
"2",1702496653773,"13/12/2023 19:44:13",1702475053773,-6,"13/12/2023 07:44:13",157047,5,"task-psw4",NA,33648600,9958835,NA,"complete",NA,"657a03f251784acbbc968334","computer","Desktop or Laptop","Windows 10","Chrome 120.0.0.0","1536x864","1536x730",NA,NA,0,"Task",1,"CDBEAFJGIH","Passed AC2","","Self_focused_attention_first","Spreadsheet1",1,"Task Instructions","Screen 1","anr7sn",1,"continue","",293565.800000048,293561.4,293565.800000048,293565.800000048,293561.4,293565.800000048,1,293565.800000048,0,0,NA,"Click To Continue","Continue Button",2,"object-1944","Task Instructions",NA,"SUPPRF15646"
"3",1702496663019,"13/12/2023 19:44:23",1702475063019,-6,"13/12/2023 07:44:23",157047,5,"task-psw4",NA,33648600,9958835,NA,"complete",NA,"657a03f251784acbbc968334","computer","Desktop or Laptop","Windows 10","Chrome 120.0.0.0","1536x864","1536x730",NA,NA,0,"Task",1,"CDBEAFJGIH","Passed AC2","","Self_focused_attention_first","Spreadsheet1",1,"Task Instructions","Screen 2","ce2tc8",2,"continue","",9251.20000000001,9237.10000000003,9251.20000000001,9251.20000000001,9237.10000000003,9251.20000000001,1,9251.20000000001,0,0,NA,"Click To Continue","Continue Button",2,"object-7","Task Instructions",NA,"SUPPRF15646"
"4",1702496666369,"13/12/2023 19:44:26",1702475066369,-6,"13/12/2023 07:44:26",157047,5,"task-psw4",NA,33648600,9958835,NA,"complete",NA,"657a03f251784acbbc968334","computer","Desktop or Laptop","Windows 10","Chrome 120.0.0.0","1536x864","1536x730",NA,NA,0,"Task",1,"CDBEAFJGIH","Passed AC2","","Self_focused_attention_first","Spreadsheet1",1,"Task Instructions","Screen 3","1qtc8v",3,"continue","",3364.09999999998,3350.89999999997,3364.09999999998,3364.09999999998,3350.89999999997,3364.09999999998,1,3364.09999999998,0,0,NA,"Click To Continue","Continue Button",2,"object-52","Task Instructions",NA,"SUPPRF15646"
"5",1702496671426,"13/12/2023 19:44:31",1702475071426,-6,"13/12/2023 07:44:31",157047,5,"task-psw4",NA,33648600,9958835,NA,"complete",NA,"657a03f251784acbbc968334","computer","Desktop or Laptop","Windows 10","Chrome 120.0.0.0","1536x864","1536x730",NA,NA,0,"Task",1,"CDBEAFJGIH","Passed AC2","","Self_focused_attention_first","Spreadsheet1",1,"Task Instructions","Screen 4","spepx9",4,"continue","",5069.19999999995,5052.29999999999,5069.19999999995,5069.19999999995,5052.29999999999,5069.19999999995,1,5069.19999999995,0,0,NA,"Click To Continue","Continue Button",2,"object-9","Task Instructions",NA,"SUPPRF15646"
"6",1702496674784,"13/12/2023 19:44:34",1702475074784,-6,"13/12/2023 07:44:34",157047,5,"task-psw4",NA,33648600,9958835,NA,"complete",NA,"657a03f251784acbbc968334","computer","Desktop or Laptop","Windows 10","Chrome 120.0.0.0","1536x864","1536x730",NA,NA,0,"Task",1,"CDBEAFJGIH","Passed AC2","","Self_focused_attention_first","Spreadsheet1",1,"Task Instructions","Screen 5","8nvnao",5,"continue","",3376.80000009539,3367.70000000001,3376.80000009539,3376.80000009539,3367.70000000001,3376.80000009539,1,3376.80000009539,0,0,NA,"Click To Continue","Continue Button",2,"object-44","Task Instructions",NA,"SUPPRF15646"
"7",1702496674790,"13/12/2023 19:44:34",1702475074790,-6,"13/12/2023 07:44:34",157047,5,"task-psw4",NA,33648600,9958835,NA,"complete",NA,"657a03f251784acbbc968334","computer","Desktop or Laptop","Windows 10","Chrome 120.0.0.0","1536x864","1536x730",NA,NA,0,"Task",1,"CDBEAFJGIH","Passed AC2","","Self_focused_attention_first","Spreadsheet1",NA,"","","",NA,"5","END",NA,NA,NA,NA,NA,NA,0,NA,NA,NA,NA,"","",NA,"","",NA,"SUPPRF15646"
"1",1702496582272,"13/12/2023 19:43:02",1702467782272,-8,"13/12/2023 03:43:02",157047,5,"task-psw4",NA,33648639,9958831,NA,"complete",NA,"657a013563b921afefbe8823","computer","Desktop or Laptop","Windows 10","Chrome 120.0.0.0","1280x800","1280x639",NA,NA,0,"Task",1,"DECFBGAHJI","Passed AC2","","Self_focused_attention_first","Spreadsheet1",NA,"","","",NA,"5","BEGIN",NA,NA,NA,NA,NA,NA,0,NA,NA,NA,NA,"","",NA,"","",NA,"SUPPRF70678"
"2",1702496594819,"13/12/2023 19:43:14",1702467794819,-8,"13/12/2023 03:43:14",157047,5,"task-psw4",NA,33648639,9958831,NA,"complete",NA,"657a013563b921afefbe8823","computer","Desktop or Laptop","Windows 10","Chrome 120.0.0.0","1280x800","1280x639",NA,NA,0,"Task",1,"DECFBGAHJI","Passed AC2","","Self_focused_attention_first","Spreadsheet1",1,"Task Instructions","Screen 1","anr7sn",1,"continue","",11632.1,11615.5,11632.1,11632.1,11615.5,11632.1,1,11632.1,0,0,NA,"Click To Continue","Continue Button",2,"object-1944","Task Instructions",NA,"SUPPRF70678"
"3",1702496598014,"13/12/2023 19:43:18",1702467798014,-8,"13/12/2023 03:43:18",157047,5,"task-psw4",NA,33648639,9958831,NA,"complete",NA,"657a013563b921afefbe8823","computer","Desktop or Laptop","Windows 10","Chrome 120.0.0.0","1280x800","1280x639",NA,NA,0,"Task",1,"DECFBGAHJI","Passed AC2","","Self_focused_attention_first","Spreadsheet1",1,"Task Instructions","Screen 2","ce2tc8",2,"continue","",3258.8,3249.7,3258.8,3258.8,3249.7,3258.8,1,3258.8,0,0,NA,"Click To Continue","Continue Button",2,"object-7","Task Instructions",NA,"SUPPRF70678"
"4",1702496600934,"13/12/2023 19:43:20",1702467800934,-8,"13/12/2023 03:43:20",157047,5,"task-psw4",NA,33648639,9958831,NA,"complete",NA,"657a013563b921afefbe8823","computer","Desktop or Laptop","Windows 10","Chrome 120.0.0.0","1280x800","1280x639",NA,NA,0,"Task",1,"DECFBGAHJI","Passed AC2","","Self_focused_attention_first","Spreadsheet1",1,"Task Instructions","Screen 3","1qtc8v",3,"continue","",2928.1,2916.4,2928.1,2928.1,2916.4,2928.1,1,2928.1,0,0,NA,"Click To Continue","Continue Button",2,"object-52","Task Instructions",NA,"SUPPRF70678"
"5",1702496603856,"13/12/2023 19:43:23",1702467803856,-8,"13/12/2023 03:43:23",157047,5,"task-psw4",NA,33648639,9958831,NA,"complete",NA,"657a013563b921afefbe8823","computer","Desktop or Laptop","Windows 10","Chrome 120.0.0.0","1280x800","1280x639",NA,NA,0,"Task",1,"DECFBGAHJI","Passed AC2","","Self_focused_attention_first","Spreadsheet1",1,"Task Instructions","Screen 4","spepx9",4,"continue","",2933.1,2916.4,2933.1,2933.1,2916.4,2933.1,1,2933.1,0,0,NA,"Click To Continue","Continue Button",2,"object-9","Task Instructions",NA,"SUPPRF70678"
"6",1702496606810,"13/12/2023 19:43:26",1702467806810,-8,"13/12/2023 03:43:26",157047,5,"task-psw4",NA,33648639,9958831,NA,"complete",NA,"657a013563b921afefbe8823","computer","Desktop or Laptop","Windows 10","Chrome 120.0.0.0","1280x800","1280x639",NA,NA,0,"Task",1,"DECFBGAHJI","Passed AC2","","Self_focused_attention_first","Spreadsheet1",1,"Task Instructions","Screen 5","8nvnao",5,"continue","",2966.4,2949.7,2966.4,2966.4,2949.7,2966.4,1,2966.4,0,0,NA,"Click To Continue","Continue Button",2,"object-44","Task Instructions",NA,"SUPPRF70678"
"7",1702496606830,"13/12/2023 19:43:26",1702467806830,-8,"13/12/2023 03:43:26",157047,5,"task-psw4",NA,33648639,9958831,NA,"complete",NA,"657a013563b921afefbe8823","computer","Desktop or Laptop","Windows 10","Chrome 120.0.0.0","1280x800","1280x639",NA,NA,0,"Task",1,"DECFBGAHJI","Passed AC2","","Self_focused_attention_first","Spreadsheet1",NA,"","","",NA,"5","END",NA,NA,NA,NA,NA,NA,0,NA,NA,NA,NA,"","",NA,"","",NA,"SUPPRF70678"
"1",1702496993837,"13/12/2023 19:49:53",1702500593837,1,"13/12/2023 21:49:53",157047,5,"task-psw4",NA,33648734,9958788,NA,"complete",NA,"657a0211e01645c641be8985","computer","Desktop or Laptop","Windows 10","Chrome 120.0.0.0","1536x864","614x738",NA,NA,0,"Task",1,"JAIBHCGDFE","Failed AC2","Passed AC1","External_attention_first","Spreadsheet1",NA,"","","",NA,"5","BEGIN",NA,NA,NA,NA,NA,NA,0,NA,NA,NA,NA,"","",NA,"","",NA,"SUPPRF25764"
"2",1702497002725,"13/12/2023 19:50:02",1702500602725,1,"13/12/2023 21:50:02",157047,5,"task-psw4",NA,33648734,9958788,NA,"complete",NA,"657a0211e01645c641be8985","computer","Desktop or Laptop","Windows 10","Chrome 120.0.0.0","1536x864","614x738",NA,NA,0,"Task",1,"JAIBHCGDFE","Failed AC2","Passed AC1","External_attention_first","Spreadsheet1",1,"Task Instructions","Screen 1","anr7sn",1,"continue","",7795.7,7779.5,7795.7,7795.7,7779.5,7795.7,1,7795.7,0,0,NA,"Click To Continue","Continue Button",2,"object-1944","Task Instructions",NA,"SUPPRF25764"
"3",1702497023275,"13/12/2023 19:50:23",1702500623275,1,"13/12/2023 21:50:23",157047,5,"task-psw4",NA,33648734,9958788,NA,"complete",NA,"657a0211e01645c641be8985","computer","Desktop or Laptop","Windows 10","Chrome 120.0.0.0","1536x864","614x738",NA,NA,0,"Task",1,"JAIBHCGDFE","Failed AC2","Passed AC1","External_attention_first","Spreadsheet1",1,"Task Instructions","Screen 2","ce2tc8",2,"continue","",20556.9,20540.8,20556.9,20556.9,20540.8,20556.9,1,20556.9,0,0,NA,"Click To Continue","Continue Button",2,"object-7","Task Instructions",NA,"SUPPRF25764"
"4",1702497032719,"13/12/2023 19:50:32",1702500632719,1,"13/12/2023 21:50:32",157047,5,"task-psw4",NA,33648734,9958788,NA,"complete",NA,"657a0211e01645c641be8985","computer","Desktop or Laptop","Windows 10","Chrome 120.0.0.0","1536x864","614x738",NA,NA,0,"Task",1,"JAIBHCGDFE","Failed AC2","Passed AC1","External_attention_first","Spreadsheet1",1,"Task Instructions","Screen 3","1qtc8v",3,"continue","",9475.8,9462.4,9475.8,9475.8,9462.4,9475.8,1,9475.8,0,0,NA,"Click To Continue","Continue Button",2,"object-52","Task Instructions",NA,"SUPPRF25764"
"5",1702497068677,"13/12/2023 19:51:08",1702500668677,1,"13/12/2023 21:51:08",157047,5,"task-psw4",NA,33648734,9958788,NA,"complete",NA,"657a0211e01645c641be8985","computer","Desktop or Laptop","Windows 10","Chrome 120.0.0.0","1536x864","614x738",NA,NA,0,"Task",1,"JAIBHCGDFE","Failed AC2","Passed AC1","External_attention_first","Spreadsheet1",1,"Task Instructions","Screen 4","spepx9",4,"continue","",35934.3,35917.4,35934.3,35934.3,35917.4,35934.3,1,35934.3,0,0,NA,"Click To Continue","Continue Button",2,"object-9","Task Instructions",NA,"SUPPRF25764"
"6",1702497072196,"13/12/2023 19:51:12",1702500672196,1,"13/12/2023 21:51:12",157047,5,"task-psw4",NA,33648734,9958788,NA,"complete",NA,"657a0211e01645c641be8985","computer","Desktop or Laptop","Windows 10","Chrome 120.0.0.0","1536x864","614x738",NA,NA,0,"Task",1,"JAIBHCGDFE","Failed AC2","Passed AC1","External_attention_first","Spreadsheet1",1,"Task Instructions","Screen 5","8nvnao",5,"continue","",3573.20000004768,3564.7,3573.20000004768,3573.20000004768,3564.7,3573.20000004768,1,3573.20000004768,0,0,NA,"Click To Continue","Continue Button",2,"object-44","Task Instructions",NA,"SUPPRF25764"
"7",1702497072207,"13/12/2023 19:51:12",1702500672207,1,"13/12/2023 21:51:12",157047,5,"task-psw4",NA,33648734,9958788,NA,"complete",NA,"657a0211e01645c641be8985","computer","Desktop or Laptop","Windows 10","Chrome 120.0.0.0","1536x864","614x738",NA,NA,0,"Task",1,"JAIBHCGDFE","Failed AC2","Passed AC1","External_attention_first","Spreadsheet1",NA,"","","",NA,"5","END",NA,NA,NA,NA,NA,NA,0,NA,NA,NA,NA,"","",NA,"","",NA,"SUPPRF25764"
"1",1702497855199,"13/12/2023 20:04:15",1702472655199,-7,"13/12/2023 06:04:15",157047,5,"task-psw4",NA,33648929,9958898,NA,"complete",NA,"657a0ad8376b4cbf1cc17c74","computer","Desktop or Laptop","Windows 10","Chrome 119.0.0.0","1536x864","1536x730",NA,NA,0,"Task",1,"FGEHDICJBA","Passed AC2","","External_attention_first","Spreadsheet1",NA,"","","",NA,"5","BEGIN",NA,NA,NA,NA,NA,NA,0,NA,NA,NA,NA,"","",NA,"","",NA,"SUPPRF05707"
"2",1702497858950,"13/12/2023 20:04:18",1702472658950,-7,"13/12/2023 06:04:18",157047,5,"task-psw4",NA,33648929,9958898,NA,"complete",NA,"657a0ad8376b4cbf1cc17c74","computer","Desktop or Laptop","Windows 10","Chrome 119.0.0.0","1536x864","1536x730",NA,NA,0,"Task",1,"FGEHDICJBA","Passed AC2","","External_attention_first","Spreadsheet1",1,"Task Instructions","Screen 1","anr7sn",1,"continue","",3631.202,3617.028,3631.202,3631.202,3617.028,3631.202,1,3631.202,0,0,NA,"Click To Continue","Continue Button",2,"object-1944","Task Instructions",NA,"SUPPRF05707"
"3",1702497868527,"13/12/2023 20:04:28",1702472668527,-7,"13/12/2023 06:04:28",157047,5,"task-psw4",NA,33648929,9958898,NA,"complete",NA,"657a0ad8376b4cbf1cc17c74","computer","Desktop or Laptop","Windows 10","Chrome 119.0.0.0","1536x864","1536x730",NA,NA,0,"Task",1,"FGEHDICJBA","Passed AC2","","External_attention_first","Spreadsheet1",1,"Task Instructions","Screen 2","ce2tc8",2,"continue","",9591.77399999404,9583.52,9591.77399999404,9591.77399999404,9583.52,9591.77399999404,1,9591.77399999404,0,0,NA,"Click To Continue","Continue Button",2,"object-7","Task Instructions",NA,"SUPPRF05707"
"4",1702497872079,"13/12/2023 20:04:32",1702472672079,-7,"13/12/2023 06:04:32",157047,5,"task-psw4",NA,33648929,9958898,NA,"complete",NA,"657a0ad8376b4cbf1cc17c74","computer","Desktop or Laptop","Windows 10","Chrome 119.0.0.0","1536x864","1536x730",NA,NA,0,"Task",1,"FGEHDICJBA","Passed AC2","","External_attention_first","Spreadsheet1",1,"Task Instructions","Screen 3","1qtc8v",3,"continue","",3560.45399999702,3550.109,3560.45399999702,3560.45399999702,3550.109,3560.45399999702,1,3560.45399999702,0,0,NA,"Click To Continue","Continue Button",2,"object-52","Task Instructions",NA,"SUPPRF05707"
"5",1702497875803,"13/12/2023 20:04:35",1702472675803,-7,"13/12/2023 06:04:35",157047,5,"task-psw4",NA,33648929,9958898,NA,"complete",NA,"657a0ad8376b4cbf1cc17c74","computer","Desktop or Laptop","Windows 10","Chrome 119.0.0.0","1536x864","1536x730",NA,NA,0,"Task",1,"FGEHDICJBA","Passed AC2","","External_attention_first","Spreadsheet1",1,"Task Instructions","Screen 4","spepx9",4,"continue","",3734.14499999404,3733.172,3734.14499999404,3734.14499999404,3733.172,3734.14499999404,1,3734.14499999404,0,0,NA,"Click To Continue","Continue Button",2,"object-9","Task Instructions",NA,"SUPPRF05707"
"6",1702497878731,"13/12/2023 20:04:38",1702472678731,-7,"13/12/2023 06:04:38",157047,5,"task-psw4",NA,33648929,9958898,NA,"complete",NA,"657a0ad8376b4cbf1cc17c74","computer","Desktop or Laptop","Windows 10","Chrome 119.0.0.0","1536x864","1536x730",NA,NA,0,"Task",1,"FGEHDICJBA","Passed AC2","","External_attention_first","Spreadsheet1",1,"Task Instructions","Screen 5","8nvnao",5,"continue","",2928.67299999702,2916.924,2928.67299999702,2928.67299999702,2916.924,2928.67299999702,1,2928.67299999702,0,0,NA,"Click To Continue","Continue Button",2,"object-44","Task Instructions",NA,"SUPPRF05707"
"7",1702497878732,"13/12/2023 20:04:38",1702472678732,-7,"13/12/2023 06:04:38",157047,5,"task-psw4",NA,33648929,9958898,NA,"complete",NA,"657a0ad8376b4cbf1cc17c74","computer","Desktop or Laptop","Windows 10","Chrome 119.0.0.0","1536x864","1536x730",NA,NA,0,"Task",1,"FGEHDICJBA","Passed AC2","","External_attention_first","Spreadsheet1",NA,"","","",NA,"5","END",NA,NA,NA,NA,NA,NA,0,NA,NA,NA,NA,"","",NA,"","",NA,"SUPPRF05707"
"1",1702497883365,"13/12/2023 20:04:43",1702479883365,-5,"13/12/2023 10:04:43",157047,5,"task-psw4",NA,33648934,9958859,NA,"complete",NA,"657a075716177c7c60bfb849","computer","Desktop or Laptop","Windows 10","Chrome 120.0.0.0","1920x1080","929x916",NA,NA,0,"Task",1,"EFDGCHBIAJ","Passed AC2","","Self_focused_attention_first","Spreadsheet1",NA,"","","",NA,"5","BEGIN",NA,NA,NA,NA,NA,NA,0,NA,NA,NA,NA,"","",NA,"","",NA,"SUPPRF30509"
"2",1702497887203,"13/12/2023 20:04:47",1702479887203,-5,"13/12/2023 10:04:47",157047,5,"task-psw4",NA,33648934,9958859,NA,"complete",NA,"657a075716177c7c60bfb849","computer","Desktop or Laptop","Windows 10","Chrome 120.0.0.0","1920x1080","929x916",NA,NA,0,"Task",1,"EFDGCHBIAJ","Passed AC2","","Self_focused_attention_first","Spreadsheet1",1,"Task Instructions","Screen 1","anr7sn",1,"continue","",3216.89999999702,3215.2,3216.89999999702,3216.89999999702,3215.2,3216.89999999702,1,3216.89999999702,0,0,NA,"Click To Continue","Continue Button",2,"object-1944","Task Instructions",NA,"SUPPRF30509"
"3",1702497899796,"13/12/2023 20:04:59",1702479899796,-5,"13/12/2023 10:04:59",157047,5,"task-psw4",NA,33648934,9958859,NA,"complete",NA,"657a075716177c7c60bfb849","computer","Desktop or Laptop","Windows 10","Chrome 120.0.0.0","1920x1080","929x916",NA,NA,0,"Task",1,"EFDGCHBIAJ","Passed AC2","","Self_focused_attention_first","Spreadsheet1",1,"Task Instructions","Screen 2","ce2tc8",2,"continue","",12594.600000003,12589.9,12594.600000003,12594.600000003,12589.9,12594.600000003,1,12594.600000003,0,0,NA,"Click To Continue","Continue Button",2,"object-7","Task Instructions",NA,"SUPPRF30509"
"4",1702497903040,"13/12/2023 20:05:03",1702479903040,-5,"13/12/2023 10:05:03",157047,5,"task-psw4",NA,33648934,9958859,NA,"complete",NA,"657a075716177c7c60bfb849","computer","Desktop or Laptop","Windows 10","Chrome 120.0.0.0","1920x1080","929x916",NA,NA,0,"Task",1,"EFDGCHBIAJ","Passed AC2","","Self_focused_attention_first","Spreadsheet1",1,"Task Instructions","Screen 3","1qtc8v",3,"continue","",3249,3243.1,3249,3249,3243.1,3249,1,3249,0,0,NA,"Click To Continue","Continue Button",2,"object-52","Task Instructions",NA,"SUPPRF30509"
"5",1702497906112,"13/12/2023 20:05:06",1702479906112,-5,"13/12/2023 10:05:06",157047,5,"task-psw4",NA,33648934,9958859,NA,"complete",NA,"657a075716177c7c60bfb849","computer","Desktop or Laptop","Windows 10","Chrome 120.0.0.0","1920x1080","929x916",NA,NA,0,"Task",1,"EFDGCHBIAJ","Passed AC2","","Self_focused_attention_first","Spreadsheet1",1,"Task Instructions","Screen 4","spepx9",4,"continue","",3076.10000000001,3069.3,3076.10000000001,3076.10000000001,3069.3,3076.10000000001,1,3076.10000000001,0,0,NA,"Click To Continue","Continue Button",2,"object-9","Task Instructions",NA,"SUPPRF30509"
"6",1702497910475,"13/12/2023 20:05:10",1702479910475,-5,"13/12/2023 10:05:10",157047,5,"task-psw4",NA,33648934,9958859,NA,"complete",NA,"657a075716177c7c60bfb849","computer","Desktop or Laptop","Windows 10","Chrome 120.0.0.0","1920x1080","929x916",NA,NA,0,"Task",1,"EFDGCHBIAJ","Passed AC2","","Self_focused_attention_first","Spreadsheet1",1,"Task Instructions","Screen 5","8nvnao",5,"continue","",4371.30000000298,4368,4371.30000000298,4371.30000000298,4368,4371.30000000298,1,4371.30000000298,0,0,NA,"Click To Continue","Continue Button",2,"object-44","Task Instructions",NA,"SUPPRF30509"
"7",1702497910488,"13/12/2023 20:05:10",1702479910488,-5,"13/12/2023 10:05:10",157047,5,"task-psw4",NA,33648934,9958859,NA,"complete",NA,"657a075716177c7c60bfb849","computer","Desktop or Laptop","Windows 10","Chrome 120.0.0.0","1920x1080","929x916",NA,NA,0,"Task",1,"EFDGCHBIAJ","Passed AC2","","Self_focused_attention_first","Spreadsheet1",NA,"","","",NA,"5","END",NA,NA,NA,NA,NA,NA,0,NA,NA,NA,NA,"","",NA,"","",NA,"SUPPRF30509"
"1",1702497905457,"13/12/2023 20:05:05",1702476305457,-6,"13/12/2023 08:05:05",157047,5,"task-psw4",NA,33648945,9958903,NA,"complete",NA,"657a0b639991455e828a5bad","computer","Desktop or Laptop","Windows 10","Chrome 120.0.0.0","1542x758","1536x750",NA,NA,0,"Task",1,"HIGJFAEBDC","Passed AC2","","Self_focused_attention_first","Spreadsheet1",NA,"","","",NA,"5","BEGIN",NA,NA,NA,NA,NA,NA,0,NA,NA,NA,NA,"","",NA,"","",NA,"SUPPRF85554"
"2",1702497910315,"13/12/2023 20:05:10",1702476310315,-6,"13/12/2023 08:05:10",157047,5,"task-psw4",NA,33648945,9958903,NA,"complete",NA,"657a0b639991455e828a5bad","computer","Desktop or Laptop","Windows 10","Chrome 120.0.0.0","1542x758","1536x750",NA,NA,0,"Task",1,"HIGJFAEBDC","Passed AC2","","Self_focused_attention_first","Spreadsheet1",1,"Task Instructions","Screen 1","anr7sn",1,"continue","",4731,4718,4731,4731,4718,4731,1,4731,0,0,NA,"Click To Continue","Continue Button",2,"object-1944","Task Instructions",NA,"SUPPRF85554"
"3",1702497973330,"13/12/2023 20:06:13",1702476373330,-6,"13/12/2023 08:06:13",157047,5,"task-psw4",NA,33648945,9958903,NA,"complete",NA,"657a0b639991455e828a5bad","computer","Desktop or Laptop","Windows 10","Chrome 120.0.0.0","1542x758","1536x750",NA,NA,0,"Task",1,"HIGJFAEBDC","Passed AC2","","Self_focused_attention_first","Spreadsheet1",1,"Task Instructions","Screen 2","ce2tc8",2,"continue","",63029,63013,63029,63029,63013,63029,1,63029,0,0,NA,"Click To Continue","Continue Button",2,"object-7","Task Instructions",NA,"SUPPRF85554"
"4",1702497977382,"13/12/2023 20:06:17",1702476377382,-6,"13/12/2023 08:06:17",157047,5,"task-psw4",NA,33648945,9958903,NA,"complete",NA,"657a0b639991455e828a5bad","computer","Desktop or Laptop","Windows 10","Chrome 120.0.0.0","1542x758","1536x750",NA,NA,0,"Task",1,"HIGJFAEBDC","Passed AC2","","Self_focused_attention_first","Spreadsheet1",1,"Task Instructions","Screen 3","1qtc8v",3,"continue","",4066,4050,4066,4066,4050,4066,1,4066,0,0,NA,"Click To Continue","Continue Button",2,"object-52","Task Instructions",NA,"SUPPRF85554"
"5",1702497980968,"13/12/2023 20:06:20",1702476380968,-6,"13/12/2023 08:06:20",157047,5,"task-psw4",NA,33648945,9958903,NA,"complete",NA,"657a0b639991455e828a5bad","computer","Desktop or Laptop","Windows 10","Chrome 120.0.0.0","1542x758","1536x750",NA,NA,0,"Task",1,"HIGJFAEBDC","Passed AC2","","Self_focused_attention_first","Spreadsheet1",1,"Task Instructions","Screen 4","spepx9",4,"continue","",3603,3600,3603,3603,3600,3603,1,3603,0,0,NA,"Click To Continue","Continue Button",2,"object-9","Task Instructions",NA,"SUPPRF85554"
"6",1702497985776,"13/12/2023 20:06:25",1702476385776,-6,"13/12/2023 08:06:25",157047,5,"task-psw4",NA,33648945,9958903,NA,"complete",NA,"657a0b639991455e828a5bad","computer","Desktop or Laptop","Windows 10","Chrome 120.0.0.0","1542x758","1536x750",NA,NA,0,"Task",1,"HIGJFAEBDC","Passed AC2","","Self_focused_attention_first","Spreadsheet1",1,"Task Instructions","Screen 5","8nvnao",5,"continue","",4811,4800,4811,4811,4800,4811,1,4811,0,0,NA,"Click To Continue","Continue Button",2,"object-44","Task Instructions",NA,"SUPPRF85554"
"7",1702497985788,"13/12/2023 20:06:25",1702476385788,-6,"13/12/2023 08:06:25",157047,5,"task-psw4",NA,33648945,9958903,NA,"complete",NA,"657a0b639991455e828a5bad","computer","Desktop or Laptop","Windows 10","Chrome 120.0.0.0","1542x758","1536x750",NA,NA,0,"Task",1,"HIGJFAEBDC","Passed AC2","","Self_focused_attention_first","Spreadsheet1",NA,"","","",NA,"5","END",NA,NA,NA,NA,NA,NA,0,NA,NA,NA,NA,"","",NA,"","",NA,"SUPPRF85554"
"1",1702497978556,"13/12/2023 20:06:18",1702469178556,-8,"13/12/2023 04:06:18",157047,5,"task-psw4",NA,33648969,9958901,NA,"complete",NA,"657a0903cc921a57cf50ae0f","computer","Desktop or Laptop","Mac OS 10.15.7","Chrome 116.0.0.0","1512x982","1512x828",NA,NA,0,"Task",1,"GHFIEJDACB","Passed AC2","","External_attention_first","Spreadsheet1",NA,"","","",NA,"5","BEGIN",NA,NA,NA,NA,NA,NA,0,NA,NA,NA,NA,"","",NA,"","",NA,"SUPPRF71127"
"2",1702497983726,"13/12/2023 20:06:23",1702469183726,-8,"13/12/2023 04:06:23",157047,5,"task-psw4",NA,33648969,9958901,NA,"complete",NA,"657a0903cc921a57cf50ae0f","computer","Desktop or Laptop","Mac OS 10.15.7","Chrome 116.0.0.0","1512x982","1512x828",NA,NA,0,"Task",1,"GHFIEJDACB","Passed AC2","","External_attention_first","Spreadsheet1",1,"Task Instructions","Screen 1","anr7sn",1,"continue","",4439.33899998808,4433.156,4439.33899998808,4439.33899998808,4433.156,4439.33899998808,1,4439.33899998808,0,0,NA,"Click To Continue","Continue Button",2,"object-1944","Task Instructions",NA,"SUPPRF71127"
"3",1702497991583,"13/12/2023 20:06:31",1702469191583,-8,"13/12/2023 04:06:31",157047,5,"task-psw4",NA,33648969,9958901,NA,"complete",NA,"657a0903cc921a57cf50ae0f","computer","Desktop or Laptop","Mac OS 10.15.7","Chrome 116.0.0.0","1512x982","1512x828",NA,NA,0,"Task",1,"GHFIEJDACB","Passed AC2","","External_attention_first","Spreadsheet1",1,"Task Instructions","Screen 2","ce2tc8",2,"continue","",7862.536,7854.203,7862.536,7862.536,7854.203,7862.536,1,7862.536,0,0,NA,"Click To Continue","Continue Button",2,"object-7","Task Instructions",NA,"SUPPRF71127"
"4",1702497999080,"13/12/2023 20:06:39",1702469199080,-8,"13/12/2023 04:06:39",157047,5,"task-psw4",NA,33648969,9958901,NA,"complete",NA,"657a0903cc921a57cf50ae0f","computer","Desktop or Laptop","Mac OS 10.15.7","Chrome 116.0.0.0","1512x982","1512x828",NA,NA,0,"Task",1,"GHFIEJDACB","Passed AC2","","External_attention_first","Spreadsheet1",1,"Task Instructions","Screen 3","1qtc8v",3,"continue","",7506.08000001192,7500.051,7506.08000001192,7506.08000001192,7500.051,7506.08000001192,1,7506.08000001192,0,0,NA,"Click To Continue","Continue Button",2,"object-52","Task Instructions",NA,"SUPPRF71127"
"5",1702498003176,"13/12/2023 20:06:43",1702469203176,-8,"13/12/2023 04:06:43",157047,5,"task-psw4",NA,33648969,9958901,NA,"complete",NA,"657a0903cc921a57cf50ae0f","computer","Desktop or Laptop","Mac OS 10.15.7","Chrome 116.0.0.0","1512x982","1512x828",NA,NA,0,"Task",1,"GHFIEJDACB","Passed AC2","","External_attention_first","Spreadsheet1",1,"Task Instructions","Screen 4","spepx9",4,"continue","",4099.836,4091.503,4099.836,4099.836,4091.503,4099.836,1,4099.836,0,0,NA,"Click To Continue","Continue Button",2,"object-9","Task Instructions",NA,"SUPPRF71127"
"6",1702498006645,"13/12/2023 20:06:46",1702469206645,-8,"13/12/2023 04:06:46",157047,5,"task-psw4",NA,33648969,9958901,NA,"complete",NA,"657a0903cc921a57cf50ae0f","computer","Desktop or Laptop","Mac OS 10.15.7","Chrome 116.0.0.0","1512x982","1512x828",NA,NA,0,"Task",1,"GHFIEJDACB","Passed AC2","","External_attention_first","Spreadsheet1",1,"Task Instructions","Screen 5","8nvnao",5,"continue","",3479.378,3471.045,3479.378,3479.378,3471.045,3479.378,1,3479.378,0,0,NA,"Click To Continue","Continue Button",2,"object-44","Task Instructions",NA,"SUPPRF71127"
"7",1702498006647,"13/12/2023 20:06:46",1702469206647,-8,"13/12/2023 04:06:46",157047,5,"task-psw4",NA,33648969,9958901,NA,"complete",NA,"657a0903cc921a57cf50ae0f","computer","Desktop or Laptop","Mac OS 10.15.7","Chrome 116.0.0.0","1512x982","1512x828",NA,NA,0,"Task",1,"GHFIEJDACB","Passed AC2","","External_attention_first","Spreadsheet1",NA,"","","",NA,"5","END",NA,NA,NA,NA,NA,NA,0,NA,NA,NA,NA,"","",NA,"","",NA,"SUPPRF71127"
"1",1702498930332,"13/12/2023 20:22:10",1702498930332,0,"13/12/2023 20:22:10",157047,5,"task-psw4",NA,33649258,9958939,NA,"complete",NA,"657a0c281916bca7b797b8d1","computer","Desktop or Laptop","Windows 10","Chrome 120.0.0.0","1920x1080","1920x919",NA,NA,0,"Task",1,"IJHAGBFCED","Passed AC2","","Self_focused_attention_first","Spreadsheet1",NA,"","","",NA,"5","BEGIN",NA,NA,NA,NA,NA,NA,0,NA,NA,NA,NA,"","",NA,"","",NA,"SUPPRF18856"
"2",1702498934982,"13/12/2023 20:22:14",1702498934982,0,"13/12/2023 20:22:14",157047,5,"task-psw4",NA,33649258,9958939,NA,"complete",NA,"657a0c281916bca7b797b8d1","computer","Desktop or Laptop","Windows 10","Chrome 120.0.0.0","1920x1080","1920x919",NA,NA,0,"Task",1,"IJHAGBFCED","Passed AC2","","Self_focused_attention_first","Spreadsheet1",1,"Task Instructions","Screen 1","anr7sn",1,"continue","",4594.30000002384,4589.5,4594.30000002384,4594.30000002384,4589.5,4594.30000002384,1,4594.30000002384,0,0,NA,"Click To Continue","Continue Button",2,"object-1944","Task Instructions",NA,"SUPPRF18856"
"3",1702498938914,"13/12/2023 20:22:18",1702498938914,0,"13/12/2023 20:22:18",157047,5,"task-psw4",NA,33649258,9958939,NA,"complete",NA,"657a0c281916bca7b797b8d1","computer","Desktop or Laptop","Windows 10","Chrome 120.0.0.0","1920x1080","1920x919",NA,NA,0,"Task",1,"IJHAGBFCED","Passed AC2","","Self_focused_attention_first","Spreadsheet1",1,"Task Instructions","Screen 2","ce2tc8",2,"continue","",3937.2,3930.6,3937.2,3937.2,3930.6,3937.2,1,3937.2,0,0,NA,"Click To Continue","Continue Button",2,"object-7","Task Instructions",NA,"SUPPRF18856"
"4",1702498941800,"13/12/2023 20:22:21",1702498941800,0,"13/12/2023 20:22:21",157047,5,"task-psw4",NA,33649258,9958939,NA,"complete",NA,"657a0c281916bca7b797b8d1","computer","Desktop or Laptop","Windows 10","Chrome 120.0.0.0","1920x1080","1920x919",NA,NA,0,"Task",1,"IJHAGBFCED","Passed AC2","","Self_focused_attention_first","Spreadsheet1",1,"Task Instructions","Screen 3","1qtc8v",3,"continue","",2892.80000004768,2888.8,2892.80000004768,2892.80000004768,2888.8,2892.80000004768,1,2892.80000004768,0,0,NA,"Click To Continue","Continue Button",2,"object-52","Task Instructions",NA,"SUPPRF18856"
"5",1702498944331,"13/12/2023 20:22:24",1702498944331,0,"13/12/2023 20:22:24",157047,5,"task-psw4",NA,33649258,9958939,NA,"complete",NA,"657a0c281916bca7b797b8d1","computer","Desktop or Laptop","Windows 10","Chrome 120.0.0.0","1920x1080","1920x919",NA,NA,0,"Task",1,"IJHAGBFCED","Passed AC2","","Self_focused_attention_first","Spreadsheet1",1,"Task Instructions","Screen 4","spepx9",4,"continue","",2534.7,2527.7,2534.7,2534.7,2527.7,2534.7,1,2534.7,0,0,NA,"Click To Continue","Continue Button",2,"object-9","Task Instructions",NA,"SUPPRF18856"
"6",1702498952326,"13/12/2023 20:22:32",1702498952326,0,"13/12/2023 20:22:32",157047,5,"task-psw4",NA,33649258,9958939,NA,"complete",NA,"657a0c281916bca7b797b8d1","computer","Desktop or Laptop","Windows 10","Chrome 120.0.0.0","1920x1080","1920x919",NA,NA,0,"Task",1,"IJHAGBFCED","Passed AC2","","Self_focused_attention_first","Spreadsheet1",1,"Task Instructions","Screen 5","8nvnao",5,"response","bot",8001.6,7999.6,8001.6,8001.6,7999.6,8001.6,1,8001.6,0,0,NA,"Click Response","Response",5,"object-47","Task Instructions",NA,"SUPPRF18856"
"7",1702498952328,"13/12/2023 20:22:32",1702498952328,0,"13/12/2023 20:22:32",157047,5,"task-psw4",NA,33649258,9958939,NA,"complete",NA,"657a0c281916bca7b797b8d1","computer","Desktop or Laptop","Windows 10","Chrome 120.0.0.0","1920x1080","1920x919",NA,NA,0,"Task",1,"IJHAGBFCED","Passed AC2","","Self_focused_attention_first","Spreadsheet1",NA,"","","",NA,"5","END",NA,NA,NA,NA,NA,NA,0,NA,NA,NA,NA,"","",NA,"","",NA,"SUPPRF18856"
"1",1702499051081,"13/12/2023 20:24:11",1702481051081,-5,"13/12/2023 10:24:11",157047,5,"task-psw4",NA,33649335,9958998,NA,"complete",NA,"657a10edbb15e13810507dd0","computer","Desktop or Laptop","Windows 10","Chrome 119.0.0.0","1504x1003","1504x925",NA,NA,0,"Task",1,"BCADJEIFHG","Passed AC2","","External_attention_first","Spreadsheet1",NA,"","","",NA,"5","BEGIN",NA,NA,NA,NA,NA,NA,0,NA,NA,NA,NA,"","",NA,"","",NA,"SUPPRF67062"
"2",1702499054213,"13/12/2023 20:24:14",1702481054213,-5,"13/12/2023 10:24:14",157047,5,"task-psw4",NA,33649335,9958998,NA,"complete",NA,"657a10edbb15e13810507dd0","computer","Desktop or Laptop","Windows 10","Chrome 119.0.0.0","1504x1003","1504x925",NA,NA,0,"Task",1,"BCADJEIFHG","Passed AC2","","External_attention_first","Spreadsheet1",1,"Task Instructions","Screen 1","anr7sn",1,"continue","",3063.7549997139,3050.375,3063.7549997139,3063.7549997139,3050.375,3063.7549997139,1,3063.7549997139,0,0,NA,"Click To Continue","Continue Button",2,"object-1944","Task Instructions",NA,"SUPPRF67062"
